##NAMES=Zircon
##RRUFFID=R100128
##IDEAL CHEMISTRY=Zr^4+^SiO_4_
##LOCALITY=Cambodia
##OWNER=RRUFF
##SOURCE=William W. Pinch
##DESCRIPTION=Blue cut gemstone
##STATUS=The identification of this mineral has been confirmed by single-crystal X-ray diffraction.
##URL=rruff.info/R100128
91.03516, 28.56307
91.51727, 28.19441
91.99939, 28.53202
92.48151, 29.34618
92.96362, 29.98586
93.44574, 29.89662
93.92786, 29.42047
94.40997, 29.40051
94.89210, 30.02676
95.37421, 30.71013
95.85633, 30.28140
96.33845, 28.80353
96.82056, 27.63318
97.30268, 27.98638
97.78480, 29.67604
98.26691, 30.80903
98.74903, 31.10489
99.23115, 30.72893
99.71326, 30.03124
100.1954, 28.94727
100.6775, 27.81572
101.1596, 26.81735
101.6417, 25.89774
102.1239, 25.43811
102.6060, 25.61279
103.0881, 26.38177
103.5702, 27.03025
104.0523, 27.53660
104.5344, 27.95602
105.0166, 28.35101
105.4987, 28.71567
105.9808, 29.06452
106.4629, 29.43184
106.9450, 29.87164
107.4271, 30.09988
107.9093, 30.12860
108.3914, 29.94374
108.8735, 29.51066
109.3556, 28.24595
109.8377, 27.28225
110.3198, 26.97846
110.8020, 27.79122
111.2841, 28.38489
111.7662, 28.96270
112.2483, 29.29776
112.7304, 28.90482
113.2125, 26.65668
113.6947, 24.41426
114.1768, 23.07099
114.6589, 23.10009
115.1410, 23.52963
115.6231, 24.29651
116.1052, 25.32908
116.5874, 26.37643
117.0695, 27.96511
117.5516, 29.22464
118.0337, 29.47249
118.5158, 27.25362
118.9980, 25.12258
119.4801, 24.39983
119.9622, 24.98190
120.4443, 25.59028
120.9264, 25.51638
121.4085, 25.05997
121.8907, 24.58819
122.3728, 23.95510
122.8549, 23.54661
123.3370, 23.85053
123.8191, 24.90845
124.3012, 25.97046
124.7834, 26.56248
125.2655, 26.71804
125.7476, 26.50759
126.2297, 25.36599
126.7118, 24.06441
127.1939, 23.90274
127.6761, 25.11739
128.1582, 26.68675
128.6403, 27.43724
129.1224, 27.49871
129.6045, 27.49777
130.0867, 27.71720
130.5688, 28.14794
131.0509, 28.81148
131.5330, 29.80958
132.0151, 30.84121
132.4972, 31.34427
132.9794, 31.31798
133.4615, 31.16553
133.9436, 31.11514
134.4257, 31.16438
134.9078, 31.24775
135.3899, 31.27057
135.8721, 31.38708
136.3542, 32.11946
136.8363, 33.55932
137.3184, 35.21510
137.8005, 36.76037
138.2826, 38.23014
138.7648, 39.36480
139.2469, 39.86379
139.7290, 39.92805
140.2111, 41.10583
140.6932, 43.71196
141.1753, 46.86510
141.6575, 49.75842
142.1396, 52.41883
142.6217, 54.81325
143.1038, 56.86330
143.5859, 58.56590
144.0681, 60.38134
144.5502, 62.50435
145.0323, 64.58153
145.5144, 66.22938
145.9965, 67.26937
146.4786, 68.12660
146.9608, 68.77958
147.4429, 69.08089
147.9250, 69.84288
148.4071, 70.97029
148.8892, 72.59632
149.3713, 74.89968
149.8535, 78.58049
150.3356, 82.27978
150.8177, 85.65611
151.2998, 88.63386
151.7819, 91.43897
152.2640, 93.64625
152.7462, 95.73215
153.2283, 98.50745
153.7104, 102.8728
154.1925, 107.2434
154.6746, 111.0723
155.1567, 114.2257
155.6389, 116.9027
156.1210, 118.6788
156.6031, 119.9707
157.0852, 121.8224
157.5673, 125.0429
158.0495, 128.4398
158.5316, 131.4916
159.0137, 134.2519
159.4958, 136.4116
159.9779, 137.7051
160.4600, 138.3039
160.9422, 138.7682
161.4243, 139.1672
161.9064, 139.5628
162.3885, 139.9588
162.8706, 139.8287
163.3527, 140.3252
163.8349, 142.4132
164.3170, 145.7484
164.7991, 148.6855
165.2812, 149.8077
165.7633, 150.4606
166.2454, 151.8711
166.7276, 155.0592
167.2097, 158.5203
167.6918, 161.3747
168.1739, 163.6707
168.6560, 166.0270
169.1381, 168.5602
169.6203, 171.3602
170.1024, 173.4460
170.5845, 176.7681
171.0666, 179.7651
171.5487, 180.1342
172.0309, 178.0890
172.5130, 176.2534
172.9951, 176.4774
173.4772, 178.0743
173.9593, 179.9936
174.4414, 182.2134
174.9236, 184.3389
175.4057, 185.9605
175.8878, 187.0987
176.3699, 187.7358
176.8520, 187.1936
177.3341, 186.1224
177.8163, 185.9521
178.2984, 187.4528
178.7805, 190.1233
179.2626, 192.9778
179.7447, 195.8406
180.2268, 199.9575
180.7090, 205.2491
181.1911, 212.4286
181.6732, 223.8735
182.1553, 241.1461
182.6374, 263.2814
183.1195, 289.7860
183.6017, 322.0529
184.0838, 352.4448
184.5659, 372.8195
185.0480, 384.0661
185.5301, 391.4222
186.0123, 394.3465
186.4944, 395.0055
186.9765, 400.3442
187.4586, 411.0065
187.9407, 424.8878
188.4228, 439.2402
188.9050, 454.0777
189.3871, 470.5888
189.8692, 489.2374
190.3513, 509.8360
190.8334, 531.9798
191.3155, 555.3356
191.7977, 580.6562
192.2798, 609.1373
192.7619, 640.7598
193.2440, 674.7822
193.7261, 710.5029
194.2082, 748.0270
194.6904, 789.9357
195.1725, 835.6297
195.6546, 887.0680
196.1367, 945.3664
196.6188, 1010.558
197.1009, 1084.380
197.5831, 1165.884
198.0652, 1255.755
198.5473, 1358.130
199.0294, 1470.300
199.5115, 1598.955
199.9937, 1749.200
200.4758, 1913.215
200.9579, 2131.607
201.4400, 2505.808
201.9221, 3067.286
202.4042, 3338.094
202.8864, 3253.464
203.3685, 2904.851
203.8506, 2448.709
204.3327, 1845.135
204.8148, 1311.903
205.2969, 980.2230
205.7791, 870.6240
206.2612, 813.8254
206.7433, 810.8821
207.2254, 846.6841
207.7075, 885.0341
208.1896, 926.3391
208.6718, 969.3033
209.1539, 1012.424
209.6360, 1053.592
210.1181, 1102.954
210.6002, 1160.082
211.0823, 1226.147
211.5645, 1304.181
212.0466, 1394.144
212.5287, 1497.135
213.0108, 1617.367
213.4929, 1762.435
213.9750, 1902.258
214.4572, 2051.727
214.9393, 2188.332
215.4214, 2242.075
215.9035, 2187.865
216.3856, 2101.826
216.8678, 2017.079
217.3499, 1919.452
217.8320, 1865.216
218.3141, 1860.710
218.7962, 1900.084
219.2783, 1966.954
219.7605, 2060.714
220.2426, 2181.781
220.7247, 2329.383
221.2068, 2502.243
221.6889, 2702.950
222.1710, 2929.014
222.6532, 3183.130
223.1353, 3472.831
223.6174, 3829.511
224.0995, 4174.725
224.5816, 4500.749
225.0637, 4914.120
225.5459, 5037.380
226.0280, 4802.376
226.5101, 4283.622
226.9922, 3693.600
227.4743, 2949.355
227.9564, 2255.937
228.4386, 1702.889
228.9207, 1326.363
229.4028, 1027.529
229.8849, 815.9108
230.3670, 676.6555
230.8492, 565.1263
231.3313, 488.9844
231.8134, 430.4402
232.2955, 381.7628
232.7776, 345.9559
233.2597, 314.9841
233.7419, 289.3674
234.2240, 268.2701
234.7061, 250.3501
235.1882, 236.2275
235.6703, 224.3612
236.1524, 214.1825
236.6346, 206.4452
237.1167, 198.7123
237.5988, 190.5024
238.0809, 182.4407
238.5630, 175.9498
239.0451, 171.7277
239.5273, 168.0946
240.0094, 164.3941
240.4915, 160.5001
240.9736, 156.7975
241.4557, 153.0879
241.9378, 149.6257
242.4200, 147.0193
242.9021, 145.6980
243.3842, 144.5159
243.8663, 142.9990
244.3484, 140.9080
244.8306, 139.2084
245.3127, 138.0652
245.7948, 137.2398
246.2769, 136.2542
246.7590, 134.8240
247.2411, 133.7397
247.7233, 133.3767
248.2054, 134.0194
248.6875, 134.3165
249.1696, 134.1484
249.6517, 133.7166
250.1338, 133.3274
250.6160, 132.9557
251.0981, 132.6675
251.5802, 132.4340
252.0623, 132.1814
252.5444, 132.3475
253.0265, 132.9368
253.5087, 133.9411
253.9908, 135.4655
254.4729, 138.0272
254.9550, 140.0637
255.4371, 140.8925
255.9192, 140.2466
256.4014, 140.5719
256.8835, 142.2878
257.3656, 144.5607
257.8477, 146.3975
258.3298, 147.5506
258.8120, 148.8147
259.2941, 150.2886
259.7762, 151.9533
260.2583, 154.4045
260.7404, 158.0808
261.2225, 162.0234
261.7047, 165.2332
262.1868, 167.3865
262.6689, 169.6710
263.1510, 172.4310
263.6331, 175.6230
264.1152, 178.6243
264.5974, 181.4629
265.0795, 184.0346
265.5616, 186.5967
266.0437, 190.0155
266.5258, 190.5598
267.0079, 186.7312
267.4901, 179.1155
267.9722, 173.2008
268.4543, 169.2029
268.9364, 166.3571
269.4185, 164.0948
269.9006, 162.4353
270.3828, 161.3213
270.8649, 160.8895
271.3470, 160.9776
271.8291, 160.7844
272.3112, 160.2108
272.7933, 159.5981
273.2755, 159.3458
273.7576, 159.5979
274.2397, 159.1572
274.7218, 157.7055
275.2039, 155.5724
275.6860, 153.7139
276.1682, 152.1133
276.6503, 150.7854
277.1324, 149.7860
277.6145, 149.1464
278.0966, 148.6026
278.5787, 148.2260
279.0609, 147.8405
279.5430, 146.7932
280.0251, 144.9034
280.5072, 143.5324
280.9893, 143.6245
281.4715, 145.1710
281.9536, 146.6507
282.4357, 148.0590
282.9178, 149.2684
283.3999, 149.8405
283.8820, 149.7193
284.3642, 149.9278
284.8463, 151.2215
285.3284, 153.4682
285.8105, 155.0678
286.2926, 155.9531
286.7747, 156.3934
287.2569, 156.5485
287.7390, 156.4382
288.2211, 156.6519
288.7032, 157.8488
289.1853, 159.6294
289.6674, 160.1487
290.1496, 159.3205
290.6317, 157.8566
291.1138, 156.2861
291.5959, 154.6630
292.0780, 153.4105
292.5602, 152.7674
293.0423, 152.5416
293.5244, 152.3310
294.0065, 152.1445
294.4886, 151.8075
294.9707, 150.9573
295.4529, 149.7720
295.9350, 148.9372
296.4171, 148.7582
296.8992, 148.8928
297.3813, 148.5605
297.8634, 147.8296
298.3456, 147.4787
298.8277, 148.5783
299.3098, 150.4752
299.7919, 151.6177
300.2740, 151.3623
300.7561, 150.7945
301.2383, 151.5322
301.7204, 153.3085
302.2025, 154.8597
302.6846, 154.8932
303.1667, 154.3483
303.6488, 154.7209
304.1310, 156.3936
304.6131, 158.5038
305.0952, 160.5259
305.5773, 162.3383
306.0594, 163.6078
306.5415, 163.5221
307.0237, 163.1288
307.5058, 163.7861
307.9879, 165.7959
308.4700, 167.5942
308.9521, 167.4959
309.4343, 166.4196
309.9164, 165.9835
310.3985, 167.2012
310.8806, 169.1077
311.3627, 171.1965
311.8448, 173.4653
312.3270, 175.3597
312.8091, 176.2938
313.2912, 176.7532
313.7733, 177.3116
314.2554, 177.9372
314.7375, 178.9156
315.2197, 180.5497
315.7018, 182.7799
316.1839, 184.9891
316.6660, 187.0361
317.1481, 188.8848
317.6302, 190.4485
318.1124, 191.0932
318.5945, 192.2270
319.0766, 194.8002
319.5587, 198.3604
320.0408, 201.3746
320.5229, 202.3797
321.0051, 203.3946
321.4872, 205.6251
321.9693, 209.8919
322.4514, 214.1324
322.9335, 217.8027
323.4156, 221.1779
323.8978, 224.7887
324.3799, 228.5765
324.8620, 232.7446
325.3441, 237.3948
325.8262, 242.5334
326.3083, 248.0130
326.7905, 254.0193
327.2726, 260.3215
327.7547, 266.5524
328.2368, 271.8972
328.7189, 278.0585
329.2010, 285.4269
329.6832, 293.9863
330.1653, 303.1525
330.6474, 312.6509
331.1295, 322.9433
331.6116, 334.4323
332.0938, 346.4569
332.5759, 360.7263
333.0580, 376.7523
333.5401, 394.9772
334.0222, 417.3627
334.5043, 443.8122
334.9865, 474.7774
335.4686, 510.0770
335.9507, 547.7513
336.4328, 595.1951
336.9149, 652.2719
337.3970, 720.4749
337.8792, 801.7164
338.3613, 898.9337
338.8434, 1003.930
339.3255, 1116.551
339.8076, 1239.168
340.2898, 1354.180
340.7719, 1461.782
341.2540, 1563.230
341.7361, 1660.882
342.2182, 1752.264
342.7003, 1847.344
343.1825, 1946.549
343.6646, 2051.613
344.1467, 2166.901
344.6288, 2293.172
345.1109, 2430.751
345.5930, 2581.691
346.0752, 2744.512
346.5573, 2922.288
347.0394, 3116.328
347.5215, 3326.469
348.0036, 3555.285
348.4857, 3802.102
348.9679, 4073.054
349.4500, 4372.080
349.9321, 4701.894
350.4142, 5065.097
350.8963, 5460.176
351.3784, 5896.454
351.8606, 6378.207
352.3427, 6903.322
352.8248, 7477.069
353.3069, 8113.089
353.7890, 8788.429
354.2711, 9498.788
354.7533, 10247.25
355.2354, 10973.99
355.7175, 11741.99
356.1996, 12433.58
356.6817, 12843.36
357.1638, 12954.04
357.6460, 12699.60
358.1281, 11930.42
358.6102, 10680.93
359.0923, 9306.189
359.5744, 7844.076
360.0565, 6438.214
360.5387, 5228.054
361.0208, 4275.812
361.5029, 3492.872
361.9850, 2883.354
362.4671, 2423.003
362.9492, 2047.836
363.4314, 1767.790
363.9135, 1543.395
364.3956, 1356.226
364.8777, 1209.670
365.3598, 1084.281
365.8419, 980.8525
366.3241, 894.8333
366.8062, 820.2340
367.2883, 760.8091
367.7704, 708.2641
368.2526, 660.7758
368.7347, 618.1946
369.2168, 580.5311
369.6989, 548.9019
370.1810, 521.2078
370.6631, 495.4348
371.1453, 471.5649
371.6274, 449.5757
372.1095, 429.0839
372.5916, 410.1885
373.0737, 394.3154
373.5558, 382.2520
374.0380, 371.8317
374.5201, 361.8073
375.0022, 352.2440
375.4843, 343.0905
375.9664, 334.0450
376.4485, 325.6797
376.9307, 319.1153
377.4128, 314.7109
377.8949, 310.8148
378.3770, 306.8102
378.8591, 302.7376
379.3412, 299.0325
379.8234, 295.6739
380.3055, 292.8642
380.7876, 291.0453
381.2697, 290.1584
381.7518, 289.3571
382.2339, 288.1684
382.7161, 287.1171
383.1982, 287.6754
383.6803, 289.7954
384.1624, 292.2149
384.6445, 293.6907
385.1266, 294.7446
385.6088, 296.7088
386.0909, 299.8523
386.5730, 303.6959
387.0551, 307.4234
387.5372, 311.3025
388.0193, 316.1959
388.5015, 323.2640
388.9836, 331.1502
389.4657, 338.1706
389.9478, 344.1933
390.4299, 350.7625
390.9120, 359.9552
391.3942, 370.0087
391.8763, 378.6342
392.3584, 385.9991
392.8405, 390.8456
393.3226, 392.2866
393.8047, 390.5669
394.2869, 386.7986
394.7690, 380.5260
395.2511, 372.9485
395.7332, 364.7116
396.2154, 355.6499
396.6975, 346.5361
397.1796, 336.3750
397.6617, 326.3526
398.1438, 318.5559
398.6259, 313.7332
399.1081, 310.5992
399.5902, 309.3032
400.0723, 310.1778
400.5544, 310.3717
401.0365, 308.5196
401.5186, 306.9971
402.0008, 307.8435
402.4829, 312.2455
402.9650, 316.7335
403.4471, 320.7144
403.9292, 324.5137
404.4113, 329.3379
404.8935, 335.1956
405.3756, 342.0981
405.8577, 350.1390
406.3398, 359.2933
406.8219, 369.2198
407.3040, 379.9579
407.7862, 391.4342
408.2683, 403.9461
408.7504, 417.5281
409.2325, 431.1673
409.7146, 444.7430
410.1967, 457.9934
410.6789, 470.8474
411.1610, 483.3056
411.6431, 495.6176
412.1252, 507.8156
412.6073, 519.9555
413.0894, 532.2216
413.5716, 544.5842
414.0537, 556.6348
414.5358, 569.0349
415.0179, 580.8312
415.5000, 589.3383
415.9821, 594.4818
416.4643, 594.7083
416.9464, 587.0665
417.4285, 570.9987
417.9106, 552.6210
418.3927, 531.2147
418.8748, 511.2422
419.3570, 498.3726
419.8391, 494.4338
420.3212, 497.8237
420.8033, 509.0613
421.2854, 527.4813
421.7675, 550.0164
422.2497, 577.2158
422.7318, 607.1923
423.2139, 638.8937
423.6960, 672.5298
424.1781, 707.0397
424.6602, 741.1432
425.1424, 776.2944
425.6245, 814.2122
426.1066, 853.8426
426.5887, 896.8478
427.0709, 942.7330
427.5530, 991.4988
428.0351, 1045.802
428.5172, 1106.187
428.9993, 1172.244
429.4814, 1242.922
429.9636, 1316.488
430.4457, 1401.126
430.9278, 1497.113
431.4099, 1604.890
431.8920, 1723.501
432.3741, 1853.191
432.8563, 2000.144
433.3384, 2166.453
433.8205, 2353.134
434.3026, 2562.115
434.7847, 2795.137
435.2668, 3043.380
435.7490, 3306.029
436.2311, 3579.342
436.7132, 3845.231
437.1953, 4114.009
437.6774, 4352.721
438.1595, 4538.679
438.6417, 4665.264
439.1238, 4704.878
439.6059, 4632.303
440.0880, 4468.861
440.5701, 4222.089
441.0522, 3883.325
441.5344, 3521.272
442.0165, 3149.594
442.4986, 2788.819
442.9807, 2466.205
443.4628, 2191.052
443.9449, 1955.335
444.4271, 1761.245
444.9092, 1606.126
445.3913, 1474.512
445.8734, 1373.575
446.3555, 1289.920
446.8376, 1218.214
447.3198, 1160.870
447.8019, 1109.963
448.2840, 1067.402
448.7661, 1030.543
449.2482, 996.0893
449.7303, 965.0242
450.2125, 935.4191
450.6946, 907.9910
451.1767, 882.1605
451.6588, 851.2844
452.1409, 814.4816
452.6230, 774.1675
453.1052, 730.9384
453.5873, 683.8773
454.0694, 641.2497
454.5515, 604.0595
455.0337, 570.8776
455.5158, 539.9805
455.9979, 511.2055
456.4800, 486.2224
456.9621, 465.9102
457.4442, 449.5766
457.9264, 435.9233
458.4085, 424.9476
458.8906, 415.2043
459.3727, 404.9832
459.8548, 395.4550
460.3369, 388.8826
460.8191, 386.2216
461.3012, 385.2952
461.7833, 384.7775
462.2654, 384.6767
462.7475, 385.0053
463.2296, 385.1057
463.7118, 386.1862
464.1939, 388.9540
464.6760, 393.4784
465.1581, 399.0887
465.6402, 406.1063
466.1223, 413.7603
466.6045, 421.4214
467.0866, 428.8075
467.5687, 436.3958
468.0508, 444.2718
468.5329, 452.3954
469.0150, 460.8682
469.4972, 470.1053
469.9793, 478.9772
470.4614, 487.7490
470.9435, 496.6297
471.4256, 501.2865
471.9077, 501.6082
472.3899, 497.9554
472.8720, 490.3582
473.3541, 478.5690
473.8362, 464.1721
474.3183, 446.8160
474.8004, 427.7049
475.2826, 408.6176
475.7647, 389.6216
476.2468, 371.7089
476.7289, 355.0009
477.2110, 339.7430
477.6931, 326.8633
478.1753, 316.2971
478.6574, 307.3862
479.1395, 299.8834
479.6216, 293.6055
480.1037, 288.2611
480.5858, 283.6559
481.0680, 280.1715
481.5501, 278.7518
482.0322, 278.6099
482.5143, 278.1205
482.9964, 276.8405
483.4786, 274.9086
483.9607, 272.1428
484.4428, 268.4943
484.9249, 265.0985
485.4070, 262.3026
485.8892, 259.7892
486.3713, 257.3462
486.8534, 255.1020
487.3355, 252.7460
487.8176, 250.1104
488.2997, 247.4172
488.7819, 245.0418
489.2640, 242.8857
489.7461, 241.2908
490.2282, 240.6502
490.7103, 240.8503
491.1924, 239.9276
491.6746, 237.6753
492.1567, 235.1234
492.6388, 232.8730
493.1209, 230.9753
493.6030, 230.2585
494.0851, 231.0289
494.5673, 232.4038
495.0494, 232.8354
495.5315, 232.7058
496.0136, 233.3748
496.4957, 235.5632
496.9778, 238.8320
497.4600, 242.7376
497.9421, 247.2937
498.4242, 252.7417
498.9063, 259.7106
499.3884, 267.3926
499.8705, 275.1205
500.3527, 282.3985
500.8348, 290.4862
501.3169, 299.7596
501.7990, 309.9652
502.2811, 320.8403
502.7632, 332.8485
503.2454, 344.8292
503.7275, 356.9398
504.2096, 369.0421
504.6917, 380.2607
505.1738, 390.6870
505.6559, 399.9528
506.1381, 408.2729
506.6202, 416.6348
507.1023, 420.0587
507.5844, 418.3490
508.0665, 412.1086
508.5486, 401.5573
509.0308, 386.5765
509.5129, 369.5129
509.9950, 350.1142
510.4771, 329.7562
510.9592, 310.6851
511.4413, 293.0049
511.9235, 276.9178
512.4056, 262.4642
512.8877, 249.7563
513.3698, 239.0341
513.8519, 230.3981
514.3340, 222.4946
514.8162, 213.9693
515.2983, 205.7446
515.7804, 198.9660
516.2625, 194.8197
516.7446, 191.0864
517.2267, 186.6409
517.7089, 181.9665
518.1910, 178.3008
518.6731, 176.3643
519.1552, 175.0457
519.6373, 174.1409
520.1194, 173.6811
520.6016, 173.0932
521.0837, 172.4328
521.5658, 171.5889
522.0479, 170.3119
522.5300, 168.2393
523.0121, 167.1790
523.4943, 167.5210
523.9764, 168.5621
524.4585, 169.0693
524.9406, 169.0238
525.4227, 168.9305
525.9048, 168.9478
526.3870, 169.0518
526.8691, 169.2704
527.3513, 169.5859
527.8334, 169.7205
528.3155, 169.5218
528.7976, 169.0020
529.2797, 168.2426
529.7618, 167.2948
530.2440, 165.8327
530.7261, 163.0025
531.2082, 159.7204
531.6903, 157.2112
532.1724, 156.5633
532.6545, 155.9835
533.1367, 154.1360
533.6188, 151.7318
534.1009, 151.2421
534.5830, 155.8843
535.0651, 159.7513
535.5472, 160.7063
536.0294, 158.3277
536.5115, 156.0030
536.9936, 153.3736
537.4757, 151.2993
537.9578, 150.6481
538.4399, 151.6342
538.9221, 152.6545
539.4042, 153.5378
539.8863, 154.4230
540.3684, 155.4724
540.8505, 156.7029
541.3326, 158.3148
541.8148, 160.3023
542.2969, 162.7616
542.7790, 166.3927
543.2611, 170.9797
543.7432, 174.9303
544.2253, 176.7998
544.7075, 177.6814
545.1896, 178.7858
545.6717, 180.4088
546.1538, 181.5063
546.6359, 181.5598
547.1180, 180.8277
547.6002, 179.5800
548.0823, 178.1676
548.5644, 175.9098
549.0465, 171.8522
549.5286, 166.8062
550.0107, 163.1726
550.4929, 161.8081
550.9750, 160.5524
551.4571, 158.5555
551.9392, 155.8022
552.4213, 154.1077
552.9034, 153.5611
553.3856, 153.7475
553.8677, 154.7532
554.3498, 156.4477
554.8319, 157.3792
555.3140, 157.5122
555.7961, 156.4525
556.2783, 152.7566
556.7604, 147.3695
557.2425, 143.0241
557.7246, 141.1686
558.2067, 140.3222
558.6888, 139.2020
559.1710, 137.9185
559.6531, 136.8582
560.1352, 136.6716
560.6173, 136.4099
561.0994, 135.3567
561.5815, 133.3196
562.0637, 131.6774
562.5458, 130.9955
563.0279, 130.6162
563.5100, 130.0299
563.9921, 128.8999
564.4742, 128.1640
564.9564, 127.9775
565.4385, 128.0851
565.9206, 128.1159
566.4027, 128.1013
566.8848, 127.8204
567.3669, 127.1132
567.8491, 126.1445
568.3312, 125.4942
568.8133, 125.1532
569.2954, 124.8227
569.7775, 124.2429
570.2596, 123.5662
570.7418, 123.0551
571.2239, 122.7198
571.7060, 122.5817
572.1881, 122.9363
572.6702, 123.3723
573.1523, 123.3880
573.6345, 122.5333
574.1166, 121.8380
574.5987, 121.9472
575.0808, 122.4153
575.5629, 122.5019
576.0450, 121.7164
576.5272, 120.9473
577.0093, 120.3145
577.4914, 119.8259
577.9735, 119.5567
578.4556, 119.6299
578.9377, 119.6723
579.4199, 119.4039
579.9020, 118.8166
580.3841, 118.7496
580.8662, 119.2935
581.3483, 119.8799
581.8304, 119.8590
582.3126, 119.3938
582.7947, 119.0252
583.2768, 118.8296
583.7589, 118.8270
584.2410, 119.2020
584.7231, 119.7713
585.2053, 120.1725
585.6874, 120.0566
586.1696, 119.9098
586.6517, 119.9524
587.1338, 120.1728
587.6159, 120.5119
588.0980, 121.1607
588.5801, 121.7361
589.0623, 121.9718
589.5444, 121.7511
590.0265, 121.9989
590.5086, 123.0402
590.9907, 124.1362
591.4728, 124.5827
591.9550, 124.1856
592.4371, 124.4526
592.9192, 125.6300
593.4013, 127.1708
593.8834, 128.2681
594.3655, 128.9937
594.8477, 129.8279
595.3298, 131.0971
595.8119, 132.3215
596.2940, 132.6505
596.7761, 132.3293
597.2582, 132.1912
597.7404, 132.9309
598.2225, 133.8111
598.7046, 134.3733
599.1867, 134.5820
599.6688, 134.5325
600.1509, 133.8716
600.6331, 133.2347
601.1152, 133.1146
601.5973, 134.0897
602.0794, 134.1625
602.5615, 132.6913
603.0436, 130.9316
603.5258, 130.4785
604.0079, 131.6610
604.4900, 132.3361
604.9721, 132.0180
605.4542, 131.2333
605.9363, 130.9525
606.4185, 131.1576
606.9006, 131.6733
607.3827, 132.6180
607.8648, 133.6983
608.3469, 134.3835
608.8290, 134.7568
609.3112, 135.2471
609.7933, 136.3835
610.2754, 137.5469
610.7575, 138.0618
611.2396, 137.6811
611.7217, 138.0099
612.2039, 140.4121
612.6860, 143.1044
613.1681, 144.7074
613.6502, 144.2177
614.1323, 144.2834
614.6144, 144.9299
615.0966, 146.1312
615.5787, 148.1050
616.0608, 151.0423
616.5429, 153.4397
617.0250, 154.8304
617.5071, 155.6158
617.9893, 156.4141
618.4714, 157.2951
618.9535, 158.7330
619.4356, 161.6089
619.9177, 164.8668
620.3998, 167.0385
620.8820, 168.2201
621.3641, 169.4162
621.8462, 170.8837
622.3283, 172.8146
622.8104, 175.4738
623.2925, 179.1489
623.7747, 182.5487
624.2568, 185.2787
624.7389, 187.7349
625.2210, 190.2121
625.7031, 192.6531
626.1852, 195.2539
626.6674, 198.0395
627.1495, 200.9329
627.6316, 203.8887
628.1137, 206.9236
628.5958, 209.6342
629.0779, 211.9800
629.5601, 213.8519
630.0422, 214.8896
630.5243, 215.1988
631.0064, 215.3149
631.4885, 215.6210
631.9706, 215.8154
632.4528, 215.5987
632.9349, 214.9813
633.4170, 214.1648
633.8991, 213.2055
634.3812, 212.1011
634.8633, 210.8160
635.3455, 209.3011
635.8276, 207.7681
636.3097, 205.9634
636.7918, 204.3804
637.2739, 203.5337
637.7560, 203.6875
638.2382, 203.5222
638.7203, 202.8910
639.2024, 201.9852
639.6845, 201.0172
640.1666, 199.9947
640.6487, 199.0985
641.1309, 198.6111
641.6130, 197.9215
642.0951, 196.1153
642.5772, 193.4079
643.0594, 190.4812
643.5415, 187.5415
644.0236, 184.5676
644.5057, 181.3935
644.9879, 178.0626
645.4700, 175.0852
645.9521, 172.8992
646.4342, 170.7705
646.9163, 168.2727
647.3984, 165.2463
647.8806, 162.8214
648.3627, 161.0386
648.8448, 159.7494
649.3269, 158.9798
649.8090, 158.7311
650.2911, 158.2108
650.7733, 157.3323
651.2554, 156.2722
651.7375, 154.9039
652.2196, 153.5176
652.7017, 152.9264
653.1838, 153.8169
653.6660, 154.6477
654.1481, 153.9706
654.6302, 152.4466
655.1123, 151.2330
655.5944, 150.8701
656.0765, 150.7130
656.5587, 150.6607
657.0408, 150.6719
657.5229, 150.5704
658.0050, 150.2306
658.4871, 149.9902
658.9692, 149.9830
659.4514, 150.1894
659.9335, 150.4482
660.4156, 150.7807
660.8977, 150.9876
661.3798, 151.0242
661.8619, 150.8152
662.3441, 149.9546
662.8262, 148.3987
663.3083, 147.0432
663.7904, 146.6092
664.2725, 146.7587
664.7546, 147.1995
665.2368, 148.0560
665.7189, 148.6997
666.2010, 148.8512
666.6831, 148.7217
667.1652, 148.5311
667.6473, 148.0630
668.1295, 147.9406
668.6116, 148.3539
669.0937, 149.0293
669.5758, 149.4607
670.0579, 149.6473
670.5400, 149.5667
671.0222, 148.9854
671.5043, 148.3752
671.9864, 149.0513
672.4685, 150.7241
672.9506, 151.9687
673.4327, 151.6172
673.9149, 150.7387
674.3970, 150.0636
674.8791, 149.6523
675.3612, 149.7590
675.8433, 151.1635
676.3254, 152.5393
676.8076, 153.1532
677.2897, 152.8528
677.7718, 152.4546
678.2539, 151.6572
678.7360, 151.1936
679.2181, 151.7599
679.7003, 153.5087
680.1824, 154.5734
680.6645, 154.7866
681.1466, 154.7887
681.6287, 155.4219
682.1108, 156.4072
682.5930, 156.8264
683.0751, 156.2903
683.5572, 155.8931
684.0393, 156.8987
684.5214, 158.5291
685.0035, 159.6758
685.4857, 159.4281
685.9678, 159.2965
686.4499, 159.5335
686.9320, 160.1602
687.4141, 161.2410
687.8962, 163.1376
688.3784, 164.7640
688.8605, 165.7256
689.3426, 166.3149
689.8247, 167.5720
690.3068, 169.5279
690.7889, 171.6475
691.2711, 173.7651
691.7532, 175.8371
692.2353, 177.7180
692.7174, 179.4113
693.1995, 181.0408
693.6816, 182.4737
694.1638, 184.0225
694.6459, 185.8882
695.1280, 188.0902
695.6101, 190.5770
696.0922, 193.4532
696.5743, 196.5260
697.0565, 199.7271
697.5386, 203.1430
698.0207, 206.4809
698.5028, 209.7841
698.9849, 212.9255
699.4670, 215.7168
699.9492, 218.1943
700.4313, 220.7150
700.9135, 223.2812
701.3956, 225.9610
701.8777, 228.8491
702.3598, 231.8816
702.8419, 234.9758
703.3240, 238.1977
703.8062, 241.2910
704.2883, 243.9348
704.7704, 246.4022
705.2525, 249.0407
705.7346, 252.5456
706.2167, 255.4093
706.6989, 257.3002
707.1810, 258.5513
707.6631, 259.8587
708.1452, 261.1934
708.6273, 262.6798
709.1094, 264.4837
709.5916, 266.3400
710.0737, 267.5777
710.5558, 268.2745
711.0379, 268.8789
711.5200, 269.9128
712.0021, 270.7410
712.4843, 270.7480
712.9664, 270.0223
713.4485, 269.0786
713.9306, 268.0094
714.4127, 266.8546
714.8948, 265.7801
715.3770, 264.7920
715.8591, 263.0169
716.3412, 260.0630
716.8233, 257.1061
717.3054, 254.9939
717.7875, 253.6575
718.2697, 251.7846
718.7518, 249.3591
719.2339, 246.4293
719.7160, 242.4228
720.1981, 238.1698
720.6802, 235.1088
721.1624, 233.5327
721.6445, 232.0777
722.1266, 229.7944
722.6087, 227.3830
723.0908, 225.5135
723.5729, 224.8154
724.0551, 223.6214
724.5372, 221.7565
725.0193, 219.4895
725.5014, 216.9281
725.9835, 213.8905
726.4656, 211.7980
726.9478, 210.9809
727.4299, 210.5905
727.9120, 209.4965
728.3941, 207.8266
728.8762, 205.9918
729.3583, 204.0173
729.8405, 202.1030
730.3226, 200.6563
730.8047, 199.3181
731.2868, 197.5437
731.7689, 194.1087
732.2510, 191.4370
732.7332, 190.7614
733.2153, 191.0612
733.6974, 190.1646
734.1795, 187.4072
734.6616, 185.3428
735.1437, 184.8569
735.6259, 185.2557
736.1080, 184.7105
736.5901, 183.3173
737.0722, 181.9292
737.5543, 180.9572
738.0364, 180.1989
738.5186, 179.2367
739.0007, 178.2491
739.4828, 177.8414
739.9649, 178.8128
740.4470, 179.9088
740.9291, 180.6759
741.4113, 181.0772
741.8934, 181.1092
742.3755, 180.4576
742.8576, 180.0167
743.3397, 180.2502
743.8218, 181.0488
744.3040, 181.4787
744.7861, 181.5299
745.2682, 181.5116
745.7503, 181.5130
746.2324, 181.6319
746.7145, 182.0952
747.1967, 182.8872
747.6788, 183.6576
748.1609, 184.4199
748.6430, 184.9334
749.1251, 184.8963
749.6072, 184.0777
750.0894, 183.8406
750.5715, 184.3984
751.0536, 185.3117
751.5357, 186.4832
752.0178, 188.0057
752.4999, 188.6278
752.9821, 188.2470
753.4642, 187.6676
753.9463, 187.7958
754.4284, 188.2415
754.9105, 187.9958
755.3926, 186.8127
755.8748, 186.1461
756.3569, 187.6219
756.8390, 189.6221
757.3211, 190.6612
757.8032, 189.9275
758.2853, 189.4594
758.7675, 189.3578
759.2496, 189.5725
759.7318, 190.1071
760.2139, 190.9935
760.6960, 191.9763
761.1781, 193.0827
761.6602, 194.1009
762.1423, 194.7184
762.6245, 195.0531
763.1066, 195.3176
763.5887, 195.4505
764.0708, 195.8968
764.5529, 197.2452
765.0350, 198.9659
765.5172, 200.4309
765.9993, 201.3376
766.4814, 202.1763
766.9635, 202.7945
767.4456, 203.4941
767.9277, 204.5511
768.4099, 205.8924
768.8920, 208.4859
769.3741, 213.0968
769.8562, 217.4896
770.3383, 217.7103
770.8204, 215.0771
771.3026, 213.1440
771.7847, 213.1338
772.2668, 213.8928
772.7489, 215.1001
773.2310, 216.4522
773.7131, 217.4566
774.1953, 217.9898
774.6774, 218.1565
775.1595, 217.5594
775.6416, 216.8610
776.1237, 217.4658
776.6058, 219.5852
777.0880, 221.3723
777.5701, 222.3167
778.0522, 222.8186
778.5343, 223.3917
779.0164, 224.0583
779.4985, 224.8876
779.9807, 225.8430
780.4628, 227.0287
780.9449, 228.7355
781.4270, 230.6851
781.9091, 232.3410
782.3912, 233.1427
782.8734, 234.1798
783.3555, 235.5519
783.8376, 237.2825
784.3197, 239.5163
784.8018, 242.3279
785.2839, 245.0190
785.7661, 247.4478
786.2482, 249.5290
786.7303, 250.8012
787.2124, 251.5575
787.6945, 252.6652
788.1766, 255.0972
788.6588, 257.4056
789.1409, 258.8621
789.6230, 259.6420
790.1051, 260.2988
790.5872, 261.0602
791.0693, 261.4000
791.5515, 260.9659
792.0336, 260.1711
792.5157, 260.2767
792.9978, 261.2876
793.4799, 262.4888
793.9620, 263.8479
794.4442, 264.9966
794.9263, 264.8472
795.4084, 264.0126
795.8905, 264.1932
796.3726, 267.1153
796.8547, 270.1919
797.3369, 272.1090
797.8190, 273.2969
798.3011, 275.3112
798.7832, 278.3217
799.2653, 281.9313
799.7474, 286.2010
800.2296, 290.8904
800.7117, 295.2705
801.1938, 299.3848
801.6759, 303.7303
802.1580, 308.6216
802.6401, 313.7337
803.1223, 318.6688
803.6044, 323.4954
804.0865, 328.2989
804.5686, 332.4522
805.0507, 337.3588
805.5328, 343.7410
806.0150, 351.2328
806.4971, 358.9821
806.9792, 366.8994
807.4613, 375.3600
807.9434, 384.4553
808.4255, 394.1765
808.9077, 404.7939
809.3898, 416.2305
809.8719, 428.1422
810.3540, 440.2343
810.8361, 452.8839
811.3182, 466.7175
811.8004, 481.2668
812.2825, 495.7422
812.7646, 509.3815
813.2467, 523.5743
813.7288, 538.2542
814.2109, 553.8085
814.6931, 571.2363
815.1752, 590.9094
815.6573, 610.3479
816.1394, 628.8274
816.6215, 647.0330
817.1037, 666.1764
817.5858, 685.9053
818.0679, 705.7615
818.5500, 725.4152
819.0322, 745.4109
819.5143, 766.2997
819.9964, 787.3879
820.4785, 807.0121
820.9606, 825.4050
821.4427, 841.5717
821.9249, 855.6515
822.4070, 867.1292
822.8891, 874.9896
823.3712, 879.2182
823.8533, 879.5463
824.3354, 875.5961
824.8176, 868.4244
825.2997, 859.0903
825.7818, 847.4407
826.2639, 833.4138
826.7460, 816.1671
827.2281, 797.3894
827.7103, 776.5572
828.1924, 754.5774
828.6745, 731.7995
829.1566, 707.6473
829.6387, 685.8691
830.1208, 667.5553
830.6030, 650.8771
831.0851, 633.3588
831.5672, 615.6737
832.0493, 599.5593
832.5314, 585.6437
833.0135, 573.3975
833.4957, 563.0057
833.9778, 554.0439
834.4599, 545.8625
834.9420, 539.1481
835.4241, 532.3649
835.9063, 525.4695
836.3884, 518.5821
836.8705, 511.9995
837.3526, 505.7133
837.8347, 499.1086
838.3168, 491.8724
838.7990, 485.1933
839.2811, 480.8104
839.7632, 477.4305
840.2453, 473.2501
840.7274, 467.6600
841.2095, 461.9644
841.6917, 456.4991
842.1738, 451.1642
842.6559, 445.8110
843.1380, 440.3730
843.6201, 435.2786
844.1022, 430.7225
844.5844, 425.8413
845.0665, 419.0685
845.5486, 411.3841
846.0307, 406.0394
846.5128, 403.3506
846.9949, 400.4038
847.4771, 394.7195
847.9592, 388.3830
848.4413, 383.0573
848.9234, 379.1797
849.4055, 374.8183
849.8876, 369.1440
850.3698, 364.2871
850.8519, 361.9726
851.3340, 361.9202
851.8161, 360.5055
852.2982, 357.7365
852.7803, 355.1385
853.2625, 354.2823
853.7446, 353.8770
854.2267, 351.9507
854.7088, 348.6878
855.1909, 347.0054
855.6730, 349.6427
856.1552, 352.1973
856.6373, 352.7765
857.1194, 351.7088
857.6015, 351.6706
858.0836, 352.7310
858.5657, 354.3319
859.0479, 356.2582
859.5300, 358.5450
860.0121, 361.2873
860.4942, 364.4371
860.9763, 367.8162
861.4584, 371.7841
861.9406, 375.4205
862.4227, 377.8970
862.9048, 379.6440
863.3869, 382.0502
863.8690, 385.1391
864.3511, 388.9733
864.8333, 393.9599
865.3154, 399.2519
865.7975, 402.9687
866.2796, 405.4850
866.7617, 408.5775
867.2438, 413.4575
867.7260, 418.1499
868.2081, 420.7455
868.6902, 422.3197
869.1723, 424.6097
869.6544, 429.4112
870.1365, 432.8788
870.6187, 434.4039
871.1008, 434.9908
871.5829, 435.9276
872.0650, 437.1941
872.5471, 438.4203
873.0292, 439.6344
873.5114, 440.3747
873.9935, 439.9493
874.4756, 438.8682
874.9577, 437.9284
875.4399, 437.6851
875.9220, 436.2455
876.4041, 432.2343
876.8862, 427.6289
877.3683, 423.6799
877.8505, 420.5241
878.3326, 417.1533
878.8147, 413.6127
879.2968, 409.5962
879.7789, 404.6050
880.2610, 399.1172
880.7432, 393.8121
881.2253, 388.7345
881.7074, 383.6650
882.1895, 378.5895
882.6716, 373.4192
883.1537, 368.0020
883.6359, 362.3877
884.1180, 357.0092
884.6001, 351.8274
885.0822, 346.9508
885.5643, 342.5411
886.0464, 338.4136
886.5286, 333.9965
887.0107, 329.4237
887.4928, 325.2114
887.9749, 322.0157
888.4570, 318.9792
888.9391, 315.7192
889.4213, 312.2831
889.9034, 308.7821
890.3855, 304.9506
890.8676, 301.7965
891.3497, 299.6201
891.8318, 298.0783
892.3140, 296.6369
892.7961, 295.2204
893.2782, 293.4547
893.7603, 291.0126
894.2424, 288.7410
894.7245, 287.4138
895.2067, 286.5875
895.6888, 285.7099
896.1709, 284.6770
896.6530, 283.5746
897.1351, 282.2151
897.6172, 281.0953
898.0994, 281.0854
898.5815, 281.9421
899.0636, 281.7037
899.5457, 280.1369
900.0278, 278.5013
900.5099, 278.0312
900.9921, 277.8313
901.4742, 276.9186
901.9563, 275.0363
902.4384, 273.7915
902.9205, 274.0931
903.4026, 274.0078
903.8848, 272.4691
904.3669, 269.6798
904.8490, 267.1592
905.3311, 264.9150
905.8132, 262.8867
906.2953, 260.9475
906.7775, 259.2505
907.2596, 258.2604
907.7417, 257.6733
908.2238, 256.4113
908.7059, 253.4948
909.1880, 250.7155
909.6702, 248.4822
910.1523, 246.5869
910.6344, 244.5706
911.1165, 242.4352
911.5986, 240.1385
912.0807, 237.4936
912.5629, 235.1287
913.0450, 234.5695
913.5271, 234.4971
914.0092, 232.7413
914.4913, 226.6783
914.9734, 222.7329
915.4556, 223.1599
915.9377, 224.7860
916.4198, 224.7135
916.9019, 222.8124
917.3840, 221.6660
917.8661, 221.4952
918.3483, 221.1966
918.8304, 219.1370
919.3125, 216.7173
919.7946, 216.0365
920.2767, 217.3282
920.7589, 217.7984
921.2410, 215.3171
921.7231, 213.2044
922.2052, 212.8867
922.6873, 214.1434
923.1694, 215.2270
923.6516, 216.1400
924.1337, 216.4372
924.6158, 215.6367
925.0979, 214.3134
925.5800, 213.2082
926.0621, 212.2014
926.5443, 210.9805
927.0264, 209.1702
927.5085, 207.4664
927.9906, 205.9451
928.4727, 204.6237
928.9548, 203.4565
929.4370, 202.4295
929.9191, 202.1044
930.4012, 202.6534
930.8833, 203.6181
931.3654, 204.7874
931.8475, 205.9209
932.3297, 206.6620
932.8118, 206.8155
933.2939, 207.0180
933.7761, 207.6384
934.2582, 208.1159
934.7403, 207.9785
935.2224, 207.1960
935.7045, 207.0330
936.1866, 207.4950
936.6688, 208.3650
937.1509, 210.1096
937.6330, 211.7565
938.1151, 211.8748
938.5972, 210.7659
939.0793, 210.0827
939.5615, 210.6621
940.0436, 211.3233
940.5257, 211.7001
941.0078, 211.9987
941.4899, 212.9980
941.9720, 214.6479
942.4542, 215.4355
942.9363, 214.5750
943.4184, 213.5851
943.9005, 214.2576
944.3826, 215.7833
944.8647, 217.0267
945.3469, 217.2848
945.8290, 218.1024
946.3111, 219.9188
946.7932, 221.8874
947.2753, 223.3149
947.7574, 224.2291
948.2396, 224.7638
948.7217, 224.9258
949.2038, 225.2646
949.6859, 226.2457
950.1680, 227.5732
950.6501, 229.0951
951.1323, 230.7776
951.6144, 232.2882
952.0965, 233.3984
952.5786, 234.6367
953.0607, 236.1490
953.5428, 237.9062
954.0250, 239.9795
954.5071, 242.2778
954.9892, 244.2348
955.4713, 245.3255
955.9534, 246.4848
956.4355, 248.1426
956.9177, 250.3995
957.3998, 253.4733
957.8819, 257.8223
958.3640, 262.0104
958.8461, 265.6256
959.3282, 269.8996
959.8104, 275.4393
960.2925, 282.6322
960.7746, 292.5648
961.2567, 305.3896
961.7388, 321.3475
962.2209, 343.5681
962.7031, 366.7118
963.1852, 386.9504
963.6673, 404.1923
964.1494, 421.3984
964.6315, 438.1145
965.1136, 455.6934
965.5958, 474.2225
966.0779, 494.4523
966.5600, 517.1325
967.0421, 542.9844
967.5242, 573.2224
968.0063, 607.3054
968.4885, 647.6779
968.9706, 692.0788
969.4527, 745.7640
969.9348, 813.8766
970.4169, 894.5307
970.8990, 997.4125
971.3812, 1122.368
971.8633, 1270.953
972.3454, 1455.770
972.8275, 1657.316
973.3096, 1866.102
973.7917, 2078.385
974.2739, 2230.371
974.7560, 2329.382
975.2381, 2322.985
975.7202, 2173.410
976.2023, 1905.572
976.6844, 1625.026
977.1666, 1330.231
977.6487, 1073.281
978.1308, 877.8399
978.6129, 729.5385
979.0950, 623.5172
979.5771, 550.8724
980.0593, 496.0397
980.5414, 464.2116
981.0235, 438.1609
981.5056, 417.3975
981.9877, 401.1147
982.4698, 388.9758
982.9520, 380.5187
983.4341, 372.7861
983.9162, 365.5937
984.3983, 359.9617
984.8804, 357.4514
985.3625, 356.0731
985.8447, 354.1089
986.3268, 351.6626
986.8089, 351.3491
987.2910, 353.7052
987.7731, 356.6582
988.2552, 359.3516
988.7374, 362.5341
989.2195, 367.3618
989.7016, 373.8975
990.1837, 382.2741
990.6658, 392.5301
991.1479, 404.6509
991.6301, 417.6168
992.1122, 433.2975
992.5944, 452.2708
993.0765, 472.5900
993.5586, 504.2427
994.0407, 547.1231
994.5228, 602.9800
995.0049, 673.6537
995.4871, 757.8464
995.9692, 860.2230
996.4513, 978.2972
996.9334, 1092.763
997.4155, 1194.951
997.8976, 1294.866
998.3798, 1391.290
998.8619, 1489.129
999.3440, 1599.855
999.8261, 1724.533
1000.308, 1867.330
1000.790, 2028.591
1001.272, 2210.329
1001.755, 2408.822
1002.237, 2634.175
1002.719, 2893.184
1003.201, 3186.162
1003.683, 3524.389
1004.165, 3906.410
1004.647, 4346.602
1005.129, 4856.526
1005.612, 5437.357
1006.094, 6108.018
1006.576, 6862.884
1007.058, 7705.561
1007.540, 8945.021
1008.022, 9919.623
1008.504, 10499.40
1008.986, 10591.49
1009.468, 9883.786
1009.951, 8271.249
1010.433, 6685.322
1010.915, 5220.925
1011.397, 3962.423
1011.879, 3041.564
1012.361, 2372.337
1012.843, 1868.464
1013.325, 1532.011
1013.807, 1270.981
1014.290, 1088.065
1014.772, 945.4257
1015.254, 834.0383
1015.736, 750.6229
1016.218, 680.0634
1016.700, 621.9098
1017.182, 573.8592
1017.664, 536.8998
1018.147, 506.2274
1018.629, 480.4991
1019.111, 458.5279
1019.593, 437.9290
1020.075, 418.2981
1020.557, 400.7593
1021.039, 385.4514
1021.521, 371.8670
1022.003, 359.7832
1022.486, 348.9399
1022.968, 339.0990
1023.450, 330.1830
1023.932, 322.1134
1024.414, 315.5855
1024.896, 309.0725
1025.378, 301.9853
1025.860, 294.6091
1026.343, 287.4807
1026.825, 280.7577
1027.307, 275.1229
1027.789, 270.8784
1028.271, 267.4469
1028.753, 264.9906
1029.235, 262.6795
1029.717, 259.4587
1030.199, 254.5915
1030.682, 250.9650
1031.164, 248.8287
1031.646, 247.1565
1032.128, 245.2561
1032.610, 243.3405
1033.092, 242.2361
1033.574, 241.6698
1034.056, 240.6738
1034.539, 238.3575
1035.021, 236.0936
1035.503, 234.2087
1035.985, 232.6712
1036.467, 231.4451
1036.949, 230.5412
1037.431, 229.9778
1037.913, 229.8132
1038.396, 229.4415
1038.878, 227.8383
1039.360, 226.1130
1039.842, 225.6310
1040.324, 226.4750
1040.806, 225.9953
1041.288, 223.2351
1041.770, 221.1079
1042.252, 220.5878
1042.734, 221.1310
1043.217, 222.1446
1043.699, 223.2606
1044.181, 223.4523
1044.663, 222.0385
1045.145, 220.5518
1045.627, 219.6020
1046.109, 218.7869
1046.591, 217.8101
1047.074, 216.6608
1047.556, 215.5084
1048.038, 214.3431
1048.520, 213.6933
1049.002, 214.4329
1049.484, 215.3804
1049.966, 215.4797
1050.448, 214.9563
1050.931, 214.4783
1051.413, 214.0813
1051.895, 213.8587
1052.377, 213.9122
1052.859, 213.9180
1053.341, 213.3295
1053.823, 212.4276
1054.305, 211.9691
1054.787, 212.0428
1055.270, 211.7143
1055.752, 210.2690
1056.234, 208.6068
1056.716, 206.9267
1057.198, 205.3967
1057.680, 205.0373
1058.162, 205.7359
1058.644, 205.6232
1059.126, 203.7217
1059.609, 201.7762
1060.091, 201.7102
1060.573, 202.2759
1061.055, 202.0148
1061.537, 200.5222
1062.019, 199.2616
1062.501, 198.2112
1062.983, 197.4823
1063.466, 197.3457
1063.948, 197.4875
1064.430, 197.3806
1064.912, 197.0524
1065.394, 196.5790
1065.876, 196.2053
1066.358, 195.3465
1066.840, 193.6073
1067.323, 191.7285
1067.805, 190.5320
1068.287, 189.9899
1068.769, 190.1529
1069.251, 191.0128
1069.733, 191.8297
1070.215, 192.1940
1070.697, 192.2318
1071.179, 191.9523
1071.661, 191.3982
1072.144, 190.6558
1072.626, 189.6826
1073.108, 188.7829
1073.590, 187.9334
1074.072, 187.5231
1074.554, 188.5985
1075.036, 190.1562
1075.518, 190.7664
1076.001, 189.8921
1076.483, 189.4844
1076.965, 190.0735
1077.447, 190.3390
1077.929, 189.2710
1078.411, 187.5881
1078.893, 187.5118
1079.375, 188.6439
1079.858, 189.6903
1080.340, 189.9822
1080.822, 190.3053
1081.304, 191.1469
1081.786, 191.9652
1082.268, 192.1457
1082.750, 191.6660
1083.232, 191.7370
1083.714, 192.3801
1084.197, 192.9478
1084.679, 192.6945
1085.161, 192.4514
1085.643, 193.1210
1086.125, 194.3172
1086.607, 194.6641
1087.089, 193.7036
1087.571, 193.5872
1088.054, 194.8540
1088.536, 196.1809
1089.018, 195.5653
1089.500, 194.2317
1089.982, 194.1650
1090.464, 195.5999
1090.946, 196.4236
1091.428, 195.8888
1091.911, 195.2499
1092.393, 194.9513
1092.875, 194.7209
1093.357, 193.4382
1093.839, 191.6643
1094.321, 191.3080
1094.803, 193.4033
1095.285, 195.3262
1095.767, 195.6547
1096.250, 195.5232
1096.732, 195.6590
1097.214, 196.0474
1097.696, 196.5187
1098.178, 197.0490
1098.660, 197.1180
1099.142, 196.1315
1099.624, 194.9761
1100.106, 194.1202
1100.589, 193.6235
1101.071, 193.6105
1101.553, 194.2589
1102.035, 194.7717
1102.517, 195.1478
1102.999, 195.3110
1103.481, 194.9874
1103.963, 194.5466
1104.446, 194.7047
1104.928, 195.2357
1105.410, 195.1034
1105.892, 192.8405
1106.374, 192.1721
1106.856, 194.1308
1107.338, 196.7951
1107.820, 197.4696
1108.302, 196.8425
1108.785, 196.5472
1109.267, 196.7753
1109.749, 197.1980
1110.231, 198.0313
1110.713, 198.6069
1111.195, 198.6172
1111.677, 198.2647
1112.159, 197.9187
1112.641, 197.6660
1113.124, 198.2613
1113.606, 200.2294
1114.088, 201.6380
1114.570, 200.2873
1115.052, 198.5899
1115.534, 198.6096
1116.016, 200.2624
1116.498, 201.3162
1116.981, 201.7623
1117.463, 202.1310
1117.945, 202.7411
1118.427, 203.2351
1118.909, 203.1057
1119.391, 202.6948
1119.873, 202.4517
1120.355, 202.2829
1120.838, 202.8306
1121.320, 204.2847
1121.802, 205.6264
1122.284, 205.6676
1122.766, 205.4578
1123.248, 207.1837
1123.730, 209.9922
1124.212, 211.5838
1124.694, 209.8351
1125.177, 209.0478
1125.659, 209.8902
1126.141, 211.0266
1126.623, 210.8297
1127.105, 209.8676
1127.587, 209.7117
1128.069, 210.3423
1128.551, 210.9493
1129.033, 211.0311
1129.516, 211.2175
1129.998, 211.6483
1130.480, 212.2945
1130.962, 213.3777
1131.444, 214.6950
1131.926, 214.9839
1132.408, 214.0080
1132.890, 213.4420
1133.373, 214.8799
1133.855, 216.5075
1134.337, 217.4256
1134.819, 217.6942
1135.301, 217.1072
1135.783, 215.7351
1136.265, 215.6206
1136.747, 217.6019
1137.229, 219.7072
1137.712, 220.2487
1138.194, 220.1559
1138.676, 220.0471
1139.158, 219.9612
1139.640, 220.8572
1140.122, 222.8423
1140.604, 224.8749
1141.086, 226.7269
1141.569, 228.1158
1142.051, 228.4497
1142.533, 228.3022
1143.015, 228.4147
1143.497, 228.8376
1143.979, 229.7557
1144.461, 231.1817
1144.943, 233.0516
1145.426, 235.7481
1145.908, 238.4640
1146.390, 239.5547
1146.872, 239.6618
1147.354, 240.1470
1147.836, 241.7760
1148.318, 243.1585
1148.800, 244.0583
1149.282, 245.1768
1149.765, 247.2896
1150.247, 249.9802
1150.729, 252.5167
1151.211, 254.8268
1151.693, 256.7464
1152.175, 257.7620
1152.657, 259.0361
1153.139, 260.8801
1153.621, 262.8510
1154.104, 264.1834
1154.586, 265.2228
1155.068, 267.3385
1155.550, 270.5293
1156.032, 273.4897
1156.514, 275.5495
1156.996, 277.2806
1157.478, 278.4818
1157.961, 279.8591
1158.443, 282.9861
1158.925, 287.5208
1159.407, 291.4987
1159.889, 294.6017
1160.371, 297.7349
1160.853, 301.4758
1161.335, 305.3448
1161.818, 309.0194
1162.300, 312.6535
1162.782, 316.8357
1163.264, 321.4928
1163.746, 325.8102
1164.228, 329.5103
1164.710, 333.6024
1165.192, 339.1061
1165.674, 345.0600
1166.156, 350.6713
1166.639, 356.0408
1167.121, 361.5434
1167.603, 367.1735
1168.085, 374.5019
1168.567, 384.7658
1169.049, 394.8089
1169.531, 400.5634
1170.013, 405.6674
1170.496, 414.3849
1170.978, 426.7773
1171.460, 437.5901
1171.942, 446.7356
1172.424, 456.6751
1172.906, 468.6681
1173.388, 481.4251
1173.870, 493.3516
1174.353, 505.2494
1174.835, 518.1786
1175.317, 532.3558
1175.799, 547.1785
1176.281, 562.8580
1176.763, 578.4310
1177.245, 593.4312
1177.727, 608.2650
1178.209, 623.0507
1178.692, 638.1213
1179.174, 654.4033
1179.656, 672.6646
1180.138, 689.9648
1180.620, 706.4042
1181.102, 722.0849
1181.584, 737.3046
1182.066, 751.6931
1182.548, 764.8586
1183.031, 776.7611
1183.513, 787.4446
1183.995, 796.8071
1184.477, 805.4479
1184.959, 813.8963
1185.441, 819.9538
1185.923, 820.6669
1186.405, 818.4929
1186.888, 817.2316
1187.370, 816.1212
1187.852, 812.0544
1188.334, 803.9297
1188.816, 793.9088
1189.298, 782.0211
1189.780, 769.0588
1190.262, 755.8228
1190.745, 742.0902
1191.227, 727.5552
1191.709, 712.2664
1192.191, 696.1318
1192.673, 678.8995
1193.155, 661.3419
1193.637, 643.2427
1194.119, 625.3112
1194.601, 607.9495
1195.084, 591.2557
1195.566, 575.5307
1196.048, 560.6691
1196.530, 546.1319
1197.012, 531.9640
1197.494, 517.3896
1197.976, 501.9168
1198.458, 486.7545
1198.941, 473.7598
1199.423, 462.3192
1199.905, 452.0527
1200.387, 442.8076
1200.869, 432.9150
1201.351, 421.5766
1201.833, 410.7113
1202.315, 400.7599
1202.797, 391.5407
1203.280, 383.0991
1203.762, 375.1974
1204.244, 367.1678
1204.726, 358.9462
1205.208, 351.6647
1205.690, 345.8537
1206.172, 340.1973
1206.654, 334.2337
1207.136, 328.2170
1207.619, 322.5603
1208.101, 317.1568
1208.583, 311.6850
1209.065, 305.9992
1209.547, 300.9151
1210.029, 296.7954
1210.511, 292.5352
1210.993, 287.5705
1211.476, 282.4055
1211.958, 277.6644
1212.440, 273.3574
1212.922, 269.6833
1213.404, 266.7680
1213.886, 263.8232
1214.368, 260.6627
1214.850, 257.6992
1215.333, 255.2238
1215.815, 252.8794
1216.297, 250.0338
1216.779, 246.7969
1217.261, 243.1526
1217.743, 238.6268
1218.225, 235.8004
1218.707, 235.7297
1219.189, 234.9348
1219.672, 231.2175
1220.154, 226.5384
1220.636, 224.7073
1221.118, 224.4657
1221.600, 223.6566
1222.082, 221.8570
1222.564, 218.9892
1223.046, 214.5918
1223.528, 210.6030
1224.011, 208.1280
1224.493, 206.5349
1224.975, 205.2399
1225.457, 203.8905
1225.939, 201.7482
1226.421, 198.0393
1226.903, 195.3101
1227.385, 193.8126
1227.868, 192.4756
1228.350, 190.7654
1228.832, 188.7930
1229.314, 186.4872
1229.796, 184.1445
1230.278, 182.3544
1230.760, 181.6077
1231.242, 180.2365
1231.724, 178.1169
1232.207, 175.9305
1232.689, 174.0188
1233.171, 172.3286
1233.653, 170.7651
1234.135, 169.3590
1234.617, 168.1477
1235.099, 167.1374
1235.581, 166.4171
1236.063, 166.1003
1236.546, 165.3350
1237.028, 163.2741
1237.510, 160.8561
1237.992, 158.7062
1238.474, 157.0009
1238.956, 156.2203
1239.438, 156.7544
1239.920, 156.3183
1240.403, 154.8552
1240.885, 153.2959
1241.367, 152.3836
1241.849, 151.4872
1242.331, 149.7338
1242.813, 149.0732
1243.295, 148.2188
1243.777, 147.1817
1244.260, 146.8828
1244.742, 145.9775
1245.224, 145.0877
1245.706, 144.8196
1246.188, 144.4549
1246.670, 143.3402
1247.152, 141.9139
1247.634, 140.6763
1248.116, 139.5662
1248.599, 139.7073
1249.081, 140.9829
1249.563, 141.6062
1250.045, 139.5039
1250.527, 137.6284
1251.009, 137.9786
1251.491, 139.0410
1251.973, 139.3403
1252.455, 138.8987
1252.938, 137.9865
1253.420, 136.7244
1253.902, 135.9912
1254.384, 136.7361
1254.866, 137.5122
1255.348, 138.0974
1255.830, 138.1845
1256.313, 136.9390
1256.795, 134.8086
1257.277, 135.1034
1257.759, 137.3361
1258.241, 138.9018
1258.723, 138.1673
1259.205, 137.1727
1259.687, 135.9613
1260.169, 135.2117
1260.651, 135.8747
1261.134, 137.4083
1261.616, 138.1164
1262.098, 138.1322
1262.580, 138.0166
1263.062, 137.5787
1263.544, 137.7158
1264.026, 138.7327
1264.508, 139.7625
1264.991, 140.1987
1265.473, 140.0820
1265.955, 139.0188
1266.437, 137.5049
1266.919, 136.8404
1267.401, 137.9516
1267.883, 138.9276
1268.365, 139.7896
1268.848, 140.3431
1269.330, 140.0366
1269.812, 139.6447
1270.294, 140.3540
1270.776, 141.7115
1271.258, 142.6844
1271.740, 143.0474
1272.222, 143.4665
1272.704, 143.9437
1273.187, 144.5041
1273.669, 145.3308
1274.151, 146.0795
1274.633, 146.1659
1275.115, 146.1066
1275.597, 146.8404
1276.079, 148.6113
1276.561, 149.4280
1277.043, 149.3039
1277.526, 148.9759
1278.008, 148.7187
1278.490, 148.5946
1278.972, 148.6994
1279.454, 148.9276
1279.936, 149.1375
1280.418, 149.3349
1280.900, 149.8743
1281.383, 150.6998
1281.865, 151.4681
1282.347, 152.0707
1282.829, 152.5020
1283.311, 152.6787
1283.793, 152.7734
1284.275, 152.7989
1284.757, 152.8591
1285.240, 153.6396
1285.722, 154.8588
1286.204, 155.5575
1286.686, 154.7491
1287.168, 154.5871
1287.650, 155.5666
1288.132, 156.5732
1288.614, 156.7109
1289.096, 156.4462
1289.578, 156.6921
1290.061, 157.2850
1290.543, 157.8947
1291.025, 158.4261
1291.507, 158.9574
1291.989, 159.4303
1292.471, 160.1785
1292.953, 161.5749
1293.435, 163.1091
1293.918, 164.2271
1294.400, 165.0542
1294.882, 165.7461
1295.364, 166.2984
1295.846, 166.9278
1296.328, 167.6349
1296.810, 168.6161
1297.292, 169.9932
1297.775, 171.5978
1298.257, 173.4857
1298.739, 175.4145
1299.221, 177.1177
1299.703, 178.6257
1300.185, 180.1389
1300.667, 181.6941
1301.149, 183.5628
1301.631, 186.0214
1302.114, 188.1647
1302.596, 189.9022
##END=



