##NAMES=Zircon
##RRUFFID=R100144
##IDEAL CHEMISTRY=Zr^4+^SiO_4_
##LOCALITY=Sri Lanka
##OWNER=RRUFF
##SOURCE=William W. Pinch
##DESCRIPTION=Brown, red, and green cut gemstones
##STATUS=The identification of this mineral has been confirmed by single-crystal X-ray diffraction.
##URL=rruff.info/R100144
91.03516, 56.22528
91.51727, 57.86573
91.99939, 56.54044
92.48151, 53.14027
92.96362, 50.18739
93.44574, 49.12075
93.92786, 49.38927
94.40997, 49.97969
94.89210, 50.95008
95.37421, 51.85541
95.85633, 51.89996
96.33845, 51.12049
96.82056, 50.24740
97.30268, 49.77155
97.78480, 49.65370
98.26691, 49.47144
98.74903, 49.16380
99.23115, 48.77003
99.71326, 48.29280
100.1954, 47.63862
100.6775, 47.27487
101.1596, 47.73957
101.6417, 49.25061
102.1239, 50.51967
102.6060, 51.32662
103.0881, 51.68987
103.5702, 51.81723
104.0523, 51.72660
104.5344, 51.38088
105.0166, 50.59698
105.4987, 48.72301
105.9808, 47.61089
106.4629, 47.96958
106.9450, 50.34711
107.4271, 51.71498
107.9093, 51.80911
108.3914, 50.99657
108.8735, 49.79467
109.3556, 46.97443
109.8377, 44.92689
110.3198, 44.41784
110.8020, 46.46129
111.2841, 48.08807
111.7662, 49.18941
112.2483, 49.81361
112.7304, 50.08480
113.2125, 49.83144
113.6947, 49.36329
114.1768, 48.80340
114.6589, 47.84316
115.1410, 47.21234
115.6231, 47.14554
116.1052, 47.56432
116.5874, 48.17579
117.0695, 49.66105
117.5516, 50.91178
118.0337, 51.06602
118.5158, 48.65830
118.9980, 46.20839
119.4801, 44.58051
119.9622, 43.79694
120.4443, 43.95325
120.9264, 46.30637
121.4085, 49.32705
121.8907, 51.13801
122.3728, 49.50823
122.8549, 47.28173
123.3370, 47.12194
123.8191, 49.18184
124.3012, 51.20874
124.7834, 50.96241
125.2655, 49.31402
125.7476, 48.12655
126.2297, 48.90033
126.7118, 50.48363
127.1939, 51.02744
127.6761, 50.23781
128.1582, 49.31436
128.6403, 49.83675
129.1224, 51.54312
129.6045, 53.17003
130.0867, 53.44139
130.5688, 52.99361
131.0509, 54.06271
131.5330, 57.19707
132.0151, 61.18825
132.4972, 63.66195
132.9794, 64.61446
133.4615, 66.07442
133.9436, 69.79551
134.4257, 75.62125
134.9078, 80.75805
135.3899, 84.40604
135.8721, 87.49673
136.3542, 92.92231
136.8363, 100.9479
137.3184, 110.1721
137.8005, 119.2450
138.2826, 128.0658
138.7648, 138.0838
139.2469, 149.3756
139.7290, 162.0990
140.2111, 176.7554
140.6932, 193.8401
141.1753, 212.1784
141.6575, 230.5799
142.1396, 249.3532
142.6217, 267.8670
143.1038, 285.9728
143.5859, 303.8325
144.0681, 321.1560
144.5502, 338.1461
145.0323, 354.5555
145.5144, 370.4616
145.9965, 386.0737
146.4786, 400.6851
146.9608, 413.6205
147.4429, 424.6308
147.9250, 435.8011
148.4071, 446.2782
148.8892, 457.2615
149.3713, 470.2650
149.8535, 485.5624
150.3356, 502.7950
150.8177, 522.0018
151.2998, 543.6223
151.7819, 566.2394
152.2640, 590.1783
152.7462, 615.1710
153.2283, 640.2722
153.7104, 665.5350
154.1925, 690.8362
154.6746, 716.1832
155.1567, 742.1317
155.6389, 766.5476
156.1210, 789.3212
156.6031, 810.4811
157.0852, 830.3682
157.5673, 849.9039
158.0495, 867.5126
158.5316, 882.5453
159.0137, 894.0361
159.4958, 903.9490
159.9779, 912.3267
160.4600, 919.4745
160.9422, 926.3906
161.4243, 932.0252
161.9064, 938.3347
162.3885, 946.6812
162.8706, 959.1439
163.3527, 971.7845
163.8349, 982.4221
164.3170, 991.6462
164.7991, 1002.273
165.2812, 1016.120
165.7633, 1031.754
166.2454, 1047.885
166.7276, 1064.110
167.2097, 1081.292
167.6918, 1098.355
168.1739, 1116.743
168.6560, 1135.186
169.1381, 1153.891
169.6203, 1171.783
170.1024, 1180.195
170.5845, 1182.739
171.0666, 1184.551
171.5487, 1186.343
172.0309, 1188.124
172.5130, 1189.820
172.9951, 1192.096
173.4772, 1194.176
173.9593, 1194.826
174.4414, 1192.318
174.9236, 1188.828
175.4057, 1186.511
175.8878, 1185.328
176.3699, 1185.139
176.8520, 1186.844
177.3341, 1189.451
177.8163, 1190.807
178.2984, 1188.025
178.7805, 1184.091
179.2626, 1183.251
179.7447, 1185.568
180.2268, 1190.552
180.7090, 1197.768
181.1911, 1207.204
181.6732, 1218.907
182.1553, 1233.108
182.6374, 1249.508
183.1195, 1267.600
183.6017, 1287.866
184.0838, 1308.238
184.5659, 1327.230
185.0480, 1344.754
185.5301, 1361.278
186.0123, 1375.550
186.4944, 1388.799
186.9765, 1404.575
187.4586, 1423.357
187.9407, 1443.785
188.4228, 1463.640
188.9050, 1483.020
189.3871, 1504.376
189.8692, 1529.225
190.3513, 1556.958
190.8334, 1585.047
191.3155, 1612.789
191.7977, 1641.921
192.2798, 1675.678
192.7619, 1714.046
193.2440, 1753.762
193.7261, 1792.716
194.2082, 1831.159
194.6904, 1873.711
195.1725, 1920.413
195.6546, 1971.668
196.1367, 2025.001
196.6188, 2080.140
197.1009, 2143.185
197.5831, 2217.319
198.0652, 2303.128
198.5473, 2396.466
199.0294, 2497.292
199.5115, 2605.175
199.9937, 2722.440
200.4758, 2849.218
200.9579, 2974.888
201.4400, 3104.103
201.9221, 3240.980
202.4042, 3325.807
202.8864, 3354.275
203.3685, 3330.511
203.8506, 3250.247
204.3327, 3100.724
204.8148, 2949.941
205.2969, 2830.545
205.7791, 2742.586
206.2612, 2685.378
206.7433, 2661.668
207.2254, 2666.239
207.7075, 2688.663
208.1896, 2732.345
208.6718, 2784.090
209.1539, 2839.167
209.6360, 2898.416
210.1181, 2954.895
210.6002, 3010.047
211.0823, 3061.348
211.5645, 3103.220
212.0466, 3138.694
212.5287, 3158.136
213.0108, 3155.118
213.4929, 3126.365
213.9750, 3087.453
214.4572, 3034.199
214.9393, 2973.458
215.4214, 2922.607
215.9035, 2879.847
216.3856, 2850.236
216.8678, 2836.522
217.3499, 2837.972
217.8320, 2856.887
218.3141, 2895.798
218.7962, 2951.192
219.2783, 3012.501
219.7605, 3078.898
220.2426, 3151.542
220.7247, 3231.583
221.2068, 3321.996
221.6889, 3412.115
222.1710, 3508.024
222.6532, 3601.612
223.1353, 3667.056
223.6174, 3711.557
224.0995, 3717.309
224.5816, 3675.362
225.0637, 3580.909
225.5459, 3448.206
226.0280, 3269.035
226.5101, 3053.521
226.9922, 2835.220
227.4743, 2600.734
227.9564, 2381.404
228.4386, 2188.909
228.9207, 2029.537
229.4028, 1889.946
229.8849, 1770.164
230.3670, 1669.385
230.8492, 1582.533
231.3313, 1512.454
231.8134, 1453.173
232.2955, 1401.776
232.7776, 1360.641
233.2597, 1323.993
233.7419, 1292.683
234.2240, 1265.484
234.7061, 1239.981
235.1882, 1215.761
235.6703, 1193.970
236.1524, 1175.014
236.6346, 1159.673
237.1167, 1145.566
237.5988, 1132.338
238.0809, 1120.409
238.5630, 1110.751
239.0451, 1104.542
239.5273, 1098.914
240.0094, 1092.640
240.4915, 1085.105
240.9736, 1078.386
241.4557, 1072.416
241.9378, 1067.205
242.4200, 1062.818
242.9021, 1059.247
243.3842, 1056.408
243.8663, 1054.308
244.3484, 1053.084
244.8306, 1052.255
245.3127, 1052.295
245.7948, 1052.490
246.2769, 1051.238
246.7590, 1047.004
247.2411, 1043.997
247.7233, 1044.237
248.2054, 1049.303
248.6875, 1051.576
249.1696, 1049.616
249.6517, 1045.835
250.1338, 1044.116
250.6160, 1045.038
251.0981, 1047.024
251.5802, 1049.859
252.0623, 1053.911
252.5444, 1056.951
253.0265, 1058.386
253.5087, 1059.288
253.9908, 1061.107
254.4729, 1064.014
254.9550, 1067.567
255.4371, 1072.080
255.9192, 1077.851
256.4014, 1081.652
256.8835, 1082.442
257.3656, 1082.296
257.8477, 1083.830
258.3298, 1087.692
258.8120, 1091.811
259.2941, 1095.813
259.7762, 1099.723
260.2583, 1103.299
260.7404, 1106.749
261.2225, 1109.615
261.7047, 1111.390
262.1868, 1111.723
262.6689, 1111.797
263.1510, 1111.720
263.6331, 1111.498
264.1152, 1111.808
264.5974, 1112.998
265.0795, 1114.174
265.5616, 1114.482
266.0437, 1113.826
266.5258, 1112.704
267.0079, 1111.332
267.4901, 1109.636
267.9722, 1106.921
268.4543, 1103.031
268.9364, 1098.437
269.4185, 1093.220
269.9006, 1087.024
270.3828, 1081.860
270.8649, 1078.153
271.3470, 1075.666
271.8291, 1073.234
272.3112, 1070.795
272.7933, 1068.434
273.2755, 1066.140
273.7576, 1063.828
274.2397, 1061.963
274.7218, 1060.634
275.2039, 1059.751
275.6860, 1059.269
276.1682, 1059.393
276.6503, 1059.136
277.1324, 1057.677
277.6145, 1054.936
278.0966, 1052.477
278.5787, 1050.368
279.0609, 1048.740
279.5430, 1048.053
280.0251, 1048.497
280.5072, 1048.931
280.9893, 1048.276
281.4715, 1046.560
281.9536, 1046.949
282.4357, 1050.241
282.9178, 1054.372
283.3999, 1055.085
283.8820, 1052.116
284.3642, 1050.171
284.8463, 1052.451
285.3284, 1058.423
285.8105, 1061.536
286.2926, 1061.155
286.7747, 1059.793
287.2569, 1061.121
287.7390, 1065.024
288.2211, 1068.815
288.7032, 1071.442
289.1853, 1073.068
289.6674, 1074.481
290.1496, 1075.721
290.6317, 1076.625
291.1138, 1076.640
291.5959, 1075.970
292.0780, 1075.970
292.5602, 1077.320
293.0423, 1079.575
293.5244, 1081.683
294.0065, 1083.643
294.4886, 1085.481
294.9707, 1087.492
295.4529, 1089.486
295.9350, 1090.601
296.4171, 1090.068
296.8992, 1089.078
297.3813, 1089.616
297.8634, 1091.629
298.3456, 1094.655
298.8277, 1099.392
299.3098, 1104.815
299.7919, 1108.325
300.2740, 1108.546
300.7561, 1108.107
301.2383, 1110.505
301.7204, 1115.330
302.2025, 1120.563
302.6846, 1125.655
303.1667, 1130.177
303.6488, 1133.381
304.1310, 1134.824
304.6131, 1135.861
305.0952, 1137.354
305.5773, 1139.424
306.0594, 1142.375
306.5415, 1146.845
307.0237, 1152.052
307.5058, 1157.231
307.9879, 1162.250
308.4700, 1167.441
308.9521, 1173.316
309.4343, 1179.527
309.9164, 1185.589
310.3985, 1191.325
310.8806, 1196.861
311.3627, 1202.048
311.8448, 1206.917
312.3270, 1212.324
312.8091, 1219.023
313.2912, 1226.485
313.7733, 1234.085
314.2554, 1240.989
314.7375, 1248.509
315.2197, 1257.629
315.7018, 1268.249
316.1839, 1278.807
316.6660, 1288.596
317.1481, 1298.088
317.6302, 1307.494
318.1124, 1315.927
318.5945, 1325.512
319.0766, 1337.720
319.5587, 1351.863
320.0408, 1365.722
320.5229, 1378.294
321.0051, 1390.601
321.4872, 1403.205
321.9693, 1415.885
322.4514, 1429.173
322.9335, 1443.350
323.4156, 1458.185
323.8978, 1473.232
324.3799, 1486.924
324.8620, 1502.112
325.3441, 1520.354
325.8262, 1542.860
326.3083, 1564.364
326.7905, 1583.862
327.2726, 1602.422
327.7547, 1621.093
328.2368, 1637.158
328.7189, 1656.381
329.2010, 1680.853
329.6832, 1710.902
330.1653, 1739.991
330.6474, 1765.236
331.1295, 1791.567
331.6116, 1823.249
332.0938, 1861.377
332.5759, 1903.269
333.0580, 1947.950
333.5401, 1996.009
334.0222, 2048.620
334.5043, 2106.797
334.9865, 2168.692
335.4686, 2233.765
335.9507, 2302.208
336.4328, 2373.767
336.9149, 2448.703
337.3970, 2527.733
337.8792, 2609.824
338.3613, 2696.410
338.8434, 2785.231
339.3255, 2876.038
339.8076, 2969.225
340.2898, 3063.668
340.7719, 3159.202
341.2540, 3257.717
341.7361, 3364.573
342.2182, 3478.195
342.7003, 3597.696
343.1825, 3720.428
343.6646, 3848.180
344.1467, 3984.262
344.6288, 4129.658
345.1109, 4286.727
345.5930, 4451.409
346.0752, 4628.975
346.5573, 4814.864
347.0394, 5009.831
347.5215, 5212.970
348.0036, 5428.006
348.4857, 5654.007
348.9679, 5888.301
349.4500, 6137.686
349.9321, 6396.785
350.4142, 6650.954
350.8963, 6902.309
351.3784, 7140.138
351.8606, 7356.823
352.3427, 7547.042
352.8248, 7695.047
353.3069, 7801.590
353.7890, 7854.532
354.2711, 7838.519
354.7533, 7752.194
355.2354, 7603.052
355.7175, 7383.150
356.1996, 7107.092
356.6817, 6800.293
357.1638, 6449.699
357.6460, 6089.957
358.1281, 5737.350
358.6102, 5394.426
359.0923, 5067.037
359.5744, 4758.169
360.0565, 4470.232
360.5387, 4205.632
361.0208, 3966.262
361.5029, 3747.871
361.9850, 3552.988
362.4671, 3379.202
362.9492, 3222.073
363.4314, 3083.168
363.9135, 2958.214
364.3956, 2845.504
364.8777, 2746.035
365.3598, 2654.832
365.8419, 2571.393
366.3241, 2495.388
366.8062, 2426.938
367.2883, 2368.679
367.7704, 2315.415
368.2526, 2265.954
368.7347, 2220.084
369.2168, 2178.247
369.6989, 2140.709
370.1810, 2106.747
370.6631, 2075.410
371.1453, 2046.992
371.6274, 2020.636
372.1095, 1995.325
372.5916, 1971.494
373.0737, 1953.148
373.5558, 1942.574
374.0380, 1933.840
374.5201, 1923.260
375.0022, 1909.618
375.4843, 1898.602
375.9664, 1890.917
376.4485, 1885.492
376.9307, 1880.098
377.4128, 1874.695
377.8949, 1869.667
378.3770, 1865.186
378.8591, 1861.259
379.3412, 1857.775
379.8234, 1854.722
380.3055, 1852.256
380.7876, 1850.649
381.2697, 1849.876
381.7518, 1849.599
382.2339, 1849.561
382.7161, 1850.106
383.1982, 1852.281
383.6803, 1856.038
384.1624, 1860.359
384.6445, 1863.626
385.1266, 1866.875
385.6088, 1873.240
386.0909, 1883.933
386.5730, 1895.428
387.0551, 1903.487
387.5372, 1908.849
388.0193, 1913.764
388.5015, 1919.328
388.9836, 1925.001
389.4657, 1930.709
389.9478, 1936.493
390.4299, 1940.557
390.9120, 1941.405
391.3942, 1939.908
391.8763, 1937.109
392.3584, 1932.467
392.8405, 1927.474
393.3226, 1922.292
393.8047, 1917.194
394.2869, 1913.432
394.7690, 1912.090
395.2511, 1911.834
395.7332, 1911.728
396.2154, 1910.947
396.6975, 1911.749
397.1796, 1914.441
397.6617, 1919.071
398.1438, 1925.644
398.6259, 1935.348
399.1081, 1945.863
399.5902, 1956.316
400.0723, 1966.426
400.5544, 1978.318
401.0365, 1992.152
401.5186, 2007.669
402.0008, 2024.600
402.4829, 2043.872
402.9650, 2062.826
403.4471, 2080.449
403.9292, 2097.597
404.4113, 2117.658
404.8935, 2141.642
405.3756, 2166.452
405.8577, 2190.510
406.3398, 2213.406
406.8219, 2237.245
407.3040, 2262.440
407.7862, 2287.993
408.2683, 2312.808
408.7504, 2336.889
409.2325, 2361.063
409.7146, 2385.590
410.1967, 2410.330
410.6789, 2436.805
411.1610, 2465.122
411.6431, 2493.378
412.1252, 2519.061
412.6073, 2543.164
413.0894, 2568.481
413.5716, 2595.344
414.0537, 2622.815
414.5358, 2649.673
415.0179, 2675.836
415.5000, 2702.030
415.9821, 2729.488
416.4643, 2756.293
416.9464, 2779.128
417.4285, 2797.245
417.9106, 2817.154
418.3927, 2841.571
418.8748, 2870.663
419.3570, 2904.176
419.8391, 2940.814
420.3212, 2983.305
420.8033, 3035.548
421.2854, 3095.758
421.7675, 3156.438
422.2497, 3212.066
422.7318, 3270.094
423.2139, 3333.954
423.6960, 3404.428
424.1781, 3479.708
424.6602, 3558.025
425.1424, 3641.385
425.6245, 3731.871
426.1066, 3828.344
426.5887, 3931.711
427.0709, 4041.349
427.5530, 4157.246
428.0351, 4279.791
428.5172, 4410.162
428.9993, 4547.462
429.4814, 4691.922
429.9636, 4844.436
430.4457, 5000.116
430.9278, 5157.434
431.4099, 5318.763
431.8920, 5489.635
432.3741, 5672.327
432.8563, 5858.724
433.3384, 6049.056
433.8205, 6242.232
434.3026, 6426.105
434.7847, 6602.107
435.2668, 6764.875
435.7490, 6915.137
436.2311, 7049.650
436.7132, 7152.422
437.1953, 7221.545
437.6774, 7254.125
438.1595, 7249.325
438.6417, 7206.308
439.1238, 7121.459
439.6059, 6982.964
440.0880, 6806.573
440.5701, 6604.506
441.0522, 6375.149
441.5344, 6135.098
442.0165, 5884.988
442.4986, 5633.222
442.9807, 5391.403
443.4628, 5161.944
443.9449, 4944.471
444.4271, 4736.219
444.9092, 4538.630
445.3913, 4358.448
445.8734, 4207.394
446.3555, 4070.570
446.8376, 3941.656
447.3198, 3820.225
447.8019, 3706.427
448.2840, 3602.927
448.7661, 3506.685
449.2482, 3413.834
449.7303, 3324.471
450.2125, 3239.789
450.6946, 3159.626
451.1767, 3083.668
451.6588, 3012.403
452.1409, 2945.882
452.6230, 2882.662
453.1052, 2822.276
453.5873, 2764.122
454.0694, 2709.865
454.5515, 2659.741
455.0337, 2613.458
455.5158, 2571.820
455.9979, 2534.408
456.4800, 2500.665
456.9621, 2470.406
457.4442, 2443.279
457.9264, 2418.313
458.4085, 2395.598
458.8906, 2374.680
459.3727, 2355.697
459.8548, 2338.367
460.3369, 2322.526
460.8191, 2307.717
461.3012, 2294.993
461.7833, 2285.358
462.2654, 2278.403
462.7475, 2273.288
463.2296, 2271.101
463.7118, 2269.387
464.1939, 2266.503
464.6760, 2262.292
465.1581, 2258.871
465.6402, 2256.993
466.1223, 2256.055
466.6045, 2255.667
467.0866, 2257.599
467.5687, 2257.730
468.0508, 2255.084
468.5329, 2250.532
469.0150, 2246.113
469.4972, 2243.493
469.9793, 2238.580
470.4614, 2229.915
470.9435, 2217.372
471.4256, 2203.981
471.9077, 2190.059
472.3899, 2174.743
472.8720, 2156.898
473.3541, 2136.073
473.8362, 2115.658
474.3183, 2096.131
474.8004, 2076.956
475.2826, 2056.872
475.7647, 2035.956
476.2468, 2015.379
476.7289, 1995.262
477.2110, 1975.896
477.6931, 1958.301
478.1753, 1942.391
478.6574, 1927.783
479.1395, 1914.862
479.6216, 1902.841
480.1037, 1890.561
480.5858, 1877.574
481.0680, 1864.463
481.5501, 1851.631
482.0322, 1838.965
482.5143, 1826.334
482.9964, 1813.244
483.4786, 1800.593
483.9607, 1788.929
484.4428, 1778.465
484.9249, 1767.931
485.4070, 1757.100
485.8892, 1746.240
486.3713, 1735.529
486.8534, 1724.896
487.3355, 1714.643
487.8176, 1704.550
488.2997, 1694.932
488.7819, 1686.202
489.2640, 1678.214
489.7461, 1671.429
490.2282, 1666.633
490.7103, 1663.539
491.1924, 1657.457
491.6746, 1647.490
492.1567, 1638.004
492.6388, 1633.302
493.1209, 1632.851
493.6030, 1632.588
494.0851, 1631.990
494.5673, 1631.248
495.0494, 1630.132
495.5315, 1628.976
496.0136, 1629.028
496.4957, 1632.100
496.9778, 1635.955
497.4600, 1637.791
497.9421, 1637.827
498.4242, 1638.391
498.9063, 1640.135
499.3884, 1643.451
499.8705, 1649.236
500.3527, 1659.188
500.8348, 1667.703
501.3169, 1672.146
501.7990, 1674.011
502.2811, 1675.410
502.7632, 1676.016
503.2454, 1676.924
503.7275, 1679.254
504.2096, 1682.670
504.6917, 1683.299
505.1738, 1680.166
505.6559, 1675.631
506.1381, 1670.865
506.6202, 1665.925
507.1023, 1660.706
507.5844, 1655.426
508.0665, 1649.536
508.5486, 1642.305
509.0308, 1633.676
509.5129, 1624.356
509.9950, 1614.266
510.4771, 1603.747
510.9592, 1593.265
511.4413, 1582.846
511.9235, 1572.566
512.4056, 1562.237
512.8877, 1552.158
513.3698, 1542.490
513.8519, 1533.209
514.3340, 1524.770
514.8162, 1518.374
515.2983, 1512.699
515.7804, 1506.085
516.2625, 1496.451
516.7446, 1487.833
517.2267, 1482.654
517.7089, 1479.788
518.1910, 1476.508
518.6731, 1471.530
519.1552, 1466.737
519.6373, 1462.767
520.1194, 1459.605
520.6016, 1457.155
521.0837, 1455.848
521.5658, 1454.779
522.0479, 1453.265
522.5300, 1451.137
523.0121, 1449.170
523.4943, 1447.422
523.9764, 1445.830
524.4585, 1444.295
524.9406, 1442.839
525.4227, 1441.402
525.9048, 1439.775
526.3870, 1438.258
526.8691, 1437.953
527.3513, 1438.756
527.8334, 1439.096
528.3155, 1436.619
528.7976, 1433.419
529.2797, 1433.172
529.7618, 1436.888
530.2440, 1439.994
530.7261, 1438.014
531.2082, 1433.870
531.6903, 1431.342
532.1724, 1432.993
532.6545, 1434.981
533.1367, 1436.209
533.6188, 1436.801
534.1009, 1437.276
534.5830, 1436.588
535.0651, 1436.913
535.5472, 1439.468
536.0294, 1444.863
536.5115, 1448.078
536.9936, 1447.855
537.4757, 1447.224
537.9578, 1448.919
538.4399, 1453.415
538.9221, 1457.202
539.4042, 1459.663
539.8863, 1461.796
540.3684, 1465.975
540.8505, 1471.949
541.3326, 1476.666
541.8148, 1478.116
542.2969, 1477.999
542.7790, 1479.413
543.2611, 1482.190
543.7432, 1485.006
544.2253, 1487.854
544.7075, 1489.816
545.1896, 1489.769
545.6717, 1487.358
546.1538, 1484.121
546.6359, 1480.122
547.1180, 1475.977
547.6002, 1472.391
548.0823, 1471.038
548.5644, 1468.506
549.0465, 1463.056
549.5286, 1455.907
550.0107, 1450.802
550.4929, 1450.017
550.9750, 1447.770
551.4571, 1441.555
551.9392, 1431.308
552.4213, 1423.460
552.9034, 1418.354
553.3856, 1414.402
553.8677, 1410.750
554.3498, 1407.317
554.8319, 1402.991
555.3140, 1397.497
555.7961, 1391.684
556.2783, 1386.344
556.7604, 1381.595
557.2425, 1377.934
557.7246, 1376.524
558.2067, 1375.265
558.6888, 1372.208
559.1710, 1367.625
559.6531, 1362.402
560.1352, 1355.311
560.6173, 1349.084
561.0994, 1345.955
561.5815, 1346.498
562.0637, 1346.315
562.5458, 1343.570
563.0279, 1340.429
563.5100, 1338.460
563.9921, 1338.429
564.4742, 1338.211
564.9564, 1337.747
565.4385, 1337.053
565.9206, 1336.057
566.4027, 1334.632
566.8848, 1333.520
567.3669, 1333.078
567.8491, 1333.017
568.3312, 1332.361
568.8133, 1331.135
569.2954, 1329.908
569.7775, 1329.081
570.2596, 1328.508
570.7418, 1327.931
571.2239, 1327.332
571.7060, 1326.832
572.1881, 1326.971
572.6702, 1327.072
573.1523, 1326.215
573.6345, 1323.141
574.1166, 1320.985
574.5987, 1321.768
575.0808, 1324.066
575.5629, 1325.530
576.0450, 1324.617
576.5272, 1324.125
577.0093, 1324.860
577.4914, 1326.558
577.9735, 1327.523
578.4556, 1327.675
578.9377, 1327.262
579.4199, 1326.151
579.9020, 1324.344
580.3841, 1323.353
580.8662, 1323.276
581.3483, 1323.579
581.8304, 1323.999
582.3126, 1324.402
582.7947, 1324.218
583.2768, 1323.207
583.7589, 1321.997
584.2410, 1321.344
584.7231, 1320.961
585.2053, 1320.288
585.6874, 1318.174
586.1696, 1316.512
586.6517, 1316.745
587.1338, 1318.408
587.6159, 1319.489
588.0980, 1319.428
588.5801, 1318.659
589.0623, 1317.085
589.5444, 1314.490
590.0265, 1312.676
590.5086, 1312.248
590.9907, 1311.847
591.4728, 1310.239
591.9550, 1307.167
592.4371, 1304.802
592.9192, 1303.398
593.4013, 1302.656
593.8834, 1302.591
594.3655, 1303.021
594.8477, 1302.526
595.3298, 1299.902
595.8119, 1297.129
596.2940, 1297.334
596.7761, 1299.776
597.2582, 1301.959
597.7404, 1302.383
598.2225, 1302.186
598.7046, 1302.022
599.1867, 1301.918
599.6688, 1301.904
600.1509, 1301.785
600.6331, 1301.865
601.1152, 1302.355
601.5973, 1303.422
602.0794, 1304.456
602.5615, 1305.266
603.0436, 1306.215
603.5258, 1307.750
604.0079, 1309.961
604.4900, 1312.305
604.9721, 1314.712
605.4542, 1317.189
605.9363, 1319.527
606.4185, 1321.800
606.9006, 1324.756
607.3827, 1329.149
607.8648, 1334.124
608.3469, 1338.113
608.8290, 1341.365
609.3112, 1345.041
609.7933, 1350.322
610.2754, 1355.974
610.7575, 1360.962
611.2396, 1364.908
611.7217, 1369.534
612.2039, 1375.764
612.6860, 1382.470
613.1681, 1388.873
613.6502, 1394.709
614.1323, 1400.618
614.6144, 1407.294
615.0966, 1413.344
615.5787, 1416.104
616.0608, 1414.705
616.5429, 1415.831
617.0250, 1421.977
617.5071, 1430.499
617.9893, 1435.302
618.4714, 1436.720
618.9535, 1437.118
619.4356, 1437.299
619.9177, 1437.462
620.3998, 1437.613
620.8820, 1437.844
621.3641, 1438.855
621.8462, 1442.165
622.3283, 1445.640
622.8104, 1447.643
623.2925, 1447.697
623.7747, 1447.393
624.2568, 1446.402
624.7389, 1445.521
625.2210, 1445.425
625.7031, 1446.567
626.1852, 1447.507
626.6674, 1448.279
627.1495, 1448.672
627.6316, 1448.103
628.1137, 1446.519
628.5958, 1445.366
629.0779, 1445.405
629.5601, 1445.742
630.0422, 1444.563
630.5243, 1442.085
631.0064, 1439.230
631.4885, 1435.886
631.9706, 1432.856
632.4528, 1431.364
632.9349, 1431.271
633.4170, 1430.484
633.8991, 1427.257
634.3812, 1423.703
634.8633, 1421.064
635.3455, 1419.733
635.8276, 1418.602
636.3097, 1417.874
636.7918, 1417.101
637.2739, 1415.843
637.7560, 1413.936
638.2382, 1412.056
638.7203, 1410.062
639.2024, 1408.447
639.6845, 1408.399
640.1666, 1409.652
640.6487, 1410.247
641.1309, 1409.788
641.6130, 1408.052
642.0951, 1404.344
642.5772, 1399.058
643.0594, 1393.481
643.5415, 1387.955
644.0236, 1382.520
644.5057, 1376.915
644.9879, 1371.230
645.4700, 1366.404
645.9521, 1363.940
646.4342, 1361.185
646.9163, 1356.614
647.3984, 1349.652
647.8806, 1344.997
648.3627, 1343.670
648.8448, 1342.748
649.3269, 1339.198
649.8090, 1333.050
650.2911, 1329.760
650.7733, 1330.125
651.2554, 1331.481
651.7375, 1330.350
652.2196, 1327.731
652.7017, 1326.188
653.1838, 1326.999
653.6660, 1327.925
654.1481, 1326.606
654.6302, 1324.272
655.1123, 1323.101
655.5944, 1324.802
656.0765, 1326.685
656.5587, 1328.088
657.0408, 1328.978
657.5229, 1329.378
658.0050, 1328.940
658.4871, 1328.546
658.9692, 1328.599
659.4514, 1329.014
659.9335, 1328.828
660.4156, 1327.993
660.8977, 1326.987
661.3798, 1326.046
661.8619, 1325.230
662.3441, 1324.769
662.8262, 1324.695
663.3083, 1324.567
663.7904, 1324.028
664.2725, 1323.269
664.7546, 1322.421
665.2368, 1321.322
665.7189, 1320.720
666.2010, 1321.429
666.6831, 1322.540
667.1652, 1322.971
667.6473, 1321.878
668.1295, 1321.521
668.6116, 1322.369
669.0937, 1323.826
669.5758, 1324.442
670.0579, 1324.021
670.5400, 1324.729
671.0222, 1327.594
671.5043, 1331.522
671.9864, 1334.391
672.4685, 1336.311
672.9506, 1337.919
673.4327, 1339.793
673.9149, 1341.284
674.3970, 1341.243
674.8791, 1339.967
675.3612, 1339.695
675.8433, 1341.595
676.3254, 1344.494
676.8076, 1348.146
677.2897, 1352.804
677.7718, 1356.344
678.2539, 1358.401
678.7360, 1359.862
679.2181, 1360.775
679.7003, 1360.857
680.1824, 1364.249
680.6645, 1371.836
681.1466, 1379.501
681.6287, 1381.863
682.1108, 1380.698
682.5930, 1380.874
683.0751, 1383.520
683.5572, 1387.057
684.0393, 1390.429
684.5214, 1393.758
685.0035, 1397.249
685.4857, 1401.017
685.9678, 1404.846
686.4499, 1408.962
686.9320, 1413.002
687.4141, 1416.182
687.8962, 1417.679
688.3784, 1419.938
688.8605, 1424.013
689.3426, 1429.034
689.8247, 1431.579
690.3068, 1431.580
690.7889, 1431.832
691.2711, 1433.475
691.7532, 1436.400
692.2353, 1441.421
692.7174, 1447.986
693.1995, 1452.888
693.6816, 1452.711
694.1638, 1451.197
694.6459, 1450.942
695.1280, 1452.191
695.6101, 1454.126
696.0922, 1456.539
696.5743, 1459.660
697.0565, 1464.024
697.5386, 1470.622
698.0207, 1474.242
698.5028, 1474.008
698.9849, 1472.702
699.4670, 1472.984
699.9492, 1474.675
700.4313, 1475.834
700.9135, 1476.158
701.3956, 1476.303
701.8777, 1476.700
702.3598, 1477.439
702.8419, 1478.747
703.3240, 1480.905
703.8062, 1483.115
704.2883, 1485.428
704.7704, 1487.364
705.2525, 1488.192
705.7346, 1486.548
706.2167, 1485.445
706.6989, 1485.830
707.1810, 1486.663
707.6631, 1485.350
708.1452, 1481.566
708.6273, 1477.870
709.1094, 1474.987
709.5916, 1472.773
710.0737, 1471.238
710.5558, 1470.211
711.0379, 1468.684
711.5200, 1465.891
712.0021, 1462.522
712.4843, 1458.534
712.9664, 1454.225
713.4485, 1451.127
713.9306, 1451.686
714.4127, 1451.873
714.8948, 1449.420
715.3770, 1444.251
715.8591, 1440.125
716.3412, 1437.583
716.8233, 1435.029
717.3054, 1431.526
717.7875, 1427.096
718.2697, 1422.936
718.7518, 1419.040
719.2339, 1415.198
719.7160, 1410.835
720.1981, 1406.567
720.6802, 1403.515
721.1624, 1401.942
721.6445, 1400.454
722.1266, 1398.024
722.6087, 1395.454
723.0908, 1393.492
723.5729, 1392.702
724.0551, 1391.636
724.5372, 1390.047
725.0193, 1388.346
725.5014, 1387.193
725.9835, 1386.882
726.4656, 1385.095
726.9478, 1381.167
727.4299, 1376.783
727.9120, 1374.746
728.3941, 1374.287
728.8762, 1372.791
729.3583, 1368.578
729.8405, 1365.179
730.3226, 1366.677
730.8047, 1370.745
731.2868, 1373.497
731.7689, 1372.834
732.2510, 1371.823
732.7332, 1370.462
733.2153, 1369.336
733.6974, 1369.862
734.1795, 1372.787
734.6616, 1375.222
735.1437, 1376.032
735.6259, 1376.252
736.1080, 1379.427
736.5901, 1385.082
737.0722, 1389.016
737.5543, 1387.659
738.0364, 1384.710
738.5186, 1384.517
739.0007, 1386.463
739.4828, 1388.351
739.9649, 1388.898
740.4470, 1389.501
740.9291, 1391.063
741.4113, 1393.477
741.8934, 1394.906
742.3755, 1394.535
742.8576, 1394.674
743.3397, 1396.309
743.8218, 1399.318
744.3040, 1403.138
744.7861, 1407.795
745.2682, 1411.396
745.7503, 1412.160
746.2324, 1411.233
746.7145, 1409.923
747.1967, 1408.379
747.6788, 1407.853
748.1609, 1409.616
748.6430, 1412.177
749.1251, 1414.999
749.6072, 1418.418
750.0894, 1419.641
750.5715, 1416.936
751.0536, 1414.264
751.5357, 1414.688
752.0178, 1418.677
752.4999, 1419.556
752.9821, 1416.880
753.4642, 1414.055
753.9463, 1414.942
754.4284, 1417.863
754.9105, 1419.219
755.3926, 1418.391
755.8748, 1417.714
756.3569, 1419.160
756.8390, 1421.134
757.3211, 1422.347
757.8032, 1422.970
758.2853, 1421.606
758.7675, 1416.094
759.2496, 1410.735
759.7318, 1410.053
760.2139, 1414.931
760.6960, 1417.746
761.1781, 1417.714
761.6602, 1416.190
762.1423, 1414.039
762.6245, 1411.759
763.1066, 1410.753
763.5887, 1411.724
764.0708, 1412.680
764.5529, 1411.928
765.0350, 1410.497
765.5172, 1409.605
765.9993, 1410.474
766.4814, 1410.501
766.9635, 1408.636
767.4456, 1406.533
767.9277, 1406.590
768.4099, 1409.182
768.8920, 1411.297
769.3741, 1412.372
769.8562, 1412.994
770.3383, 1414.342
770.8204, 1415.971
771.3026, 1416.480
771.7847, 1414.479
772.2668, 1413.089
772.7489, 1415.557
773.2310, 1419.766
773.7131, 1422.357
774.1953, 1420.622
774.6774, 1419.883
775.1595, 1420.839
775.6416, 1423.034
776.1237, 1425.975
776.6058, 1429.889
777.0880, 1432.664
777.5701, 1433.417
778.0522, 1433.421
778.5343, 1434.867
779.0164, 1437.327
779.4985, 1439.555
779.9807, 1440.096
780.4628, 1441.345
780.9449, 1445.477
781.4270, 1451.269
781.9091, 1456.278
782.3912, 1460.133
782.8734, 1462.780
783.3555, 1463.215
783.8376, 1462.918
784.3197, 1466.293
784.8018, 1473.834
785.2839, 1479.438
785.7661, 1480.666
786.2482, 1479.764
786.7303, 1479.565
787.2124, 1480.268
787.6945, 1482.418
788.1766, 1488.311
788.6588, 1493.663
789.1409, 1495.689
789.6230, 1495.505
790.1051, 1496.359
790.5872, 1498.316
791.0693, 1501.806
791.5515, 1507.591
792.0336, 1514.613
792.5157, 1519.285
792.9978, 1521.599
793.4799, 1524.627
793.9620, 1530.130
794.4442, 1536.272
794.9263, 1540.064
795.4084, 1542.284
795.8905, 1545.152
796.3726, 1550.014
796.8547, 1555.321
797.3369, 1560.207
797.8190, 1565.014
798.3011, 1570.981
798.7832, 1578.606
799.2653, 1586.555
799.7474, 1594.828
800.2296, 1602.960
800.7117, 1609.071
801.1938, 1613.416
801.6759, 1618.870
802.1580, 1627.271
802.6401, 1636.713
803.1223, 1644.958
803.6044, 1652.455
804.0865, 1660.204
804.5686, 1668.803
805.0507, 1677.583
805.5328, 1686.737
806.0150, 1695.979
806.4971, 1704.235
806.9792, 1710.603
807.4613, 1719.115
807.9434, 1731.602
808.4255, 1746.111
808.9077, 1758.480
809.3898, 1769.068
809.8719, 1779.542
810.3540, 1790.609
810.8361, 1801.823
811.3182, 1811.960
811.8004, 1821.947
812.2825, 1834.230
812.7646, 1853.303
813.2467, 1869.916
813.7288, 1881.924
814.2109, 1890.652
814.6931, 1899.087
815.1752, 1907.326
815.6573, 1915.239
816.1394, 1922.918
816.6215, 1930.224
817.1037, 1937.031
817.5858, 1943.247
818.0679, 1948.795
818.5500, 1953.906
819.0322, 1958.045
819.5143, 1961.244
819.9964, 1963.161
820.4785, 1962.865
820.9606, 1959.699
821.4427, 1955.629
821.9249, 1950.901
822.4070, 1945.405
822.8891, 1939.031
823.3712, 1931.777
823.8533, 1923.610
824.3354, 1914.482
824.8176, 1904.436
825.2997, 1892.668
825.7818, 1880.285
826.2639, 1869.419
826.7460, 1863.964
827.2281, 1856.127
827.7103, 1840.741
828.1924, 1823.480
828.6745, 1811.956
829.1566, 1807.700
829.6387, 1803.683
830.1208, 1799.425
830.6030, 1793.829
831.0851, 1783.926
831.5672, 1771.460
832.0493, 1761.366
832.5314, 1755.629
833.0135, 1750.963
833.4957, 1746.125
833.9778, 1740.750
834.4599, 1734.312
834.9420, 1726.110
835.4241, 1717.765
835.9063, 1708.788
836.3884, 1700.336
836.8705, 1694.545
837.3526, 1691.314
837.8347, 1686.245
838.3168, 1678.540
838.7990, 1670.032
839.2811, 1662.212
839.7632, 1654.836
840.2453, 1647.817
840.7274, 1641.475
841.2095, 1633.968
841.6917, 1623.508
842.1738, 1612.410
842.6559, 1602.334
843.1380, 1593.402
843.6201, 1585.157
844.1022, 1577.777
844.5844, 1570.479
845.0665, 1561.961
845.5486, 1552.984
846.0307, 1545.992
846.5128, 1541.209
846.9949, 1536.927
847.4771, 1532.253
847.9592, 1527.459
848.4413, 1522.534
848.9234, 1517.257
849.4055, 1513.294
849.8876, 1511.084
850.3698, 1509.550
850.8519, 1508.164
851.3340, 1506.915
851.8161, 1505.799
852.2982, 1504.803
852.7803, 1504.151
853.2625, 1504.405
853.7446, 1504.809
854.2267, 1504.430
854.7088, 1503.304
855.1909, 1502.348
855.6730, 1501.834
856.1552, 1501.610
856.6373, 1501.512
857.1194, 1501.630
857.6015, 1502.892
858.0836, 1505.573
858.5657, 1507.497
859.0479, 1507.097
859.5300, 1505.697
860.0121, 1505.685
860.4942, 1506.884
860.9763, 1508.683
861.4584, 1511.590
861.9406, 1514.164
862.4227, 1515.791
862.9048, 1516.489
863.3869, 1516.499
863.8690, 1515.633
864.3511, 1514.431
864.8333, 1512.764
865.3154, 1511.107
865.7975, 1510.537
866.2796, 1510.856
866.7617, 1511.336
867.2438, 1512.274
867.7260, 1512.322
868.2081, 1509.881
868.6902, 1506.029
869.1723, 1502.428
869.6544, 1499.143
870.1365, 1496.550
870.6187, 1495.181
871.1008, 1493.941
871.5829, 1491.378
872.0650, 1487.538
872.5471, 1483.056
873.0292, 1477.954
873.5114, 1472.667
873.9935, 1467.605
874.4756, 1462.650
874.9577, 1457.687
875.4399, 1452.694
875.9220, 1447.536
876.4041, 1442.173
876.8862, 1436.682
877.3683, 1431.007
877.8505, 1425.023
878.3326, 1419.757
878.8147, 1415.301
879.2968, 1410.906
879.7789, 1405.831
880.2610, 1400.497
880.7432, 1395.813
881.2253, 1391.775
881.7074, 1386.873
882.1895, 1379.280
882.6716, 1371.661
883.1537, 1365.853
883.6359, 1361.739
884.1180, 1355.827
884.6001, 1347.511
885.0822, 1339.891
885.5643, 1334.851
886.0464, 1331.324
886.5286, 1326.729
887.0107, 1321.321
887.4928, 1316.094
887.9749, 1311.915
888.4570, 1307.844
888.9391, 1303.094
889.4213, 1298.080
889.9034, 1294.147
890.3855, 1291.763
890.8676, 1289.516
891.3497, 1287.253
891.8318, 1284.785
892.3140, 1281.820
892.7961, 1278.278
893.2782, 1273.677
893.7603, 1267.435
894.2424, 1261.233
894.7245, 1255.553
895.2067, 1251.051
895.6888, 1248.556
896.1709, 1251.148
896.6530, 1250.841
897.1351, 1246.691
897.6172, 1241.125
898.0994, 1236.304
898.5815, 1232.240
899.0636, 1229.513
899.5457, 1228.299
900.0278, 1226.936
900.5099, 1224.388
900.9921, 1220.839
901.4742, 1215.886
901.9563, 1209.172
902.4384, 1204.270
902.9205, 1202.691
903.4026, 1201.397
903.8848, 1199.006
904.3669, 1195.633
904.8490, 1191.805
905.3311, 1187.568
905.8132, 1183.759
906.2953, 1180.978
906.7775, 1178.757
907.2596, 1176.939
907.7417, 1175.296
908.2238, 1173.033
908.7059, 1170.291
909.1880, 1166.292
909.6702, 1160.013
910.1523, 1152.942
910.6344, 1148.970
911.1165, 1148.034
911.5986, 1147.005
912.0807, 1145.146
912.5629, 1142.598
913.0450, 1138.898
913.5271, 1134.838
914.0092, 1131.549
914.4913, 1129.635
914.9734, 1128.146
915.4556, 1127.551
915.9377, 1126.724
916.4198, 1124.452
916.9019, 1120.624
917.3840, 1117.373
917.8661, 1114.860
918.3483, 1112.285
918.8304, 1108.013
919.3125, 1103.726
919.7946, 1102.117
920.2767, 1103.495
920.7589, 1103.647
921.2410, 1100.038
921.7231, 1096.247
922.2052, 1093.676
922.6873, 1092.176
923.1694, 1090.522
923.6516, 1088.721
924.1337, 1086.750
924.6158, 1084.512
925.0979, 1082.151
925.5800, 1079.597
926.0621, 1077.101
926.5443, 1075.279
927.0264, 1075.366
927.5085, 1074.834
927.9906, 1072.832
928.4727, 1070.196
928.9548, 1068.301
929.4370, 1067.178
929.9191, 1066.254
930.4012, 1065.453
930.8833, 1064.803
931.3654, 1064.660
931.8475, 1064.549
932.3297, 1063.558
932.8118, 1060.960
933.2939, 1059.564
933.7761, 1061.145
934.2582, 1062.967
934.7403, 1063.522
935.2224, 1062.787
935.7045, 1061.060
936.1866, 1058.267
936.6688, 1056.017
937.1509, 1055.744
937.6330, 1056.420
938.1151, 1057.155
938.5972, 1057.863
939.0793, 1058.243
939.5615, 1057.224
940.0436, 1057.220
940.5257, 1059.401
941.0078, 1062.677
941.4899, 1063.812
941.9720, 1062.896
942.4542, 1062.140
942.9363, 1062.023
943.4184, 1062.638
943.9005, 1063.938
944.3826, 1066.058
944.8647, 1069.421
945.3469, 1075.971
945.8290, 1079.894
946.3111, 1079.039
946.7932, 1077.715
947.2753, 1080.065
947.7574, 1085.883
948.2396, 1089.926
948.7217, 1092.026
949.2038, 1094.156
949.6859, 1097.881
950.1680, 1102.337
950.6501, 1106.788
951.1323, 1111.213
951.6144, 1116.020
952.0965, 1121.050
952.5786, 1126.701
953.0607, 1133.050
953.5428, 1140.125
954.0250, 1147.997
954.5071, 1156.662
954.9892, 1166.050
955.4713, 1175.330
955.9534, 1186.482
956.4355, 1201.671
956.9177, 1219.353
957.3998, 1237.500
957.8819, 1254.528
958.3640, 1274.530
958.8461, 1297.860
959.3282, 1323.855
959.8104, 1352.053
960.2925, 1381.967
960.7746, 1410.495
961.2567, 1437.537
961.7388, 1466.571
962.2209, 1500.126
962.7031, 1536.717
963.1852, 1574.721
963.6673, 1614.143
964.1494, 1658.308
964.6315, 1706.978
965.1136, 1759.639
965.5958, 1815.761
966.0779, 1876.286
966.5600, 1942.438
967.0421, 2015.182
967.5242, 2095.353
968.0063, 2188.175
968.4885, 2282.854
968.9706, 2381.919
969.4527, 2477.625
969.9348, 2564.817
970.4169, 2646.380
970.8990, 2704.836
971.3812, 2740.461
971.8633, 2745.603
972.3454, 2706.564
972.8275, 2634.868
973.3096, 2540.165
973.7917, 2424.338
974.2739, 2309.190
974.7560, 2197.132
975.2381, 2093.678
975.7202, 1999.001
976.2023, 1913.984
976.6844, 1841.926
977.1666, 1782.227
977.6487, 1731.067
978.1308, 1688.018
978.6129, 1651.981
979.0950, 1621.817
979.5771, 1597.726
980.0593, 1579.765
980.5414, 1570.829
981.0235, 1564.284
981.5056, 1559.647
981.9877, 1557.361
982.4698, 1557.196
982.9520, 1559.511
983.4341, 1566.714
983.9162, 1578.940
984.3983, 1595.215
984.8804, 1613.938
985.3625, 1637.276
985.8447, 1666.755
986.3268, 1702.750
986.8089, 1742.454
987.2910, 1784.527
987.7731, 1833.671
988.2552, 1890.518
988.7374, 1956.814
989.2195, 2033.529
989.7016, 2121.913
990.1837, 2224.619
990.6658, 2342.901
991.1479, 2474.957
991.6301, 2622.573
992.1122, 2782.754
992.5944, 2952.899
993.0765, 3130.109
993.5586, 3316.750
994.0407, 3512.681
994.5228, 3719.206
995.0049, 3935.559
995.4871, 4163.922
995.9692, 4407.769
996.4513, 4669.354
996.9334, 4954.031
997.4155, 5254.614
997.8976, 5590.481
998.3798, 5966.921
998.8619, 6379.367
999.3440, 6824.378
999.8261, 7304.567
1000.308, 7828.857
1000.790, 8407.728
1001.272, 9002.701
1001.755, 9623.448
1002.237, 10227.38
1002.719, 10774.38
1003.201, 11299.15
1003.683, 11646.95
1004.165, 11829.83
1004.647, 11812.58
1005.129, 11555.73
1005.612, 11088.21
1006.094, 10435.18
1006.576, 9629.547
1007.058, 8795.736
1007.540, 7940.237
1008.022, 7145.394
1008.504, 6428.415
1008.986, 5790.133
1009.468, 5228.586
1009.951, 4748.732
1010.433, 4331.502
1010.915, 3972.875
1011.397, 3661.977
1011.879, 3398.278
1012.361, 3171.558
1012.843, 2970.063
1013.325, 2794.292
1013.807, 2636.683
1014.290, 2498.587
1014.772, 2373.149
1015.254, 2259.004
1015.736, 2156.462
1016.218, 2063.757
1016.700, 1980.399
1017.182, 1903.861
1017.664, 1833.329
1018.147, 1767.551
1018.629, 1705.047
1019.111, 1647.220
1019.593, 1595.230
1020.075, 1550.478
1020.557, 1506.690
1021.039, 1463.314
1021.521, 1422.058
1022.003, 1384.553
1022.486, 1350.149
1022.968, 1318.474
1023.450, 1289.269
1023.932, 1261.863
1024.414, 1236.111
1024.896, 1212.115
1025.378, 1189.756
1025.860, 1169.116
1026.343, 1150.802
1026.825, 1134.921
1027.307, 1118.879
1027.789, 1101.861
1028.271, 1084.963
1028.753, 1068.960
1029.235, 1053.664
1029.717, 1038.915
1030.199, 1024.126
1030.682, 1011.830
1031.164, 1002.687
1031.646, 993.9086
1032.128, 983.2645
1032.610, 971.7472
1033.092, 962.3766
1033.574, 954.5637
1034.056, 946.4498
1034.539, 935.8838
1035.021, 926.5123
1035.503, 919.8239
1035.985, 914.7136
1036.467, 909.9678
1036.949, 905.6466
1037.431, 900.6838
1037.913, 894.9866
1038.396, 888.6482
1038.878, 880.8348
1039.360, 873.0209
1039.842, 866.4550
1040.324, 861.3137
1040.806, 856.9473
1041.288, 853.6175
1041.770, 850.1671
1042.252, 846.1185
1042.734, 841.7743
1043.217, 837.6346
1043.699, 833.6461
1044.181, 829.4824
1044.663, 824.3369
1045.145, 820.5795
1045.627, 821.2239
1046.109, 821.8019
1046.591, 818.4789
1047.074, 811.0065
1047.556, 806.5862
1048.038, 805.1952
1048.520, 803.7546
1049.002, 799.4684
1049.484, 794.9411
1049.966, 792.7868
1050.448, 792.2049
1050.931, 790.8206
1051.413, 788.2487
1051.895, 785.1310
1052.377, 781.3249
1052.859, 777.5079
1053.341, 774.1925
1053.823, 771.4903
1054.305, 770.0612
1054.787, 769.9837
1055.270, 768.9476
1055.752, 764.5407
1056.234, 760.4437
1056.716, 758.3434
1057.198, 757.7401
1057.680, 756.8431
1058.162, 755.6628
1058.644, 754.3624
1059.126, 752.9018
1059.609, 751.5551
1060.091, 751.0959
1060.573, 750.6214
1061.055, 748.9885
1061.537, 745.7460
1062.019, 742.6907
1062.501, 739.6793
1062.983, 737.4162
1063.466, 736.8311
1063.948, 737.0975
1064.430, 737.1669
1064.912, 736.7935
1065.394, 735.2181
1065.876, 730.4506
1066.358, 726.8167
1066.840, 725.2611
1067.323, 724.7881
1067.805, 724.4474
1068.287, 724.1454
1068.769, 723.2099
1069.251, 721.5772
1069.733, 719.7065
1070.215, 717.5989
1070.697, 715.6355
1071.179, 714.2684
1071.661, 713.3007
1072.144, 711.9502
1072.626, 710.1603
1073.108, 708.4802
1073.590, 707.1614
1074.072, 705.7338
1074.554, 703.2078
1075.036, 700.4432
1075.518, 698.8212
1076.001, 699.1066
1076.483, 698.0831
1076.965, 695.2792
1077.447, 691.7339
1077.929, 687.4921
1078.411, 683.2157
1078.893, 681.0292
1079.375, 680.4877
1079.858, 680.1617
1080.340, 679.4200
1080.822, 678.8220
1081.304, 679.1319
1081.786, 679.2012
1082.268, 677.9907
1082.750, 675.4943
1083.232, 671.7523
1083.714, 666.7651
1084.197, 662.8486
1084.679, 662.7527
1085.161, 663.3550
1085.643, 662.1117
1086.125, 659.6383
1086.607, 658.2410
1087.089, 658.5138
1087.571, 657.8492
1088.054, 655.6334
1088.536, 653.3098
1089.018, 653.0386
1089.500, 653.5084
1089.982, 652.7016
1090.464, 650.3712
1090.946, 648.2213
1091.428, 646.7510
1091.911, 645.2004
1092.393, 643.2629
1092.875, 641.1640
1093.357, 639.2891
1093.839, 637.7200
1094.321, 636.7276
1094.803, 636.5517
1095.285, 636.4335
1095.767, 636.0751
1096.250, 635.6193
1096.732, 635.2772
1097.214, 635.0163
1097.696, 633.8033
1098.178, 631.6895
1098.660, 629.8135
1099.142, 629.0100
1099.624, 628.3515
1100.106, 626.8036
1100.589, 625.0773
1101.071, 624.4052
1101.553, 625.4155
1102.035, 625.4210
1102.517, 624.2689
1102.999, 622.6658
1103.481, 620.7512
1103.963, 619.0377
1104.446, 618.1815
1104.928, 618.1551
1105.410, 618.8105
1105.892, 621.2938
1106.374, 622.2349
1106.856, 620.5920
1107.338, 618.3927
1107.820, 618.6847
1108.302, 620.4951
1108.785, 621.5027
1109.267, 621.4337
1109.749, 621.1252
1110.231, 620.9371
1110.713, 620.5637
1111.195, 619.8490
1111.677, 618.9185
1112.159, 617.8866
1112.641, 616.8763
1113.124, 616.7487
1113.606, 617.9071
1114.088, 619.1837
1114.570, 619.9953
1115.052, 620.4373
1115.534, 620.3885
1116.016, 619.9104
1116.498, 620.3626
1116.981, 621.7860
1117.463, 622.9036
1117.945, 622.6835
1118.427, 622.6696
1118.909, 625.3403
1119.391, 628.7920
1119.873, 630.1370
1120.355, 628.2076
1120.838, 626.7629
1121.320, 625.7294
1121.802, 625.4675
1122.284, 626.5402
1122.766, 628.3328
1123.248, 630.3961
1123.730, 632.4162
1124.212, 633.5881
1124.694, 632.4807
1125.177, 632.3466
1125.659, 633.6482
1126.141, 635.5125
1126.623, 637.0087
1127.105, 638.3497
1127.587, 640.2081
1128.069, 642.5421
1128.551, 644.7327
1129.033, 646.8162
1129.516, 648.2041
1129.998, 648.2208
1130.480, 648.0294
1130.962, 650.0092
1131.444, 653.6489
1131.926, 656.4077
1132.408, 657.9153
1132.890, 658.8842
1133.373, 659.0878
1133.855, 659.5795
1134.337, 661.0121
1134.819, 663.1891
1135.301, 665.4537
1135.783, 667.8030
1136.265, 670.6300
1136.747, 674.2850
1137.229, 677.4626
1137.712, 678.1418
1138.194, 678.5049
1138.676, 680.9929
1139.158, 682.6953
1139.640, 684.4517
1140.122, 688.4180
1140.604, 689.6706
1141.086, 693.7423
1141.569, 698.7809
1142.051, 703.3889
1142.533, 707.4323
1143.015, 710.5992
1143.497, 712.1705
1143.979, 715.3823
1144.461, 720.6164
1144.943, 725.8878
1145.426, 729.7750
1145.908, 733.0118
1146.390, 736.4957
1146.872, 740.1729
1147.354, 743.9947
1147.836, 747.3422
1148.318, 751.9230
1148.800, 758.2334
1149.282, 764.6793
1149.765, 769.6346
1150.247, 773.8323
1150.729, 778.8058
1151.211, 784.5726
1151.693, 791.0742
1152.175, 799.0118
1152.657, 806.7137
1153.139, 813.8489
1153.621, 820.7651
1154.104, 827.6073
1154.586, 834.5902
1155.068, 842.6904
1155.550, 851.9313
1156.032, 860.7919
1156.514, 868.0623
1156.996, 875.5165
1157.478, 883.5859
1157.961, 892.2514
1158.443, 901.3938
1158.925, 911.0814
1159.407, 921.9394
1159.889, 933.9905
1160.371, 946.2026
1160.853, 957.4464
1161.335, 969.1982
1161.818, 982.3162
1162.300, 996.4297
1162.782, 1010.834
1163.264, 1025.403
1163.746, 1039.058
1164.228, 1051.382
1164.710, 1064.330
1165.192, 1079.460
1165.674, 1095.727
1166.156, 1112.475
1166.639, 1129.606
1167.121, 1146.339
1167.603, 1162.623
1168.085, 1179.180
1168.567, 1196.312
1169.049, 1213.919
1169.531, 1232.478
1170.013, 1251.062
1170.496, 1268.848
1170.978, 1285.724
1171.460, 1303.403
1171.942, 1321.998
1172.424, 1340.490
1172.906, 1358.052
1173.388, 1375.639
1173.870, 1395.531
1174.353, 1415.102
1174.835, 1430.031
1175.317, 1439.108
1175.799, 1451.619
1176.281, 1468.325
1176.763, 1483.216
1177.245, 1492.482
1177.727, 1498.924
1178.209, 1505.535
1178.692, 1511.668
1179.174, 1516.224
1179.656, 1519.104
1180.138, 1520.486
1180.620, 1520.397
1181.102, 1518.643
1181.584, 1515.147
1182.066, 1509.845
1182.548, 1502.921
1183.031, 1493.017
1183.513, 1482.536
1183.995, 1467.464
1184.477, 1451.141
1184.959, 1433.313
1185.441, 1414.990
1185.923, 1397.945
1186.405, 1380.546
1186.888, 1360.084
1187.370, 1337.214
1187.852, 1315.074
1188.334, 1295.107
1188.816, 1273.780
1189.298, 1250.703
1189.780, 1227.119
1190.262, 1204.160
1190.745, 1181.701
1191.227, 1159.600
1191.709, 1137.914
1192.191, 1116.454
1192.673, 1095.476
1193.155, 1074.167
1193.637, 1051.926
1194.119, 1030.180
1194.601, 1010.147
1195.084, 991.6433
1195.566, 974.8701
1196.048, 959.5651
1196.530, 943.8135
1197.012, 926.6038
1197.494, 909.8926
1197.976, 893.9728
1198.458, 878.7944
1198.941, 864.9185
1199.423, 851.5970
1199.905, 837.5660
1200.387, 822.6745
1200.869, 808.9484
1201.351, 797.0034
1201.833, 786.0073
1202.315, 775.9882
1202.797, 766.3687
1203.280, 756.3793
1203.762, 746.2350
1204.244, 736.0843
1204.726, 726.0297
1205.208, 716.3419
1205.690, 706.6344
1206.172, 698.1992
1206.654, 691.7830
1207.136, 685.9965
1207.619, 678.1134
1208.101, 669.1962
1208.583, 660.8479
1209.065, 653.2522
1209.547, 647.0097
1210.029, 642.8298
1210.511, 638.2438
1210.993, 632.0622
1211.476, 625.3484
1211.958, 620.0091
1212.440, 615.4034
1212.922, 610.5731
1213.404, 605.3242
1213.886, 599.4811
1214.368, 592.5688
1214.850, 586.2623
1215.333, 581.3611
1215.815, 577.3333
1216.297, 573.4516
1216.779, 569.5906
1217.261, 565.4706
1217.743, 560.8914
1218.225, 556.4142
1218.707, 551.9402
1219.189, 548.1182
1219.672, 545.6537
1220.154, 543.4416
1220.636, 539.0768
1221.118, 533.5779
1221.600, 528.6591
1222.082, 524.6899
1222.564, 521.9234
1223.046, 520.9521
1223.528, 519.4135
1224.011, 515.8228
1224.493, 511.2517
1224.975, 507.0042
1225.457, 503.2841
1225.939, 500.4106
1226.421, 498.7462
1226.903, 497.4341
1227.385, 496.7726
1227.868, 495.3527
1228.350, 492.1216
1228.832, 487.9641
1229.314, 483.6962
1229.796, 479.6917
1230.278, 476.6358
1230.760, 474.7389
1231.242, 473.8401
1231.724, 474.2308
1232.207, 474.1942
1232.689, 472.3107
1233.171, 469.8699
1233.653, 468.7384
1234.135, 468.1355
1234.617, 466.6327
1235.099, 463.6506
1235.581, 461.1961
1236.063, 459.3308
1236.546, 457.7551
1237.028, 456.8359
1237.510, 455.5784
1237.992, 451.9342
1238.474, 451.2239
1238.956, 449.5903
1239.438, 447.4475
1239.920, 446.9621
1240.403, 444.0947
1240.885, 441.6653
1241.367, 442.0951
1241.849, 443.1031
1242.331, 442.8594
1242.813, 441.8256
1243.295, 440.5759
1243.777, 438.8773
1244.260, 438.6310
1244.742, 439.8311
1245.224, 440.8228
1245.706, 440.3244
1246.188, 439.5513
1246.670, 439.3899
1247.152, 439.4110
1247.634, 438.9946
1248.116, 438.0915
1248.599, 437.4591
1249.081, 437.0995
1249.563, 436.8852
1250.045, 436.7369
1250.527, 436.7266
1251.009, 437.0923
1251.491, 437.4634
1251.973, 437.2741
1252.455, 436.5780
1252.938, 437.0600
1253.420, 438.5651
1253.902, 439.7861
1254.384, 439.7248
1254.866, 439.6059
1255.348, 439.7467
1255.830, 440.1627
1256.313, 441.0696
1256.795, 442.3210
1257.277, 442.7759
1257.759, 442.6263
1258.241, 442.8565
1258.723, 444.4052
1259.205, 445.6673
1259.687, 446.0120
1260.169, 446.4743
1260.651, 448.3828
1261.134, 451.0496
1261.616, 452.1178
1262.098, 451.9393
1262.580, 451.8659
1263.062, 452.5994
1263.544, 453.1439
1264.026, 453.3861
1264.508, 453.4913
1264.991, 453.3474
1265.473, 453.2973
1265.955, 454.1610
1266.437, 455.6678
1266.919, 457.0911
1267.401, 458.2907
1267.883, 459.3564
1268.365, 460.3376
1268.848, 461.0490
1269.330, 461.0037
1269.812, 460.8719
1270.294, 461.7060
1270.776, 463.0837
1271.258, 464.0255
1271.740, 464.2787
1272.222, 464.7098
1272.704, 465.3593
1273.187, 465.8286
1273.669, 465.9077
1274.151, 465.6144
1274.633, 464.4766
1275.115, 463.2080
1275.597, 463.0197
1276.079, 464.1817
1276.561, 464.5287
1277.043, 464.0799
1277.526, 463.6753
1278.008, 464.2699
1278.490, 464.5668
1278.972, 463.2440
1279.454, 461.6646
1279.936, 461.3600
1280.418, 462.2735
1280.900, 462.6233
1281.383, 462.4030
1281.865, 461.6131
1282.347, 459.7747
1282.829, 457.9964
1283.311, 456.3506
1283.793, 455.2188
1284.275, 454.9868
1284.757, 455.5156
1285.240, 456.8099
1285.722, 458.3996
1286.204, 458.6810
1286.686, 455.9517
1287.168, 453.7509
1287.650, 452.2368
1288.132, 451.8599
1288.614, 453.6872
1289.096, 456.3410
1289.578, 456.7791
1290.061, 455.8976
1290.543, 455.6031
1291.025, 457.2179
1291.507, 456.9155
1291.989, 454.1295
1292.471, 452.0534
1292.953, 452.8130
1293.435, 454.8387
1293.918, 456.8250
1294.400, 458.5760
1294.882, 459.7646
1295.364, 460.3592
1295.846, 460.7754
1296.328, 461.0114
1296.810, 461.8375
1297.292, 464.0773
1297.775, 466.1111
1298.257, 466.2941
1298.739, 466.0877
1299.221, 466.8321
1299.703, 468.4405
1300.185, 470.1659
1300.667, 471.9974
1301.149, 473.8599
1301.631, 475.7393
1302.114, 477.3145
1302.596, 479.0027
##END=



