##NAMES=Zircon
##RRUFFID=R050203
##IDEAL CHEMISTRY=Zr^4+^SiO_4_
##LOCALITY=Eastern Thailand
##OWNER=RRUFF
##SOURCE=Eric Van Valkenburg
##DESCRIPTION=Dark red water-worn single crystal
##STATUS=The identification of this mineral has been confirmed by X-ray diffraction and chemical analysis
##URL=rruff.info/R050203
##MEASURED CHEMISTRY=(Zr_0.99_Hf_0.01_)_Î£=1_Si_1.00_O_4_
93.77539, 5.545409
94.25751, 5.666855
94.73962, 5.535199
95.22174, 5.230331
95.70386, 5.041973
96.18597, 5.135320
96.66809, 5.435571
97.15021, 5.689134
97.63232, 5.885947
98.11444, 6.084355
98.59656, 6.354259
99.07867, 6.696915
99.56079, 7.094928
100.0429, 7.569817
100.5250, 8.121458
101.0071, 8.591443
101.4893, 8.933870
101.9714, 9.231414
102.4535, 9.675890
102.9356, 10.31096
103.4177, 10.97977
103.8998, 11.55542
104.3820, 11.95521
104.8641, 12.55856
105.3462, 13.49787
105.8283, 14.68162
106.3104, 15.65383
106.7925, 16.35233
107.2747, 16.89696
107.7568, 17.35365
108.2389, 17.66278
108.7210, 17.97811
109.2031, 18.33095
109.6852, 18.72871
110.1674, 19.07771
110.6495, 19.12680
111.1316, 19.24772
111.6137, 19.75794
112.0958, 20.91280
112.5779, 22.22110
113.0601, 23.66726
113.5422, 25.33084
114.0243, 26.78039
114.5064, 27.83872
114.9885, 28.67846
115.4706, 29.52844
115.9528, 30.38313
116.4349, 31.29810
116.9170, 32.28823
117.3991, 33.38317
117.8812, 34.51847
118.3633, 35.86106
118.8455, 37.22943
119.3276, 38.26334
119.8097, 38.39826
120.2918, 38.39642
120.7739, 38.82774
121.2560, 39.94247
121.7382, 41.23904
122.2203, 42.53968
122.7024, 43.80525
123.1845, 44.90490
123.6666, 45.78273
124.1487, 46.44364
124.6309, 46.87884
125.1130, 46.92840
125.5951, 46.90904
126.0772, 47.09700
126.5593, 47.48872
127.0414, 48.05214
127.5236, 48.80876
128.0057, 49.71650
128.4878, 50.70658
128.9699, 51.74660
129.4520, 52.84938
129.9341, 54.02823
130.4162, 55.28313
130.8984, 56.61452
131.3805, 58.09608
131.8626, 59.68835
132.3447, 61.18649
132.8268, 62.41228
133.3089, 63.46496
133.7911, 64.58792
134.2732, 65.61070
134.7553, 66.51462
135.2374, 67.40649
135.7195, 68.29179
136.2016, 69.15866
136.6838, 69.99400
137.1659, 70.79611
137.6480, 71.62817
138.1301, 72.50369
138.6122, 73.40012
139.0943, 74.34427
139.5765, 75.39257
140.0586, 76.27509
140.5407, 76.75461
141.0228, 76.67613
141.5049, 77.06319
141.9870, 78.11852
142.4692, 79.56780
142.9513, 80.50710
143.4334, 80.55598
143.9155, 80.83614
144.3976, 82.12476
144.8797, 85.16745
145.3619, 87.33717
145.8440, 88.15954
146.3261, 87.92080
146.8082, 88.04604
147.2903, 88.91699
147.7724, 89.73928
148.2546, 90.02554
148.7367, 89.45666
149.2188, 88.83146
149.7009, 88.20652
150.1830, 87.58336
150.6651, 86.97740
151.1473, 86.30306
151.6294, 85.70249
152.1115, 85.28391
152.5936, 85.31927
153.0757, 85.23935
153.5578, 84.93185
154.0400, 84.38438
154.5221, 83.88770
155.0042, 83.34844
155.4863, 82.90921
155.9684, 82.69099
156.4505, 83.17886
156.9327, 83.42768
157.4148, 83.02926
157.8969, 81.85827
158.3790, 81.03667
158.8611, 81.01397
159.3432, 81.36195
159.8254, 81.60369
160.3075, 81.47307
160.7896, 81.34547
161.2717, 81.44286
161.7538, 81.86375
162.2359, 82.05714
162.7181, 81.65462
163.2002, 80.95330
163.6823, 80.36475
164.1644, 80.04482
164.6465, 79.86965
165.1286, 79.79403
165.6108, 79.83203
166.0929, 79.88548
166.5750, 79.90269
167.0571, 79.90050
167.5392, 79.91012
168.0213, 79.83578
168.5035, 79.84016
168.9856, 80.15662
169.4677, 81.00307
169.9498, 81.59484
170.4319, 81.13045
170.9140, 79.98283
171.3962, 79.03140
171.8783, 78.76583
172.3604, 78.91683
172.8425, 79.28111
173.3246, 79.94336
173.8067, 80.53465
174.2889, 80.63410
174.7710, 80.37016
175.2531, 80.14771
175.7352, 80.19634
176.2173, 80.44101
176.6994, 80.78364
177.1816, 81.20786
177.6637, 81.72321
178.1458, 82.31943
178.6279, 83.00996
179.1100, 83.83240
179.5921, 84.35519
180.0743, 85.07951
180.5564, 86.92570
181.0385, 90.04785
181.5206, 94.44164
182.0027, 100.0259
182.4848, 106.8086
182.9670, 114.8634
183.4491, 126.2640
183.9312, 139.2852
184.4133, 148.6651
184.8954, 152.5142
185.3775, 153.0819
185.8597, 153.9532
186.3418, 155.1270
186.8239, 156.7005
187.3060, 158.4937
187.7881, 160.6755
188.2702, 163.9241
188.7523, 168.5310
189.2345, 174.2455
189.7166, 180.7415
190.1987, 188.1146
190.6808, 195.6088
191.1629, 202.0778
191.6451, 207.7803
192.1272, 214.8503
192.6093, 224.1159
193.0914, 235.0488
193.5735, 245.8617
194.0556, 256.5084
194.5378, 268.1672
195.0199, 281.0216
195.5020, 295.1343
195.9841, 312.9201
196.4662, 333.9687
196.9483, 359.1656
197.4305, 390.3418
197.9126, 425.9278
198.3947, 473.9177
198.8768, 538.4479
199.3589, 619.3280
199.8410, 723.8332
200.3232, 851.2194
200.8053, 1002.492
201.2874, 1224.217
201.7695, 1555.888
202.2516, 1835.280
202.7337, 1876.263
203.2159, 1656.245
203.6980, 1377.266
204.1801, 1055.803
204.6622, 705.5149
205.1443, 467.4246
205.6264, 358.3973
206.1086, 320.7564
206.5907, 302.5634
207.0728, 306.7351
207.5549, 315.6889
208.0370, 325.6055
208.5191, 336.5981
209.0013, 350.2769
209.4834, 365.8445
209.9655, 385.5549
210.4476, 411.4862
210.9297, 443.1520
211.4118, 482.1937
211.8940, 529.0524
212.3761, 583.7170
212.8582, 648.3503
213.3403, 728.0229
213.8224, 810.0554
214.3045, 886.1076
214.7867, 967.7393
215.2688, 1009.064
215.7509, 990.8834
216.2330, 913.8719
216.7151, 842.8419
217.1972, 772.7933
217.6794, 715.3138
218.1615, 683.2559
218.6436, 678.3556
219.1257, 693.5651
219.6078, 726.6161
220.0899, 777.5529
220.5721, 849.7645
221.0542, 940.7756
221.5363, 1055.398
222.0184, 1196.698
222.5005, 1366.044
222.9826, 1564.103
223.4648, 1800.047
223.9469, 2077.945
224.4290, 2326.488
224.9111, 2596.138
225.3932, 2781.364
225.8753, 2766.898
226.3575, 2485.395
226.8396, 2143.645
227.3217, 1760.527
227.8038, 1329.408
228.2859, 985.7109
228.7680, 746.2633
229.2502, 574.6149
229.7323, 443.7164
230.2144, 363.7030
230.6965, 301.6584
231.1786, 254.2956
231.6607, 221.5880
232.1429, 194.0612
232.6250, 172.6479
233.1071, 155.3480
233.5892, 140.8714
234.0713, 130.0510
234.5534, 120.4097
235.0356, 111.5303
235.5177, 103.5023
235.9998, 96.97958
236.4819, 92.28539
236.9640, 88.65621
237.4461, 85.53006
237.9283, 83.25280
238.4104, 80.78319
238.8925, 77.82877
239.3746, 74.42416
239.8567, 71.58747
240.3388, 69.45840
240.8210, 67.70290
241.3031, 66.05815
241.7852, 64.44171
242.2673, 63.12309
242.7494, 62.26604
243.2315, 61.81176
243.7137, 61.10308
244.1958, 59.95921
244.6779, 58.77752
245.1600, 57.82475
245.6421, 57.10081
246.1242, 56.62730
246.6064, 56.55302
247.0885, 56.78155
247.5706, 56.60607
248.0527, 55.78263
248.5348, 54.88013
249.0169, 54.27376
249.4990, 54.06243
249.9812, 53.91346
250.4633, 53.79015
250.9454, 53.70749
251.4275, 53.76654
251.9096, 54.10663
252.3917, 54.38526
252.8739, 54.36513
253.3560, 53.85359
253.8381, 53.50454
254.3202, 53.33312
254.8023, 53.35268
255.2844, 53.64938
255.7666, 54.37585
256.2487, 55.12263
256.7308, 55.62337
257.2129, 55.68350
257.6950, 56.07082
258.1772, 57.02167
258.6593, 58.23993
259.1414, 58.86488
259.6235, 58.49203
260.1056, 58.26719
260.5877, 58.77748
261.0699, 60.30592
261.5520, 61.69279
262.0341, 63.04329
262.5162, 64.17749
262.9983, 64.65570
263.4804, 64.20061
263.9626, 63.69707
264.4447, 63.53482
264.9268, 63.82500
265.4089, 63.96278
265.8910, 63.95321
266.3731, 63.79027
266.8553, 63.41311
267.3374, 62.72610
267.8195, 62.09480
268.3016, 61.63029
268.7837, 61.31572
269.2658, 61.29841
269.7480, 61.68340
270.2301, 62.22218
270.7122, 62.56403
271.1943, 62.68494
271.6764, 62.68954
272.1585, 62.56327
272.6407, 62.30499
273.1228, 62.18357
273.6049, 62.23274
274.0870, 62.35464
274.5691, 62.44718
275.0512, 62.51012
275.5334, 62.53474
276.0155, 62.51014
276.4976, 62.44045
276.9797, 62.34722
277.4618, 62.19584
277.9439, 62.11615
278.4261, 62.22635
278.9081, 62.52644
279.3903, 63.02488
279.8724, 63.81226
280.3545, 64.78745
280.8366, 65.41937
281.3187, 65.61015
281.8008, 65.89143
282.2830, 66.78042
282.7651, 68.28779
283.2472, 69.80230
283.7293, 71.20151
284.2114, 72.55598
284.6935, 74.00964
285.1757, 75.56046
285.6578, 77.28278
286.1399, 79.27022
286.6220, 81.50768
287.1041, 83.87083
287.5862, 86.47458
288.0684, 89.01145
288.5505, 90.79906
289.0326, 91.84606
289.5147, 92.46624
289.9968, 92.83316
290.4789, 92.93455
290.9611, 92.69491
291.4432, 92.09730
291.9253, 91.18436
292.4074, 90.04237
292.8895, 88.65650
293.3716, 86.98610
293.8538, 84.71399
294.3359, 82.10803
294.8180, 80.07581
295.3001, 78.73779
295.7822, 77.65919
296.2643, 76.23183
296.7465, 74.57546
297.2286, 73.21183
297.7107, 72.40697
298.1928, 72.03413
298.6749, 71.88217
299.1570, 71.95422
299.6392, 72.14819
300.1213, 72.42164
300.6034, 72.74268
301.0855, 73.00671
301.5676, 73.01250
302.0497, 73.04664
302.5319, 73.61829
303.0140, 74.70238
303.4961, 75.82063
303.9782, 76.53979
304.4603, 77.04540
304.9424, 77.70296
305.4246, 78.69059
305.9067, 79.77235
306.3888, 80.76559
306.8709, 81.64956
307.3530, 82.34750
307.8351, 82.84809
308.3173, 83.10937
308.7994, 83.03629
309.2815, 82.48531
309.7636, 81.85686
310.2457, 81.40246
310.7278, 81.11060
311.2100, 80.96342
311.6921, 80.91561
312.1742, 81.02830
312.6563, 81.40044
313.1384, 82.10818
313.6205, 82.83106
314.1027, 83.31158
314.5848, 83.69363
315.0669, 84.22988
315.5490, 85.21364
316.0311, 86.24794
316.5132, 87.05909
316.9954, 87.61046
317.4775, 88.14425
317.9596, 88.64024
318.4417, 89.21204
318.9238, 89.99631
319.4059, 91.08463
319.8881, 92.34512
320.3702, 93.78531
320.8523, 95.39828
321.3344, 96.94702
321.8165, 98.30878
322.2986, 99.60670
322.7808, 100.9344
323.2629, 102.0373
323.7450, 103.4657
324.2271, 105.6097
324.7092, 108.2727
325.1913, 110.5463
325.6735, 111.7246
326.1556, 112.8971
326.6377, 114.6096
327.1198, 117.0906
327.6019, 119.8482
328.0840, 122.9717
328.5662, 126.3461
329.0483, 129.7684
329.5304, 133.0838
330.0125, 136.5569
330.4946, 140.2750
330.9767, 144.2858
331.4589, 148.3735
331.9410, 151.9441
332.4231, 155.8786
332.9052, 161.3960
333.3873, 168.8549
333.8694, 177.4135
334.3516, 186.6099
334.8337, 196.3836
335.3158, 208.0197
335.7979, 220.5617
336.2800, 235.9621
336.7621, 255.8378
337.2443, 280.8389
337.7264, 309.0780
338.2085, 340.8938
338.6906, 375.7403
339.1727, 412.7780
339.6548, 453.3141
340.1370, 493.1424
340.6191, 529.8584
341.1012, 562.4669
341.5833, 594.5209
342.0654, 625.5535
342.5475, 656.5627
343.0297, 689.2051
343.5118, 723.0262
343.9939, 759.8157
344.4760, 799.7479
344.9581, 842.4471
345.4402, 890.4072
345.9224, 943.0574
346.4045, 1001.653
346.8866, 1065.569
347.3687, 1135.651
347.8508, 1215.207
348.3329, 1303.009
348.8151, 1401.713
349.2972, 1516.042
349.7793, 1645.013
350.2614, 1797.936
350.7435, 1973.272
351.2256, 2176.276
351.7078, 2426.493
352.1899, 2728.857
352.6720, 3079.562
353.1541, 3481.968
353.6362, 3936.878
354.1183, 4427.101
354.6005, 4975.324
355.0826, 5539.626
355.5647, 6095.155
356.0468, 6677.835
356.5289, 7128.797
357.0110, 7364.362
357.4932, 7371.299
357.9753, 7118.438
358.4574, 6442.614
358.9395, 5594.922
359.4216, 4738.442
359.9037, 3877.534
360.3859, 3112.454
360.8680, 2514.902
361.3501, 2047.362
361.8322, 1668.311
362.3143, 1395.310
362.7964, 1178.627
363.2786, 1007.092
363.7607, 878.1075
364.2428, 770.3113
364.7249, 684.8791
365.2070, 614.3004
365.6891, 553.9268
366.1713, 506.3646
366.6534, 464.3830
367.1355, 428.0792
367.6176, 396.7309
368.0997, 368.8306
368.5818, 344.6877
369.0640, 323.5724
369.5461, 305.2321
370.0282, 290.2532
370.5103, 276.5089
370.9924, 264.1418
371.4745, 252.8580
371.9567, 242.2130
372.4388, 231.9931
372.9209, 222.8683
373.4030, 214.8826
373.8851, 208.0065
374.3672, 202.5669
374.8494, 199.1337
375.3315, 196.2814
375.8136, 192.7463
376.2957, 188.0185
376.7778, 184.2474
377.2599, 181.9256
377.7421, 180.6268
378.2242, 178.9473
378.7063, 176.7468
379.1884, 174.7841
379.6705, 173.6420
380.1526, 173.3172
380.6348, 172.7684
381.1169, 171.8890
381.5990, 170.9620
382.0811, 170.2857
382.5632, 169.8761
383.0453, 169.8953
383.5275, 170.3874
384.0096, 171.3661
384.4917, 172.9077
384.9738, 175.0199
385.4559, 177.4951
385.9380, 180.0705
386.4202, 182.8813
386.9023, 186.3079
387.3844, 190.5960
387.8665, 195.3753
388.3486, 200.2728
388.8307, 205.2990
389.3129, 210.4967
389.7950, 215.9251
390.2771, 221.5320
390.7592, 227.3404
391.2413, 233.4628
391.7234, 239.1482
392.2056, 244.5004
392.6877, 248.8892
393.1698, 251.4298
393.6519, 251.0903
394.1340, 249.3904
394.6161, 246.9099
395.0983, 243.6921
395.5804, 240.0224
396.0625, 235.5545
396.5446, 230.9316
397.0267, 226.6216
397.5089, 221.9390
397.9910, 218.5085
398.4731, 217.2356
398.9552, 217.5076
399.4373, 217.4870
399.9194, 216.2927
400.4016, 215.3951
400.8837, 215.2632
401.3658, 215.8806
401.8479, 217.3151
402.3300, 219.8931
402.8121, 223.0830
403.2942, 226.1591
403.7763, 228.5010
404.2585, 231.9312
404.7406, 236.8118
405.2227, 243.1036
405.7048, 250.2306
406.1869, 258.0201
406.6690, 266.8632
407.1512, 276.9454
407.6333, 288.2383
408.1154, 301.1182
408.5975, 315.9664
409.0796, 331.9937
409.5617, 348.0385
410.0439, 364.0671
410.5260, 381.4696
411.0081, 401.3105
411.4902, 423.0490
411.9723, 444.9555
412.4544, 467.0967
412.9366, 490.2557
413.4187, 516.2076
413.9008, 544.4494
414.3829, 573.3493
414.8650, 604.3681
415.3471, 633.9951
415.8293, 661.5640
416.3114, 685.3342
416.7935, 695.8439
417.2756, 683.5157
417.7577, 656.8563
418.2398, 622.1168
418.7220, 577.2474
419.2041, 536.2057
419.6862, 504.8620
420.1683, 482.7688
420.6504, 469.9107
421.1325, 468.1701
421.6147, 473.3702
422.0968, 484.9732
422.5789, 502.8139
423.0610, 522.7192
423.5431, 544.6970
424.0252, 567.7773
424.5074, 591.6848
424.9895, 613.8318
425.4716, 639.4102
425.9537, 669.6946
426.4358, 703.7173
426.9179, 739.2645
427.4001, 774.4547
427.8822, 813.9553
428.3643, 858.4470
428.8464, 907.3514
429.3285, 965.1290
429.8106, 1031.630
430.2928, 1106.834
430.7749, 1190.759
431.2570, 1281.699
431.7391, 1386.430
432.2212, 1504.475
432.7033, 1637.957
433.1855, 1793.164
433.6676, 1970.092
434.1497, 2168.597
434.6318, 2389.303
435.1139, 2631.755
435.5960, 2894.722
436.0782, 3182.164
436.5603, 3483.825
437.0424, 3803.678
437.5245, 4130.049
438.0066, 4421.177
438.4887, 4693.034
438.9709, 4897.290
439.4530, 4974.937
439.9351, 4927.330
440.4172, 4765.700
440.8993, 4443.807
441.3814, 4037.107
441.8636, 3613.771
442.3457, 3170.243
442.8278, 2759.676
443.3099, 2405.781
443.7920, 2107.526
444.2741, 1855.661
444.7563, 1665.142
445.2384, 1507.598
445.7205, 1376.494
446.2026, 1271.308
446.6847, 1181.764
447.1668, 1113.169
447.6490, 1055.743
448.1311, 1003.525
448.6132, 959.5513
449.0953, 916.8843
449.5774, 876.7676
450.0595, 837.8904
450.5417, 797.4925
451.0238, 754.7348
451.5059, 712.6996
451.9880, 672.2585
452.4701, 633.0981
452.9522, 595.6175
453.4344, 558.9199
453.9165, 524.6936
454.3986, 494.3045
454.8807, 467.7330
455.3628, 443.2393
455.8449, 420.4806
456.3271, 399.2950
456.8092, 379.0982
457.2913, 359.7724
457.7734, 342.1540
458.2555, 326.1745
458.7376, 312.1987
459.2198, 300.9444
459.7019, 292.5595
460.1840, 285.6634
460.6661, 279.2881
461.1482, 273.5110
461.6303, 268.5876
462.1125, 264.7227
462.5946, 261.5509
463.0767, 258.8867
463.5588, 256.7296
464.0409, 255.1512
464.5230, 254.6005
465.0052, 254.3263
465.4873, 253.8261
465.9694, 252.9365
466.4515, 252.4799
466.9336, 252.5179
467.4157, 253.1499
467.8979, 254.4694
468.3800, 256.9725
468.8621, 259.6027
469.3442, 262.5602
469.8263, 265.6021
470.3084, 267.8177
470.7906, 269.0562
471.2727, 269.6879
471.7548, 270.1471
472.2369, 270.7744
472.7190, 268.9161
473.2011, 264.1553
473.6833, 257.6810
474.1654, 250.8223
474.6475, 243.6008
475.1296, 235.3513
475.6117, 225.4359
476.0938, 214.8488
476.5760, 206.0645
477.0581, 198.9756
477.5402, 192.7809
478.0223, 187.0403
478.5044, 181.8339
478.9865, 177.3406
479.4687, 173.5813
479.9508, 170.4080
480.4329, 167.7919
480.9150, 165.6833
481.3971, 164.0497
481.8792, 163.2240
482.3614, 162.4855
482.8435, 161.3167
483.3256, 159.8714
483.8077, 158.6354
484.2898, 158.4209
484.7719, 157.9720
485.2541, 156.4961
485.7362, 153.6112
486.2183, 151.0891
486.7004, 149.5141
487.1825, 148.2177
487.6646, 146.5552
488.1468, 144.3061
488.6289, 142.0739
489.1110, 139.7601
489.5931, 137.5294
490.0752, 135.9845
490.5573, 135.4262
491.0395, 134.7982
491.5216, 133.5360
492.0037, 131.6076
492.4858, 129.9955
492.9679, 128.6903
493.4500, 127.6536
493.9322, 126.8937
494.4143, 126.3873
494.8964, 125.9768
495.3785, 125.4949
495.8606, 125.3190
496.3427, 126.2845
496.8249, 128.1246
497.3070, 129.8580
497.7891, 130.4648
498.2712, 130.9427
498.7533, 132.2959
499.2354, 134.5905
499.7176, 137.4482
500.1997, 140.5709
500.6818, 144.1880
501.1639, 148.4763
501.6460, 153.3394
502.1281, 159.1565
502.6103, 166.2575
503.0924, 174.4009
503.5745, 182.9606
504.0566, 191.3488
504.5387, 200.5843
505.0208, 211.1105
505.5030, 222.9571
505.9851, 234.5633
506.4672, 246.6453
506.9493, 257.4040
507.4314, 266.0345
507.9135, 273.1805
508.3957, 275.5636
508.8778, 272.8752
509.3599, 265.5828
509.8420, 253.1836
510.3241, 235.8348
510.8062, 218.2969
511.2884, 201.8652
511.7705, 186.7755
512.2526, 174.0527
512.7347, 163.5590
513.2168, 154.4070
513.6989, 146.0642
514.1810, 138.6255
514.6631, 132.3671
515.1453, 127.4447
515.6274, 123.0256
516.1095, 118.2402
516.5916, 113.6429
517.0737, 109.9734
517.5558, 108.1204
518.0380, 106.5826
518.5201, 104.8426
519.0022, 102.9704
519.4843, 101.3255
519.9664, 100.0661
520.4485, 98.97902
520.9307, 98.01717
521.4128, 97.22063
521.8949, 96.35229
522.3770, 95.32742
522.8591, 94.32363
523.3412, 93.49355
523.8234, 92.84914
524.3055, 92.39912
524.7876, 92.17790
525.2697, 92.11662
525.7518, 92.05910
526.2339, 92.00539
526.7161, 92.01801
527.1982, 92.23531
527.6803, 92.52687
528.1624, 92.57378
528.6445, 92.37751
529.1266, 91.96757
529.6088, 91.31461
530.0909, 90.47518
530.5730, 89.51836
531.0551, 88.40611
531.5372, 87.29269
532.0193, 86.21169
532.5015, 85.18002
532.9836, 84.23902
533.4657, 83.51490
533.9478, 82.75660
534.4299, 81.80862
534.9120, 80.70895
535.3942, 79.74776
535.8763, 78.83085
536.3584, 78.19320
536.8405, 77.98547
537.3226, 78.32457
537.8047, 78.63744
538.2869, 78.90662
538.7690, 79.17216
539.2511, 79.41441
539.7332, 79.59831
540.2153, 80.09531
540.6974, 81.02209
541.1796, 82.22330
541.6617, 83.50114
542.1438, 84.82876
542.6259, 85.98991
543.1080, 86.71585
543.5901, 87.26208
544.0723, 88.05800
544.5544, 89.09531
545.0365, 90.19520
545.5186, 91.44955
546.0007, 92.58180
546.4828, 93.27617
546.9650, 93.36018
547.4471, 93.29244
547.9292, 93.52366
548.4113, 93.64021
548.8934, 93.07091
549.3755, 90.96373
549.8577, 88.98724
550.3398, 87.44142
550.8219, 86.28191
551.3040, 85.34056
551.7861, 84.71133
552.2682, 84.11761
552.7504, 83.40101
553.2325, 82.53212
553.7146, 81.93483
554.1967, 81.68575
554.6788, 81.47395
555.1609, 80.95014
555.6431, 80.16076
556.1252, 79.37711
556.6073, 78.64359
557.0894, 77.94748
557.5715, 77.24087
558.0536, 76.55322
558.5358, 75.96757
559.0179, 75.69142
559.5000, 75.41599
559.9821, 74.91237
560.4642, 74.18465
560.9464, 73.28767
561.4285, 71.91920
561.9106, 70.62184
562.3927, 69.77974
562.8748, 69.56843
563.3569, 69.36700
563.8391, 69.21249
564.3212, 68.96504
564.8033, 68.45691
565.2854, 67.38557
565.7675, 66.66332
566.2496, 66.43250
566.7318, 66.57073
567.2139, 66.85307
567.6960, 67.32744
568.1781, 67.63116
568.6602, 67.58341
569.1423, 67.25810
569.6245, 66.89345
570.1066, 66.48629
570.5887, 66.08834
571.0708, 65.60526
571.5529, 65.18734
572.0350, 65.16167
572.5172, 65.63218
572.9993, 66.08907
573.4814, 66.19643
573.9635, 66.06477
574.4456, 65.82630
574.9277, 65.37625
575.4099, 64.98791
575.8920, 64.73650
576.3741, 64.60098
576.8562, 64.52050
577.3383, 64.47724
577.8204, 64.50536
578.3026, 64.67641
578.7847, 64.98177
579.2668, 65.02562
579.7489, 64.71427
580.2310, 64.36899
580.7131, 64.21471
581.1953, 64.24917
581.6774, 64.31214
582.1595, 64.41444
582.6416, 64.46320
583.1237, 64.24428
583.6058, 63.87312
584.0880, 63.69392
584.5701, 63.85754
585.0522, 64.16061
585.5343, 64.44978
586.0164, 64.72216
586.4985, 64.96658
586.9807, 65.32879
587.4628, 65.53152
587.9449, 65.21896
588.4270, 64.43277
588.9091, 64.13554
589.3912, 65.01269
589.8734, 66.01369
590.3555, 66.60713
590.8376, 66.62770
591.3197, 66.76123
591.8018, 66.99544
592.2839, 67.35976
592.7661, 67.93507
593.2482, 68.75093
593.7303, 69.46468
594.2124, 69.99070
594.6945, 70.45167
595.1766, 71.19987
595.6588, 72.14387
596.1409, 72.79819
596.6230, 72.63163
597.1051, 72.27348
597.5872, 72.59428
598.0693, 73.46868
598.5515, 74.28666
599.0336, 74.82932
599.5157, 75.11601
599.9978, 75.09028
600.4799, 74.69102
600.9620, 74.35355
601.4442, 74.28978
601.9263, 74.25086
602.4084, 74.03415
602.8905, 73.43867
603.3726, 73.06432
603.8547, 73.07951
604.3369, 73.18774
604.8190, 72.81707
605.3011, 71.87346
605.7832, 71.15147
606.2653, 70.91100
606.7474, 70.99500
607.2296, 71.10683
607.7117, 71.23824
608.1938, 71.32088
608.6759, 71.24033
609.1580, 71.12411
609.6401, 71.11769
610.1223, 71.22712
610.6044, 71.45995
611.0865, 71.89017
611.5686, 72.40273
612.0507, 72.90427
612.5328, 73.36588
613.0150, 73.86962
613.4971, 74.49815
613.9792, 75.14582
614.4613, 75.68985
614.9434, 75.93961
615.4255, 76.49671
615.9077, 77.52637
616.3898, 78.81483
616.8719, 79.82188
617.3540, 80.50173
617.8361, 81.35885
618.3182, 82.66222
618.8004, 84.19789
619.2825, 85.42890
619.7646, 86.38303
620.2467, 87.20222
620.7288, 87.74236
621.2109, 88.33179
621.6931, 89.43216
622.1752, 91.09130
622.6573, 92.71001
623.1394, 93.85947
623.6215, 94.91307
624.1036, 96.16839
624.5858, 97.75459
625.0679, 99.39256
625.5500, 101.1328
626.0321, 102.8527
626.5142, 104.3571
626.9963, 105.4789
627.4785, 106.9057
627.9606, 108.9078
628.4427, 111.1257
628.9248, 112.6121
629.4069, 113.3571
629.8890, 114.1245
630.3712, 115.4512
630.8533, 116.8960
631.3354, 117.5935
631.8175, 117.5990
632.2996, 117.2621
632.7817, 116.7159
633.2639, 115.9875
633.7460, 115.0012
634.2281, 113.7347
634.7102, 112.6271
635.1923, 112.1039
635.6744, 111.6233
636.1566, 110.7584
636.6387, 109.0736
637.1208, 107.7693
637.6029, 106.9475
638.0850, 106.4237
638.5671, 105.9923
639.0493, 105.6437
639.5314, 105.4520
640.0135, 105.4995
640.4956, 105.6067
640.9777, 105.4816
641.4598, 105.1165
641.9420, 104.4750
642.4241, 103.6325
642.9062, 102.4364
643.3883, 100.4499
643.8704, 97.84200
644.3525, 95.42091
644.8347, 93.45158
645.3168, 91.89536
645.7989, 90.79294
646.2810, 90.20124
646.7631, 89.54055
647.2452, 88.69283
647.7274, 87.78426
648.2095, 86.85825
648.6916, 85.80913
649.1737, 85.05190
649.6558, 84.63110
650.1379, 84.39768
650.6201, 84.23943
651.1022, 84.14549
651.5843, 83.99287
652.0664, 83.76711
652.5485, 83.45228
653.0306, 82.89567
653.5128, 82.24197
653.9949, 81.82780
654.4770, 81.95592
654.9591, 82.21323
655.4412, 82.41264
655.9233, 82.54234
656.4055, 82.56961
656.8876, 82.55962
657.3697, 82.37032
657.8518, 81.78616
658.3339, 80.85191
658.8160, 80.42876
659.2982, 80.73092
659.7803, 81.13332
660.2624, 81.31393
660.7445, 81.27320
661.2266, 81.22309
661.7087, 81.16319
662.1909, 81.08865
662.6730, 80.81097
663.1551, 80.53831
663.6372, 80.90212
664.1193, 82.15820
664.6014, 83.22443
665.0836, 83.07497
665.5657, 82.33789
666.0478, 81.76866
666.5299, 81.48313
667.0120, 81.51254
667.4941, 82.22676
667.9763, 83.18229
668.4584, 83.54582
668.9405, 82.96055
669.4226, 82.47596
669.9047, 82.35519
670.3868, 82.44115
670.8690, 82.14011
671.3511, 81.41237
671.8332, 80.93246
672.3153, 81.21097
672.7974, 81.86878
673.2795, 82.09585
673.7617, 81.92778
674.2438, 81.61762
674.7259, 81.29159
675.2080, 80.92338
675.6901, 80.37827
676.1722, 79.62406
676.6544, 79.23569
677.1365, 79.73425
677.6186, 80.40549
678.1007, 80.77963
678.5828, 80.74553
679.0649, 80.72295
679.5471, 80.77176
680.0292, 80.74846
680.5113, 80.39899
680.9934, 79.70576
681.4755, 79.35353
681.9576, 79.43764
682.4398, 79.85773
682.9219, 80.63609
683.4040, 81.64820
683.8861, 82.54588
684.3682, 83.33278
684.8503, 83.82278
685.3325, 83.57523
685.8146, 82.96156
686.2967, 82.75420
686.7788, 83.60832
687.2609, 84.44211
687.7430, 84.74832
688.2252, 84.74048
688.7073, 85.38498
689.1894, 87.03696
689.6715, 88.57158
690.1536, 89.52795
690.6357, 90.00050
691.1179, 90.47929
691.6000, 90.96291
692.0821, 91.60374
692.5642, 92.56768
693.0463, 93.74787
693.5284, 94.98854
694.0106, 96.27473
694.4927, 97.59801
694.9748, 98.98955
695.4569, 100.3751
695.9390, 101.6941
696.4211, 102.8925
696.9033, 104.1611
697.3854, 105.5881
697.8675, 107.0627
698.3496, 108.4902
698.8317, 109.8183
699.3138, 111.3053
699.7960, 113.0154
700.2781, 114.7478
700.7602, 116.1464
701.2423, 117.2775
701.7244, 118.6023
702.2065, 120.3489
702.6887, 122.0552
703.1708, 123.0475
703.6529, 123.6170
704.1350, 124.3048
704.6171, 125.5415
705.0992, 126.7114
705.5814, 127.4832
706.0635, 127.9988
706.5456, 128.6663
707.0277, 129.5693
707.5098, 130.5780
707.9919, 131.8375
708.4741, 133.1855
708.9562, 133.6742
709.4383, 133.1949
709.9204, 132.7142
710.4025, 132.7549
710.8846, 133.1434
711.3667, 133.5714
711.8488, 133.9972
712.3309, 134.0888
712.8130, 133.1971
713.2952, 132.1725
713.7773, 131.7926
714.2594, 132.1486
714.7415, 132.4743
715.2236, 132.6692
715.7057, 132.6769
716.1879, 132.4391
716.6700, 131.8635
717.1521, 131.4416
717.6342, 131.2423
718.1163, 131.0488
718.5984, 130.4848
719.0806, 129.6399
719.5627, 129.5616
720.0448, 130.4526
720.5269, 131.4444
721.0090, 131.6670
721.4911, 131.3783
721.9733, 130.9303
722.4554, 130.2462
722.9375, 129.8264
723.4196, 130.2173
723.9017, 130.8797
724.3839, 131.1271
724.8660, 130.4462
725.3481, 129.9568
725.8302, 129.7607
726.3123, 129.7715
726.7944, 129.8266
727.2766, 129.9223
727.7587, 130.1702
728.2408, 130.6829
728.7229, 131.2329
729.2050, 131.3945
729.6871, 131.2359
730.1693, 130.9835
730.6514, 130.7744
731.1335, 130.4781
731.6156, 129.9482
732.0977, 129.2511
732.5798, 128.5932
733.0620, 128.0009
733.5441, 127.4806
734.0262, 127.0090
734.5083, 126.6016
734.9904, 126.3441
735.4725, 126.2405
735.9547, 126.2767
736.4368, 126.5898
736.9189, 127.0203
737.4010, 126.9141
737.8831, 126.2981
738.3652, 125.4798
738.8474, 124.3889
739.3295, 123.3779
739.8116, 122.8587
740.2937, 122.8423
740.7758, 122.9283
741.2579, 122.9472
741.7401, 123.0418
742.2222, 123.3650
742.7043, 123.9969
743.1864, 124.2495
743.6685, 123.8704
744.1506, 123.6174
744.6328, 124.2887
745.1149, 125.7765
745.5970, 126.3895
746.0791, 125.9997
746.5612, 125.3681
747.0433, 125.0326
747.5255, 124.9541
748.0076, 125.1027
748.4897, 125.4944
748.9718, 125.9927
749.4539, 126.8526
749.9360, 127.5978
750.4182, 127.7701
750.9003, 126.7850
751.3824, 126.2945
751.8645, 126.4869
752.3466, 126.9332
752.8287, 127.1809
753.3109, 127.2309
753.7930, 127.1486
754.2751, 126.9118
754.7572, 126.6661
755.2393, 126.7100
755.7214, 126.8539
756.2036, 126.6735
756.6857, 125.7820
757.1678, 125.0761
757.6499, 125.1871
758.1320, 125.7165
758.6141, 126.1106
759.0963, 126.2907
759.5784, 126.3191
760.0605, 126.1143
760.5426, 125.8223
761.0247, 125.6879
761.5068, 125.7113
761.9890, 125.9000
762.4711, 126.3153
762.9532, 126.7782
763.4353, 126.8728
763.9174, 126.7764
764.3995, 126.9493
764.8817, 127.7683
765.3638, 128.7112
765.8459, 129.5706
766.3280, 130.3471
766.8101, 131.0206
767.2922, 131.6915
767.7744, 132.1014
768.2565, 132.0416
768.7386, 131.7551
769.2207, 131.9958
769.7028, 132.8017
770.1849, 133.7015
770.6671, 134.6007
771.1492, 135.4141
771.6313, 135.9928
772.1134, 136.3497
772.5955, 136.5316
773.0776, 136.3421
773.5598, 136.1879
774.0419, 136.4696
774.5240, 137.0366
775.0061, 137.1926
775.4882, 136.3943
775.9703, 135.7671
776.4525, 135.6820
776.9346, 136.0032
777.4167, 135.9559
777.8988, 135.4935
778.3809, 135.3062
778.8630, 135.9367
779.3452, 136.9530
779.8273, 137.6936
780.3094, 138.1183
780.7915, 138.0661
781.2736, 136.5360
781.7557, 135.3169
782.2379, 135.8232
782.7200, 137.9227
783.2021, 139.2514
783.6842, 139.2500
784.1663, 138.9891
784.6484, 138.6454
785.1306, 138.3163
785.6127, 138.9861
786.0948, 140.7089
786.5769, 142.4097
787.0590, 143.1996
787.5411, 143.6308
788.0233, 144.6982
788.5054, 146.3205
788.9875, 147.8615
789.4696, 149.0872
789.9517, 150.0207
790.4338, 150.4314
790.9160, 150.3052
791.3981, 150.9247
791.8802, 152.7778
792.3623, 154.5444
792.8444, 155.4740
793.3265, 155.7169
793.8087, 156.6772
794.2908, 158.3705
794.7729, 160.2459
795.2550, 161.8053
795.7371, 163.3785
796.2192, 165.3746
796.7014, 167.8045
797.1835, 170.4198
797.6656, 173.2658
798.1477, 176.1292
798.6298, 178.7796
799.1119, 181.1966
799.5941, 184.0052
800.0762, 187.2750
800.5583, 190.7532
801.0404, 194.3799
801.5225, 198.1231
802.0046, 201.7345
802.4868, 205.2385
802.9689, 209.2171
803.4510, 214.5924
803.9331, 220.3114
804.4152, 225.1395
804.8973, 229.0819
805.3795, 233.3925
805.8616, 238.7847
806.3437, 244.4198
806.8258, 249.8021
807.3079, 254.8843
807.7900, 260.8803
808.2722, 267.8522
808.7543, 275.5078
809.2364, 283.7373
809.7185, 292.5067
810.2006, 301.7623
810.6827, 311.4237
811.1649, 321.4857
811.6470, 332.1333
812.1291, 342.9951
812.6112, 353.5335
813.0933, 363.7501
813.5754, 375.0236
814.0576, 388.0706
814.5397, 401.6571
815.0218, 415.0228
815.5039, 428.3711
815.9860, 443.2362
816.4681, 459.7428
816.9503, 476.9541
817.4324, 493.8508
817.9145, 511.3198
818.3966, 530.9277
818.8787, 552.4334
819.3608, 574.6986
819.8430, 598.3282
820.3251, 621.5350
820.8072, 643.2050
821.2893, 663.3491
821.7714, 682.5683
822.2535, 700.8498
822.7357, 717.5494
823.2178, 733.1035
823.6999, 746.6531
824.1820, 754.9380
824.6641, 758.0110
825.1462, 756.6207
825.6284, 750.4453
826.1105, 740.6268
826.5926, 727.8724
827.0747, 712.2403
827.5568, 694.2897
828.0389, 672.4914
828.5211, 650.0123
829.0032, 627.3596
829.4853, 604.7822
829.9674, 582.8805
830.4495, 561.4965
830.9316, 541.7857
831.4138, 524.3417
831.8959, 508.6273
832.3780, 492.7617
832.8601, 477.1571
833.3422, 463.2026
833.8243, 452.0164
834.3065, 442.2962
834.7886, 433.9561
835.2707, 426.5350
835.7528, 418.5826
836.2349, 409.0529
836.7170, 400.5898
837.1992, 393.9249
837.6813, 388.7402
838.1634, 384.4530
838.6455, 380.9279
839.1276, 376.6145
839.6097, 370.4396
840.0919, 363.7930
840.5740, 358.4492
841.0561, 353.8153
841.5382, 348.7967
842.0203, 342.2144
842.5024, 336.0756
842.9846, 331.3459
843.4667, 327.2222
843.9488, 322.1478
844.4309, 315.8669
844.9130, 309.8881
845.3951, 304.7441
845.8773, 299.7067
846.3594, 293.1861
846.8415, 285.8362
847.3236, 279.4587
847.8057, 275.1196
848.2878, 270.9679
848.7700, 265.9853
849.2521, 260.5588
849.7342, 255.2441
850.2163, 250.0285
850.6984, 245.0003
851.1805, 240.0403
851.6627, 235.4422
852.1448, 231.8555
852.6269, 229.1483
853.1090, 225.8652
853.5911, 221.5988
854.0732, 217.4495
854.5554, 214.4465
855.0375, 212.2218
855.5196, 210.2850
856.0017, 208.5076
856.4838, 207.0864
856.9659, 206.6195
857.4481, 206.0435
857.9302, 204.3237
858.4123, 201.1799
858.8944, 199.0078
859.3765, 197.9537
859.8586, 197.4704
860.3408, 197.1192
860.8229, 196.9319
861.3050, 197.0176
861.7871, 197.4005
862.2692, 197.8173
862.7513, 198.2710
863.2335, 198.6131
863.7156, 198.6205
864.1977, 198.1970
864.6798, 198.3571
865.1619, 199.2429
865.6440, 200.3076
866.1262, 201.3674
866.6083, 202.3162
867.0904, 202.5177
867.5725, 202.0426
868.0546, 201.6924
868.5367, 202.1174
869.0189, 202.7396
869.5010, 203.1604
869.9831, 203.3729
870.4652, 203.5960
870.9473, 203.9169
871.4294, 204.1550
871.9116, 204.3025
872.3937, 204.3092
872.8758, 203.9452
873.3579, 203.2193
873.8400, 202.2905
874.3221, 201.2002
874.8043, 199.9779
875.2864, 198.6356
875.7685, 197.1925
876.2506, 195.7382
876.7327, 194.4208
877.2148, 192.9467
877.6970, 191.2794
878.1791, 189.4319
878.6612, 187.3194
879.1433, 184.9008
879.6254, 182.7123
880.1075, 180.9230
880.5897, 179.2595
881.0718, 177.6199
881.5539, 175.7768
882.0360, 173.1917
882.5181, 168.8436
883.0002, 165.2810
883.4824, 164.2870
883.9645, 163.9742
884.4466, 162.1972
884.9287, 158.3894
885.4108, 155.0957
885.8929, 152.4939
886.3751, 150.3689
886.8572, 148.7773
887.3393, 147.4485
887.8214, 145.5934
888.3035, 143.0471
888.7856, 140.7503
889.2678, 139.5772
889.7499, 138.6636
890.2320, 137.2800
890.7141, 135.2443
891.1962, 133.8114
891.6783, 133.2264
892.1605, 132.6592
892.6426, 131.5184
893.1247, 129.9618
893.6068, 128.5163
894.0889, 127.1826
894.5710, 126.0663
895.0532, 125.3945
895.5353, 124.7820
896.0174, 123.9294
896.4995, 122.8591
896.9816, 121.9255
897.4637, 121.0870
897.9459, 120.4987
898.4280, 120.3441
898.9101, 120.3819
899.3922, 119.8748
899.8743, 118.8835
900.3564, 117.8330
900.8386, 116.7824
901.3207, 115.8832
901.8028, 115.4153
902.2849, 115.1566
902.7670, 114.7031
903.2491, 113.8091
903.7313, 112.9125
904.2134, 111.9417
904.6955, 111.0874
905.1776, 110.8538
905.6597, 111.1515
906.1418, 110.5938
906.6240, 108.8379
907.1061, 106.9465
907.5882, 106.0085
908.0703, 105.5095
908.5524, 104.8519
909.0345, 103.8647
909.5167, 102.9383
909.9988, 102.0676
910.4809, 101.3317
910.9630, 100.8830
911.4451, 100.7352
911.9272, 100.0035
912.4094, 98.66931
912.8915, 97.40385
913.3736, 96.95435
913.8557, 96.68797
914.3378, 95.72761
914.8199, 94.17139
915.3021, 93.10239
915.7842, 93.32410
916.2663, 93.54399
916.7484, 93.35242
917.2305, 92.86391
917.7126, 92.46085
918.1948, 92.14246
918.6769, 92.10696
919.1590, 92.71004
919.6411, 93.22417
920.1232, 92.37953
920.6053, 90.82166
921.0875, 89.83510
921.5696, 90.18788
922.0517, 90.70198
922.5338, 91.28582
923.0159, 91.84708
923.4980, 92.28529
923.9802, 92.60178
924.4623, 92.76993
924.9444, 92.78145
925.4265, 92.65826
925.9086, 92.47962
926.3907, 92.14968
926.8729, 91.49463
927.3550, 90.43553
927.8371, 89.38548
928.3192, 88.39121
928.8013, 87.51805
929.2834, 86.75603
929.7656, 86.10527
930.2477, 85.91981
930.7298, 86.21887
931.2119, 86.47478
931.6940, 86.13521
932.1761, 85.69322
932.6583, 85.88526
933.1404, 86.55026
933.6225, 87.01337
934.1046, 87.01169
934.5867, 86.80447
935.0688, 86.33250
935.5510, 85.77713
936.0331, 85.57983
936.5152, 85.74019
936.9973, 86.20275
937.4794, 87.06767
937.9615, 87.91389
938.4437, 88.22493
938.9258, 88.18881
939.4079, 88.04308
939.8900, 87.66657
940.3721, 87.58117
940.8542, 87.99280
941.3364, 88.57338
941.8185, 89.12984
942.3006, 89.66249
942.7827, 89.92965
943.2648, 89.91380
943.7469, 89.82909
944.2291, 89.58640
944.7112, 89.54428
945.1933, 90.27933
945.6754, 91.75375
946.1575, 92.90794
946.6396, 93.25884
947.1218, 93.55105
947.6039, 93.99773
948.0860, 94.55088
948.5681, 94.99074
949.0502, 95.33517
949.5323, 95.80430
950.0145, 96.54771
950.4966, 97.36169
950.9787, 98.10489
951.4608, 98.76139
951.9429, 99.29920
952.4250, 99.34759
952.9072, 99.84823
953.3893, 101.0725
953.8714, 102.4246
954.3535, 103.1392
954.8356, 103.3192
955.3177, 103.7109
955.7999, 104.3895
956.2820, 105.2397
956.7641, 106.1815
957.2462, 107.2474
957.7283, 108.5193
958.2104, 110.0374
958.6925, 111.3758
959.1746, 112.3177
959.6567, 113.5247
960.1389, 115.2032
960.6210, 117.4109
961.1031, 120.3211
961.5852, 123.9207
962.0673, 128.0122
962.5494, 133.1438
963.0316, 138.1076
963.5137, 142.1797
963.9958, 145.6862
964.4779, 149.1542
964.9600, 152.3613
965.4421, 156.2142
965.9243, 160.7654
966.4064, 166.0027
966.8885, 171.7076
967.3706, 178.1469
967.8527, 185.9764
968.3348, 195.1767
968.8170, 206.3729
969.2991, 217.6201
969.7812, 232.9100
970.2633, 254.1630
970.7454, 281.3708
971.2275, 315.9778
971.7097, 358.2039
972.1918, 408.1444
972.6739, 465.8800
973.1560, 532.0991
973.6381, 616.1875
974.1202, 710.3954
974.6024, 792.5516
975.0845, 888.6564
975.5666, 928.0943
976.0487, 876.5024
976.5308, 771.2914
977.0129, 652.8102
977.4951, 520.9224
977.9772, 413.9704
978.4593, 338.5528
978.9414, 284.5934
979.4235, 247.3418
979.9056, 222.0406
980.3878, 203.9873
980.8699, 193.3178
981.3520, 184.7189
981.8341, 177.3740
982.3162, 171.6591
982.7983, 168.0676
983.2805, 166.2493
983.7626, 164.3572
984.2447, 162.4122
984.7268, 160.6641
985.2089, 158.9064
985.6910, 157.6939
986.1732, 157.5761
986.6553, 158.2855
987.1374, 159.2960
987.6195, 160.6126
988.1016, 162.0073
988.5837, 163.3444
989.0659, 164.9718
989.5480, 167.4344
990.0301, 170.5395
990.5122, 173.5226
990.9943, 176.2530
991.4764, 179.7917
991.9586, 184.0672
992.4407, 189.9533
992.9228, 197.7124
993.4049, 207.3240
993.8870, 220.2486
994.3691, 236.1612
994.8513, 256.8840
995.3334, 284.1597
995.8155, 315.7100
996.2976, 351.0996
996.7797, 387.9413
997.2618, 421.6715
997.7440, 447.5718
998.2261, 474.1416
998.7082, 501.3993
999.1903, 531.4649
999.6724, 566.6070
1000.155, 606.2946
1000.637, 651.3163
1001.119, 701.1346
1001.601, 760.0016
1002.083, 824.1802
1002.565, 904.1804
1003.047, 1004.558
1003.529, 1125.500
1004.011, 1294.755
1004.494, 1504.119
1004.976, 1772.069
1005.458, 2100.170
1005.940, 2492.693
1006.422, 2956.538
1006.904, 3491.627
1007.386, 4089.905
1007.868, 4887.760
1008.351, 5509.059
1008.833, 5882.769
1009.315, 5900.305
1009.797, 5442.268
1010.279, 4349.358
1010.761, 3388.733
1011.243, 2575.012
1011.725, 1913.907
1012.207, 1456.681
1012.690, 1145.130
1013.172, 914.2615
1013.654, 755.4424
1014.136, 630.9859
1014.618, 544.4079
1015.100, 475.5428
1015.582, 422.6950
1016.064, 382.5548
1016.547, 348.5918
1017.029, 320.7279
1017.511, 297.5773
1017.993, 279.4282
1018.475, 264.1958
1018.957, 250.5483
1019.439, 238.4376
1019.921, 228.0167
1020.403, 219.6033
1020.886, 211.4192
1021.368, 203.3052
1021.850, 195.8775
1022.332, 189.7858
1022.814, 184.6141
1023.296, 179.5507
1023.778, 174.6147
1024.260, 169.8777
1024.743, 165.0113
1025.225, 160.7955
1025.707, 157.7613
1026.189, 155.3442
1026.671, 152.6429
1027.153, 149.6253
1027.635, 147.3186
1028.117, 145.9119
1028.599, 144.7063
1029.082, 143.0189
1029.564, 141.1913
1030.046, 139.5099
1030.528, 138.0042
1031.010, 136.7328
1031.492, 135.8206
1031.974, 134.8277
1032.456, 133.4956
1032.938, 132.0512
1033.421, 131.0240
1033.903, 130.3592
1034.385, 129.8764
1034.867, 129.6096
1035.349, 129.3241
1035.831, 128.9771
1036.313, 128.5138
1036.795, 127.8221
1037.278, 126.8053
1037.760, 126.3759
1038.242, 126.6219
1038.724, 126.5848
1039.206, 125.0112
1039.688, 123.1145
1040.170, 122.3606
1040.652, 122.5906
1041.135, 122.7366
1041.617, 122.5827
1042.099, 122.3334
1042.581, 121.9623
1043.063, 121.6002
1043.545, 121.5096
1044.027, 121.6209
1044.509, 121.7780
1044.991, 122.0169
1045.474, 121.8867
1045.956, 120.4769
1046.438, 119.1700
1046.920, 119.0965
1047.402, 120.2127
1047.884, 120.6913
1048.366, 120.4973
1048.848, 120.1337
1049.330, 119.6757
1049.813, 119.3707
1050.295, 119.7249
1050.777, 120.3982
1051.259, 120.7591
1051.741, 120.3382
1052.223, 120.0592
1052.705, 120.0063
1053.187, 119.9896
1053.670, 119.8498
1054.152, 119.5930
1054.634, 119.2217
1055.116, 118.7404
1055.598, 118.2132
1056.080, 117.4067
1056.562, 116.8476
1057.044, 117.0985
1057.526, 117.7088
1058.009, 117.4107
1058.491, 116.1421
1058.973, 115.1112
1059.455, 114.6307
1059.937, 114.2714
1060.419, 113.5094
1060.901, 112.6497
1061.383, 112.0760
1061.865, 111.9431
1062.348, 111.5546
1062.830, 110.6421
1063.312, 110.0761
1063.794, 110.5261
1064.276, 111.4416
1064.758, 111.3663
1065.240, 110.5414
1065.722, 109.6669
1066.205, 108.8273
1066.687, 108.2626
1067.169, 108.2257
1067.651, 108.3364
1068.133, 108.2611
1068.615, 107.9986
1069.097, 107.6764
1069.579, 107.2970
1070.062, 106.8854
1070.544, 106.4419
1071.026, 105.9893
1071.508, 105.4871
1071.990, 104.9800
1072.472, 104.6932
1072.954, 104.7679
1073.436, 104.5820
1073.918, 103.9403
1074.401, 103.2175
1074.883, 102.7237
1075.365, 102.5491
1075.847, 102.9843
1076.329, 104.1763
1076.811, 105.0372
1077.293, 105.1786
1077.775, 105.0399
1078.257, 104.6733
1078.740, 104.2059
1079.222, 104.0835
1079.704, 104.2774
1080.186, 104.6708
1080.668, 105.4174
1081.150, 105.9940
1081.632, 105.9851
1082.114, 105.7202
1082.596, 105.5253
1083.079, 105.3807
1083.561, 105.4829
1084.043, 105.8545
1084.525, 106.1760
1085.007, 106.1580
1085.489, 106.0228
1085.971, 105.9554
1086.453, 105.9628
1086.936, 106.0701
1087.418, 106.4388
1087.900, 106.5416
1088.382, 106.2337
1088.864, 105.8587
1089.346, 105.9497
1089.828, 106.2632
1090.310, 106.2749
1090.792, 105.9363
1091.275, 105.5871
1091.757, 105.2949
1092.239, 105.1015
1092.721, 105.0182
1093.203, 105.0415
1093.685, 105.2643
1094.167, 105.6234
1094.649, 105.6952
1095.131, 105.2797
1095.614, 104.8451
1096.096, 104.7186
1096.578, 104.7107
1097.060, 104.6672
1097.542, 104.5834
1098.024, 104.3882
1098.506, 104.0564
1098.988, 103.9230
1099.471, 104.3030
1099.953, 104.8127
1100.435, 105.1797
1100.917, 105.3340
1101.399, 105.1251
1101.881, 104.0905
1102.363, 103.5760
1102.845, 103.7655
1103.328, 104.0237
1103.810, 103.6393
1104.292, 102.9871
1104.774, 103.0145
1105.256, 103.5787
1105.738, 103.8216
1106.220, 102.8634
1106.702, 102.2946
1107.184, 102.6432
1107.667, 103.3290
1108.149, 103.4070
1108.631, 103.0081
1109.113, 102.7344
1109.595, 102.6574
1110.077, 102.8264
1110.559, 103.7384
1111.041, 104.4471
1111.523, 104.2024
1112.006, 103.2954
1112.488, 102.9374
1112.970, 103.1311
1113.452, 103.2912
1113.934, 103.2572
1114.416, 103.1233
1114.898, 102.7788
1115.380, 102.5077
1115.863, 102.7528
1116.345, 103.6926
1116.827, 103.8991
1117.309, 103.1729
1117.791, 102.6628
1118.273, 103.1876
1118.755, 103.9776
1119.237, 103.8011
1119.719, 103.0614
1120.202, 102.5347
1120.684, 102.5700
1121.166, 102.6029
1121.648, 102.5841
1122.130, 102.6134
1122.612, 102.7631
1123.094, 103.0258
1123.576, 103.4560
1124.058, 104.0007
1124.541, 104.4270
1125.023, 104.7789
1125.505, 104.7680
1125.987, 104.1526
1126.469, 103.3723
1126.951, 103.0086
1127.433, 103.0106
1127.915, 103.0758
1128.398, 103.1759
1128.880, 103.2871
1129.362, 103.4537
1129.844, 103.5668
1130.326, 103.5917
1130.808, 103.5161
1131.290, 103.2501
1131.772, 102.7921
1132.255, 102.3959
1132.737, 102.0999
1133.219, 101.9435
1133.701, 102.0222
1134.183, 102.2027
1134.665, 102.4439
1135.147, 102.7252
1135.629, 102.6351
1136.111, 102.0864
1136.594, 101.6871
1137.076, 101.6616
1137.558, 101.8493
1138.040, 102.0904
1138.522, 102.3914
1139.004, 102.8102
1139.486, 103.5002
1139.968, 103.7259
1140.450, 103.3252
1140.933, 102.9072
1141.415, 102.8026
1141.897, 102.8921
1142.379, 102.9491
1142.861, 103.0189
1143.343, 103.2072
1143.825, 103.7369
1144.307, 104.0646
1144.790, 104.0292
1145.272, 104.0215
1145.754, 104.4792
1146.236, 105.2035
1146.718, 105.4918
1147.200, 105.4371
1147.682, 105.5328
1148.164, 106.3041
1148.646, 106.8385
1149.129, 106.8105
1149.611, 106.6022
1150.093, 106.7671
1150.575, 107.1969
1151.057, 107.1379
1151.539, 106.5814
1152.021, 106.3567
1152.503, 107.2788
1152.985, 108.2913
1153.468, 108.9609
1153.950, 109.3658
1154.432, 109.6479
1154.914, 109.8071
1155.396, 109.7145
1155.878, 109.3015
1156.360, 109.2103
1156.842, 110.3393
1157.325, 111.6042
1157.807, 112.1083
1158.289, 112.0545
1158.771, 112.3179
1159.253, 112.9036
1159.735, 113.5368
1160.217, 114.1415
1160.699, 114.7799
1161.182, 115.4169
1161.664, 116.1786
1162.146, 117.2915
1162.628, 118.7797
1163.110, 119.9073
1163.592, 120.6455
1164.074, 121.2902
1164.556, 121.9093
1165.038, 122.5863
1165.521, 123.5540
1166.003, 124.5893
1166.485, 125.2645
1166.967, 125.2335
1167.449, 126.2417
1167.931, 128.4978
1168.413, 130.8559
1168.895, 132.6018
1169.377, 134.1659
1169.860, 136.1750
1170.342, 138.4777
1170.824, 140.7931
1171.306, 142.9555
1171.788, 145.2951
1172.270, 147.8588
1172.752, 150.4777
1173.234, 153.0350
1173.717, 155.5800
1174.199, 158.2405
1174.681, 161.0537
1175.163, 164.0705
1175.645, 167.3400
1176.127, 170.8529
1176.609, 174.6968
1177.091, 178.6576
1177.573, 182.6803
1178.056, 186.6058
1178.538, 189.8830
1179.020, 192.6946
1179.502, 196.1015
1179.984, 201.2005
1180.466, 205.9749
1180.948, 210.1793
1181.430, 213.9461
1181.912, 217.3851
1182.395, 220.6265
1182.877, 224.0470
1183.359, 227.6129
1183.841, 230.7072
1184.323, 232.9099
1184.805, 234.7480
1185.287, 236.5017
1185.769, 237.8336
1186.252, 238.0749
1186.734, 237.4339
1187.216, 236.5351
1187.698, 235.4600
1188.180, 233.9639
1188.662, 231.6447
1189.144, 229.2629
1189.626, 227.2028
1190.109, 225.1342
1190.591, 222.4070
1191.073, 219.0083
1191.555, 214.7794
1192.037, 209.5918
1192.519, 204.6292
1193.001, 200.7205
1193.483, 196.8692
1193.965, 192.6054
1194.448, 188.0884
1194.930, 183.7738
1195.412, 179.6839
1195.894, 175.7924
1196.376, 172.1433
1196.858, 168.4694
1197.340, 164.5618
1197.822, 160.6219
1198.304, 156.6997
1198.787, 152.8509
1199.269, 149.3398
1199.751, 146.1514
1200.233, 143.1374
1200.715, 140.1639
1201.197, 137.5070
1201.679, 135.8020
1202.161, 133.9512
1202.644, 130.9726
1203.126, 127.1944
1203.608, 125.1026
1204.090, 124.3801
1204.572, 123.2054
1205.054, 120.3081
1205.536, 117.6596
1206.018, 116.5317
1206.500, 115.7346
1206.983, 114.3708
1207.465, 112.4991
1207.947, 110.9076
1208.429, 109.5644
1208.911, 108.1756
1209.393, 106.4078
1209.875, 104.8192
1210.357, 103.8602
1210.839, 103.0567
1211.322, 101.9352
1211.804, 100.5389
1212.286, 99.82819
1212.768, 99.72502
1213.250, 99.64017
1213.732, 99.37843
1214.214, 98.89906
1214.696, 97.81487
1215.179, 96.80397
1215.661, 96.80952
1216.143, 97.66753
1216.625, 97.53816
1217.107, 96.45853
1217.589, 95.37556
1218.071, 94.63892
1218.553, 94.21482
1219.036, 94.43970
1219.518, 94.65722
1220.000, 93.86494
1220.482, 92.25513
1220.964, 91.48035
1221.446, 91.54934
1221.928, 91.47140
1222.410, 90.53483
1222.892, 89.53041
1223.375, 88.71183
1223.857, 88.01611
1224.339, 87.38653
1224.821, 86.80611
1225.303, 86.26938
1225.785, 85.75193
1226.267, 84.97561
1226.749, 83.34565
1227.231, 82.01557
1227.714, 81.48003
1228.196, 81.27580
1228.678, 80.60146
1229.160, 79.63281
1229.642, 79.19897
1230.124, 79.34519
1230.606, 79.29214
1231.088, 78.48283
1231.571, 77.61630
1232.053, 76.89688
1232.535, 76.25475
1233.017, 75.50400
1233.499, 74.73373
1233.981, 74.27999
1234.463, 74.17234
1234.945, 74.07382
1235.427, 74.08898
1235.910, 73.70332
1236.392, 72.59056
1236.874, 71.29150
1237.356, 70.96541
1237.838, 71.17736
1238.320, 70.73071
1238.802, 69.47545
1239.284, 68.51979
1239.766, 68.56030
1240.249, 68.49484
1240.731, 67.98719
1241.213, 67.37046
1241.695, 67.34509
1242.177, 67.58228
1242.659, 67.29683
1243.141, 66.35181
1243.623, 65.74995
1244.106, 65.78638
1244.588, 66.02197
1245.070, 66.44868
1245.552, 66.79972
1246.034, 66.45969
1246.516, 65.83430
1246.998, 65.68972
1247.480, 66.16830
1247.963, 66.22843
1248.445, 65.52908
1248.927, 65.11904
1249.409, 65.40070
1249.891, 65.86359
1250.373, 65.79484
1250.855, 65.42031
1251.337, 64.97348
1251.819, 64.48249
1252.302, 64.21021
1252.784, 64.21833
1253.266, 64.20764
1253.748, 64.05573
1254.230, 63.94151
1254.712, 64.17436
1255.194, 64.50892
1255.676, 64.67773
1256.158, 64.64163
1256.641, 64.47536
1257.123, 64.13545
1257.605, 63.98652
1258.087, 64.17855
1258.569, 64.47264
1259.051, 64.59042
1259.533, 64.71395
1260.015, 65.05683
1260.498, 65.60105
1260.980, 66.22993
1261.462, 66.94653
1261.944, 67.06614
1262.426, 66.19905
1262.908, 65.35275
1263.390, 65.25230
1263.872, 65.61140
1264.354, 66.36015
1264.837, 67.36089
1265.319, 67.72227
1265.801, 67.52061
1266.283, 67.45612
1266.765, 67.72942
1267.247, 68.19348
1267.729, 69.06019
1268.211, 69.76794
1268.693, 69.91129
1269.176, 69.67349
1269.658, 69.75615
1270.140, 70.09111
1270.622, 70.33961
1271.104, 70.33817
1271.586, 70.58689
1272.068, 71.61865
1272.550, 72.58553
1273.033, 73.16068
1273.515, 73.42259
1273.997, 73.42227
1274.479, 73.31004
1274.961, 73.50021
1275.443, 74.15699
1275.925, 74.77242
1276.407, 75.20075
1276.890, 75.68248
1277.372, 76.35299
1277.854, 77.07339
1278.336, 77.65592
1278.818, 78.09082
1279.300, 78.34633
1279.782, 78.38718
1280.264, 78.38326
1280.746, 78.27782
1281.229, 78.39637
1281.711, 78.96497
1282.193, 79.57787
1282.675, 79.62809
1283.157, 79.43427
1283.639, 79.39910
1284.121, 79.57797
1284.603, 79.74380
1285.085, 79.88907
1285.568, 80.09376
1286.050, 80.39559
1286.532, 80.73844
1287.014, 81.36649
1287.496, 81.77393
1287.978, 81.21366
1288.460, 79.91386
1288.942, 79.64436
1289.425, 80.34114
1289.907, 80.87157
1290.389, 80.82742
1290.871, 80.87808
1291.353, 81.63746
1291.835, 82.44742
1292.317, 82.85640
1292.799, 83.01637
1293.281, 83.62581
1293.764, 84.49191
1294.246, 84.71904
1294.728, 83.91878
1295.210, 83.55408
1295.692, 84.74153
1296.174, 85.84957
1296.656, 86.24559
1297.138, 86.30374
1297.620, 86.71849
1298.103, 87.41348
1298.585, 88.32464
1299.067, 89.49574
1299.549, 90.26036
1300.031, 90.26701
1300.513, 90.66637
1300.995, 91.87180
1301.477, 93.39952
1301.960, 94.81871
1302.442, 96.06557
1302.924, 96.92611
1303.406, 97.37661
1303.888, 98.21428
1304.370, 99.46026
1304.852, 100.8027
1305.334, 102.0636
##END=



