##NAMES=Zoisite
##RRUFFID=R050038
##IDEAL CHEMISTRY=Ca_2_Al_3_(Si_2_O_7_)(SiO_4_)O(OH)
##LOCALITY=Elf Shooting Creek, Clay County, North Carolina, USA
##OWNER=RRUFF
##SOURCE=University of Arizona Mineral Museum
##DESCRIPTION=Tan colored fragments of single crystals
##STATUS=The identification of this mineral has been confirmed by X-ray diffraction and chemical analysis
##URL=rruff.info/R050038
##MEASURED CHEMISTRY=(Ca_.998_Na_.002_)_2_(Al_.982_Fe^3+^_.018_)_3_(Si_.982_Fe^3+^_.018_)_3_O_12_(OH)
163.2542, 1622.399
163.7363, 1630.110
164.2184, 1646.431
164.7005, 1671.607
165.1826, 1700.688
165.6647, 1727.597
166.1469, 1753.424
166.6290, 1773.524
167.1111, 1783.472
167.5932, 1791.742
168.0753, 1803.963
168.5574, 1821.049
169.0396, 1840.764
169.5217, 1860.524
170.0038, 1881.468
170.4859, 1898.552
170.9680, 1909.634
171.4501, 1918.780
171.9323, 1929.416
172.4144, 1941.781
172.8965, 1952.614
173.3786, 1957.537
173.8607, 1953.315
174.3428, 1955.691
174.8250, 1969.880
175.3071, 1986.630
175.7892, 1999.560
176.2713, 2007.867
176.7534, 2013.676
177.2355, 2018.715
177.7177, 2022.633
178.1998, 2028.603
178.6819, 2035.871
179.1640, 2045.606
179.6461, 2061.653
180.1282, 2083.352
180.6104, 2101.338
181.0925, 2104.527
181.5746, 2091.468
182.0567, 2092.842
182.5388, 2119.983
183.0209, 2153.271
183.5031, 2180.644
183.9852, 2200.884
184.4673, 2213.139
184.9494, 2212.403
185.4315, 2200.721
185.9136, 2203.899
186.3958, 2234.786
186.8779, 2271.185
187.3600, 2295.493
187.8421, 2308.062
188.3242, 2322.434
188.8063, 2351.094
189.2885, 2389.152
189.7706, 2413.996
190.2527, 2420.387
190.7348, 2417.391
191.2169, 2406.874
191.6990, 2389.830
192.1812, 2378.422
192.6633, 2383.898
193.1454, 2398.662
193.6275, 2401.052
194.1096, 2385.018
194.5917, 2363.181
195.0739, 2344.616
195.5560, 2328.684
196.0381, 2308.571
196.5202, 2275.124
197.0023, 2239.572
197.4844, 2224.339
197.9666, 2241.438
198.4487, 2255.485
198.9308, 2235.461
199.4129, 2186.552
199.8950, 2147.104
200.3771, 2135.077
200.8593, 2136.491
201.3414, 2127.949
201.8235, 2106.634
202.3056, 2086.414
202.7877, 2077.001
203.2698, 2076.851
203.7520, 2078.961
204.2341, 2086.042
204.7162, 2088.711
205.1983, 2074.000
205.6804, 2040.718
206.1625, 2010.500
206.6447, 1995.050
207.1268, 1992.879
207.6089, 2000.154
208.0910, 2023.118
208.5731, 2045.148
209.0552, 2046.873
209.5374, 2030.929
210.0195, 2019.204
210.5016, 2031.158
210.9837, 2056.975
211.4658, 2063.635
211.9479, 2038.596
212.4301, 2010.531
212.9122, 2003.334
213.3943, 2012.084
213.8764, 2021.987
214.3585, 2027.484
214.8406, 2029.293
215.3228, 2028.213
215.8049, 2022.469
216.2870, 2018.203
216.7691, 2020.559
217.2512, 2027.115
217.7333, 2033.718
218.2155, 2039.379
218.6976, 2043.858
219.1797, 2046.564
219.6618, 2047.240
220.1439, 2047.016
220.6260, 2046.948
221.1082, 2046.248
221.5903, 2043.108
222.0724, 2034.819
222.5545, 2026.777
223.0366, 2028.417
223.5187, 2041.923
224.0009, 2051.753
224.4830, 2046.473
224.9651, 2036.025
225.4472, 2030.502
225.9293, 2032.417
226.4114, 2037.417
226.8936, 2039.876
227.3757, 2039.483
227.8578, 2044.567
228.3399, 2067.514
228.8220, 2089.611
229.3041, 2090.646
229.7863, 2067.400
230.2684, 2041.659
230.7505, 2033.397
231.2326, 2041.069
231.7147, 2043.267
232.1968, 2029.336
232.6790, 2015.891
233.1611, 2019.519
233.6432, 2038.792
234.1253, 2055.705
234.6074, 2057.087
235.0895, 2045.860
235.5717, 2034.952
236.0538, 2025.887
236.5359, 2017.011
237.0180, 2004.565
237.5001, 1990.619
237.9822, 1982.323
238.4644, 1987.916
238.9465, 2001.234
239.4286, 2005.571
239.9107, 1996.440
240.3928, 1989.087
240.8749, 1994.018
241.3571, 2006.973
241.8392, 2022.025
242.3213, 2040.972
242.8034, 2058.166
243.2855, 2062.867
243.7676, 2052.583
244.2498, 2043.382
244.7319, 2044.576
245.2140, 2051.033
245.6961, 2056.720
246.1782, 2059.966
246.6603, 2063.361
247.1425, 2070.389
247.6246, 2081.032
248.1067, 2089.883
248.5888, 2093.510
249.0709, 2095.441
249.5530, 2099.869
250.0352, 2107.299
250.5173, 2115.271
250.9994, 2123.078
251.4815, 2130.276
251.9636, 2133.842
252.4457, 2130.352
252.9279, 2126.861
253.4100, 2130.059
253.8921, 2139.582
254.3742, 2152.785
254.8563, 2170.392
255.3384, 2190.570
255.8206, 2208.968
256.3027, 2224.347
256.7848, 2239.792
257.2669, 2258.744
257.7490, 2280.081
258.2311, 2300.692
258.7133, 2323.647
259.1954, 2343.537
259.6775, 2351.815
260.1596, 2347.559
260.6417, 2339.599
261.1238, 2333.046
261.6060, 2326.762
262.0881, 2318.278
262.5702, 2309.619
263.0523, 2296.197
263.5344, 2271.239
264.0165, 2236.211
264.4987, 2203.662
264.9808, 2178.766
265.4629, 2160.039
265.9450, 2143.366
266.4271, 2128.593
266.9092, 2115.825
267.3914, 2103.787
267.8735, 2093.747
268.3556, 2090.609
268.8377, 2098.016
269.3198, 2107.396
269.8019, 2101.879
270.2841, 2080.021
270.7662, 2068.151
271.2483, 2081.299
271.7304, 2104.606
272.2125, 2117.371
272.6946, 2115.976
273.1768, 2112.789
273.6589, 2120.625
274.1410, 2139.669
274.6231, 2153.533
275.1052, 2156.136
275.5873, 2157.247
276.0695, 2166.349
276.5516, 2182.115
277.0337, 2192.811
277.5158, 2187.805
277.9979, 2171.835
278.4800, 2173.691
278.9622, 2209.956
279.4443, 2243.257
279.9264, 2257.284
280.4085, 2258.766
280.8906, 2260.988
281.3727, 2269.328
281.8549, 2282.849
282.3370, 2300.155
282.8191, 2326.100
283.3012, 2347.140
283.7833, 2361.122
284.2654, 2369.904
284.7476, 2374.978
285.2297, 2376.827
285.7118, 2375.824
286.1939, 2372.335
286.6760, 2365.847
287.1581, 2358.034
287.6403, 2348.629
288.1224, 2338.266
288.6045, 2327.788
289.0866, 2316.905
289.5687, 2304.092
290.0508, 2287.642
290.5330, 2267.776
291.0151, 2252.322
291.4972, 2244.276
291.9793, 2237.022
292.4614, 2228.019
292.9435, 2218.914
293.4257, 2213.225
293.9078, 2212.851
294.3899, 2215.005
294.8720, 2211.098
295.3541, 2188.337
295.8362, 2179.370
296.3184, 2194.947
296.8005, 2218.630
297.2826, 2237.971
297.7647, 2249.677
298.2468, 2256.309
298.7289, 2259.503
299.2111, 2255.321
299.6932, 2261.910
300.1753, 2292.149
300.6574, 2321.125
301.1395, 2335.461
301.6216, 2338.407
302.1038, 2342.165
302.5859, 2356.034
303.0680, 2379.062
303.5501, 2402.708
304.0322, 2426.110
304.5143, 2451.790
304.9965, 2478.228
305.4786, 2507.690
305.9607, 2544.836
306.4428, 2593.260
306.9249, 2644.179
307.4070, 2681.370
307.8892, 2701.574
308.3713, 2719.673
308.8534, 2735.604
309.3355, 2753.114
309.8176, 2779.655
310.2997, 2815.221
310.7819, 2842.639
311.2640, 2844.727
311.7461, 2823.226
312.2282, 2797.659
312.7103, 2769.763
313.1924, 2738.120
313.6746, 2699.161
314.1567, 2655.730
314.6388, 2616.060
315.1209, 2591.984
315.6030, 2571.314
316.0851, 2527.030
316.5673, 2453.945
317.0494, 2388.268
317.5315, 2354.933
318.0136, 2340.490
318.4957, 2320.975
318.9778, 2290.228
319.4600, 2260.630
319.9421, 2239.687
320.4242, 2227.091
320.9063, 2222.081
321.3884, 2226.961
321.8705, 2235.223
322.3527, 2237.432
322.8348, 2233.973
323.3169, 2226.534
323.7990, 2207.817
324.2811, 2188.915
324.7632, 2184.039
325.2454, 2195.124
325.7275, 2215.864
326.2096, 2242.952
326.6917, 2276.368
327.1738, 2304.652
327.6559, 2322.225
328.1381, 2340.260
328.6202, 2364.888
329.1023, 2394.574
329.5844, 2423.909
330.0665, 2449.319
330.5486, 2474.330
331.0308, 2509.994
331.5129, 2572.290
331.9950, 2623.670
332.4771, 2651.626
332.9592, 2672.991
333.4413, 2704.320
333.9235, 2748.846
334.4056, 2798.836
334.8877, 2844.954
335.3698, 2886.619
335.8519, 2926.256
336.3340, 2967.342
336.8162, 3003.131
337.2983, 3022.568
337.7804, 3034.441
338.2625, 3058.348
338.7446, 3108.166
339.2267, 3177.535
339.7089, 3239.425
340.1910, 3293.633
340.6731, 3339.602
341.1552, 3364.191
341.6373, 3388.766
342.1194, 3435.791
342.6016, 3510.580
343.0837, 3595.890
343.5658, 3676.572
344.0479, 3755.044
344.5300, 3806.427
345.0121, 3813.181
345.4943, 3805.484
345.9764, 3807.509
346.4585, 3811.298
346.9406, 3789.751
347.4227, 3720.886
347.9048, 3617.510
348.3870, 3507.748
348.8691, 3389.723
349.3512, 3273.006
349.8333, 3162.627
350.3154, 3057.017
350.7975, 2954.225
351.2797, 2853.353
351.7618, 2757.141
352.2439, 2666.662
352.7260, 2582.894
353.2081, 2509.369
353.6902, 2449.098
354.1724, 2395.312
354.6545, 2337.152
355.1366, 2274.206
355.6187, 2222.507
356.1008, 2193.337
356.5829, 2171.928
357.0651, 2143.011
357.5472, 2106.096
358.0293, 2069.492
358.5114, 2037.713
358.9935, 2011.180
359.4756, 1992.228
359.9578, 1985.929
360.4399, 1979.646
360.9220, 1971.099
361.4041, 1960.071
361.8862, 1945.234
362.3683, 1926.375
362.8505, 1906.834
363.3326, 1892.310
363.8147, 1885.699
364.2968, 1876.724
364.7789, 1861.963
365.2610, 1848.193
365.7432, 1839.955
366.2253, 1836.198
366.7074, 1832.730
367.1895, 1826.275
367.6716, 1817.678
368.1537, 1812.069
368.6359, 1812.989
369.1180, 1811.549
369.6001, 1802.557
370.0822, 1792.450
370.5643, 1787.978
371.0464, 1791.042
371.5286, 1796.962
372.0107, 1800.189
372.4928, 1800.562
372.9749, 1801.829
373.4570, 1808.807
373.9391, 1811.146
374.4213, 1798.178
374.9034, 1775.183
375.3855, 1758.458
375.8676, 1757.828
376.3497, 1766.680
376.8318, 1775.789
377.3140, 1785.426
377.7961, 1791.807
378.2782, 1791.781
378.7603, 1788.012
379.2424, 1784.869
379.7245, 1780.767
380.2067, 1781.979
380.6888, 1798.122
381.1709, 1820.067
381.6530, 1829.561
382.1351, 1822.337
382.6172, 1810.169
383.0994, 1804.774
383.5815, 1807.000
384.0636, 1808.042
384.5457, 1803.841
385.0278, 1802.389
385.5099, 1810.814
385.9921, 1825.198
386.4742, 1835.627
386.9563, 1836.820
387.4384, 1833.136
387.9205, 1836.084
388.4026, 1855.230
388.8848, 1866.215
389.3669, 1857.883
389.8490, 1849.924
390.3311, 1859.062
390.8132, 1884.393
391.2953, 1911.520
391.7775, 1926.862
392.2596, 1931.305
392.7417, 1941.624
393.2238, 1961.544
393.7059, 1982.194
394.1880, 2004.288
394.6702, 2024.230
395.1523, 2037.737
395.6344, 2043.307
396.1165, 2042.995
396.5986, 2039.787
397.0807, 2033.643
397.5629, 2019.729
398.0450, 1992.092
398.5271, 1963.009
399.0092, 1943.919
399.4913, 1932.719
399.9734, 1920.135
400.4556, 1899.767
400.9377, 1877.862
401.4198, 1861.539
401.9019, 1850.818
402.3840, 1844.345
402.8661, 1841.931
403.3483, 1843.008
403.8304, 1846.421
404.3125, 1853.629
404.7946, 1859.564
405.2767, 1865.424
405.7589, 1868.125
406.2410, 1859.839
406.7231, 1841.044
407.2052, 1826.604
407.6873, 1832.144
408.1694, 1859.128
408.6516, 1876.845
409.1337, 1879.563
409.6158, 1880.409
410.0979, 1882.160
410.5800, 1884.399
411.0621, 1885.700
411.5443, 1885.557
412.0264, 1885.823
412.5085, 1891.205
412.9906, 1905.462
413.4727, 1910.997
413.9548, 1892.898
414.4370, 1878.091
414.9191, 1882.730
415.4012, 1901.323
415.8833, 1916.358
416.3654, 1915.733
416.8475, 1907.567
417.3297, 1909.805
417.8118, 1924.225
418.2939, 1935.446
418.7760, 1935.951
419.2581, 1931.100
419.7402, 1928.368
420.2224, 1928.321
420.7045, 1927.496
421.1866, 1922.849
421.6687, 1916.960
422.1508, 1914.441
422.6329, 1915.809
423.1151, 1917.753
423.5972, 1919.007
424.0793, 1918.786
424.5614, 1910.436
425.0435, 1883.922
425.5256, 1862.252
426.0078, 1855.971
426.4899, 1857.181
426.9720, 1854.555
427.4541, 1845.003
427.9362, 1834.777
428.4183, 1832.803
428.9005, 1841.865
429.3826, 1846.199
429.8647, 1840.375
430.3468, 1835.480
430.8289, 1831.844
431.3110, 1832.442
431.7932, 1843.909
432.2753, 1871.079
432.7574, 1902.421
433.2395, 1916.214
433.7216, 1909.821
434.2037, 1903.046
434.6859, 1899.418
435.1680, 1896.882
435.6501, 1893.898
436.1322, 1890.514
436.6143, 1887.365
437.0964, 1883.527
437.5786, 1880.721
438.0607, 1885.319
438.5428, 1896.755
439.0249, 1897.022
439.5070, 1872.104
439.9891, 1834.793
440.4713, 1817.902
440.9534, 1830.155
441.4355, 1837.255
441.9176, 1829.831
442.3997, 1815.138
442.8818, 1796.981
443.3640, 1777.654
443.8461, 1763.775
444.3282, 1761.679
444.8103, 1770.060
445.2924, 1773.096
445.7745, 1770.704
446.2567, 1762.368
446.7388, 1741.908
447.2209, 1718.834
447.7030, 1702.251
448.1851, 1694.208
448.6672, 1691.227
449.1494, 1690.129
449.6315, 1690.905
450.1136, 1693.289
450.5957, 1697.714
451.0778, 1703.059
451.5599, 1711.202
452.0421, 1719.248
452.5242, 1721.472
453.0063, 1713.678
453.4884, 1706.472
453.9705, 1711.805
454.4526, 1725.260
454.9348, 1731.151
455.4169, 1724.529
455.8990, 1715.425
456.3811, 1716.033
456.8632, 1727.318
457.3453, 1728.333
457.8275, 1704.390
458.3096, 1684.680
458.7917, 1688.741
459.2738, 1706.862
459.7559, 1719.789
460.2380, 1719.609
460.7202, 1712.810
461.2023, 1710.569
461.6844, 1714.892
462.1665, 1718.030
462.6486, 1712.923
463.1307, 1713.542
463.6129, 1729.844
464.0950, 1756.180
464.5771, 1780.455
465.0592, 1796.085
465.5413, 1807.304
466.0234, 1821.547
466.5056, 1839.115
466.9877, 1856.103
467.4698, 1870.503
467.9519, 1885.426
468.4340, 1902.658
468.9161, 1922.372
469.3983, 1946.597
469.8804, 1981.249
470.3625, 2016.984
470.8446, 2040.448
471.3267, 2054.806
471.8088, 2079.129
472.2910, 2124.066
472.7731, 2178.764
473.2552, 2219.408
473.7373, 2237.603
474.2194, 2256.989
474.7015, 2275.284
475.1837, 2296.635
475.6658, 2325.007
476.1479, 2358.920
476.6300, 2394.892
477.1121, 2431.652
477.5942, 2466.084
478.0764, 2486.483
478.5585, 2483.245
479.0406, 2491.349
479.5227, 2523.504
480.0048, 2564.618
480.4869, 2609.212
480.9691, 2655.481
481.4512, 2698.372
481.9333, 2729.422
482.4154, 2757.459
482.8975, 2796.698
483.3796, 2847.294
483.8618, 2905.901
484.3439, 2972.742
484.8260, 3045.323
485.3081, 3119.004
485.7902, 3191.690
486.2723, 3272.441
486.7545, 3370.885
487.2366, 3472.056
487.7187, 3564.774
488.2008, 3648.991
488.6829, 3729.218
489.1650, 3809.445
489.6472, 3883.583
490.1293, 3929.984
490.6114, 3939.402
491.0935, 3937.135
491.5756, 3929.169
492.0577, 3908.614
492.5399, 3874.891
493.0220, 3825.178
493.5041, 3751.044
493.9862, 3640.888
494.4683, 3506.930
494.9504, 3373.071
495.4326, 3239.970
495.9147, 3104.386
496.3968, 2959.415
496.8789, 2817.363
497.3610, 2692.831
497.8431, 2585.975
498.3253, 2491.729
498.8074, 2412.732
499.2895, 2342.338
499.7716, 2274.443
500.2537, 2209.395
500.7358, 2150.825
501.2180, 2100.679
501.7001, 2057.065
502.1822, 2014.759
502.6643, 1971.005
503.1464, 1933.954
503.6285, 1899.839
504.1107, 1874.466
504.5928, 1868.162
505.0749, 1873.714
505.5570, 1872.296
506.0391, 1851.414
506.5212, 1820.787
507.0034, 1798.194
507.4855, 1783.952
507.9676, 1775.295
508.4497, 1774.346
508.9318, 1775.426
509.4139, 1771.740
509.8961, 1764.051
510.3782, 1759.485
510.8603, 1761.851
511.3424, 1766.274
511.8245, 1770.398
512.3066, 1773.454
512.7888, 1772.142
513.2709, 1764.724
513.7530, 1757.674
514.2351, 1762.719
514.7172, 1786.823
515.1993, 1799.546
515.6815, 1793.862
516.1636, 1785.515
516.6457, 1775.073
517.1278, 1767.673
517.6099, 1772.712
518.0920, 1794.968
518.5742, 1821.589
519.0563, 1833.601
519.5384, 1831.524
520.0205, 1834.731
520.5026, 1848.727
520.9847, 1862.455
521.4669, 1864.586
521.9490, 1859.867
522.4311, 1860.620
522.9132, 1871.220
523.3953, 1884.154
523.8774, 1897.741
524.3596, 1910.358
524.8417, 1918.062
525.3238, 1920.303
525.8059, 1921.918
526.2880, 1928.573
526.7701, 1940.214
527.2523, 1944.018
527.7344, 1935.052
528.2165, 1923.629
528.6986, 1909.070
529.1807, 1894.163
529.6628, 1883.179
530.1450, 1876.124
530.6271, 1866.072
531.1092, 1846.265
531.5913, 1818.570
532.0734, 1787.136
532.5555, 1750.095
533.0377, 1720.337
533.5198, 1708.597
534.0019, 1705.075
534.4840, 1689.364
534.9661, 1656.940
535.4482, 1629.635
535.9304, 1617.191
536.4125, 1609.470
536.8946, 1595.813
537.3767, 1577.697
537.8588, 1564.303
538.3409, 1561.394
538.8231, 1565.021
539.3052, 1564.272
539.7873, 1555.881
540.2694, 1550.915
540.7515, 1556.365
541.2336, 1559.599
541.7158, 1550.629
542.1979, 1534.156
542.6800, 1523.304
543.1621, 1526.179
543.6442, 1533.416
544.1263, 1534.467
544.6085, 1529.916
545.0906, 1521.103
545.5727, 1506.294
546.0548, 1495.257
546.5369, 1500.046
547.0190, 1521.257
547.5012, 1535.019
547.9833, 1535.787
548.4654, 1535.654
548.9475, 1538.027
549.4296, 1542.190
549.9117, 1547.907
550.3939, 1554.701
550.8760, 1560.134
551.3581, 1559.642
551.8402, 1554.414
552.3223, 1562.186
552.8044, 1591.044
553.2866, 1615.643
553.7687, 1612.456
554.2508, 1608.231
554.7329, 1635.000
555.2150, 1697.984
555.6971, 1753.853
556.1793, 1783.532
556.6614, 1793.880
557.1435, 1783.393
557.6256, 1757.859
558.1077, 1745.266
558.5898, 1760.591
559.0720, 1794.345
559.5541, 1826.604
560.0362, 1856.158
560.5183, 1886.575
561.0004, 1917.146
561.4825, 1949.039
561.9647, 1984.371
562.4468, 2021.121
562.9289, 2055.056
563.4110, 2083.330
563.8931, 2113.181
564.3752, 2156.866
564.8574, 2212.062
565.3395, 2261.406
565.8216, 2302.654
566.3037, 2338.072
566.7858, 2366.333
567.2679, 2389.948
567.7501, 2420.334
568.2322, 2460.148
568.7143, 2502.957
569.1964, 2553.198
569.6785, 2601.758
570.1606, 2642.487
570.6428, 2672.752
571.1249, 2687.370
571.6070, 2681.986
572.0891, 2659.176
572.5712, 2628.003
573.0533, 2588.439
573.5355, 2540.246
574.0176, 2477.156
574.4997, 2410.842
574.9818, 2350.670
575.4639, 2295.500
575.9460, 2237.385
576.4282, 2171.400
576.9103, 2103.839
577.3924, 2035.343
577.8745, 1969.741
578.3566, 1919.754
578.8387, 1888.924
579.3209, 1862.978
579.8030, 1824.601
580.2851, 1772.716
580.7672, 1735.178
581.2493, 1722.628
581.7314, 1712.236
582.2136, 1698.183
582.6957, 1685.837
583.1778, 1683.438
583.6599, 1690.685
584.1420, 1694.982
584.6241, 1682.329
585.1063, 1661.507
585.5884, 1652.916
586.0705, 1656.528
586.5526, 1657.974
587.0347, 1649.197
587.5168, 1640.046
587.9990, 1646.738
588.4811, 1674.081
588.9632, 1696.950
589.4453, 1711.445
589.9274, 1724.973
590.4095, 1740.219
590.8917, 1757.116
591.3738, 1775.327
591.8559, 1794.670
592.3380, 1814.456
592.8201, 1834.151
593.3022, 1853.655
593.7844, 1873.453
594.2665, 1897.020
594.7486, 1909.563
595.2307, 1897.739
595.7128, 1874.025
596.1949, 1860.721
596.6771, 1861.304
597.1592, 1855.866
597.6413, 1837.838
598.1234, 1812.314
598.6055, 1782.450
599.0876, 1748.625
599.5698, 1709.265
600.0519, 1663.543
600.5340, 1616.176
601.0161, 1574.554
601.4982, 1538.379
601.9803, 1508.983
602.4625, 1488.861
602.9446, 1472.204
603.4267, 1458.333
603.9088, 1445.356
604.3909, 1429.247
604.8730, 1407.572
605.3552, 1391.739
605.8373, 1392.769
606.3194, 1400.760
606.8015, 1401.566
607.2836, 1395.406
607.7657, 1391.502
608.2479, 1395.219
608.7300, 1403.051
609.2121, 1406.946
609.6942, 1405.014
610.1763, 1403.755
610.6584, 1398.183
611.1406, 1398.544
611.6227, 1415.364
612.1048, 1439.137
612.5869, 1453.163
613.0690, 1451.284
613.5511, 1445.201
614.0333, 1440.554
614.5154, 1439.613
614.9975, 1451.009
615.4796, 1474.823
615.9617, 1492.983
616.4438, 1492.995
616.9260, 1482.572
617.4081, 1483.719
617.8902, 1506.005
618.3723, 1522.363
618.8544, 1520.305
619.3365, 1525.053
619.8187, 1557.621
620.3008, 1604.888
620.7829, 1640.519
621.2650, 1653.946
621.7471, 1657.816
622.2292, 1664.530
622.7114, 1672.622
623.1935, 1676.963
623.6756, 1676.875
624.1577, 1674.964
624.6398, 1672.875
625.1219, 1670.149
625.6041, 1665.710
626.0862, 1665.507
626.5683, 1652.673
627.0504, 1615.008
627.5325, 1575.993
628.0146, 1547.885
628.4968, 1529.213
628.9789, 1515.420
629.4610, 1505.117
629.9431, 1494.911
630.4252, 1481.165
630.9073, 1464.111
631.3895, 1443.481
631.8716, 1418.401
632.3537, 1395.184
632.8358, 1376.970
633.3179, 1363.744
633.8000, 1356.059
634.2822, 1357.413
634.7643, 1356.677
635.2464, 1353.722
635.7285, 1347.947
636.2106, 1334.942
636.6927, 1319.581
637.1749, 1313.049
637.6570, 1320.494
638.1391, 1329.335
638.6212, 1320.435
639.1033, 1298.039
639.5854, 1287.122
640.0676, 1291.212
640.5497, 1297.554
641.0318, 1300.349
641.5139, 1299.804
641.9960, 1295.809
642.4781, 1286.587
642.9603, 1278.903
643.4424, 1271.474
643.9245, 1267.477
644.4066, 1270.683
644.8887, 1278.182
645.3708, 1284.208
645.8530, 1286.632
646.3351, 1289.478
646.8172, 1299.815
647.2993, 1315.261
647.7814, 1322.385
648.2635, 1319.809
648.7457, 1314.498
649.2278, 1307.922
649.7099, 1302.618
650.1920, 1304.805
650.6741, 1318.374
651.1563, 1325.621
651.6384, 1317.296
652.1205, 1311.325
652.6026, 1319.772
653.0847, 1335.351
653.5668, 1346.790
654.0490, 1350.641
654.5311, 1350.382
655.0132, 1348.345
655.4953, 1345.028
655.9774, 1341.854
656.4595, 1338.756
656.9417, 1337.324
657.4238, 1338.657
657.9059, 1341.090
658.3880, 1341.262
658.8701, 1337.507
659.3522, 1341.195
659.8344, 1359.960
660.3165, 1377.146
660.7986, 1383.744
661.2807, 1387.121
661.7628, 1395.724
662.2449, 1411.352
662.7271, 1431.533
663.2092, 1457.848
663.6913, 1485.542
664.1734, 1501.174
664.6555, 1505.812
665.1376, 1518.152
665.6198, 1545.244
666.1019, 1577.257
666.5840, 1603.530
667.0661, 1623.959
667.5482, 1644.563
668.0303, 1659.031
668.5125, 1681.910
668.9946, 1721.792
669.4767, 1766.923
669.9588, 1808.612
670.4409, 1845.317
670.9230, 1877.452
671.4052, 1900.780
671.8873, 1926.037
672.3694, 1976.042
672.8515, 2042.125
673.3336, 2084.614
673.8157, 2094.268
674.2979, 2101.298
674.7800, 2133.179
675.2621, 2182.886
675.7442, 2210.256
676.2263, 2201.748
676.7084, 2191.911
677.1906, 2190.291
677.6727, 2180.845
678.1548, 2151.433
678.6369, 2106.805
679.1190, 2057.628
679.6011, 2004.732
680.0833, 1957.597
680.5654, 1931.367
681.0475, 1913.804
681.5296, 1880.187
682.0117, 1829.535
682.4938, 1777.338
682.9760, 1732.169
683.4581, 1692.653
683.9402, 1655.461
684.4223, 1621.174
684.9044, 1587.658
685.3865, 1551.118
685.8687, 1520.297
686.3508, 1500.736
686.8329, 1487.641
687.3150, 1474.730
687.7971, 1461.099
688.2792, 1447.752
688.7614, 1434.180
689.2435, 1421.898
689.7256, 1414.317
690.2077, 1409.114
690.6898, 1399.353
691.1719, 1382.691
691.6541, 1364.657
692.1362, 1352.084
692.6183, 1344.609
693.1004, 1336.318
693.5825, 1326.388
694.0646, 1318.119
694.5468, 1313.751
695.0289, 1310.334
695.5110, 1305.546
695.9931, 1299.295
696.4752, 1289.317
696.9573, 1268.204
697.4395, 1251.523
697.9216, 1252.737
698.4037, 1258.485
698.8858, 1249.048
699.3679, 1225.423
699.8500, 1207.682
700.3322, 1212.129
700.8143, 1227.330
701.2964, 1228.782
701.7785, 1217.109
702.2606, 1207.647
702.7427, 1203.150
703.2249, 1200.527
703.7070, 1196.831
704.1891, 1193.276
704.6712, 1195.440
705.1533, 1218.328
705.6354, 1223.148
706.1176, 1189.930
706.5997, 1156.298
707.0818, 1145.537
707.5639, 1150.511
708.0460, 1155.141
708.5281, 1154.019
709.0103, 1150.783
709.4924, 1146.902
709.9745, 1143.744
710.4566, 1144.685
710.9387, 1149.404
711.4208, 1154.858
711.9030, 1160.028
712.3851, 1162.823
712.8672, 1159.360
713.3493, 1148.625
713.8314, 1140.882
714.3135, 1137.844
714.7957, 1135.095
715.2778, 1130.249
715.7599, 1125.955
716.2420, 1124.939
716.7241, 1127.094
717.2062, 1129.619
717.6884, 1132.049
718.1705, 1134.033
718.6526, 1135.852
719.1347, 1136.849
719.6168, 1134.540
720.0989, 1129.604
720.5811, 1127.591
721.0632, 1133.065
721.5453, 1143.073
722.0274, 1151.109
722.5095, 1157.332
722.9916, 1159.172
723.4738, 1155.501
723.9559, 1149.328
724.4380, 1141.803
724.9201, 1133.467
725.4022, 1126.150
725.8843, 1118.957
726.3665, 1114.488
726.8486, 1115.570
727.3307, 1116.769
727.8128, 1114.760
728.2949, 1110.840
728.7770, 1107.975
729.2592, 1106.973
729.7413, 1104.526
730.2234, 1093.975
730.7055, 1081.995
731.1876, 1082.711
731.6697, 1094.116
732.1519, 1104.490
732.6340, 1110.102
733.1161, 1109.281
733.5982, 1097.926
734.0803, 1077.108
734.5624, 1072.270
735.0446, 1095.315
735.5267, 1109.889
736.0088, 1099.124
736.4909, 1086.284
736.9730, 1091.173
737.4551, 1108.347
737.9373, 1116.328
738.4194, 1103.625
738.9015, 1092.920
739.3836, 1096.866
739.8657, 1105.715
740.3478, 1108.982
740.8300, 1107.694
741.3121, 1109.390
741.7942, 1117.913
742.2763, 1127.559
742.7584, 1130.506
743.2405, 1127.416
743.7227, 1120.901
744.2048, 1110.523
744.6869, 1103.993
745.1690, 1105.716
745.6511, 1110.922
746.1332, 1111.762
746.6154, 1106.538
747.0975, 1108.167
747.5796, 1125.482
748.0617, 1138.342
748.5438, 1140.216
749.0259, 1137.762
749.5081, 1137.496
749.9902, 1139.071
750.4723, 1137.038
750.9544, 1125.483
751.4365, 1114.700
751.9186, 1112.254
752.4008, 1115.877
752.8829, 1124.738
753.3650, 1136.754
753.8471, 1144.166
754.3292, 1141.975
754.8113, 1134.721
755.2935, 1130.432
755.7756, 1129.089
756.2577, 1131.917
756.7398, 1140.776
757.2219, 1146.905
757.7040, 1143.833
758.1862, 1137.734
758.6683, 1139.861
759.1504, 1153.173
759.6325, 1161.778
760.1146, 1159.834
760.5967, 1160.271
761.0789, 1170.508
761.5610, 1183.020
762.0431, 1189.653
762.5252, 1190.203
763.0073, 1190.390
763.4894, 1193.456
763.9716, 1197.001
764.4537, 1198.408
764.9358, 1198.691
765.4179, 1198.967
765.9000, 1199.900
766.3821, 1204.236
766.8643, 1213.940
767.3464, 1226.569
767.8285, 1237.825
768.3106, 1248.103
768.7927, 1251.649
769.2748, 1245.616
769.7570, 1240.078
770.2391, 1238.325
770.7212, 1240.894
771.2033, 1249.934
771.6854, 1266.901
772.1675, 1280.762
772.6497, 1293.546
773.1318, 1300.113
773.6139, 1292.775
774.0960, 1282.540
774.5781, 1280.900
775.0602, 1287.744
775.5424, 1294.975
776.0245, 1298.893
776.5066, 1300.925
776.9887, 1302.935
777.4708, 1303.829
777.9529, 1301.568
778.4351, 1295.982
778.9172, 1287.163
779.3993, 1274.772
779.8814, 1262.017
780.3635, 1255.518
780.8456, 1255.611
781.3278, 1252.672
781.8099, 1246.886
782.2920, 1236.190
782.7741, 1216.673
783.2562, 1195.610
783.7383, 1182.095
784.2205, 1176.433
784.7026, 1176.111
785.1847, 1190.344
785.6668, 1197.530
786.1489, 1189.444
786.6310, 1175.521
787.1132, 1159.121
787.5953, 1143.851
788.0774, 1138.347
788.5595, 1149.218
789.0416, 1161.338
789.5237, 1164.703
790.0059, 1162.098
790.4880, 1157.825
790.9701, 1151.231
791.4522, 1136.220
791.9343, 1110.334
792.4164, 1086.166
792.8986, 1082.938
793.3807, 1096.413
793.8628, 1099.373
794.3449, 1091.094
794.8270, 1079.862
795.3091, 1065.905
795.7913, 1056.639
796.2734, 1062.240
796.7555, 1080.094
797.2376, 1084.431
797.7197, 1063.740
798.2018, 1048.096
798.6840, 1037.081
799.1661, 1033.530
799.6482, 1045.528
800.1303, 1064.321
800.6124, 1072.874
801.0945, 1066.383
801.5767, 1059.387
802.0588, 1060.217
802.5409, 1060.703
803.0230, 1050.205
803.5051, 1036.327
803.9872, 1034.801
804.4694, 1047.482
804.9515, 1058.464
805.4336, 1053.240
805.9157, 1040.860
806.3978, 1039.727
806.8799, 1046.885
807.3621, 1045.864
807.8442, 1033.978
808.3263, 1026.151
808.8084, 1033.439
809.2905, 1047.751
809.7726, 1048.576
810.2548, 1031.631
810.7369, 1020.495
811.2190, 1016.383
811.7011, 1015.851
812.1832, 1019.250
812.6653, 1024.323
813.1475, 1028.779
813.6296, 1032.651
814.1117, 1034.089
814.5938, 1028.382
815.0759, 1026.164
815.5580, 1032.722
816.0402, 1042.102
816.5223, 1049.237
817.0044, 1054.649
817.4865, 1062.755
817.9686, 1077.244
818.4507, 1086.172
818.9329, 1073.968
819.4150, 1055.081
819.8971, 1047.911
820.3792, 1051.289
820.8613, 1059.026
821.3434, 1068.561
821.8256, 1076.450
822.3077, 1079.704
822.7898, 1078.109
823.2719, 1067.870
823.7540, 1049.156
824.2361, 1039.981
824.7183, 1044.964
825.2004, 1055.435
825.6825, 1067.145
826.1646, 1076.952
826.6467, 1072.854
827.1288, 1042.951
827.6110, 1030.982
828.0931, 1049.127
828.5752, 1068.317
829.0573, 1078.369
829.5394, 1082.435
830.0215, 1082.668
830.5037, 1079.136
830.9858, 1077.528
831.4679, 1082.227
831.9500, 1084.761
832.4321, 1075.442
832.9142, 1067.602
833.3964, 1079.229
833.8785, 1103.768
834.3606, 1117.314
834.8427, 1108.042
835.3248, 1095.908
835.8069, 1098.203
836.2891, 1107.041
836.7712, 1110.819
837.2533, 1110.830
837.7354, 1114.750
838.2175, 1124.551
838.6996, 1132.184
839.1818, 1127.652
839.6639, 1116.432
840.1460, 1117.187
840.6281, 1129.329
841.1102, 1138.802
841.5923, 1143.258
842.0745, 1142.316
842.5566, 1134.005
843.0387, 1123.027
843.5208, 1121.027
844.0029, 1129.067
844.4850, 1142.912
844.9672, 1170.556
845.4493, 1189.941
845.9314, 1187.433
846.4135, 1177.704
846.8956, 1176.012
847.3777, 1182.013
847.8599, 1190.310
848.3420, 1203.000
848.8241, 1214.417
849.3062, 1222.287
849.7883, 1229.393
850.2704, 1238.090
850.7526, 1247.535
851.2347, 1254.867
851.7168, 1258.871
852.1989, 1265.586
852.6810, 1280.752
853.1631, 1298.375
853.6453, 1311.773
854.1274, 1323.680
854.6095, 1341.215
855.0916, 1364.204
855.5737, 1383.484
856.0558, 1391.181
856.5380, 1394.800
857.0201, 1405.828
857.5022, 1422.956
857.9843, 1440.621
858.4664, 1458.764
858.9485, 1485.592
859.4307, 1525.739
859.9128, 1568.428
860.3949, 1597.123
860.8770, 1613.049
861.3591, 1637.937
861.8412, 1674.391
862.3234, 1704.990
862.8055, 1722.633
863.2876, 1741.021
863.7697, 1771.884
864.2518, 1811.910
864.7339, 1848.203
865.2161, 1877.827
865.6982, 1910.218
866.1803, 1948.935
866.6624, 1986.074
867.1445, 2011.751
867.6266, 2038.994
868.1088, 2088.992
868.5909, 2160.763
869.0730, 2214.400
869.5551, 2238.896
870.0372, 2247.917
870.5193, 2234.295
871.0015, 2216.935
871.4836, 2217.865
871.9657, 2226.946
872.4478, 2217.951
872.9299, 2181.752
873.4120, 2136.547
873.8942, 2090.136
874.3763, 2044.223
874.8584, 2000.948
875.3405, 1959.005
875.8226, 1914.910
876.3047, 1868.902
876.7869, 1826.814
877.2690, 1793.651
877.7511, 1762.117
878.2332, 1716.645
878.7153, 1663.886
879.1974, 1623.560
879.6796, 1596.918
880.1617, 1580.388
880.6438, 1572.866
881.1259, 1567.386
881.6080, 1554.503
882.0901, 1536.548
882.5723, 1528.445
883.0544, 1531.341
883.5365, 1531.418
884.0186, 1524.550
884.5007, 1521.604
884.9828, 1531.307
885.4650, 1548.019
885.9471, 1558.469
886.4292, 1561.430
886.9113, 1563.266
887.3934, 1564.467
887.8755, 1563.583
888.3577, 1558.173
888.8398, 1552.355
889.3219, 1549.952
889.8040, 1550.644
890.2861, 1552.793
890.7682, 1560.800
891.2504, 1563.323
891.7325, 1550.343
892.2146, 1541.221
892.6967, 1553.479
893.1788, 1572.224
893.6609, 1572.609
894.1431, 1552.045
894.6252, 1539.501
895.1073, 1554.573
895.5894, 1569.004
896.0715, 1566.045
896.5536, 1557.280
897.0358, 1552.846
897.5179, 1553.757
898.0000, 1559.207
898.4821, 1569.257
898.9642, 1578.988
899.4464, 1585.074
899.9285, 1588.393
900.4106, 1587.688
900.8927, 1585.780
901.3748, 1588.239
901.8569, 1595.913
902.3391, 1606.444
902.8212, 1618.976
903.3033, 1630.935
903.7854, 1638.468
904.2675, 1642.403
904.7496, 1640.633
905.2318, 1635.865
905.7139, 1646.000
906.1960, 1677.252
906.6781, 1714.021
907.1602, 1740.311
907.6423, 1758.735
908.1245, 1778.222
908.6066, 1798.706
909.0887, 1817.034
909.5708, 1831.784
910.0529, 1854.624
910.5350, 1892.892
911.0172, 1939.361
911.4993, 1982.020
911.9814, 2020.713
912.4635, 2063.689
912.9456, 2112.882
913.4277, 2158.665
913.9099, 2194.521
914.3920, 2236.248
914.8741, 2296.125
915.3562, 2371.052
915.8383, 2453.668
916.3204, 2553.929
916.8026, 2633.284
917.2847, 2661.891
917.7668, 2713.145
918.2489, 2829.347
918.7310, 2961.712
919.2131, 3063.545
919.6953, 3139.902
920.1774, 3223.087
920.6595, 3328.428
921.1416, 3418.305
921.6237, 3467.823
922.1058, 3523.989
922.5880, 3622.412
923.0701, 3734.409
923.5522, 3824.156
924.0343, 3887.490
924.5164, 3939.651
924.9985, 3984.704
925.4807, 4019.360
925.9628, 4054.195
926.4449, 4067.542
926.9270, 4033.958
927.4091, 3966.730
927.8912, 3896.865
928.3734, 3832.229
928.8555, 3745.947
929.3376, 3611.274
929.8197, 3462.219
930.3018, 3321.571
930.7839, 3184.603
931.2661, 3041.153
931.7482, 2895.828
932.2303, 2767.409
932.7124, 2664.270
933.1945, 2566.827
933.6766, 2453.666
934.1588, 2338.926
934.6409, 2240.340
935.1230, 2153.903
935.6051, 2068.052
936.0872, 1982.591
936.5693, 1908.182
937.0515, 1852.782
937.5336, 1806.864
938.0157, 1757.272
938.4978, 1708.402
938.9799, 1671.225
939.4620, 1644.233
939.9442, 1619.694
940.4263, 1595.371
940.9084, 1574.784
941.3905, 1562.413
941.8726, 1551.685
942.3547, 1524.566
942.8369, 1486.093
943.3190, 1465.191
943.8011, 1462.612
944.2832, 1456.580
944.7653, 1438.367
945.2474, 1417.748
945.7296, 1405.906
946.2117, 1400.226
946.6938, 1390.114
947.1759, 1375.705
947.6580, 1363.097
948.1401, 1353.055
948.6223, 1345.440
949.1044, 1340.552
949.5865, 1336.397
950.0686, 1330.527
950.5507, 1322.725
951.0328, 1307.944
951.5150, 1283.405
951.9971, 1272.533
952.4792, 1282.953
952.9613, 1293.134
953.4434, 1289.323
953.9255, 1278.142
954.4077, 1272.566
954.8898, 1273.374
955.3719, 1268.969
955.8540, 1257.560
956.3361, 1245.858
956.8182, 1233.123
957.3004, 1224.832
957.7825, 1225.625
958.2646, 1233.376
958.7467, 1243.644
959.2288, 1259.212
959.7109, 1265.141
960.1931, 1255.405
960.6752, 1247.469
961.1573, 1245.047
961.6394, 1246.929
962.1215, 1252.464
962.6036, 1261.518
963.0858, 1274.739
963.5679, 1300.850
964.0500, 1309.133
964.5321, 1281.425
965.0142, 1261.122
965.4963, 1267.181
965.9785, 1281.157
966.4606, 1283.431
966.9427, 1277.910
967.4248, 1285.161
967.9069, 1318.237
968.3890, 1340.577
968.8712, 1344.409
969.3533, 1345.235
969.8354, 1343.129
970.3175, 1344.760
970.7996, 1360.051
971.2817, 1386.947
971.7639, 1408.471
972.2460, 1420.557
972.7281, 1431.103
973.2102, 1435.547
973.6923, 1444.968
974.1744, 1468.789
974.6566, 1498.002
975.1387, 1521.530
975.6208, 1539.019
976.1029, 1557.631
976.5850, 1576.478
977.0671, 1599.571
977.5493, 1633.313
978.0314, 1665.417
978.5135, 1690.655
978.9956, 1708.915
979.4777, 1717.850
979.9598, 1718.338
980.4420, 1723.680
980.9241, 1744.952
981.4062, 1760.782
981.8883, 1764.177
982.3704, 1760.826
982.8525, 1751.486
983.3347, 1739.508
983.8168, 1730.960
984.2989, 1726.226
984.7810, 1715.267
985.2631, 1688.555
985.7452, 1663.622
986.2274, 1651.616
986.7095, 1639.313
987.1916, 1614.710
987.6737, 1583.329
988.1558, 1556.041
988.6379, 1534.695
989.1201, 1511.485
989.6022, 1477.879
990.0843, 1449.271
990.5664, 1438.991
991.0485, 1430.116
991.5306, 1406.209
992.0128, 1373.867
992.4949, 1346.341
992.9770, 1326.377
993.4591, 1311.048
993.9412, 1302.802
994.4233, 1294.271
994.9055, 1279.289
995.3876, 1264.778
995.8697, 1258.888
996.3518, 1257.526
996.8339, 1250.450
997.3160, 1235.599
997.7982, 1225.243
998.2803, 1228.766
998.7624, 1233.003
999.2445, 1230.503
999.7266, 1226.339
1000.209, 1226.023
1000.691, 1227.478
1001.173, 1226.267
1001.655, 1221.340
1002.137, 1212.431
1002.619, 1194.758
1003.101, 1178.837
1003.584, 1168.783
1004.066, 1164.140
1004.548, 1167.445
1005.030, 1174.717
1005.512, 1177.607
1005.994, 1174.258
1006.476, 1173.750
1006.958, 1188.956
1007.440, 1196.685
1007.923, 1177.273
1008.405, 1152.070
1008.887, 1138.311
1009.369, 1134.720
1009.851, 1137.957
1010.333, 1147.075
1010.815, 1149.513
1011.297, 1132.226
1011.780, 1117.172
1012.262, 1116.208
1012.744, 1120.820
1013.226, 1126.137
1013.708, 1130.333
1014.190, 1130.121
1014.672, 1124.988
1015.154, 1123.627
1015.636, 1132.182
1016.119, 1141.360
1016.601, 1150.716
1017.083, 1155.880
1017.565, 1149.983
1018.047, 1138.748
1018.529, 1132.067
1019.011, 1131.627
1019.493, 1134.036
1019.976, 1143.832
1020.458, 1148.576
1020.940, 1139.882
1021.422, 1128.302
1021.904, 1121.011
1022.386, 1116.560
1022.868, 1110.928
1023.350, 1103.745
1023.832, 1100.203
1024.315, 1099.768
1024.797, 1105.979
1025.279, 1125.605
1025.761, 1146.180
1026.243, 1163.188
1026.725, 1174.083
1027.207, 1172.556
1027.689, 1159.128
1028.172, 1153.294
1028.654, 1165.980
1029.136, 1176.073
1029.618, 1179.744
1030.100, 1179.105
1030.582, 1170.749
1031.064, 1161.507
1031.546, 1163.256
1032.028, 1175.174
1032.510, 1177.560
1032.993, 1157.575
1033.475, 1144.158
1033.957, 1144.525
1034.439, 1147.238
1034.921, 1147.311
1035.403, 1146.941
1035.885, 1149.777
1036.367, 1155.216
1036.850, 1157.087
1037.332, 1149.193
1037.814, 1147.730
1038.296, 1161.165
1038.778, 1170.416
1039.260, 1165.740
1039.742, 1156.940
1040.224, 1153.308
1040.707, 1153.878
1041.189, 1153.592
1041.671, 1151.492
1042.153, 1150.510
1042.635, 1147.212
1043.117, 1151.976
1043.599, 1176.633
1044.081, 1198.248
1044.563, 1194.002
1045.046, 1171.954
1045.528, 1158.915
1046.010, 1156.285
1046.492, 1157.760
1046.974, 1164.879
1047.456, 1171.955
1047.938, 1177.196
1048.420, 1183.217
1048.903, 1193.714
1049.385, 1204.111
1049.867, 1202.632
1050.349, 1187.883
1050.831, 1176.785
1051.313, 1169.317
1051.795, 1165.971
1052.277, 1167.406
1052.760, 1171.001
1053.242, 1175.870
1053.724, 1179.545
1054.206, 1177.265
1054.688, 1169.486
1055.170, 1161.699
1055.652, 1153.770
1056.134, 1149.676
1056.616, 1149.939
1057.099, 1157.422
1057.581, 1174.612
1058.063, 1191.158
1058.545, 1191.225
1059.027, 1181.083
1059.509, 1186.715
1059.991, 1205.910
1060.473, 1222.007
1060.955, 1233.165
1061.438, 1242.144
1061.920, 1250.125
1062.402, 1255.913
1062.884, 1257.917
1063.366, 1257.730
1063.848, 1257.761
1064.330, 1258.539
1064.812, 1257.923
1065.294, 1259.223
1065.777, 1282.553
1066.259, 1329.750
1066.741, 1362.372
1067.223, 1348.280
1067.705, 1318.333
1068.187, 1310.722
1068.669, 1315.236
1069.151, 1315.031
1069.634, 1312.918
1070.116, 1321.351
1070.598, 1339.004
1071.080, 1346.953
1071.562, 1333.353
1072.044, 1317.685
1072.526, 1317.491
1073.008, 1322.108
1073.490, 1321.857
1073.973, 1318.930
1074.455, 1315.522
1074.937, 1313.249
1075.419, 1316.303
1075.901, 1326.971
1076.383, 1334.023
1076.865, 1328.932
1077.347, 1321.901
1077.830, 1317.840
1078.312, 1315.543
1078.794, 1311.932
1079.276, 1309.673
1079.758, 1315.715
1080.240, 1331.473
1080.722, 1345.045
1081.204, 1353.163
1081.687, 1358.975
1082.169, 1365.094
1082.651, 1367.197
1083.133, 1350.393
1083.615, 1335.000
1084.097, 1355.708
1084.579, 1411.566
1085.061, 1452.019
1085.543, 1471.103
1086.026, 1481.626
1086.508, 1477.202
1086.990, 1474.167
1087.472, 1476.171
1087.954, 1484.664
1088.436, 1503.466
1088.918, 1529.147
1089.400, 1549.372
1089.882, 1565.686
1090.365, 1567.438
1090.847, 1547.230
1091.329, 1543.410
1091.811, 1571.615
1092.293, 1594.793
1092.775, 1585.007
1093.257, 1557.469
1093.739, 1541.258
1094.221, 1535.271
1094.704, 1527.162
1095.186, 1516.854
1095.668, 1499.280
1096.150, 1474.016
1096.632, 1457.965
1097.114, 1459.960
1097.596, 1459.428
1098.078, 1427.054
1098.561, 1382.047
1099.043, 1376.464
1099.525, 1394.975
1100.007, 1389.422
1100.489, 1361.398
1100.971, 1333.430
1101.453, 1313.979
1101.935, 1309.616
1102.417, 1331.466
1102.900, 1351.110
1103.382, 1326.272
1103.864, 1289.161
1104.346, 1283.350
1104.828, 1297.055
1105.310, 1308.215
1105.792, 1312.260
1106.274, 1311.189
1106.757, 1305.385
1107.239, 1296.890
1107.721, 1281.496
1108.203, 1270.196
1108.685, 1275.995
1109.167, 1283.894
1109.649, 1275.412
1110.131, 1258.100
1110.614, 1252.307
1111.096, 1261.994
1111.578, 1267.799
1112.060, 1260.186
1112.542, 1256.920
1113.024, 1267.121
1113.506, 1276.018
1113.988, 1274.245
1114.470, 1268.268
1114.953, 1266.744
1115.435, 1268.345
1115.917, 1261.768
1116.399, 1240.450
1116.881, 1230.165
1117.363, 1235.500
1117.845, 1239.081
1118.327, 1233.873
1118.809, 1231.922
1119.292, 1244.554
1119.774, 1262.960
1120.256, 1266.164
1120.738, 1255.240
1121.220, 1254.953
1121.702, 1264.634
1122.184, 1262.281
1122.666, 1244.914
1123.148, 1231.134
1123.631, 1229.943
1124.113, 1237.761
1124.595, 1254.135
1125.077, 1271.818
1125.559, 1273.217
1126.041, 1266.074
1126.523, 1270.344
1127.005, 1282.196
1127.488, 1283.356
1127.970, 1271.180
1128.452, 1262.070
1128.934, 1266.655
1129.416, 1273.470
1129.898, 1275.768
1130.380, 1273.539
1130.862, 1261.487
1131.344, 1248.636
1131.827, 1247.675
1132.309, 1256.252
1132.791, 1264.100
1133.273, 1269.096
1133.755, 1270.866
1134.237, 1267.566
1134.719, 1263.505
1135.201, 1254.974
1135.684, 1251.442
1136.166, 1265.502
1136.648, 1284.156
1137.130, 1287.024
1137.612, 1275.693
1138.094, 1270.454
1138.576, 1271.805
1139.058, 1279.220
1139.541, 1297.623
1140.023, 1306.561
1140.505, 1297.956
1140.987, 1283.196
1141.469, 1269.977
1141.951, 1260.155
1142.433, 1259.185
1142.915, 1265.747
1143.397, 1264.625
1143.880, 1257.464
1144.362, 1262.197
1144.844, 1279.897
1145.326, 1293.863
1145.808, 1296.688
1146.290, 1292.916
1146.772, 1285.203
1147.254, 1276.333
1147.736, 1269.565
1148.219, 1264.812
1148.701, 1262.888
1149.183, 1262.572
1149.665, 1259.585
1150.147, 1255.013
1150.629, 1258.917
1151.111, 1279.702
1151.593, 1292.239
1152.075, 1271.738
1152.558, 1254.251
1153.040, 1263.942
1153.522, 1281.796
1154.004, 1293.768
1154.486, 1299.000
1154.968, 1297.733
1155.450, 1289.570
1155.932, 1280.148
1156.415, 1261.238
1156.897, 1258.418
1157.379, 1284.411
1157.861, 1304.563
1158.343, 1305.380
1158.825, 1294.766
1159.307, 1276.854
1159.789, 1258.181
1160.271, 1261.527
1160.754, 1286.661
1161.236, 1297.279
1161.718, 1293.944
1162.200, 1290.966
1162.682, 1290.995
1163.164, 1289.542
1163.646, 1284.340
1164.128, 1282.264
1164.611, 1294.963
1165.093, 1309.018
1165.575, 1299.084
1166.057, 1279.045
1166.539, 1270.393
1167.021, 1271.413
1167.503, 1273.409
1167.985, 1275.345
1168.468, 1284.592
1168.950, 1309.731
1169.432, 1321.764
1169.914, 1287.604
1170.396, 1260.973
1170.878, 1279.625
1171.360, 1308.160
1171.842, 1316.581
1172.324, 1311.359
1172.807, 1307.295
1173.289, 1304.715
1173.771, 1309.944
1174.253, 1330.143
1174.735, 1339.662
1175.217, 1334.235
1175.699, 1325.222
1176.181, 1315.135
1176.663, 1307.714
1177.146, 1306.382
1177.628, 1309.234
1178.110, 1313.910
1178.592, 1319.262
1179.074, 1317.196
1179.556, 1308.821
1180.038, 1295.675
1180.520, 1281.131
1181.002, 1280.441
1181.485, 1298.886
1181.967, 1322.415
1182.449, 1343.791
1182.931, 1357.802
1183.413, 1354.312
1183.895, 1345.619
1184.377, 1345.936
1184.859, 1348.661
1185.342, 1342.358
1185.824, 1328.227
1186.306, 1314.306
1186.788, 1300.314
1187.270, 1296.775
1187.752, 1318.320
1188.234, 1331.462
1188.716, 1322.377
1189.198, 1313.550
1189.681, 1317.413
1190.163, 1324.492
1190.645, 1322.469
1191.127, 1314.475
1191.609, 1315.883
1192.091, 1327.460
1192.573, 1330.941
1193.055, 1326.022
1193.538, 1323.622
1194.020, 1325.928
1194.502, 1326.768
1194.984, 1322.652
1195.466, 1320.404
1195.948, 1332.440
1196.430, 1344.797
1196.912, 1331.770
1197.395, 1309.339
1197.877, 1298.518
1198.359, 1298.457
1198.841, 1305.035
1199.323, 1316.155
1199.805, 1327.989
1200.287, 1340.865
1200.769, 1348.794
1201.251, 1345.529
1201.734, 1343.110
1202.216, 1349.408
1202.698, 1353.854
1203.180, 1347.897
1203.662, 1337.701
1204.144, 1331.462
1204.626, 1329.050
1205.108, 1330.602
1205.590, 1337.314
1206.073, 1336.688
1206.555, 1327.811
1207.037, 1319.218
1207.519, 1313.093
1208.001, 1309.776
1208.483, 1309.366
1208.965, 1313.630
1209.447, 1329.134
1209.929, 1346.298
1210.412, 1347.439
1210.894, 1341.352
1211.376, 1342.090
1211.858, 1347.279
1212.340, 1349.378
1212.822, 1347.302
1213.304, 1343.847
1213.786, 1338.032
1214.269, 1337.278
1214.751, 1352.619
1215.233, 1361.372
1215.715, 1346.419
1216.197, 1332.906
1216.679, 1338.405
1217.161, 1351.813
1217.643, 1358.674
1218.125, 1359.181
1218.608, 1352.130
1219.090, 1336.253
1219.572, 1338.875
1220.054, 1360.661
1220.536, 1369.602
1221.018, 1359.061
1221.500, 1347.478
1221.982, 1345.061
1222.465, 1347.395
1222.947, 1351.109
1223.429, 1355.325
1223.911, 1360.313
1224.393, 1364.013
1224.875, 1365.192
1225.357, 1362.352
1225.839, 1350.064
1226.322, 1331.087
1226.804, 1319.008
1227.286, 1316.385
1227.768, 1322.786
1228.250, 1354.193
1228.732, 1369.059
1229.214, 1349.312
1229.696, 1331.073
1230.178, 1333.076
1230.661, 1342.429
1231.143, 1344.906
1231.625, 1342.205
1232.107, 1338.228
1232.589, 1333.776
1233.071, 1337.514
1233.553, 1347.534
1234.035, 1351.952
1234.517, 1349.963
1235.000, 1350.288
1235.482, 1356.058
1235.964, 1356.833
1236.446, 1338.246
1236.928, 1323.917
1237.410, 1336.543
1237.892, 1354.731
1238.374, 1364.143
1238.856, 1367.738
1239.339, 1370.137
1239.821, 1370.599
1240.303, 1363.947
1240.785, 1348.731
1241.267, 1342.622
1241.749, 1349.966
1242.231, 1350.484
1242.713, 1339.913
1243.196, 1336.054
1243.678, 1345.422
1244.160, 1359.104
1244.642, 1370.616
1245.124, 1379.958
##END=



