##NAMES=Zoisite
##RRUFFID=X060001
##IDEAL CHEMISTRY=Ca_2_Al_3_(Si_2_O_7_)(SiO_4_)O(OH)
##LOCALITY=unknown
##OWNER=
##SOURCE=Michael Scott
##DESCRIPTION=Colorless to blue bicolored gem stone
##STATUS=The identification of this mineral has been determined only by Raman spectroscopy
##URL=rruff.info/X060001
115.2599, 245.9867
115.7420, 267.1214
116.2241, 282.3727
116.7062, 291.2870
117.1884, 297.9941
117.6705, 300.9937
118.1526, 302.2660
118.6347, 311.0159
119.1168, 336.5393
119.5989, 365.7380
120.0811, 377.9867
120.5632, 368.1789
121.0453, 354.3691
121.5274, 348.3214
122.0095, 349.9799
122.4916, 356.8172
122.9738, 369.2452
123.4559, 386.1623
123.9380, 407.6496
124.4201, 436.8548
124.9022, 464.5136
125.3843, 478.6407
125.8665, 476.9352
126.3486, 473.4148
126.8307, 468.3720
127.3128, 466.5792
127.7949, 474.3557
128.2770, 496.0196
128.7592, 524.8495
129.2413, 548.1686
129.7234, 561.7399
130.2055, 580.2488
130.6876, 615.4229
131.1697, 656.3450
131.6519, 689.7936
132.1340, 708.8619
132.6161, 717.1995
133.0982, 726.3303
133.5803, 738.9330
134.0624, 747.7520
134.5446, 750.5560
135.0267, 748.7299
135.5088, 743.9689
135.9909, 736.6204
136.4730, 727.2531
136.9551, 719.2649
137.4373, 711.0493
137.9194, 706.5393
138.4015, 709.1152
138.8836, 715.9844
139.3657, 721.4966
139.8478, 720.0122
140.3300, 711.8146
140.8121, 715.0783
141.2942, 742.9171
141.7763, 771.0278
142.2584, 790.3544
142.7405, 804.2311
143.2227, 821.1914
143.7048, 847.3310
144.1869, 881.9736
144.6690, 932.5836
145.1511, 1005.486
145.6333, 1087.186
146.1154, 1179.921
146.5975, 1279.042
147.0796, 1375.223
147.5617, 1460.329
148.0438, 1536.250
148.5260, 1590.120
149.0081, 1623.838
149.4902, 1639.439
149.9723, 1633.615
150.4544, 1608.822
150.9365, 1572.972
151.4187, 1534.475
151.9008, 1493.438
152.3829, 1447.156
152.8650, 1390.297
153.3471, 1333.023
153.8292, 1280.235
154.3114, 1232.914
154.7935, 1190.603
155.2756, 1152.816
155.7577, 1119.361
156.2398, 1093.168
156.7219, 1080.216
157.2041, 1069.872
157.6862, 1052.674
158.1683, 1027.679
158.6504, 1002.973
159.1325, 988.7220
159.6146, 988.9600
160.0968, 991.8419
160.5789, 1003.807
161.0610, 1014.663
161.5431, 1014.436
162.0252, 1001.230
162.5073, 981.9506
162.9895, 964.9721
163.4716, 948.6962
163.9537, 940.4789
164.4358, 946.6286
164.9179, 957.9790
165.4000, 963.9128
165.8822, 961.7628
166.3643, 959.6196
166.8464, 970.4719
167.3285, 1000.437
167.8106, 1024.271
168.2927, 1039.166
168.7749, 1046.905
169.2570, 1047.242
169.7391, 1039.613
170.2212, 1030.377
170.7033, 1029.202
171.1854, 1037.528
171.6676, 1047.695
172.1497, 1059.046
172.6318, 1071.453
173.1139, 1084.038
173.5960, 1096.341
174.0781, 1110.655
174.5603, 1131.233
175.0424, 1158.904
175.5245, 1187.467
176.0066, 1218.588
176.4887, 1249.181
176.9708, 1274.325
177.4530, 1292.639
177.9351, 1306.310
178.4172, 1318.544
178.8993, 1330.398
179.3814, 1337.423
179.8635, 1333.841
180.3457, 1325.773
180.8278, 1322.234
181.3099, 1325.214
181.7920, 1334.173
182.2741, 1349.346
182.7562, 1369.962
183.2384, 1395.527
183.7205, 1425.387
184.2026, 1460.124
184.6847, 1501.998
185.1668, 1552.198
185.6489, 1606.713
186.1311, 1660.702
186.6132, 1714.206
187.0953, 1767.213
187.5774, 1815.435
188.0595, 1863.948
188.5416, 1924.642
189.0238, 2004.266
189.5059, 2085.907
189.9880, 2151.032
190.4701, 2202.814
190.9522, 2232.451
191.4343, 2227.226
191.9165, 2199.941
192.3986, 2174.359
192.8807, 2156.791
193.3628, 2137.496
193.8449, 2102.304
194.3270, 2052.474
194.8092, 1999.625
195.2913, 1945.335
195.7734, 1890.521
196.2555, 1836.797
196.7376, 1784.143
197.2197, 1733.069
197.7019, 1683.138
198.1840, 1633.777
198.6661, 1590.414
199.1482, 1558.505
199.6303, 1532.481
200.1124, 1502.187
200.5946, 1464.513
201.0767, 1427.070
201.5588, 1397.556
202.0409, 1374.976
202.5230, 1359.515
203.0051, 1354.325
203.4873, 1355.454
203.9694, 1356.796
204.4515, 1357.155
204.9336, 1358.984
205.4157, 1362.067
205.8978, 1366.881
206.3800, 1383.389
206.8621, 1422.491
207.3442, 1471.833
207.8263, 1510.984
208.3084, 1535.302
208.7905, 1563.296
209.2727, 1612.772
209.7548, 1681.224
210.2369, 1759.771
210.7190, 1850.463
211.2011, 1948.363
211.6832, 2048.583
212.1654, 2150.732
212.6475, 2252.023
213.1296, 2358.941
213.6117, 2465.838
214.0938, 2537.430
214.5759, 2557.273
215.0581, 2545.238
215.5402, 2520.750
216.0223, 2485.144
216.5044, 2433.919
216.9865, 2356.391
217.4686, 2257.760
217.9508, 2165.557
218.4329, 2080.422
218.9150, 2004.433
219.3971, 1940.723
219.8792, 1888.988
220.3613, 1844.337
220.8435, 1802.883
221.3256, 1766.650
221.8077, 1740.133
222.2898, 1734.838
222.7719, 1730.338
223.2540, 1709.424
223.7362, 1673.673
224.2183, 1638.209
224.7004, 1612.320
225.1825, 1594.032
225.6646, 1573.832
226.1467, 1548.897
226.6289, 1524.580
227.1110, 1504.432
227.5931, 1487.692
228.0752, 1471.129
228.5573, 1452.745
229.0394, 1433.667
229.5216, 1417.605
230.0037, 1404.025
230.4858, 1393.665
230.9679, 1389.784
231.4500, 1389.820
231.9321, 1385.911
232.4143, 1373.257
232.8964, 1356.291
233.3785, 1347.511
233.8606, 1351.280
234.3427, 1354.070
234.8248, 1347.885
235.3070, 1338.153
235.7891, 1336.783
236.2712, 1349.556
236.7533, 1368.401
237.2354, 1374.726
237.7175, 1360.608
238.1997, 1353.503
238.6818, 1367.258
239.1639, 1388.380
239.6460, 1396.843
240.1281, 1386.223
240.6102, 1367.504
241.0924, 1358.376
241.5745, 1363.971
242.0566, 1366.160
242.5387, 1364.357
243.0208, 1358.182
243.5029, 1344.229
243.9851, 1322.432
244.4672, 1301.454
244.9493, 1292.835
245.4314, 1302.480
245.9135, 1307.271
246.3956, 1301.371
246.8778, 1294.853
247.3599, 1294.814
247.8420, 1302.039
248.3241, 1313.673
248.8062, 1327.098
249.2883, 1342.317
249.7705, 1360.062
250.2526, 1383.452
250.7347, 1406.257
251.2168, 1424.488
251.6989, 1438.885
252.1810, 1452.130
252.6632, 1465.307
253.1453, 1478.151
253.6274, 1502.782
254.1095, 1554.974
254.5916, 1601.036
255.0737, 1620.883
255.5559, 1626.062
256.0380, 1641.742
256.5201, 1684.860
257.0022, 1750.647
257.4843, 1807.791
257.9665, 1845.508
258.4486, 1885.536
258.9307, 1939.958
259.4128, 1996.061
259.8949, 2038.569
260.3770, 2060.311
260.8592, 2061.999
261.3413, 2045.340
261.8234, 2002.974
262.3055, 1950.677
262.7876, 1881.646
263.2697, 1808.365
263.7519, 1742.210
264.2340, 1687.031
264.7161, 1639.109
265.1982, 1591.395
265.6803, 1537.390
266.1624, 1499.216
266.6446, 1483.879
267.1267, 1478.465
267.6088, 1476.557
268.0909, 1476.386
268.5730, 1477.805
269.0551, 1479.451
269.5373, 1479.923
270.0194, 1487.934
270.5015, 1508.732
270.9836, 1533.732
271.4657, 1560.443
271.9478, 1588.514
272.4300, 1617.866
272.9121, 1647.338
273.3942, 1677.102
273.8763, 1714.715
274.3584, 1769.089
274.8405, 1819.463
275.3227, 1852.959
275.8048, 1875.611
276.2869, 1900.974
276.7690, 1938.591
277.2511, 1983.124
277.7332, 2021.599
278.2154, 2056.809
278.6975, 2078.412
279.1796, 2081.113
279.6617, 2068.178
280.1438, 2041.239
280.6259, 1997.439
281.1081, 1944.768
281.5902, 1889.029
282.0723, 1828.517
282.5544, 1780.399
283.0365, 1763.413
283.5186, 1756.492
284.0008, 1731.154
284.4829, 1678.611
284.9650, 1625.790
285.4471, 1597.308
285.9292, 1588.453
286.4113, 1570.611
286.8935, 1530.260
287.3756, 1484.411
287.8577, 1457.006
288.3398, 1449.539
288.8219, 1443.744
289.3040, 1432.941
289.7862, 1418.863
290.2683, 1401.373
290.7504, 1378.490
291.2325, 1362.380
291.7146, 1372.599
292.1967, 1409.865
292.6789, 1434.639
293.1610, 1430.604
293.6431, 1418.602
294.1252, 1417.696
294.6073, 1429.050
295.0894, 1442.651
295.5716, 1448.702
296.0537, 1448.114
296.5358, 1464.230
297.0179, 1513.118
297.5000, 1561.453
297.9821, 1591.024
298.4643, 1606.641
298.9464, 1623.770
299.4285, 1652.132
299.9106, 1686.577
300.3927, 1705.026
300.8748, 1692.689
301.3570, 1682.617
301.8391, 1680.071
302.3212, 1681.905
302.8033, 1683.398
303.2854, 1682.932
303.7675, 1683.815
304.2497, 1691.282
304.7318, 1699.308
305.2139, 1726.657
305.6960, 1782.039
306.1781, 1847.796
306.6602, 1912.342
307.1424, 1973.837
307.6245, 2037.644
308.1066, 2109.574
308.5887, 2190.443
309.0708, 2274.284
309.5529, 2357.768
310.0351, 2447.476
310.5172, 2557.234
310.9993, 2675.462
311.4814, 2777.844
311.9635, 2849.445
312.4456, 2891.052
312.9278, 2906.679
313.4099, 2897.371
313.8920, 2857.037
314.3741, 2776.295
314.8562, 2671.109
315.3383, 2557.450
315.8205, 2437.893
316.3026, 2321.682
316.7847, 2221.618
317.2668, 2138.798
317.7489, 2065.283
318.2310, 1999.620
318.7132, 1942.333
319.1953, 1892.406
319.6774, 1849.860
320.1595, 1817.770
320.6416, 1803.656
321.1237, 1803.080
321.6059, 1797.198
322.0880, 1778.044
322.5701, 1761.615
323.0522, 1768.202
323.5343, 1794.624
324.0164, 1819.388
324.4986, 1829.657
324.9807, 1838.623
325.4628, 1865.467
325.9449, 1911.441
326.4270, 1956.741
326.9091, 1983.951
327.3913, 1996.601
327.8734, 2026.095
328.3555, 2081.919
328.8376, 2144.381
329.3197, 2206.217
329.8018, 2267.069
330.2840, 2326.826
330.7661, 2384.474
331.2482, 2443.028
331.7303, 2511.666
332.2124, 2597.049
332.6945, 2683.665
333.1767, 2769.039
333.6588, 2855.979
334.1409, 2948.761
334.6230, 3047.812
335.1051, 3149.291
335.5872, 3249.992
336.0694, 3350.261
336.5515, 3446.647
337.0336, 3544.279
337.5157, 3633.849
337.9978, 3710.581
338.4799, 3775.726
338.9621, 3832.781
339.4442, 3880.584
339.9263, 3923.281
340.4084, 3989.333
340.8905, 4082.228
341.3727, 4197.068
341.8548, 4333.602
342.3369, 4487.607
342.8190, 4659.363
343.3011, 4852.754
343.7832, 5046.442
344.2654, 5222.687
344.7475, 5388.421
345.2296, 5487.507
345.7117, 5493.122
346.1938, 5431.068
346.6759, 5325.751
347.1581, 5178.060
347.6402, 4977.322
348.1223, 4687.962
348.6044, 4338.958
349.0865, 4010.344
349.5686, 3709.102
350.0508, 3431.816
350.5329, 3175.869
351.0150, 2940.265
351.4971, 2733.752
351.9792, 2565.430
352.4613, 2422.244
352.9435, 2297.523
353.4256, 2190.081
353.9077, 2094.278
354.3898, 2009.329
354.8719, 1933.405
355.3540, 1860.486
355.8362, 1782.695
356.3183, 1718.075
356.8004, 1678.574
357.2825, 1651.969
357.7646, 1624.644
358.2467, 1592.285
358.7289, 1555.684
359.2110, 1514.559
359.6931, 1464.127
360.1752, 1424.351
360.6573, 1397.838
361.1394, 1378.055
361.6216, 1363.056
362.1037, 1351.816
362.5858, 1343.080
363.0679, 1336.167
363.5500, 1330.860
364.0321, 1325.642
364.5143, 1320.819
364.9964, 1315.562
365.4785, 1309.003
365.9606, 1302.222
366.4427, 1297.230
366.9248, 1294.996
367.4070, 1291.820
367.8891, 1281.510
368.3712, 1263.270
368.8533, 1246.511
369.3354, 1229.208
369.8175, 1218.072
370.2997, 1221.942
370.7818, 1239.216
371.2639, 1252.159
371.7460, 1247.813
372.2281, 1233.969
372.7102, 1225.535
373.1924, 1224.229
373.6745, 1223.613
374.1566, 1217.698
374.6387, 1208.845
375.1208, 1206.442
375.6029, 1217.138
376.0851, 1228.253
376.5672, 1234.629
377.0493, 1236.293
377.5314, 1231.161
378.0135, 1217.144
378.4956, 1201.800
378.9778, 1200.249
379.4599, 1224.942
379.9420, 1240.882
380.4241, 1243.550
380.9062, 1240.292
381.3883, 1232.273
381.8705, 1222.441
382.3526, 1219.383
382.8347, 1232.112
383.3168, 1260.698
383.7989, 1284.169
384.2810, 1296.877
384.7632, 1310.671
385.2453, 1325.526
385.7274, 1343.883
386.2095, 1369.657
386.6916, 1404.968
387.1737, 1444.792
387.6559, 1477.007
388.1380, 1497.485
388.6201, 1534.774
389.1022, 1607.587
389.5843, 1688.986
390.0664, 1758.200
390.5486, 1815.968
391.0307, 1877.997
391.5128, 1961.592
391.9949, 2054.586
392.4770, 2130.458
392.9591, 2185.625
393.4413, 2234.552
393.9234, 2295.849
394.4055, 2357.452
394.8876, 2379.653
395.3697, 2345.516
395.8518, 2287.985
396.3340, 2219.534
396.8161, 2140.532
397.2982, 2047.368
397.7803, 1937.057
398.2624, 1824.811
398.7445, 1735.701
399.2267, 1681.801
399.7088, 1626.844
400.1909, 1560.908
400.6730, 1501.900
401.1551, 1462.316
401.6372, 1441.041
402.1194, 1428.815
402.6015, 1419.378
403.0836, 1412.596
403.5657, 1407.426
404.0478, 1400.798
404.5299, 1400.852
405.0121, 1415.722
405.4942, 1434.174
405.9763, 1441.889
406.4584, 1434.699
406.9405, 1427.974
407.4226, 1442.544
407.9048, 1477.815
408.3869, 1506.966
408.8690, 1522.941
409.3511, 1537.095
409.8332, 1561.409
410.3153, 1592.421
410.7975, 1615.882
411.2796, 1619.646
411.7617, 1618.170
412.2438, 1627.263
412.7259, 1646.442
413.2080, 1669.131
413.6902, 1693.614
414.1723, 1717.794
414.6544, 1734.348
415.1365, 1735.579
415.6186, 1744.765
416.1007, 1770.072
416.5829, 1803.339
417.0650, 1840.665
417.5471, 1879.370
418.0292, 1910.377
418.5113, 1923.616
418.9934, 1917.872
419.4756, 1912.357
419.9577, 1913.937
420.4398, 1908.125
420.9219, 1887.996
421.4040, 1859.139
421.8861, 1829.896
422.3683, 1803.778
422.8504, 1777.204
423.3325, 1742.270
423.8146, 1697.133
424.2967, 1657.417
424.7788, 1626.586
425.2610, 1601.675
425.7431, 1579.838
426.2252, 1561.267
426.7073, 1547.918
427.1894, 1541.063
427.6715, 1539.764
428.1537, 1544.338
428.6358, 1554.789
429.1179, 1565.348
429.6000, 1573.402
430.0821, 1578.954
430.5642, 1581.734
431.0464, 1576.130
431.5285, 1577.127
432.0106, 1595.136
432.4927, 1618.955
432.9748, 1632.948
433.4569, 1634.769
433.9391, 1636.436
434.4212, 1651.487
434.9033, 1681.683
435.3854, 1707.492
435.8675, 1727.434
436.3496, 1744.336
436.8318, 1757.161
437.3139, 1767.849
437.7960, 1780.589
438.2781, 1797.561
438.7602, 1812.623
439.2423, 1813.750
439.7245, 1798.991
440.2066, 1786.694
440.6887, 1780.866
441.1708, 1777.406
441.6529, 1774.567
442.1350, 1771.740
442.6172, 1765.789
443.0993, 1753.489
443.5814, 1738.333
444.0635, 1724.031
444.5456, 1710.743
445.0277, 1699.009
445.5099, 1688.692
445.9920, 1680.536
446.4741, 1677.394
446.9562, 1681.143
447.4383, 1685.335
447.9204, 1691.733
448.4026, 1696.437
448.8847, 1692.630
449.3668, 1681.351
449.8489, 1672.521
450.3310, 1674.998
450.8131, 1688.560
451.2953, 1706.879
451.7774, 1738.223
452.2595, 1763.644
452.7416, 1776.982
453.2237, 1783.587
453.7059, 1789.031
454.1880, 1794.913
454.6701, 1800.663
455.1522, 1806.862
455.6343, 1813.100
456.1165, 1814.467
456.5986, 1809.549
457.0807, 1801.141
457.5628, 1793.416
458.0449, 1784.376
458.5270, 1766.425
459.0092, 1722.306
459.4913, 1682.925
459.9734, 1672.499
460.4555, 1684.592
460.9376, 1703.849
461.4197, 1725.609
461.9019, 1744.282
462.3840, 1749.003
462.8661, 1730.042
463.3482, 1722.539
463.8303, 1729.422
464.3124, 1744.177
464.7946, 1768.239
465.2767, 1797.173
465.7588, 1821.376
466.2409, 1834.333
466.7230, 1841.450
467.2051, 1857.375
467.6873, 1883.937
468.1694, 1913.479
468.6515, 1941.215
469.1336, 1973.996
469.6157, 2019.696
470.0978, 2077.497
470.5800, 2135.059
471.0621, 2180.522
471.5442, 2223.547
472.0263, 2282.533
472.5084, 2358.107
472.9905, 2434.563
473.4727, 2502.105
473.9548, 2564.546
474.4369, 2634.135
474.9190, 2719.230
475.4011, 2796.349
475.8832, 2863.364
476.3654, 2919.564
476.8475, 2963.312
477.3296, 2995.172
477.8117, 3018.945
478.2938, 3037.517
478.7759, 3051.060
479.2581, 3060.990
479.7402, 3060.321
480.2223, 3067.070
480.7044, 3078.973
481.1865, 3102.817
481.6686, 3144.445
482.1508, 3205.209
482.6329, 3285.714
483.1150, 3392.507
483.5971, 3520.015
484.0792, 3648.288
484.5613, 3772.976
485.0435, 3906.695
485.5256, 4060.601
486.0077, 4232.042
486.4898, 4403.995
486.9719, 4568.592
487.4540, 4743.678
487.9362, 4948.387
488.4183, 5162.744
488.9004, 5350.936
489.3825, 5506.455
489.8646, 5663.861
490.3467, 5869.968
490.8289, 6133.812
491.3110, 6349.741
491.7931, 6514.228
492.2752, 6629.021
492.7573, 6710.990
493.2394, 6738.188
493.7216, 6677.620
494.2037, 6516.403
494.6858, 6289.364
495.1679, 6023.271
495.6500, 5720.675
496.1321, 5395.284
496.6143, 5039.459
497.0964, 4687.359
497.5785, 4366.858
498.0606, 4074.352
498.5427, 3801.502
499.0248, 3545.561
499.5070, 3311.150
499.9891, 3100.797
500.4712, 2914.253
500.9533, 2754.963
501.4354, 2623.526
501.9175, 2512.982
502.3997, 2416.758
502.8818, 2337.239
503.3639, 2257.465
503.8460, 2170.019
504.3281, 2090.539
504.8102, 2023.931
505.2924, 1968.449
505.7745, 1922.498
506.2566, 1885.960
506.7387, 1854.819
507.2208, 1824.156
507.7029, 1794.358
508.1851, 1768.168
508.6672, 1746.707
509.1493, 1727.197
509.6314, 1707.659
510.1135, 1688.092
510.5956, 1669.045
511.0778, 1651.068
511.5599, 1632.956
512.0420, 1609.215
512.5241, 1586.183
513.0062, 1576.275
513.4883, 1582.769
513.9705, 1596.346
514.4526, 1605.575
514.9347, 1610.219
515.4168, 1612.191
515.8989, 1601.993
516.3810, 1600.096
516.8632, 1618.529
517.3453, 1646.459
517.8274, 1668.125
518.3095, 1677.646
518.7916, 1686.015
519.2737, 1703.678
519.7559, 1729.666
520.2380, 1760.748
520.7201, 1797.411
521.2022, 1834.797
521.6843, 1867.011
522.1664, 1895.836
522.6486, 1933.621
523.1307, 1986.304
523.6128, 2041.089
524.0949, 2095.573
524.5770, 2148.758
525.0591, 2198.852
525.5413, 2245.735
526.0234, 2291.824
526.5055, 2340.944
526.9876, 2392.823
527.4697, 2438.522
527.9518, 2486.220
528.4340, 2513.559
528.9161, 2510.583
529.3982, 2487.869
529.8803, 2457.305
530.3624, 2421.437
530.8445, 2374.624
531.3267, 2307.706
531.8088, 2227.655
532.2909, 2145.842
532.7730, 2063.276
533.2551, 1989.619
533.7372, 1933.788
534.2194, 1891.052
534.7015, 1840.656
535.1836, 1768.464
535.6657, 1708.148
536.1478, 1667.470
536.6299, 1637.107
537.1121, 1611.560
537.5942, 1588.857
538.0763, 1566.714
538.5584, 1541.437
539.0405, 1516.589
539.5226, 1509.400
540.0048, 1527.903
540.4869, 1535.182
540.9690, 1508.966
541.4511, 1475.122
541.9332, 1460.911
542.4153, 1467.295
542.8975, 1473.968
543.3796, 1475.143
543.8617, 1471.966
544.3438, 1460.015
544.8259, 1443.407
545.3080, 1439.283
545.7902, 1457.086
546.2723, 1486.105
546.7544, 1503.764
547.2365, 1504.337
547.7186, 1506.317
548.2007, 1506.866
548.6829, 1511.442
549.1650, 1524.098
549.6471, 1542.619
550.1292, 1563.894
550.6113, 1589.165
551.0934, 1608.950
551.5756, 1606.677
552.0577, 1585.303
552.5398, 1568.059
553.0219, 1559.535
553.5040, 1556.780
553.9861, 1557.786
554.4683, 1562.732
554.9504, 1569.452
555.4325, 1580.948
555.9146, 1590.788
556.3967, 1594.334
556.8788, 1595.827
557.3610, 1600.700
557.8431, 1610.300
558.3252, 1622.533
558.8073, 1634.662
559.2894, 1646.941
559.7715, 1664.661
560.2537, 1688.826
560.7358, 1716.408
561.2179, 1742.151
561.7000, 1772.883
562.1821, 1817.356
562.6642, 1877.352
563.1464, 1944.139
563.6285, 2016.177
564.1106, 2090.896
564.5927, 2162.217
565.0748, 2231.541
565.5569, 2307.454
566.0391, 2395.575
566.5212, 2493.204
567.0033, 2591.811
567.4854, 2676.635
567.9675, 2791.874
568.4496, 2959.760
568.9318, 3134.600
569.4139, 3288.821
569.8960, 3429.734
570.3781, 3580.804
570.8602, 3757.966
571.3423, 3939.149
571.8245, 4105.469
572.3066, 4252.815
572.7887, 4362.443
573.2708, 4432.028
573.7529, 4454.048
574.2350, 4417.799
574.7172, 4321.611
575.1993, 4196.952
575.6814, 4027.547
576.1635, 3850.713
576.6456, 3676.871
577.1277, 3502.737
577.6099, 3318.717
578.0920, 3125.518
578.5741, 2934.909
579.0562, 2754.252
579.5383, 2585.651
580.0204, 2444.287
580.5026, 2334.573
580.9847, 2234.287
581.4668, 2134.118
581.9489, 2040.493
582.4310, 1960.998
582.9131, 1895.652
583.3953, 1841.339
583.8774, 1801.589
584.3595, 1768.600
584.8416, 1734.252
585.3237, 1700.762
585.8058, 1674.925
586.2880, 1660.018
586.7701, 1655.341
587.2522, 1661.717
587.7343, 1682.724
588.2164, 1699.271
588.6985, 1705.331
589.1807, 1713.863
589.6628, 1725.723
590.1449, 1745.023
590.6270, 1780.222
591.1091, 1836.667
591.5912, 1899.895
592.0734, 1959.104
592.5555, 2018.689
593.0376, 2086.316
593.5197, 2163.329
594.0018, 2249.156
594.4839, 2344.706
594.9661, 2447.023
595.4482, 2541.009
595.9303, 2639.885
596.4124, 2708.150
596.8945, 2754.331
597.3766, 2763.688
597.8588, 2720.318
598.3409, 2630.404
598.8230, 2516.151
599.3051, 2382.627
599.7872, 2238.798
600.2693, 2087.142
600.7515, 1932.661
601.2336, 1796.704
601.7157, 1685.455
602.1978, 1593.349
602.6799, 1516.523
603.1620, 1455.766
603.6442, 1397.582
604.1263, 1335.241
604.6084, 1283.611
605.0905, 1248.561
605.5726, 1224.469
606.0547, 1206.820
606.5369, 1194.382
607.0190, 1186.199
607.5011, 1184.363
607.9832, 1185.303
608.4653, 1176.975
608.9474, 1158.858
609.4296, 1149.419
609.9117, 1157.120
610.3938, 1173.971
610.8759, 1189.525
611.3580, 1203.759
611.8401, 1216.300
612.3223, 1225.080
612.8044, 1234.324
613.2865, 1241.223
613.7686, 1251.581
614.2507, 1276.572
614.7328, 1318.753
615.2150, 1364.008
615.6971, 1391.789
616.1792, 1406.695
616.6613, 1442.015
617.1434, 1501.644
617.6255, 1566.229
618.1077, 1627.993
618.5898, 1688.170
619.0719, 1748.401
619.5540, 1809.822
620.0361, 1868.052
620.5182, 1920.686
621.0004, 1971.479
621.4825, 2026.398
621.9646, 2080.525
622.4467, 2122.473
622.9288, 2147.254
623.4109, 2162.926
623.8931, 2183.237
624.3752, 2207.975
624.8573, 2219.068
625.3394, 2214.910
625.8215, 2198.566
626.3036, 2168.020
626.7858, 2127.171
627.2679, 2086.459
627.7500, 2049.736
628.2321, 2004.167
628.7142, 1942.429
629.1964, 1873.398
629.6785, 1799.539
630.1606, 1724.788
630.6427, 1656.964
631.1248, 1600.073
631.6069, 1550.759
632.0891, 1503.052
632.5712, 1456.687
633.0533, 1416.246
633.5354, 1383.908
634.0175, 1353.800
634.4996, 1321.782
634.9818, 1289.450
635.4639, 1260.457
635.9460, 1235.239
636.4281, 1213.246
636.9102, 1195.561
637.3923, 1180.274
637.8745, 1165.148
638.3566, 1150.589
638.8387, 1139.433
639.3208, 1133.917
639.8029, 1129.645
640.2850, 1115.359
640.7672, 1089.176
641.2493, 1071.061
641.7314, 1064.874
642.2135, 1064.049
642.6956, 1067.375
643.1777, 1072.423
643.6599, 1072.803
644.1420, 1066.507
644.6241, 1058.243
645.1062, 1047.925
645.5883, 1037.553
646.0704, 1027.485
646.5526, 1019.035
647.0347, 1016.345
647.5168, 1022.534
647.9989, 1033.467
648.4810, 1040.738
648.9631, 1044.217
649.4453, 1045.246
649.9274, 1041.501
650.4095, 1040.024
650.8916, 1048.545
651.3737, 1063.383
651.8558, 1072.307
652.3380, 1069.526
652.8201, 1069.233
653.3022, 1076.653
653.7843, 1087.657
654.2664, 1097.452
654.7485, 1106.887
655.2307, 1121.403
655.7128, 1145.176
656.1949, 1171.743
656.6770, 1184.838
657.1591, 1183.709
657.6412, 1201.328
658.1234, 1252.533
658.6055, 1297.630
659.0876, 1305.695
659.5697, 1284.675
660.0518, 1269.698
660.5339, 1263.688
661.0161, 1258.694
661.4982, 1251.492
661.9803, 1245.967
662.4624, 1243.146
662.9445, 1244.895
663.4266, 1255.662
663.9088, 1278.493
664.3909, 1307.929
664.8730, 1334.130
665.3551, 1358.007
665.8372, 1389.176
666.3193, 1428.478
666.8015, 1476.722
667.2836, 1536.961
667.7657, 1605.649
668.2478, 1669.334
668.7299, 1715.466
669.2120, 1778.533
669.6942, 1869.303
670.1763, 1970.518
670.6584, 2068.650
671.1405, 2168.032
671.6226, 2281.446
672.1047, 2415.563
672.5869, 2557.552
673.0690, 2690.891
673.5511, 2819.267
674.0332, 2955.679
674.5153, 3102.162
674.9974, 3247.816
675.4796, 3388.118
675.9617, 3519.854
676.4438, 3635.453
676.9259, 3742.907
677.4080, 3816.850
677.8901, 3866.044
678.3723, 3875.503
678.8544, 3831.242
679.3365, 3744.871
679.8186, 3631.300
680.3007, 3493.332
680.7828, 3345.452
681.2650, 3199.803
681.7471, 3052.184
682.2292, 2889.524
682.7113, 2715.704
683.1934, 2557.484
683.6755, 2428.694
684.1577, 2322.118
684.6398, 2227.026
685.1219, 2145.936
685.6040, 2064.534
686.0861, 1977.960
686.5682, 1897.896
687.0504, 1827.354
687.5325, 1765.510
688.0146, 1711.475
688.4967, 1665.182
688.9788, 1625.584
689.4609, 1595.293
689.9431, 1568.778
690.4252, 1541.750
690.9073, 1513.836
691.3894, 1485.312
691.8715, 1456.039
692.3536, 1425.525
692.8358, 1392.733
693.3179, 1357.922
693.8000, 1323.557
694.2821, 1288.953
694.7642, 1256.687
695.2463, 1227.791
695.7285, 1201.630
696.2106, 1178.236
696.6927, 1157.451
697.1748, 1136.269
697.6569, 1114.589
698.1390, 1091.848
698.6212, 1065.700
699.1033, 1039.367
699.5854, 1017.221
700.0675, 999.8162
700.5496, 984.5804
701.0317, 969.2216
701.5139, 954.9683
701.9960, 944.9010
702.4781, 939.0201
702.9602, 935.5330
703.4423, 935.3868
703.9244, 932.6774
704.4066, 920.3984
704.8887, 899.9539
705.3708, 886.3262
705.8529, 886.9329
706.3350, 884.0272
706.8171, 871.1498
707.2993, 858.3853
707.7814, 853.8382
708.2635, 855.8106
708.7456, 857.7406
709.2277, 856.9335
709.7098, 854.9564
710.1920, 852.5922
710.6741, 850.3505
711.1562, 850.4595
711.6383, 852.6549
712.1204, 851.7413
712.6025, 843.9665
713.0847, 832.8088
713.5668, 826.6979
714.0489, 826.4905
714.5310, 828.6971
715.0131, 836.2720
715.4952, 842.1004
715.9774, 843.2863
716.4595, 840.5796
716.9416, 833.6647
717.4237, 820.8530
717.9058, 812.1988
718.3879, 815.0950
718.8701, 820.0726
719.3522, 818.3870
719.8343, 813.0682
720.3164, 810.9079
720.7985, 814.2907
721.2806, 821.8702
721.7628, 835.8994
722.2449, 853.1890
722.7270, 854.2038
723.2091, 836.9346
723.6912, 825.1728
724.1733, 828.9274
724.6555, 837.3079
725.1376, 836.6746
725.6197, 826.1443
726.1018, 819.6816
726.5839, 819.0028
727.0660, 819.8012
727.5482, 821.5293
728.0303, 824.1603
728.5124, 829.8889
728.9945, 837.0175
729.4766, 838.8284
729.9587, 830.3632
730.4409, 817.6299
730.9230, 802.1448
731.4051, 787.9938
731.8872, 787.1436
732.3693, 799.9399
732.8514, 811.6296
733.3336, 811.6092
733.8157, 804.2642
734.2978, 802.6085
734.7799, 809.3306
735.2620, 809.1725
735.7441, 795.1691
736.2263, 783.4437
736.7084, 785.8940
737.1905, 795.9013
737.6726, 801.7262
738.1547, 802.7646
738.6368, 799.9074
739.1190, 782.7458
739.6011, 772.0090
740.0832, 787.8590
740.5653, 817.9423
741.0474, 840.7939
741.5295, 849.8139
742.0117, 851.0215
742.4938, 847.6177
742.9759, 841.4169
743.4580, 836.1842
743.9401, 832.0588
744.4222, 830.4585
744.9044, 832.0393
745.3865, 835.2850
745.8686, 839.0739
746.3507, 843.2689
746.8328, 843.3127
747.3149, 836.8339
747.7971, 830.2213
748.2792, 818.0070
748.7613, 811.6589
749.2434, 823.5799
749.7255, 848.5340
750.2076, 867.8608
750.6898, 877.2357
751.1719, 879.3411
751.6540, 869.4647
752.1361, 857.0899
752.6182, 851.4633
753.1003, 853.4339
753.5825, 862.7145
754.0646, 879.6328
754.5467, 897.1185
755.0288, 904.3917
755.5109, 902.6351
755.9930, 896.5933
756.4752, 885.4033
756.9573, 883.2024
757.4394, 898.2680
757.9215, 922.3745
758.4036, 943.4937
758.8857, 963.1603
759.3679, 971.8677
759.8500, 955.8892
760.3321, 945.7440
760.8142, 949.6749
761.2963, 961.1494
761.7784, 977.2811
762.2606, 996.1906
762.7427, 1009.575
763.2248, 1006.670
763.7069, 1005.173
764.1890, 1020.528
764.6711, 1043.340
765.1533, 1059.469
765.6354, 1067.880
766.1175, 1076.651
766.5996, 1091.463
767.0817, 1107.377
767.5638, 1111.054
768.0460, 1103.968
768.5281, 1111.695
769.0102, 1138.748
769.4923, 1169.493
769.9744, 1196.235
770.4565, 1219.736
770.9387, 1241.024
771.4208, 1259.057
771.9029, 1278.393
772.3850, 1304.582
772.8671, 1325.377
773.3492, 1332.015
773.8314, 1334.451
774.3135, 1344.748
774.7956, 1363.700
775.2777, 1380.638
775.7598, 1395.191
776.2419, 1401.966
776.7241, 1388.970
777.2062, 1369.001
777.6883, 1364.180
778.1704, 1375.731
778.6525, 1387.825
779.1346, 1390.216
779.6168, 1384.108
780.0989, 1368.417
780.5810, 1344.478
781.0631, 1330.424
781.5452, 1330.429
782.0273, 1323.638
782.5095, 1295.695
782.9916, 1255.825
783.4737, 1224.616
783.9558, 1204.954
784.4379, 1184.858
784.9200, 1160.238
785.4022, 1140.277
785.8843, 1133.904
786.3664, 1129.856
786.8485, 1114.377
787.3306, 1086.638
787.8127, 1059.693
788.2949, 1038.012
788.7770, 1018.060
789.2591, 997.1598
789.7412, 977.2608
790.2233, 962.9897
790.7054, 953.1774
791.1876, 939.8714
791.6697, 916.4184
792.1518, 891.7976
792.6339, 881.2445
793.1160, 881.5142
793.5981, 880.0973
794.0803, 875.5623
794.5624, 870.2337
795.0445, 866.0497
795.5266, 859.3849
796.0087, 841.8639
796.4908, 810.1475
796.9730, 787.1920
797.4551, 775.9504
797.9372, 768.0660
798.4193, 763.5311
798.9014, 758.9371
799.3835, 747.8757
799.8657, 730.8367
800.3478, 723.2468
800.8299, 740.4593
801.3120, 750.4330
801.7941, 734.2866
802.2762, 712.5038
802.7584, 703.5970
803.2405, 706.9363
803.7226, 713.7083
804.2047, 721.0504
804.6868, 726.4837
805.1689, 728.2774
805.6511, 726.3384
806.1332, 716.0153
806.6153, 700.7372
807.0974, 697.7425
807.5795, 714.4555
808.0616, 735.6144
808.5438, 739.5593
809.0259, 728.6492
809.5080, 727.0918
809.9901, 736.9330
810.4722, 742.4197
810.9543, 738.5681
811.4365, 730.0862
811.9186, 719.2110
812.4007, 707.1896
812.8828, 705.8151
813.3649, 727.3933
813.8470, 740.6807
814.3292, 737.8885
814.8113, 732.9687
815.2934, 733.1563
815.7755, 736.7659
816.2576, 740.1716
816.7397, 742.7612
817.2219, 744.7280
817.7040, 747.3233
818.1861, 748.2180
818.6682, 742.2161
819.1503, 734.5257
819.6324, 736.5209
820.1146, 748.8648
820.5967, 757.4155
821.0788, 747.3233
821.5609, 731.6066
822.0430, 735.0841
822.5251, 752.0432
823.0073, 760.9556
823.4894, 758.5084
823.9716, 752.7882
824.4537, 748.5908
824.9358, 746.5728
825.4179, 748.4524
825.9000, 754.5807
826.3821, 763.1307
826.8643, 777.1572
827.3464, 784.3669
827.8285, 775.6995
828.3106, 762.0256
828.7927, 759.2057
829.2748, 768.7620
829.7570, 773.3231
830.2391, 766.6804
830.7212, 763.6187
831.2033, 767.6387
831.6854, 775.6606
832.1675, 787.9193
832.6497, 802.0186
833.1318, 811.6349
833.6139, 813.8352
834.0960, 814.4584
834.5781, 813.0489
835.0602, 814.3208
835.5424, 824.4485
836.0245, 840.5491
836.5066, 857.2977
836.9887, 872.5497
837.4708, 883.6851
837.9529, 886.7012
838.4351, 885.0877
838.9172, 883.2294
839.3993, 882.4697
839.8814, 890.0953
840.3635, 907.2003
840.8456, 924.6620
841.3278, 935.4550
841.8099, 941.8506
842.2920, 949.4152
842.7741, 957.9633
843.2562, 969.3500
843.7383, 984.0075
844.2205, 1000.641
844.7026, 1020.207
845.1847, 1039.225
845.6668, 1051.359
846.1489, 1054.695
846.6310, 1064.919
847.1132, 1088.303
847.5953, 1110.183
848.0774, 1128.372
848.5595, 1144.143
849.0416, 1154.955
849.5237, 1164.036
850.0059, 1182.836
850.4880, 1221.724
850.9701, 1252.829
851.4522, 1252.913
851.9343, 1253.740
852.4164, 1282.510
852.8986, 1329.313
853.3807, 1373.801
853.8628, 1410.692
854.3449, 1446.942
854.8270, 1486.278
855.3091, 1528.982
855.7913, 1572.808
856.2734, 1620.422
856.7555, 1680.032
857.2376, 1751.451
857.7197, 1824.974
858.2018, 1895.814
858.6840, 1959.169
859.1661, 2001.703
859.6482, 2026.918
860.1303, 2064.378
860.6124, 2116.130
861.0945, 2167.976
861.5767, 2215.096
862.0588, 2255.386
862.5409, 2284.751
863.0230, 2303.971
863.5051, 2334.877
863.9872, 2381.550
864.4694, 2426.703
864.9515, 2457.613
865.4336, 2501.284
865.9157, 2582.631
866.3978, 2690.139
866.8799, 2787.157
867.3621, 2860.939
867.8442, 2956.920
868.3263, 3099.169
868.8084, 3237.278
869.2905, 3347.078
869.7726, 3445.785
870.2548, 3561.594
870.7369, 3691.518
871.2190, 3786.868
871.7011, 3832.504
872.1832, 3838.304
872.6653, 3796.766
873.1475, 3726.883
873.6296, 3647.242
874.1117, 3556.191
874.5938, 3442.155
875.0759, 3300.096
875.5580, 3146.118
876.0402, 2988.534
876.5223, 2831.122
877.0044, 2673.161
877.4865, 2519.180
877.9686, 2378.427
878.4507, 2253.042
878.9329, 2140.305
879.4150, 2038.396
879.8971, 1947.482
880.3792, 1868.602
880.8613, 1801.807
881.3434, 1748.286
881.8256, 1708.325
882.3077, 1677.159
882.7898, 1653.211
883.2719, 1634.380
883.7540, 1617.121
884.2361, 1601.814
884.7183, 1593.910
885.2004, 1593.163
885.6825, 1602.399
886.1646, 1626.257
886.6467, 1651.709
887.1288, 1672.109
887.6110, 1685.255
888.0931, 1682.670
888.5752, 1652.772
889.0573, 1635.809
889.5394, 1643.563
890.0215, 1649.011
890.5037, 1646.345
890.9858, 1635.095
891.4679, 1609.895
891.9500, 1572.395
892.4321, 1545.415
892.9142, 1540.390
893.3964, 1534.610
893.8785, 1522.414
894.3606, 1507.933
894.8427, 1492.332
895.3248, 1477.255
895.8069, 1464.766
896.2891, 1455.373
896.7712, 1449.237
897.2533, 1447.661
897.7354, 1448.122
898.2175, 1446.647
898.6996, 1447.263
899.1818, 1458.142
899.6639, 1477.322
900.1460, 1492.276
900.6281, 1494.726
901.1102, 1498.657
901.5923, 1519.141
902.0745, 1549.583
902.5566, 1581.641
903.0387, 1614.038
903.5208, 1643.649
904.0029, 1670.238
904.4850, 1703.855
904.9672, 1757.018
905.4493, 1818.000
905.9314, 1857.080
906.4135, 1880.072
906.8956, 1915.413
907.3777, 1966.282
907.8599, 2020.405
908.3420, 2071.687
908.8241, 2119.297
909.3062, 2161.647
909.7883, 2198.826
910.2704, 2233.926
910.7526, 2267.364
911.2347, 2293.000
911.7168, 2307.599
912.1989, 2321.610
912.6810, 2343.899
913.1631, 2371.177
913.6453, 2393.245
914.1274, 2407.514
914.6095, 2424.612
915.0916, 2438.666
915.5737, 2469.014
916.0558, 2524.998
916.5380, 2598.292
917.0201, 2678.473
917.5022, 2766.455
917.9843, 2874.237
918.4664, 3002.890
918.9485, 3150.612
919.4307, 3317.917
919.9128, 3503.685
920.3949, 3704.957
920.8770, 3925.711
921.3591, 4170.298
921.8412, 4438.958
922.3234, 4731.941
922.8055, 5063.898
923.2876, 5401.070
923.7697, 5726.771
924.2518, 6059.359
924.7339, 6427.146
925.2161, 6814.116
925.6982, 7186.898
926.1803, 7547.242
926.6624, 7842.576
927.1445, 8050.880
927.6266, 8186.463
928.1088, 8277.137
928.5909, 8290.341
929.0730, 8178.638
929.5551, 7945.224
930.0372, 7631.322
930.5193, 7237.725
931.0015, 6809.608
931.4836, 6357.140
931.9657, 5904.071
932.4478, 5465.407
932.9299, 5050.277
933.4120, 4672.954
933.8942, 4335.692
934.3763, 4029.022
934.8584, 3745.927
935.3405, 3487.439
935.8226, 3255.955
936.3047, 3049.687
936.7869, 2863.447
937.2690, 2697.646
937.7511, 2555.076
938.2332, 2436.557
938.7153, 2334.072
939.1974, 2237.917
939.6796, 2152.189
940.1617, 2089.964
940.6438, 2045.506
941.1259, 2000.288
941.6080, 1951.299
942.0901, 1903.142
942.5723, 1857.835
943.0544, 1818.798
943.5365, 1794.823
944.0186, 1781.661
944.5007, 1756.652
944.9828, 1720.887
945.4650, 1693.798
945.9471, 1680.594
946.4292, 1666.372
946.9113, 1639.818
947.3934, 1603.126
947.8755, 1558.982
948.3577, 1507.463
948.8398, 1464.443
949.3219, 1430.927
949.8040, 1402.490
950.2861, 1378.468
950.7682, 1354.756
951.2504, 1326.355
951.7325, 1295.539
952.2146, 1273.517
952.6967, 1262.286
953.1788, 1246.036
953.6609, 1221.418
954.1431, 1200.018
954.6252, 1187.406
955.1073, 1179.649
955.5894, 1172.106
956.0715, 1164.706
956.5536, 1155.753
957.0358, 1144.665
957.5179, 1133.245
958.0000, 1119.986
958.4821, 1110.068
958.9642, 1106.406
959.4464, 1107.937
959.9285, 1114.452
960.4106, 1127.270
960.8927, 1129.863
961.3748, 1113.246
961.8569, 1104.480
962.3391, 1112.339
962.8212, 1123.570
963.3033, 1131.020
963.7854, 1135.071
964.2675, 1135.085
964.7496, 1127.085
965.2318, 1130.894
965.7139, 1160.315
966.1960, 1181.950
966.6781, 1179.434
967.1602, 1175.394
967.6423, 1189.532
968.1245, 1215.175
968.6066, 1231.306
969.0887, 1230.787
969.5708, 1238.911
970.0529, 1262.268
970.5350, 1287.629
971.0172, 1307.576
971.4993, 1330.505
971.9814, 1365.559
972.4635, 1410.457
972.9456, 1455.263
973.4277, 1501.555
973.9099, 1541.480
974.3920, 1565.237
974.8741, 1592.591
975.3562, 1630.543
975.8383, 1677.556
976.3204, 1734.465
976.8026, 1799.250
977.2847, 1862.546
977.7668, 1919.637
978.2489, 1980.051
978.7310, 2049.573
979.2131, 2119.512
979.6953, 2187.192
980.1774, 2251.382
980.6595, 2308.995
981.1416, 2361.105
981.6237, 2416.315
982.1058, 2490.787
982.5880, 2546.761
983.0701, 2568.914
983.5522, 2573.848
984.0343, 2573.949
984.5164, 2563.316
984.9985, 2529.945
985.4807, 2473.466
985.9628, 2411.444
986.4449, 2347.893
986.9270, 2281.714
987.4091, 2214.253
987.8912, 2141.858
988.3734, 2058.289
988.8555, 1969.827
989.3376, 1885.375
989.8197, 1806.906
990.3018, 1732.618
990.7839, 1663.019
991.2661, 1596.392
991.7482, 1529.664
992.2303, 1467.759
992.7124, 1416.902
993.1945, 1373.130
993.6766, 1326.095
994.1588, 1274.082
994.6409, 1235.675
995.1230, 1227.815
995.6051, 1222.957
996.0872, 1209.426
996.5693, 1191.266
997.0515, 1170.733
997.5336, 1148.940
998.0157, 1125.776
998.4978, 1101.305
998.9799, 1082.490
999.4620, 1077.759
999.9442, 1072.735
1000.426, 1056.883
1000.908, 1039.862
1001.391, 1030.723
1001.873, 1027.805
1002.355, 1027.229
1002.837, 1028.181
1003.319, 1024.601
1003.801, 1009.796
1004.283, 994.7178
1004.765, 982.1713
1005.247, 974.6244
1005.730, 978.8502
1006.212, 988.6000
1006.694, 989.4474
1007.176, 977.5801
1007.658, 966.2070
1008.140, 961.6647
1008.622, 958.5952
1009.104, 954.3068
1009.586, 950.0193
1010.069, 945.4247
1010.551, 942.2328
1011.033, 945.7989
1011.515, 957.9586
1011.997, 963.8560
1012.479, 951.2498
1012.961, 938.1441
1013.443, 931.5065
1013.926, 930.4244
1014.408, 939.2260
1014.890, 951.2814
1015.372, 949.6024
1015.854, 928.9691
1016.336, 919.3083
1016.818, 946.0455
1017.300, 968.5966
1017.782, 963.0583
1018.265, 949.4297
1018.747, 945.5425
1019.229, 948.0226
1019.711, 945.3207
1020.193, 934.5535
1020.675, 928.4194
1021.157, 936.4105
1021.639, 943.0021
1022.122, 940.3515
1022.604, 934.9924
1023.086, 932.0844
1023.568, 930.7330
1024.050, 926.4758
1024.532, 917.8958
1025.014, 918.4329
1025.496, 940.7414
1025.978, 960.5684
1026.461, 965.5789
1026.943, 968.9091
1027.425, 984.0858
1027.907, 1003.207
1028.389, 1009.956
1028.871, 1001.452
1029.353, 994.0959
1029.835, 990.7347
1030.318, 989.4014
1030.800, 988.4162
1031.282, 990.4793
1031.764, 1006.109
1032.246, 1022.129
1032.728, 1009.131
1033.210, 962.3756
1033.692, 943.1724
1034.174, 984.0818
1034.656, 1015.666
1035.139, 1016.745
1035.621, 1015.501
1036.103, 1032.068
1036.585, 1053.851
1037.067, 1059.991
1037.549, 1049.333
1038.031, 1041.762
1038.513, 1039.067
1038.996, 1037.618
1039.478, 1034.912
1039.960, 1036.135
1040.442, 1046.139
1040.924, 1059.604
1041.406, 1070.072
1041.888, 1077.577
1042.370, 1083.243
1042.853, 1085.500
1043.335, 1089.093
1043.817, 1094.531
1044.299, 1101.024
1044.781, 1109.773
1045.263, 1117.515
1045.745, 1119.618
1046.227, 1117.096
1046.709, 1118.346
1047.192, 1126.134
1047.674, 1128.843
1048.156, 1123.258
1048.638, 1119.535
1049.120, 1120.896
1049.602, 1126.810
1050.084, 1137.711
1050.566, 1152.138
1051.048, 1164.309
1051.531, 1174.309
1052.013, 1181.788
1052.495, 1187.114
1052.977, 1186.383
1053.459, 1175.671
1053.941, 1170.360
1054.423, 1184.703
1054.905, 1211.940
1055.388, 1237.108
1055.870, 1260.318
1056.352, 1265.177
1056.834, 1250.504
1057.316, 1239.886
1057.798, 1239.002
1058.280, 1249.769
1058.762, 1275.670
1059.245, 1303.699
1059.727, 1304.603
1060.209, 1284.800
1060.691, 1287.963
1061.173, 1311.486
1061.655, 1334.083
1062.137, 1351.699
1062.619, 1367.942
1063.101, 1384.835
1063.583, 1402.432
1064.066, 1421.281
1064.548, 1440.886
1065.030, 1459.727
1065.512, 1478.531
1065.994, 1497.164
1066.476, 1517.476
1066.958, 1549.492
1067.440, 1597.020
1067.923, 1644.293
1068.405, 1673.816
1068.887, 1697.474
1069.369, 1735.478
1069.851, 1778.861
1070.333, 1812.030
1070.815, 1835.565
1071.297, 1856.512
1071.780, 1876.777
1072.262, 1891.926
1072.744, 1901.166
1073.226, 1900.468
1073.708, 1886.017
1074.190, 1859.834
1074.672, 1816.024
1075.154, 1765.845
1075.636, 1729.528
1076.119, 1708.596
1076.601, 1684.751
1077.083, 1647.260
1077.565, 1612.535
1078.047, 1588.941
1078.529, 1570.914
1079.011, 1552.966
1079.493, 1539.532
1079.976, 1537.443
1080.458, 1545.318
1080.940, 1556.181
1081.422, 1570.229
1081.904, 1581.464
1082.386, 1581.221
1082.868, 1587.190
1083.350, 1609.332
1083.833, 1637.462
1084.315, 1662.776
1084.797, 1687.384
1085.279, 1718.626
1085.761, 1758.609
1086.243, 1796.087
1086.725, 1827.821
1087.207, 1861.626
1087.689, 1892.174
1088.172, 1935.793
1088.654, 2011.123
1089.136, 2095.370
1089.618, 2152.466
1090.100, 2183.324
1090.582, 2214.381
1091.064, 2244.790
1091.546, 2281.056
1092.028, 2329.454
1092.511, 2362.386
1092.993, 2368.663
1093.475, 2353.216
1093.957, 2319.129
1094.439, 2271.013
1094.921, 2223.152
1095.403, 2175.593
1095.885, 2135.699
1096.368, 2103.346
1096.850, 2062.423
1097.332, 2008.323
1097.814, 1954.549
1098.296, 1910.869
1098.778, 1871.955
1099.260, 1825.762
1099.742, 1777.977
1100.224, 1745.561
1100.707, 1726.911
1101.189, 1721.717
1101.671, 1724.967
1102.153, 1714.141
1102.635, 1678.539
1103.117, 1640.901
1103.599, 1623.827
1104.081, 1615.291
1104.563, 1599.233
1105.046, 1583.147
1105.528, 1580.280
1106.010, 1586.582
1106.492, 1589.362
1106.974, 1585.776
1107.456, 1584.485
1107.938, 1594.863
1108.420, 1600.367
1108.903, 1579.747
1109.385, 1563.350
1109.867, 1584.100
1110.349, 1617.161
1110.831, 1624.122
1111.313, 1608.215
1111.795, 1607.438
1112.277, 1637.045
1112.760, 1661.291
1113.242, 1668.615
1113.724, 1677.462
1114.206, 1694.852
1114.688, 1715.158
1115.170, 1733.801
1115.652, 1752.355
1116.134, 1775.361
1116.616, 1804.168
1117.099, 1825.330
1117.581, 1835.704
1118.063, 1846.801
1118.545, 1858.397
1119.027, 1877.192
1119.509, 1908.617
1119.991, 1942.908
1120.473, 1967.429
1120.955, 1985.327
1121.438, 2009.318
1121.920, 2039.627
1122.402, 2086.443
1122.884, 2149.604
1123.366, 2201.979
1123.848, 2235.536
1124.330, 2268.014
1124.812, 2312.382
1125.295, 2363.572
1125.777, 2412.402
1126.259, 2462.780
1126.741, 2527.653
1127.223, 2600.296
1127.705, 2661.832
1128.187, 2712.423
1128.669, 2764.913
1129.151, 2824.498
1129.634, 2892.010
1130.116, 2979.033
1130.598, 3060.621
1131.080, 3101.727
1131.562, 3139.827
1132.044, 3221.453
1132.526, 3326.130
1133.008, 3410.357
1133.490, 3470.165
1133.973, 3540.329
1134.455, 3640.474
1134.937, 3733.160
1135.419, 3802.839
1135.901, 3871.801
1136.383, 3947.892
1136.865, 4029.343
1137.347, 4119.784
1137.830, 4211.997
1138.312, 4285.122
1138.794, 4334.710
1139.276, 4390.537
1139.758, 4454.026
1140.240, 4522.242
1140.722, 4602.321
1141.204, 4660.525
1141.687, 4673.752
1142.169, 4674.007
1142.651, 4703.788
1143.133, 4753.101
1143.615, 4783.829
1144.097, 4796.926
1144.579, 4803.077
1145.061, 4803.332
1145.543, 4799.999
1146.026, 4793.588
1146.508, 4783.566
1146.990, 4770.461
1147.472, 4747.127
1147.954, 4694.640
1148.436, 4633.709
1148.918, 4603.435
1149.400, 4584.094
1149.882, 4537.947
1150.365, 4468.815
1150.847, 4402.324
1151.329, 4345.952
1151.811, 4287.717
1152.293, 4215.583
1152.775, 4147.592
1153.257, 4103.321
1153.739, 4055.125
1154.222, 3976.908
1154.704, 3888.084
1155.186, 3812.333
1155.668, 3749.674
1156.150, 3692.244
1156.632, 3649.093
1157.114, 3584.148
1157.596, 3477.719
1158.078, 3387.539
1158.561, 3331.744
1159.043, 3282.004
1159.525, 3221.294
1160.007, 3156.023
1160.489, 3095.394
1160.971, 3039.588
1161.453, 2991.492
1161.935, 2951.039
1162.417, 2905.667
1162.900, 2855.001
1163.382, 2807.885
1163.864, 2766.889
1164.346, 2722.217
1164.828, 2664.842
1165.310, 2608.066
1165.792, 2572.295
1166.274, 2547.035
1166.757, 2518.464
1167.239, 2486.023
1167.721, 2446.916
1168.203, 2404.247
1168.685, 2366.331
1169.167, 2335.515
1169.649, 2309.371
1170.131, 2290.644
1170.614, 2270.851
1171.096, 2243.824
1171.578, 2217.490
1172.060, 2195.052
1172.542, 2177.505
1173.024, 2166.329
1173.506, 2160.912
1173.988, 2158.278
1174.470, 2160.625
1174.953, 2157.384
1175.435, 2148.094
1175.917, 2133.200
1176.399, 2109.157
1176.881, 2091.381
1177.363, 2088.699
1177.845, 2094.615
1178.327, 2102.487
1178.809, 2109.833
1179.292, 2105.374
1179.774, 2092.221
1180.256, 2088.247
1180.738, 2092.301
1181.220, 2092.121
1181.702, 2085.807
1182.184, 2082.742
1182.666, 2088.571
1183.149, 2093.690
1183.631, 2081.918
1184.113, 2073.066
1184.595, 2091.719
1185.077, 2119.112
##END=



