##NAMES=Zoisite
##RRUFFID=R060567
##IDEAL CHEMISTRY=Ca_2_Al_3_(Si_2_O_7_)(SiO_4_)O(OH)
##LOCALITY=Umba Valley, Tanzania
##OWNER=RRUFF
##SOURCE=Michael Scott
##DESCRIPTION=Purple prismatic crystals
##STATUS=The identification of this mineral has been confirmed by X-ray diffraction and chemical analysis
##URL=rruff.info/R060567
##MEASURED CHEMISTRY=Ca_2.00_Al_3.00_(Si_1.00_O_4_)(Si_2.00_O_7_)O(OH)
140.5947, 1008.268
141.0768, 1025.652
141.5589, 1045.760
142.0410, 1066.519
142.5232, 1091.594
143.0053, 1128.668
143.4874, 1182.464
143.9695, 1235.130
144.4516, 1277.291
144.9337, 1316.509
145.4159, 1358.785
145.8980, 1405.434
146.3801, 1459.067
146.8622, 1527.303
147.3443, 1618.318
147.8264, 1707.677
148.3086, 1794.535
148.7907, 1874.565
149.2728, 1944.403
149.7549, 2003.457
150.2370, 2048.861
150.7191, 2072.761
151.2013, 2067.972
151.6834, 2050.156
152.1655, 2022.172
152.6476, 1985.367
153.1297, 1938.648
153.6118, 1880.461
154.0940, 1816.486
154.5761, 1767.252
155.0582, 1749.663
155.5403, 1725.179
156.0224, 1679.155
156.5045, 1625.881
156.9867, 1582.034
157.4688, 1556.706
157.9509, 1546.562
158.4330, 1538.286
158.9151, 1536.016
159.3972, 1530.762
159.8794, 1514.405
160.3615, 1496.294
160.8436, 1489.460
161.3257, 1501.282
161.8078, 1527.186
162.2899, 1547.410
162.7721, 1554.780
163.2542, 1564.051
163.7363, 1579.107
164.2184, 1596.605
164.7005, 1611.678
165.1826, 1621.793
165.6648, 1627.859
166.1469, 1633.779
166.6290, 1638.747
167.1111, 1644.531
167.5932, 1652.967
168.0753, 1662.129
168.5575, 1669.139
169.0396, 1672.479
169.5217, 1672.789
170.0038, 1672.542
170.4859, 1664.808
170.9680, 1664.504
171.4502, 1678.269
171.9323, 1700.642
172.4144, 1723.269
172.8965, 1742.192
173.3786, 1758.268
173.8607, 1774.484
174.3429, 1788.487
174.8250, 1805.322
175.3071, 1829.935
175.7892, 1857.634
176.2713, 1878.617
176.7534, 1886.905
177.2356, 1889.191
177.7177, 1907.312
178.1998, 1952.920
178.6819, 1994.568
179.1640, 2020.150
179.6461, 2037.024
180.1283, 2058.921
180.6104, 2092.365
181.0925, 2132.380
181.5746, 2166.360
182.0567, 2192.390
182.5388, 2217.769
183.0210, 2244.173
183.5031, 2271.382
183.9852, 2298.114
184.4673, 2323.496
184.9494, 2349.725
185.4315, 2382.390
185.9137, 2421.729
186.3958, 2463.644
186.8779, 2505.958
187.3600, 2550.153
187.8421, 2602.594
188.3242, 2668.235
188.8064, 2735.180
189.2885, 2779.495
189.7706, 2800.822
190.2527, 2815.068
190.7348, 2827.142
191.2169, 2835.585
191.6991, 2839.144
192.1812, 2839.144
192.6633, 2829.634
193.1454, 2796.113
193.6275, 2737.645
194.1096, 2681.185
194.5918, 2633.844
195.0739, 2594.258
195.5560, 2562.944
196.0381, 2543.467
196.5202, 2522.519
197.0023, 2477.771
197.4845, 2410.818
197.9666, 2348.220
198.4487, 2299.552
198.9308, 2259.878
199.4129, 2222.072
199.8950, 2185.269
200.3772, 2148.506
200.8593, 2107.356
201.3414, 2063.040
201.8235, 2025.828
202.3056, 2001.958
202.7877, 1986.025
203.2699, 1970.834
203.7520, 1955.759
204.2341, 1939.819
204.7162, 1920.286
205.1983, 1898.381
205.6804, 1879.852
206.1626, 1867.035
206.6447, 1857.914
207.1268, 1850.486
207.6089, 1844.941
208.0910, 1839.078
208.5731, 1830.635
209.0553, 1820.401
209.5374, 1810.736
210.0195, 1801.266
210.5016, 1793.094
210.9837, 1787.294
211.4658, 1783.854
211.9480, 1783.148
212.4301, 1785.969
212.9122, 1791.853
213.3943, 1799.664
213.8764, 1809.891
214.3585, 1821.577
214.8407, 1834.303
215.3228, 1848.156
215.8049, 1861.658
216.2870, 1874.986
216.7691, 1886.952
217.2512, 1894.718
217.7334, 1893.391
218.2155, 1893.859
218.6976, 1908.108
219.1797, 1935.044
219.6618, 1959.174
220.1439, 1972.222
220.6261, 1978.899
221.1082, 1988.522
221.5903, 2003.159
222.0724, 2016.687
222.5545, 2025.517
223.0366, 2029.769
223.5188, 2029.101
224.0009, 2019.287
224.4830, 2008.732
224.9651, 2011.246
225.4472, 2030.316
225.9293, 2046.671
226.4115, 2046.832
226.8936, 2034.964
227.3757, 2024.308
227.8578, 2015.591
228.3399, 2013.794
228.8220, 2028.492
229.3041, 2060.292
229.7863, 2086.924
230.2684, 2097.706
230.7505, 2096.549
231.2326, 2092.198
231.7147, 2086.187
232.1968, 2077.270
232.6790, 2064.652
233.1611, 2048.661
233.6432, 2026.954
234.1253, 1992.606
234.6074, 1953.978
235.0895, 1924.583
235.5717, 1906.513
236.0538, 1893.780
236.5359, 1881.434
237.0180, 1870.105
237.5001, 1863.090
237.9822, 1863.184
238.4644, 1866.765
238.9465, 1869.391
239.4286, 1870.739
239.9107, 1874.705
240.3928, 1885.743
240.8749, 1901.658
241.3571, 1914.396
241.8392, 1921.727
242.3213, 1926.880
242.8034, 1928.948
243.2855, 1929.000
243.7676, 1938.165
244.2498, 1969.673
244.7319, 2010.839
245.2140, 2026.407
245.6961, 2002.413
246.1782, 1973.888
246.6603, 1958.304
247.1425, 1953.173
247.6246, 1949.555
248.1067, 1942.975
248.5888, 1937.370
249.0709, 1942.045
249.5530, 1960.815
250.0352, 1977.101
250.5173, 1980.840
250.9994, 1978.755
251.4815, 1985.632
251.9636, 2007.680
252.4457, 2031.774
252.9279, 2032.843
253.4100, 2004.371
253.8921, 1993.645
254.3742, 2021.325
254.8563, 2065.750
255.3384, 2101.796
255.8206, 2124.867
256.3027, 2144.495
256.7848, 2170.800
257.2669, 2205.301
257.7490, 2235.179
258.2311, 2255.373
258.7133, 2274.208
259.1954, 2301.312
259.6775, 2335.484
260.1596, 2364.704
260.6417, 2380.135
261.1238, 2381.226
261.6060, 2373.717
262.0881, 2356.931
262.5702, 2333.451
263.0523, 2299.857
263.5344, 2260.069
264.0165, 2223.999
264.4987, 2197.212
264.9808, 2178.173
265.4629, 2159.702
265.9450, 2144.163
266.4271, 2126.371
266.9092, 2097.937
267.3914, 2068.513
267.8735, 2053.933
268.3556, 2060.693
268.8377, 2079.179
269.3198, 2089.422
269.8019, 2076.905
270.2841, 2078.058
270.7662, 2102.226
271.2483, 2134.782
271.7304, 2164.035
272.2125, 2187.102
272.6946, 2206.108
273.1768, 2222.931
273.6589, 2234.152
274.1410, 2255.395
274.6231, 2292.219
275.1052, 2332.491
275.5873, 2372.360
276.0695, 2410.130
276.5516, 2442.957
277.0337, 2467.453
277.5158, 2483.231
277.9979, 2505.741
278.4800, 2536.308
278.9622, 2572.156
279.4443, 2617.214
279.9264, 2666.452
280.4085, 2710.494
280.8906, 2743.107
281.3727, 2769.073
281.8549, 2808.402
282.3370, 2872.437
282.8191, 2934.112
283.3012, 2989.481
283.7833, 3040.922
284.2654, 3091.905
284.7476, 3143.158
285.2297, 3193.098
285.7118, 3240.598
286.1939, 3291.522
286.6760, 3323.813
287.1581, 3325.543
287.6403, 3317.435
288.1224, 3311.442
288.6045, 3308.642
289.0866, 3302.587
289.5687, 3289.750
290.0508, 3270.805
290.5330, 3233.833
291.0151, 3165.911
291.4972, 3092.315
291.9793, 3020.175
292.4614, 2950.986
292.9435, 2887.279
293.4257, 2830.042
293.9078, 2779.437
294.3899, 2736.600
294.8720, 2701.889
295.3541, 2674.396
295.8362, 2651.516
296.3184, 2635.804
296.8005, 2632.881
297.2826, 2647.466
297.7647, 2668.390
298.2468, 2679.691
298.7289, 2680.094
299.2111, 2684.711
299.6932, 2697.713
300.1753, 2718.196
300.6574, 2746.767
301.1395, 2784.383
301.6216, 2821.445
302.1038, 2848.490
302.5859, 2868.873
303.0680, 2895.496
303.5501, 2930.307
304.0322, 2972.720
304.5143, 3020.579
304.9964, 3073.845
305.4785, 3139.313
305.9607, 3226.740
306.4428, 3323.639
306.9249, 3414.123
307.4070, 3496.585
307.8891, 3576.060
308.3712, 3656.371
308.8534, 3736.489
309.3355, 3811.410
309.8176, 3886.128
310.2997, 3951.068
310.7818, 4003.721
311.2639, 4042.859
311.7461, 4065.954
312.2282, 4072.387
312.7103, 4061.280
313.1924, 4028.534
313.6745, 3979.329
314.1566, 3904.438
314.6388, 3788.615
315.1209, 3651.556
315.6030, 3512.869
316.0851, 3378.008
316.5672, 3250.250
317.0493, 3133.214
317.5315, 3026.977
318.0136, 2935.402
318.4957, 2857.948
318.9778, 2794.563
319.4599, 2749.085
319.9420, 2718.997
320.4242, 2696.251
320.9063, 2675.035
321.3884, 2655.716
321.8705, 2643.819
322.3526, 2639.686
322.8347, 2643.150
323.3169, 2658.190
323.7990, 2679.595
324.2811, 2700.863
324.7632, 2719.269
325.2453, 2737.180
325.7274, 2759.222
326.2096, 2785.055
326.6917, 2816.181
327.1738, 2849.594
327.6559, 2889.989
328.1380, 2942.343
328.6201, 3005.941
329.1023, 3074.876
329.5844, 3142.885
330.0665, 3210.227
330.5486, 3283.188
331.0307, 3363.093
331.5128, 3448.114
331.9950, 3540.157
332.4771, 3636.046
332.9592, 3727.406
333.4413, 3806.886
333.9234, 3883.293
334.4055, 3976.094
334.8877, 4089.527
335.3698, 4198.975
335.8519, 4294.138
336.3340, 4379.306
336.8161, 4456.430
337.2982, 4524.091
337.7804, 4591.533
338.2625, 4660.029
338.7446, 4732.460
339.2267, 4824.384
339.7088, 4945.732
340.1909, 5074.397
340.6731, 5182.352
341.1552, 5272.549
341.6373, 5374.987
342.1194, 5498.153
342.6015, 5637.996
343.0836, 5797.290
343.5658, 5975.027
344.0479, 6146.289
344.5300, 6305.876
345.0121, 6442.527
345.4942, 6511.438
345.9763, 6512.003
346.4585, 6452.468
346.9406, 6320.890
347.4227, 6133.486
347.9048, 5915.971
348.3869, 5676.449
348.8690, 5416.582
349.3512, 5136.913
349.8333, 4819.857
350.3154, 4518.392
350.7975, 4216.601
351.2796, 3940.256
351.7617, 3712.406
352.2439, 3530.341
352.7260, 3372.078
353.2081, 3220.442
353.6902, 3074.583
354.1723, 2939.324
354.6544, 2806.320
355.1366, 2695.590
355.6187, 2620.561
356.1008, 2567.703
356.5829, 2519.776
357.0650, 2469.464
357.5471, 2419.622
358.0293, 2374.994
358.5114, 2335.830
358.9935, 2301.733
359.4756, 2280.527
359.9577, 2258.683
360.4398, 2226.244
360.9220, 2183.893
361.4041, 2141.830
361.8862, 2105.413
362.3683, 2075.414
362.8504, 2057.343
363.3326, 2056.080
363.8147, 2056.517
364.2968, 2048.285
364.7789, 2035.622
365.2610, 2025.630
365.7431, 2021.001
366.2253, 2018.575
366.7074, 2017.276
367.1895, 2016.462
367.6716, 2009.744
368.1537, 1990.823
368.6358, 1970.211
369.1180, 1967.925
369.6001, 1986.891
370.0822, 2003.040
370.5643, 2011.338
371.0464, 2012.549
371.5285, 2003.562
372.0107, 1985.154
372.4928, 1969.699
372.9749, 1968.617
373.4570, 1982.162
373.9391, 1993.353
374.4212, 2004.392
374.9034, 2011.080
375.3855, 2008.770
375.8676, 2001.741
376.3497, 1996.518
376.8318, 1995.941
377.3139, 1999.125
377.7961, 2003.684
378.2782, 2004.583
378.7603, 2017.291
379.2424, 2056.256
379.7245, 2093.556
380.2066, 2108.584
380.6888, 2103.798
381.1709, 2097.825
381.6530, 2107.044
382.1351, 2129.174
382.6172, 2143.526
383.0993, 2142.048
383.5815, 2146.516
384.0636, 2172.294
384.5457, 2204.461
385.0278, 2224.269
385.5099, 2224.560
385.9920, 2217.504
386.4742, 2215.066
386.9563, 2217.155
387.4384, 2222.259
387.9205, 2230.870
388.4026, 2241.495
388.8847, 2252.380
389.3669, 2263.639
389.8490, 2276.459
390.3311, 2288.040
390.8132, 2303.331
391.2953, 2329.926
391.7774, 2367.656
392.2596, 2407.266
392.7417, 2442.833
393.2238, 2476.356
393.7059, 2514.848
394.1880, 2558.298
394.6701, 2605.719
395.1523, 2658.626
395.6344, 2714.757
396.1165, 2775.560
396.5986, 2840.019
397.0807, 2895.098
397.5628, 2925.734
398.0450, 2931.610
398.5271, 2912.308
399.0092, 2860.402
399.4913, 2794.318
399.9734, 2708.825
400.4555, 2616.221
400.9377, 2535.050
401.4197, 2475.787
401.9019, 2433.073
402.3840, 2393.683
402.8661, 2357.059
403.3482, 2325.894
403.8303, 2300.482
404.3124, 2280.868
404.7946, 2266.316
405.2767, 2257.270
405.7588, 2256.402
406.2409, 2271.453
406.7230, 2296.600
407.2051, 2310.096
407.6873, 2307.553
408.1694, 2306.175
408.6515, 2318.425
409.1336, 2338.544
409.6157, 2355.945
410.0978, 2371.206
410.5800, 2380.547
411.0621, 2379.827
411.5442, 2371.536
412.0263, 2359.057
412.5084, 2342.080
412.9905, 2329.600
413.4727, 2334.944
413.9548, 2364.114
414.4369, 2384.661
414.9190, 2390.463
415.4011, 2392.962
415.8832, 2397.479
416.3654, 2404.236
416.8475, 2412.834
417.3296, 2423.445
417.8117, 2434.323
418.2938, 2440.379
418.7759, 2442.131
419.2581, 2437.491
419.7402, 2422.073
420.2223, 2404.260
420.7044, 2391.544
421.1865, 2383.463
421.6686, 2372.474
422.1508, 2349.912
422.6329, 2318.060
423.1150, 2293.247
423.5971, 2278.216
424.0792, 2264.583
424.5613, 2247.721
425.0435, 2230.348
425.5256, 2215.763
426.0077, 2204.289
426.4898, 2196.697
426.9719, 2193.102
427.4540, 2193.787
427.9362, 2201.447
428.4183, 2218.793
428.9004, 2235.712
429.3825, 2239.842
429.8646, 2231.250
430.3467, 2228.495
430.8289, 2236.183
431.3110, 2246.825
431.7931, 2254.813
432.2752, 2262.236
432.7573, 2275.000
433.2394, 2296.044
433.7216, 2322.111
434.2037, 2346.497
434.6858, 2369.528
435.1679, 2389.712
435.6500, 2406.330
436.1321, 2420.979
436.6143, 2434.655
437.0964, 2447.323
437.5785, 2458.449
438.0606, 2467.499
438.5427, 2474.790
439.0248, 2482.872
439.5070, 2496.289
439.9891, 2499.057
440.4712, 2480.582
440.9533, 2452.553
441.4354, 2421.144
441.9175, 2387.226
442.3997, 2358.349
442.8818, 2342.333
443.3639, 2334.874
443.8460, 2325.475
444.3281, 2312.948
444.8102, 2299.776
445.2924, 2287.375
445.7745, 2275.778
446.2566, 2265.013
446.7387, 2261.324
447.2208, 2251.043
447.7029, 2221.060
448.1851, 2183.907
448.6672, 2158.073
449.1493, 2148.597
449.6314, 2149.147
450.1135, 2152.643
450.5956, 2159.138
451.0778, 2168.210
451.5599, 2185.545
452.0420, 2199.125
452.5241, 2204.512
453.0062, 2203.781
453.4883, 2198.031
453.9705, 2187.191
454.4526, 2179.003
454.9347, 2191.516
455.4168, 2229.116
455.8989, 2247.301
456.3810, 2229.277
456.8632, 2202.275
457.3453, 2181.920
457.8274, 2168.309
458.3095, 2161.149
458.7916, 2166.689
459.2737, 2173.827
459.7559, 2167.547
460.2380, 2150.141
460.7201, 2136.175
461.2022, 2130.798
461.6843, 2132.922
462.1664, 2142.127
462.6486, 2161.131
463.1307, 2177.480
463.6128, 2183.879
464.0949, 2192.277
464.5770, 2216.623
465.0591, 2251.582
465.5413, 2277.296
466.0234, 2280.030
466.5055, 2269.030
466.9876, 2276.173
467.4697, 2311.132
467.9518, 2346.392
468.4340, 2380.702
468.9161, 2413.062
469.3982, 2440.122
469.8803, 2463.561
470.3624, 2490.848
470.8445, 2524.827
471.3267, 2567.286
471.8088, 2627.469
472.2909, 2709.672
472.7730, 2785.842
473.2551, 2839.028
473.7372, 2881.801
474.2194, 2937.514
474.7015, 3011.431
475.1836, 3077.245
475.6657, 3114.557
476.1478, 3144.212
476.6299, 3198.073
477.1121, 3276.097
477.5942, 3346.206
478.0763, 3384.178
478.5584, 3394.542
479.0405, 3405.949
479.5226, 3409.065
480.0048, 3425.716
480.4869, 3463.616
480.9690, 3512.134
481.4511, 3562.820
481.9332, 3614.215
482.4153, 3666.786
482.8975, 3717.268
483.3796, 3768.516
483.8617, 3845.449
484.3438, 3955.572
484.8259, 4073.330
485.3080, 4190.140
485.7902, 4307.218
486.2723, 4422.380
486.7544, 4532.914
487.2365, 4658.403
487.7186, 4815.097
488.2007, 4993.043
488.6829, 5177.710
489.1650, 5367.163
489.6471, 5553.499
490.1292, 5731.935
490.6113, 5903.049
491.0934, 6070.293
491.5756, 6273.101
492.0577, 6423.441
492.5398, 6503.975
493.0219, 6526.058
493.5040, 6501.876
493.9861, 6433.027
494.4683, 6310.421
494.9504, 6120.602
495.4325, 5866.153
495.9146, 5598.931
496.3967, 5308.723
496.8788, 5024.887
497.3610, 4755.236
497.8431, 4497.570
498.3252, 4247.542
498.8073, 4003.516
499.2894, 3785.280
499.7715, 3611.737
500.2536, 3471.917
500.7357, 3341.665
501.2179, 3218.566
501.7000, 3108.130
502.1821, 3014.462
502.6642, 2936.546
503.1463, 2868.825
503.6284, 2813.950
504.1106, 2764.606
504.5927, 2721.816
505.0748, 2682.632
505.5569, 2640.297
506.0390, 2596.621
506.5211, 2563.252
507.0033, 2552.599
507.4854, 2560.350
507.9675, 2554.976
508.4496, 2523.011
508.9317, 2503.703
509.4138, 2517.670
509.8960, 2540.136
510.3781, 2549.250
510.8602, 2542.930
511.3423, 2538.314
511.8244, 2551.348
512.3066, 2571.925
512.7887, 2578.440
513.2708, 2570.011
513.7529, 2563.619
514.2350, 2568.515
514.7172, 2580.988
515.1993, 2591.821
515.6814, 2601.660
516.1635, 2608.975
516.6456, 2613.760
517.1277, 2615.763
517.6099, 2612.478
518.0920, 2605.827
518.5741, 2601.554
519.0562, 2603.478
519.5383, 2610.411
520.0204, 2618.033
520.5026, 2623.589
520.9847, 2637.354
521.4668, 2669.484
521.9489, 2703.773
522.4310, 2727.178
522.9131, 2742.548
523.3953, 2765.678
523.8774, 2810.528
524.3595, 2862.482
524.8416, 2904.332
525.3237, 2936.900
525.8058, 2964.006
526.2880, 2986.060
526.7701, 3006.972
527.2522, 3033.973
527.7343, 3072.093
528.2164, 3096.065
528.6985, 3109.425
529.1807, 3105.669
529.6628, 3073.667
530.1449, 3023.946
530.6270, 2976.008
531.1091, 2937.887
531.5912, 2899.287
532.0734, 2840.602
532.5555, 2758.498
533.0376, 2688.252
533.5197, 2635.969
534.0018, 2590.319
534.4839, 2547.154
534.9661, 2505.434
535.4482, 2462.881
535.9303, 2417.809
536.4124, 2374.160
536.8945, 2331.653
537.3766, 2293.513
537.8588, 2270.264
538.3409, 2263.761
538.8230, 2257.001
539.3051, 2233.769
539.7872, 2195.198
540.2693, 2163.064
540.7515, 2140.217
541.2336, 2120.121
541.7157, 2101.488
542.1978, 2085.297
542.6799, 2073.031
543.1620, 2064.509
543.6442, 2057.350
544.1263, 2048.032
544.6084, 2038.713
545.0905, 2039.279
545.5726, 2051.956
546.0547, 2063.362
546.5369, 2069.750
547.0190, 2070.919
547.5011, 2065.536
547.9832, 2052.488
548.4653, 2042.204
548.9474, 2035.376
549.4296, 2034.126
549.9116, 2042.095
550.3937, 2057.485
550.8759, 2075.345
551.3580, 2093.452
551.8401, 2111.008
552.3222, 2126.249
552.8043, 2138.187
553.2864, 2150.416
553.7686, 2162.038
554.2507, 2174.995
554.7328, 2186.669
555.2149, 2200.865
555.6970, 2226.240
556.1791, 2269.100
556.6613, 2313.426
557.1434, 2338.642
557.6255, 2351.390
558.1076, 2374.901
558.5897, 2413.585
559.0718, 2460.902
559.5540, 2513.820
560.0361, 2571.602
560.5182, 2626.338
561.0003, 2672.873
561.4824, 2723.671
561.9645, 2782.922
562.4467, 2846.394
562.9288, 2909.951
563.4109, 2973.002
563.8930, 3037.194
564.3751, 3102.503
564.8572, 3170.544
565.3394, 3246.045
565.8215, 3329.745
566.3036, 3418.954
566.7857, 3511.500
567.2678, 3611.064
567.7499, 3722.606
568.2321, 3845.526
568.7142, 3966.986
569.1963, 4085.427
569.6784, 4199.312
570.1605, 4309.414
570.6426, 4413.878
571.1248, 4510.044
571.6069, 4596.490
572.0890, 4670.130
572.5711, 4727.193
573.0532, 4768.521
573.5353, 4788.139
574.0175, 4796.850
574.4996, 4767.940
574.9817, 4686.354
575.4638, 4567.822
575.9459, 4425.453
576.4280, 4261.521
576.9102, 4096.091
577.3923, 3941.106
577.8744, 3794.680
578.3565, 3649.719
578.8386, 3505.981
579.3207, 3373.197
579.8029, 3256.945
580.2850, 3154.879
580.7671, 3061.557
581.2492, 2982.095
581.7313, 2902.446
582.2134, 2807.352
582.6956, 2726.660
583.1777, 2682.348
583.6598, 2666.378
584.1419, 2660.588
584.6240, 2657.524
585.1061, 2653.915
585.5883, 2638.721
586.0704, 2613.660
586.5525, 2615.153
587.0346, 2657.694
587.5167, 2701.102
587.9988, 2713.920
588.4810, 2704.377
588.9631, 2704.375
589.4452, 2711.141
589.9273, 2732.760
590.4094, 2780.759
590.8915, 2839.189
591.3737, 2893.563
591.8558, 2941.818
592.3379, 2985.796
592.8200, 3025.615
593.3021, 3065.698
593.7842, 3122.215
594.2664, 3200.161
594.7485, 3277.129
595.2306, 3363.125
595.7127, 3432.599
596.1948, 3469.132
596.6769, 3475.723
597.1591, 3464.743
597.6412, 3444.641
598.1233, 3401.736
598.6054, 3320.210
599.0875, 3211.191
599.5696, 3091.932
600.0518, 2967.315
600.5339, 2838.418
601.0160, 2704.272
601.4981, 2567.513
601.9802, 2455.283
602.4623, 2376.358
602.9445, 2307.783
603.4266, 2244.382
603.9087, 2190.107
604.3908, 2149.773
604.8729, 2122.275
605.3550, 2101.195
605.8372, 2087.062
606.3193, 2074.563
606.8014, 2054.343
607.2835, 2029.980
607.7656, 2015.541
608.2477, 2015.580
608.7299, 2022.278
609.2120, 2027.619
609.6941, 2031.627
610.1762, 2033.445
610.6583, 2029.727
611.1404, 2027.962
611.6226, 2027.362
612.1047, 2030.611
612.5868, 2040.286
613.0689, 2056.600
613.5510, 2077.803
614.0331, 2105.518
614.5153, 2135.843
614.9974, 2160.236
615.4795, 2179.349
615.9616, 2200.484
616.4437, 2225.369
616.9258, 2255.160
617.4080, 2292.683
617.8901, 2339.934
618.3722, 2379.352
618.8543, 2404.615
619.3364, 2430.333
619.8185, 2458.200
620.3007, 2490.310
620.7828, 2532.454
621.2649, 2583.730
621.7470, 2631.838
622.2291, 2663.040
622.7112, 2684.222
623.1934, 2718.982
623.6755, 2768.627
624.1576, 2801.787
624.6397, 2804.657
625.1218, 2791.042
625.6039, 2778.613
626.0861, 2768.224
626.5682, 2751.336
627.0503, 2725.833
627.5324, 2696.104
628.0145, 2664.095
628.4966, 2628.824
628.9788, 2589.478
629.4609, 2545.650
629.9430, 2497.502
630.4251, 2443.669
630.9072, 2385.862
631.3893, 2329.543
631.8715, 2274.369
632.3536, 2224.076
632.8357, 2177.614
633.3178, 2139.900
633.7999, 2122.858
634.2820, 2128.813
634.7642, 2121.873
635.2463, 2087.765
635.7284, 2053.563
636.2105, 2029.726
636.6926, 2013.826
637.1747, 2003.093
637.6569, 1996.196
638.1390, 1991.015
638.6211, 1985.876
639.1032, 1980.726
639.5853, 1975.979
640.0674, 1972.067
640.5496, 1965.098
641.0317, 1952.510
641.5138, 1937.936
641.9959, 1925.782
642.4780, 1916.025
642.9601, 1907.055
643.4423, 1888.494
643.9244, 1882.121
644.4065, 1913.033
644.8886, 1954.154
645.3707, 1967.093
645.8528, 1946.710
646.3350, 1919.614
646.8171, 1905.997
647.2992, 1905.763
647.7813, 1925.476
648.2634, 1969.252
648.7455, 1992.628
649.2277, 1973.815
649.7098, 1943.265
650.1919, 1932.613
650.6740, 1941.586
651.1561, 1956.755
651.6382, 1988.126
652.1204, 2012.853
652.6025, 2019.903
653.0846, 2017.720
653.5667, 2011.664
654.0488, 2005.502
654.5309, 2008.747
655.0131, 2033.106
655.4952, 2066.602
655.9773, 2075.224
656.4594, 2057.608
656.9415, 2049.172
657.4236, 2059.972
657.9058, 2078.149
658.3879, 2095.456
658.8700, 2111.275
659.3521, 2119.296
659.8342, 2107.274
660.3163, 2103.537
660.7985, 2116.333
661.2806, 2139.272
661.7627, 2168.244
662.2448, 2201.564
662.7269, 2237.324
663.2090, 2273.868
663.6912, 2312.848
664.1733, 2359.690
664.6554, 2413.388
665.1375, 2461.400
665.6196, 2499.260
666.1017, 2541.121
666.5839, 2600.154
667.0660, 2672.338
667.5481, 2737.133
668.0302, 2783.522
668.5123, 2838.970
668.9944, 2906.802
669.4766, 2983.511
669.9587, 3067.123
670.4408, 3158.036
670.9229, 3258.246
671.4050, 3370.725
671.8871, 3486.552
672.3693, 3596.512
672.8514, 3701.597
673.3335, 3807.370
673.8156, 3914.062
674.2977, 4020.692
674.7798, 4129.098
675.2620, 4233.796
675.7441, 4321.375
676.2262, 4389.004
676.7083, 4445.458
677.1904, 4514.555
677.6725, 4548.025
678.1547, 4512.044
678.6368, 4431.679
679.1189, 4343.543
679.6010, 4257.701
680.0831, 4165.890
680.5652, 4063.916
681.0474, 3951.169
681.5295, 3822.352
682.0116, 3680.713
682.4937, 3542.458
682.9758, 3414.427
683.4579, 3297.964
683.9401, 3197.185
684.4222, 3115.338
684.9043, 3026.016
685.3864, 2915.040
685.8685, 2817.434
686.3506, 2742.770
686.8328, 2683.295
687.3149, 2633.367
687.7970, 2591.748
688.2791, 2553.759
688.7612, 2515.711
689.2433, 2481.611
689.7255, 2458.337
690.2076, 2441.083
690.6897, 2418.414
691.1718, 2387.990
691.6539, 2357.094
692.1360, 2333.716
692.6182, 2315.475
693.1003, 2288.167
693.5824, 2248.114
694.0645, 2211.451
694.5466, 2182.120
695.0287, 2156.633
695.5109, 2132.397
695.9930, 2109.574
696.4751, 2088.403
696.9572, 2068.660
697.4393, 2051.104
697.9214, 2038.971
698.4036, 2027.283
698.8857, 2010.111
699.3678, 1988.170
699.8499, 1964.710
700.3320, 1940.763
700.8141, 1921.624
701.2963, 1920.622
701.7784, 1936.264
702.2605, 1940.933
702.7426, 1930.203
703.2247, 1916.228
703.7068, 1903.726
704.1890, 1894.023
704.6711, 1891.745
705.1532, 1904.042
705.6353, 1904.314
706.1174, 1881.447
706.5995, 1857.111
707.0817, 1835.728
707.5638, 1821.968
708.0459, 1825.142
708.5280, 1846.387
709.0101, 1866.927
709.4922, 1871.393
709.9744, 1864.990
710.4565, 1854.194
710.9386, 1840.326
711.4207, 1830.807
711.9028, 1828.215
712.3849, 1829.177
712.8671, 1829.971
713.3492, 1830.617
713.8313, 1832.305
714.3134, 1836.926
714.7955, 1839.393
715.2776, 1837.076
715.7598, 1833.839
716.2419, 1831.529
716.7240, 1830.576
717.2061, 1832.153
717.6882, 1839.032
718.1703, 1844.753
718.6525, 1845.956
719.1346, 1843.328
719.6167, 1834.251
720.0988, 1821.337
720.5809, 1816.594
721.0630, 1828.089
721.5452, 1845.875
722.0273, 1848.139
722.5094, 1833.844
722.9915, 1828.413
723.4736, 1836.543
723.9557, 1844.842
724.4379, 1846.823
724.9200, 1844.040
725.4021, 1838.608
725.8842, 1828.996
726.3663, 1823.181
726.8484, 1825.016
727.3306, 1827.445
727.8127, 1827.617
728.2948, 1826.095
728.7769, 1822.290
729.2590, 1816.884
729.7411, 1815.379
730.2233, 1825.359
730.7054, 1839.650
731.1875, 1846.354
731.6696, 1846.476
732.1517, 1844.132
732.6339, 1840.292
733.1160, 1836.353
733.5981, 1833.764
734.0802, 1832.165
734.5623, 1828.639
735.0444, 1818.792
735.5266, 1816.624
736.0087, 1834.903
736.4908, 1849.999
736.9729, 1842.459
737.4550, 1822.828
737.9371, 1817.321
738.4193, 1838.187
738.9014, 1852.928
739.3835, 1839.033
739.8656, 1819.151
740.3477, 1816.712
740.8298, 1826.885
741.3120, 1831.984
741.7941, 1825.112
742.2762, 1817.414
742.7583, 1824.856
743.2404, 1844.070
743.7225, 1856.256
744.2047, 1861.108
744.6868, 1862.232
745.1689, 1859.462
745.6510, 1856.868
746.1331, 1859.693
746.6152, 1868.199
747.0973, 1875.250
747.5794, 1879.664
748.0615, 1884.186
748.5436, 1888.271
749.0258, 1893.369
749.5079, 1903.225
749.9900, 1915.223
750.4721, 1920.266
750.9542, 1911.176
751.4363, 1903.201
751.9185, 1909.374
752.4006, 1923.027
752.8827, 1938.090
753.3648, 1951.530
753.8469, 1953.741
754.3290, 1939.354
754.8112, 1920.995
755.2933, 1921.025
755.7754, 1939.611
756.2575, 1952.118
756.7396, 1957.039
757.2217, 1960.543
757.7039, 1963.100
758.1860, 1967.654
758.6681, 1979.322
759.1502, 1999.074
759.6323, 2015.617
760.1144, 2029.214
760.5966, 2039.110
761.0787, 2040.225
761.5608, 2041.255
762.0429, 2051.153
762.5250, 2068.685
763.0071, 2085.796
763.4893, 2098.394
763.9714, 2110.299
764.4535, 2124.874
764.9356, 2141.482
765.4177, 2159.130
765.8998, 2177.552
766.3820, 2196.818
766.8641, 2217.136
767.3462, 2236.110
767.8283, 2247.553
768.3104, 2250.282
768.7925, 2264.883
769.2747, 2295.662
769.7568, 2325.438
770.2389, 2346.267
770.7210, 2364.347
771.2031, 2390.021
771.6852, 2423.816
772.1674, 2447.585
772.6495, 2455.261
773.1316, 2459.790
773.6137, 2458.016
774.0958, 2459.689
774.5779, 2477.561
775.0601, 2507.173
775.5422, 2532.121
776.0243, 2546.072
776.5064, 2550.494
776.9885, 2542.694
777.4706, 2528.067
777.9528, 2517.396
778.4349, 2510.129
778.9170, 2496.502
779.3991, 2471.681
779.8812, 2444.127
780.3633, 2428.256
780.8455, 2423.792
781.3276, 2411.984
781.8097, 2392.544
782.2918, 2365.708
782.7739, 2325.803
783.2560, 2286.737
783.7382, 2265.888
784.2203, 2262.962
784.7024, 2254.046
785.1845, 2236.141
785.6666, 2216.613
786.1487, 2196.741
786.6309, 2175.387
787.1130, 2148.365
787.5951, 2119.545
788.0772, 2100.024
788.5593, 2095.949
789.0414, 2088.287
789.5236, 2055.094
790.0057, 2016.048
790.4878, 1998.809
790.9699, 1998.673
791.4520, 1998.246
791.9341, 1991.018
792.4163, 1977.725
792.8984, 1956.859
793.3805, 1931.418
793.8626, 1915.485
794.3447, 1909.700
794.8268, 1905.437
795.3090, 1901.008
795.7911, 1896.827
796.2732, 1893.247
796.7553, 1890.225
797.2374, 1887.648
797.7195, 1887.322
798.2017, 1884.331
798.6838, 1872.709
799.1659, 1865.007
799.6480, 1873.172
800.1301, 1886.078
800.6122, 1885.679
801.0944, 1868.296
801.5765, 1851.369
802.0586, 1842.688
802.5407, 1836.552
803.0228, 1826.943
803.5049, 1817.880
803.9871, 1817.948
804.4692, 1826.794
804.9513, 1834.490
805.4334, 1834.669
805.9155, 1828.559
806.3976, 1814.006
806.8798, 1794.350
807.3619, 1786.908
807.8440, 1793.648
808.3261, 1798.161
808.8082, 1789.701
809.2903, 1780.048
809.7725, 1794.881
810.2546, 1840.716
810.7367, 1859.237
811.2188, 1834.267
811.7009, 1815.661
812.1830, 1826.918
812.6652, 1843.906
813.1473, 1837.048
813.6294, 1810.198
814.1115, 1797.704
814.5936, 1817.981
815.0757, 1831.628
815.5579, 1821.517
816.0400, 1808.845
816.5221, 1812.858
817.0042, 1826.911
817.4863, 1832.848
817.9684, 1824.116
818.4506, 1813.267
818.9327, 1807.617
819.4148, 1806.301
819.8969, 1808.541
820.3790, 1814.154
820.8611, 1824.114
821.3433, 1838.073
821.8254, 1851.712
822.3075, 1861.611
822.7896, 1867.431
823.2717, 1866.703
823.7538, 1859.626
824.2360, 1855.489
824.7181, 1856.062
825.2002, 1857.033
825.6823, 1855.437
826.1644, 1852.902
826.6465, 1853.056
827.1287, 1856.016
827.6108, 1861.385
828.0929, 1871.851
828.5750, 1880.827
829.0571, 1886.646
829.5392, 1889.823
830.0214, 1891.682
830.5035, 1891.798
830.9856, 1886.110
831.4677, 1862.022
831.9498, 1847.771
832.4319, 1860.191
832.9141, 1879.375
833.3962, 1887.966
833.8783, 1889.447
834.3604, 1898.039
834.8425, 1919.534
835.3246, 1935.292
835.8068, 1919.694
836.2889, 1897.168
836.7710, 1905.619
837.2531, 1934.852
837.7352, 1953.347
838.2173, 1953.683
838.6995, 1950.926
839.1816, 1957.766
839.6637, 1970.623
840.1458, 1980.667
840.6279, 1988.066
841.1100, 1995.541
841.5922, 2002.717
842.0743, 2017.370
842.5564, 2046.683
843.0385, 2079.878
843.5206, 2096.557
844.0027, 2093.673
844.4849, 2095.984
844.9670, 2107.344
845.4491, 2116.896
845.9312, 2121.210
846.4133, 2123.177
846.8954, 2123.323
847.3776, 2122.888
847.8597, 2127.867
848.3418, 2142.535
848.8239, 2156.407
849.3060, 2170.973
849.7881, 2180.613
850.2703, 2175.425
850.7524, 2165.309
851.2345, 2166.123
851.7166, 2181.311
852.1987, 2202.953
852.6808, 2231.911
853.1630, 2260.176
853.6451, 2275.627
854.1272, 2288.012
854.6093, 2315.594
855.0914, 2358.127
855.5735, 2401.003
856.0557, 2435.794
856.5378, 2466.372
857.0199, 2493.598
857.5020, 2521.588
857.9841, 2567.049
858.4662, 2628.946
858.9484, 2686.727
859.4305, 2732.369
859.9126, 2777.739
860.3947, 2836.118
860.8768, 2905.672
861.3589, 2976.030
861.8411, 3046.153
862.3232, 3123.736
862.8053, 3212.980
863.2874, 3302.229
863.7695, 3383.634
864.2516, 3460.974
864.7338, 3542.736
865.2159, 3627.176
865.6980, 3722.710
866.1801, 3840.429
866.6622, 3954.879
867.1443, 4056.807
867.6265, 4155.986
868.1086, 4263.064
868.5907, 4376.048
869.0728, 4483.217
869.5549, 4586.417
870.0370, 4677.472
870.5192, 4763.811
871.0013, 4827.805
871.4834, 4861.193
871.9655, 4860.964
872.4476, 4818.900
872.9297, 4734.485
873.4119, 4631.049
873.8940, 4516.545
874.3761, 4394.877
874.8582, 4273.000
875.3403, 4144.056
875.8224, 3987.944
876.3046, 3810.401
876.7867, 3642.624
877.2688, 3501.573
877.7509, 3382.469
878.2330, 3286.590
878.7151, 3206.279
879.1973, 3112.655
879.6794, 3009.383
880.1615, 2930.040
880.6436, 2885.233
881.1257, 2856.063
881.6078, 2825.923
882.0900, 2795.854
882.5721, 2767.189
883.0542, 2739.091
883.5363, 2723.480
884.0184, 2722.731
884.5005, 2731.185
884.9827, 2752.365
885.4648, 2769.007
885.9469, 2748.860
886.4290, 2687.138
886.9111, 2658.700
887.3932, 2680.260
887.8754, 2703.413
888.3575, 2726.545
888.8396, 2741.156
889.3217, 2739.206
889.8038, 2724.254
890.2859, 2704.275
890.7681, 2678.002
891.2502, 2650.948
891.7323, 2613.580
892.2144, 2587.655
892.6965, 2590.231
893.1786, 2602.692
893.6608, 2608.293
894.1429, 2604.777
894.6250, 2592.370
895.1071, 2565.343
895.5892, 2540.088
896.0714, 2523.253
896.5535, 2512.317
897.0356, 2507.990
897.5177, 2506.791
897.9998, 2501.424
898.4819, 2490.658
898.9641, 2483.712
899.4462, 2487.911
899.9283, 2498.061
900.4104, 2513.218
900.8925, 2528.407
901.3746, 2530.573
901.8568, 2523.059
902.3389, 2524.464
902.8210, 2543.899
903.3031, 2572.797
903.7852, 2604.249
904.2673, 2636.245
904.7495, 2661.500
905.2316, 2681.892
905.7137, 2706.347
906.1958, 2737.050
906.6779, 2772.435
907.1600, 2811.876
907.6422, 2852.600
908.1243, 2888.283
908.6064, 2919.184
909.0885, 2945.747
909.5706, 2966.551
910.0527, 3001.196
910.5349, 3057.552
911.0170, 3128.365
911.4991, 3208.415
911.9812, 3294.598
912.4633, 3360.839
912.9454, 3395.901
913.4276, 3456.771
913.9097, 3553.758
914.3918, 3666.414
914.8739, 3785.162
915.3560, 3911.855
915.8381, 4048.387
916.3203, 4193.861
916.8024, 4356.365
917.2845, 4544.404
917.7666, 4736.811
918.2487, 4926.671
918.7308, 5123.159
919.2130, 5328.288
919.6951, 5544.380
920.1772, 5779.270
920.6593, 6036.400
921.1414, 6298.015
921.6235, 6561.336
922.1057, 6829.499
922.5878, 7102.313
923.0699, 7384.509
923.5520, 7689.092
924.0341, 8007.227
924.5162, 8306.373
924.9984, 8586.521
925.4805, 8832.990
925.9626, 9058.914
926.4447, 9232.031
926.9268, 9339.347
927.4089, 9376.433
927.8911, 9340.109
928.3732, 9229.025
928.8553, 9039.085
929.3374, 8756.271
929.8195, 8419.204
930.3016, 8038.469
930.7838, 7631.177
931.2659, 7201.311
931.7480, 6765.358
932.2301, 6338.563
932.7122, 5929.566
933.1943, 5553.200
933.6765, 5223.634
934.1586, 4930.214
934.6407, 4668.048
935.1228, 4430.633
935.6049, 4206.923
936.0870, 3997.407
936.5692, 3812.395
937.0513, 3655.007
937.5334, 3520.063
938.0155, 3405.985
938.4976, 3306.690
938.9797, 3210.225
939.4619, 3118.035
939.9440, 3034.378
940.4261, 2959.689
940.9082, 2890.728
941.3903, 2825.695
941.8724, 2764.358
942.3546, 2703.537
942.8367, 2645.568
943.3188, 2598.739
943.8009, 2563.383
944.2830, 2546.622
944.7651, 2549.643
945.2472, 2543.299
945.7293, 2506.267
946.2114, 2452.221
946.6935, 2404.355
947.1757, 2363.100
947.6578, 2347.163
948.1399, 2358.478
948.6220, 2362.002
949.1041, 2347.222
949.5862, 2324.901
950.0684, 2302.578
950.5505, 2282.934
951.0326, 2276.557
951.5147, 2286.271
951.9968, 2285.284
952.4789, 2271.208
952.9611, 2252.081
953.4432, 2226.671
953.9253, 2209.070
954.4074, 2218.029
954.8895, 2245.449
955.3716, 2245.689
955.8538, 2204.469
956.3359, 2189.623
956.8180, 2218.007
957.3001, 2240.444
957.7822, 2234.836
958.2643, 2217.015
958.7465, 2203.776
959.2286, 2195.278
959.7107, 2193.490
960.1928, 2201.623
960.6749, 2209.338
961.1570, 2215.865
961.6392, 2222.083
962.1213, 2228.313
962.6034, 2234.479
963.0855, 2239.307
963.5676, 2242.634
964.0497, 2253.107
964.5319, 2279.096
965.0140, 2298.714
965.4961, 2302.792
965.9782, 2308.524
966.4603, 2325.980
966.9424, 2349.676
967.4246, 2372.243
967.9067, 2393.775
968.3888, 2412.506
968.8709, 2418.775
969.3530, 2435.952
969.8351, 2477.584
970.3173, 2520.651
970.7994, 2549.218
971.2815, 2571.118
971.7636, 2599.820
972.2457, 2636.194
972.7278, 2678.984
973.2100, 2736.145
973.6921, 2788.899
974.1742, 2826.993
974.6563, 2864.365
975.1384, 2910.849
975.6205, 2963.580
976.1027, 3014.030
976.5848, 3060.209
977.0669, 3114.670
977.5490, 3191.311
978.0311, 3261.564
978.5132, 3312.503
978.9954, 3356.520
979.4775, 3400.170
979.9596, 3445.706
980.4417, 3500.646
980.9238, 3569.953
981.4059, 3618.469
981.8881, 3625.813
982.3702, 3623.777
982.8523, 3632.194
983.3344, 3631.233
983.8165, 3594.928
984.2986, 3536.241
984.7808, 3490.683
985.2629, 3468.850
985.7450, 3436.563
986.2271, 3378.478
986.7092, 3311.795
987.1913, 3246.398
987.6735, 3174.631
988.1556, 3079.385
988.6377, 2973.307
989.1198, 2890.042
989.6019, 2840.609
990.0840, 2792.457
990.5662, 2732.746
991.0483, 2670.679
991.5304, 2604.036
992.0125, 2543.492
992.4946, 2506.018
992.9767, 2483.401
993.4589, 2450.502
993.9410, 2398.726
994.4231, 2350.969
994.9052, 2318.420
995.3873, 2291.651
995.8694, 2266.162
996.3516, 2243.203
996.8337, 2227.881
997.3158, 2216.044
997.7979, 2193.874
998.2800, 2155.032
998.7621, 2125.719
999.2443, 2126.827
999.7264, 2129.980
1000.208, 2117.300
1000.691, 2098.777
1001.173, 2085.268
1001.655, 2075.848
1002.137, 2064.055
1002.619, 2047.442
1003.101, 2033.594
1003.583, 2025.687
1004.065, 2021.746
1004.548, 2027.060
1005.030, 2030.796
1005.512, 2016.966
1005.994, 1992.557
1006.476, 1978.599
1006.958, 1981.754
1007.440, 1985.907
1007.922, 1984.366
1008.404, 1981.319
1008.887, 1975.613
1009.369, 1972.372
1009.851, 1977.885
1010.333, 1989.862
1010.815, 2004.791
1011.297, 2023.247
1011.779, 2027.248
1012.261, 1990.747
1012.744, 1960.773
1013.226, 1967.619
1013.708, 1987.504
1014.190, 2003.070
1014.672, 2011.636
1015.154, 2012.166
1015.636, 2004.093
1016.118, 1994.288
1016.600, 1984.789
1017.083, 1974.903
1017.565, 1961.602
1018.047, 1950.186
1018.529, 1947.681
1019.011, 1949.678
1019.493, 1945.463
1019.975, 1932.727
1020.457, 1925.221
1020.940, 1931.953
1021.422, 1938.469
1021.904, 1938.367
1022.386, 1936.828
1022.868, 1936.485
1023.350, 1938.206
1023.832, 1945.724
1024.314, 1959.483
1024.797, 1962.781
1025.279, 1938.055
1025.761, 1920.954
1026.243, 1927.743
1026.725, 1939.582
1027.207, 1945.413
1027.689, 1947.323
1028.171, 1949.569
1028.653, 1952.547
1029.135, 1954.454
1029.618, 1952.819
1030.100, 1953.240
1030.582, 1962.023
1031.064, 1967.377
1031.546, 1956.896
1032.028, 1942.781
1032.510, 1942.284
1032.992, 1955.324
1033.475, 1967.195
1033.957, 1981.443
1034.439, 1986.498
1034.921, 1974.061
1035.403, 1960.913
1035.885, 1951.044
1036.367, 1946.432
1036.849, 1951.071
1037.332, 1963.719
1037.814, 1974.895
1038.296, 1988.433
1038.778, 1993.014
1039.260, 1979.095
1039.742, 1969.529
1040.224, 1975.111
1040.706, 1984.487
1041.188, 1985.514
1041.671, 1981.662
1042.153, 1987.754
1042.635, 2008.718
1043.117, 2025.757
1043.599, 2040.437
1044.081, 2047.837
1044.563, 2043.957
1045.045, 2036.269
1045.527, 2028.089
1046.010, 2022.299
1046.492, 2028.383
1046.974, 2050.968
1047.456, 2055.894
1047.938, 2034.707
1048.420, 2023.108
1048.902, 2033.307
1049.384, 2041.481
1049.866, 2029.331
1050.349, 2009.777
1050.831, 2007.166
1051.313, 2021.505
1051.795, 2041.384
1052.277, 2069.117
1052.759, 2086.692
1053.241, 2090.244
1053.723, 2089.379
1054.206, 2089.410
1054.688, 2086.059
1055.170, 2070.902
1055.652, 2048.256
1056.134, 2046.289
1056.616, 2064.805
1057.098, 2066.092
1057.580, 2045.599
1058.063, 2046.075
1058.545, 2086.309
1059.027, 2131.983
1059.509, 2145.978
1059.991, 2140.634
1060.473, 2150.425
1060.955, 2170.913
1061.437, 2175.297
1061.919, 2164.782
1062.401, 2163.274
1062.884, 2177.614
1063.366, 2197.524
1063.848, 2216.384
1064.330, 2230.573
1064.812, 2229.821
1065.294, 2221.679
1065.776, 2221.049
1066.258, 2229.649
1066.741, 2257.598
1067.223, 2300.679
1067.705, 2326.050
1068.187, 2313.557
1068.669, 2295.053
1069.151, 2309.179
1069.633, 2333.527
1070.115, 2334.292
1070.598, 2324.656
1071.080, 2329.424
1071.562, 2348.548
1072.044, 2373.144
1072.526, 2399.898
1073.008, 2411.027
1073.490, 2378.691
1073.972, 2343.348
1074.454, 2340.090
1074.937, 2349.073
1075.419, 2351.445
1075.901, 2347.000
1076.383, 2338.455
1076.865, 2327.151
1077.347, 2319.262
1077.829, 2315.637
1078.311, 2318.752
1078.793, 2336.390
1079.276, 2353.950
1079.758, 2359.108
1080.240, 2359.682
1080.722, 2363.988
1081.204, 2373.944
1081.686, 2394.328
1082.168, 2434.208
1082.650, 2466.215
1083.133, 2479.043
1083.615, 2492.385
1084.097, 2507.714
1084.579, 2531.481
1085.061, 2577.727
1085.543, 2635.503
1086.025, 2671.032
1086.507, 2676.096
1086.990, 2695.393
1087.472, 2738.510
1087.954, 2776.492
1088.436, 2800.731
1088.918, 2825.287
1089.400, 2858.084
1089.882, 2897.134
1090.364, 2942.157
1090.846, 2991.875
1091.328, 3020.482
1091.811, 3026.180
1092.293, 3022.413
1092.775, 3010.424
1093.257, 2988.842
1093.739, 2956.508
1094.221, 2917.526
1094.703, 2875.842
1095.185, 2831.077
1095.668, 2780.004
1096.150, 2723.907
1096.632, 2677.066
1097.114, 2638.454
1097.596, 2585.592
1098.078, 2515.303
1098.560, 2463.886
1099.042, 2457.187
1099.525, 2463.290
1100.007, 2436.152
1100.489, 2390.654
1100.971, 2349.876
1101.453, 2318.253
1101.935, 2313.022
1102.417, 2327.229
1102.899, 2326.321
1103.381, 2297.883
1103.864, 2271.294
1104.346, 2276.262
1104.828, 2284.403
1105.310, 2262.435
1105.792, 2235.240
1106.274, 2231.240
1106.756, 2244.036
1107.238, 2262.447
1107.720, 2281.324
1108.203, 2285.130
1108.685, 2250.856
1109.167, 2241.714
1109.649, 2322.834
1110.131, 2388.845
1110.613, 2357.430
1111.095, 2300.257
1111.577, 2297.478
1112.060, 2333.531
1112.542, 2346.093
1113.024, 2323.430
1113.506, 2301.367
1113.988, 2273.519
1114.470, 2259.931
1114.952, 2269.776
1115.434, 2286.247
1115.917, 2303.148
1116.399, 2318.543
1116.881, 2329.878
1117.363, 2337.186
1117.845, 2338.726
1118.327, 2331.031
1118.809, 2336.893
1119.291, 2360.587
1119.773, 2381.464
1120.255, 2392.106
1120.738, 2399.401
1121.220, 2408.561
1121.702, 2420.320
1122.184, 2437.837
1122.666, 2459.619
1123.148, 2474.331
1123.630, 2484.566
1124.112, 2511.273
1124.595, 2554.433
1125.077, 2582.874
1125.559, 2581.859
1126.041, 2581.558
1126.523, 2621.165
1127.005, 2669.065
1127.487, 2672.178
1127.969, 2658.826
1128.452, 2674.162
1128.934, 2711.367
1129.416, 2746.340
1129.898, 2773.706
1130.380, 2800.558
1130.862, 2829.218
1131.344, 2861.003
1131.826, 2901.885
1132.308, 2940.106
1132.791, 2962.093
1133.273, 2982.344
1133.755, 3019.409
1134.237, 3067.569
1134.719, 3109.299
1135.201, 3141.956
1135.683, 3169.945
1136.165, 3189.739
1136.647, 3211.285
1137.130, 3241.086
1137.612, 3265.321
1138.094, 3271.484
1138.576, 3276.167
1139.058, 3299.680
1139.540, 3339.085
1140.022, 3381.546
1140.504, 3430.719
1140.987, 3455.044
1141.469, 3449.168
1141.951, 3460.805
1142.433, 3504.814
1142.915, 3533.596
1143.397, 3512.808
1143.879, 3475.995
1144.361, 3477.365
1144.844, 3501.919
1145.326, 3500.438
1145.808, 3482.207
1146.290, 3481.662
1146.772, 3495.482
1147.254, 3492.541
1147.736, 3464.347
1148.218, 3431.859
1148.700, 3406.259
1149.182, 3390.487
1149.665, 3403.818
1150.147, 3411.880
1150.629, 3368.693
1151.111, 3305.348
1151.593, 3264.336
1152.075, 3245.691
1152.557, 3232.116
1153.039, 3221.020
1153.522, 3202.644
1154.004, 3166.421
1154.486, 3133.988
1154.968, 3117.162
1155.450, 3099.285
1155.932, 3064.323
1156.414, 3028.316
1156.896, 3012.852
1157.379, 3013.718
1157.861, 3004.808
1158.343, 2984.909
1158.825, 2958.375
1159.307, 2922.524
1159.789, 2892.341
1160.271, 2871.748
1160.753, 2856.343
1161.235, 2844.026
1161.718, 2830.715
1162.200, 2807.991
1162.682, 2781.366
1163.164, 2771.395
1163.646, 2772.605
1164.128, 2763.910
1164.610, 2746.647
1165.092, 2736.173
1165.574, 2735.650
1166.057, 2733.854
1166.539, 2724.302
1167.021, 2709.315
1167.503, 2686.630
1167.985, 2664.004
1168.467, 2645.415
1168.949, 2633.291
1169.431, 2634.854
1169.914, 2643.486
1170.396, 2641.920
1170.878, 2626.810
1171.360, 2618.468
1171.842, 2630.995
1172.324, 2635.393
1172.806, 2624.239
1173.288, 2607.570
1173.771, 2582.156
1174.253, 2561.656
1174.735, 2559.953
1175.217, 2571.142
1175.699, 2578.854
1176.181, 2582.696
1176.663, 2592.829
1177.145, 2610.151
1177.627, 2617.821
1178.109, 2613.243
1178.592, 2603.960
1179.074, 2593.218
1179.556, 2586.196
1180.038, 2589.351
1180.520, 2595.167
1181.002, 2585.905
1181.484, 2573.586
1181.966, 2588.412
1182.449, 2614.805
1182.931, 2612.515
1183.413, 2585.688
1183.895, 2572.352
##END=



