##NAMES=Zoisite
##RRUFFID=X060001
##IDEAL CHEMISTRY=Ca_2_Al_3_(Si_2_O_7_)(SiO_4_)O(OH)
##LOCALITY=unknown
##OWNER=
##SOURCE=Michael Scott
##DESCRIPTION=Colorless to blue bicolored gem stone
##STATUS=The identification of this mineral has been determined only by Raman spectroscopy
##URL=rruff.info/X060001
101.7563, 185.2903
102.2384, 188.5179
102.7205, 191.9255
103.2026, 189.0964
103.6847, 174.9925
104.1668, 165.2362
104.6490, 166.5466
105.1311, 184.9869
105.6132, 198.5464
106.0953, 205.7537
106.5774, 208.1664
107.0595, 210.4014
107.5417, 209.9972
108.0238, 211.6706
108.5059, 217.6235
108.9880, 228.7965
109.4701, 243.1394
109.9522, 260.2975
110.4344, 280.5204
110.9165, 304.0437
111.3986, 330.3312
111.8807, 360.3465
112.3628, 394.5244
112.8449, 424.9139
113.3271, 466.8700
113.8092, 526.1826
114.2913, 604.2536
114.7734, 689.1778
115.2555, 767.9474
115.7376, 853.9204
116.2198, 962.3369
116.7019, 1089.685
117.1840, 1246.173
117.6661, 1439.757
118.1482, 1673.635
118.6303, 1937.227
119.1124, 2290.406
119.5946, 2675.525
120.0767, 2954.414
120.5588, 3025.220
121.0409, 2973.307
121.5230, 2866.566
122.0051, 2684.102
122.4873, 2500.736
122.9694, 2384.205
123.4515, 2326.392
123.9336, 2284.098
124.4157, 2232.758
124.8979, 2176.154
125.3800, 2120.731
125.8621, 2071.659
126.3442, 2023.437
126.8263, 1964.994
127.3084, 1896.279
127.7905, 1829.753
128.2727, 1780.128
128.7548, 1744.214
129.2369, 1711.466
129.7190, 1675.011
130.2011, 1637.993
130.6832, 1611.457
131.1654, 1597.664
131.6475, 1588.099
132.1296, 1565.916
132.6117, 1531.631
133.0938, 1505.973
133.5759, 1505.253
134.0581, 1527.593
134.5402, 1544.370
135.0223, 1549.433
135.5044, 1551.405
135.9865, 1573.655
136.4686, 1618.652
136.9508, 1670.717
137.4329, 1716.806
137.9150, 1754.259
138.3971, 1803.156
138.8792, 1869.435
139.3613, 1950.418
139.8434, 2027.133
140.3256, 2096.093
140.8077, 2168.323
141.2898, 2257.349
141.7719, 2368.837
142.2540, 2479.827
142.7361, 2580.834
143.2183, 2670.189
143.7004, 2777.336
144.1825, 2899.954
144.6646, 3042.178
145.1467, 3207.194
145.6288, 3400.644
146.1110, 3612.046
146.5931, 3845.810
147.0752, 4130.599
147.5573, 4367.917
148.0394, 4577.248
148.5215, 4735.642
149.0037, 4795.906
149.4858, 4738.400
149.9679, 4600.158
150.4500, 4388.645
150.9321, 4034.662
151.4142, 3706.025
151.8964, 3399.642
152.3785, 3118.518
152.8606, 2874.539
153.3427, 2667.003
153.8248, 2495.000
154.3069, 2357.989
154.7890, 2275.009
155.2712, 2204.367
155.7533, 2142.471
156.2354, 2089.316
156.7175, 2040.355
157.1996, 1987.527
157.6817, 1941.596
158.1639, 1910.582
158.6460, 1910.216
159.1281, 1912.068
159.6102, 1907.467
160.0923, 1895.785
160.5744, 1882.634
161.0566, 1863.788
161.5387, 1846.121
162.0208, 1837.430
162.5029, 1849.467
162.9850, 1864.020
163.4671, 1872.455
163.9493, 1873.561
164.4314, 1870.770
164.9135, 1862.224
165.3956, 1851.213
165.8777, 1843.051
166.3598, 1843.233
166.8420, 1845.285
167.3241, 1843.589
167.8062, 1835.546
168.2883, 1829.753
168.7704, 1832.894
169.2525, 1842.783
169.7346, 1853.983
170.2168, 1865.323
170.6989, 1875.712
171.1810, 1883.027
171.6631, 1884.186
172.1452, 1887.305
172.6273, 1899.808
173.1095, 1920.507
173.5916, 1944.903
174.0737, 1971.254
174.5558, 1999.323
175.0379, 2028.419
175.5201, 2058.858
176.0022, 2090.140
176.4843, 2121.243
176.9664, 2152.100
177.4485, 2183.590
177.9306, 2218.072
178.4128, 2253.468
178.8949, 2286.210
179.3770, 2315.963
179.8591, 2341.937
180.3412, 2359.176
180.8233, 2367.639
181.3055, 2380.093
181.7876, 2410.300
182.2697, 2454.836
182.7518, 2503.230
183.2339, 2546.717
183.7160, 2591.902
184.1982, 2653.582
184.6803, 2732.289
185.1624, 2822.945
185.6445, 2925.985
186.1266, 3038.677
186.6087, 3150.618
187.0908, 3237.303
187.5730, 3315.337
188.0551, 3452.660
188.5372, 3661.081
189.0193, 3898.669
189.5014, 4126.753
189.9835, 4346.009
190.4657, 4528.988
190.9478, 4684.273
191.4299, 4803.436
191.9120, 4803.494
192.3941, 4663.938
192.8762, 4439.958
193.3584, 4210.432
193.8405, 3975.498
194.3226, 3752.559
194.8047, 3552.642
195.2868, 3375.571
195.7689, 3216.995
196.2511, 3073.619
196.7332, 2949.304
197.2153, 2858.653
197.6974, 2804.517
198.1795, 2760.373
198.6616, 2710.050
199.1438, 2652.605
199.6259, 2598.567
200.1080, 2547.081
200.5901, 2500.741
201.0722, 2470.208
201.5543, 2457.580
202.0364, 2451.482
202.5186, 2444.184
203.0007, 2435.290
203.4828, 2427.487
203.9649, 2420.009
204.4470, 2413.929
204.9291, 2413.663
205.4113, 2418.377
205.8934, 2430.793
206.3755, 2454.974
206.8576, 2493.246
207.3397, 2531.179
207.8218, 2564.291
208.3040, 2594.327
208.7861, 2635.398
209.2682, 2688.568
209.7503, 2749.843
210.2324, 2814.109
210.7145, 2877.667
211.1967, 2956.240
211.6788, 3056.560
212.1609, 3177.544
212.6430, 3297.542
213.1251, 3421.681
213.6072, 3535.647
214.0894, 3632.190
214.5715, 3723.516
215.0536, 3762.260
215.5357, 3729.552
216.0178, 3623.850
216.4999, 3505.608
216.9820, 3370.292
217.4642, 3229.103
217.9463, 3089.978
218.4284, 2947.660
218.9105, 2823.091
219.3926, 2722.656
219.8747, 2648.505
220.3569, 2586.079
220.8390, 2538.115
221.3211, 2499.461
221.8032, 2462.044
222.2853, 2425.391
222.7674, 2391.921
223.2496, 2363.622
223.7317, 2341.507
224.2138, 2317.108
224.6959, 2288.474
225.1780, 2259.086
225.6601, 2232.267
226.1423, 2206.477
226.6244, 2186.786
227.1065, 2177.225
227.5886, 2181.900
228.0707, 2176.813
228.5528, 2156.615
229.0350, 2129.788
229.5171, 2109.805
229.9992, 2096.182
230.4813, 2089.616
230.9634, 2091.835
231.4455, 2106.324
231.9276, 2116.695
232.4098, 2121.589
232.8919, 2123.132
233.3740, 2124.440
233.8561, 2123.395
234.3382, 2125.642
234.8203, 2134.062
235.3025, 2151.553
235.7846, 2165.843
236.2667, 2175.405
236.7488, 2182.546
237.2309, 2191.313
237.7130, 2200.935
238.1952, 2213.376
238.6773, 2231.391
239.1594, 2261.646
239.6415, 2277.493
240.1236, 2272.236
240.6057, 2255.383
241.0879, 2246.395
241.5700, 2247.621
242.0521, 2253.283
242.5342, 2262.690
243.0163, 2280.234
243.4984, 2289.165
243.9806, 2285.646
244.4627, 2274.860
244.9448, 2267.169
245.4269, 2259.601
245.9090, 2259.515
246.3911, 2270.350
246.8732, 2295.451
247.3554, 2322.866
247.8375, 2353.737
248.3196, 2386.390
248.8017, 2416.398
249.2838, 2439.042
249.7659, 2466.056
250.2481, 2503.460
250.7302, 2556.817
251.2123, 2605.386
251.6944, 2645.806
252.1765, 2682.899
252.6586, 2727.821
253.1408, 2780.491
253.6229, 2841.610
254.1050, 2913.707
254.5871, 3000.921
255.0692, 3084.786
255.5513, 3160.478
256.0334, 3235.045
256.5156, 3327.692
256.9977, 3448.083
257.4798, 3570.199
257.9619, 3682.667
258.4440, 3782.647
258.9261, 3887.950
259.4083, 4013.812
259.8904, 4137.487
260.3725, 4209.687
260.8546, 4230.229
261.3367, 4199.896
261.8188, 4114.213
262.3010, 3960.775
262.7831, 3789.083
263.2652, 3584.725
263.7473, 3371.035
264.2294, 3190.338
264.7115, 3048.290
265.1937, 2929.985
265.6758, 2832.321
266.1579, 2759.047
266.6400, 2693.935
267.1221, 2635.624
267.6042, 2587.318
268.0864, 2557.199
268.5685, 2547.370
269.0506, 2549.300
269.5327, 2562.357
270.0148, 2589.245
270.4969, 2609.727
270.9791, 2619.108
271.4612, 2627.599
271.9433, 2654.647
272.4254, 2703.792
272.9075, 2757.999
273.3896, 2811.248
273.8718, 2863.125
274.3539, 2911.678
274.8360, 2953.361
275.3181, 2997.790
275.8002, 3065.229
276.2823, 3160.738
276.7645, 3252.552
277.2466, 3329.100
277.7287, 3389.873
278.2108, 3446.793
278.6929, 3502.937
279.1750, 3549.625
279.6572, 3570.914
280.1393, 3564.553
280.6214, 3552.715
281.1035, 3540.739
281.5856, 3529.059
282.0677, 3527.789
282.5499, 3540.226
283.0320, 3553.835
283.5141, 3547.013
283.9962, 3518.875
284.4783, 3500.559
284.9604, 3511.398
285.4425, 3544.925
285.9247, 3555.135
286.4068, 3539.865
286.8889, 3511.438
287.3710, 3488.390
287.8531, 3469.368
288.3352, 3430.637
288.8174, 3356.409
289.2995, 3256.052
289.7816, 3163.464
290.2637, 3080.544
290.7458, 3003.239
291.2279, 2926.224
291.7101, 2850.749
292.1922, 2784.484
292.6743, 2730.168
293.1564, 2687.156
293.6385, 2656.121
294.1206, 2637.492
294.6028, 2625.919
295.0849, 2615.886
295.5670, 2608.603
296.0491, 2608.337
296.5312, 2616.719
297.0133, 2632.684
297.4955, 2658.943
297.9776, 2694.618
298.4597, 2726.825
298.9418, 2743.777
299.4239, 2748.939
299.9060, 2749.697
300.3882, 2747.266
300.8703, 2742.031
301.3524, 2732.447
301.8345, 2719.171
302.3166, 2707.940
302.7987, 2705.841
303.2809, 2707.749
303.7630, 2704.176
304.2451, 2688.513
304.7272, 2673.019
305.2093, 2668.151
305.6914, 2673.894
306.1736, 2690.264
306.6557, 2717.224
307.1378, 2755.009
307.6199, 2804.997
308.1020, 2871.139
308.5841, 2942.932
309.0663, 3009.705
309.5484, 3075.714
310.0305, 3149.744
310.5126, 3247.015
310.9947, 3349.740
311.4768, 3445.861
311.9590, 3539.618
312.4411, 3607.735
312.9232, 3637.085
313.4053, 3629.824
313.8874, 3590.611
314.3695, 3495.197
314.8517, 3386.381
315.3337, 3291.411
315.8159, 3216.063
316.2980, 3144.087
316.7801, 3062.726
317.2622, 2980.783
317.7443, 2910.833
318.2264, 2855.766
318.7086, 2815.750
319.1907, 2792.953
319.6728, 2788.934
320.1549, 2792.619
320.6370, 2801.600
321.1191, 2816.347
321.6013, 2837.463
322.0834, 2861.055
322.5655, 2894.549
323.0476, 2942.763
323.5297, 3006.734
324.0118, 3071.150
324.4940, 3125.411
324.9761, 3183.200
325.4582, 3255.931
325.9403, 3347.520
326.4224, 3451.236
326.9045, 3569.604
327.3867, 3702.277
327.8688, 3836.813
328.3509, 3966.477
328.8330, 4102.137
329.3151, 4251.505
329.7972, 4412.788
330.2794, 4590.641
330.7615, 4788.524
331.2436, 5005.691
331.7257, 5230.857
332.2078, 5460.582
332.6899, 5704.183
333.1721, 5967.452
333.6542, 6249.448
334.1363, 6551.715
334.6184, 6894.294
335.1005, 7252.022
335.5826, 7571.536
336.0648, 7862.957
336.5469, 8097.595
337.0290, 8274.092
337.5111, 8407.389
337.9932, 8415.682
338.4753, 8277.896
338.9575, 8038.933
339.4396, 7757.687
339.9217, 7419.382
340.4038, 7095.068
340.8859, 6798.520
341.3680, 6532.263
341.8502, 6331.172
342.3323, 6206.390
342.8144, 6127.243
343.2965, 6063.273
343.7786, 6014.111
344.2607, 5979.885
344.7429, 5975.206
345.2250, 5985.125
345.7071, 5952.463
346.1892, 5877.350
346.6713, 5754.329
347.1534, 5560.033
347.6355, 5304.875
348.1176, 5039.127
348.5998, 4764.321
349.0819, 4492.603
349.5640, 4242.953
350.0461, 4012.343
350.5282, 3805.425
351.0103, 3625.082
351.4925, 3468.684
351.9746, 3328.657
352.4567, 3205.318
352.9388, 3096.958
353.4209, 3002.126
353.9030, 2920.795
354.3852, 2852.749
354.8673, 2805.094
355.3494, 2767.613
355.8315, 2729.026
356.3136, 2687.858
356.7957, 2646.262
357.2779, 2605.044
357.7600, 2564.874
358.2421, 2527.646
358.7242, 2488.549
359.2063, 2456.265
359.6884, 2439.580
360.1706, 2440.513
360.6527, 2441.572
361.1348, 2433.126
361.6169, 2420.606
362.0990, 2410.538
362.5811, 2408.592
363.0633, 2405.786
363.5454, 2397.498
364.0275, 2383.892
364.5096, 2372.531
364.9917, 2367.605
365.4738, 2364.304
365.9560, 2359.188
366.4381, 2349.813
366.9202, 2340.883
367.4023, 2330.402
367.8844, 2319.875
368.3665, 2316.865
368.8487, 2332.345
369.3308, 2347.045
369.8129, 2352.633
370.2950, 2345.340
370.7771, 2335.130
371.2592, 2316.360
371.7414, 2296.230
372.2235, 2290.895
372.7056, 2311.314
373.1877, 2329.124
373.6698, 2333.883
374.1519, 2323.485
374.6341, 2310.915
375.1162, 2292.525
375.5983, 2276.654
376.0804, 2275.333
376.5625, 2291.444
377.0446, 2310.264
377.5267, 2328.141
378.0089, 2345.451
378.4910, 2365.352
378.9731, 2389.291
379.4552, 2409.900
379.9373, 2417.224
380.4194, 2412.050
380.9016, 2411.809
381.3837, 2421.458
381.8658, 2436.307
382.3479, 2444.280
382.8300, 2445.787
383.3121, 2450.642
383.7943, 2466.515
384.2764, 2490.773
384.7585, 2517.265
385.2406, 2545.346
385.7227, 2574.434
386.2048, 2596.782
386.6870, 2617.492
387.1691, 2652.398
387.6512, 2716.075
388.1333, 2794.476
388.6154, 2871.711
389.0975, 2946.108
389.5797, 3026.684
390.0618, 3113.875
390.5439, 3212.294
391.0260, 3326.584
391.5081, 3468.719
391.9902, 3618.029
392.4724, 3773.761
392.9545, 3932.179
393.4366, 4070.787
393.9187, 4207.503
394.4008, 4304.100
394.8829, 4334.110
395.3651, 4265.635
395.8472, 4165.884
396.3293, 4041.108
396.8114, 3896.349
397.2935, 3744.940
397.7756, 3564.532
398.2578, 3398.749
398.7399, 3263.408
399.2220, 3165.990
399.7041, 3082.586
400.1862, 3014.523
400.6683, 2959.672
401.1505, 2915.676
401.6326, 2885.001
402.1147, 2861.389
402.5968, 2842.554
403.0789, 2828.493
403.5610, 2826.007
404.0432, 2837.236
404.5253, 2856.842
405.0074, 2879.411
405.4895, 2903.101
405.9716, 2939.157
406.4537, 2990.724
406.9359, 3054.318
407.4180, 3120.795
407.9001, 3190.801
408.3822, 3260.935
408.8643, 3330.905
409.3464, 3400.348
409.8285, 3465.031
410.3106, 3522.933
410.7928, 3580.352
411.2749, 3642.512
411.7570, 3711.053
412.2391, 3792.310
412.7212, 3896.508
413.2033, 4014.013
413.6855, 4120.132
414.1676, 4214.831
414.6497, 4325.137
415.1318, 4474.438
415.6139, 4652.820
416.0960, 4842.111
416.5782, 5040.090
417.0603, 5246.315
417.5424, 5481.459
418.0245, 5729.004
418.5066, 5930.542
418.9887, 6074.617
419.4709, 6152.773
419.9530, 6157.779
420.4351, 6080.964
420.9172, 5952.268
421.3993, 5764.384
421.8814, 5535.537
422.3636, 5292.459
422.8457, 5015.891
423.3278, 4750.462
423.8099, 4509.877
424.2920, 4292.663
424.7741, 4098.191
425.2563, 3923.566
425.7384, 3772.120
426.2205, 3650.498
426.7026, 3570.054
427.1847, 3498.700
427.6668, 3434.051
428.1490, 3376.877
428.6311, 3328.805
429.1132, 3285.214
429.5953, 3259.167
430.0774, 3260.277
430.5595, 3291.787
431.0417, 3326.519
431.5238, 3365.570
432.0059, 3405.113
432.4880, 3437.059
432.9701, 3461.193
433.4522, 3491.726
433.9344, 3536.531
434.4165, 3590.639
434.8986, 3641.152
435.3807, 3688.085
435.8628, 3732.574
436.3449, 3775.690
436.8271, 3817.142
437.3092, 3858.885
437.7913, 3906.865
438.2734, 3942.873
438.7555, 3942.182
439.2376, 3911.976
439.7197, 3873.933
440.2018, 3836.601
440.6840, 3798.427
441.1661, 3757.819
441.6482, 3714.847
442.1303, 3670.375
442.6124, 3626.357
443.0945, 3580.381
443.5767, 3530.318
444.0588, 3467.205
444.5409, 3407.914
445.0230, 3356.530
445.5051, 3312.958
445.9872, 3277.103
446.4694, 3253.397
446.9515, 3234.158
447.4336, 3216.289
447.9157, 3205.425
448.3978, 3185.259
448.8799, 3146.379
449.3621, 3102.084
449.8442, 3076.368
450.3263, 3071.730
450.8084, 3080.669
451.2905, 3103.810
451.7726, 3140.697
452.2548, 3176.174
452.7369, 3208.763
453.2190, 3243.843
453.7011, 3289.931
454.1832, 3346.983
454.6653, 3398.652
455.1475, 3446.034
455.6296, 3481.882
456.1117, 3500.622
456.5938, 3500.361
457.0759, 3460.587
457.5580, 3350.088
458.0402, 3195.742
458.5223, 3044.478
459.0044, 2896.487
459.4865, 2765.935
459.9686, 2662.568
460.4507, 2584.509
460.9329, 2526.319
461.4150, 2494.120
461.8971, 2475.694
462.3792, 2466.507
462.8613, 2465.525
463.3434, 2467.148
463.8256, 2465.781
464.3077, 2468.351
464.7898, 2480.351
465.2719, 2507.397
465.7540, 2533.122
466.2361, 2555.400
466.7183, 2574.418
467.2004, 2589.914
467.6825, 2587.640
468.1646, 2597.843
468.6467, 2629.355
469.1288, 2682.423
469.6110, 2735.540
470.0930, 2788.767
470.5752, 2842.130
471.0573, 2893.871
471.5394, 2939.811
472.0215, 3000.971
472.5036, 3081.127
472.9857, 3174.921
473.4679, 3272.985
473.9500, 3374.529
474.4321, 3478.978
474.9142, 3585.809
475.3963, 3695.219
475.8784, 3812.023
476.3606, 3937.261
476.8427, 4055.684
477.3248, 4148.934
477.8069, 4224.304
478.2890, 4292.705
478.7711, 4344.776
479.2533, 4411.263
479.7354, 4531.150
480.2175, 4691.472
480.6996, 4853.999
481.1817, 4986.701
481.6638, 5121.358
482.1460, 5277.457
482.6281, 5455.404
483.1102, 5656.006
483.5923, 5879.207
484.0744, 6124.843
484.5565, 6393.840
485.0387, 6691.152
485.5208, 7002.230
486.0029, 7337.417
486.4850, 7688.860
486.9671, 8022.087
487.4492, 8315.632
487.9314, 8613.167
488.4135, 8929.688
488.8956, 9259.470
489.3777, 9629.269
489.8598, 10051.71
490.3419, 10499.63
490.8241, 10971.60
491.3062, 11479.87
491.7883, 11897.55
492.2704, 12208.92
492.7525, 12402.77
493.2346, 12463.36
493.7168, 12389.36
494.1989, 12163.30
494.6810, 11724.81
495.1631, 11133.87
495.6452, 10484.05
496.1273, 9781.487
496.6095, 9073.801
497.0916, 8396.978
497.5737, 7762.394
498.0558, 7184.576
498.5379, 6680.316
499.0201, 6232.197
499.5022, 5849.750
499.9843, 5523.289
500.4664, 5217.118
500.9485, 4910.261
501.4306, 4628.619
501.9127, 4391.861
502.3948, 4215.123
502.8770, 4056.782
503.3591, 3921.310
503.8412, 3801.061
504.3233, 3683.811
504.8054, 3557.819
505.2875, 3456.720
505.7697, 3392.649
506.2518, 3360.093
506.7339, 3319.819
507.2160, 3269.117
507.6981, 3218.776
508.1802, 3178.188
508.6624, 3146.883
509.1445, 3106.124
509.6266, 3051.817
510.1087, 2997.835
510.5908, 2962.458
511.0729, 2943.667
511.5551, 2933.067
512.0372, 2930.169
512.5193, 2931.781
513.0014, 2932.556
513.4835, 2933.401
513.9656, 2939.495
514.4478, 2958.474
514.9299, 2981.586
515.4120, 2999.914
515.8941, 3009.347
516.3762, 3023.316
516.8583, 3050.651
517.3405, 3084.344
517.8226, 3115.477
518.3047, 3130.602
518.7868, 3155.476
519.2689, 3200.129
519.7510, 3261.766
520.2332, 3319.363
520.7153, 3368.801
521.1974, 3417.910
521.6795, 3469.234
522.1616, 3521.449
522.6437, 3580.866
523.1259, 3645.346
523.6080, 3719.741
524.0901, 3814.664
524.5722, 3931.445
525.0543, 4043.736
525.5364, 4144.397
526.0186, 4238.913
526.5007, 4348.871
526.9828, 4469.492
527.4649, 4567.187
527.9470, 4610.104
528.4291, 4619.929
528.9113, 4632.384
529.3934, 4653.358
529.8755, 4652.477
530.3576, 4608.705
530.8397, 4531.164
531.3218, 4430.050
531.8040, 4283.517
532.2861, 4140.641
532.7682, 4017.890
533.2503, 3912.156
533.7324, 3819.170
534.2145, 3740.494
534.6967, 3671.808
535.1788, 3612.047
535.6609, 3563.176
536.1430, 3515.438
536.6251, 3470.077
537.1072, 3425.522
537.5894, 3381.492
538.0715, 3338.591
538.5536, 3293.337
539.0357, 3244.783
539.5178, 3194.832
539.9999, 3142.546
540.4821, 3089.186
540.9642, 3047.628
541.4463, 3031.039
541.9284, 3028.716
542.4105, 3017.734
542.8926, 2998.123
543.3748, 2978.815
543.8569, 2965.872
544.3390, 2957.772
544.8211, 2952.633
545.3032, 2950.250
545.7853, 2950.149
546.2675, 2954.308
546.7495, 2960.237
547.2316, 2963.670
547.7137, 2955.465
548.1959, 2952.852
548.6780, 2963.499
549.1601, 2987.274
549.6422, 3007.293
550.1243, 3024.999
550.6064, 3037.292
551.0886, 3040.428
551.5707, 3029.552
552.0528, 3029.350
552.5349, 3043.819
553.0170, 3062.063
553.4991, 3068.432
553.9813, 3063.154
554.4634, 3056.864
554.9455, 3052.434
555.4276, 3048.871
555.9097, 3037.884
556.3918, 3022.870
556.8740, 3023.598
557.3561, 3066.794
557.8382, 3124.760
558.3203, 3165.236
558.8024, 3184.488
559.2845, 3201.866
559.7667, 3220.591
560.2488, 3246.681
560.7309, 3286.267
561.2130, 3349.193
561.6951, 3415.541
562.1772, 3483.443
562.6594, 3552.479
563.1415, 3621.070
563.6236, 3676.907
564.1057, 3748.692
564.5878, 3848.550
565.0699, 3974.814
565.5521, 4096.650
566.0342, 4210.514
566.5163, 4330.497
566.9984, 4470.887
567.4805, 4630.157
567.9626, 4790.510
568.4448, 4950.063
568.9269, 5116.515
569.4090, 5309.495
569.8911, 5519.513
570.3732, 5725.463
570.8553, 5920.896
571.3375, 6105.607
571.8196, 6282.173
572.3017, 6447.474
572.7838, 6579.233
573.2659, 6695.929
573.7480, 6755.229
574.2302, 6727.295
574.7123, 6599.218
575.1944, 6432.891
575.6765, 6229.007
576.1586, 5996.043
576.6407, 5739.338
577.1229, 5431.523
577.6050, 5147.746
578.0871, 4894.903
578.5692, 4667.088
579.0513, 4458.866
579.5334, 4271.181
580.0156, 4096.546
580.4977, 3928.710
580.9798, 3772.672
581.4619, 3647.460
581.9440, 3553.063
582.4261, 3477.052
582.9083, 3415.432
583.3904, 3365.642
583.8725, 3323.231
584.3546, 3287.933
584.8367, 3258.162
585.3188, 3235.806
585.8010, 3216.989
586.2831, 3196.752
586.7652, 3167.062
587.2473, 3142.908
587.7294, 3125.148
588.2115, 3115.428
588.6937, 3119.469
589.1758, 3141.935
589.6579, 3171.777
590.1400, 3205.258
590.6221, 3242.241
591.1042, 3290.588
591.5864, 3351.968
592.0685, 3418.971
592.5506, 3478.006
593.0327, 3531.586
593.5148, 3625.074
593.9969, 3771.125
594.4791, 3928.697
594.9612, 4055.056
595.4433, 4152.809
595.9254, 4227.557
596.4075, 4289.777
596.8896, 4320.552
597.3718, 4302.243
597.8539, 4238.814
598.3360, 4142.278
598.8181, 4002.223
599.3002, 3842.794
599.7823, 3669.182
600.2645, 3477.091
600.7466, 3302.306
601.2287, 3142.686
601.7108, 3006.439
602.1929, 2900.332
602.6750, 2830.616
603.1572, 2777.548
603.6393, 2744.944
604.1214, 2721.531
604.6035, 2686.048
605.0856, 2638.352
605.5677, 2603.508
606.0499, 2591.543
606.5320, 2593.530
607.0141, 2594.976
607.4962, 2595.799
607.9783, 2595.619
608.4604, 2590.874
608.9425, 2587.098
609.4246, 2589.856
609.9067, 2599.543
610.3889, 2612.019
610.8710, 2625.856
611.3531, 2641.466
611.8352, 2658.974
612.3173, 2677.228
612.7994, 2699.727
613.2816, 2727.034
613.7637, 2758.519
614.2458, 2793.905
614.7279, 2834.358
615.2100, 2874.779
615.6921, 2911.560
616.1743, 2949.439
616.6564, 3001.776
617.1385, 3068.628
617.6206, 3143.654
618.1027, 3231.181
618.5848, 3322.847
619.0670, 3403.337
619.5491, 3472.673
620.0312, 3537.374
620.5133, 3606.865
620.9954, 3672.245
621.4775, 3724.181
621.9597, 3758.845
622.4418, 3786.399
622.9239, 3812.167
623.4060, 3832.186
623.8881, 3841.961
624.3702, 3845.064
624.8524, 3831.386
625.3345, 3792.831
625.8166, 3738.449
626.2987, 3698.717
626.7808, 3681.301
627.2629, 3646.940
627.7451, 3574.653
628.2272, 3473.579
628.7093, 3382.536
629.1914, 3301.556
629.6735, 3225.225
630.1556, 3149.161
630.6378, 3076.701
631.1199, 3014.985
631.6020, 2965.533
632.0841, 2920.996
632.5662, 2877.751
633.0483, 2836.365
633.5305, 2796.997
634.0126, 2756.373
634.4947, 2723.459
634.9768, 2707.936
635.4589, 2699.524
635.9410, 2678.368
636.4232, 2634.635
636.9053, 2596.202
637.3874, 2569.291
637.8695, 2552.768
638.3516, 2542.658
638.8337, 2539.747
639.3159, 2535.292
639.7980, 2522.200
640.2801, 2503.559
640.7622, 2487.693
641.2443, 2474.674
641.7264, 2466.581
642.2086, 2470.639
642.6907, 2478.066
643.1728, 2476.840
643.6549, 2459.808
644.1370, 2448.233
644.6191, 2456.221
645.1013, 2472.618
645.5834, 2483.293
646.0655, 2476.904
646.5476, 2476.980
647.0297, 2488.468
647.5118, 2507.020
647.9940, 2520.119
648.4761, 2526.286
648.9582, 2532.426
649.4403, 2540.726
649.9224, 2550.942
650.4045, 2560.871
650.8867, 2570.750
651.3688, 2587.200
651.8509, 2621.462
652.3330, 2662.602
652.8151, 2692.641
653.2972, 2709.085
653.7794, 2726.782
654.2615, 2753.605
654.7436, 2786.128
655.2257, 2820.956
655.7078, 2855.033
656.1899, 2896.245
656.6721, 2955.790
657.1542, 3018.756
657.6363, 3063.692
658.1184, 3082.062
658.6005, 3106.641
659.0826, 3147.677
659.5648, 3194.917
660.0469, 3217.832
660.5290, 3216.707
661.0111, 3214.928
661.4932, 3217.219
661.9753, 3229.076
662.4575, 3268.731
662.9396, 3332.073
663.4217, 3388.247
663.9038, 3405.063
664.3859, 3415.980
664.8680, 3444.327
665.3502, 3492.497
665.8323, 3560.533
666.3144, 3661.415
666.7965, 3773.957
667.2786, 3881.748
667.7607, 3978.515
668.2429, 4082.637
668.7250, 4192.973
669.2071, 4312.906
669.6892, 4447.845
670.1713, 4598.115
670.6534, 4757.520
671.1355, 4923.807
671.6176, 5100.038
672.0997, 5288.567
672.5818, 5488.706
673.0640, 5701.810
673.5461, 5936.868
674.0282, 6177.947
674.5103, 6428.402
674.9924, 6682.132
675.4745, 6906.322
675.9567, 7088.173
676.4388, 7238.704
676.9209, 7370.332
677.4030, 7491.153
677.8851, 7531.178
678.3672, 7480.133
678.8494, 7365.986
679.3315, 7201.420
679.8136, 6987.207
680.2957, 6735.813
680.7778, 6446.835
681.2599, 6144.913
681.7421, 5858.755
682.2242, 5584.340
682.7063, 5317.987
683.1884, 5048.913
683.6705, 4802.283
684.1526, 4606.910
684.6348, 4444.298
685.1169, 4281.604
685.5990, 4081.338
686.0811, 3913.783
686.5632, 3812.433
687.0453, 3757.384
687.5275, 3685.560
688.0096, 3583.810
688.4917, 3496.051
688.9738, 3441.711
689.4559, 3413.420
689.9380, 3363.797
690.4202, 3292.597
690.9023, 3221.329
691.3844, 3162.191
691.8665, 3114.680
692.3486, 3080.547
692.8307, 3059.587
693.3129, 3037.840
693.7950, 3002.894
694.2771, 2965.087
694.7592, 2934.701
695.2413, 2919.564
695.7234, 2895.587
696.2056, 2853.900
696.6877, 2805.478
697.1698, 2759.632
697.6519, 2715.958
698.1340, 2675.633
698.6161, 2637.139
699.0983, 2604.833
699.5804, 2590.870
700.0625, 2592.698
700.5446, 2588.951
701.0267, 2570.002
701.5089, 2545.782
701.9910, 2529.400
702.4731, 2517.895
702.9552, 2503.028
703.4373, 2470.655
703.9194, 2443.599
704.4016, 2438.056
704.8837, 2451.748
705.3658, 2454.078
705.8479, 2428.888
706.3300, 2409.358
706.8121, 2411.043
707.2943, 2434.535
707.7764, 2444.973
708.2585, 2440.721
708.7406, 2431.743
709.2227, 2425.618
709.7048, 2421.153
710.1870, 2413.157
710.6691, 2400.642
711.1512, 2391.564
711.6333, 2390.875
712.1154, 2397.683
712.5975, 2413.033
713.0797, 2445.457
713.5618, 2467.371
714.0439, 2460.754
714.5260, 2443.614
715.0081, 2437.721
715.4902, 2448.112
715.9724, 2459.567
716.4545, 2470.444
716.9366, 2481.638
717.4187, 2493.268
717.9008, 2505.552
718.3829, 2524.471
718.8651, 2556.573
719.3472, 2590.734
719.8293, 2607.369
720.3114, 2612.133
720.7935, 2623.139
721.2756, 2654.905
721.7578, 2690.493
722.2399, 2721.629
722.7220, 2748.430
723.2041, 2771.244
723.6862, 2793.511
724.1683, 2808.150
724.6505, 2810.418
725.1326, 2800.385
725.6147, 2796.086
726.0968, 2799.985
726.5789, 2799.091
727.0610, 2780.602
727.5432, 2749.819
728.0253, 2726.482
728.5074, 2711.865
728.9895, 2693.424
729.4716, 2655.108
729.9537, 2610.880
730.4359, 2577.800
730.9180, 2563.393
731.4001, 2543.837
731.8822, 2500.411
732.3643, 2455.912
732.8464, 2432.095
733.3285, 2438.529
733.8106, 2444.155
734.2927, 2448.742
734.7748, 2449.951
735.2570, 2442.157
735.7391, 2426.361
736.2212, 2413.992
736.7033, 2409.120
737.1854, 2405.849
737.6675, 2395.470
738.1497, 2381.366
738.6318, 2370.354
739.1139, 2369.252
739.5960, 2367.652
740.0781, 2358.618
740.5602, 2345.612
741.0424, 2339.822
741.5245, 2347.444
742.0066, 2353.324
742.4887, 2352.357
742.9708, 2346.802
743.4529, 2348.927
743.9351, 2359.490
744.4172, 2365.573
744.8993, 2352.791
745.3814, 2333.187
745.8635, 2334.846
746.3456, 2354.494
746.8278, 2371.001
747.3099, 2364.907
747.7920, 2356.209
748.2741, 2361.151
748.7562, 2382.616
749.2383, 2394.940
749.7205, 2390.772
750.2026, 2381.241
750.6847, 2372.618
751.1668, 2366.118
751.6489, 2346.592
752.1310, 2308.868
752.6132, 2280.361
753.0953, 2293.363
753.5774, 2335.653
754.0595, 2372.779
754.5416, 2401.659
755.0237, 2422.307
755.5059, 2429.398
755.9880, 2431.140
756.4701, 2436.699
756.9522, 2451.961
757.4343, 2462.759
757.9164, 2462.710
758.3986, 2459.621
758.8807, 2460.990
759.3628, 2467.779
759.8449, 2475.154
760.3270, 2482.004
760.8091, 2490.709
761.2913, 2509.912
761.7734, 2535.322
762.2555, 2547.783
762.7376, 2533.885
763.2197, 2521.884
763.7018, 2545.457
764.1840, 2587.209
764.6661, 2617.145
765.1482, 2610.988
765.6303, 2607.829
766.1124, 2617.197
766.5945, 2635.545
767.0767, 2655.554
767.5588, 2677.007
768.0409, 2700.627
768.5230, 2727.487
769.0051, 2755.621
769.4872, 2783.913
769.9694, 2811.136
770.4515, 2828.530
770.9336, 2818.342
771.4157, 2806.420
771.8978, 2821.617
772.3799, 2857.555
772.8621, 2888.148
773.3442, 2905.354
773.8263, 2914.824
774.3084, 2915.409
774.7905, 2908.775
775.2726, 2909.757
775.7548, 2922.422
776.2369, 2931.111
776.7190, 2926.112
777.2011, 2910.974
777.6832, 2900.317
778.1653, 2893.959
778.6475, 2890.175
779.1296, 2890.748
779.6117, 2891.333
780.0938, 2887.939
780.5759, 2880.281
781.0580, 2869.348
781.5402, 2859.774
782.0223, 2842.681
782.5044, 2811.675
782.9865, 2764.722
783.4686, 2722.602
783.9507, 2684.354
784.4329, 2653.209
784.9150, 2633.284
785.3971, 2622.195
785.8792, 2611.599
786.3613, 2601.183
786.8434, 2586.483
787.3256, 2556.586
787.8077, 2525.078
788.2898, 2507.416
788.7719, 2510.226
789.2540, 2507.912
789.7361, 2489.200
790.2183, 2466.952
790.7004, 2450.086
791.1825, 2440.247
791.6646, 2428.575
792.1467, 2413.920
792.6288, 2400.623
793.1110, 2394.857
793.5930, 2394.129
794.0751, 2389.699
794.5573, 2379.650
795.0394, 2370.003
795.5215, 2365.229
796.0036, 2363.846
796.4857, 2364.912
796.9678, 2372.818
797.4500, 2374.346
797.9321, 2366.466
798.4142, 2353.242
798.8963, 2336.427
799.3784, 2313.500
799.8605, 2302.769
800.3427, 2308.410
800.8248, 2318.543
801.3069, 2316.239
801.7890, 2306.535
802.2711, 2302.857
802.7532, 2311.463
803.2354, 2318.513
803.7175, 2312.956
804.1996, 2301.774
804.6817, 2293.726
805.1638, 2292.030
805.6459, 2291.417
806.1281, 2291.392
806.6102, 2292.658
807.0923, 2298.136
807.5744, 2308.080
808.0565, 2310.114
808.5386, 2299.478
809.0208, 2287.144
809.5029, 2289.467
809.9850, 2300.820
810.4671, 2309.972
810.9492, 2313.230
811.4313, 2313.614
811.9135, 2306.980
812.3956, 2299.817
812.8777, 2303.569
813.3598, 2326.946
813.8419, 2343.874
814.3240, 2351.316
814.8062, 2350.859
815.2883, 2341.770
815.7704, 2325.660
816.2525, 2314.803
816.7346, 2312.225
817.2167, 2317.158
817.6989, 2337.651
818.1810, 2363.435
818.6631, 2376.354
819.1452, 2353.648
819.6273, 2337.582
820.1094, 2341.918
820.5916, 2357.818
821.0737, 2372.603
821.5558, 2386.303
822.0379, 2398.938
822.5200, 2411.652
823.0021, 2421.062
823.4843, 2417.926
823.9664, 2405.986
824.4485, 2397.754
824.9306, 2398.854
825.4127, 2403.300
825.8948, 2405.419
826.3770, 2408.177
826.8591, 2416.930
827.3412, 2440.048
827.8233, 2459.792
828.3054, 2474.361
828.7875, 2484.321
829.2697, 2487.359
829.7518, 2482.966
830.2339, 2489.379
830.7160, 2515.948
831.1981, 2546.490
831.6802, 2557.170
832.1624, 2554.871
832.6445, 2553.736
833.1266, 2551.961
833.6087, 2560.934
834.0908, 2593.888
834.5729, 2638.094
835.0551, 2669.416
835.5372, 2683.238
836.0193, 2694.093
836.5014, 2702.028
836.9835, 2711.430
837.4656, 2732.279
837.9478, 2762.307
838.4299, 2791.812
838.9120, 2819.122
839.3941, 2842.837
839.8762, 2854.870
840.3583, 2864.253
840.8405, 2885.927
841.3226, 2938.850
841.8047, 2984.216
842.2868, 3012.102
842.7689, 3034.098
843.2510, 3071.245
843.7332, 3125.478
844.2153, 3172.668
844.6974, 3208.271
845.1795, 3234.154
845.6616, 3246.693
846.1437, 3252.100
846.6259, 3262.628
847.1080, 3281.529
847.5901, 3307.382
848.0722, 3345.220
848.5543, 3387.623
849.0364, 3423.781
849.5186, 3451.385
850.0007, 3477.461
850.4828, 3500.101
850.9649, 3526.197
851.4470, 3566.563
851.9291, 3619.580
852.4113, 3678.582
852.8934, 3743.074
853.3755, 3811.256
853.8576, 3876.759
854.3397, 3947.038
854.8218, 4032.405
855.3040, 4144.177
855.7860, 4258.299
856.2681, 4375.480
856.7502, 4490.286
857.2324, 4594.547
857.7145, 4686.450
858.1966, 4795.607
858.6787, 4930.103
859.1608, 5060.903
859.6429, 5158.188
860.1251, 5230.415
860.6072, 5293.829
861.0893, 5352.283
861.5714, 5400.013
862.0535, 5422.985
862.5356, 5442.518
863.0178, 5478.342
863.4999, 5537.218
863.9820, 5586.327
864.4641, 5617.135
864.9462, 5661.544
865.4283, 5752.840
865.9105, 5881.828
866.3926, 6026.141
866.8747, 6181.824
867.3568, 6356.777
867.8389, 6568.974
868.3210, 6789.324
868.8032, 6997.271
869.2853, 7187.228
869.7674, 7371.857
870.2495, 7568.612
870.7316, 7734.411
871.2137, 7839.968
871.6959, 7887.602
872.1780, 7903.203
872.6601, 7887.228
873.1422, 7825.703
873.6243, 7697.171
874.1064, 7523.609
874.5886, 7321.208
875.0707, 7090.331
875.5528, 6845.746
876.0349, 6568.778
876.5170, 6298.220
876.9991, 6045.763
877.4813, 5812.432
877.9634, 5623.427
878.4455, 5480.367
878.9276, 5358.979
879.4097, 5242.963
879.8918, 5141.293
880.3740, 5066.782
880.8561, 5019.239
881.3382, 4995.969
881.8203, 5016.100
882.3024, 5039.949
882.7845, 5044.001
883.2667, 5035.921
883.7488, 5054.667
884.2309, 5102.347
884.7130, 5169.330
885.1951, 5262.003
885.6772, 5362.023
886.1594, 5436.103
886.6415, 5486.016
887.1236, 5520.044
887.6057, 5540.402
888.0878, 5547.499
888.5699, 5548.878
889.0521, 5535.928
889.5342, 5484.648
890.0163, 5371.421
890.4984, 5276.161
890.9805, 5219.442
891.4626, 5176.007
891.9448, 5095.169
892.4269, 4984.709
892.9090, 4872.431
893.3911, 4762.968
893.8732, 4661.317
894.3553, 4568.563
894.8375, 4486.130
895.3196, 4418.103
895.8017, 4381.718
896.2838, 4330.888
896.7659, 4252.145
897.2480, 4174.753
897.7302, 4139.931
898.2123, 4142.474
898.6944, 4130.788
899.1765, 4095.063
899.6586, 4064.750
900.1407, 4071.297
900.6229, 4095.624
901.1050, 4116.986
901.5871, 4129.660
902.0692, 4147.955
902.5513, 4173.091
903.0334, 4204.784
903.5156, 4241.459
903.9977, 4283.229
904.4798, 4340.132
904.9619, 4412.639
905.4440, 4490.700
905.9261, 4567.906
906.4083, 4644.879
906.8904, 4726.245
907.3725, 4811.439
907.8546, 4886.719
908.3367, 4940.414
908.8188, 4991.492
909.3010, 5049.933
909.7831, 5113.012
910.2652, 5153.220
910.7473, 5170.138
911.2294, 5173.504
911.7115, 5165.180
912.1937, 5148.677
912.6758, 5123.343
913.1579, 5093.396
913.6400, 5071.675
914.1221, 5060.629
914.6042, 5061.507
915.0864, 5070.553
915.5685, 5092.373
916.0506, 5143.251
916.5327, 5227.067
917.0148, 5308.003
917.4969, 5374.057
917.9790, 5441.626
918.4611, 5521.401
918.9432, 5622.393
919.4254, 5764.085
919.9075, 5979.316
920.3896, 6193.075
920.8717, 6355.586
921.3538, 6520.046
921.8359, 6739.759
922.3181, 7021.916
922.8002, 7329.703
923.2823, 7663.375
923.7644, 8012.189
924.2465, 8351.599
924.7286, 8694.406
925.2108, 9072.725
925.6929, 9500.791
926.1750, 9880.843
926.6571, 10202.49
927.1392, 10435.94
927.6213, 10574.07
928.1035, 10617.46
928.5856, 10541.74
929.0677, 10339.90
929.5498, 10054.92
930.0319, 9697.150
930.5140, 9282.010
930.9962, 8808.307
931.4783, 8284.425
931.9604, 7785.086
932.4425, 7323.972
932.9246, 6904.146
933.4067, 6527.054
933.8889, 6189.730
934.3710, 5874.591
934.8531, 5582.075
935.3352, 5322.201
935.8173, 5105.231
936.2994, 4920.798
936.7816, 4765.318
937.2637, 4632.146
937.7458, 4509.448
938.2279, 4385.221
938.7100, 4280.862
939.1921, 4211.397
939.6743, 4163.680
940.1564, 4120.808
940.6385, 4082.415
941.1206, 4052.770
941.6027, 4032.832
942.0848, 4018.225
942.5670, 4005.704
943.0491, 3994.442
943.5312, 3984.168
944.0133, 3975.815
944.4954, 3960.744
944.9775, 3933.280
945.4597, 3899.652
945.9418, 3864.534
946.4239, 3828.040
946.9060, 3785.487
947.3881, 3736.560
947.8702, 3683.180
948.3524, 3625.108
948.8345, 3564.200
949.3166, 3503.198
949.7987, 3441.610
950.2808, 3379.144
950.7629, 3307.478
951.2451, 3245.516
951.7272, 3201.815
952.2093, 3170.698
952.6914, 3135.741
953.1735, 3096.274
953.6556, 3062.081
954.1378, 3036.333
954.6199, 3016.798
955.1020, 3001.627
955.5841, 2990.231
956.0662, 2981.781
956.5483, 2977.855
957.0305, 2973.781
957.5126, 2966.699
957.9947, 2961.056
958.4768, 2960.491
958.9589, 2964.992
959.4410, 2977.127
959.9232, 2997.913
960.4053, 3016.977
960.8874, 3019.579
961.3695, 3019.208
961.8516, 3033.128
962.3337, 3063.371
962.8159, 3087.786
963.2980, 3093.422
963.7801, 3104.198
964.2622, 3130.788
964.7443, 3170.233
965.2264, 3203.874
965.7086, 3232.805
966.1907, 3268.895
966.6728, 3321.803
967.1549, 3381.229
967.6370, 3442.594
968.1191, 3503.356
968.6013, 3555.358
969.0834, 3576.255
969.5655, 3625.946
970.0476, 3720.364
970.5297, 3832.225
971.0118, 3925.359
971.4940, 4001.974
971.9761, 4068.241
972.4582, 4121.320
972.9403, 4192.579
973.4224, 4315.701
973.9045, 4462.064
974.3867, 4608.274
974.8688, 4754.596
975.3509, 4893.650
975.8330, 5020.527
976.3151, 5152.680
976.7972, 5300.636
977.2794, 5460.314
977.7615, 5629.024
978.2436, 5805.261
978.7257, 5984.295
979.2078, 6172.041
979.6899, 6352.314
980.1720, 6518.551
980.6541, 6671.399
981.1362, 6822.054
981.6183, 6975.655
982.1005, 7102.107
982.5826, 7195.041
983.0647, 7256.798
983.5468, 7295.451
984.0289, 7302.844
984.5110, 7262.280
984.9932, 7163.534
985.4753, 7033.010
985.9574, 6864.831
986.4395, 6677.885
986.9216, 6484.666
987.4037, 6285.813
987.8859, 6066.971
988.3680, 5828.377
988.8501, 5596.930
989.3322, 5398.837
989.8143, 5215.467
990.2964, 5026.194
990.7786, 4832.838
991.2607, 4644.322
991.7428, 4453.013
992.2249, 4284.303
992.7070, 4148.802
993.1891, 4036.493
993.6713, 3923.341
994.1534, 3810.458
994.6355, 3707.342
995.1176, 3617.389
995.5997, 3536.563
996.0818, 3466.676
996.5640, 3401.608
997.0461, 3333.009
997.5282, 3251.895
998.0103, 3189.900
998.4924, 3152.896
998.9745, 3119.181
999.4567, 3062.851
999.9388, 2995.917
1000.421, 2952.026
1000.903, 2931.340
1001.385, 2917.309
1001.867, 2916.882
1002.349, 2905.047
1002.831, 2857.691
1003.314, 2787.818
1003.796, 2750.882
1004.278, 2750.378
1004.760, 2750.184
1005.242, 2739.087
1005.724, 2722.153
1006.206, 2703.509
1006.688, 2684.579
1007.171, 2667.262
1007.653, 2650.200
1008.135, 2638.614
1008.617, 2637.585
1009.099, 2636.335
1009.581, 2622.554
1010.063, 2597.457
1010.545, 2583.576
1011.027, 2581.572
1011.510, 2584.662
1011.992, 2595.543
1012.474, 2603.120
1012.956, 2594.800
1013.438, 2572.172
1013.920, 2559.572
1014.402, 2561.839
1014.884, 2563.533
1015.367, 2559.403
1015.849, 2553.382
1016.331, 2556.609
1016.813, 2564.311
1017.295, 2562.427
1017.777, 2538.748
1018.259, 2521.654
1018.741, 2529.609
1019.223, 2544.496
1019.706, 2551.041
1020.188, 2548.525
1020.670, 2539.282
1021.152, 2522.211
1021.634, 2510.095
1022.116, 2517.370
1022.598, 2532.517
1023.080, 2546.980
1023.563, 2558.675
1024.045, 2557.095
1024.527, 2523.749
1025.009, 2500.584
1025.491, 2498.478
1025.973, 2510.613
1026.455, 2525.603
1026.937, 2542.274
1027.419, 2556.199
1027.901, 2567.679
1028.384, 2571.017
1028.866, 2555.032
1029.348, 2533.658
1029.830, 2521.666
1030.312, 2522.651
1030.794, 2517.175
1031.276, 2503.989
1031.758, 2490.765
1032.241, 2479.700
1032.723, 2474.111
1033.205, 2485.784
1033.687, 2509.498
1034.169, 2522.738
1034.651, 2504.245
1035.133, 2490.396
1035.615, 2492.232
1036.098, 2501.014
1036.580, 2496.624
1037.062, 2481.458
1037.544, 2481.730
1038.026, 2506.395
1038.508, 2528.362
1038.990, 2518.350
1039.472, 2499.325
1039.954, 2494.109
1040.437, 2507.577
1040.919, 2516.963
1041.401, 2520.969
1041.883, 2525.766
1042.365, 2536.303
1042.847, 2549.263
1043.329, 2555.097
1043.811, 2557.076
1044.293, 2565.195
1044.776, 2591.547
1045.258, 2614.454
1045.740, 2627.438
1046.222, 2635.376
1046.704, 2642.125
1047.186, 2647.924
1047.668, 2664.729
1048.150, 2694.463
1048.633, 2725.587
1049.115, 2748.873
1049.597, 2768.268
1050.079, 2781.834
1050.561, 2789.606
1051.043, 2823.206
1051.525, 2893.051
1052.007, 2957.457
1052.490, 2997.121
1052.972, 3026.543
1053.454, 3070.998
1053.936, 3128.535
1054.418, 3194.909
1054.900, 3269.210
1055.382, 3349.715
1055.864, 3429.913
1056.346, 3521.531
1056.828, 3637.432
1057.311, 3777.498
1057.793, 3914.346
1058.275, 4047.912
1058.757, 4197.299
1059.239, 4381.705
1059.721, 4584.561
1060.203, 4799.155
1060.685, 5022.412
1061.168, 5239.867
1061.650, 5439.496
1062.132, 5663.657
1062.614, 5921.457
1063.096, 6200.805
1063.578, 6473.639
1064.060, 6755.983
1064.542, 7083.723
1065.025, 7467.935
1065.507, 7882.738
1065.989, 8310.377
1066.471, 8767.937
1066.953, 9257.566
1067.435, 9785.148
1067.917, 10387.83
1068.399, 11063.94
1068.881, 11751.27
1069.364, 12424.40
1069.846, 13101.48
1070.328, 13878.59
1070.810, 14639.26
1071.292, 15182.18
1071.774, 15517.13
1072.256, 15604.63
1072.738, 15432.69
1073.220, 15046.75
1073.703, 14434.50
1074.185, 13676.04
1074.667, 12865.88
1075.149, 12011.06
1075.631, 11193.01
1076.113, 10413.92
1076.595, 9700.059
1077.077, 9061.082
1077.559, 8500.009
1078.042, 8031.292
1078.524, 7649.171
1079.006, 7324.656
1079.488, 7054.769
1079.970, 6835.007
1080.452, 6673.240
1080.934, 6553.144
1081.416, 6453.486
1081.899, 6373.707
1082.381, 6319.416
1082.863, 6290.046
1083.345, 6303.632
1083.827, 6391.899
1084.309, 6511.142
1084.791, 6613.031
1085.273, 6713.361
1085.755, 6857.790
1086.238, 7067.269
1086.720, 7286.846
1087.202, 7512.202
1087.684, 7744.053
1088.166, 7988.220
1088.648, 8240.095
1089.130, 8500.234
1089.612, 8768.394
1090.094, 9029.604
1090.577, 9303.217
1091.059, 9539.454
1091.541, 9733.568
1092.023, 9872.623
1092.505, 9918.545
1092.987, 9874.226
1093.469, 9762.777
1093.951, 9593.999
1094.434, 9351.107
1094.916, 8998.116
1095.398, 8577.279
1095.880, 8127.745
1096.362, 7642.779
1096.844, 7171.431
1097.326, 6709.401
1097.808, 6280.841
1098.291, 5900.192
1098.773, 5559.928
1099.255, 5266.217
1099.737, 5010.175
1100.219, 4777.232
1100.701, 4560.368
1101.183, 4374.894
1101.665, 4225.929
1102.147, 4096.849
1102.630, 3973.673
1103.112, 3855.767
1103.594, 3737.413
1104.076, 3619.578
1104.558, 3512.365
1105.040, 3430.976
1105.522, 3350.028
1106.004, 3258.531
1106.486, 3163.032
1106.969, 3082.985
1107.451, 3018.084
1107.933, 2966.368
1108.415, 2931.804
1108.897, 2896.069
1109.379, 2840.055
1109.861, 2782.335
1110.343, 2740.273
1110.826, 2714.750
1111.308, 2688.894
1111.790, 2663.175
1112.272, 2632.888
1112.754, 2590.001
1113.236, 2546.623
1113.718, 2516.719
1114.200, 2495.879
1114.682, 2475.779
1115.165, 2453.103
1115.647, 2435.531
1116.129, 2424.942
1116.611, 2414.806
1117.093, 2396.273
1117.575, 2375.064
1118.057, 2364.791
1118.539, 2363.772
1119.021, 2357.417
1119.504, 2334.158
1119.986, 2313.382
1120.468, 2299.891
1120.950, 2290.030
1121.432, 2277.763
1121.914, 2263.464
1122.396, 2246.264
1122.878, 2225.108
1123.361, 2210.498
1123.843, 2219.149
1124.325, 2225.292
1124.807, 2210.422
1125.289, 2180.027
1125.771, 2168.239
1126.253, 2174.101
1126.735, 2179.544
1127.218, 2177.538
1127.700, 2173.563
1128.182, 2171.530
1128.664, 2170.251
1129.146, 2168.467
1129.628, 2166.370
1130.110, 2162.130
1130.592, 2155.578
1131.074, 2147.659
1131.557, 2135.446
1132.039, 2124.822
1132.521, 2126.947
1133.003, 2136.236
1133.485, 2138.530
1133.967, 2125.664
1134.449, 2117.652
1134.931, 2116.836
1135.413, 2118.390
1135.896, 2118.892
1136.378, 2117.463
1136.860, 2112.452
1137.342, 2103.854
1137.824, 2092.225
1138.306, 2064.502
1138.788, 2053.196
1139.270, 2072.843
1139.752, 2103.366
1140.235, 2104.654
1140.717, 2084.830
1141.199, 2067.433
1141.681, 2056.334
1142.163, 2053.142
1142.645, 2068.978
1143.127, 2082.107
1143.609, 2079.346
1144.092, 2065.228
1144.574, 2063.866
1145.056, 2072.938
1145.538, 2074.305
1146.020, 2057.828
1146.502, 2040.107
1146.984, 2029.574
1147.466, 2025.284
1147.948, 2026.886
1148.431, 2035.157
1148.913, 2039.509
1149.395, 2039.926
1149.877, 2038.794
1150.359, 2038.815
1150.841, 2036.610
1151.323, 2026.226
1151.805, 2012.412
1152.287, 2004.756
1152.770, 2005.468
1153.252, 2004.691
1153.734, 2001.456
1154.216, 1999.131
1154.698, 2003.842
1155.180, 2008.922
1155.662, 2003.621
1156.144, 1990.595
1156.627, 1986.988
1157.109, 1997.388
1157.591, 2009.069
1158.073, 2021.112
1158.555, 2030.694
1159.037, 2034.343
1159.519, 2033.216
1160.001, 2027.625
1160.484, 2017.460
1160.966, 2010.154
1161.448, 2007.497
1161.930, 2006.981
1162.412, 2008.592
1162.894, 2010.804
1163.376, 2013.273
1163.858, 2013.490
1164.340, 2003.313
1164.823, 1975.717
1165.305, 1958.085
1165.787, 1962.770
1166.269, 1972.147
1166.751, 1979.097
1167.233, 1983.649
1167.715, 1985.715
1168.197, 1985.277
1168.679, 1981.851
1169.162, 1971.592
1169.644, 1964.677
1170.126, 1966.685
1170.608, 1971.482
1171.090, 1974.830
1171.572, 1976.833
1172.054, 1978.889
1172.536, 1981.328
1173.019, 1987.026
1173.501, 2004.586
1173.983, 2017.700
1174.465, 2016.367
1174.947, 2007.899
1175.429, 2000.070
1175.911, 1992.954
1176.393, 1985.558
1176.875, 1978.005
1177.358, 1973.474
1177.840, 1973.426
1178.322, 1978.072
1178.804, 1992.056
1179.286, 2009.852
1179.768, 2017.902
1180.250, 2015.824
1180.732, 2012.874
1181.214, 2010.036
1181.697, 2010.432
1182.179, 2020.171
1182.661, 2031.357
1183.143, 2039.251
1183.625, 2042.917
1184.107, 2037.373
1184.589, 2021.693
1185.071, 2006.570
1185.554, 1993.989
1186.036, 1985.944
1186.518, 1988.561
1187.000, 1994.287
1187.482, 1994.758
1187.964, 1989.245
1188.446, 1985.270
1188.928, 1982.990
1189.411, 1981.190
1189.893, 1979.789
1190.375, 1977.955
1190.857, 1972.714
1191.339, 1967.466
1191.821, 1967.758
1192.303, 1976.599
1192.785, 1979.592
1193.267, 1975.692
1193.750, 1971.631
1194.232, 1972.375
1194.714, 1973.932
1195.196, 1970.127
1195.678, 1963.739
1196.160, 1959.946
1196.642, 1959.698
1197.124, 1961.690
1197.606, 1965.965
1198.089, 1972.225
1198.571, 1985.339
1199.053, 1996.671
1199.535, 1989.853
1200.017, 1971.461
1200.499, 1961.702
1200.981, 1969.205
1201.463, 1972.840
1201.945, 1970.293
1202.428, 1966.533
1202.910, 1965.149
1203.392, 1966.277
1203.874, 1975.839
1204.356, 1990.002
1204.838, 1984.963
1205.320, 1942.581
1205.802, 1916.220
1206.285, 1916.027
1206.767, 1925.953
1207.249, 1928.738
1207.731, 1927.900
1208.213, 1927.417
1208.695, 1927.883
1209.177, 1933.070
1209.659, 1948.852
1210.141, 1954.835
1210.624, 1943.219
1211.106, 1927.229
1211.588, 1929.998
1212.070, 1939.048
1212.552, 1929.961
1213.034, 1896.915
1213.516, 1888.101
1213.998, 1919.122
1214.480, 1944.842
1214.963, 1949.736
1215.445, 1944.000
1215.927, 1940.587
1216.409, 1940.103
1216.891, 1945.429
1217.373, 1960.037
1217.855, 1964.128
1218.337, 1953.641
1218.820, 1940.412
1219.302, 1928.762
1219.784, 1918.564
1220.266, 1906.071
1220.748, 1896.058
1221.230, 1899.177
1221.712, 1927.098
1222.194, 1939.726
1222.677, 1930.236
1223.159, 1920.206
1223.641, 1924.642
1224.123, 1933.339
1224.605, 1924.982
1225.087, 1907.775
1225.569, 1898.348
1226.051, 1907.785
1226.533, 1911.960
1227.016, 1908.393
1227.498, 1906.032
1227.980, 1912.570
1228.462, 1923.338
1228.944, 1934.701
1229.426, 1943.670
1229.908, 1942.577
1230.390, 1916.327
1230.872, 1907.084
1231.355, 1919.975
1231.837, 1935.675
1232.319, 1935.197
1232.801, 1929.637
1233.283, 1939.755
1233.765, 1958.354
1234.247, 1960.923
1234.729, 1933.291
1235.212, 1915.927
1235.694, 1912.776
1236.176, 1915.119
1236.658, 1915.905
1237.140, 1916.590
1237.622, 1916.846
1238.104, 1918.350
1238.586, 1929.793
1239.068, 1959.365
1239.551, 1971.304
1240.033, 1958.831
1240.515, 1941.795
1240.997, 1941.086
1241.479, 1945.783
1241.961, 1943.158
1242.443, 1934.391
1242.925, 1930.581
1243.407, 1934.515
1243.890, 1930.656
1244.372, 1914.330
1244.854, 1902.596
1245.336, 1921.281
1245.818, 1946.855
1246.300, 1957.180
1246.782, 1951.802
1247.264, 1941.756
1247.747, 1925.156
1248.229, 1918.821
1248.711, 1927.833
1249.193, 1938.792
1249.675, 1940.030
1250.157, 1936.844
1250.639, 1933.109
1251.121, 1929.282
1251.604, 1925.841
1252.086, 1922.864
1252.568, 1920.928
1253.050, 1920.840
1253.532, 1918.836
1254.014, 1907.526
1254.496, 1896.584
1254.978, 1896.092
1255.460, 1903.109
1255.943, 1899.016
1256.425, 1884.827
1256.907, 1884.030
1257.389, 1905.517
1257.871, 1930.702
1258.353, 1959.729
1258.835, 1973.577
1259.317, 1952.167
1259.799, 1906.174
1260.281, 1897.667
1260.764, 1919.834
1261.246, 1927.281
1261.728, 1899.938
1262.210, 1877.152
1262.692, 1890.787
1263.174, 1903.871
1263.656, 1891.802
1264.138, 1862.990
1264.621, 1850.956
1265.103, 1853.482
1265.585, 1863.648
1266.067, 1884.566
1266.549, 1897.560
1267.031, 1886.765
1267.513, 1877.998
1267.995, 1887.656
1268.478, 1907.296
1268.960, 1909.095
1269.442, 1898.493
1269.924, 1891.126
1270.406, 1894.326
1270.888, 1893.454
1271.370, 1881.488
1271.852, 1875.265
1272.334, 1890.608
1272.817, 1913.133
1273.299, 1905.588
1273.781, 1881.166
1274.263, 1868.055
1274.745, 1878.845
1275.227, 1892.846
1275.709, 1912.211
1276.191, 1925.689
1276.673, 1925.848
1277.156, 1917.067
1277.638, 1899.900
1278.120, 1880.816
1278.602, 1871.563
1279.084, 1876.306
1279.566, 1885.587
1280.048, 1900.682
1280.530, 1912.829
1281.013, 1916.509
1281.495, 1914.841
1281.977, 1912.082
1282.459, 1905.659
1282.941, 1889.340
1283.423, 1858.164
1283.905, 1846.189
1284.387, 1853.737
1284.870, 1862.040
1285.352, 1854.119
1285.834, 1848.534
1286.316, 1865.021
1286.798, 1886.269
1287.280, 1889.239
1287.762, 1872.935
1288.244, 1868.929
1288.726, 1875.928
1289.208, 1879.861
1289.691, 1869.488
1290.173, 1858.410
1290.655, 1848.309
1291.137, 1844.059
1291.619, 1855.762
1292.101, 1878.729
1292.583, 1877.996
1293.065, 1858.720
1293.548, 1844.408
1294.030, 1853.487
1294.512, 1856.208
1294.994, 1842.257
1295.476, 1830.094
1295.958, 1841.527
1296.440, 1865.122
1296.922, 1873.398
1297.405, 1871.849
1297.887, 1867.280
1298.369, 1849.339
1298.851, 1835.602
1299.333, 1824.811
1299.815, 1824.006
1300.297, 1837.469
1300.779, 1865.201
##END=



