##NAMES=Zoisite
##RRUFFID=R050041
##IDEAL CHEMISTRY=Ca_2_Al_3_(Si_2_O_7_)(SiO_4_)O(OH)
##LOCALITY=Franklin County, Conway, Massachussetts, USA
##OWNER=RRUFF
##SOURCE=University of Arizona Mineral Museum
##DESCRIPTION=Tan colored fragment
##STATUS=The identification of this mineral has been confirmed by X-ray diffraction and chemical analysis
##URL=rruff.info/R050041
##MEASURED CHEMISTRY=(Ca_.993_Mg_.004_Na_.002_Mn_.001_)_2_(Al_.980_Fe^3+^_.020_)_3_(Si_.986_Fe^3+^_.014_)_3_O_12_(OH)
152.5922, 18635.17
153.0743, 18645.70
153.5564, 18662.03
154.0385, 18685.70
154.5206, 18715.38
155.0028, 18751.92
155.4849, 18795.59
155.9670, 18841.50
156.4491, 18893.27
156.9312, 18945.24
157.4133, 18991.46
157.8955, 19019.35
158.3776, 19050.36
158.8597, 19094.92
159.3418, 19157.97
159.8239, 19219.32
160.3060, 19264.03
160.7882, 19303.59
161.2703, 19357.83
161.7524, 19446.90
162.2345, 19544.65
162.7166, 19635.32
163.1987, 19714.23
163.6808, 19789.56
164.1630, 19862.57
164.6451, 19934.93
165.1272, 20011.95
165.6093, 20095.57
166.0914, 20185.37
166.5735, 20280.95
167.0557, 20382.26
167.5378, 20489.75
168.0199, 20608.28
168.5020, 20736.29
168.9841, 20856.97
169.4662, 20955.12
169.9484, 21039.89
170.4305, 21125.34
170.9126, 21222.26
171.3947, 21319.34
171.8768, 21404.29
172.3589, 21477.47
172.8411, 21544.49
173.3232, 21606.52
173.8053, 21666.25
174.2874, 21729.77
174.7695, 21802.92
175.2516, 21879.95
175.7338, 21949.92
176.2159, 22008.84
176.6980, 22072.67
177.1801, 22165.00
177.6622, 22279.81
178.1443, 22391.41
178.6264, 22478.82
179.1086, 22554.42
179.5907, 22644.49
180.0728, 22757.45
180.5549, 22875.99
181.0370, 22975.47
181.5191, 23057.05
182.0013, 23138.61
182.4834, 23234.97
182.9655, 23341.24
183.4476, 23444.41
183.9297, 23537.89
184.4118, 23629.27
184.8940, 23739.72
185.3761, 23870.81
185.8582, 23993.78
186.3403, 24073.83
186.8224, 24118.69
187.3046, 24178.16
187.7867, 24270.05
188.2688, 24386.38
188.7509, 24516.01
189.2330, 24665.21
189.7151, 24789.47
190.1973, 24827.36
190.6794, 24781.87
191.1615, 24730.22
191.6436, 24703.07
192.1257, 24695.49
192.6078, 24669.57
193.0900, 24622.43
193.5721, 24564.25
194.0542, 24510.34
194.5363, 24461.52
195.0184, 24406.13
195.5005, 24327.39
195.9826, 24226.13
196.4648, 24165.65
196.9469, 24156.60
197.4290, 24175.57
197.9111, 24185.55
198.3932, 24187.94
198.8753, 24172.29
199.3575, 24120.79
199.8396, 24028.85
200.3217, 23966.20
200.8038, 23941.91
201.2859, 23947.58
201.7680, 23966.54
202.2502, 24003.80
202.7323, 24037.61
203.2144, 24057.99
203.6965, 24067.32
204.1786, 24042.46
204.6607, 23961.01
205.1429, 23845.44
205.6250, 23807.39
206.1071, 23868.08
206.5892, 23955.80
207.0713, 24014.39
207.5534, 24038.34
208.0356, 24054.96
208.5177, 24063.55
208.9998, 24066.35
209.4819, 24090.98
209.9640, 24143.41
210.4461, 24207.98
210.9282, 24271.35
211.4104, 24337.66
211.8925, 24391.43
212.3746, 24429.98
212.8567, 24453.11
213.3388, 24454.43
213.8209, 24418.29
214.3031, 24379.83
214.7852, 24386.22
215.2673, 24453.70
215.7494, 24526.15
216.2315, 24588.54
216.7136, 24639.04
217.1958, 24689.76
217.6779, 24742.94
218.1600, 24794.80
218.6421, 24839.66
219.1242, 24874.32
219.6063, 24908.52
220.0885, 24945.93
220.5706, 24987.00
221.0527, 25028.09
221.5348, 25066.60
222.0169, 25106.73
222.4990, 25161.04
222.9812, 25242.29
223.4633, 25314.96
223.9454, 25363.08
224.4275, 25379.00
224.9096, 25389.34
225.3917, 25389.49
225.8739, 25385.46
226.3560, 25394.29
226.8381, 25422.71
227.3202, 25453.88
227.8023, 25480.26
228.2844, 25499.58
228.7665, 25517.98
229.2487, 25531.36
229.7308, 25543.76
230.2129, 25573.33
230.6950, 25636.18
231.1771, 25694.32
231.6592, 25724.82
232.1414, 25709.72
232.6235, 25702.73
233.1056, 25705.77
233.5877, 25719.40
234.0698, 25749.75
234.5519, 25814.60
235.0341, 25874.26
235.5162, 25899.92
235.9983, 25863.94
236.4804, 25847.64
236.9625, 25866.21
237.4446, 25915.08
237.9268, 25952.06
238.4089, 25968.21
238.8910, 25982.79
239.3731, 26011.07
239.8552, 26061.10
240.3373, 26109.59
240.8195, 26152.86
241.3016, 26190.82
241.7837, 26230.22
242.2658, 26267.35
242.7479, 26309.84
243.2300, 26367.38
243.7122, 26457.85
244.1943, 26529.16
244.6764, 26567.27
245.1585, 26571.43
245.6406, 26583.88
246.1227, 26605.73
246.6048, 26634.78
247.0870, 26668.30
247.5691, 26702.67
248.0512, 26749.33
248.5333, 26819.65
249.0154, 26916.33
249.4975, 26974.83
249.9797, 26967.76
250.4618, 26949.69
250.9439, 26985.12
251.4260, 27110.76
251.9081, 27219.07
252.3902, 27279.18
252.8724, 27283.89
253.3545, 27318.38
253.8366, 27397.19
254.3187, 27491.15
254.8008, 27562.21
255.2829, 27592.27
255.7651, 27637.03
256.2472, 27718.28
256.7293, 27844.57
257.2114, 27940.24
257.6935, 27997.56
258.1756, 28031.95
258.6577, 28060.64
259.1399, 28080.71
259.6220, 28102.51
260.1041, 28132.27
260.5862, 28173.36
261.0683, 28198.02
261.5504, 28207.12
262.0326, 28199.00
262.5147, 28167.17
262.9968, 28101.79
263.4789, 28037.40
263.9610, 27980.15
264.4431, 27926.51
264.9253, 27908.16
265.4074, 27936.97
265.8895, 27987.42
266.3716, 28023.27
266.8537, 28040.51
267.3358, 28053.34
267.8180, 28060.42
268.3001, 28057.68
268.7822, 28090.60
269.2643, 28175.48
269.7464, 28275.62
270.2285, 28333.76
270.7107, 28337.51
271.1928, 28341.05
271.6749, 28364.81
272.1570, 28410.88
272.6391, 28453.70
273.1212, 28491.17
273.6034, 28528.43
274.0855, 28571.77
274.5676, 28620.26
275.0497, 28679.35
275.5318, 28750.53
276.0139, 28834.46
276.4961, 28934.35
276.9782, 29057.07
277.4603, 29184.30
277.9424, 29281.08
278.4245, 29343.45
278.9066, 29409.65
279.3888, 29500.83
279.8709, 29617.51
280.3530, 29712.17
280.8351, 29781.13
281.3172, 29836.23
281.7993, 29892.84
282.2815, 29951.33
282.7636, 30009.32
283.2457, 30066.35
283.7278, 30122.32
284.2099, 30177.16
284.6920, 30232.52
285.1741, 30282.41
285.6563, 30321.58
286.1384, 30350.20
286.6205, 30358.20
287.1026, 30331.98
287.5847, 30277.95
288.0668, 30235.34
288.5490, 30206.39
289.0311, 30180.77
289.5132, 30132.31
289.9953, 30066.39
290.4774, 30029.35
290.9595, 30063.16
291.4417, 30145.12
291.9238, 30191.86
292.4059, 30198.67
292.8880, 30189.07
293.3701, 30180.06
293.8522, 30174.78
294.3344, 30189.33
294.8165, 30240.53
295.2986, 30315.98
295.7807, 30378.86
296.2628, 30426.11
296.7449, 30486.44
297.2271, 30607.26
297.7092, 30769.85
298.1913, 30916.64
298.6734, 31000.01
299.1555, 31057.67
299.6376, 31152.79
300.1198, 31287.72
300.6019, 31438.41
301.0840, 31586.57
301.5661, 31732.20
302.0482, 31874.66
302.5303, 31995.97
303.0125, 32123.12
303.4946, 32291.36
303.9767, 32499.82
304.4588, 32738.98
304.9409, 33022.19
305.4230, 33324.12
305.9052, 33611.36
306.3873, 33880.22
306.8694, 34119.58
307.3515, 34302.17
307.8336, 34429.04
308.3157, 34553.84
308.7979, 34721.00
309.2800, 34904.93
309.7621, 35071.68
310.2442, 35248.31
310.7263, 35372.75
311.2084, 35403.54
311.6906, 35341.96
312.1727, 35216.82
312.6548, 35026.40
313.1369, 34785.86
313.6190, 34516.20
314.1011, 34183.55
314.5833, 33856.96
315.0654, 33563.64
315.5475, 33300.98
316.0296, 33069.30
316.5117, 32885.49
316.9938, 32723.71
317.4760, 32562.40
317.9580, 32374.55
318.4402, 32210.76
318.9223, 32088.86
319.4044, 32004.56
319.8865, 31941.99
320.3686, 31904.46
320.8507, 31882.10
321.3329, 31869.11
321.8150, 31884.59
322.2971, 31885.71
322.7792, 31852.14
323.2613, 31794.50
323.7434, 31754.87
324.2256, 31734.32
324.7077, 31737.26
325.1898, 31766.71
325.6719, 31850.64
326.1540, 31923.43
326.6361, 31973.97
327.1183, 32009.89
327.6004, 32055.30
328.0825, 32125.29
328.5646, 32191.72
329.0467, 32240.66
329.5288, 32245.15
330.0110, 32283.01
330.4931, 32363.98
330.9752, 32476.90
331.4573, 32597.71
331.9394, 32742.28
332.4215, 32873.96
332.9037, 32974.96
333.3858, 33027.59
333.8679, 33106.25
334.3500, 33222.01
334.8321, 33356.20
335.3142, 33480.55
335.7964, 33591.86
336.2785, 33700.96
336.7606, 33809.54
337.2427, 33916.60
337.7248, 34042.59
338.2069, 34199.80
338.6891, 34356.43
339.1712, 34454.29
339.6533, 34472.34
340.1354, 34544.11
340.6175, 34737.20
341.0996, 35036.28
341.5818, 35247.49
342.0639, 35358.61
342.5460, 35423.19
343.0281, 35494.02
343.5102, 35570.38
343.9923, 35646.82
344.4745, 35736.92
344.9566, 35821.19
345.4387, 35827.75
345.9208, 35754.65
346.4029, 35636.85
346.8850, 35502.99
347.3672, 35350.29
347.8493, 35169.09
348.3314, 34947.51
348.8135, 34706.37
349.2956, 34479.26
349.7777, 34268.44
350.2599, 34077.30
350.7419, 33910.59
351.2241, 33764.27
351.7062, 33627.34
352.1883, 33494.27
352.6704, 33376.70
353.1525, 33296.21
353.6346, 33246.87
354.1168, 33203.03
354.5989, 33154.39
355.0810, 33101.07
355.5631, 33041.23
356.0452, 32970.59
356.5273, 32905.95
357.0095, 32862.74
357.4916, 32834.44
357.9737, 32807.73
358.4558, 32778.36
358.9379, 32746.76
359.4200, 32710.78
359.9022, 32668.09
360.3843, 32632.68
360.8664, 32599.49
361.3485, 32579.92
361.8306, 32589.78
362.3127, 32676.26
362.7949, 32754.91
363.2770, 32787.70
363.7591, 32768.52
364.2412, 32752.27
364.7233, 32745.31
365.2054, 32749.40
365.6876, 32766.15
366.1697, 32813.48
366.6518, 32854.85
367.1339, 32882.53
367.6160, 32896.77
368.0981, 32907.01
368.5803, 32899.13
369.0624, 32897.64
369.5445, 32919.35
370.0266, 32993.40
370.5087, 33044.82
370.9908, 33059.77
371.4730, 33046.90
371.9551, 33042.46
372.4372, 33042.20
372.9193, 33056.72
373.4014, 33096.39
373.8835, 33174.60
374.3657, 33233.66
374.8478, 33266.88
375.3299, 33283.66
375.8120, 33303.70
376.2941, 33329.18
376.7762, 33349.90
377.2584, 33357.88
377.7405, 33352.50
378.2226, 33355.65
378.7047, 33366.84
379.1868, 33387.73
379.6689, 33419.35
380.1511, 33461.55
380.6332, 33520.68
381.1153, 33615.18
381.5974, 33727.77
382.0795, 33785.30
382.5616, 33785.35
383.0438, 33775.44
383.5259, 33807.03
384.0080, 33867.27
384.4901, 33913.89
384.9722, 33922.56
385.4543, 33923.88
385.9364, 33966.33
386.4185, 34045.28
386.9007, 34125.57
387.3828, 34185.82
387.8649, 34232.34
388.3470, 34271.40
388.8291, 34296.89
389.3112, 34330.02
389.7934, 34394.33
390.2755, 34479.84
390.7576, 34559.30
391.2397, 34606.53
391.7218, 34652.31
392.2039, 34719.44
392.6861, 34814.80
393.1682, 34917.67
393.6503, 35025.26
394.1324, 35134.09
394.6145, 35239.09
395.0966, 35368.75
395.5788, 35466.96
396.0609, 35510.38
396.5430, 35493.76
397.0251, 35456.88
397.5072, 35367.82
397.9893, 35279.39
398.4715, 35237.90
398.9536, 35314.51
399.4357, 35351.85
399.9178, 35307.25
400.3999, 35194.48
400.8820, 35141.20
401.3642, 35175.82
401.8463, 35236.43
402.3284, 35287.11
402.8105, 35318.12
403.2926, 35365.47
403.7747, 35433.26
404.2569, 35517.37
404.7390, 35613.47
405.2211, 35730.83
405.7032, 35830.70
406.1853, 35886.57
406.6674, 35896.63
407.1496, 35935.56
407.6317, 36010.74
408.1138, 36096.61
408.5959, 36154.68
409.0780, 36187.16
409.5602, 36232.06
410.0423, 36302.42
410.5244, 36394.46
411.0065, 36511.50
411.4886, 36655.13
411.9707, 36778.10
412.4529, 36838.77
412.9350, 36848.89
413.4171, 36828.33
413.8992, 36753.85
414.3813, 36690.77
414.8634, 36724.71
415.3456, 36836.80
415.8277, 36945.99
416.3098, 37011.96
416.7919, 37049.28
417.2740, 37067.13
417.7561, 37057.66
418.2382, 37056.14
418.7203, 37093.66
419.2025, 37150.02
419.6846, 37189.84
420.1667, 37184.66
420.6488, 37175.14
421.1309, 37189.01
421.6130, 37234.80
422.0952, 37242.18
422.5773, 37156.89
423.0594, 37047.29
423.5415, 36973.23
424.0236, 36953.45
424.5057, 36955.45
424.9879, 36980.81
425.4700, 37026.90
425.9521, 37080.42
426.4342, 37153.96
426.9163, 37219.30
427.3984, 37257.32
427.8806, 37252.58
428.3627, 37263.87
428.8448, 37293.78
429.3269, 37340.07
429.8090, 37402.94
430.2911, 37487.27
430.7733, 37565.84
431.2554, 37624.22
431.7375, 37664.04
432.2196, 37711.83
432.7017, 37768.79
433.1838, 37828.10
433.6660, 37878.38
434.1481, 37922.21
434.6302, 37976.16
435.1123, 38059.47
435.5944, 38143.43
436.0765, 38175.39
436.5587, 38158.19
437.0408, 38118.31
437.5229, 38057.85
438.0050, 37992.26
438.4871, 37947.39
438.9692, 37936.63
439.4514, 37925.00
439.9335, 37882.26
440.4156, 37818.56
440.8977, 37755.11
441.3798, 37696.56
441.8619, 37645.71
442.3441, 37600.41
442.8262, 37558.70
443.3083, 37540.03
443.7904, 37583.93
444.2725, 37639.25
444.7546, 37657.41
445.2368, 37592.78
445.7189, 37530.26
446.2010, 37477.95
446.6831, 37437.50
447.1652, 37422.00
447.6473, 37448.63
448.1295, 37483.33
448.6116, 37509.72
449.0937, 37525.31
449.5758, 37538.99
450.0579, 37552.55
450.5400, 37562.82
451.0221, 37558.38
451.5042, 37530.70
451.9864, 37520.61
452.4685, 37542.80
452.9506, 37596.13
453.4327, 37677.07
453.9148, 37792.33
454.3969, 37899.36
454.8791, 37955.95
455.3612, 37966.09
455.8433, 37947.57
456.3254, 37897.04
456.8075, 37829.80
457.2896, 37768.01
457.7718, 37711.27
458.2539, 37662.33
458.7360, 37628.85
459.2181, 37601.10
459.7002, 37556.95
460.1823, 37484.74
460.6645, 37442.00
461.1466, 37493.61
461.6287, 37595.87
462.1108, 37682.61
462.5929, 37720.06
463.0750, 37745.82
463.5572, 37773.16
464.0393, 37803.02
464.5214, 37837.95
465.0035, 37877.50
465.4856, 37922.78
465.9677, 37973.94
466.4499, 38023.69
466.9320, 38088.93
467.4141, 38174.69
467.8962, 38275.70
468.3783, 38381.88
468.8604, 38500.19
469.3426, 38611.70
469.8247, 38704.03
470.3068, 38771.55
470.7889, 38884.83
471.2710, 39058.02
471.7531, 39248.99
472.2353, 39421.44
472.7174, 39576.73
473.1995, 39691.27
473.6816, 39743.71
474.1637, 39769.66
474.6458, 39853.09
475.1280, 39992.67
475.6101, 40157.54
476.0922, 40347.34
476.5743, 40545.67
477.0564, 40708.50
477.5385, 40827.66
478.0207, 40940.78
478.5028, 41067.78
478.9849, 41216.26
479.4670, 41400.04
479.9491, 41656.32
480.4312, 41925.18
480.9134, 42154.19
481.3955, 42350.96
481.8776, 42576.98
482.3597, 42868.57
482.8418, 43188.18
483.3239, 43510.97
483.8060, 43834.56
484.2881, 44161.21
484.7703, 44477.33
485.2524, 44794.84
485.7345, 45132.09
486.2166, 45499.63
486.6987, 45874.15
487.1808, 46258.76
487.6630, 46655.63
488.1451, 47030.76
488.6272, 47396.15
489.1093, 47713.58
489.5914, 47952.80
490.0735, 48109.48
490.5557, 48216.25
491.0378, 48293.10
491.5199, 48301.36
492.0020, 48132.87
492.4841, 47791.87
492.9662, 47396.50
493.4484, 47030.54
493.9305, 46652.46
494.4126, 46151.88
494.8947, 45513.54
495.3768, 44873.29
495.8589, 44332.02
496.3411, 43865.95
496.8232, 43432.03
497.3053, 43009.54
497.7874, 42623.14
498.2695, 42301.19
498.7516, 42035.10
499.2338, 41790.20
499.7159, 41539.80
500.1980, 41318.79
500.6801, 41157.87
501.1622, 41077.75
501.6443, 40994.70
502.1265, 40886.42
502.6086, 40775.91
503.0907, 40689.22
503.5728, 40643.91
504.0549, 40592.89
504.5370, 40517.98
505.0192, 40429.36
505.5013, 40390.91
505.9834, 40416.88
506.4655, 40456.38
506.9476, 40482.87
507.4297, 40496.34
507.9119, 40504.39
508.3940, 40508.10
508.8761, 40503.93
509.3582, 40468.90
509.8403, 40414.13
510.3224, 40402.11
510.8046, 40483.23
511.2867, 40596.77
511.7688, 40654.35
512.2509, 40660.37
512.7330, 40651.74
513.2151, 40642.26
513.6973, 40635.25
514.1794, 40631.13
514.6615, 40625.38
515.1436, 40638.31
515.6257, 40691.48
516.1078, 40766.82
516.5900, 40836.91
517.0721, 40901.00
517.5542, 40954.27
518.0363, 40986.64
518.5184, 40999.70
519.0005, 41033.29
519.4827, 41101.02
519.9648, 41175.88
520.4469, 41238.78
520.9290, 41275.17
521.4111, 41349.88
521.8932, 41481.27
522.3754, 41629.39
522.8575, 41721.26
523.3396, 41751.80
523.8217, 41795.50
524.3038, 41884.13
524.7859, 41998.62
525.2681, 42095.98
525.7502, 42176.21
526.2323, 42229.01
526.7144, 42241.05
527.1965, 42222.52
527.6786, 42184.71
528.1608, 42122.71
528.6429, 42070.18
529.1250, 42079.86
529.6071, 42113.10
530.0892, 42107.88
530.5714, 41991.10
531.0535, 41876.94
531.5356, 41834.05
532.0176, 41852.80
532.4998, 41837.69
532.9819, 41721.32
533.4640, 41602.89
533.9461, 41534.52
534.4282, 41539.39
534.9103, 41545.59
535.3925, 41558.80
535.8746, 41569.04
536.3567, 41559.15
536.8388, 41520.86
537.3209, 41493.35
537.8030, 41490.92
538.2852, 41504.86
538.7673, 41503.63
539.2494, 41487.11
539.7315, 41455.68
540.2136, 41397.03
540.6957, 41323.65
541.1779, 41273.31
541.6600, 41251.06
542.1421, 41239.26
542.6242, 41211.61
543.1063, 41184.05
543.5884, 41184.95
544.0706, 41249.93
544.5527, 41321.84
545.0348, 41372.67
545.5169, 41403.50
545.9990, 41418.59
546.4811, 41395.11
546.9633, 41376.04
547.4454, 41384.38
547.9275, 41430.72
548.4096, 41475.98
548.8917, 41521.38
549.3738, 41563.46
549.8560, 41599.99
550.3381, 41634.00
550.8202, 41651.58
551.3023, 41638.52
551.7844, 41615.25
552.2665, 41648.12
552.7487, 41743.05
553.2308, 41835.28
553.7129, 41896.65
554.1950, 41929.20
554.6771, 41925.80
555.1592, 41883.63
555.6414, 41858.93
556.1235, 41921.36
556.6056, 42030.25
557.0877, 42117.11
557.5698, 42154.29
558.0519, 42187.34
558.5341, 42240.99
559.0162, 42314.25
559.4983, 42402.73
559.9804, 42556.63
560.4625, 42678.57
560.9446, 42704.38
561.4268, 42624.24
561.9089, 42608.49
562.3910, 42709.56
562.8731, 42840.24
563.3552, 42947.31
563.8373, 43006.13
564.3195, 43114.21
564.8016, 43301.50
565.2837, 43502.85
565.7658, 43595.31
566.2479, 43571.37
566.7300, 43570.82
567.2122, 43650.05
567.6943, 43772.83
568.1764, 43846.32
568.6585, 43875.04
569.1406, 43901.47
569.6227, 43948.81
570.1049, 44014.14
570.5870, 44111.05
571.0691, 44249.90
571.5512, 44341.69
572.0333, 44295.27
572.5154, 44183.22
572.9976, 44088.55
573.4797, 44052.64
573.9618, 44015.16
574.4439, 43969.06
574.9260, 43910.87
575.4081, 43828.80
575.8903, 43682.50
576.3724, 43562.73
576.8545, 43502.38
577.3366, 43504.19
577.8187, 43511.64
578.3008, 43530.50
578.7830, 43540.59
579.2651, 43516.04
579.7472, 43459.59
580.2293, 43422.61
580.7114, 43414.10
581.1935, 43419.36
581.6757, 43403.63
582.1578, 43381.90
582.6399, 43401.71
583.1220, 43535.94
583.6041, 43683.15
584.0862, 43729.27
584.5684, 43694.47
585.0505, 43688.92
585.5326, 43800.67
586.0147, 43931.82
586.4968, 44017.62
586.9789, 44029.52
587.4611, 44061.34
587.9432, 44131.32
588.4253, 44221.77
588.9074, 44319.71
589.3895, 44433.28
589.8716, 44534.11
590.3538, 44608.61
590.8359, 44674.88
591.3180, 44790.27
591.8001, 44960.76
592.2822, 45121.01
592.7643, 45239.69
593.2465, 45325.87
593.7286, 45410.56
594.2107, 45494.21
594.6928, 45560.82
595.1749, 45590.24
595.6570, 45599.73
596.1392, 45626.83
596.6213, 45703.07
597.1034, 45712.58
597.5854, 45534.16
598.0676, 45264.53
598.5497, 45038.91
599.0318, 44923.56
599.5139, 44818.46
599.9960, 44687.46
600.4781, 44543.69
600.9603, 44451.43
601.4424, 44441.85
601.9245, 44432.98
602.4066, 44392.45
602.8887, 44319.74
603.3708, 44235.53
603.8530, 44131.54
604.3351, 44050.79
604.8172, 44056.48
605.2993, 44128.25
605.7814, 44165.96
606.2635, 44149.18
606.7457, 44108.95
607.2278, 44063.11
607.7099, 44021.18
608.1920, 44004.45
608.6741, 44040.21
609.1563, 44087.25
609.6384, 44126.90
610.1205, 44158.62
610.6026, 44180.91
611.0847, 44193.18
611.5668, 44196.25
612.0490, 44178.06
612.5311, 44119.88
613.0132, 44135.82
613.4953, 44267.89
613.9774, 44422.65
614.4595, 44519.17
614.9417, 44554.21
615.4238, 44563.08
615.9059, 44544.07
616.3880, 44512.38
616.8701, 44480.48
617.3522, 44453.18
617.8344, 44457.59
618.3165, 44516.56
618.7986, 44602.67
619.2807, 44693.24
619.7628, 44784.64
620.2449, 44859.43
620.7271, 44889.46
621.2092, 44913.66
621.6913, 44964.13
622.1734, 45052.84
622.6555, 45116.66
623.1376, 45139.22
623.6198, 45134.62
624.1019, 45109.92
624.5840, 45040.35
625.0661, 45005.54
625.5482, 45020.02
626.0303, 45060.22
626.5125, 45086.97
626.9946, 45099.70
627.4767, 45108.32
627.9588, 45115.18
628.4409, 45120.55
628.9230, 45133.04
629.4052, 45148.71
629.8873, 45142.82
630.3694, 45059.73
630.8515, 44971.62
631.3336, 44965.52
631.8157, 45050.97
632.2979, 45122.01
632.7800, 45096.58
633.2621, 45056.73
633.7442, 45071.39
634.2263, 45219.89
634.7084, 45307.81
635.1906, 45302.18
635.6727, 45249.74
636.1548, 45210.79
636.6369, 45183.38
637.1190, 45177.03
637.6011, 45197.60
638.0833, 45237.47
638.5654, 45280.43
639.0475, 45325.75
639.5296, 45364.96
640.0117, 45382.08
640.4938, 45394.41
640.9760, 45441.00
641.4581, 45518.98
641.9402, 45583.55
642.4223, 45597.50
642.9044, 45590.31
643.3865, 45585.88
643.8687, 45588.35
644.3508, 45593.12
644.8329, 45580.70
645.3150, 45579.73
645.7971, 45621.99
646.2792, 45739.31
646.7614, 45840.59
647.2435, 45919.51
647.7256, 45976.11
648.2077, 46004.29
648.6898, 46001.45
649.1719, 46004.58
649.6541, 46033.86
650.1362, 46075.43
650.6183, 46090.18
651.1004, 46082.32
651.5825, 46084.65
652.0646, 46132.42
652.5468, 46193.00
653.0289, 46238.03
653.5110, 46265.04
653.9931, 46271.84
654.4752, 46226.24
654.9573, 46178.89
655.4395, 46171.17
655.9216, 46254.30
656.4037, 46305.96
656.8858, 46314.30
657.3679, 46300.07
657.8500, 46291.60
658.3322, 46289.29
658.8143, 46289.89
659.2964, 46290.24
659.7785, 46295.81
660.2606, 46315.93
660.7427, 46351.44
661.2249, 46406.50
661.7070, 46501.13
662.1891, 46606.96
662.6712, 46699.73
663.1533, 46777.21
663.6354, 46825.41
664.1175, 46807.16
664.5996, 46779.07
665.0817, 46777.12
665.5638, 46809.33
666.0460, 46853.93
666.5281, 46917.45
667.0102, 46985.15
667.4923, 47044.15
667.9744, 47090.93
668.4565, 47139.62
668.9387, 47185.80
669.4208, 47245.40
669.9029, 47368.72
670.3850, 47541.86
670.8671, 47660.73
671.3492, 47654.94
671.8314, 47623.11
672.3135, 47706.66
672.7956, 47871.98
673.2777, 48018.06
673.7598, 48085.98
674.2419, 48127.34
674.7241, 48165.37
675.2062, 48201.10
675.6883, 48233.64
676.1704, 48274.64
676.6525, 48300.27
677.1346, 48296.61
677.6168, 48256.88
678.0989, 48230.64
678.5810, 48229.02
679.0631, 48211.69
679.5452, 48118.62
680.0273, 47963.56
680.5095, 47855.19
680.9916, 47812.15
681.4737, 47799.08
681.9558, 47791.32
682.4379, 47782.58
682.9200, 47760.89
683.4022, 47710.14
683.8843, 47659.20
684.3664, 47620.50
684.8485, 47591.05
685.3306, 47562.23
685.8127, 47531.51
686.2949, 47502.32
686.7770, 47466.89
687.2591, 47430.41
687.7412, 47444.84
688.2233, 47528.23
688.7054, 47593.64
689.1876, 47579.18
689.6697, 47502.56
690.1518, 47449.79
690.6339, 47421.39
691.1160, 47411.81
691.5981, 47419.04
692.0803, 47441.29
692.5624, 47482.75
693.0445, 47551.90
693.5266, 47604.30
694.0087, 47614.83
694.4908, 47601.70
694.9730, 47583.43
695.4551, 47547.57
695.9372, 47530.53
696.4193, 47551.54
696.9014, 47579.13
697.3835, 47547.51
697.8657, 47441.84
698.3478, 47373.69
698.8299, 47374.02
699.3120, 47427.20
699.7941, 47546.36
700.2762, 47705.57
700.7584, 47776.21
701.2405, 47592.76
701.7226, 47359.68
702.2047, 47264.53
702.6868, 47296.04
703.1689, 47353.69
703.6511, 47437.92
704.1332, 47506.73
704.6153, 47529.70
705.0974, 47497.06
705.5795, 47492.04
706.0616, 47531.85
706.5438, 47572.16
707.0259, 47568.25
707.5080, 47519.23
707.9901, 47529.73
708.4722, 47614.98
708.9543, 47712.29
709.4365, 47763.14
709.9186, 47774.18
710.4007, 47753.45
710.8828, 47688.43
711.3649, 47629.65
711.8470, 47610.30
712.3292, 47618.20
712.8113, 47635.08
713.2934, 47680.01
713.7755, 47704.32
714.2576, 47686.78
714.7397, 47647.24
715.2219, 47628.22
715.7040, 47626.35
716.1861, 47660.78
716.6682, 47755.99
717.1503, 47882.09
717.6324, 47944.79
718.1146, 47947.75
718.5967, 47937.39
719.0788, 47936.65
719.5609, 47940.37
720.0430, 47939.79
720.5251, 47935.72
721.0073, 47941.95
721.4894, 47972.55
721.9715, 48009.46
722.4536, 48042.22
722.9357, 48070.00
723.4178, 48094.51
723.9000, 48117.84
724.3821, 48134.79
724.8642, 48142.20
725.3463, 48140.30
725.8284, 48117.56
726.3105, 48066.70
726.7927, 48024.50
727.2748, 48041.75
727.7569, 48098.90
728.2390, 48157.49
728.7211, 48220.61
729.2032, 48252.00
729.6853, 48199.45
730.1674, 48107.84
730.6495, 48042.20
731.1317, 48009.08
731.6138, 48017.09
732.0959, 48089.93
732.5780, 48195.11
733.0601, 48259.12
733.5422, 48274.50
734.0244, 48277.75
734.5065, 48276.89
734.9886, 48273.16
735.4707, 48267.21
735.9528, 48260.11
736.4349, 48259.06
736.9171, 48268.83
737.3992, 48286.13
737.8813, 48310.87
738.3634, 48341.76
738.8455, 48369.17
739.3276, 48401.64
739.8098, 48419.39
740.2919, 48408.47
740.7740, 48367.20
741.2561, 48326.80
741.7382, 48289.95
742.2203, 48249.34
742.7025, 48179.70
743.1846, 48088.25
743.6667, 48098.05
744.1488, 48220.27
744.6309, 48358.96
745.1130, 48432.89
745.5952, 48460.32
746.0773, 48459.82
746.5594, 48427.52
747.0415, 48397.75
747.5236, 48376.22
748.0057, 48370.46
748.4879, 48389.45
748.9700, 48469.04
749.4521, 48515.34
749.9342, 48508.91
750.4163, 48487.19
750.8984, 48502.75
751.3806, 48556.35
751.8627, 48630.34
752.3448, 48737.24
752.8269, 48825.60
753.3090, 48782.33
753.7911, 48657.87
754.2733, 48576.70
754.7554, 48626.75
755.2375, 48694.31
755.7196, 48709.74
756.2017, 48696.08
756.6838, 48715.13
757.1660, 48815.98
757.6481, 48902.70
758.1302, 48962.09
758.6123, 48991.86
759.0944, 48966.61
759.5765, 48876.09
760.0587, 48813.51
760.5408, 48845.16
761.0229, 48925.13
761.5050, 48940.89
761.9871, 48904.11
762.4692, 48887.61
762.9514, 48956.48
763.4335, 49044.80
763.9156, 49112.83
764.3977, 49157.02
764.8798, 49175.20
765.3619, 49128.43
765.8441, 49094.60
766.3262, 49110.51
766.8083, 49179.84
767.2904, 49248.40
767.7725, 49318.98
768.2546, 49375.29
768.7368, 49398.28
769.2189, 49396.19
769.7010, 49387.40
770.1831, 49372.90
770.6652, 49361.67
771.1473, 49359.72
771.6295, 49364.60
772.1116, 49371.64
772.5937, 49372.77
773.0758, 49398.46
773.5579, 49491.67
774.0400, 49579.26
774.5222, 49592.61
775.0043, 49507.14
775.4864, 49466.49
775.9685, 49487.14
776.4506, 49530.25
776.9327, 49545.04
777.4149, 49542.72
777.8970, 49561.83
778.3791, 49621.59
778.8612, 49671.46
779.3433, 49652.79
779.8254, 49607.41
780.3076, 49590.89
780.7897, 49673.51
781.2718, 49708.77
781.7539, 49637.05
782.2360, 49538.25
782.7181, 49557.55
783.2003, 49730.29
783.6824, 49816.04
784.1645, 49741.64
784.6466, 49607.73
785.1287, 49587.29
785.6108, 49653.37
786.0930, 49720.53
786.5751, 49764.50
787.0572, 49787.26
787.5393, 49771.91
788.0214, 49737.66
788.5035, 49727.46
788.9857, 49779.95
789.4678, 49822.08
789.9499, 49834.37
790.4320, 49828.58
790.9141, 49852.00
791.3962, 49911.66
791.8784, 49934.91
792.3605, 49867.39
792.8426, 49770.66
793.3247, 49781.50
793.8068, 49873.82
794.2889, 49945.50
794.7711, 49913.26
795.2531, 49868.98
795.7352, 49873.28
796.2173, 49918.32
796.6995, 49944.64
797.1816, 49935.44
797.6637, 49920.16
798.1458, 49903.43
798.6279, 49887.25
799.1100, 49886.55
799.5922, 49901.55
800.0743, 49924.23
800.5564, 49946.18
801.0385, 49974.33
801.5206, 50039.30
802.0027, 50130.95
802.4849, 50182.08
802.9670, 50108.24
803.4491, 50026.10
803.9312, 50003.25
804.4133, 50047.07
804.8954, 50091.11
805.3776, 50151.61
805.8597, 50182.08
806.3418, 50143.68
806.8239, 50047.46
807.3060, 49993.58
807.7881, 49982.07
808.2703, 50007.19
808.7524, 50099.22
809.2345, 50206.50
809.7166, 50257.87
810.1987, 50250.11
810.6808, 50246.18
811.1630, 50285.23
811.6451, 50323.69
812.1272, 50333.21
812.6093, 50309.08
813.0914, 50301.57
813.5735, 50311.18
814.0557, 50336.18
814.5378, 50390.00
815.0199, 50460.93
815.5020, 50483.84
815.9841, 50457.56
816.4662, 50428.71
816.9484, 50439.04
817.4305, 50460.16
817.9126, 50459.00
818.3947, 50426.61
818.8768, 50417.29
819.3589, 50463.00
819.8411, 50517.16
820.3232, 50556.66
820.8053, 50580.01
821.2874, 50603.07
821.7695, 50628.15
822.2516, 50641.00
822.7338, 50610.98
823.2159, 50563.97
823.6980, 50563.32
824.1801, 50615.85
824.6622, 50670.41
825.1443, 50700.36
825.6265, 50716.57
826.1086, 50723.97
826.5907, 50716.32
827.0728, 50726.91
827.5549, 50765.94
828.0370, 50808.61
828.5192, 50838.96
829.0013, 50857.31
829.4834, 50855.34
829.9655, 50830.09
830.4476, 50824.42
830.9297, 50912.20
831.4119, 51024.15
831.8940, 51065.86
832.3761, 51018.09
832.8582, 50963.18
833.3403, 50890.84
833.8224, 50855.82
834.3046, 50900.79
834.7867, 51049.03
835.2688, 51176.02
835.7509, 51289.00
836.2330, 51361.54
836.7151, 51342.05
837.1973, 51264.97
837.6794, 51243.82
838.1615, 51289.42
838.6436, 51331.34
839.1257, 51302.50
839.6078, 51258.75
840.0900, 51246.50
840.5721, 51277.01
841.0542, 51320.38
841.5363, 51383.93
842.0184, 51446.57
842.5005, 51488.05
842.9827, 51506.73
843.4648, 51570.07
843.9469, 51684.65
844.4290, 51776.14
844.9111, 51734.15
845.3932, 51650.58
845.8754, 51669.80
846.3575, 51814.43
846.8396, 51924.94
847.3217, 51891.01
847.8038, 51837.38
848.2859, 51849.64
848.7681, 51942.75
849.2502, 51991.38
849.7323, 51983.21
850.2144, 51970.53
850.6965, 51987.24
851.1786, 52030.79
851.6608, 52099.93
852.1429, 52192.69
852.6250, 52286.25
853.1071, 52367.26
853.5892, 52441.23
854.0714, 52512.06
854.5535, 52580.91
855.0356, 52640.36
855.5177, 52681.95
855.9998, 52726.04
856.4819, 52780.21
856.9641, 52845.46
857.4462, 52940.89
857.9283, 53067.73
858.4104, 53188.66
858.8925, 53290.97
859.3746, 53365.77
859.8568, 53379.43
860.3389, 53338.89
860.8210, 53342.13
861.3030, 53455.93
861.7852, 53590.92
862.2673, 53713.72
862.7494, 53823.42
863.2315, 53915.40
863.7136, 53980.92
864.1957, 54068.29
864.6779, 54211.03
865.1600, 54391.70
865.6421, 54585.88
866.1242, 54787.01
866.6063, 54950.29
867.0884, 55018.68
867.5706, 55070.97
868.0527, 55130.99
868.5348, 55206.19
869.0169, 55346.22
869.4990, 55609.91
869.9811, 55807.04
870.4633, 55865.43
870.9454, 55814.33
871.4275, 55733.10
871.9096, 55627.04
872.3917, 55527.44
872.8738, 55453.09
873.3560, 55391.18
873.8381, 55343.28
874.3202, 55300.33
874.8023, 55236.30
875.2844, 55143.61
875.7665, 55026.38
876.2487, 54870.34
876.7308, 54697.98
877.2129, 54568.87
877.6950, 54482.79
878.1771, 54421.85
878.6592, 54394.21
879.1414, 54367.46
879.6235, 54282.05
880.1056, 54170.51
880.5877, 54097.53
881.0698, 54115.38
881.5519, 54139.08
882.0341, 54150.10
882.5162, 54154.93
882.9983, 54163.14
883.4804, 54175.35
883.9625, 54182.95
884.4446, 54177.33
884.9268, 54185.54
885.4089, 54262.18
885.8910, 54379.04
886.3731, 54482.32
886.8552, 54562.18
887.3373, 54614.53
887.8195, 54621.19
888.3016, 54607.19
888.7837, 54601.18
889.2658, 54604.92
889.7479, 54612.42
890.2300, 54621.12
890.7122, 54639.27
891.1943, 54693.91
891.6764, 54765.58
892.1585, 54781.62
892.6406, 54725.03
893.1227, 54680.14
893.6049, 54736.64
894.0870, 54811.11
894.5691, 54826.39
895.0512, 54745.72
895.5333, 54700.92
896.0154, 54696.54
896.4976, 54720.28
896.9797, 54777.50
897.4618, 54860.21
897.9439, 54910.70
898.4260, 54928.71
898.9081, 54926.17
899.3903, 54891.61
899.8724, 54855.53
900.3545, 54842.85
900.8366, 54855.88
901.3187, 54878.65
901.8008, 54914.45
902.2830, 54952.38
902.7651, 54997.84
903.2472, 55042.55
903.7293, 55026.43
904.2114, 54952.25
904.6935, 54884.29
905.1757, 54852.97
905.6578, 54849.25
906.1399, 54861.06
906.6220, 54892.77
907.1041, 54959.45
907.5862, 55123.01
908.0684, 55252.06
908.5505, 55316.07
909.0326, 55329.00
909.5147, 55311.26
909.9968, 55262.91
910.4789, 55254.52
910.9611, 55314.70
911.4432, 55412.93
911.9253, 55529.67
912.4074, 55653.86
912.8895, 55767.91
913.3716, 55846.53
913.8538, 55940.54
914.3359, 56069.86
914.8180, 56209.00
915.3001, 56328.36
915.7822, 56427.34
916.2643, 56503.65
916.7465, 56546.56
917.2286, 56614.88
917.7107, 56803.48
918.1928, 57046.72
918.6749, 57245.84
919.1570, 57370.32
919.6392, 57500.91
920.1213, 57664.41
920.6034, 57840.24
921.0855, 58012.81
921.5676, 58177.34
922.0497, 58383.51
922.5319, 58640.61
923.0140, 58865.88
923.4961, 58951.22
923.9782, 58982.07
924.4603, 59113.36
924.9424, 59338.04
925.4246, 59487.05
925.9067, 59451.79
926.3888, 59359.90
926.8708, 59259.02
927.3530, 59149.60
927.8351, 59033.16
928.3172, 58911.18
928.7993, 58760.34
929.2814, 58561.26
929.7635, 58333.72
930.2457, 58121.29
930.7278, 57907.66
931.2099, 57658.93
931.6920, 57296.17
932.1741, 56967.19
932.6563, 56707.43
933.1384, 56508.24
933.6205, 56379.38
934.1026, 56336.58
934.5847, 56240.78
935.0668, 56048.12
935.5490, 55851.10
936.0311, 55804.61
936.5132, 55829.22
936.9953, 55782.44
937.4774, 55599.40
937.9595, 55425.12
938.4417, 55277.14
938.9238, 55183.23
939.4059, 55181.02
939.8880, 55297.45
940.3701, 55337.14
940.8522, 55288.46
941.3344, 55229.41
941.8165, 55233.02
942.2986, 55266.05
942.7807, 55282.61
943.2628, 55279.66
943.7449, 55267.05
944.2271, 55250.45
944.7092, 55221.40
945.1913, 55167.47
945.6734, 55095.77
946.1555, 55064.08
946.6376, 55074.43
947.1198, 55097.23
947.6019, 55126.86
948.0840, 55154.18
948.5661, 55179.50
949.0482, 55192.13
949.5303, 55165.16
950.0125, 55014.17
950.4946, 54918.32
950.9767, 54929.32
951.4588, 55002.03
951.9409, 55075.79
952.4230, 55151.71
952.9052, 55197.25
953.3873, 55203.68
953.8694, 55191.37
954.3515, 55175.71
954.8336, 55158.41
955.3157, 55136.22
955.7979, 55095.71
956.2800, 55095.42
956.7621, 55173.42
957.2442, 55262.59
957.7263, 55322.60
958.2084, 55353.38
958.6906, 55365.13
959.1727, 55357.70
959.6548, 55356.19
960.1369, 55404.91
960.6190, 55449.36
961.1011, 55410.68
961.5833, 55303.34
962.0654, 55258.29
962.5475, 55320.60
963.0296, 55420.52
963.5117, 55563.99
963.9938, 55717.46
964.4760, 55767.85
964.9581, 55728.00
965.4402, 55686.80
965.9223, 55673.57
966.4044, 55674.61
966.8865, 55661.05
967.3687, 55660.87
967.8508, 55718.54
968.3329, 55915.23
968.8150, 56037.77
969.2971, 56064.08
969.7792, 56051.63
970.2614, 56046.39
970.7435, 56053.80
971.2256, 56095.98
971.7077, 56175.01
972.1898, 56281.14
972.6719, 56459.39
973.1541, 56618.26
973.6362, 56664.20
974.1183, 56587.33
974.6004, 56614.74
975.0825, 56778.41
975.5646, 56947.50
976.0468, 57061.40
976.5289, 57138.40
977.0110, 57211.16
977.4931, 57282.86
977.9752, 57364.20
978.4573, 57461.38
978.9395, 57567.76
979.4216, 57709.79
979.9037, 57846.67
980.3858, 57904.36
980.8679, 57864.94
981.3500, 57849.68
981.8322, 57878.79
982.3143, 57924.58
982.7964, 57969.80
983.2785, 58003.31
983.7606, 58005.79
984.2427, 57971.56
984.7249, 57920.63
985.2070, 57853.48
985.6891, 57775.26
986.1712, 57682.38
986.6533, 57575.89
987.1354, 57498.80
987.6176, 57451.66
988.0997, 57407.93
988.5818, 57357.25
989.0639, 57297.15
989.5460, 57218.02
990.0281, 57126.42
990.5103, 57044.62
990.9924, 56979.62
991.4745, 56921.83
991.9566, 56865.02
992.4387, 56819.90
992.9208, 56822.54
993.4029, 56859.32
993.8850, 56853.04
994.3671, 56774.25
994.8492, 56701.43
995.3314, 56712.70
995.8135, 56743.79
996.2956, 56726.72
996.7777, 56638.21
997.2598, 56578.58
997.7419, 56549.09
998.2241, 56543.04
998.7062, 56567.18
999.1883, 56607.94
999.6704, 56642.14
1000.153, 56665.86
1000.635, 56662.44
1001.117, 56581.59
1001.599, 56518.10
1002.081, 56535.84
1002.563, 56591.15
1003.045, 56573.45
1003.527, 56472.75
1004.009, 56412.54
1004.492, 56423.94
1004.974, 56473.22
1005.456, 56560.34
1005.938, 56642.59
1006.420, 56651.33
1006.902, 56526.85
1007.384, 56459.27
1007.866, 56485.73
1008.349, 56553.32
1008.831, 56651.81
1009.313, 56771.86
1009.795, 56792.97
1010.277, 56722.74
1010.759, 56661.17
1011.241, 56691.26
1011.723, 56735.26
1012.205, 56729.44
1012.688, 56689.98
1013.170, 56694.39
1013.652, 56766.17
1014.134, 56822.52
1014.616, 56849.71
1015.098, 56847.18
1015.580, 56791.07
1016.062, 56708.38
1016.544, 56659.95
1017.027, 56664.75
1017.509, 56688.17
1017.991, 56734.26
1018.473, 56778.88
1018.955, 56798.15
1019.437, 56788.77
1019.919, 56848.56
1020.401, 56983.07
1020.884, 57063.76
1021.366, 56925.91
1021.848, 56750.51
1022.330, 56755.22
1022.812, 56891.29
1023.294, 56979.30
1023.776, 56915.90
1024.258, 56906.74
1024.740, 57010.07
1025.223, 57139.10
1025.705, 57124.43
1026.187, 57009.04
1026.669, 56967.58
1027.151, 57045.02
1027.633, 57131.30
1028.115, 57147.98
1028.597, 57152.51
1029.079, 57203.32
1029.562, 57308.27
1030.044, 57334.85
1030.526, 57270.43
1031.008, 57207.87
1031.490, 57206.78
1031.972, 57235.61
1032.454, 57252.73
1032.936, 57259.95
1033.419, 57262.54
1033.901, 57228.20
1034.383, 57239.38
1034.865, 57328.78
1035.347, 57444.85
1035.829, 57515.55
1036.311, 57545.07
1036.793, 57554.09
1037.276, 57544.02
1037.758, 57531.41
1038.240, 57506.50
1038.722, 57501.45
1039.204, 57559.95
1039.686, 57684.10
1040.168, 57749.34
1040.650, 57741.74
1041.132, 57725.69
1041.615, 57726.61
1042.097, 57736.35
1042.579, 57732.28
1043.061, 57726.09
1043.543, 57744.94
1044.025, 57840.02
1044.507, 57899.15
1044.989, 57883.05
1045.471, 57842.75
1045.954, 57822.30
1046.436, 57821.56
1046.918, 57845.21
1047.400, 57893.51
1047.882, 57931.02
1048.364, 57900.13
1048.846, 57874.48
1049.328, 57931.66
1049.811, 58059.25
1050.293, 58115.87
1050.775, 58075.82
1051.257, 58040.05
1051.739, 58034.49
1052.221, 58047.29
1052.703, 58072.29
1053.185, 58098.09
1053.667, 58097.97
1054.150, 58048.16
1054.632, 58020.98
1055.114, 58034.27
1055.596, 58079.50
1056.078, 58164.07
1056.560, 58284.47
1057.042, 58375.31
1057.524, 58436.56
1058.006, 58475.21
1058.489, 58477.17
1058.971, 58476.32
1059.453, 58480.29
1059.935, 58502.14
1060.417, 58581.23
1060.899, 58756.42
1061.381, 58858.39
1061.863, 58849.72
1062.346, 58810.83
1062.828, 58827.57
1063.310, 58883.48
1063.792, 58956.47
1064.274, 59044.91
1064.756, 59130.59
1065.238, 59230.00
1065.720, 59296.69
1066.203, 59298.84
1066.685, 59261.14
1067.167, 59275.77
1067.649, 59340.00
1068.131, 59444.08
1068.613, 59618.03
1069.095, 59771.96
1069.577, 59862.94
1070.059, 59894.73
1070.542, 59866.24
1071.024, 59747.02
1071.506, 59702.83
1071.988, 59746.20
1072.470, 59794.09
1072.952, 59765.62
1073.434, 59709.93
1073.916, 59688.09
1074.398, 59697.09
1074.881, 59709.34
1075.363, 59724.19
1075.845, 59733.78
1076.327, 59739.98
1076.809, 59735.43
1077.291, 59688.20
1077.773, 59619.13
1078.255, 59600.25
1078.738, 59649.80
1079.220, 59719.73
1079.702, 59834.99
1080.184, 59912.11
1080.666, 59889.11
1081.148, 59775.25
1081.630, 59708.37
1082.112, 59688.48
1082.594, 59700.50
1083.077, 59743.54
1083.559, 59807.81
1084.041, 59902.45
1084.523, 60005.38
1085.005, 60076.23
1085.487, 60076.34
1085.969, 60126.39
1086.451, 60241.14
1086.933, 60369.40
1087.416, 60462.13
1087.898, 60536.49
1088.380, 60641.14
1088.862, 60768.20
1089.344, 60850.21
1089.826, 60822.01
1090.308, 60793.82
1090.790, 60797.28
1091.272, 60813.53
1091.755, 60795.28
1092.237, 60752.95
1092.719, 60750.54
1093.201, 60808.88
1093.683, 60856.35
1094.165, 60857.63
1094.647, 60819.16
1095.129, 60731.02
1095.612, 60597.93
1096.094, 60516.52
1096.576, 60490.32
1097.058, 60462.80
1097.540, 60397.49
1098.022, 60333.59
1098.504, 60325.80
1098.986, 60346.89
1099.469, 60352.66
1099.951, 60321.74
1100.433, 60303.93
1100.915, 60308.67
1101.397, 60300.32
1101.879, 60230.58
1102.361, 60132.79
1102.843, 60068.66
1103.325, 60039.40
1103.807, 60035.67
1104.290, 60087.97
1104.772, 60118.98
1105.254, 60091.64
1105.736, 60054.57
1106.218, 60108.83
1106.700, 60231.67
1107.182, 60308.58
1107.664, 60321.11
1108.147, 60287.90
1108.629, 60161.82
1109.111, 60047.39
1109.593, 60025.08
1110.075, 60078.83
1110.557, 60123.09
1111.039, 60157.86
1111.521, 60168.75
1112.004, 60138.06
1112.486, 60107.35
1112.968, 60117.17
1113.450, 60153.19
1113.932, 60198.85
1114.414, 60258.26
1114.896, 60309.39
1115.378, 60354.47
1115.860, 60382.79
1116.343, 60371.15
1116.825, 60347.32
1117.307, 60366.75
1117.789, 60414.87
1118.271, 60449.70
1118.753, 60425.25
1119.235, 60440.02
1119.717, 60529.29
1120.199, 60619.86
1120.682, 60602.28
1121.164, 60516.86
1121.646, 60510.95
1122.128, 60588.85
1122.610, 60629.77
1123.092, 60513.39
1123.574, 60414.51
1124.056, 60402.94
1124.539, 60453.82
1125.021, 60514.44
1125.503, 60584.07
1125.985, 60659.58
1126.467, 60744.45
1126.949, 60812.55
1127.431, 60840.53
1127.913, 60846.09
1128.396, 60840.89
1128.878, 60826.45
1129.360, 60803.25
1129.842, 60769.19
1130.324, 60760.89
1130.806, 60802.38
1131.288, 60863.05
1131.770, 60907.32
1132.252, 60949.18
1132.734, 61016.00
1133.217, 61152.32
1133.699, 61193.48
1134.181, 61121.00
1134.663, 61022.03
1135.145, 60943.25
1135.627, 60888.12
1136.109, 60856.81
1136.591, 60851.36
1137.074, 60878.08
1137.556, 60973.92
1138.038, 61053.69
1138.520, 61112.75
1139.002, 61148.60
1139.484, 61140.74
1139.966, 61110.39
1140.448, 61120.12
1140.931, 61171.05
1141.413, 61209.79
1141.895, 61204.61
1142.377, 61192.18
1142.859, 61177.92
1143.341, 61169.77
1143.823, 61182.93
1144.305, 61217.11
1144.787, 61280.59
1145.270, 61383.75
1145.752, 61458.57
1146.234, 61420.04
1146.716, 61382.51
1147.198, 61431.24
1147.680, 61543.21
1148.162, 61559.08
1148.644, 61485.23
1149.126, 61438.63
1149.609, 61467.20
1150.091, 61523.19
1150.573, 61591.28
1151.055, 61653.97
1151.537, 61697.30
1152.019, 61725.59
1152.501, 61682.70
1152.983, 61560.00
1153.466, 61488.87
1153.948, 61604.84
1154.430, 61755.96
1154.912, 61796.63
1155.394, 61765.75
1155.876, 61733.13
1156.358, 61690.48
1156.840, 61698.43
1157.322, 61771.28
1157.805, 61837.36
1158.287, 61806.22
1158.769, 61752.48
1159.251, 61790.02
1159.733, 61898.99
1160.215, 61970.35
1160.697, 61971.41
1161.179, 61968.23
1161.661, 61970.43
1162.144, 61968.00
1162.626, 61922.64
1163.108, 61874.98
1163.590, 61913.14
1164.072, 62043.04
1164.554, 62142.12
1165.036, 62164.20
1165.518, 62182.36
1166.000, 62222.82
1166.483, 62257.11
1166.965, 62212.70
1167.447, 62123.64
1167.929, 62065.20
1168.411, 62051.04
1168.893, 62084.94
1169.375, 62226.38
1169.857, 62347.86
1170.340, 62398.54
1170.822, 62393.38
1171.304, 62358.40
1171.786, 62309.04
1172.268, 62302.04
1172.750, 62371.95
1173.232, 62446.05
1173.714, 62529.14
1174.197, 62570.31
1174.679, 62514.49
1175.161, 62380.46
1175.643, 62328.14
1176.125, 62348.97
1176.607, 62392.70
1177.089, 62453.97
1177.571, 62508.77
1178.053, 62544.28
1178.536, 62569.37
1179.018, 62594.80
1179.500, 62620.54
1179.982, 62611.33
1180.464, 62570.16
1180.946, 62547.89
1181.428, 62592.23
1181.910, 62648.66
1182.392, 62699.32
1182.875, 62735.91
1183.357, 62739.66
1183.839, 62708.96
1184.321, 62697.64
1184.803, 62710.25
1185.285, 62735.23
1185.767, 62781.22
1186.249, 62820.07
1186.732, 62805.40
1187.214, 62772.41
1187.696, 62837.81
1188.178, 63014.68
1188.660, 63089.32
1189.142, 63016.54
1189.624, 62931.91
1190.106, 62939.47
1190.589, 63001.83
1191.071, 63134.15
1191.553, 63305.91
1192.035, 63322.55
1192.517, 63165.31
1192.999, 63040.47
1193.481, 62999.11
1193.963, 63011.77
1194.445, 63084.85
1194.927, 63171.24
1195.410, 63221.88
1195.892, 63233.25
1196.374, 63242.86
1196.856, 63249.26
1197.338, 63267.96
1197.820, 63313.79
1198.302, 63353.38
1198.784, 63329.25
1199.267, 63288.75
1199.749, 63295.31
1200.231, 63361.71
1200.713, 63427.99
1201.195, 63498.77
1201.677, 63533.03
1202.159, 63496.04
1202.641, 63433.19
1203.124, 63369.89
1203.606, 63327.18
1204.088, 63346.12
1204.570, 63453.98
1205.052, 63537.08
1205.534, 63595.30
1206.016, 63633.24
1206.498, 63641.52
1206.980, 63642.26
1207.463, 63666.98
1207.945, 63702.11
1208.427, 63717.42
1208.909, 63698.40
1209.391, 63693.98
1209.873, 63704.96
1210.355, 63732.58
1210.837, 63792.54
1211.319, 63857.99
1211.802, 63910.41
1212.284, 63941.02
1212.766, 63918.87
1213.248, 63806.42
1213.730, 63772.25
1214.212, 63843.71
1214.694, 63917.90
1215.176, 63859.90
1215.659, 63783.89
1216.141, 63843.39
1216.623, 64005.52
1217.105, 64098.58
1217.587, 64088.85
1218.069, 64090.79
1218.551, 64118.91
1219.033, 64161.62
1219.516, 64234.68
1219.998, 64294.63
1220.480, 64278.87
1220.962, 64195.99
1221.444, 64137.07
1221.926, 64102.71
1222.408, 64106.48
1222.890, 64156.35
1223.372, 64223.86
1223.854, 64299.75
1224.337, 64361.38
1224.819, 64374.96
1225.301, 64340.40
1225.783, 64322.33
1226.265, 64319.81
1226.747, 64346.61
1227.229, 64413.73
1227.711, 64482.82
1228.193, 64519.38
1228.676, 64529.00
1229.158, 64510.03
1229.640, 64462.75
1230.122, 64423.50
1230.604, 64387.55
1231.086, 64404.28
1231.568, 64509.34
1232.050, 64613.07
1232.533, 64582.67
1233.015, 64525.23
1233.497, 64584.13
1233.979, 64769.18
1234.461, 64819.60
1234.943, 64723.16
1235.425, 64654.52
1235.907, 64685.47
1236.390, 64753.62
1236.872, 64835.68
1237.354, 64898.96
1237.836, 64879.51
1238.318, 64773.27
1238.800, 64834.39
1239.282, 65068.68
1239.764, 65189.32
1240.246, 64999.02
1240.729, 64781.46
1241.211, 64786.41
1241.693, 64889.12
1242.175, 64963.14
1242.657, 65005.84
1243.139, 65000.10
1243.621, 64947.83
1244.103, 64913.02
1244.585, 64937.64
1245.068, 64973.40
1245.550, 64995.00
1246.032, 65005.69
1246.514, 65005.66
1246.996, 64994.47
1247.478, 64998.78
1247.960, 65019.95
1248.442, 65071.89
1248.925, 65209.25
1249.407, 65319.16
1249.889, 65323.07
1250.371, 65286.33
1250.853, 65269.39
1251.335, 65270.96
1251.817, 65240.43
1252.299, 65185.97
1252.781, 65166.15
1253.264, 65233.02
1253.746, 65315.45
1254.228, 65426.11
1254.710, 65503.18
1255.192, 65454.81
1255.674, 65311.48
1256.156, 65301.11
1256.638, 65404.14
1257.120, 65498.82
1257.603, 65533.86
1258.085, 65537.24
1258.567, 65486.23
1259.049, 65451.22
1259.531, 65530.73
1260.013, 65680.38
1260.495, 65738.85
1260.977, 65722.27
1261.460, 65730.48
1261.942, 65867.77
1262.424, 65932.14
1262.906, 65871.84
1263.388, 65784.94
1263.870, 65764.97
1264.352, 65793.13
1264.834, 65847.23
1265.317, 65916.22
1265.799, 65957.77
1266.281, 65946.61
1266.763, 65922.24
1267.245, 65873.85
1267.727, 65856.13
1268.209, 65971.73
1268.691, 66122.89
1269.173, 66154.52
1269.656, 66087.51
1270.138, 66041.55
1270.620, 66018.61
1271.102, 66060.09
1271.584, 66183.32
1272.066, 66300.27
1272.548, 66323.24
1273.030, 66297.23
1273.512, 66248.90
1273.995, 66192.63
1274.477, 66170.71
1274.959, 66191.87
1275.441, 66192.73
1275.923, 66162.93
1276.405, 66157.52
1276.887, 66274.19
1277.369, 66384.97
1277.852, 66365.59
1278.334, 66272.84
1278.816, 66250.41
1279.298, 66300.18
1279.780, 66334.47
1280.262, 66344.08
1280.744, 66361.73
1281.226, 66432.77
1281.708, 66493.20
1282.191, 66499.83
1282.673, 66480.15
1283.155, 66471.00
1283.637, 66474.22
1284.119, 66519.90
1284.601, 66606.28
1285.083, 66647.15
1285.565, 66531.51
1286.047, 66445.51
1286.530, 66449.72
1287.012, 66503.78
1287.494, 66540.58
1287.976, 66578.87
1288.458, 66708.90
1288.940, 66920.98
1289.422, 67025.51
1289.904, 66821.45
1290.386, 66716.29
1290.869, 66807.13
1291.351, 66944.11
1291.833, 66915.90
1292.315, 66812.74
1292.797, 66766.68
1293.279, 66785.18
1293.761, 66841.95
1294.243, 66958.56
1294.726, 67028.59
1295.208, 67033.11
1295.690, 66998.11
1296.172, 66914.02
1296.654, 66833.04
1297.136, 66813.87
1297.618, 66851.68
1298.100, 66896.55
1298.583, 66949.41
1299.065, 67008.92
1299.547, 67077.35
1300.029, 67117.69
1300.511, 67075.35
1300.993, 67017.30
1301.475, 66981.27
1301.957, 66967.54
1302.439, 66985.91
1302.922, 67032.85
1303.404, 67065.26
1303.886, 67078.58
1304.368, 67088.28
1304.850, 67107.64
1305.332, 67118.07
1305.814, 67104.50
1306.296, 67090.09
1306.778, 67128.55
1307.261, 67192.77
1307.743, 67183.44
1308.225, 67102.39
1308.707, 67065.51
1309.189, 67129.18
1309.671, 67237.91
1310.153, 67409.63
1310.635, 67553.23
1311.118, 67508.91
1311.600, 67390.01
1312.082, 67382.75
1312.564, 67470.84
1313.046, 67476.79
1313.528, 67351.83
1314.010, 67273.52
1314.492, 67265.04
1314.974, 67293.41
1315.457, 67357.94
1315.939, 67417.63
1316.421, 67409.04
1316.903, 67373.48
1317.385, 67412.83
1317.867, 67526.52
##END=



