##NAMES=Zoisite
##RRUFFID=R060567
##IDEAL CHEMISTRY=Ca_2_Al_3_(Si_2_O_7_)(SiO_4_)O(OH)
##LOCALITY=Umba Valley, Tanzania
##OWNER=RRUFF
##SOURCE=Michael Scott
##DESCRIPTION=Purple prismatic crystals
##STATUS=The identification of this mineral has been confirmed by X-ray diffraction and chemical analysis
##URL=rruff.info/R060567
##MEASURED CHEMISTRY=Ca_2.00_Al_3.00_(Si_1.00_O_4_)(Si_2.00_O_7_)O(OH)
99.344, 221.437
99.826, 215.944
100.309, 211.541
100.791, 208.101
101.273, 206.086
101.755, 207.025
102.237, 211.605
102.719, 217.590
103.201, 223.738
103.683, 230.205
104.165, 236.093
104.648, 240.986
105.130, 244.933
105.612, 249.441
106.094, 254.609
106.576, 260.310
107.058, 266.249
107.540, 270.275
108.022, 277.136
108.505, 286.716
108.987, 295.690
109.469, 316.270
109.951, 355.127
110.433, 404.481
110.915, 451.657
111.397, 487.117
111.879, 526.652
112.362, 576.991
112.844, 644.040
113.326, 714.025
113.808, 782.237
114.290, 851.289
114.772, 928.749
115.254, 996.996
115.736, 1084.755
116.218, 1212.020
116.701, 1370.577
117.183, 1581.392
117.665, 1868.259
118.147, 2229.072
118.629, 2604.358
119.111, 3059.756
119.593, 3491.520
120.075, 3760.140
120.558, 3728.005
121.040, 3567.255
121.522, 3390.217
122.004, 3204.809
122.486, 3011.218
122.968, 2807.795
123.450, 2596.013
123.932, 2379.577
124.414, 2143.990
124.897, 1909.718
125.379, 1702.846
125.861, 1530.236
126.343, 1386.855
126.825, 1270.788
127.307, 1181.301
127.789, 1112.598
128.271, 1067.112
128.753, 1040.169
129.236, 1020.666
129.718, 1009.542
130.200, 1002.045
130.682, 986.016
131.164, 960.837
131.646, 935.255
132.128, 918.439
132.610, 910.039
133.093, 904.576
133.575, 898.841
134.057, 893.720
134.539, 895.910
135.021, 906.266
135.503, 922.051
135.985, 937.917
136.467, 953.330
136.949, 973.646
137.432, 1002.082
137.914, 1039.266
138.396, 1079.084
138.878, 1120.858
139.360, 1164.945
139.842, 1211.481
140.324, 1259.141
140.806, 1311.768
141.288, 1369.158
141.771, 1426.851
142.253, 1504.855
142.735, 1607.271
143.217, 1733.572
143.699, 1866.044
144.181, 2002.089
144.663, 2148.543
145.145, 2314.907
145.628, 2499.435
146.110, 2705.903
146.592, 2949.214
147.074, 3247.762
147.556, 3480.343
148.038, 3664.670
148.520, 3776.384
149.002, 3783.960
149.484, 3636.229
149.967, 3437.019
150.449, 3203.437
150.931, 2904.008
151.413, 2635.681
151.895, 2398.348
152.377, 2190.298
152.859, 2017.115
153.342, 1889.829
153.824, 1786.779
154.306, 1702.177
154.788, 1647.823
155.270, 1594.625
155.752, 1534.068
156.234, 1470.500
156.716, 1418.782
157.198, 1354.675
157.680, 1318.516
158.163, 1303.237
158.645, 1287.954
159.127, 1272.675
159.609, 1257.396
160.091, 1242.116
160.573, 1226.837
161.055, 1211.557
161.538, 1196.275
162.020, 1180.995
162.502, 1165.716
162.984, 1150.437
163.466, 1135.157
163.948, 1119.878
164.430, 1104.595
164.912, 1089.316
165.394, 1080.785
165.876, 1075.585
166.359, 1071.430
166.841, 1069.000
167.323, 1068.284
167.805, 1068.954
168.287, 1073.239
168.769, 1085.158
169.251, 1101.782
169.733, 1117.310
170.216, 1123.690
170.698, 1130.100
171.180, 1147.269
171.662, 1181.307
172.144, 1215.318
172.626, 1232.478
173.108, 1237.121
173.590, 1244.234
174.072, 1260.213
174.555, 1284.761
175.037, 1318.776
175.519, 1366.049
176.001, 1417.857
176.483, 1466.685
176.965, 1512.491
177.447, 1551.880
177.929, 1582.085
178.412, 1604.261
178.894, 1619.479
179.376, 1621.745
179.858, 1621.799
180.340, 1635.002
180.822, 1661.344
181.304, 1697.101
181.786, 1741.853
182.268, 1793.914
182.751, 1847.857
183.233, 1901.312
183.715, 1955.254
184.197, 2009.646
184.679, 2064.704
185.161, 2122.195
185.643, 2186.680
186.125, 2256.168
186.607, 2326.423
187.090, 2395.272
187.572, 2462.579
188.054, 2530.385
188.536, 2598.813
189.018, 2665.073
189.500, 2731.748
189.982, 2796.753
190.464, 2839.172
190.947, 2842.369
191.429, 2810.533
191.911, 2771.312
192.393, 2726.139
192.875, 2674.333
193.357, 2611.701
193.839, 2538.692
194.321, 2463.123
194.803, 2386.066
195.286, 2308.236
195.768, 2239.416
196.250, 2183.690
196.732, 2134.039
197.214, 2070.178
197.696, 1989.392
198.178, 1911.147
198.661, 1850.403
199.143, 1807.961
199.625, 1761.038
200.107, 1704.207
200.589, 1641.593
201.071, 1585.688
201.553, 1535.856
202.035, 1494.468
202.517, 1464.162
202.999, 1445.859
203.482, 1431.094
203.964, 1418.518
204.446, 1408.266
204.928, 1401.301
205.410, 1397.743
205.892, 1397.046
206.374, 1398.075
206.857, 1400.050
207.339, 1407.356
207.821, 1421.187
208.303, 1441.342
208.785, 1465.288
209.267, 1493.360
209.749, 1524.879
210.231, 1557.641
210.713, 1589.411
211.195, 1631.400
211.678, 1689.215
212.160, 1763.736
212.642, 1835.413
213.124, 1909.876
213.606, 1975.245
214.088, 2017.194
214.570, 2037.089
215.052, 2030.794
215.535, 1993.827
216.017, 1923.052
216.499, 1842.668
216.981, 1742.189
217.463, 1641.574
217.945, 1572.510
218.427, 1546.447
218.909, 1528.554
219.391, 1507.615
219.874, 1481.097
220.356, 1464.268
220.838, 1462.410
221.320, 1466.602
221.802, 1459.568
222.284, 1434.286
222.766, 1411.735
223.248, 1400.730
223.731, 1405.443
224.213, 1407.465
224.695, 1404.831
225.177, 1400.598
225.659, 1400.730
226.141, 1404.632
226.623, 1414.037
227.105, 1430.749
227.587, 1458.722
228.070, 1483.463
228.552, 1504.266
229.034, 1521.936
229.516, 1539.600
229.998, 1564.773
230.480, 1578.167
230.962, 1570.464
231.444, 1536.187
231.926, 1492.996
232.409, 1437.080
232.891, 1373.424
233.373, 1315.185
233.855, 1260.290
234.337, 1214.415
234.819, 1180.667
235.301, 1162.730
235.783, 1148.275
236.266, 1136.800
236.748, 1128.519
237.230, 1120.230
237.712, 1112.889
238.194, 1106.476
238.676, 1100.995
239.158, 1096.443
239.640, 1092.822
240.122, 1090.130
240.605, 1088.368
241.087, 1087.535
241.569, 1087.633
242.051, 1088.661
242.533, 1090.619
243.015, 1093.506
243.497, 1097.323
243.980, 1102.072
244.462, 1107.749
244.944, 1114.356
245.426, 1121.893
245.908, 1130.359
246.390, 1139.758
246.872, 1150.084
247.354, 1161.341
247.836, 1173.527
248.318, 1186.644
248.801, 1200.690
249.283, 1215.669
249.765, 1231.575
250.247, 1248.411
250.729, 1266.176
251.211, 1284.889
251.693, 1326.377
252.176, 1390.437
252.658, 1442.736
253.140, 1473.590
253.622, 1506.269
254.104, 1558.467
254.586, 1638.196
255.068, 1716.911
255.550, 1789.297
256.032, 1857.381
256.514, 1933.042
256.997, 2021.380
257.479, 2110.141
257.961, 2191.211
258.443, 2262.038
258.925, 2334.646
259.407, 2422.001
259.889, 2515.244
260.371, 2559.181
260.854, 2540.525
261.336, 2493.200
261.818, 2437.718
262.300, 2370.178
262.782, 2306.431
263.264, 2248.118
263.746, 2194.825
264.228, 2149.887
264.711, 2119.312
265.193, 2085.171
265.675, 2031.880
266.157, 1954.245
266.639, 1876.504
267.121, 1801.151
267.603, 1729.194
268.085, 1664.502
268.567, 1606.539
269.050, 1558.386
269.532, 1523.419
270.014, 1502.693
270.496, 1490.739
270.978, 1487.685
271.460, 1492.881
271.942, 1504.829
272.424, 1524.716
272.906, 1548.010
273.389, 1569.039
273.871, 1585.123
274.353, 1616.623
274.835, 1669.744
275.317, 1738.253
275.799, 1800.928
276.281, 1856.229
276.763, 1909.878
277.246, 1968.509
277.728, 2033.098
278.210, 2086.698
278.692, 2123.544
279.174, 2149.386
279.656, 2182.222
280.138, 2222.461
280.620, 2267.414
281.103, 2315.491
281.585, 2366.667
282.067, 2421.172
282.549, 2480.358
283.031, 2541.521
283.513, 2597.743
283.995, 2648.167
284.477, 2701.963
284.959, 2774.071
285.441, 2861.632
285.924, 2924.657
286.406, 2955.121
286.888, 2962.912
287.370, 2971.505
287.852, 2981.345
288.334, 2974.617
288.816, 2937.546
289.298, 2872.993
289.781, 2793.489
290.263, 2698.081
290.745, 2592.484
291.227, 2483.105
291.709, 2369.763
292.191, 2265.604
292.673, 2178.700
293.155, 2106.683
293.638, 2040.666
294.120, 1979.401
294.602, 1926.431
295.084, 1888.149
295.566, 1863.983
296.048, 1848.503
296.530, 1835.657
297.012, 1829.282
297.494, 1840.781
297.977, 1873.989
298.459, 1915.506
298.941, 1948.517
299.423, 1976.015
299.905, 2007.770
300.387, 2045.182
300.869, 2091.450
301.351, 2154.379
301.833, 2236.577
302.316, 2326.987
302.798, 2413.580
303.280, 2499.158
303.762, 2592.712
304.244, 2682.079
304.726, 2788.539
305.208, 2937.407
305.690, 3130.661
306.173, 3355.036
306.655, 3609.718
307.137, 3885.278
307.619, 4164.101
308.101, 4444.034
308.583, 4720.559
309.065, 4983.484
309.547, 5234.287
310.030, 5482.621
310.512, 5774.671
310.994, 6060.378
311.476, 6270.134
311.958, 6397.467
312.440, 6424.959
312.922, 6333.176
313.404, 6122.226
313.886, 5832.218
314.369, 5427.088
314.851, 4971.950
315.333, 4546.247
315.815, 4161.679
316.297, 3818.894
316.779, 3519.665
317.261, 3264.491
317.743, 3045.646
318.225, 2871.012
318.708, 2727.945
319.190, 2608.051
319.672, 2516.378
320.154, 2438.574
320.636, 2371.995
321.118, 2316.488
321.600, 2271.238
322.082, 2236.454
322.565, 2211.472
323.047, 2196.206
323.529, 2192.544
324.011, 2195.917
324.493, 2206.843
324.975, 2224.603
325.457, 2246.508
325.939, 2266.953
326.422, 2295.491
326.904, 2336.428
327.386, 2389.466
327.868, 2455.395
328.350, 2546.334
328.832, 2650.239
329.314, 2736.855
329.796, 2790.068
330.278, 2842.889
330.760, 2908.845
331.243, 3000.512
331.725, 3071.799
332.207, 3109.604
332.689, 3132.884
333.171, 3174.284
333.653, 3239.967
334.135, 3314.485
334.617, 3395.002
335.100, 3484.856
335.582, 3566.200
336.064, 3640.427
336.546, 3704.538
337.028, 3753.889
337.510, 3786.769
337.992, 3808.113
338.474, 3814.426
338.957, 3806.367
339.439, 3810.776
339.921, 3827.381
340.403, 3856.607
340.885, 3899.011
341.367, 3955.218
341.849, 4021.763
342.331, 4099.326
342.813, 4186.828
343.296, 4286.938
343.778, 4402.434
344.260, 4509.972
344.742, 4604.217
345.224, 4681.523
345.706, 4692.025
346.188, 4620.203
346.670, 4484.278
347.152, 4313.007
347.635, 4107.045
348.117, 3883.397
348.599, 3640.739
349.081, 3387.351
349.563, 3154.439
350.045, 2947.504
350.527, 2759.325
351.009, 2590.180
351.491, 2437.402
351.974, 2294.028
352.456, 2148.835
352.938, 2011.640
353.420, 1898.340
353.902, 1812.965
354.384, 1739.416
354.866, 1665.642
355.349, 1594.175
355.831, 1528.643
356.313, 1467.987
356.795, 1415.963
357.277, 1378.780
357.759, 1356.922
358.241, 1337.110
358.723, 1312.513
359.205, 1284.869
359.688, 1255.941
360.170, 1215.584
360.652, 1183.575
361.134, 1167.425
361.616, 1152.164
362.098, 1137.671
362.580, 1123.944
363.062, 1110.988
363.544, 1098.801
364.027, 1087.381
364.509, 1076.731
364.991, 1066.849
365.473, 1057.734
365.955, 1049.388
366.437, 1041.812
366.919, 1035.004
367.401, 1028.964
367.884, 1023.693
368.366, 1019.189
368.848, 1015.455
369.330, 1012.490
369.812, 1010.292
370.294, 1008.864
370.776, 1008.203
371.258, 1008.312
371.741, 1009.188
372.223, 1010.833
372.705, 1013.247
373.187, 1016.429
373.669, 1020.380
374.151, 1025.100
374.633, 1030.588
375.115, 1036.844
375.597, 1043.869
376.079, 1051.661
376.562, 1060.350
377.044, 1065.189
377.526, 1066.891
378.008, 1064.666
378.490, 1066.462
378.972, 1073.273
379.454, 1085.361
379.936, 1107.463
380.419, 1140.575
380.901, 1170.740
381.383, 1182.871
381.865, 1181.037
382.347, 1188.437
382.829, 1209.037
383.311, 1237.828
383.793, 1269.597
384.276, 1303.608
384.758, 1336.530
385.240, 1367.877
385.722, 1396.114
386.204, 1415.662
386.686, 1424.413
387.168, 1436.819
387.650, 1469.618
388.132, 1515.929
388.615, 1561.900
389.097, 1593.100
389.579, 1627.588
390.061, 1681.553
390.543, 1754.736
391.025, 1837.707
391.507, 1927.500
391.989, 2023.119
392.471, 2123.328
392.954, 2232.605
393.436, 2342.501
393.918, 2452.020
394.400, 2560.137
394.882, 2663.160
395.364, 2779.484
395.846, 2874.844
396.328, 2932.826
396.810, 2952.075
397.293, 2930.766
397.775, 2858.873
398.257, 2747.414
398.739, 2616.060
399.221, 2439.491
399.703, 2270.528
400.185, 2120.071
400.668, 1987.080
401.150, 1878.112
401.632, 1798.145
402.114, 1738.281
402.596, 1689.666
403.078, 1651.293
403.560, 1626.326
404.042, 1615.371
404.524, 1618.250
405.007, 1634.149
405.489, 1665.001
405.971, 1704.078
406.453, 1748.115
406.935, 1797.775
407.417, 1847.424
407.899, 1896.559
408.381, 1945.053
408.863, 1992.163
409.346, 2038.065
409.828, 2082.878
410.310, 2129.947
410.792, 2176.945
411.274, 2212.974
411.756, 2236.706
412.238, 2255.149
412.720, 2270.956
413.203, 2286.847
413.685, 2311.155
414.167, 2348.556
414.649, 2395.363
415.131, 2449.349
415.613, 2510.387
416.095, 2572.038
416.577, 2624.515
417.060, 2677.731
417.542, 2748.133
418.024, 2862.946
418.506, 2958.014
418.988, 2991.649
419.470, 2975.630
419.952, 2937.782
420.434, 2885.619
420.916, 2817.008
421.398, 2724.938
421.881, 2599.910
422.363, 2484.802
422.845, 2393.389
423.327, 2316.374
423.809, 2242.300
424.291, 2152.910
424.773, 2084.730
425.255, 2046.682
425.738, 2038.710
426.220, 2045.147
426.702, 2067.487
427.184, 2102.688
427.666, 2148.375
428.148, 2199.881
428.630, 2272.835
429.112, 2368.724
429.595, 2486.807
430.077, 2623.101
430.559, 2779.228
431.041, 2948.785
431.523, 3148.199
432.005, 3377.407
432.487, 3553.365
432.969, 3676.311
433.451, 3744.473
433.934, 3742.660
434.416, 3676.256
434.898, 3589.161
435.380, 3482.489
435.862, 3372.635
436.344, 3296.780
436.826, 3253.465
437.308, 3218.476
437.790, 3178.861
438.273, 3133.696
438.755, 3081.654
439.237, 3020.996
439.719, 2955.964
440.201, 2889.542
440.683, 2821.406
441.165, 2750.824
441.647, 2678.296
442.129, 2602.186
442.612, 2519.551
443.094, 2429.145
443.576, 2343.772
444.058, 2265.782
444.540, 2196.106
445.022, 2135.687
445.504, 2095.037
445.987, 2052.548
446.469, 1998.734
446.951, 1936.538
447.433, 1886.603
447.915, 1852.484
448.397, 1828.081
448.879, 1811.127
449.361, 1803.331
449.843, 1799.128
450.326, 1797.417
450.808, 1800.105
451.290, 1809.642
451.772, 1825.167
452.254, 1850.532
452.736, 1886.404
453.218, 1932.902
453.700, 1997.709
454.182, 2085.993
454.665, 2166.093
455.147, 2211.177
455.629, 2222.237
456.111, 2199.197
456.593, 2138.833
457.075, 2049.962
457.557, 1937.741
458.039, 1805.155
458.522, 1677.685
459.004, 1560.494
459.486, 1458.241
459.968, 1379.847
460.450, 1326.774
460.932, 1282.857
461.414, 1232.600
461.896, 1184.612
462.379, 1150.360
462.861, 1137.254
463.343, 1135.687
463.825, 1146.388
464.307, 1167.060
464.789, 1184.712
465.271, 1194.838
465.753, 1201.561
466.235, 1206.103
466.717, 1200.497
467.200, 1207.477
467.682, 1234.503
468.164, 1272.807
468.646, 1308.852
469.128, 1338.388
469.610, 1372.784
470.092, 1414.855
470.574, 1464.781
471.057, 1518.351
471.539, 1574.036
472.021, 1636.955
472.503, 1711.896
472.985, 1798.745
473.467, 1896.753
473.949, 2009.329
474.431, 2127.853
474.914, 2233.988
475.396, 2328.762
475.878, 2419.373
476.360, 2515.896
476.842, 2609.744
477.324, 2677.438
477.806, 2717.907
478.288, 2754.858
478.770, 2801.514
479.253, 2860.189
479.735, 2934.835
480.217, 3030.104
480.699, 3137.326
481.181, 3246.785
481.663, 3362.246
482.145, 3499.020
482.627, 3664.692
483.109, 3850.683
483.592, 4050.872
484.074, 4262.783
484.556, 4498.200
485.038, 4772.599
485.520, 5067.085
486.002, 5362.914
486.484, 5631.931
486.966, 5929.937
487.448, 6266.332
487.931, 6639.492
488.413, 7028.706
488.895, 7437.435
489.377, 7861.569
489.859, 8301.610
490.341, 8766.908
490.823, 9223.038
491.306, 9691.141
491.788, 10099.440
492.270, 10355.810
492.752, 10462.110
493.234, 10406.110
493.716, 10159.410
494.198, 9761.582
494.680, 9287.547
495.162, 8735.047
495.645, 8142.734
496.127, 7487.421
496.609, 6822.554
497.091, 6204.440
497.573, 5643.515
498.055, 5141.781
498.537, 4711.481
499.019, 4340.783
499.501, 4005.504
499.984, 3698.328
500.466, 3427.858
500.948, 3207.673
501.430, 3036.936
501.912, 2879.925
502.394, 2737.601
502.876, 2605.797
503.358, 2480.429
503.841, 2355.069
504.323, 2249.334
504.805, 2165.077
505.287, 2098.540
505.769, 2043.551
506.251, 2006.683
506.733, 1972.160
507.215, 1940.105
507.698, 1910.532
508.180, 1883.436
508.662, 1858.814
509.144, 1836.670
509.626, 1817.000
510.108, 1799.803
510.590, 1785.084
511.072, 1772.842
511.554, 1763.075
512.036, 1755.785
512.519, 1750.969
513.001, 1748.629
513.483, 1748.765
513.965, 1751.377
514.447, 1756.464
514.929, 1764.028
515.411, 1774.067
515.893, 1786.580
516.375, 1801.570
516.858, 1819.041
517.340, 1838.981
517.822, 1861.399
518.304, 1886.194
518.786, 1897.049
519.268, 1920.086
519.750, 1963.813
520.232, 2008.002
520.715, 2046.539
521.197, 2080.020
521.679, 2123.326
522.161, 2176.994
522.643, 2238.731
523.125, 2306.867
523.607, 2381.130
524.089, 2468.402
524.571, 2571.749
525.054, 2679.813
525.536, 2776.980
526.018, 2863.297
526.500, 2942.294
526.982, 3021.433
527.464, 3091.112
527.946, 3135.949
528.429, 3156.708
528.911, 3156.739
529.393, 3139.145
529.875, 3101.343
530.357, 3038.028
530.839, 2942.510
531.321, 2839.888
531.803, 2735.678
532.286, 2631.734
532.768, 2531.921
533.250, 2432.462
533.732, 2341.120
534.214, 2257.933
534.696, 2183.568
535.178, 2118.117
535.660, 2068.269
536.142, 2019.827
536.625, 1965.447
537.107, 1903.699
537.589, 1843.460
538.071, 1784.912
538.553, 1727.756
539.035, 1670.073
539.517, 1612.108
539.999, 1557.511
540.481, 1505.266
540.964, 1458.209
541.446, 1425.419
541.928, 1404.818
542.410, 1382.364
542.892, 1341.624
543.374, 1297.862
543.856, 1280.388
544.338, 1265.092
544.820, 1251.032
545.303, 1238.209
545.785, 1226.623
546.267, 1216.275
546.749, 1207.161
547.231, 1199.288
547.713, 1192.651
548.195, 1187.251
548.677, 1183.088
549.159, 1180.163
549.642, 1178.474
550.124, 1178.023
550.606, 1178.810
551.088, 1180.833
551.570, 1184.094
552.052, 1188.591
552.534, 1194.328
553.016, 1201.299
553.499, 1209.509
553.981, 1218.955
554.463, 1229.639
554.945, 1241.559
555.427, 1254.721
555.909, 1270.090
556.391, 1284.114
556.873, 1303.755
557.356, 1320.377
557.838, 1334.795
558.320, 1352.424
558.802, 1378.975
559.284, 1408.603
559.766, 1434.379
560.248, 1450.942
560.730, 1478.162
561.213, 1527.782
561.695, 1589.212
562.177, 1649.772
562.659, 1704.078
563.141, 1762.262
563.623, 1827.011
564.105, 1897.200
564.587, 1964.930
565.069, 2024.645
565.552, 2094.318
566.034, 2183.341
566.516, 2291.861
566.998, 2393.697
567.480, 2481.609
567.962, 2594.014
568.444, 2807.109
568.926, 3086.025
569.408, 3277.512
569.891, 3329.612
570.373, 3341.624
570.855, 3428.135
571.337, 3562.049
571.819, 3680.997
572.301, 3766.159
572.783, 3816.817
573.265, 3834.976
573.747, 3820.242
574.230, 3763.568
574.712, 3638.784
575.194, 3488.016
575.676, 3335.535
576.158, 3183.384
576.640, 3023.271
577.122, 2849.539
577.604, 2674.122
578.086, 2514.471
578.569, 2372.055
579.051, 2240.844
579.533, 2118.809
580.015, 2009.198
580.497, 1924.684
580.979, 1865.082
581.461, 1813.138
581.943, 1756.858
582.426, 1702.168
582.908, 1661.088
583.390, 1634.224
583.872, 1615.214
584.354, 1598.707
584.836, 1587.669
585.318, 1585.497
585.800, 1592.938
586.282, 1609.283
586.765, 1637.416
587.247, 1673.576
587.729, 1711.694
588.211, 1753.598
588.693, 1793.891
589.175, 1826.694
589.657, 1854.890
590.140, 1900.203
590.622, 1961.482
591.104, 2042.161
591.586, 2147.380
592.068, 2278.792
592.550, 2412.331
593.032, 2548.268
593.514, 2689.921
593.996, 2848.935
594.479, 3019.253
594.961, 3184.085
595.443, 3349.585
595.925, 3487.540
596.407, 3582.130
596.889, 3624.230
597.371, 3593.840
597.853, 3459.455
598.335, 3269.721
598.818, 3028.410
599.300, 2743.250
599.782, 2475.328
600.264, 2231.575
600.746, 2018.616
601.228, 1838.185
601.710, 1694.998
602.192, 1568.850
602.674, 1458.587
603.157, 1365.124
603.639, 1293.166
604.121, 1244.651
604.603, 1201.037
605.085, 1159.638
605.567, 1121.423
606.049, 1089.241
606.531, 1062.610
607.013, 1040.444
607.496, 1022.168
607.978, 1007.774
608.460, 996.735
608.942, 989.238
609.424, 986.562
609.906, 990.684
610.388, 999.150
610.870, 1009.834
611.353, 1021.705
611.835, 1038.502
612.317, 1069.751
612.799, 1101.773
613.281, 1120.000
613.763, 1111.946
614.245, 1115.170
614.727, 1135.977
615.209, 1168.379
615.692, 1198.294
616.174, 1225.106
616.656, 1252.023
617.138, 1279.036
617.620, 1307.246
618.102, 1340.284
618.584, 1378.195
619.067, 1417.737
619.549, 1460.206
620.031, 1500.910
620.513, 1532.851
620.995, 1554.598
621.477, 1574.423
621.959, 1598.650
622.441, 1622.227
622.923, 1640.260
623.406, 1651.156
623.888, 1656.699
624.370, 1657.885
624.852, 1653.690
625.334, 1642.458
625.816, 1625.458
626.298, 1597.773
626.780, 1554.853
627.263, 1500.295
627.745, 1453.343
628.227, 1414.149
628.709, 1375.917
629.191, 1335.837
629.673, 1293.268
630.155, 1244.757
630.637, 1189.693
631.119, 1136.900
631.602, 1087.806
632.084, 1046.526
632.566, 1019.250
633.048, 1016.074
633.530, 1010.160
634.012, 988.615
634.494, 959.613
634.976, 935.659
635.458, 922.028
635.941, 908.602
636.423, 893.273
636.905, 877.034
637.387, 864.853
637.869, 857.794
638.351, 850.101
638.833, 836.292
639.315, 819.307
639.797, 815.384
640.280, 824.664
640.762, 835.851
641.244, 841.907
641.726, 843.296
642.208, 839.477
642.690, 829.213
643.172, 820.225
643.654, 816.742
644.137, 817.307
644.619, 820.222
645.101, 825.801
645.583, 832.892
646.065, 842.826
646.547, 853.956
647.029, 862.801
647.511, 869.828
647.994, 873.364
648.476, 870.585
648.958, 864.124
649.440, 866.830
649.922, 878.905
650.404, 897.378
650.886, 920.377
651.368, 948.267
651.851, 965.761
652.333, 983.249
652.815, 1000.740
653.297, 1018.230
653.779, 1035.718
654.261, 1053.208
654.743, 1070.703
655.225, 1088.191
655.707, 1105.681
656.190, 1123.171
656.672, 1140.660
657.154, 1153.708
657.636, 1163.939
658.118, 1168.716
658.600, 1168.828
659.082, 1164.569
659.564, 1154.849
660.046, 1149.312
660.529, 1153.844
661.011, 1164.254
661.493, 1166.174
661.975, 1161.164
662.457, 1163.920
662.939, 1188.802
663.421, 1223.608
663.903, 1256.372
664.385, 1285.888
664.868, 1316.043
665.350, 1340.535
665.832, 1371.523
666.314, 1418.570
666.796, 1494.834
667.278, 1567.016
667.760, 1631.265
668.242, 1694.886
668.724, 1767.675
669.207, 1852.164
669.689, 1930.343
670.171, 1991.409
670.653, 2054.231
671.135, 2162.048
671.617, 2306.922
672.099, 2451.909
672.581, 2577.754
673.064, 2696.601
673.546, 2818.504
674.028, 2942.989
674.510, 3070.723
674.992, 3215.909
675.474, 3352.592
675.956, 3472.932
676.438, 3578.576
676.920, 3649.286
677.403, 3684.813
677.885, 3687.816
678.367, 3660.953
678.849, 3605.103
679.331, 3509.133
679.813, 3365.356
680.295, 3200.876
680.778, 3040.452
681.260, 2882.589
681.742, 2727.598
682.224, 2569.626
682.706, 2422.500
683.188, 2301.583
683.670, 2199.639
684.152, 2102.456
684.634, 2002.495
685.117, 1907.089
685.599, 1813.311
686.081, 1725.573
686.563, 1659.790
687.045, 1635.451
687.527, 1605.885
688.009, 1551.297
688.491, 1476.362
688.973, 1432.891
689.456, 1425.312
689.938, 1423.723
690.420, 1409.085
690.902, 1385.249
691.384, 1362.538
691.866, 1341.453
692.348, 1322.853
692.830, 1315.536
693.312, 1307.007
693.795, 1281.560
694.277, 1230.378
694.759, 1180.570
695.241, 1138.649
695.723, 1103.918
696.205, 1075.672
696.687, 1059.816
697.169, 1039.440
697.652, 1011.104
698.134, 979.667
698.616, 953.968
699.098, 934.167
699.580, 916.861
700.062, 901.456
700.544, 887.483
701.026, 874.792
701.508, 863.058
701.991, 851.257
702.473, 837.357
702.955, 824.406
703.437, 816.107
703.919, 811.687
704.401, 804.327
704.883, 781.861
705.365, 765.987
705.847, 768.807
706.330, 793.593
706.812, 804.848
707.294, 799.234
707.776, 787.501
708.258, 775.111
708.740, 762.761
709.222, 757.924
709.705, 761.725
710.187, 767.973
710.669, 773.865
711.151, 777.153
711.633, 771.833
712.115, 749.715
712.597, 736.526
713.079, 756.650
713.561, 789.054
714.044, 806.714
714.526, 781.778
715.008, 772.774
715.490, 792.473
715.972, 826.959
716.454, 846.054
716.936, 847.915
717.418, 845.980
717.901, 841.918
718.383, 838.870
718.865, 845.858
719.347, 861.132
719.829, 875.926
720.311, 881.134
720.793, 886.541
721.275, 903.656
721.757, 930.445
722.240, 951.436
722.722, 956.239
723.204, 958.300
723.686, 965.655
724.168, 979.625
724.650, 982.613
725.132, 971.018
725.614, 955.703
726.096, 942.261
726.579, 930.971
727.061, 927.512
727.543, 933.160
728.025, 936.703
728.507, 926.418
728.989, 907.238
729.471, 885.557
729.953, 860.565
730.435, 839.873
730.918, 832.615
731.400, 829.382
731.882, 819.681
732.364, 793.456
732.846, 772.571
733.328, 757.520
733.810, 748.484
734.292, 747.673
734.775, 756.258
735.257, 761.989
735.739, 761.200
736.221, 757.301
736.703, 754.912
737.185, 754.266
737.667, 756.161
738.149, 766.325
738.631, 774.412
739.114, 769.657
739.596, 756.238
740.078, 748.445
740.560, 753.886
741.042, 761.614
741.524, 770.204
742.006, 778.923
742.489, 779.608
742.971, 769.143
743.453, 761.335
743.935, 766.361
744.417, 780.284
744.899, 783.774
745.381, 777.374
745.863, 772.555
746.345, 779.617
746.828, 791.516
747.310, 802.252
747.792, 811.472
748.274, 815.820
748.756, 807.414
749.238, 798.635
749.720, 798.223
750.202, 809.215
750.684, 820.653
751.167, 836.813
751.649, 844.774
752.131, 820.450
752.613, 770.021
753.095, 754.301
753.577, 785.719
754.059, 826.054
754.541, 830.836
755.023, 818.496
755.506, 816.968
755.988, 839.684
756.470, 862.164
756.952, 875.407
757.434, 882.800
757.916, 889.058
758.398, 891.728
758.880, 898.630
759.362, 912.539
759.845, 928.935
760.327, 939.104
760.809, 943.173
761.291, 947.161
761.773, 952.962
762.255, 959.611
762.737, 964.650
763.219, 969.564
763.702, 977.923
764.184, 997.003
764.666, 1014.127
765.148, 1019.728
765.630, 1017.863
766.112, 1026.202
766.594, 1051.706
767.076, 1076.671
767.558, 1096.566
768.041, 1112.158
768.523, 1126.616
769.005, 1139.788
769.487, 1155.521
769.969, 1179.264
770.451, 1205.277
770.933, 1224.972
771.416, 1238.624
771.898, 1248.713
772.380, 1251.947
772.862, 1255.736
773.344, 1265.581
773.826, 1282.223
774.308, 1295.582
774.790, 1302.486
775.272, 1310.425
775.755, 1325.272
776.237, 1346.839
776.719, 1355.280
777.201, 1349.540
777.683, 1343.633
778.165, 1357.977
778.647, 1376.222
779.129, 1366.027
779.612, 1323.621
780.094, 1284.603
780.576, 1272.599
781.058, 1268.577
781.540, 1258.762
782.022, 1240.099
782.504, 1219.597
782.986, 1196.299
783.468, 1172.308
783.951, 1148.509
784.433, 1124.743
784.915, 1107.123
785.397, 1096.937
785.879, 1087.731
786.361, 1074.428
786.843, 1057.133
787.325, 1034.466
787.807, 1003.926
788.290, 976.317
788.772, 955.912
789.254, 941.376
789.736, 931.398
790.218, 932.672
790.700, 925.248
791.182, 905.037
791.664, 881.314
792.146, 864.859
792.629, 855.513
793.111, 850.245
793.593, 849.850
794.075, 848.037
794.557, 834.401
795.039, 815.288
795.521, 800.950
796.003, 796.843
796.485, 794.296
796.968, 789.543
797.450, 784.868
797.932, 783.868
798.414, 789.488
798.896, 792.438
799.378, 792.232
799.860, 788.172
800.343, 775.995
800.825, 757.511
801.307, 744.367
801.789, 740.306
802.271, 741.828
802.753, 752.331
803.235, 764.591
803.717, 765.862
804.199, 734.702
804.682, 712.082
805.164, 713.596
805.646, 728.346
806.128, 739.111
806.610, 746.073
807.092, 747.596
807.574, 741.167
808.056, 732.271
808.539, 734.473
809.021, 744.487
809.503, 749.042
809.985, 736.662
810.467, 724.460
810.949, 729.583
811.431, 744.403
811.913, 752.071
812.395, 737.678
812.878, 729.195
813.360, 733.132
813.842, 745.502
814.324, 757.143
814.806, 768.226
815.288, 776.167
815.770, 780.111
816.252, 780.479
816.734, 776.367
817.217, 769.198
817.699, 763.036
818.181, 757.542
818.663, 755.773
819.145, 762.397
819.627, 774.219
820.109, 780.698
820.591, 774.377
821.073, 775.636
821.556, 793.164
822.038, 818.624
822.520, 823.461
823.002, 809.132
823.484, 801.140
823.966, 814.619
824.448, 835.094
824.930, 845.343
825.413, 848.385
825.895, 851.873
826.377, 858.125
826.859, 866.097
827.341, 875.160
827.823, 885.629
828.305, 898.419
828.787, 913.713
829.269, 930.486
829.752, 948.323
830.234, 967.362
830.716, 990.036
831.198, 1014.608
831.680, 1033.488
832.162, 1042.290
832.644, 1044.800
833.127, 1039.493
833.609, 1029.762
834.091, 1024.731
834.573, 1025.035
835.055, 1032.986
835.537, 1054.014
836.019, 1081.120
836.501, 1091.712
836.983, 1085.306
837.466, 1079.067
837.948, 1078.488
838.430, 1082.413
838.912, 1091.823
839.394, 1104.347
839.876, 1114.184
840.358, 1114.616
840.840, 1116.293
841.322, 1123.096
841.805, 1134.352
842.287, 1148.185
842.769, 1165.956
843.251, 1182.117
843.733, 1194.913
844.215, 1205.928
844.697, 1218.761
845.179, 1232.981
845.661, 1246.532
846.144, 1256.456
846.626, 1267.966
847.108, 1287.077
847.590, 1310.370
848.072, 1331.065
848.554, 1347.075
849.036, 1360.176
849.518, 1365.594
850.000, 1371.497
850.483, 1398.087
850.965, 1446.428
851.447, 1488.875
851.929, 1515.379
852.411, 1539.613
852.893, 1581.313
853.375, 1635.044
853.857, 1687.993
854.340, 1730.183
854.822, 1779.004
855.304, 1846.185
855.786, 1921.232
856.268, 1987.002
856.750, 2037.304
857.232, 2098.432
857.714, 2175.259
858.196, 2261.054
858.679, 2321.395
859.161, 2378.950
859.643, 2526.895
860.125, 2569.688
860.607, 2612.480
861.089, 2655.267
861.571, 2698.070
862.054, 2740.862
862.536, 2783.648
863.018, 2826.440
863.500, 2909.179
863.982, 3021.014
864.464, 3125.418
864.946, 3222.527
865.428, 3320.699
865.910, 3419.150
866.393, 3527.428
866.875, 3649.283
867.357, 3787.510
867.839, 3951.091
868.321, 4153.518
868.803, 4347.854
869.285, 4535.807
869.767, 4700.950
870.250, 4829.002
870.732, 4918.678
871.214, 4990.518
871.696, 5049.958
872.178, 5067.416
872.660, 5010.424
873.142, 4890.708
873.624, 4720.515
874.106, 4499.600
874.589, 4264.270
875.071, 4015.826
875.553, 3774.911
876.035, 3557.608
876.517, 3368.282
876.999, 3179.410
877.481, 2983.630
877.963, 2810.126
878.445, 2692.228
878.928, 2615.726
879.410, 2523.476
879.892, 2415.531
880.374, 2325.825
880.856, 2279.450
881.338, 2249.460
881.820, 2219.023
882.302, 2189.641
882.784, 2161.308
883.267, 2134.018
883.749, 2107.774
884.231, 2082.579
884.713, 2058.422
885.195, 2035.317
885.677, 2013.261
886.159, 1992.249
886.641, 1972.282
887.123, 1953.365
887.606, 1935.486
888.088, 1918.659
888.570, 1902.880
889.052, 1888.145
889.534, 1874.457
890.016, 1861.816
890.498, 1850.217
890.981, 1839.667
891.463, 1830.165
891.945, 1821.708
892.427, 1814.297
892.909, 1807.933
893.391, 1802.613
893.873, 1798.341
894.355, 1795.116
894.837, 1792.937
895.320, 1791.803
895.802, 1791.716
896.284, 1792.676
896.766, 1794.682
897.248, 1797.733
897.730, 1801.831
898.212, 1806.976
898.694, 1813.166
899.177, 1820.404
899.659, 1828.688
900.141, 1836.518
900.623, 1855.180
901.105, 1877.228
901.587, 1892.723
902.069, 1907.118
902.551, 1921.249
903.033, 1936.752
903.516, 1953.493
903.998, 1971.471
904.480, 1990.685
904.962, 2011.145
905.444, 2032.835
905.926, 2055.765
906.408, 2079.933
906.890, 2105.339
907.372, 2131.979
907.855, 2159.868
908.337, 2188.985
908.819, 2219.342
909.301, 2250.938
909.783, 2283.771
910.265, 2317.838
910.747, 2353.156
911.229, 2389.698
911.711, 2427.483
912.194, 2466.506
912.676, 2506.767
913.158, 2548.260
913.640, 2591.008
914.122, 2634.977
914.604, 2680.231
915.086, 2718.783
915.568, 2783.710
916.050, 2856.658
916.533, 2931.399
917.015, 3011.719
917.497, 3105.730
917.979, 3213.075
918.461, 3336.253
918.943, 3483.067
919.425, 3636.750
919.907, 3776.978
920.390, 3918.313
920.872, 4090.816
921.354, 4307.977
921.836, 4537.636
922.318, 4781.394
922.800, 5032.699
923.282, 5281.485
923.765, 5528.104
924.247, 5790.928
924.729, 6078.943
925.211, 6352.281
925.693, 6587.324
926.175, 6780.265
926.657, 6929.434
927.139, 7046.026
927.621, 7073.785
928.104, 7010.147
928.586, 6862.948
929.068, 6623.138
929.550, 6302.470
930.032, 5952.260
930.514, 5577.830
930.996, 5201.430
931.478, 4835.388
931.960, 4481.320
932.443, 4138.225
932.925, 3804.362
933.407, 3517.919
933.889, 3284.706
934.371, 3079.728
934.853, 2896.030
935.335, 2731.515
935.817, 2571.491
936.299, 2418.599
936.782, 2284.677
937.264, 2179.376
937.746, 2090.202
938.228, 2013.163
938.710, 1946.365
939.192, 1885.205
939.674, 1829.355
940.156, 1778.473
940.638, 1731.161
941.121, 1690.955
941.603, 1665.319
942.085, 1651.789
942.567, 1632.870
943.049, 1597.880
943.531, 1596.154
944.013, 1574.852
944.495, 1553.554
944.978, 1532.252
945.460, 1510.951
945.942, 1489.653
946.424, 1468.346
946.906, 1447.045
947.388, 1425.747
947.870, 1396.340
948.352, 1367.448
948.834, 1338.600
949.317, 1307.997
949.799, 1266.966
950.281, 1230.517
950.763, 1212.787
951.245, 1211.421
951.727, 1198.645
952.209, 1167.805
952.692, 1142.615
953.174, 1131.429
953.656, 1128.874
954.138, 1123.369
954.620, 1116.214
955.102, 1112.020
955.584, 1116.265
956.066, 1118.502
956.548, 1122.020
957.031, 1125.538
957.513, 1129.056
957.995, 1132.575
958.477, 1136.093
958.959, 1139.611
959.441, 1143.129
959.923, 1146.647
960.405, 1150.165
960.888, 1153.684
961.370, 1157.202
961.852, 1160.720
962.334, 1164.238
962.816, 1167.756
963.298, 1171.274
963.780, 1174.793
964.262, 1198.545
964.744, 1234.090
965.227, 1267.388
965.709, 1286.821
966.191, 1301.332
966.673, 1327.850
967.155, 1363.421
967.637, 1399.066
968.119, 1432.216
968.601, 1462.795
969.083, 1485.006
969.566, 1507.233
970.048, 1545.557
970.530, 1601.553
971.012, 1661.818
971.494, 1726.218
971.976, 1788.613
972.458, 1835.171
972.940, 1878.897
973.422, 1939.656
973.905, 2027.796
974.387, 2116.094
974.869, 2198.158
975.351, 2281.473
975.833, 2369.398
976.315, 2461.581
976.797, 2561.615
977.279, 2669.490
977.761, 2776.591
978.244, 2874.867
978.726, 2972.785
979.208, 3081.222
979.690, 3196.871
980.172, 3298.559
980.654, 3380.415
981.136, 3456.782
981.619, 3535.318
982.101, 3605.497
982.583, 3647.035
983.065, 3661.209
983.547, 3653.461
984.029, 3625.114
984.511, 3576.444
984.993, 3506.650
985.475, 3416.794
985.958, 3303.530
986.440, 3154.249
986.922, 3020.801
987.404, 2908.429
987.886, 2796.365
988.368, 2661.654
988.850, 2514.579
989.332, 2376.149
989.815, 2247.252
990.297, 2131.078
990.779, 2036.458
991.261, 1947.905
991.743, 1856.773
992.225, 1765.145
992.707, 1682.530
993.189, 1610.586
993.671, 1544.607
994.154, 1483.072
994.636, 1427.206
995.118, 1382.220
995.600, 1343.431
996.082, 1301.269
996.564, 1248.476
997.046, 1200.229
997.528, 1155.613
998.010, 1118.477
998.493, 1097.109
998.975, 1090.406
999.457, 1068.328
999.939, 1029.008
1000.421, 994.916
1000.903, 986.202
1001.385, 988.052
1001.867, 991.785
1002.349, 995.892
1002.832, 989.543
1003.314, 968.205
1003.796, 945.117
1004.278, 922.730
1004.760, 903.696
1005.242, 898.627
1005.724, 903.294
1006.206, 903.308
1006.689, 888.896
1007.171, 877.036
1007.653, 883.451
1008.135, 892.615
1008.617, 884.679
1009.099, 851.587
1009.581, 835.358
1010.063, 839.136
1010.545, 847.627
1011.028, 848.729
1011.510, 844.935
1011.992, 838.528
1012.474, 830.031
1012.956, 823.057
1013.438, 818.990
1013.920, 816.564
1014.402, 815.583
1014.885, 815.863
1015.367, 817.084
1015.849, 819.144
1016.331, 821.073
1016.813, 822.067
1017.295, 823.841
1017.777, 830.545
1018.259, 837.767
1018.741, 839.604
1019.224, 833.929
1019.706, 825.138
1020.188, 811.513
1020.670, 799.148
1021.152, 793.743
1021.634, 793.503
1022.116, 793.214
1022.598, 793.021
1023.081, 796.151
1023.563, 811.803
1024.045, 823.086
1024.527, 819.167
1025.009, 805.657
1025.491, 799.548
1025.973, 801.627
1026.455, 800.030
1026.938, 790.289
1027.420, 779.560
1027.902, 777.607
1028.384, 779.323
1028.866, 777.791
1029.348, 770.871
1029.830, 761.772
1030.312, 747.954
1030.794, 737.008
1031.276, 735.326
1031.759, 741.336
1032.241, 749.286
1032.723, 758.255
1033.205, 760.678
1033.687, 741.149
1034.169, 725.035
1034.651, 732.129
1035.133, 752.791
1035.616, 759.047
1036.098, 746.150
1036.580, 743.600
1037.062, 759.321
1037.544, 777.728
1038.026, 776.682
1038.508, 766.024
1038.990, 759.875
1039.473, 761.029
1039.955, 764.534
1040.437, 773.321
1040.919, 778.858
1041.401, 774.971
1041.883, 764.320
1042.365, 762.998
1042.847, 769.702
1043.329, 775.236
1043.812, 773.214
1044.294, 770.154
1044.776, 768.269
1045.258, 768.684
1045.740, 773.976
1046.222, 787.263
1046.704, 793.919
1047.186, 791.622
1047.668, 787.405
1048.151, 787.109
1048.633, 790.613
1049.115, 801.365
1049.597, 819.345
1050.079, 827.403
1050.561, 806.697
1051.043, 790.539
1051.525, 789.166
1052.008, 800.042
1052.490, 818.192
1052.972, 841.882
1053.454, 860.407
1053.936, 868.569
1054.418, 873.573
1054.900, 878.808
1055.382, 884.511
1055.865, 889.904
1056.347, 891.018
1056.829, 905.871
1057.311, 935.726
1057.793, 973.019
1058.275, 1017.086
1058.757, 1061.970
1059.239, 1094.076
1059.721, 1116.947
1060.203, 1149.810
1060.686, 1210.658
1061.168, 1266.450
1061.650, 1309.650
1062.132, 1345.985
1062.614, 1381.139
1063.096, 1417.775
1063.578, 1469.795
1064.060, 1541.806
1064.543, 1617.943
1065.025, 1684.791
1065.507, 1753.453
1065.989, 1832.118
1066.471, 1920.412
1066.953, 2026.627
1067.435, 2151.170
1067.917, 2276.271
1068.400, 2392.597
1068.882, 2505.402
1069.364, 2625.686
1069.846, 2748.358
1070.328, 2865.681
1070.810, 2998.429
1071.292, 3090.222
1071.774, 3140.727
1072.256, 3150.083
1072.739, 3114.195
1073.221, 3037.707
1073.703, 2928.715
1074.185, 2789.996
1074.667, 2646.781
1075.149, 2505.341
1075.631, 2371.303
1076.113, 2246.468
1076.596, 2132.613
1077.078, 2033.634
1077.560, 1950.328
1078.042, 1882.126
1078.524, 1830.915
1079.006, 1792.088
1079.488, 1762.070
1079.970, 1741.211
1080.453, 1729.754
1080.935, 1728.394
1081.417, 1736.132
1081.899, 1752.704
1082.381, 1779.247
1082.863, 1818.287
1083.345, 1866.912
1083.827, 1921.040
1084.309, 1979.577
1084.792, 2039.307
1085.274, 2092.052
1085.756, 2156.438
1086.238, 2235.164
1086.720, 2327.199
1087.202, 2436.488
1087.684, 2560.682
1088.166, 2676.768
1088.648, 2783.498
1089.131, 2888.162
1089.613, 2995.424
1090.095, 3101.137
1090.577, 3207.261
1091.059, 3309.529
1091.541, 3396.015
1092.023, 3469.677
1092.505, 3508.983
1092.988, 3510.030
1093.470, 3471.281
1093.952, 3383.409
1094.434, 3258.502
1094.916, 3106.552
1095.398, 2921.384
1095.880, 2742.715
1096.362, 2569.158
1096.844, 2407.655
1097.327, 2263.529
1097.809, 2134.517
1098.291, 2018.656
1098.773, 1914.948
1099.255, 1817.245
1099.737, 1721.971
1100.219, 1633.838
1100.701, 1556.088
1101.183, 1486.057
1101.666, 1421.012
1102.148, 1361.835
1102.630, 1318.533
1103.112, 1290.728
1103.594, 1261.565
1104.076, 1216.114
1104.558, 1168.894
1105.040, 1126.939
1105.523, 1090.544
1106.005, 1060.434
1106.487, 1037.259
1106.969, 1015.111
1107.451, 992.877
1107.933, 970.503
1108.415, 943.845
1108.897, 918.796
1109.380, 903.824
1109.862, 901.573
1110.344, 892.723
1110.826, 874.972
1111.308, 853.604
1111.790, 828.996
1112.272, 804.129
1112.754, 784.909
1113.236, 770.226
1113.719, 758.301
1114.201, 750.554
1114.683, 741.053
1115.165, 725.078
1115.647, 711.224
1116.129, 707.680
1116.611, 712.358
1117.093, 706.340
1117.575, 691.201
1118.058, 678.133
1118.540, 673.399
1119.022, 672.029
1119.504, 675.305
1119.986, 678.544
1120.468, 673.157
1120.950, 658.193
1121.432, 651.588
1121.915, 655.427
1122.397, 660.920
1122.879, 664.540
1123.361, 663.384
1123.843, 651.570
1124.325, 630.869
1124.807, 618.985
1125.289, 618.633
1125.771, 616.247
1126.254, 607.193
1126.736, 598.577
1127.218, 601.693
1127.700, 610.329
1128.182, 616.177
1128.664, 617.938
1129.146, 615.465
1129.628, 606.509
1130.110, 598.617
1130.593, 595.424
1131.075, 595.344
1131.557, 596.314
1132.039, 597.140
1132.521, 594.208
1133.003, 579.522
1133.485, 573.848
1133.967, 588.713
1134.450, 605.406
1134.932, 609.401
1135.414, 602.314
1135.896, 594.696
1136.378, 586.941
1136.860, 581.369
1137.342, 581.393
1137.824, 581.505
1138.307, 577.023
1138.789, 572.402
1139.271, 574.512
1139.753, 583.396
1140.235, 593.128
1140.717, 603.189
1141.199, 609.162
1141.681, 602.751
1142.163, 594.985
1142.646, 597.254
1143.128, 605.980
1143.610, 600.520
1144.092, 577.365
1144.574, 566.964
1145.056, 578.793
1145.538, 595.043
1146.020, 595.873
1146.502, 590.594
1146.985, 590.816
1147.467, 599.417
1147.949, 596.676
1148.431, 578.753
1148.913, 562.142
1149.395, 552.426
1149.877, 548.970
1150.359, 553.582
1150.842, 563.032
1151.324, 572.200
1151.806, 582.089
1152.288, 585.388
1152.770, 579.811
1153.252, 572.198
1153.734, 566.253
1154.216, 561.818
1154.698, 558.885
1155.181, 557.099
1155.663, 555.332
1156.145, 548.860
1156.627, 549.282
1157.109, 562.473
1157.591, 576.333
1158.073, 575.790
1158.555, 565.408
1159.037, 567.625
1159.520, 581.161
1160.002, 589.337
1160.484, 577.440
1160.966, 566.011
1161.448, 562.703
1161.930, 563.329
1162.412, 559.933
1162.894, 553.622
1163.377, 555.558
1163.859, 567.215
1164.341, 577.120
1164.823, 578.906
1165.305, 575.380
1165.787, 563.971
1166.269, 549.579
1166.751, 550.705
1167.234, 566.310
1167.716, 570.395
1168.198, 554.025
1168.680, 537.926
1169.162, 539.000
1169.644, 547.371
1170.126, 556.655
1170.608, 566.073
1171.090, 568.679
1171.573, 564.187
1172.055, 561.084
1172.537, 563.267
1173.019, 566.803
1173.501, 568.442
1173.983, 568.934
1174.465, 569.562
1174.947, 571.043
1175.430, 567.517
1175.912, 558.112
1176.394, 551.161
1176.876, 553.274
1177.358, 558.516
1177.840, 560.714
1178.322, 561.183
1178.804, 562.603
1179.286, 567.813
1179.769, 566.174
1180.251, 555.794
1180.733, 546.966
1181.215, 548.562
1181.697, 555.820
1182.179, 565.986
1182.661, 576.683
1183.143, 580.143
1183.625, 571.488
1184.108, 563.901
1184.590, 557.819
1185.072, 555.012
1185.554, 560.416
1186.036, 568.330
1186.518, 570.682
1187.000, 567.358
1187.482, 561.302
1187.965, 548.889
1188.447, 542.971
1188.929, 547.454
1189.411, 555.031
1189.893, 555.202
1190.375, 551.923
1190.857, 551.928
1191.339, 556.023
1191.822, 561.416
1192.304, 572.181
##END=



