##NAMES=Zunyite
##RRUFFID=R050553
##IDEAL CHEMISTRY=Al_13_Si_5_O_20_(OH,F)_18_Cl
##LOCALITY=near Quartzsite, Yuma/La Paz Counties, Arizona, USA
##OWNER=RRUFF
##SOURCE=Dave Bunk Minerals
##DESCRIPTION=Light gray crystals showing combined octahedral and tetrahedral forms
##STATUS=The identification of this mineral has been confirmed by X-ray diffraction and chemical analysis
##URL=rruff.info/R050553
##MEASURED CHEMISTRY=(Al_12.99_Fe^3+^_0.01_)_Σ=13_Si_5.00_O_20_((OH)_14.89_F_3.11_)_Σ=18_Cl_1.00_
92.06543, 170.7055
92.54755, 168.6368
93.02966, 168.9557
93.51178, 171.7361
93.99390, 173.7257
94.47601, 174.9350
94.95813, 175.4898
95.44025, 175.4600
95.92236, 174.8570
96.40448, 173.5818
96.88660, 172.3879
97.36871, 171.1487
97.85082, 170.1856
98.33294, 169.8554
98.81506, 170.0971
99.29717, 170.1132
99.77929, 169.8824
100.2614, 169.5037
100.7435, 168.7273
101.2256, 166.9218
101.7078, 164.6390
102.1899, 163.2663
102.6720, 163.4051
103.1541, 164.0823
103.6362, 164.3155
104.1183, 164.1083
104.6005, 163.8120
105.0826, 163.7266
105.5647, 163.8774
106.0468, 163.9753
106.5289, 163.8851
107.0110, 163.7106
107.4931, 163.5032
107.9753, 163.2752
108.4574, 163.0159
108.9395, 162.7020
109.4216, 162.2785
109.9037, 161.8667
110.3858, 161.6046
110.8680, 161.3132
111.3501, 160.7469
111.8322, 159.7527
112.3143, 158.4435
112.7964, 157.5413
113.2785, 157.3421
113.7607, 157.1876
114.2428, 156.8373
114.7249, 156.3819
115.2070, 156.1107
115.6891, 156.3043
116.1712, 156.9344
116.6534, 157.1611
117.1355, 156.8266
117.6176, 156.2290
118.0997, 155.4694
118.5818, 154.5364
119.0639, 153.7454
119.5461, 153.4935
120.0282, 153.6429
120.5103, 153.8493
120.9924, 154.0943
121.4745, 154.3233
121.9566, 154.4090
122.4388, 154.3214
122.9209, 154.0941
123.4030, 153.7170
123.8851, 153.2294
124.3672, 152.7637
124.8493, 152.3920
125.3315, 152.1074
125.8136, 151.9897
126.2957, 152.2242
126.7778, 152.5033
127.2599, 152.7484
127.7420, 152.9281
128.2242, 153.0165
128.7063, 152.9461
129.1884, 152.5503
129.6705, 152.3455
130.1526, 152.6043
130.6347, 152.8630
131.1169, 152.6741
131.5990, 151.9146
132.0811, 150.9138
132.5632, 150.3991
133.0453, 150.6007
133.5274, 151.0536
134.0096, 151.9595
134.4917, 153.0658
134.9738, 153.9914
135.4559, 154.5427
135.9380, 154.8460
136.4201, 155.3192
136.9023, 155.9351
137.3844, 156.7053
137.8665, 157.6482
138.3486, 158.7535
138.8307, 159.9665
139.3128, 161.1740
139.7950, 162.5320
140.2771, 164.3716
140.7592, 167.3850
141.2413, 170.2075
141.7234, 171.5031
142.2055, 171.1761
142.6877, 169.7594
143.1698, 166.9167
143.6519, 163.3246
144.1340, 159.5901
144.6161, 155.7135
145.0982, 151.9717
145.5803, 149.0674
146.0625, 147.1410
146.5446, 145.9749
147.0267, 145.8632
147.5088, 146.2712
147.9909, 146.3653
148.4730, 145.5076
148.9552, 143.7623
149.4373, 142.4808
149.9194, 141.9606
150.4015, 141.6712
150.8836, 141.6390
151.3657, 141.7551
151.8479, 141.8178
152.3300, 141.6240
152.8121, 141.0911
153.2942, 140.8183
153.7763, 141.0373
154.2584, 141.2555
154.7406, 141.1559
155.2227, 140.7559
155.7048, 140.3396
156.1869, 140.2070
156.6690, 140.4249
157.1511, 140.8214
157.6333, 141.4865
158.1154, 142.2736
158.5975, 143.0330
159.0796, 143.7305
159.5617, 144.4711
160.0438, 145.3640
160.5260, 146.3813
161.0081, 147.6799
161.4902, 149.3517
161.9723, 151.3203
162.4544, 153.4796
162.9365, 155.8364
163.4187, 158.2999
163.9008, 160.8393
164.3829, 163.4454
164.8650, 165.8438
165.3471, 168.1639
165.8292, 170.2851
166.3113, 171.3673
166.7935, 171.2057
167.2756, 169.7840
167.7577, 166.9464
168.2398, 162.7362
168.7219, 158.0738
169.2040, 153.7837
169.6862, 149.9126
170.1683, 146.1394
170.6504, 141.8621
171.1325, 138.0703
171.6146, 135.3749
172.0967, 133.8894
172.5789, 133.2244
173.0610, 132.9023
173.5431, 133.0892
174.0252, 133.2571
174.5073, 133.1359
174.9894, 133.1187
175.4716, 133.5988
175.9537, 134.6694
176.4358, 136.0038
176.9179, 136.9291
177.4000, 137.0409
177.8821, 137.2688
178.3643, 137.6600
178.8464, 138.1632
179.3285, 138.7275
179.8106, 139.3338
180.2927, 139.9886
180.7748, 140.7073
181.2570, 141.6079
181.7391, 142.4286
182.2212, 143.0494
182.7033, 143.5879
183.1854, 144.2404
183.6675, 145.1179
184.1497, 146.1189
184.6318, 146.9033
185.1139, 147.3331
185.5960, 147.8104
186.0781, 148.4928
186.5602, 149.3321
187.0423, 150.1833
187.5245, 150.9467
188.0066, 151.7079
188.4887, 152.6450
188.9708, 153.7486
189.4529, 155.0080
189.9350, 156.5089
190.4172, 158.2181
190.8993, 159.8498
191.3814, 161.2629
191.8635, 162.5159
192.3456, 163.6444
192.8277, 164.4866
193.3099, 165.5277
193.7920, 167.3307
194.2741, 169.9798
194.7562, 172.7966
195.2383, 175.3614
195.7204, 178.0439
196.2026, 181.0630
196.6847, 184.3950
197.1668, 188.3854
197.6489, 193.6479
198.1310, 200.4391
198.6131, 207.8395
199.0953, 216.6701
199.5774, 225.4671
200.0595, 233.1443
200.5416, 239.4336
201.0237, 243.8410
201.5058, 245.0852
201.9880, 242.0041
202.4701, 237.4987
202.9522, 231.5666
203.4343, 224.9970
203.9164, 218.3405
204.3985, 211.8232
204.8807, 205.7715
205.3628, 201.2500
205.8449, 199.4138
206.3270, 197.8044
206.8091, 196.2431
207.2912, 194.7255
207.7733, 193.1800
208.2555, 191.5671
208.7376, 190.0375
209.2197, 189.1627
209.7018, 189.3495
210.1839, 189.7906
210.6660, 190.5103
211.1482, 191.4194
211.6303, 192.4810
212.1124, 193.7049
212.5945, 194.9621
213.0766, 195.7218
213.5587, 195.8120
214.0409, 195.6682
214.5230, 195.3920
215.0051, 194.9372
215.4872, 194.1786
215.9693, 193.0190
216.4514, 191.5629
216.9336, 190.2103
217.4157, 188.8300
217.8978, 187.6720
218.3799, 186.8356
218.8620, 186.2834
219.3441, 185.9312
219.8263, 185.7753
220.3084, 185.7691
220.7905, 185.7801
221.2726, 185.8446
221.7547, 185.8659
222.2368, 185.6217
222.7190, 185.2350
223.2011, 185.2619
223.6832, 186.1390
224.1653, 187.4095
224.6474, 188.1637
225.1295, 188.2447
225.6117, 188.2015
226.0938, 188.4517
226.5759, 188.9459
227.0580, 189.2205
227.5401, 188.8285
228.0222, 188.3565
228.5043, 188.5760
228.9865, 189.6543
229.4686, 190.8958
229.9507, 191.7355
230.4328, 192.1750
230.9149, 192.5247
231.3970, 192.7109
231.8792, 192.9676
232.3613, 193.5815
232.8434, 194.6131
233.3255, 195.6201
233.8076, 196.1352
234.2897, 196.1202
234.7719, 196.0700
235.2540, 196.1422
235.7361, 196.1756
236.2182, 196.1407
236.7003, 196.0193
237.1824, 195.6496
237.6646, 194.7265
238.1467, 193.0998
238.6288, 191.7369
239.1109, 190.8160
239.5930, 190.1706
240.0751, 189.8792
240.5573, 189.8870
241.0394, 189.8611
241.5215, 189.3453
242.0036, 188.1616
242.4857, 187.2009
242.9678, 186.6952
243.4500, 186.2717
243.9321, 185.7862
244.4142, 185.2073
244.8963, 184.5487
245.3784, 183.7805
245.8605, 182.8108
246.3427, 182.0862
246.8248, 181.6287
247.3069, 181.3785
247.7890, 181.5616
248.2711, 182.0326
248.7532, 182.2606
249.2354, 181.5910
249.7175, 179.6981
250.1996, 178.3179
250.6817, 177.8577
251.1638, 177.4843
251.6459, 176.7769
252.1281, 175.7623
252.6102, 174.7473
253.0923, 174.0291
253.5744, 173.6605
254.0565, 173.2890
254.5386, 173.0488
255.0208, 172.6852
255.5029, 172.0880
255.9850, 171.2582
256.4671, 170.1926
256.9492, 168.7980
257.4313, 166.9779
257.9135, 166.0701
258.3956, 166.7804
258.8777, 167.5022
259.3598, 167.5082
259.8419, 166.9163
260.3240, 166.2676
260.8062, 165.9844
261.2883, 166.0630
261.7704, 165.8709
262.2525, 164.9744
262.7346, 164.3030
263.2167, 164.3160
263.6989, 164.8746
264.1810, 165.5480
264.6631, 166.0451
265.1452, 166.4219
265.6273, 167.1887
266.1094, 168.8299
266.5916, 170.2600
267.0737, 170.9173
267.5558, 171.0509
268.0379, 171.2704
268.5200, 171.9178
269.0021, 172.8862
269.4843, 173.7379
269.9664, 174.6379
270.4485, 175.2624
270.9306, 175.6694
271.4127, 175.7241
271.8948, 175.0320
272.3770, 173.2926
272.8591, 170.9353
273.3412, 169.0589
273.8233, 167.8724
274.3054, 166.6135
274.7875, 164.8547
275.2697, 162.8890
275.7518, 161.3084
276.2339, 160.3618
276.7160, 159.7683
277.1981, 159.0556
277.6802, 158.2418
278.1623, 157.3168
278.6444, 156.2323
279.1266, 155.0405
279.6087, 153.7681
280.0908, 152.3709
280.5729, 151.0885
281.0550, 150.2896
281.5371, 149.9368
282.0193, 149.8069
282.5014, 150.0003
282.9835, 150.3328
283.4656, 150.5846
283.9477, 150.7386
284.4298, 150.7017
284.9120, 150.2498
285.3941, 149.4458
285.8762, 148.7585
286.3583, 148.1665
286.8404, 147.7946
287.3225, 147.9462
287.8047, 148.7104
288.2868, 149.4046
288.7689, 149.3211
289.2510, 148.6885
289.7331, 148.3298
290.2152, 148.4809
290.6974, 148.9020
291.1795, 149.4442
291.6616, 150.1120
292.1437, 150.6450
292.6258, 150.7688
293.1079, 150.6657
293.5901, 150.7805
294.0722, 151.2831
294.5543, 151.8745
295.0364, 152.2676
295.5185, 152.4791
296.0006, 152.7906
296.4828, 153.4051
296.9649, 154.1577
297.4470, 154.7528
297.9291, 155.1474
298.4112, 155.4623
298.8933, 155.7129
299.3755, 155.9247
299.8576, 156.2451
300.3397, 156.6608
300.8218, 157.2975
301.3039, 158.3402
301.7860, 159.8409
302.2682, 161.3205
302.7503, 162.5549
303.2324, 163.5671
303.7145, 164.4023
304.1966, 164.9406
304.6787, 165.5363
305.1609, 166.5341
305.6430, 167.9024
306.1251, 169.5072
306.6072, 171.6135
307.0893, 173.8775
307.5714, 175.4528
308.0536, 176.0555
308.5357, 176.4996
309.0178, 177.5462
309.4999, 178.9940
309.9820, 180.3214
310.4641, 181.2727
310.9463, 182.0385
311.4284, 182.8805
311.9105, 183.8084
312.3926, 184.7737
312.8747, 185.8966
313.3568, 187.0020
313.8390, 187.7350
314.3211, 187.8586
314.8032, 187.7601
315.2853, 187.9080
315.7674, 188.3106
316.2495, 188.4670
316.7317, 188.0149
317.2138, 187.2386
317.6959, 186.5819
318.1780, 186.0896
318.6601, 185.6787
319.1422, 185.3425
319.6243, 185.0589
320.1064, 184.6648
320.5886, 184.0112
321.0707, 183.3391
321.5528, 182.9762
322.0349, 182.9430
322.5170, 182.8792
322.9991, 182.4736
323.4813, 181.8837
323.9634, 181.6163
324.4455, 181.9021
324.9276, 182.2252
325.4097, 181.9611
325.8918, 181.2341
326.3740, 180.6549
326.8561, 180.4454
327.3382, 180.5107
327.8203, 180.7800
328.3024, 181.3065
328.7845, 181.7470
329.2667, 181.7475
329.7488, 181.4611
330.2309, 181.2601
330.7130, 181.2748
331.1951, 181.3595
331.6772, 181.4132
332.1594, 181.4341
332.6415, 181.3226
333.1236, 180.9560
333.6057, 180.4449
334.0878, 180.0246
334.5699, 179.6865
335.0521, 179.4699
335.5342, 179.4959
336.0163, 179.6953
336.4984, 179.7756
336.9805, 179.6433
337.4626, 179.3309
337.9448, 178.9137
338.4269, 178.4106
338.9090, 177.7405
339.3911, 176.5543
339.8732, 175.2336
340.3553, 174.5946
340.8375, 174.8876
341.3196, 175.5043
341.8017, 175.7571
342.2838, 175.6890
342.7659, 175.8054
343.2480, 176.3170
343.7302, 176.9942
344.2123, 177.6556
344.6944, 178.2805
345.1765, 178.7258
345.6586, 178.7083
346.1407, 178.3978
346.6229, 178.7363
347.1050, 180.2869
347.5871, 181.9861
348.0692, 183.1481
348.5513, 183.8922
349.0334, 184.6584
349.5156, 185.5379
349.9977, 186.7124
350.4798, 188.7437
350.9619, 192.0445
351.4440, 195.1860
351.9261, 197.2358
352.4083, 198.9181
352.8904, 201.5012
353.3725, 205.3952
353.8546, 210.0057
354.3367, 214.6026
354.8188, 219.2232
355.3010, 223.6303
355.7831, 227.9250
356.2652, 231.9139
356.7473, 235.4609
357.2294, 238.5423
357.7115, 241.2305
358.1937, 243.7364
358.6758, 246.0340
359.1579, 246.8086
359.6400, 245.2948
360.1221, 243.1792
360.6042, 241.1807
361.0863, 239.2432
361.5685, 237.0520
362.0506, 234.3718
362.5327, 231.3861
363.0148, 228.8600
363.4969, 226.7900
363.9790, 225.1490
364.4612, 224.1207
364.9433, 223.4483
365.4254, 222.8492
365.9075, 222.2281
366.3896, 221.6560
366.8717, 221.2345
367.3539, 220.9258
367.8360, 220.9094
368.3181, 221.1996
368.8002, 221.7441
369.2823, 222.7131
369.7644, 223.9797
370.2466, 225.0484
370.7287, 225.4010
371.2108, 224.9645
371.6929, 225.0918
372.1750, 226.3757
372.6571, 227.5454
373.1393, 228.1158
373.6214, 228.3315
374.1035, 228.6429
374.5856, 229.2932
375.0677, 230.2175
375.5498, 231.2219
376.0320, 232.3950
376.5141, 233.5198
376.9962, 234.6833
377.4783, 235.7355
377.9604, 236.4473
378.4425, 236.8047
378.9247, 237.1059
379.4068, 237.8227
379.8889, 239.1688
380.3710, 240.1782
380.8531, 240.5844
381.3352, 240.8940
381.8174, 241.2407
382.2995, 241.6712
382.7816, 242.2474
383.2637, 243.0703
383.7458, 244.0786
384.2279, 244.8535
384.7101, 245.4585
385.1922, 245.6885
385.6743, 245.2577
386.1564, 244.5631
386.6385, 244.0734
387.1206, 243.9799
387.6028, 244.1238
388.0849, 244.3248
388.5670, 244.6402
389.0491, 244.7353
389.5312, 244.5113
390.0133, 244.0355
390.4955, 243.2254
390.9776, 242.1133
391.4597, 241.0445
391.9418, 240.2839
392.4239, 239.7974
392.9060, 239.4482
393.3882, 239.3683
393.8703, 239.1684
394.3524, 238.6540
394.8345, 237.8486
395.3166, 236.7580
395.7987, 235.3137
396.2809, 233.6445
396.7630, 231.8204
397.2451, 229.7988
397.7272, 228.0781
398.2093, 227.0042
398.6914, 226.2980
399.1736, 225.5177
399.6557, 224.6557
400.1378, 223.6728
400.6199, 222.3684
401.1020, 220.9192
401.5841, 219.8277
402.0662, 219.2501
402.5483, 218.9307
403.0305, 218.5982
403.5126, 218.2537
403.9947, 218.0290
404.4768, 218.0958
404.9589, 218.1933
405.4410, 218.0273
405.9232, 217.6115
406.4053, 217.2017
406.8874, 216.9151
407.3695, 216.7899
407.8516, 216.9875
408.3337, 217.6751
408.8159, 218.4394
409.2980, 219.1206
409.7801, 219.8062
410.2622, 220.6439
410.7443, 221.6939
411.2264, 222.8768
411.7086, 224.0611
412.1907, 225.1652
412.6728, 226.5028
413.1549, 228.2846
413.6370, 230.1255
414.1191, 231.6315
414.6013, 232.9011
415.0834, 234.4725
415.5655, 236.8530
416.0476, 239.9655
416.5297, 242.3053
417.0118, 242.6863
417.4940, 243.6272
417.9761, 245.7487
418.4582, 248.5952
418.9403, 251.7108
419.4224, 254.9132
419.9045, 257.9523
420.3867, 260.2969
420.8688, 261.4415
421.3509, 263.2214
421.8330, 266.0094
422.3151, 269.1472
422.7972, 272.4408
423.2794, 275.7864
423.7615, 279.0463
424.2436, 282.1108
424.7257, 284.9912
425.2078, 287.7859
425.6899, 290.4203
426.1721, 293.0939
426.6542, 295.8547
427.1363, 298.7088
427.6184, 301.7128
428.1005, 304.9138
428.5826, 308.1221
429.0648, 311.0288
429.5469, 313.6447
430.0290, 316.3935
430.5111, 319.4411
430.9932, 322.5519
431.4753, 325.3786
431.9575, 327.9885
432.4396, 330.9373
432.9217, 334.9889
433.4038, 339.3625
433.8859, 342.6107
434.3680, 344.5564
434.8502, 346.3269
435.3323, 348.6631
435.8144, 351.3235
436.2965, 353.6180
436.7786, 355.3142
437.2607, 356.9593
437.7429, 358.9426
438.2250, 361.0808
438.7071, 362.9897
439.1892, 364.5663
439.6713, 365.7890
440.1534, 366.5365
440.6356, 366.6671
441.1177, 366.9596
441.5998, 367.4547
442.0819, 368.1216
442.5640, 369.2502
443.0461, 370.6144
443.5282, 371.4181
444.0103, 371.0894
444.4925, 369.7952
444.9746, 368.4518
445.4567, 366.8369
445.9388, 365.4586
446.4209, 364.8096
446.9030, 364.2045
447.3852, 362.8629
447.8673, 360.6270
448.3494, 358.0255
448.8315, 355.8178
449.3136, 354.2515
449.7957, 351.8220
450.2779, 347.8875
450.7600, 343.6744
451.2421, 339.5023
451.7242, 335.3594
452.2063, 331.1661
452.6884, 326.9302
453.1706, 322.5612
453.6527, 317.8380
454.1348, 312.6314
454.6169, 307.5507
455.0990, 302.5872
455.5811, 297.9216
456.0633, 293.8831
456.5454, 290.4525
457.0275, 286.9197
457.5096, 282.3728
457.9917, 277.2616
458.4738, 273.2775
458.9560, 270.8528
459.4381, 268.6032
459.9202, 265.5401
460.4023, 262.0145
460.8844, 258.6515
461.3665, 255.6770
461.8487, 252.7316
462.3308, 249.4090
462.8129, 245.8641
463.2950, 242.7710
463.7771, 240.4834
464.2592, 238.2951
464.7414, 235.1335
465.2235, 230.9069
465.7056, 226.4319
466.1877, 221.4468
466.6698, 216.4657
467.1519, 211.9158
467.6341, 207.7637
468.1162, 203.8220
468.5983, 200.0118
469.0804, 196.2547
469.5625, 192.3336
470.0446, 187.6328
470.5268, 183.5623
471.0089, 180.5181
471.4910, 177.9957
471.9731, 175.6340
472.4552, 173.3152
472.9373, 171.0078
473.4195, 168.6850
473.9016, 166.3543
474.3837, 163.9514
474.8658, 161.3314
475.3479, 158.8093
475.8300, 156.3198
476.3122, 154.0340
476.7943, 152.2203
477.2764, 151.0347
477.7585, 150.1040
478.2406, 148.8220
478.7227, 147.1462
479.2049, 145.5442
479.6870, 144.0825
480.1691, 142.7426
480.6512, 141.4946
481.1333, 140.3484
481.6154, 139.3367
482.0976, 138.5393
482.5797, 137.8597
483.0618, 137.1927
483.5439, 136.5415
484.0260, 135.7564
484.5081, 134.7519
484.9902, 133.5630
485.4724, 132.2736
485.9545, 130.8674
486.4366, 129.4239
486.9187, 127.8336
487.4008, 126.2724
487.8829, 124.9835
488.3651, 123.9980
488.8472, 123.2228
489.3293, 122.6336
489.8114, 122.2236
490.2935, 121.5338
490.7756, 120.1426
491.2578, 119.0165
491.7399, 118.5830
492.2220, 118.5180
492.7041, 118.4660
493.1862, 118.2862
493.6683, 117.8977
494.1505, 117.0917
494.6326, 115.6390
495.1147, 114.6881
495.5968, 114.7227
496.0789, 114.8042
496.5610, 114.7577
497.0432, 114.4862
497.5253, 113.7802
498.0074, 112.4275
498.4895, 110.9056
498.9716, 110.1658
499.4537, 110.3237
499.9359, 110.5412
500.4180, 110.7520
500.9001, 110.8338
501.3822, 110.6216
501.8643, 110.1489
502.3464, 109.7441
502.8286, 109.5807
503.3107, 109.5669
503.7928, 109.5939
504.2749, 109.6575
504.7570, 109.6910
505.2391, 109.6969
505.7213, 109.6200
506.2034, 109.2797
506.6855, 108.4684
507.1676, 107.9043
507.6497, 107.9523
508.1318, 108.2510
508.6140, 108.4166
509.0961, 108.3907
509.5782, 108.2889
510.0603, 108.2024
510.5424, 108.1317
511.0245, 108.0947
511.5067, 108.2679
511.9888, 108.2594
512.4709, 107.8656
512.9530, 107.3264
513.4351, 106.8771
513.9172, 106.5876
514.3994, 106.4154
514.8815, 106.3426
515.3636, 106.3829
515.8457, 106.3283
516.3278, 106.0564
516.8099, 105.8558
517.2921, 105.9658
517.7742, 106.1822
518.2563, 106.1713
518.7384, 105.7847
519.2205, 105.2737
519.7026, 104.8569
520.1848, 104.5400
520.6669, 104.3829
521.1490, 104.4299
521.6311, 104.5746
522.1132, 104.7922
522.5953, 105.0503
523.0775, 105.1150
523.5596, 104.8041
524.0417, 104.4145
524.5238, 104.0919
525.0059, 103.8584
525.4880, 103.7961
525.9702, 103.9581
526.4523, 104.1747
526.9344, 104.1346
527.4165, 103.6438
527.8986, 103.4143
528.3807, 103.7149
528.8629, 104.0057
529.3450, 103.9175
529.8271, 103.5806
530.3092, 103.3462
530.7913, 103.4163
531.2734, 103.6824
531.7556, 103.8801
532.2377, 103.9771
532.7198, 104.0962
533.2019, 104.3837
533.6840, 104.5890
534.1661, 104.4950
534.6483, 104.1664
535.1304, 103.8911
535.6125, 103.7579
536.0946, 103.8242
536.5767, 104.3589
537.0588, 105.3998
537.5410, 106.0780
538.0231, 105.8884
538.5052, 105.3126
538.9873, 105.1031
539.4694, 105.2854
539.9515, 105.5339
540.4337, 105.7553
540.9158, 106.0036
541.3979, 106.3822
541.8800, 106.8599
542.3621, 107.2323
542.8442, 107.3356
543.3264, 107.3137
543.8085, 107.6663
544.2906, 109.0492
544.7726, 109.8815
545.2548, 109.6207
545.7369, 109.2117
546.2190, 109.3957
546.7011, 110.1279
547.1832, 110.8798
547.6653, 111.2117
548.1475, 111.2811
548.6296, 111.7575
549.1117, 112.8352
549.5938, 113.8030
550.0759, 114.4212
550.5580, 114.8698
551.0402, 115.2849
551.5223, 115.6724
552.0044, 115.9327
552.4865, 115.7727
552.9686, 115.5354
553.4507, 115.9184
553.9329, 116.9524
554.4150, 118.0228
554.8971, 118.8147
555.3792, 119.4265
555.8613, 120.1025
556.3434, 120.8840
556.8256, 121.6146
557.3077, 122.1585
557.7898, 122.7161
558.2719, 123.5169
558.7540, 124.5285
559.2361, 125.5139
559.7183, 126.3162
560.2004, 126.9573
560.6825, 127.5377
561.1646, 127.9227
561.6467, 128.4783
562.1288, 129.2316
562.6110, 130.1491
563.0931, 131.3344
563.5752, 132.7025
564.0573, 133.9272
564.5394, 134.6903
565.0215, 135.1977
565.5037, 135.9967
565.9858, 137.1311
566.4679, 138.2895
566.9500, 139.3185
567.4321, 140.3547
567.9142, 141.6185
568.3964, 143.1325
568.8785, 144.5403
569.3606, 145.7066
569.8427, 146.7200
570.3248, 147.5545
570.8069, 148.2840
571.2891, 149.2622
571.7712, 150.6968
572.2533, 152.4199
572.7354, 153.9991
573.2175, 155.3625
573.6996, 156.7068
574.1818, 157.9514
574.6639, 159.2540
575.1460, 160.7608
575.6281, 162.4121
576.1102, 164.0461
576.5923, 165.5862
577.0745, 166.9979
577.5566, 168.1184
578.0387, 168.8420
578.5208, 169.8349
579.0029, 171.1547
579.4850, 172.8703
579.9672, 175.2259
580.4493, 178.0439
580.9314, 180.5725
581.4135, 182.4856
581.8956, 184.0356
582.3777, 185.2306
582.8599, 186.2283
583.3420, 187.7403
583.8241, 190.0810
584.3062, 192.6801
584.7883, 194.7290
585.2704, 196.0420
585.7526, 197.7743
586.2347, 200.2757
586.7168, 202.8017
587.1989, 204.9987
587.6810, 207.0191
588.1631, 209.1174
588.6453, 211.3855
589.1274, 213.7752
589.6095, 216.1599
590.0916, 218.5104
590.5737, 221.2287
591.0558, 224.8170
591.5380, 228.0495
592.0201, 229.9892
592.5022, 231.3468
592.9843, 233.1593
593.4664, 235.6712
593.9485, 238.6302
594.4307, 242.1750
594.9128, 245.9507
595.3949, 249.0653
595.8770, 251.3526
596.3591, 253.4214
596.8412, 255.6172
597.3234, 258.0040
597.8055, 261.0352
598.2876, 265.6738
598.7697, 269.5849
599.2518, 271.8749
599.7339, 273.6190
600.2161, 275.7419
600.6982, 278.3923
601.1803, 281.3311
601.6624, 284.4513
602.1445, 287.6497
602.6266, 290.4006
603.1088, 292.6377
603.5909, 294.5622
604.0730, 295.9137
604.5551, 297.1772
605.0372, 298.6410
605.5193, 300.3291
606.0015, 302.1922
606.4836, 304.6060
606.9657, 306.9395
607.4478, 308.3861
607.9299, 309.0052
608.4120, 309.1322
608.8942, 308.8089
609.3763, 308.3461
609.8584, 308.2539
610.3405, 308.7238
610.8226, 308.8562
611.3047, 308.8250
611.7869, 308.3014
612.2690, 306.8264
612.7511, 304.8477
613.2332, 303.1242
613.7153, 301.9328
614.1974, 300.8439
614.6796, 299.3687
615.1617, 297.5087
615.6438, 294.9074
616.1259, 290.9726
616.6080, 287.2840
617.0901, 285.0580
617.5723, 283.4138
618.0544, 281.0630
618.5365, 277.6525
619.0186, 274.0772
619.5007, 270.7743
619.9828, 267.6635
620.4650, 264.6834
620.9471, 261.8000
621.4292, 258.7916
621.9113, 255.4942
622.3934, 251.9765
622.8755, 248.5599
623.3577, 245.5084
623.8398, 242.1648
624.3219, 238.3401
624.8040, 234.4038
625.2861, 230.5418
625.7682, 226.8110
626.2504, 223.2353
626.7325, 219.8855
627.2145, 216.6154
627.6967, 213.1286
628.1788, 209.4059
628.6609, 205.7990
629.1430, 202.3821
629.6251, 199.0656
630.1072, 195.6367
630.5894, 192.1940
631.0715, 189.1472
631.5536, 186.8443
632.0357, 184.6201
632.5178, 182.0555
632.9999, 179.3652
633.4821, 176.9185
633.9642, 174.7861
634.4463, 172.6922
634.9284, 170.3739
635.4105, 167.8429
635.8926, 165.4033
636.3748, 163.1813
636.8569, 160.8683
637.3390, 158.1441
637.8211, 155.5143
638.3032, 153.5047
638.7853, 152.0734
639.2675, 150.5871
639.7496, 148.5194
640.2317, 146.2574
640.7138, 144.4252
641.1959, 143.0030
641.6780, 141.6500
642.1602, 140.2758
642.6423, 138.8572
643.1244, 137.3097
643.6065, 135.5833
644.0886, 134.1252
644.5707, 133.1907
645.0529, 132.2423
645.5350, 130.9583
646.0171, 129.5596
646.4992, 128.2817
646.9813, 127.2283
647.4634, 126.5415
647.9456, 126.6899
648.4277, 127.5071
648.9098, 126.7187
649.3919, 123.4352
649.8740, 120.8801
650.3561, 121.1097
650.8383, 122.2003
651.3204, 121.8686
651.8025, 119.9195
652.2846, 118.3184
652.7667, 118.2501
653.2488, 118.5412
653.7310, 117.9699
654.2131, 116.7354
654.6952, 115.7486
655.1773, 115.4082
655.6594, 115.1862
656.1415, 114.1795
656.6237, 112.1225
657.1058, 110.5337
657.5879, 109.7117
658.0700, 109.0548
658.5521, 108.5145
659.0342, 108.0021
659.5164, 107.4197
659.9985, 106.7428
660.4806, 106.0363
660.9627, 105.2622
661.4448, 104.5183
661.9269, 104.0936
662.4091, 104.0043
662.8912, 103.8655
663.3733, 103.4865
663.8554, 102.9562
664.3375, 102.4576
664.8196, 102.0451
665.3018, 101.4977
665.7839, 100.5911
666.2660, 99.76594
666.7481, 99.35390
667.2302, 99.16202
667.7123, 98.80298
668.1945, 98.13760
668.6766, 97.44876
669.1587, 97.08791
669.6408, 97.04004
670.1229, 97.12915
670.6050, 97.46642
671.0872, 97.58304
671.5693, 97.02382
672.0514, 96.21722
672.5335, 95.98143
673.0156, 96.50867
673.4977, 96.70789
673.9799, 95.88684
674.4620, 94.91355
674.9441, 94.55450
675.4262, 94.67524
675.9083, 94.78671
676.3904, 94.67184
676.8726, 94.41462
677.3547, 94.15910
677.8368, 93.92726
678.3189, 93.52596
678.8010, 92.65501
679.2831, 92.05762
679.7653, 92.33857
680.2474, 92.88204
680.7295, 92.87151
681.2116, 92.13766
681.6937, 91.40141
682.1758, 90.97613
682.6580, 90.82204
683.1401, 91.00760
683.6222, 91.45165
684.1043, 91.78741
684.5864, 91.84203
685.0685, 91.72294
685.5507, 91.59187
686.0328, 91.39449
686.5149, 91.40119
686.9970, 91.84488
687.4791, 92.23170
687.9612, 92.46853
688.4434, 92.54305
688.9255, 92.38745
689.4076, 91.99478
689.8897, 91.63338
690.3718, 91.61830
690.8539, 91.73982
691.3361, 91.44524
691.8182, 90.75982
692.3003, 90.50810
692.7824, 91.16411
693.2645, 92.10367
693.7466, 92.29347
694.2288, 91.46780
694.7109, 90.98786
695.1930, 91.18449
695.6751, 91.32045
696.1572, 91.10451
696.6393, 90.69497
697.1215, 90.29536
697.6036, 89.95682
698.0857, 89.62051
698.5678, 89.14843
699.0499, 88.65060
699.5320, 88.54562
700.0142, 88.85979
700.4963, 88.96129
700.9784, 88.57365
701.4605, 87.94919
701.9426, 87.37907
702.4247, 86.85354
702.9069, 86.53599
703.3890, 86.85371
703.8711, 86.89153
704.3532, 86.06081
704.8353, 84.87526
705.3174, 83.96520
705.7996, 83.45052
706.2817, 83.02480
706.7638, 82.38815
707.2459, 81.66409
707.7280, 81.31886
708.2101, 81.41120
708.6923, 81.28862
709.1743, 80.55791
709.6564, 79.87139
710.1385, 80.26645
710.6207, 81.59055
711.1028, 81.85717
711.5849, 80.03738
712.0670, 78.20329
712.5491, 77.04917
713.0313, 76.35038
713.5134, 75.99632
713.9955, 75.85549
714.4776, 75.52792
714.9597, 74.58922
715.4418, 73.47691
715.9240, 73.67614
716.4061, 75.45055
716.8882, 76.14411
717.3703, 74.81040
717.8524, 72.98846
718.3345, 71.83621
718.8167, 71.22411
719.2988, 70.71018
719.7809, 70.19456
720.2630, 69.87951
720.7451, 70.12418
721.2272, 70.40437
721.7094, 70.07506
722.1915, 69.23632
722.6736, 68.51023
723.1557, 68.28177
723.6378, 68.28260
724.1199, 67.89233
724.6021, 67.04585
725.0842, 66.65394
725.5663, 67.04926
726.0484, 67.41099
726.5305, 67.21912
727.0126, 66.65195
727.4948, 66.04426
727.9769, 65.34608
728.4590, 64.79567
728.9411, 64.57521
729.4232, 64.43598
729.9053, 64.14363
730.3875, 63.76121
730.8696, 63.49689
731.3517, 63.43749
731.8338, 63.45414
732.3159, 63.36261
732.7980, 63.16349
733.2802, 62.99656
733.7623, 62.87797
734.2444, 62.75454
734.7265, 62.69328
735.2086, 62.54665
735.6907, 61.99903
736.1729, 60.99699
736.6550, 60.38184
737.1371, 60.67667
737.6192, 61.04064
738.1013, 60.95442
738.5834, 60.60355
739.0656, 60.29004
739.5477, 60.09740
740.0298, 59.97806
740.5119, 59.89185
740.9940, 59.83679
741.4761, 59.83232
741.9583, 59.90779
742.4404, 59.84648
742.9225, 59.50270
743.4046, 59.12769
743.8867, 58.99007
744.3688, 59.04886
744.8510, 59.07817
745.3331, 59.13350
745.8152, 59.06507
746.2973, 58.71502
746.7794, 58.29164
747.2615, 58.02355
747.7437, 57.90083
748.2258, 57.75359
748.7079, 57.47101
749.1900, 57.15074
749.6721, 56.99006
750.1542, 56.98584
750.6364, 56.93943
751.1185, 56.81569
751.6006, 56.68980
752.0827, 56.60904
752.5648, 56.55836
753.0469, 56.49267
753.5291, 56.39565
754.0112, 56.32641
754.4933, 56.31220
754.9754, 56.30737
755.4575, 56.21379
755.9396, 56.13004
756.4218, 56.30584
756.9039, 56.80155
757.3860, 57.22571
757.8681, 57.08736
758.3502, 56.54190
758.8323, 56.10252
759.3145, 55.77068
759.7966, 55.62879
760.2787, 55.76297
760.7608, 55.97457
761.2429, 55.98915
761.7250, 55.77636
762.2072, 55.73686
762.6893, 56.29871
763.1714, 56.47199
763.6535, 55.60871
764.1356, 54.55788
764.6177, 54.06686
765.0999, 54.16413
765.5820, 54.50190
766.0641, 55.00230
766.5462, 55.42861
767.0283, 55.34381
767.5104, 54.90622
767.9926, 54.75746
768.4747, 55.00994
768.9568, 55.27577
769.4389, 55.27211
769.9210, 55.08781
770.4031, 55.01307
770.8853, 55.06950
771.3674, 55.19599
771.8495, 55.53515
772.3316, 55.78864
772.8137, 55.75523
773.2958, 55.58280
773.7780, 55.46667
774.2601, 55.44673
774.7422, 55.58664
775.2243, 56.19526
775.7064, 56.80904
776.1885, 56.74126
776.6707, 56.13389
777.1528, 55.53183
777.6349, 55.12554
778.1170, 54.86583
778.5991, 54.69382
779.0812, 54.61093
779.5634, 54.69017
780.0455, 55.07273
780.5276, 55.29292
781.0097, 55.01631
781.4918, 54.74416
781.9739, 54.99623
782.4561, 55.61282
782.9382, 55.90427
783.4203, 55.60646
783.9024, 55.11832
784.3845, 54.40352
784.8666, 53.74203
785.3488, 53.52437
785.8309, 53.69639
786.3130, 53.90602
786.7951, 53.95750
787.2772, 53.97715
787.7593, 54.27133
788.2415, 54.82452
788.7236, 54.93458
789.2057, 54.43910
789.6878, 53.99947
790.1699, 54.02745
790.6520, 54.21003
791.1342, 53.92118
791.6162, 53.00996
792.0983, 52.56597
792.5804, 53.12846
793.0626, 53.60692
793.5447, 53.49428
794.0268, 53.11287
794.5089, 52.83934
794.9910, 52.72422
795.4731, 52.59158
795.9553, 52.28700
796.4374, 51.95503
796.9195, 51.81969
797.4016, 51.85392
797.8837, 51.97892
798.3658, 52.18520
798.8480, 52.32658
799.3301, 52.30428
799.8122, 52.12593
800.2943, 51.77275
800.7764, 50.87246
801.2585, 50.59456
801.7407, 51.75806
802.2228, 52.67398
802.7049, 52.51439
803.1870, 51.80166
803.6691, 51.20469
804.1512, 50.83089
804.6334, 50.75440
805.1155, 51.34423
805.5976, 51.96656
806.0797, 51.96276
806.5618, 51.54201
807.0439, 51.18594
807.5261, 51.02346
808.0082, 50.83339
808.4903, 50.32068
808.9724, 49.71773
809.4545, 50.13422
809.9366, 51.82801
810.4188, 52.74911
810.9009, 52.29447
811.3830, 51.46220
811.8651, 50.87788
812.3472, 50.51080
812.8293, 50.23084
813.3115, 50.03322
813.7936, 49.93159
814.2757, 50.04916
814.7578, 50.14399
815.2399, 50.04026
815.7220, 49.81881
816.2042, 49.60911
816.6863, 49.45369
817.1684, 49.36633
817.6505, 49.41219
818.1326, 49.51045
818.6147, 49.48698
819.0969, 49.36830
819.5790, 49.33184
820.0611, 49.43375
820.5432, 49.48843
821.0253, 49.28998
821.5074, 48.89826
821.9896, 48.72242
822.4717, 48.86042
822.9538, 48.99108
823.4359, 49.17430
823.9180, 49.23810
824.4001, 48.95829
824.8823, 48.53103
825.3644, 48.35897
825.8465, 48.57191
826.3286, 48.75736
826.8107, 48.76756
827.2928, 48.68191
827.7750, 48.57959
828.2571, 48.42753
828.7392, 48.08330
829.2213, 47.54066
829.7034, 47.09607
830.1855, 47.07039
830.6677, 47.32473
831.1498, 47.47467
831.6319, 47.52191
832.1140, 47.58803
832.5961, 47.73686
833.0782, 47.71862
833.5604, 47.24284
834.0425, 46.47196
834.5246, 46.10514
835.0067, 46.52334
835.4888, 46.70070
835.9709, 46.47111
836.4531, 46.19762
836.9352, 45.94038
837.4173, 45.78111
837.8994, 45.88038
838.3815, 46.27160
838.8636, 46.59413
839.3458, 46.67588
839.8279, 46.60226
840.3100, 46.35785
840.7921, 46.04504
841.2742, 45.88206
841.7563, 45.89507
842.2385, 45.90261
842.7206, 45.75383
843.2027, 45.51439
843.6848, 45.34347
844.1669, 45.24243
844.6490, 45.18727
845.1312, 45.19065
845.6133, 45.19841
846.0954, 45.24231
846.5775, 45.20992
847.0596, 44.78926
847.5417, 43.67764
848.0239, 43.14093
848.5060, 43.67078
848.9881, 44.15397
849.4702, 44.16716
849.9523, 43.99604
850.4344, 43.97957
850.9166, 44.11914
851.3987, 44.14840
851.8808, 43.89442
852.3629, 43.55518
852.8450, 43.25898
853.3271, 43.00279
853.8093, 42.75662
854.2914, 42.53917
854.7735, 42.42969
855.2556, 42.47343
855.7377, 42.64544
856.2198, 43.01065
856.7020, 43.54714
857.1841, 43.59969
857.6662, 43.05920
858.1483, 42.58175
858.6304, 42.43275
859.1125, 42.40400
859.5947, 42.23095
860.0768, 41.91222
860.5589, 41.75230
861.0410, 41.87426
861.5231, 41.97521
862.0052, 42.05776
862.4874, 42.07465
862.9695, 41.92458
863.4516, 41.69763
863.9337, 41.61540
864.4158, 41.77156
864.8979, 41.88048
865.3801, 41.64439
865.8622, 41.36925
866.3443, 41.47730
866.8264, 41.80875
867.3085, 41.89748
867.7906, 41.63754
868.2728, 41.38899
868.7549, 41.51693
869.2370, 41.87005
869.7191, 42.00159
870.2012, 41.91304
870.6833, 41.81911
871.1655, 41.72964
871.6476, 41.79413
872.1297, 42.21294
872.6118, 42.74092
873.0939, 42.72289
873.5760, 41.86895
874.0581, 41.32776
874.5402, 41.38341
875.0223, 41.41880
875.5045, 41.18385
875.9866, 40.90705
876.4687, 40.83698
876.9508, 40.96855
877.4329, 41.09407
877.9150, 41.22429
878.3972, 41.23018
878.8793, 40.92958
879.3614, 40.54622
879.8435, 40.30098
880.3256, 40.21115
880.8077, 40.25208
881.2899, 40.41530
881.7720, 40.58380
882.2541, 40.52561
882.7362, 40.38234
883.2183, 40.67570
883.7004, 41.35326
884.1826, 41.80562
884.6647, 41.83711
885.1468, 41.65676
885.6289, 41.45185
886.1110, 41.22443
886.5931, 40.94899
887.0753, 40.48796
887.5574, 40.41667
888.0395, 41.02258
888.5216, 41.67733
889.0037, 42.22021
889.4858, 42.51805
889.9680, 42.20820
890.4501, 41.10922
890.9322, 40.52333
891.4143, 41.02995
891.8964, 41.60487
892.3785, 41.97839
892.8607, 42.10039
893.3428, 41.72479
893.8249, 41.03934
894.3070, 40.74819
894.7891, 41.28506
895.2712, 41.98412
895.7534, 42.27637
896.2355, 42.32953
896.7176, 42.39399
897.1997, 42.46800
897.6818, 42.42157
898.1639, 42.21232
898.6461, 42.01243
899.1282, 42.01509
899.6103, 42.19247
900.0924, 42.47395
900.5745, 42.87020
901.0566, 43.10374
901.5388, 43.10172
902.0209, 42.98822
902.5030, 42.79493
902.9851, 42.61173
903.4672, 42.70779
903.9493, 43.20681
904.4315, 43.63825
904.9136, 44.01361
905.3957, 44.30339
905.8778, 44.34689
906.3599, 44.40770
906.8420, 44.81982
907.3242, 45.54002
907.8063, 46.11553
908.2884, 46.33038
908.7705, 46.53048
909.2526, 46.86998
909.7347, 47.22649
910.2169, 47.41425
910.6990, 47.54816
911.1811, 47.94408
911.6632, 48.70123
912.1453, 49.44263
912.6274, 49.79652
913.1096, 49.98483
913.5917, 50.16867
914.0738, 50.48258
914.5559, 51.52877
915.0380, 53.31130
915.5201, 54.75000
916.0023, 55.03302
916.4844, 54.66788
916.9665, 54.71892
917.4486, 55.18403
917.9307, 55.76952
918.4128, 56.48625
918.8950, 57.20272
919.3771, 57.87579
919.8592, 58.51062
920.3413, 59.09650
920.8234, 59.64089
921.3055, 60.27526
921.7877, 60.94215
922.2698, 61.80267
922.7519, 63.20339
923.2340, 64.46090
923.7161, 65.02215
924.1982, 65.26183
924.6804, 65.88557
925.1625, 67.02882
925.6446, 68.09644
926.1267, 68.83590
926.6088, 69.58742
927.0909, 70.62846
927.5731, 71.69382
928.0552, 72.50671
928.5373, 73.04690
929.0194, 73.39465
929.5015, 73.54417
929.9836, 73.66303
930.4658, 73.95539
930.9479, 74.26903
931.4300, 74.35730
931.9121, 74.27226
932.3942, 74.23440
932.8763, 74.29892
933.3585, 74.26994
933.8406, 73.92056
934.3227, 73.42072
934.8048, 73.19162
935.2869, 73.21244
935.7690, 73.30148
936.2512, 73.43530
936.7333, 73.62016
937.2154, 73.86972
937.6975, 74.12501
938.1796, 74.23301
938.6617, 74.16646
939.1439, 74.66749
939.6260, 76.06709
940.1081, 77.11105
940.5902, 77.31747
941.0723, 77.39349
941.5544, 77.86956
942.0366, 78.65487
942.5187, 79.46211
943.0008, 80.37055
943.4829, 81.11512
943.9650, 81.62807
944.4471, 82.04553
944.9293, 82.39248
945.4114, 82.68794
945.8935, 82.93617
946.3756, 83.14531
946.8577, 83.36184
947.3398, 83.76382
947.8220, 83.88482
948.3041, 83.36288
948.7862, 82.58269
949.2683, 81.96731
949.7504, 81.34296
950.2325, 80.18948
950.7147, 78.42819
951.1968, 76.78521
951.6789, 75.91895
952.1610, 75.30867
952.6431, 74.44308
953.1252, 73.28175
953.6074, 71.57286
954.0895, 69.42228
954.5716, 67.43970
955.0537, 65.92494
955.5358, 64.65816
956.0179, 63.39626
956.5000, 62.11902
956.9821, 60.66615
957.4642, 59.04622
957.9464, 57.67088
958.4285, 56.64146
958.9106, 55.77296
959.3927, 54.94328
959.8748, 54.14686
960.3569, 53.39473
960.8391, 52.69537
961.3212, 51.98750
961.8033, 51.29493
962.2854, 50.52042
962.7675, 49.56112
963.2496, 48.62087
963.7318, 47.92060
964.2139, 47.43242
964.6960, 46.93689
965.1781, 46.52248
965.6602, 45.95550
966.1423, 45.03239
966.6245, 44.19526
967.1066, 43.54433
967.5887, 43.12022
968.0708, 43.07544
968.5529, 43.38602
969.0350, 43.50953
969.5172, 43.19072
969.9993, 42.86063
970.4814, 42.62419
970.9635, 42.45750
971.4456, 42.36686
971.9277, 42.32378
972.4099, 42.27868
972.8920, 42.22029
973.3741, 42.19051
973.8562, 42.24748
974.3383, 42.30590
974.8204, 42.26479
975.3026, 42.20305
975.7847, 42.27331
976.2668, 42.43156
976.7489, 42.43453
977.2310, 42.16765
977.7131, 42.00938
978.1953, 42.46168
978.6774, 43.20195
979.1595, 43.68188
979.6416, 43.97475
980.1237, 44.32868
980.6058, 44.78507
981.0880, 45.19071
981.5701, 45.43129
982.0522, 45.68772
982.5343, 46.38055
983.0164, 47.37956
983.4985, 47.87274
983.9807, 47.86562
984.4628, 48.07686
984.9449, 48.72866
985.4270, 49.49900
985.9091, 50.11766
986.3912, 50.62834
986.8734, 51.15431
987.3555, 51.68992
987.8376, 52.31056
988.3197, 53.06023
988.8018, 53.70665
989.2839, 54.07566
989.7661, 54.50970
990.2482, 55.45519
990.7303, 56.80430
991.2124, 57.78624
991.6945, 58.31372
992.1766, 58.67288
992.6588, 58.81084
993.1409, 58.88296
993.6230, 58.91933
994.1051, 58.95262
994.5872, 59.14598
995.0693, 59.49004
995.5515, 59.28802
996.0336, 58.13787
996.5157, 57.01837
996.9978, 56.07233
997.4799, 55.15135
997.9620, 54.21737
998.4442, 53.23765
998.9263, 52.15233
999.4084, 50.96067
999.8905, 49.80256
1000.373, 48.56603
1000.855, 47.57111
1001.337, 47.14721
1001.819, 46.82261
1002.301, 46.25345
1002.783, 45.48792
1003.265, 44.61259
1003.747, 43.65469
1004.230, 42.90346
1004.712, 42.58684
1005.194, 42.42616
1005.676, 42.39057
1006.158, 42.29823
1006.640, 41.83823
1007.122, 41.14797
1007.604, 40.61266
1008.086, 40.36580
1008.569, 40.31602
1009.051, 40.51893
1009.533, 40.76829
1010.015, 40.83807
1010.497, 40.79372
1010.979, 40.69582
1011.461, 40.59962
1011.943, 40.67480
1012.426, 41.00212
1012.908, 41.29195
1013.390, 41.15011
1013.872, 40.81044
1014.354, 40.70668
1014.836, 40.77312
1015.318, 40.84997
1015.800, 40.88807
1016.282, 40.79658
1016.765, 40.51860
1017.247, 40.18205
1017.729, 39.88762
1018.211, 39.69360
1018.693, 39.90349
1019.175, 40.44698
1019.657, 40.82192
1020.139, 40.93149
1020.622, 41.08861
1021.104, 41.48996
1021.586, 42.11829
1022.068, 43.05085
1022.550, 44.23247
1023.032, 45.03986
1023.514, 45.46740
1023.996, 45.99073
1024.478, 46.74192
1024.961, 47.45960
1025.443, 47.99888
1025.925, 48.25933
1026.407, 47.97357
1026.889, 47.12166
1027.371, 46.16185
1027.853, 45.08331
1028.335, 43.92122
1028.818, 42.65481
1029.300, 41.39757
1029.782, 40.22176
1030.264, 39.15017
1030.746, 38.27369
1031.228, 37.60453
1031.710, 37.04195
1032.192, 36.59589
1032.674, 36.23715
1033.156, 36.02285
1033.639, 35.76181
1034.121, 35.26160
1034.603, 34.62373
1035.085, 34.13180
1035.567, 33.77863
1036.049, 33.61565
1036.531, 33.80256
1037.013, 33.86591
1037.496, 33.59920
1037.978, 33.27635
1038.460, 33.11527
1038.942, 33.06996
1039.424, 32.98497
1039.906, 32.79337
1040.388, 32.77058
1040.870, 33.11152
1041.353, 33.33843
1041.835, 33.24187
1042.317, 33.07611
1042.799, 33.02361
1043.281, 33.05877
1043.763, 33.09559
1044.245, 33.07995
1044.727, 33.22845
1045.209, 33.84295
1045.692, 34.23333
1046.174, 34.02045
1046.656, 33.68945
1047.138, 33.64400
1047.620, 33.78460
1048.102, 33.79887
1048.584, 33.61840
1049.066, 33.47874
1049.548, 33.43242
1050.031, 33.40221
1050.513, 33.31213
1050.995, 33.27346
1051.477, 33.40475
1051.959, 33.65438
1052.441, 33.89367
1052.923, 34.10995
1053.405, 34.28559
1053.888, 34.52351
1054.370, 34.58183
1054.852, 34.08253
1055.334, 33.62254
1055.816, 33.83400
1056.298, 34.45230
1056.780, 34.76599
1057.262, 34.59508
1057.745, 34.56869
1058.227, 35.17575
1058.709, 35.55959
1059.191, 35.05468
1059.673, 34.45652
1060.155, 34.61029
1060.637, 35.16693
1061.119, 35.20378
1061.601, 34.49723
1062.083, 34.01307
1062.566, 34.27936
1063.048, 34.57817
1063.530, 34.60749
1064.012, 34.52228
1064.494, 34.43604
1064.976, 34.35234
1065.458, 34.25763
1065.940, 34.14849
1066.423, 33.99561
1066.905, 33.62729
1067.387, 33.42095
1067.869, 33.78115
1068.351, 34.16184
1068.833, 33.94376
1069.315, 33.46079
1069.797, 33.46981
1070.280, 34.07035
1070.762, 34.41114
1071.244, 33.92653
1071.726, 33.38946
1072.208, 33.10104
1072.690, 32.95323
1073.172, 32.87984
1073.654, 32.87114
1074.136, 32.96080
1074.619, 33.13290
1075.101, 33.23014
1075.583, 33.11748
1076.065, 33.03863
1076.547, 33.01689
1077.029, 33.16706
1077.511, 33.76092
1077.993, 34.48988
1078.475, 34.91454
1078.958, 34.98789
1079.440, 34.88346
1079.922, 34.55664
1080.404, 34.31018
1080.886, 34.36991
1081.368, 34.47398
1081.850, 34.41098
1082.332, 34.29100
1082.814, 34.30852
1083.297, 34.43592
1083.779, 34.44054
1084.261, 34.19691
1084.743, 33.98486
1085.225, 33.97514
1085.707, 33.99102
1086.189, 33.91113
1086.671, 33.79859
1087.154, 33.71664
1087.636, 33.67634
1088.118, 33.68463
1088.600, 33.75446
1089.082, 33.81226
1089.564, 33.75914
1090.046, 33.76839
1090.528, 34.03546
1091.010, 34.33149
1091.493, 34.37054
1091.975, 34.25582
1092.457, 34.29166
1092.939, 34.55805
1093.421, 34.82081
1093.903, 34.81873
1094.385, 35.01962
1094.867, 35.99207
1095.349, 36.92343
1095.832, 37.07006
1096.314, 36.68813
1096.796, 36.27660
1097.278, 35.92616
1097.760, 35.69524
1098.242, 35.66826
1098.724, 35.67134
1099.206, 35.62214
1099.689, 35.60956
1100.171, 35.83828
1100.653, 36.06291
1101.135, 35.82621
1101.617, 35.15507
1102.099, 34.73894
1102.581, 34.88018
1103.063, 35.04738
1103.546, 35.19114
1104.028, 35.24390
1104.510, 35.20695
1104.992, 35.03280
1105.474, 34.53047
1105.956, 33.81966
1106.438, 33.46415
1106.920, 33.68877
1107.402, 33.91046
1107.885, 34.04488
1108.367, 34.15364
1108.849, 34.26938
1109.331, 34.36024
1109.813, 34.32009
1110.295, 34.24294
1110.777, 34.45464
1111.259, 35.14864
1111.741, 35.40262
1112.224, 34.73788
1112.706, 34.21090
1113.188, 34.07871
1113.670, 34.10727
1114.152, 34.26023
1114.634, 34.42721
1115.116, 34.35229
1115.598, 33.99087
1116.081, 33.93953
1116.563, 34.45038
1117.045, 34.83315
1117.527, 34.87543
1118.009, 34.99646
1118.491, 35.42978
1118.973, 36.00719
1119.455, 36.58525
1119.938, 37.13395
1120.420, 37.37658
1120.902, 37.13933
1121.384, 37.02303
1121.866, 37.06455
1122.348, 37.18664
1122.830, 37.39498
1123.312, 37.61969
1123.794, 37.79539
1124.276, 37.93812
1124.759, 38.11625
1125.241, 38.37140
1125.723, 38.38756
1126.205, 38.05647
1126.687, 37.92713
1127.169, 38.17662
1127.651, 38.47281
1128.133, 38.59093
1128.616, 38.63327
1129.098, 38.80099
1129.580, 39.07836
1130.062, 39.17533
1130.544, 39.07060
1131.026, 39.06609
1131.508, 39.22466
1131.990, 39.23295
1132.473, 38.91748
1132.955, 38.58307
1133.437, 38.61227
1133.919, 38.87441
1134.401, 38.88727
1134.883, 38.68412
1135.365, 38.68761
1135.847, 38.91043
1136.329, 39.07420
1136.812, 39.08998
1137.294, 38.92517
1137.776, 38.52077
1138.258, 38.09160
1138.740, 38.11519
1139.222, 38.41022
1139.704, 38.35920
1140.186, 38.01759
1140.668, 37.65242
1141.151, 37.32322
1141.633, 37.03863
1142.115, 36.80070
1142.597, 36.55662
1143.079, 36.18295
1143.561, 35.82178
1144.043, 35.74812
1144.525, 35.84959
1145.008, 35.93734
1145.490, 35.97741
1145.972, 35.97002
1146.454, 35.91011
1146.936, 35.76325
1147.418, 35.50740
1147.900, 35.15221
1148.382, 34.50525
1148.865, 33.93624
1149.347, 34.02317
1149.829, 34.43401
1150.311, 34.55418
1150.793, 34.35055
1151.275, 34.20757
1151.757, 34.32357
1152.239, 34.26551
1152.721, 33.52320
1153.203, 32.83926
1153.686, 32.77814
1154.168, 32.95381
1154.650, 32.99439
1155.132, 32.92101
1155.614, 32.82356
1156.096, 32.71708
1156.578, 32.84269
1157.060, 33.69933
1157.543, 34.17214
1158.025, 33.55523
1158.507, 32.91702
1158.989, 32.84726
1159.471, 33.12930
1159.953, 33.67353
1160.435, 34.35804
1160.917, 34.41415
1161.400, 33.35104
1161.882, 32.62262
1162.364, 32.36244
1162.846, 32.25527
1163.328, 32.29075
1163.810, 32.36467
1164.292, 32.38748
1164.774, 32.41028
1165.256, 32.55984
1165.739, 32.85011
1166.221, 32.99014
1166.703, 32.90007
1167.185, 33.00096
1167.667, 33.45386
1168.149, 33.67051
1168.631, 33.32387
1169.113, 32.82721
1169.595, 32.62718
1170.078, 32.66932
1170.560, 32.79518
1171.042, 33.00093
1171.524, 33.11919
1172.006, 33.14943
1172.488, 33.37789
1172.970, 33.87020
1173.452, 34.19403
1173.934, 34.05711
1174.417, 33.74377
1174.899, 33.65066
1175.381, 33.70487
1175.863, 33.77992
1176.345, 33.82074
1176.827, 33.57147
1177.309, 33.10843
1177.791, 32.89119
1178.274, 33.04707
1178.756, 33.17396
1179.238, 32.93850
1179.720, 32.62550
1180.202, 32.57562
1180.684, 32.59791
1181.166, 32.34319
1181.648, 32.04062
1182.130, 32.23838
1182.613, 32.81885
1183.095, 33.04759
1183.577, 32.61558
1184.059, 32.23664
1184.541, 32.27911
1185.023, 32.47760
1185.505, 32.85559
1185.987, 33.16718
1186.469, 33.16191
1186.952, 32.97218
1187.434, 32.78236
1187.916, 32.62873
1188.398, 32.67257
1188.880, 33.33468
1189.362, 33.51694
1189.844, 32.52496
1190.326, 31.81891
1190.809, 32.12024
1191.291, 32.61505
1191.773, 32.69341
1192.255, 32.46530
1192.737, 32.17860
1193.219, 31.83144
1193.701, 31.41767
1194.183, 30.82621
1194.666, 30.66950
1195.148, 31.17981
1195.630, 31.45385
1196.112, 31.02109
1196.594, 30.43674
1197.076, 30.29086
1197.558, 30.49000
1198.040, 30.82470
1198.522, 31.27145
1199.005, 31.78836
1199.487, 32.28693
1199.969, 31.94481
1200.451, 30.68685
1200.933, 29.51331
1201.415, 28.97501
1201.897, 28.77855
1202.379, 28.67659
1202.861, 28.62252
1203.344, 28.55042
1203.826, 28.46653
1204.308, 28.34684
1204.790, 28.23445
1205.272, 28.28523
1205.754, 28.48095
1206.236, 28.50098
1206.718, 28.09678
1207.201, 27.83738
1207.683, 28.20822
1208.165, 28.68498
1208.647, 29.10722
1209.129, 29.29309
1209.611, 28.89508
1210.093, 28.19031
1210.575, 27.76203
1211.057, 27.69397
1211.540, 27.74580
1212.022, 28.14140
1212.504, 28.24590
1212.986, 27.72793
1213.468, 27.25159
1213.950, 27.00272
1214.432, 26.94442
1214.914, 27.10343
1215.396, 27.38816
1215.879, 27.54343
1216.361, 27.55675
1216.843, 27.61297
1217.325, 27.73052
1217.807, 27.75610
1218.289, 27.66036
1218.771, 27.52067
1219.253, 27.36689
1219.736, 27.24385
1220.218, 27.21489
1220.700, 27.20197
1221.182, 26.95938
1221.664, 26.60646
1222.146, 26.57524
1222.628, 26.79097
1223.110, 26.97062
1223.593, 27.05631
1224.075, 27.06590
1224.557, 27.00940
1225.039, 26.97316
1225.521, 27.05782
1226.003, 27.15305
1226.485, 27.18703
1226.967, 27.15591
1227.449, 26.94708
1227.932, 26.73302
1228.414, 26.82896
1228.896, 27.19002
1229.378, 27.45187
1229.860, 27.52202
1230.342, 27.50503
1230.824, 27.31696
1231.306, 27.19555
1231.788, 27.21348
1232.271, 27.31902
1232.753, 27.63531
1233.235, 27.87396
1233.717, 27.53519
1234.199, 26.76813
1234.681, 26.61205
1235.163, 27.26015
1235.645, 27.57362
1236.128, 27.49111
1236.610, 27.32365
1237.092, 27.13384
1237.574, 26.98317
1238.056, 26.91051
1238.538, 26.87577
1239.020, 26.83501
1239.502, 26.77984
1239.984, 26.63636
1240.467, 26.47535
1240.949, 26.49925
1241.431, 26.69509
1241.913, 27.02916
1242.395, 27.44534
1242.877, 27.72030
1243.359, 27.72278
1243.841, 27.79100
1244.323, 28.47837
1244.806, 28.96248
1245.288, 28.46913
1245.770, 27.64362
1246.252, 26.91195
1246.734, 26.39101
1247.216, 26.23644
1247.698, 26.41712
1248.180, 26.64105
1248.662, 26.98674
1249.145, 27.07644
1249.627, 26.62710
1250.109, 26.36347
1250.591, 26.49112
1251.073, 26.72580
1251.555, 26.92379
1252.037, 27.11857
1252.519, 27.38767
1253.002, 27.66764
1253.484, 27.64972
1253.966, 27.33810
1254.448, 26.83488
1254.930, 26.18406
1255.412, 25.97009
1255.894, 26.28344
1256.376, 26.63825
1256.859, 26.77485
1257.341, 26.79973
1257.823, 26.77847
1258.305, 26.76735
1258.787, 26.93531
1259.269, 27.08428
1259.751, 26.83908
1260.233, 26.42869
1260.715, 26.30857
1261.198, 26.46518
1261.680, 26.54549
1262.162, 26.43295
1262.644, 26.35698
1263.126, 26.49585
1263.608, 26.52563
1264.090, 26.10048
1264.572, 25.84618
1265.054, 26.32481
1265.537, 26.90222
1266.019, 26.85254
1266.501, 26.39332
1266.983, 26.27477
1267.465, 26.53824
1267.947, 26.72270
1268.429, 26.84029
1268.911, 26.62196
1269.394, 26.01925
1269.876, 25.85824
1270.358, 26.48098
1270.840, 27.06793
1271.322, 26.85452
1271.804, 26.33419
1272.286, 26.21322
1272.768, 26.32806
1273.250, 26.46433
1273.733, 26.58879
1274.215, 26.69132
1274.697, 26.74049
1275.179, 26.61163
1275.661, 26.30332
1276.143, 26.16434
1276.625, 26.45619
1277.107, 26.68801
1277.589, 26.66710
1278.072, 26.59538
1278.554, 26.49393
1279.036, 26.44736
1279.518, 26.52788
1280.000, 26.69134
1280.482, 26.85249
1280.964, 27.02309
1281.446, 27.43790
1281.929, 28.20640
1282.411, 28.18027
1282.893, 27.26000
1283.375, 26.47455
1283.857, 26.08055
1284.339, 26.01899
1284.821, 26.26568
1285.303, 26.56213
1285.786, 26.66613
1286.268, 26.57211
##END=



