##NAMES=Zunyite
##RRUFFID=R050263
##IDEAL CHEMISTRY=Al_13_Si_5_O_20_(OH,F)_18_Cl
##LOCALITY=Ruby Mountain, Tintic District, Utah, USA
##OWNER=RRUFF
##SOURCE=Marcus Origlieri
##DESCRIPTION=Colorless tetrahedral crystals
##STATUS=The identification of this mineral has been confirmed by X-ray diffraction and chemical analysis
##URL=rruff.info/R050263
##MEASURED CHEMISTRY=Al_13.00_Si_5.00_O_20_((OH)_14.80_F_3.20_)_Σ=18_Cl_1.00_ ; gray phase. (Al_12.92_Fe^3+^_0.08_)_Σ=13_Si_5.00_O_20_((OH)_14.86_F_3.14_)_Σ=18_Cl_1.00_ rim, lighter phase
133.1706, 813.2698
133.6528, 811.7172
134.1349, 811.2205
134.6170, 812.3163
135.0991, 813.7070
135.5812, 815.1044
136.0633, 816.4061
136.5455, 817.1259
137.0276, 816.3639
137.5097, 814.6312
137.9918, 814.6106
138.4739, 817.5365
138.9560, 821.6915
139.4382, 825.5420
139.9203, 829.1228
140.4024, 831.9044
140.8845, 832.6569
141.3666, 832.3116
141.8487, 832.5998
142.3309, 835.0880
142.8130, 838.8860
143.2951, 841.0251
143.7772, 841.1118
144.2593, 839.7932
144.7414, 836.8503
145.2236, 832.8849
145.7057, 829.2661
146.1878, 827.0446
146.6699, 826.2795
147.1520, 825.9905
147.6341, 826.6846
148.1163, 827.4686
148.5984, 828.1088
149.0805, 828.5573
149.5626, 828.8231
150.0447, 828.8054
150.5268, 828.0797
151.0090, 828.4611
151.4911, 831.0264
151.9732, 833.6594
152.4553, 835.0701
152.9374, 835.0157
153.4195, 834.0748
153.9017, 832.9801
154.3838, 831.0565
154.8659, 830.5460
155.3480, 832.1905
155.8301, 834.9152
156.3122, 838.0975
156.7944, 841.6649
157.2765, 844.5916
157.7586, 844.3121
158.2407, 839.9740
158.7228, 836.5959
159.2049, 836.2899
159.6871, 837.9601
160.1692, 838.9763
160.6513, 838.0370
161.1334, 836.7512
161.6155, 837.6262
162.0976, 840.9709
162.5798, 844.5576
163.0619, 846.9479
163.5440, 848.2133
164.0261, 849.2925
164.5082, 850.1134
164.9903, 851.1327
165.4725, 852.9631
165.9546, 855.7743
166.4367, 858.5814
166.9188, 860.3270
167.4009, 860.9902
167.8830, 860.6445
168.3652, 858.9435
168.8473, 856.5007
169.3294, 853.5837
169.8115, 850.2704
170.2936, 846.6975
170.7757, 842.8990
171.2579, 837.7899
171.7400, 834.6531
172.2221, 834.8682
172.7042, 836.4263
173.1863, 837.5290
173.6684, 837.3784
174.1506, 836.3428
174.6327, 835.5336
175.1148, 833.9750
175.5969, 833.9006
176.0790, 836.6595
176.5611, 840.6865
177.0432, 843.9637
177.5254, 845.3945
178.0075, 845.3998
178.4896, 846.0180
178.9717, 847.4305
179.4538, 849.1573
179.9359, 851.1865
180.4181, 853.4551
180.9002, 855.8528
181.3823, 858.3194
181.8644, 860.8609
182.3465, 863.4392
182.8286, 866.1203
183.3108, 868.7679
183.7929, 871.4968
184.2750, 874.2176
184.7571, 876.4500
185.2392, 877.6998
185.7213, 878.2853
186.2035, 879.3035
186.6856, 881.0585
187.1677, 882.9673
187.6498, 884.1339
188.1319, 884.4807
188.6140, 885.8467
189.0962, 890.4915
189.5783, 896.4485
190.0604, 900.9828
190.5425, 902.9760
191.0246, 903.9048
191.5067, 905.6420
191.9889, 908.1683
192.4710, 911.6379
192.9531, 916.9740
193.4352, 922.9410
193.9173, 928.2792
194.3994, 932.4863
194.8816, 935.8116
195.3637, 938.7682
195.8458, 941.0050
196.3279, 943.5274
196.8100, 946.7451
197.2921, 950.3196
197.7743, 953.9145
198.2564, 957.4089
198.7385, 960.7083
199.2206, 963.4691
199.7027, 965.6901
200.1848, 967.2386
200.6670, 968.0306
201.1491, 968.1888
201.6312, 967.8546
202.1133, 967.1091
202.5954, 965.9474
203.0775, 964.3070
203.5597, 961.7322
204.0418, 959.1345
204.5239, 956.5756
205.0060, 954.0953
205.4881, 951.7585
205.9702, 949.5986
206.4524, 947.6165
206.9345, 945.9015
207.4166, 944.2884
207.8987, 943.0804
208.3808, 942.5421
208.8629, 942.4911
209.3451, 942.5447
209.8272, 942.4619
210.3093, 942.2836
210.7914, 942.3304
211.2735, 942.8840
211.7556, 943.3200
212.2378, 943.1205
212.7199, 942.5264
213.2020, 942.3570
213.6841, 943.2198
214.1662, 944.8663
214.6483, 946.0528
215.1305, 946.8987
215.6126, 947.2348
216.0947, 946.9587
216.5768, 946.0822
217.0589, 944.5552
217.5410, 941.7599
218.0232, 938.5848
218.5053, 937.2094
218.9874, 938.5386
219.4695, 940.5986
219.9516, 942.1025
220.4337, 943.0535
220.9159, 943.3404
221.3980, 942.2097
221.8801, 940.7109
222.3622, 940.5056
222.8443, 942.3804
223.3264, 944.5254
223.8086, 944.7537
224.2907, 942.8258
224.7728, 941.3123
225.2549, 941.7252
225.7370, 942.8688
226.2191, 943.7128
226.7013, 943.9792
227.1834, 944.0616
227.6655, 944.5303
228.1476, 945.5292
228.6297, 946.2772
229.1118, 946.1104
229.5940, 945.8245
230.0761, 946.0157
230.5582, 946.8571
231.0403, 948.0889
231.5224, 949.5774
232.0045, 951.8168
232.4867, 952.7776
232.9688, 950.9628
233.4509, 948.5381
233.9330, 947.0527
234.4151, 946.9395
234.8972, 947.5397
235.3794, 947.9060
235.8615, 948.2120
236.3436, 947.8242
236.8257, 945.9268
237.3078, 943.9255
237.7899, 942.9915
238.2720, 943.3557
238.7542, 944.1901
239.2363, 944.0401
239.7184, 941.9612
240.2005, 940.7868
240.6826, 941.0993
241.1647, 941.8293
241.6469, 942.3365
242.1290, 942.4247
242.6111, 942.1646
243.0932, 941.6522
243.5753, 940.8173
244.0574, 939.8245
244.5396, 938.3398
245.0217, 936.9424
245.5038, 936.0589
245.9859, 935.7587
246.4680, 935.8282
246.9501, 936.0014
247.4323, 936.3583
247.9144, 936.6042
248.3965, 936.9847
248.8786, 937.0977
249.3607, 936.4097
249.8428, 934.9384
250.3250, 933.4308
250.8071, 932.8157
251.2892, 933.4776
251.7713, 933.6840
252.2534, 932.8309
252.7355, 931.9589
253.2177, 932.2443
253.6998, 933.6566
254.1819, 934.6550
254.6640, 933.4799
255.1461, 929.6362
255.6283, 926.9338
256.1104, 925.9966
256.5925, 925.7415
257.0746, 925.4276
257.5567, 924.9944
258.0388, 924.7576
258.5210, 925.1252
259.0031, 926.0898
259.4852, 926.3972
259.9673, 925.3045
260.4494, 924.1146
260.9315, 923.9238
261.4137, 924.7125
261.8958, 925.5662
262.3779, 925.9053
262.8600, 925.7241
263.3421, 925.3533
263.8242, 924.6445
264.3064, 923.8585
264.7885, 923.0506
265.2706, 922.2490
265.7527, 921.7785
266.2348, 921.8979
266.7169, 922.5087
267.1990, 923.2248
267.6812, 924.2987
268.1633, 925.1545
268.6454, 925.0275
269.1275, 924.0562
269.6096, 923.7469
270.0917, 925.3852
270.5739, 927.7037
271.0560, 928.4863
271.5381, 927.4252
272.0202, 925.4444
272.5023, 922.5306
272.9844, 918.9156
273.4666, 916.5908
273.9487, 917.0532
274.4308, 918.4337
274.9129, 918.1185
275.3950, 915.8067
275.8771, 913.4727
276.3593, 912.6607
276.8414, 913.1136
277.3235, 913.1389
277.8056, 912.0894
278.2877, 910.7534
278.7698, 910.0057
279.2520, 909.8156
279.7341, 909.5349
280.2162, 908.6207
280.6983, 907.2146
281.1804, 906.0089
281.6625, 904.9830
282.1447, 904.3759
282.6268, 904.5903
283.1089, 905.4109
283.5910, 905.9325
284.0731, 905.3400
284.5552, 903.9858
285.0374, 903.2175
285.5195, 903.3562
286.0016, 903.6522
286.4837, 903.4629
286.9658, 903.0713
287.4479, 903.1204
287.9301, 904.3033
288.4122, 906.0652
288.8943, 906.7256
289.3764, 905.6747
289.8585, 904.8524
290.3406, 905.1609
290.8228, 906.2241
291.3049, 907.6215
291.7870, 909.2636
292.2691, 911.0316
292.7512, 912.9311
293.2333, 915.3422
293.7155, 916.7253
294.1976, 915.3972
294.6797, 913.3416
295.1618, 912.5238
295.6439, 913.7053
296.1260, 915.5782
296.6082, 915.9340
297.0903, 914.1338
297.5724, 913.5199
298.0545, 916.4313
298.5366, 919.9457
299.0187, 921.9418
299.5009, 922.0369
299.9830, 921.7172
300.4651, 922.8286
300.9472, 925.6494
301.4293, 927.7772
301.9114, 927.8737
302.3936, 927.9642
302.8757, 929.3566
303.3578, 931.9576
303.8399, 934.5638
304.3220, 935.9433
304.8041, 936.0641
305.2863, 936.7344
305.7684, 938.5869
306.2505, 940.4041
306.7326, 941.4481
307.2147, 941.9766
307.6968, 942.7245
308.1790, 944.3447
308.6611, 946.6466
309.1432, 948.4382
309.6253, 949.5789
310.1074, 950.3439
310.5895, 950.6038
311.0717, 950.6570
311.5538, 950.9586
312.0359, 951.7867
312.5180, 952.9415
313.0001, 953.9274
313.4822, 954.7784
313.9644, 955.3533
314.4465, 955.2892
314.9286, 955.1135
315.4107, 955.4360
315.8928, 956.4977
316.3749, 957.7957
316.8571, 958.5618
317.3392, 958.7537
317.8213, 958.5417
318.3034, 957.5620
318.7855, 956.4605
319.2676, 955.4979
319.7498, 954.7634
320.2319, 954.4978
320.7140, 955.4423
321.1961, 957.9359
321.6782, 958.8609
322.1603, 956.5203
322.6425, 953.6923
323.1246, 951.3445
323.6067, 949.6350
324.0888, 948.5868
324.5709, 948.3758
325.0530, 948.9516
325.5352, 949.5597
326.0173, 950.3032
326.4994, 950.9377
326.9815, 951.2095
327.4636, 951.3303
327.9457, 951.7468
328.4279, 952.9103
328.9100, 954.3824
329.3921, 954.7112
329.8742, 953.3313
330.3563, 951.9453
330.8384, 951.2631
331.3206, 950.8049
331.8027, 949.9208
332.2848, 948.2938
332.7669, 946.6583
333.2490, 946.2994
333.7311, 947.5585
334.2133, 948.7503
334.6954, 949.5745
335.1775, 950.1163
335.6596, 950.3011
336.1417, 950.1425
336.6238, 949.9467
337.1060, 949.9155
337.5881, 950.0389
338.0702, 950.6396
338.5523, 952.2218
339.0344, 953.8278
339.5165, 954.8677
339.9987, 955.4407
340.4808, 955.9680
340.9629, 956.7904
341.4450, 957.8256
341.9271, 958.5320
342.4092, 958.5012
342.8914, 958.8827
343.3735, 960.4553
343.8556, 962.7104
344.3377, 964.8632
344.8198, 966.5685
345.3019, 968.0236
345.7841, 969.5617
346.2662, 971.1892
346.7483, 972.8600
347.2304, 973.8468
347.7125, 975.2199
348.1946, 978.2576
348.6768, 983.4062
349.1589, 989.0595
349.6410, 993.8124
350.1231, 997.6512
350.6052, 1000.683
351.0873, 1002.024
351.5695, 1003.467
352.0516, 1006.546
352.5337, 1011.196
353.0158, 1016.292
353.4979, 1021.518
353.9800, 1026.669
354.4622, 1030.771
354.9443, 1033.094
355.4264, 1035.782
355.9085, 1040.912
356.3906, 1047.575
356.8727, 1053.825
357.3549, 1059.605
357.8370, 1064.245
358.3191, 1066.043
358.8012, 1064.591
359.2833, 1063.887
359.7654, 1067.109
360.2476, 1071.877
360.7297, 1074.435
361.2118, 1073.950
361.6939, 1072.161
362.1760, 1069.755
362.6581, 1066.947
363.1403, 1065.053
363.6224, 1064.831
364.1045, 1065.251
364.5866, 1064.724
365.0687, 1063.160
365.5508, 1062.257
366.0330, 1063.251
366.5151, 1065.219
366.9972, 1066.563
367.4793, 1067.003
367.9614, 1066.975
368.4435, 1066.415
368.9257, 1065.553
369.4078, 1065.859
369.8899, 1068.645
370.3720, 1071.864
370.8541, 1073.735
371.3362, 1074.342
371.8184, 1074.787
372.3005, 1075.741
372.7826, 1076.961
373.2647, 1077.598
373.7468, 1077.124
374.2289, 1076.957
374.7111, 1077.649
375.1932, 1079.040
375.6753, 1080.962
376.1574, 1083.426
376.6395, 1086.032
377.1216, 1088.196
377.6038, 1089.960
378.0859, 1091.082
378.5680, 1091.111
379.0501, 1090.740
379.5322, 1090.252
380.0143, 1089.812
380.4965, 1090.237
380.9786, 1092.600
381.4607, 1096.975
381.9428, 1098.891
382.4249, 1096.298
382.9070, 1093.740
383.3892, 1093.177
383.8713, 1094.079
384.3534, 1095.314
384.8355, 1096.361
385.3176, 1097.068
385.7997, 1096.966
386.2819, 1094.438
386.7640, 1093.158
387.2461, 1094.561
387.7282, 1096.545
388.2103, 1097.045
388.6924, 1095.651
389.1746, 1093.503
389.6567, 1092.056
390.1388, 1091.706
390.6209, 1090.406
391.1030, 1087.231
391.5851, 1084.143
392.0672, 1082.052
392.5493, 1080.770
393.0315, 1079.634
393.5136, 1078.195
393.9957, 1076.515
394.4778, 1075.027
394.9599, 1073.970
395.4420, 1072.756
395.9242, 1071.345
396.4063, 1069.726
396.8884, 1067.817
397.3705, 1065.609
397.8526, 1063.294
398.3347, 1061.196
398.8169, 1059.399
399.2990, 1057.513
399.7811, 1055.271
400.2632, 1053.141
400.7453, 1051.448
401.2274, 1050.115
401.7096, 1048.805
402.1917, 1047.328
402.6738, 1045.674
403.1559, 1043.576
403.6380, 1040.173
404.1201, 1037.920
404.6023, 1038.350
405.0844, 1040.094
405.5665, 1041.555
406.0486, 1042.206
406.5307, 1042.355
407.0128, 1042.309
407.4950, 1042.046
407.9771, 1041.821
408.4592, 1041.296
408.9413, 1041.246
409.4234, 1042.662
409.9055, 1045.458
410.3877, 1047.859
410.8698, 1048.600
411.3519, 1048.225
411.8340, 1048.062
412.3161, 1048.190
412.7982, 1048.601
413.2804, 1049.129
413.7625, 1049.958
414.2446, 1051.609
414.7267, 1054.668
415.2088, 1058.045
415.6909, 1060.802
416.1731, 1063.055
416.6552, 1065.460
417.1373, 1068.327
417.6194, 1071.397
418.1015, 1074.084
418.5836, 1076.206
419.0658, 1078.797
419.5479, 1082.341
420.0300, 1086.411
420.5121, 1090.440
420.9942, 1094.355
421.4763, 1098.481
421.9585, 1103.229
422.4406, 1108.585
422.9227, 1113.372
423.4048, 1117.435
423.8869, 1121.127
424.3690, 1124.308
424.8512, 1127.227
425.3333, 1130.367
425.8154, 1133.955
426.2975, 1137.846
426.7796, 1141.794
427.2617, 1146.337
427.7439, 1150.015
428.2260, 1151.699
428.7081, 1153.346
429.1902, 1156.402
429.6723, 1161.014
430.1544, 1166.627
430.6366, 1172.947
431.1187, 1180.001
431.6008, 1185.714
432.0829, 1188.728
432.5650, 1191.809
433.0471, 1195.744
433.5293, 1200.040
434.0114, 1203.966
434.4935, 1207.174
434.9756, 1210.077
435.4577, 1213.519
435.9398, 1217.789
436.4220, 1221.610
436.9041, 1224.472
437.3862, 1227.123
437.8683, 1229.954
438.3504, 1232.953
438.8326, 1235.885
439.3147, 1238.685
439.7968, 1241.279
440.2789, 1243.346
440.7610, 1244.772
441.2431, 1245.909
441.7253, 1246.514
442.2074, 1247.073
442.6895, 1248.367
443.1716, 1250.885
443.6537, 1253.286
444.1358, 1254.269
444.6180, 1253.991
445.1001, 1253.523
445.5822, 1253.234
446.0643, 1252.641
446.5464, 1251.083
447.0285, 1248.671
447.5107, 1246.066
447.9928, 1243.973
448.4749, 1241.449
448.9570, 1237.047
449.4391, 1230.883
449.9212, 1225.044
450.4034, 1220.994
450.8855, 1218.077
451.3676, 1213.792
451.8497, 1207.474
452.3318, 1201.074
452.8139, 1195.243
453.2961, 1189.520
453.7782, 1183.435
454.2603, 1176.843
454.7424, 1169.682
455.2245, 1161.643
455.7066, 1152.303
456.1888, 1144.660
456.6709, 1139.975
457.1530, 1135.359
457.6351, 1129.795
458.1172, 1123.395
458.5993, 1116.224
459.0815, 1108.240
459.5636, 1100.219
460.0457, 1094.389
460.5278, 1092.812
461.0099, 1089.191
461.4920, 1082.031
461.9742, 1073.766
462.4563, 1065.276
462.9384, 1057.032
463.4205, 1049.916
463.9026, 1045.425
464.3847, 1042.870
464.8669, 1037.384
465.3490, 1027.027
465.8311, 1017.438
466.3132, 1011.067
466.7953, 1006.506
467.2774, 1002.476
467.7596, 998.8358
468.2417, 994.7748
468.7238, 989.0148
469.2059, 981.8444
469.6880, 975.9473
470.1701, 972.3739
470.6523, 969.1718
471.1344, 964.2462
471.6165, 958.0184
472.0986, 952.2982
472.5807, 947.5251
473.0628, 943.4357
473.5450, 940.1708
474.0271, 937.5355
474.5092, 934.2679
474.9913, 929.5034
475.4734, 924.1898
475.9555, 920.7906
476.4377, 920.3226
476.9198, 918.9191
477.4019, 914.9716
477.8840, 910.4830
478.3661, 907.4139
478.8482, 905.8766
479.3304, 904.8212
479.8125, 903.3994
480.2946, 901.6340
480.7767, 899.8005
481.2588, 898.0535
481.7409, 896.0469
482.2231, 893.4720
482.7052, 890.7155
483.1873, 888.1219
483.6694, 885.8052
484.1515, 883.8229
484.6336, 882.3752
485.1158, 881.6124
485.5979, 880.4344
486.0800, 878.4142
486.5621, 876.4239
487.0442, 874.7832
487.5263, 873.4128
488.0085, 872.1714
488.4906, 871.0274
488.9727, 869.9269
489.4548, 868.7468
489.9369, 867.4800
490.4190, 866.4098
490.9012, 865.8793
491.3833, 865.2961
491.8654, 864.0082
492.3475, 862.0764
492.8296, 860.1721
493.3117, 858.6171
493.7939, 857.2325
494.2760, 855.5343
494.7581, 853.5515
495.2402, 852.4462
495.7223, 853.2159
496.2044, 855.0670
496.6866, 855.4905
497.1687, 853.6354
497.6508, 852.3248
498.1329, 852.8565
498.6150, 853.9022
499.0971, 854.0149
499.5793, 852.9882
500.0614, 851.3922
500.5435, 849.6566
501.0256, 847.7786
501.5077, 846.5228
501.9898, 846.2423
502.4720, 846.1699
502.9541, 845.9951
503.4362, 846.0333
503.9183, 846.9485
504.4004, 848.8369
504.8825, 850.6633
505.3647, 850.8864
505.8468, 849.2347
506.3289, 848.1158
506.8110, 848.0238
507.2931, 847.9059
507.7752, 847.1082
508.2574, 846.0204
508.7395, 845.3843
509.2216, 845.5969
509.7037, 846.0928
510.1858, 846.1509
510.6679, 845.7969
511.1501, 845.4354
511.6322, 845.0113
512.1143, 844.8464
512.5964, 845.4461
513.0785, 846.6952
513.5606, 847.8154
514.0427, 848.6402
514.5248, 849.2184
515.0070, 849.3701
515.4891, 849.2441
515.9712, 849.6238
516.4533, 851.0564
516.9354, 852.7221
517.4175, 852.7455
517.8997, 849.8908
518.3818, 847.8682
518.8639, 847.0711
519.3460, 846.8756
519.8281, 846.9482
520.3102, 847.2126
520.7924, 847.7188
521.2745, 848.5588
521.7566, 849.5417
522.2387, 849.7730
522.7208, 848.5985
523.2029, 847.8780
523.6851, 848.5095
524.1672, 849.1508
524.6493, 848.6020
525.1314, 846.9110
525.6135, 845.2528
526.0956, 844.4012
526.5778, 844.3168
527.0599, 844.9980
527.5420, 846.6826
528.0241, 848.3116
528.5062, 849.5480
528.9883, 850.3705
529.4705, 850.7164
529.9526, 850.5139
530.4347, 850.1440
530.9168, 849.8377
531.3989, 849.4833
531.8810, 848.6768
532.3632, 847.3722
532.8453, 846.5430
533.3274, 847.1211
533.8095, 848.8500
534.2916, 849.6781
534.7737, 849.0797
535.2559, 848.4091
535.7380, 847.5829
536.2201, 847.0330
536.7022, 847.4714
537.1843, 848.9035
537.6664, 850.4418
538.1486, 851.1027
538.6307, 850.8770
539.1128, 850.9534
539.5949, 851.5279
540.0770, 852.1735
540.5591, 852.9500
541.0413, 853.6630
541.5234, 853.9896
542.0055, 853.8616
542.4876, 853.7986
542.9697, 854.6663
543.4518, 856.2317
543.9340, 856.5226
544.4161, 854.7273
544.8982, 853.2800
545.3803, 854.1578
545.8624, 856.4396
546.3445, 858.4884
546.8267, 860.1402
547.3088, 861.4050
547.7909, 862.1251
548.2730, 862.4965
548.7551, 862.7719
549.2372, 863.0026
549.7194, 863.6221
550.2015, 865.1588
550.6836, 867.6411
551.1657, 869.7450
551.6478, 871.3710
552.1299, 872.7962
552.6121, 874.2015
553.0942, 875.4137
553.5763, 876.3707
554.0584, 876.9918
554.5405, 876.8618
555.0226, 874.9037
555.5048, 870.8123
555.9869, 869.9061
556.4690, 874.9241
556.9511, 879.3544
557.4332, 880.4189
557.9153, 879.8272
558.3975, 879.5447
558.8796, 880.0381
559.3617, 881.3940
559.8438, 884.4305
560.3259, 888.4957
560.8080, 890.9293
561.2902, 891.1129
561.7723, 890.8387
562.2544, 891.6592
562.7365, 893.1500
563.2186, 893.3472
563.7007, 890.4092
564.1829, 888.5182
564.6650, 889.9980
565.1471, 893.1732
565.6292, 895.9701
566.1113, 897.8763
566.5934, 899.1533
567.0756, 899.9745
567.5577, 900.3411
568.0398, 901.0162
568.5219, 901.8573
569.0040, 903.2197
569.4861, 905.4338
569.9683, 908.0403
570.4504, 910.6940
570.9325, 913.2889
571.4146, 915.6218
571.8967, 917.5501
572.3788, 919.0681
572.8610, 920.0053
573.3431, 919.9951
573.8252, 920.4865
574.3073, 922.7185
574.7894, 925.6586
575.2715, 927.7283
575.7537, 928.5383
576.2358, 929.6445
576.7179, 932.1417
577.2000, 935.2072
577.6821, 937.5229
578.1642, 939.0344
578.6464, 940.7979
579.1285, 943.5684
579.6106, 947.1375
580.0927, 950.5936
580.5748, 954.1513
581.0569, 957.2970
581.5391, 959.9261
582.0212, 962.2336
582.5033, 964.3495
582.9854, 966.2932
583.4675, 967.8749
583.9496, 968.7265
584.4318, 969.4383
584.9139, 972.2106
585.3960, 977.7501
585.8781, 982.9736
586.3602, 987.4274
586.8423, 990.9736
587.3245, 992.8524
587.8066, 993.3432
588.2887, 994.7274
588.7708, 999.1525
589.2529, 1004.211
589.7350, 1006.439
590.2172, 1006.408
590.6993, 1007.846
591.1814, 1012.517
591.6635, 1018.412
592.1456, 1022.159
592.6277, 1022.763
593.1099, 1024.451
593.5920, 1028.031
594.0741, 1031.866
594.5562, 1035.364
595.0383, 1038.466
595.5204, 1041.283
596.0026, 1043.853
596.4847, 1046.012
596.9668, 1047.087
597.4489, 1046.656
597.9310, 1048.269
598.4131, 1053.309
598.8953, 1058.768
599.3774, 1063.503
599.8595, 1067.547
600.3416, 1070.860
600.8237, 1073.200
601.3058, 1075.476
601.7880, 1078.730
602.2701, 1082.420
602.7522, 1085.118
603.2343, 1086.538
603.7164, 1087.655
604.1985, 1089.219
604.6807, 1091.159
605.1628, 1092.931
605.6449, 1095.190
606.1270, 1096.454
606.6091, 1095.774
607.0912, 1094.459
607.5734, 1093.660
608.0555, 1093.518
608.5376, 1093.611
609.0197, 1093.638
609.5018, 1093.603
609.9839, 1093.632
610.4661, 1094.064
610.9482, 1093.590
611.4303, 1091.469
611.9124, 1088.613
612.3945, 1085.475
612.8766, 1082.153
613.3588, 1079.065
613.8409, 1076.602
614.3230, 1074.305
614.8051, 1071.599
615.2872, 1068.582
615.7693, 1066.004
616.2515, 1064.315
616.7336, 1062.313
617.2157, 1058.138
617.6978, 1051.028
618.1799, 1045.094
618.6620, 1041.235
619.1442, 1037.428
619.6263, 1032.771
620.1084, 1027.743
620.5905, 1023.141
621.0726, 1019.184
621.5547, 1015.483
622.0369, 1011.601
622.5190, 1007.552
623.0011, 1003.454
623.4832, 999.2836
623.9653, 995.1473
624.4474, 991.1668
624.9296, 987.2499
625.4117, 983.3698
625.8938, 979.6404
626.3759, 975.3967
626.8580, 969.5098
627.3401, 963.4230
627.8223, 959.0994
628.3044, 956.4343
628.7865, 953.9899
629.2686, 950.9993
629.7507, 947.5242
630.2328, 943.7279
630.7150, 939.2869
631.1971, 935.1310
631.6792, 931.4426
632.1613, 927.8393
632.6434, 923.6957
633.1255, 919.5460
633.6077, 916.6494
634.0898, 915.7501
634.5719, 915.2382
635.0540, 912.7662
635.5361, 908.5829
636.0182, 905.0968
636.5004, 902.8284
636.9825, 900.6661
637.4646, 897.3649
637.9467, 893.5128
638.4288, 891.4783
638.9109, 892.8820
639.3931, 893.5754
639.8752, 891.7286
640.3573, 888.8420
640.8394, 886.4507
641.3215, 884.7076
641.8036, 883.0785
642.2858, 881.1850
642.7679, 879.0938
643.2500, 877.0768
643.7321, 875.2543
644.2142, 873.1946
644.6964, 869.8041
645.1785, 867.0950
645.6606, 866.9447
646.1427, 868.4830
646.6248, 868.9579
647.1069, 866.9362
647.5891, 864.0090
648.0712, 860.9801
648.5533, 858.2693
649.0354, 857.6111
649.5175, 859.5224
649.9996, 861.7095
650.4818, 862.0507
650.9639, 860.6541
651.4460, 859.4627
651.9281, 858.4510
652.4102, 857.6672
652.8923, 857.6292
653.3745, 857.4659
653.8566, 856.1329
654.3387, 853.8024
654.8208, 851.6766
655.3029, 850.5792
655.7850, 850.2938
656.2672, 850.4808
656.7493, 851.2051
657.2314, 851.6342
657.7135, 851.5243
658.1956, 851.1080
658.6777, 850.5417
659.1599, 849.8505
659.6420, 849.1328
660.1241, 847.6342
660.6062, 846.9637
661.0883, 848.7578
661.5704, 851.5408
662.0526, 853.1822
662.5347, 853.2297
663.0168, 852.3779
663.4989, 851.1740
663.9810, 849.6771
664.4631, 848.3486
664.9453, 846.9928
665.4274, 846.2166
665.9095, 846.4421
666.3916, 847.0704
666.8737, 847.6840
667.3558, 848.3125
667.8380, 849.2769
668.3201, 851.4050
668.8022, 853.3019
669.2843, 853.3060
669.7664, 851.9055
670.2485, 850.4821
670.7307, 849.4090
671.2128, 848.7103
671.6949, 848.4645
672.1770, 848.6736
672.6591, 848.7791
673.1412, 848.7520
673.6234, 848.6564
674.1055, 848.2734
674.5876, 847.9843
675.0697, 848.4533
675.5518, 849.4646
676.0339, 849.7396
676.5161, 847.7772
676.9982, 845.2437
677.4803, 845.6373
677.9624, 848.7781
678.4445, 851.2089
678.9266, 852.0294
679.4088, 851.7810
679.8909, 850.6371
680.3730, 848.6278
680.8551, 847.8245
681.3372, 849.4160
681.8193, 850.7020
682.3015, 850.4534
682.7836, 849.7533
683.2657, 849.9039
683.7478, 850.9461
684.2299, 851.9668
684.7120, 852.3741
685.1942, 852.0940
685.6763, 850.5823
686.1584, 847.5279
686.6405, 845.4294
687.1226, 845.3145
687.6047, 845.7256
688.0869, 845.0784
688.5690, 843.7462
689.0511, 843.3342
689.5332, 845.3616
690.0153, 846.8958
690.4974, 845.9386
690.9796, 844.0399
691.4617, 843.4393
691.9438, 844.3001
692.4259, 844.9810
692.9080, 844.1394
693.3901, 842.2296
693.8723, 841.0131
694.3544, 840.7394
694.8365, 840.3529
695.3186, 839.9510
695.8007, 839.0979
696.2828, 837.0095
696.7650, 834.2540
697.2471, 832.4987
697.7292, 832.5545
698.2113, 833.0363
698.6934, 833.5060
699.1755, 833.6249
699.6576, 832.4003
700.1397, 829.9335
700.6218, 828.0522
701.1039, 828.1923
701.5861, 829.5839
702.0682, 829.5851
702.5503, 827.6540
703.0324, 825.5563
703.5145, 822.6473
703.9966, 820.3328
704.4788, 819.7271
704.9609, 820.1219
705.4430, 819.9318
705.9251, 818.3925
706.4072, 817.2050
706.8893, 818.4313
707.3715, 820.6589
707.8536, 821.0569
708.3357, 819.4320
708.8178, 817.3563
709.2999, 815.6772
709.7820, 814.4013
710.2642, 813.5856
710.7463, 813.4589
711.2284, 813.2762
711.7105, 813.3157
712.1926, 813.0050
712.6747, 812.0579
713.1569, 810.6316
713.6390, 808.8153
714.1211, 806.6031
714.6032, 804.6818
715.0853, 804.0469
715.5674, 803.9319
716.0496, 802.4545
716.5317, 799.6859
717.0138, 797.7702
717.4959, 797.8373
717.9780, 798.8414
718.4601, 799.0031
718.9423, 798.0400
719.4244, 797.3743
719.9065, 797.7626
720.3886, 797.5361
720.8707, 795.3287
721.3528, 792.7018
721.8350, 791.6937
722.3171, 792.5608
722.7992, 793.4651
723.2813, 792.8434
723.7634, 791.4569
724.2455, 790.7383
724.7277, 790.5991
725.2098, 790.3137
725.6919, 789.6471
726.1740, 788.7437
726.6561, 787.7830
727.1382, 786.7770
727.6204, 785.4482
728.1025, 783.3918
728.5846, 781.5611
729.0667, 779.7130
729.5488, 778.4550
730.0309, 778.6385
730.5131, 780.0251
730.9952, 781.4357
731.4773, 782.3583
731.9594, 782.7219
732.4415, 782.1906
732.9236, 780.9519
733.4058, 779.7820
733.8879, 778.7946
734.3700, 778.3769
734.8521, 779.0761
735.3342, 780.5312
735.8163, 780.8589
736.2985, 778.8405
736.7806, 777.4263
737.2627, 777.3566
737.7448, 777.2401
738.2269, 775.8115
738.7090, 773.7347
739.1912, 772.5886
739.6733, 773.0501
740.1554, 774.0818
740.6375, 774.9044
741.1196, 775.4435
741.6017, 775.4021
742.0839, 774.7686
742.5660, 773.9743
743.0481, 773.2043
743.5302, 772.5068
744.0123, 771.9586
744.4944, 771.4783
744.9766, 771.4130
745.4587, 772.1417
745.9408, 772.8109
746.4229, 773.7210
746.9050, 774.1059
747.3871, 772.5277
747.8693, 768.9162
748.3514, 765.9371
748.8335, 765.7514
749.3156, 767.1049
749.7977, 768.5184
750.2798, 769.8439
750.7620, 770.4046
751.2441, 769.9683
751.7262, 768.9184
752.2083, 767.5301
752.6904, 765.8348
753.1725, 764.9457
753.6547, 765.5635
754.1368, 765.9359
754.6189, 765.6233
755.1010, 765.1864
755.5831, 765.0953
756.0652, 765.2375
756.5474, 765.1183
757.0295, 764.3734
757.5116, 763.6352
757.9937, 763.5558
758.4758, 763.8427
758.9579, 763.9579
759.4401, 763.8270
759.9222, 763.5989
760.4043, 763.3949
760.8864, 763.0664
761.3685, 762.0510
761.8506, 759.6013
762.3328, 758.8287
762.8149, 761.8616
763.2970, 763.9438
763.7791, 761.9720
764.2612, 758.5637
764.7433, 757.5643
765.2255, 759.7588
765.7076, 761.4825
766.1897, 760.1644
766.6718, 758.3141
767.1539, 758.4655
767.6360, 760.0703
768.1182, 761.6270
768.6003, 762.6201
769.0824, 763.0688
769.5645, 762.9390
770.0466, 762.2791
770.5287, 761.4243
771.0109, 760.0856
771.4930, 759.4928
771.9751, 760.4326
772.4572, 761.6875
772.9393, 762.2089
773.4214, 762.1447
773.9036, 762.1082
774.3857, 762.2800
774.8678, 762.3745
775.3499, 762.4244
775.8320, 762.2471
776.3141, 761.2047
776.7963, 759.7166
777.2784, 759.2885
777.7605, 760.8112
778.2426, 762.9757
778.7247, 763.5951
779.2068, 762.7709
779.6890, 762.1024
780.1711, 761.7258
780.6532, 761.2831
781.1353, 760.5271
781.6174, 759.6621
782.0995, 759.0293
782.5817, 758.6339
783.0638, 758.4377
783.5459, 758.5577
784.0280, 758.7423
784.5101, 758.7871
784.9922, 758.9020
785.4744, 759.6276
785.9565, 760.8420
786.4386, 761.4336
786.9207, 760.3568
787.4028, 758.5425
787.8849, 757.1537
788.3671, 756.2873
788.8492, 756.7164
789.3313, 758.6960
789.8134, 760.5377
790.2955, 760.7679
790.7776, 759.9108
791.2598, 760.2205
791.7419, 763.1523
792.2240, 764.4838
792.7061, 763.0442
793.1882, 761.2047
793.6703, 759.7151
794.1525, 758.6349
794.6346, 758.0411
795.1167, 757.9741
795.5988, 758.0382
796.0809, 757.8729
796.5630, 757.8094
797.0452, 758.4402
797.5273, 759.4909
798.0094, 760.0968
798.4915, 759.9898
798.9736, 759.6662
799.4557, 759.6511
799.9379, 759.9066
800.4200, 760.1635
800.9021, 760.3909
801.3842, 760.7694
801.8663, 761.7946
802.3484, 762.4125
802.8306, 761.3095
803.3127, 759.0612
803.7948, 757.4234
804.2769, 756.4996
804.7590, 756.3016
805.2411, 757.3284
805.7233, 758.6840
806.2054, 759.7834
806.6875, 760.5831
807.1696, 761.0629
807.6517, 761.2231
808.1339, 761.5522
808.6160, 762.6622
809.0981, 764.3871
809.5802, 766.6868
810.0623, 769.5515
810.5444, 770.1238
811.0266, 766.8007
811.5087, 762.8073
811.9908, 762.1655
812.4729, 764.9121
812.9550, 766.3521
813.4371, 765.5239
813.9193, 764.7055
814.4014, 763.6779
814.8835, 763.1459
815.3656, 763.9736
815.8477, 765.6899
816.3298, 767.0359
816.8120, 767.7044
817.2941, 767.6453
817.7762, 766.4047
818.2583, 764.6674
818.7404, 762.9819
819.2225, 761.6467
819.7047, 761.6837
820.1868, 763.5275
820.6689, 765.5439
821.1510, 765.1340
821.6331, 762.5068
822.1152, 762.0344
822.5974, 764.4346
823.0795, 766.2681
823.5616, 766.3246
824.0437, 765.6513
824.5258, 765.2763
825.0079, 765.1503
825.4901, 764.7806
825.9722, 763.5165
826.4543, 762.8746
826.9364, 763.7003
827.4185, 764.8154
827.9006, 765.3447
828.3828, 765.3729
828.8649, 765.4160
829.3470, 765.7087
829.8291, 765.6571
830.3112, 763.9048
830.7933, 761.6736
831.2755, 762.0685
831.7576, 764.7588
832.2397, 766.7200
832.7218, 766.8238
833.2039, 765.8792
833.6860, 764.7715
834.1682, 763.5154
834.6503, 762.4142
835.1324, 761.2206
835.6145, 760.7654
836.0966, 761.8084
836.5787, 763.0123
837.0609, 763.8144
837.5430, 764.0394
838.0251, 763.0374
838.5072, 759.8073
838.9893, 757.5153
839.4714, 757.6451
839.9536, 758.7334
840.4357, 760.0604
840.9178, 761.3034
841.3999, 762.0147
841.8820, 762.0853
842.3641, 761.9542
842.8463, 761.9307
843.3284, 762.0699
843.8105, 762.9003
844.2926, 764.2374
844.7747, 764.0081
845.2568, 761.4953
845.7390, 759.0463
846.2211, 758.8283
846.7032, 760.2501
847.1853, 760.4918
847.6674, 758.5975
848.1495, 757.6164
848.6317, 758.5286
849.1138, 759.4209
849.5959, 759.1926
850.0780, 758.5541
850.5601, 758.6641
851.0422, 759.7394
851.5244, 760.6029
852.0065, 760.6482
852.4886, 760.5616
852.9707, 761.1686
853.4528, 761.7794
853.9349, 760.9665
854.4171, 758.8273
854.8992, 757.1566
855.3813, 757.2731
855.8634, 758.4013
856.3455, 759.4750
856.8276, 760.4078
857.3098, 760.5379
857.7919, 759.7404
858.2740, 759.2313
858.7561, 759.8129
859.2382, 760.7346
859.7203, 760.5859
860.2025, 759.1765
860.6846, 757.7471
861.1667, 756.0573
861.6488, 754.7177
862.1309, 753.8527
862.6130, 753.4010
863.0952, 753.4122
863.5773, 753.8182
864.0594, 754.3102
864.5415, 754.8775
865.0236, 755.4210
865.5057, 756.0032
865.9879, 756.4510
866.4700, 756.6927
866.9521, 756.6373
867.4342, 756.0058
867.9163, 754.7069
868.3984, 753.3347
868.8806, 752.4932
869.3627, 752.0741
869.8448, 751.9047
870.3269, 751.9427
870.8090, 751.8446
871.2911, 751.5138
871.7733, 751.0107
872.2554, 750.3274
872.7375, 749.5715
873.2196, 749.2984
873.7017, 749.7374
874.1838, 750.0293
874.6660, 750.2675
875.1481, 750.1442
875.6302, 749.4263
876.1123, 748.2773
876.5944, 746.7767
877.0765, 744.8303
877.5587, 743.3075
878.0408, 742.0027
878.5229, 741.5872
879.0050, 743.3064
879.4871, 745.4734
879.9692, 746.1462
880.4514, 745.3061
880.9335, 744.0379
881.4156, 742.7264
881.8977, 741.7717
882.3798, 742.0508
882.8619, 742.8450
883.3441, 742.4210
883.8262, 740.9011
884.3083, 739.8580
884.7904, 739.9863
885.2725, 740.3779
885.7546, 739.7567
886.2368, 738.2841
886.7189, 737.6635
887.2010, 738.1702
887.6831, 738.1609
888.1652, 737.0020
888.6473, 735.8005
889.1295, 735.5335
889.6116, 735.9177
890.0937, 735.8777
890.5758, 735.4169
891.0579, 734.5342
891.5400, 732.4002
892.0222, 730.7852
892.5043, 730.6902
892.9864, 731.4064
893.4685, 732.2255
893.9506, 732.9843
894.4327, 733.4130
894.9149, 733.4728
895.3970, 733.0627
895.8791, 731.4600
896.3612, 729.7149
896.8433, 729.5792
897.3254, 730.7922
897.8076, 731.6085
898.2897, 731.1595
898.7718, 730.4660
899.2539, 731.0745
899.7360, 732.5390
900.2181, 733.1766
900.7003, 732.9778
901.1824, 732.1317
901.6645, 730.5677
902.1466, 729.3914
902.6287, 729.7480
903.1108, 731.3563
903.5930, 732.8484
904.0751, 734.4288
904.5572, 735.3484
905.0393, 735.7969
905.5214, 735.1920
906.0035, 732.0642
906.4857, 728.3214
906.9678, 727.0342
907.4499, 728.4768
907.9320, 729.9117
908.4141, 731.6714
908.8962, 732.5363
909.3784, 731.1984
909.8605, 729.4724
910.3426, 729.0693
910.8247, 729.7913
911.3068, 730.4959
911.7889, 730.7424
912.2711, 730.9274
912.7532, 731.5176
913.2353, 732.0850
913.7174, 731.8381
914.1995, 731.1425
914.6816, 731.0397
915.1638, 731.7897
915.6459, 732.8152
916.1280, 733.6188
916.6101, 734.3536
917.0922, 735.5639
917.5743, 737.1516
918.0565, 737.9011
918.5386, 737.5888
919.0207, 737.6710
919.5028, 739.0776
919.9849, 740.8953
920.4670, 741.5181
920.9492, 740.8463
921.4313, 740.2626
921.9134, 739.5560
922.3955, 739.4266
922.8776, 740.4778
923.3597, 741.6631
923.8419, 742.0043
924.3240, 741.7963
924.8061, 741.9547
925.2882, 742.6681
925.7703, 743.3588
926.2524, 743.8787
926.7346, 744.4181
927.2167, 744.9467
927.6988, 745.6136
928.1809, 746.9221
928.6630, 748.7014
929.1451, 749.6050
929.6273, 748.4753
930.1094, 747.1177
930.5915, 746.7738
931.0736, 747.0197
931.5557, 747.4197
932.0378, 747.8887
932.5200, 748.5422
933.0021, 749.3932
933.4842, 749.7734
933.9663, 748.5246
934.4484, 746.5425
934.9305, 746.1371
935.4127, 747.0314
935.8948, 747.5994
936.3769, 747.5303
936.8590, 748.0258
937.3411, 750.0557
937.8232, 752.5769
938.3054, 753.0608
938.7875, 751.1923
939.2696, 750.5858
939.7517, 751.6783
940.2338, 752.4063
940.7159, 751.9397
941.1981, 751.1155
941.6802, 750.8071
942.1623, 750.9175
942.6444, 750.7005
943.1265, 749.5560
943.6086, 749.0771
944.0908, 750.0546
944.5729, 750.8096
945.0550, 750.5229
945.5371, 749.6818
946.0192, 749.0231
946.5013, 748.5928
946.9834, 747.6000
947.4655, 744.9571
947.9476, 742.8646
948.4297, 742.9532
948.9119, 743.3714
949.3940, 742.4249
949.8761, 740.3970
950.3582, 738.1030
950.8403, 735.7856
951.3224, 734.1977
951.8046, 734.9006
952.2867, 735.7291
952.7688, 733.7599
953.2509, 730.2939
953.7330, 727.9840
954.2151, 727.1257
954.6973, 726.3246
955.1794, 724.7234
955.6615, 722.9189
956.1436, 721.9338
956.6257, 721.4587
957.1078, 720.2104
957.5900, 718.2595
958.0721, 716.9746
958.5542, 716.7918
959.0363, 716.7878
959.5184, 716.1183
960.0005, 714.9522
960.4827, 713.8873
960.9648, 712.9678
961.4469, 711.6795
961.9290, 709.7685
962.4111, 708.3613
962.8932, 708.1423
963.3754, 708.3820
963.8575, 708.2015
964.3396, 707.6027
964.8217, 706.5833
965.3038, 704.4344
965.7859, 703.1780
966.2681, 703.3584
966.7502, 704.0947
967.2323, 705.5043
967.7144, 706.9207
968.1965, 706.9807
968.6786, 705.3890
969.1608, 704.8334
969.6429, 706.7247
970.1250, 708.3272
970.6071, 708.7783
971.0892, 708.6031
971.5714, 708.0792
972.0535, 707.3383
972.5356, 706.3782
973.0177, 705.0644
973.4998, 704.6109
973.9819, 706.2480
974.4641, 708.3066
974.9462, 709.9889
975.4283, 711.0211
975.9104, 710.5976
976.3925, 709.1544
976.8746, 708.4268
977.3568, 709.2911
977.8389, 711.0528
978.3210, 713.6348
978.8031, 716.3022
979.2852, 718.0253
979.7673, 718.8660
980.2495, 718.7742
980.7316, 717.9774
981.2137, 717.9505
981.6958, 719.9550
982.1779, 722.7487
982.6600, 723.8806
983.1422, 723.8274
983.6243, 724.8019
984.1064, 726.8202
984.5885, 728.3096
985.0706, 728.6842
985.5527, 728.6156
986.0349, 728.7575
986.5170, 729.0529
986.9991, 729.2325
987.4812, 729.2645
987.9633, 729.6655
988.4454, 730.4991
988.9276, 731.7228
989.4097, 733.5803
989.8918, 735.1639
990.3739, 735.1285
990.8560, 733.5870
991.3381, 732.8177
991.8203, 733.1072
992.3024, 733.4473
992.7845, 734.0885
993.2666, 734.1161
993.7487, 732.5756
994.2308, 730.4516
994.7130, 729.4912
995.1951, 729.8840
995.6772, 729.6781
996.1593, 728.3523
996.6414, 727.1656
997.1235, 726.4907
997.6057, 725.7756
998.0878, 724.6121
998.5699, 723.2006
999.0520, 721.9500
999.5341, 720.9349
1000.016, 719.8044
1000.498, 718.2818
1000.980, 716.9114
1001.463, 716.0353
1001.945, 715.2704
1002.427, 713.8892
1002.909, 712.4393
1003.391, 712.4130
1003.873, 714.3793
1004.355, 715.9146
1004.837, 715.9415
1005.320, 715.2039
1005.802, 713.3477
1006.284, 711.5725
1006.766, 711.6093
1007.248, 713.0375
1007.730, 714.0889
1008.212, 714.0873
1008.694, 713.6086
1009.176, 712.5275
1009.659, 711.6757
1010.141, 712.3533
1010.623, 713.6930
1011.105, 713.9689
1011.587, 713.2001
1012.069, 712.8692
1012.551, 713.8162
1013.033, 714.7474
1013.516, 713.5715
1013.998, 711.8595
1014.480, 712.7001
1014.962, 715.2850
1015.444, 717.4079
1015.926, 718.4845
1016.408, 718.3193
1016.890, 716.6904
1017.372, 714.5221
1017.855, 713.0840
1018.337, 712.2466
1018.819, 711.6952
1019.301, 711.3900
1019.783, 711.1110
1020.265, 710.8219
1020.747, 710.9212
1021.229, 711.7766
1021.711, 712.8773
1022.194, 713.0676
1022.676, 712.4925
1023.158, 712.5162
1023.640, 713.1640
1024.122, 713.2027
1024.604, 712.2274
1025.086, 711.2356
1025.568, 711.0342
1026.051, 711.4681
1026.533, 712.4662
1027.015, 714.1300
1027.497, 713.7623
1027.979, 710.9022
1028.461, 708.7926
1028.943, 708.5201
1029.425, 708.9874
1029.907, 709.3007
1030.390, 709.4867
1030.872, 709.6457
1031.354, 709.8193
1031.836, 709.7580
1032.318, 709.4371
1032.800, 708.9063
1033.282, 707.9922
1033.764, 707.3019
1034.247, 707.5655
1034.729, 708.4337
1035.211, 708.4471
1035.693, 706.9986
1036.175, 706.5574
1036.657, 707.5431
1037.139, 708.7449
1037.621, 710.3565
1038.104, 711.2571
1038.586, 709.8990
1039.068, 706.9926
1039.550, 705.6194
1040.032, 706.4474
1040.514, 707.2380
1040.996, 708.5416
1041.478, 708.9832
1041.960, 707.2242
1042.443, 705.2789
1042.925, 705.1305
1043.407, 706.3656
1043.889, 707.3030
1044.371, 708.4252
1044.853, 708.1639
1045.335, 704.6741
1045.817, 702.1385
1046.299, 702.6868
1046.782, 703.9735
1047.264, 703.6346
1047.746, 702.2680
1048.228, 702.4189
1048.710, 705.5205
1049.192, 706.7584
1049.674, 703.8727
1050.156, 701.2292
1050.639, 700.2427
1051.121, 700.2283
1051.603, 701.1430
1052.085, 702.4472
1052.567, 702.4456
1053.049, 700.2654
1053.531, 699.0204
1054.013, 699.8954
1054.495, 701.0557
1054.978, 702.4708
1055.460, 703.2648
1055.942, 701.9609
1056.424, 699.4702
1056.906, 698.6468
1057.388, 700.5828
1057.870, 701.4476
1058.352, 698.8870
1058.834, 696.7097
1059.317, 696.9626
1059.799, 698.0164
1060.281, 698.5739
1060.763, 698.5936
1061.245, 698.3990
1061.727, 698.1053
1062.209, 697.2324
1062.691, 694.9636
1063.174, 692.9089
1063.656, 691.6204
1064.138, 691.0428
1064.620, 691.6524
1065.102, 692.7747
1065.584, 692.9786
1066.066, 691.9265
1066.548, 690.5306
1067.031, 688.8328
1067.513, 687.2658
1067.995, 685.6292
1068.477, 684.5744
1068.959, 685.3071
1069.441, 686.8764
1069.923, 687.2291
1070.405, 685.9528
1070.887, 684.7822
1071.370, 684.1108
1071.852, 684.1454
1072.334, 685.8749
1072.816, 687.5449
1073.298, 687.3337
1073.780, 686.0429
1074.262, 685.3441
1074.744, 685.5095
1075.226, 685.4853
1075.708, 684.6298
1076.191, 683.7578
1076.673, 683.2533
1077.155, 682.8881
1077.637, 682.9576
1078.119, 682.7932
1078.601, 680.7494
1079.083, 677.0248
1079.565, 674.8771
1080.048, 675.9893
1080.530, 678.1397
1081.012, 681.8252
1081.494, 684.5636
1081.976, 683.4081
1082.458, 680.6909
1082.940, 680.0396
1083.422, 681.4643
1083.905, 682.0113
1084.387, 680.0594
1084.869, 678.6426
1085.351, 679.9642
1085.833, 681.4467
1086.315, 681.3214
1086.797, 680.3362
1087.279, 679.2095
1087.761, 678.2109
1088.244, 677.7203
1088.726, 677.8689
1089.208, 678.4736
1089.690, 680.2303
1090.172, 681.5226
1090.654, 681.2322
1091.136, 680.1086
1091.618, 678.6581
1092.100, 677.1556
1092.583, 675.9681
1093.065, 675.1586
1093.547, 674.9333
1094.029, 675.7294
1094.511, 676.6754
1094.993, 678.0455
1095.475, 678.7507
1095.957, 677.3101
1096.440, 674.6343
1096.922, 672.5341
1097.404, 671.3637
1097.886, 670.6854
1098.368, 670.8676
1098.850, 670.8243
1099.332, 669.6612
1099.814, 668.6321
1100.297, 668.9999
1100.779, 669.9512
1101.261, 670.0636
1101.743, 669.2387
1102.225, 668.6511
1102.707, 669.3798
1103.189, 669.1708
1103.671, 666.1222
1104.153, 663.4886
1104.635, 663.4238
1105.118, 664.6084
1105.600, 665.7119
1106.082, 666.5092
1106.564, 666.5783
1107.046, 665.2300
1107.528, 664.5299
1108.010, 665.2256
1108.492, 666.1350
1108.975, 666.9471
1109.457, 667.6197
1109.939, 668.3558
1110.421, 668.9183
1110.903, 668.4647
1111.385, 666.4509
1111.867, 665.1173
1112.349, 665.3460
1112.832, 665.3315
1113.314, 664.4359
1113.796, 663.3532
1114.278, 662.4979
1114.760, 661.8217
1115.242, 661.0640
1115.724, 660.0697
1116.206, 660.2206
1116.688, 663.0197
1117.171, 664.5053
1117.653, 663.0949
1118.135, 661.8294
1118.617, 662.1221
1119.099, 663.4553
1119.581, 665.5637
1120.063, 668.3035
1120.545, 669.3835
1121.027, 667.9975
1121.510, 666.7424
1121.992, 665.4899
1122.474, 664.8360
1122.956, 665.0671
1123.438, 665.9346
1123.920, 667.5763
1124.402, 669.4698
1124.884, 669.3938
1125.367, 666.3192
1125.849, 666.1428
1126.331, 670.1406
1126.813, 672.7670
1127.295, 672.4495
1127.777, 670.9682
1128.259, 669.2978
1128.741, 667.8033
1129.224, 667.2667
1129.706, 667.6725
1130.188, 667.8761
1130.670, 667.7928
1131.152, 668.3831
1131.634, 669.9655
1132.116, 670.8082
1132.598, 669.9049
1133.080, 668.6268
1133.563, 668.6819
1134.045, 669.7776
1134.527, 671.0187
1135.009, 672.3513
1135.491, 672.3475
1135.973, 670.9343
1136.455, 669.4490
1136.937, 668.3377
1137.419, 667.0607
1137.902, 664.9993
1138.384, 663.2384
1138.866, 664.6080
1139.348, 668.0352
1139.830, 669.0067
1140.312, 667.9297
1140.794, 667.5394
1141.276, 668.2525
1141.759, 668.4754
1142.241, 667.3252
1142.723, 665.8134
1143.205, 664.8987
1143.687, 664.6403
1144.169, 665.8339
1144.651, 667.5256
1145.133, 666.9561
1145.615, 664.7280
1146.098, 664.1638
1146.580, 666.1841
1147.062, 668.1666
1147.544, 668.2529
1148.026, 667.2657
1148.508, 665.4707
1148.990, 663.5819
1149.472, 662.1165
1149.954, 661.4337
1150.437, 662.3919
1150.919, 664.7584
1151.401, 667.2753
1151.883, 669.6860
1152.365, 670.5262
1152.847, 667.7303
1153.329, 664.2928
1153.811, 661.8054
1154.294, 660.3743
1154.776, 660.4778
1155.258, 661.5240
1155.740, 662.2144
1156.222, 662.2609
1156.704, 662.4633
1157.186, 664.0040
1157.668, 664.4626
1158.151, 661.6836
1158.633, 659.0317
1159.115, 658.8105
1159.597, 659.8841
1160.079, 660.8688
1160.561, 661.6353
1161.043, 662.1180
1161.525, 662.1284
1162.007, 662.2286
1162.490, 662.7903
1162.972, 662.9756
1163.454, 662.3793
1163.936, 661.5297
1164.418, 660.6886
1164.900, 659.9365
1165.382, 659.4033
1165.864, 659.0618
1166.346, 659.2367
1166.829, 659.8080
1167.311, 661.5629
1167.793, 665.6321
1168.275, 667.6866
1168.757, 664.9687
1169.239, 661.2734
1169.721, 661.1014
1170.203, 663.5182
1170.686, 664.5905
1171.168, 664.2606
1171.650, 664.6177
1172.132, 665.7646
1172.614, 666.6932
1173.096, 667.1368
1173.578, 667.1483
1174.060, 666.7379
1174.542, 666.1161
1175.025, 665.6530
1175.507, 665.2227
1175.989, 663.8092
1176.471, 662.0801
1176.953, 663.2347
1177.435, 666.9047
1177.917, 669.1357
1178.399, 668.5939
1178.881, 667.6638
1179.364, 668.4948
1179.846, 669.2809
1180.328, 667.1193
1180.810, 664.0204
1181.292, 662.6768
1181.774, 662.7633
1182.256, 664.1284
1182.738, 665.9642
1183.221, 665.5410
1183.703, 661.4480
1184.185, 658.2504
1184.667, 659.8090
1185.149, 661.8127
1185.631, 661.5159
1186.113, 660.4061
1186.595, 659.4553
1187.078, 658.9680
1187.560, 659.5212
1188.042, 661.0409
1188.524, 661.8674
1189.006, 661.3072
1189.488, 660.6000
1189.970, 659.5550
1190.452, 658.9061
1190.934, 659.1607
1191.417, 659.7297
1191.899, 660.1700
1192.381, 660.5103
1192.863, 660.9396
1193.345, 661.6240
1193.827, 660.9944
1194.309, 658.0897
1194.791, 656.8730
1195.273, 658.6855
1195.756, 659.6065
1196.238, 657.4453
1196.720, 654.7266
1197.202, 654.3654
1197.684, 655.5989
1198.166, 655.8625
1198.648, 655.1906
1199.130, 654.4886
1199.613, 653.8167
1200.095, 653.9627
1200.577, 655.0331
1201.059, 655.6391
1201.541, 654.9634
1202.023, 654.1293
1202.505, 654.9335
1202.987, 656.0723
1203.469, 653.9861
1203.952, 650.7725
1204.434, 651.6317
1204.916, 655.3251
1205.398, 657.2999
1205.880, 656.4763
1206.362, 654.2770
1206.844, 650.9248
1207.326, 648.6479
1207.808, 650.0240
1208.291, 652.1192
1208.773, 652.6731
1209.255, 652.5773
1209.737, 652.9886
1210.219, 653.6430
1210.701, 653.6036
1211.183, 652.7093
1211.665, 651.9915
1212.148, 651.6066
1212.630, 651.5381
1213.112, 651.4838
1213.594, 652.1185
1214.076, 655.0543
1214.558, 657.5780
1215.040, 656.9678
1215.522, 654.1424
1216.005, 651.6542
1216.487, 649.4963
1216.969, 647.7598
1217.451, 646.3613
1217.933, 645.9032
1218.415, 646.7321
1218.897, 647.1342
1219.379, 646.2274
1219.861, 645.1086
1220.344, 644.9764
1220.826, 645.4495
1221.308, 645.6859
1221.790, 645.6450
1222.272, 645.0987
1222.754, 644.0770
1223.236, 642.3517
1223.718, 640.1749
1224.200, 639.2464
1224.683, 640.3478
1225.165, 641.7395
1225.647, 641.8729
1226.129, 641.4720
1226.611, 640.7012
1227.093, 640.3910
1227.575, 642.2888
1228.057, 645.0282
1228.540, 646.1560
1229.022, 645.5403
1229.504, 644.5067
1229.986, 643.3854
1230.468, 642.1830
1230.950, 640.7072
1231.432, 639.4132
1231.914, 638.3738
1232.396, 637.6755
1232.879, 637.3262
1233.361, 637.4079
1233.843, 638.2336
1234.325, 639.6447
1234.807, 640.3382
1235.289, 640.0098
1235.771, 639.9492
1236.253, 640.2291
1236.735, 640.5528
1237.218, 640.8708
1237.700, 641.1157
1238.182, 641.2453
1238.664, 641.2718
1239.146, 641.2510
1239.628, 641.0911
1240.110, 640.2992
1240.592, 639.1083
1241.075, 638.7744
1241.557, 639.0474
1242.039, 638.2148
1242.521, 636.1717
1243.003, 634.9494
1243.485, 635.6766
1243.967, 637.0052
1244.449, 638.1635
1244.932, 638.9170
1245.414, 639.1031
1245.896, 638.7268
1246.378, 637.1505
1246.860, 635.3527
1247.342, 635.2704
1247.824, 636.8041
1248.306, 637.5875
1248.788, 636.6439
1249.271, 636.1752
1249.753, 637.1525
1250.235, 637.7846
1250.717, 637.3228
1251.199, 636.7690
1251.681, 636.6151
1252.163, 636.7722
1252.645, 637.1514
1253.127, 637.7165
1253.610, 638.2803
1254.092, 638.8497
1254.574, 639.4328
1255.056, 640.0450
1255.538, 639.8498
1256.020, 638.6785
1256.502, 637.4234
1256.984, 636.5788
1257.467, 636.1020
1257.949, 636.1822
1258.431, 636.2279
1258.913, 634.9692
1259.395, 633.1670
1259.877, 631.8431
1260.359, 631.1570
1260.841, 631.6026
1261.323, 632.8153
1261.806, 633.2401
1262.288, 632.2570
1262.770, 631.2345
1263.252, 630.5042
1263.734, 630.2620
1264.216, 630.3549
1264.698, 631.2151
1265.180, 634.3372
1265.662, 637.4469
1266.145, 637.3405
1266.627, 634.9884
1267.109, 633.9229
1267.591, 634.3986
1268.073, 634.4563
1268.555, 633.7508
1269.037, 634.6133
1269.519, 637.6921
1270.002, 639.7011
1270.484, 639.1071
1270.966, 638.1287
1271.448, 638.8815
1271.930, 640.4573
1272.412, 641.6648
1272.894, 642.1804
1273.376, 640.7620
1273.859, 638.2303
1274.341, 636.0746
1274.823, 634.7098
1275.305, 634.5042
1275.787, 635.5179
1276.269, 637.2947
1276.751, 640.0380
1277.233, 642.5095
1277.715, 644.7792
1278.198, 645.7501
1278.680, 644.0286
1279.162, 641.4572
1279.644, 639.1148
1280.126, 637.3962
1280.608, 637.1170
1281.090, 638.1396
1281.572, 638.1264
1282.054, 636.6364
1282.537, 636.2347
##END=



