##NAMES=Zwieselite
##RRUFFID=R050279
##IDEAL CHEMISTRY=Fe^2+^_2_PO_4_F
##LOCALITY=Cornelia mine, Hagendorf, Bavaria, Germany
##OWNER=RRUFF
##SOURCE=Marcus Origlieri
##DESCRIPTION=Brown massive associated with bluish-gray triphylite R050366
##STATUS=The identification of this mineral has been confirmed by X-ray diffraction and chemical analysis
##URL=rruff.info/R050279
##MEASURED CHEMISTRY=(Fe^2+^_1.08_Mn^2+^_0.86_Ca_0.06_)_Î£=2_(P_1.00_O_4_)F_1.00_
134.6170, 317.2159
135.0991, 317.2407
135.5812, 318.0342
136.0633, 319.4451
136.5455, 320.5985
137.0276, 320.6690
137.5097, 319.8593
137.9918, 319.5166
138.4739, 320.0349
138.9560, 320.8918
139.4382, 321.6161
139.9203, 322.2144
140.4024, 322.5540
140.8845, 322.2153
141.3666, 321.5405
141.8487, 321.1765
142.3309, 321.7372
142.8130, 322.8693
143.2951, 323.2808
143.7772, 322.2475
144.2593, 321.5013
144.7414, 322.2643
145.2236, 324.0102
145.7057, 325.4355
146.1878, 325.2657
146.6699, 323.3520
147.1520, 322.3372
147.6341, 323.1346
148.1163, 324.1302
148.5984, 324.8315
149.0805, 325.1978
149.5626, 325.4264
150.0447, 325.7314
150.5268, 326.1650
151.0090, 326.5143
151.4911, 326.8892
151.9732, 327.1221
152.4553, 327.0529
152.9374, 326.6762
153.4195, 326.1587
153.9017, 325.7412
154.3838, 325.4780
154.8659, 325.2283
155.3480, 324.9093
155.8301, 324.6358
156.3122, 324.6103
156.7944, 324.9221
157.2765, 325.2909
157.7586, 325.1312
158.2407, 324.3343
158.7228, 323.6001
159.2049, 323.2090
159.6871, 323.0231
160.1692, 322.7061
160.6513, 322.0836
161.1334, 321.3788
161.6155, 320.9101
162.0976, 320.6848
162.5798, 320.5995
163.0619, 320.6776
163.5440, 320.9001
164.0261, 320.9922
164.5082, 320.7776
164.9903, 320.4459
165.4725, 320.1095
165.9546, 319.7685
166.4367, 319.5509
166.9188, 319.6778
167.4009, 320.2610
167.8830, 320.7313
168.3652, 320.8677
168.8473, 320.8965
169.3294, 320.9524
169.8115, 321.0786
170.2936, 321.2701
170.7757, 321.5664
171.2579, 322.2323
171.7400, 322.4828
172.2221, 322.0524
172.7042, 321.3161
173.1863, 320.6028
173.6684, 320.0579
174.1506, 319.6256
174.6327, 319.1389
175.1148, 318.7016
175.5969, 318.0612
176.0790, 316.9743
176.5611, 315.7310
177.0433, 314.7451
177.5254, 314.2558
178.0075, 314.1088
178.4896, 313.5345
178.9717, 312.3897
179.4538, 311.0475
179.9360, 309.3869
180.4181, 307.5856
180.9002, 306.0288
181.3823, 304.9853
181.8644, 304.3401
182.3465, 303.5123
182.8287, 302.3983
183.3108, 301.2392
183.7929, 300.0920
184.2750, 298.9746
184.7571, 297.9866
185.2392, 297.2795
185.7214, 296.7126
186.2035, 295.8535
186.6856, 294.3437
187.1677, 292.8784
187.6498, 292.2432
188.1319, 292.4809
188.6141, 292.5059
189.0962, 291.4773
189.5783, 289.9226
190.0604, 288.5312
190.5425, 287.4482
191.0246, 286.5879
191.5068, 285.8097
191.9889, 285.0793
192.4710, 284.5601
192.9531, 284.5413
193.4352, 284.6930
193.9173, 284.6916
194.3995, 284.4397
194.8816, 283.9266
195.3637, 283.0402
195.8458, 281.4334
196.3279, 280.1158
196.8100, 279.4694
197.2922, 279.1837
197.7743, 278.9418
198.2564, 278.6020
198.7385, 278.1510
199.2206, 277.5259
199.7027, 276.5182
200.1849, 275.5954
200.6670, 274.7972
201.1491, 274.1461
201.6312, 273.6886
202.1133, 273.4641
202.5954, 273.4311
203.0776, 273.3447
203.5597, 273.1009
204.0418, 272.9134
204.5239, 272.7581
205.0060, 272.6895
205.4881, 272.8641
205.9703, 273.4188
206.4524, 274.2521
206.9345, 274.4301
207.4166, 273.3002
207.8987, 272.3053
208.3808, 271.9694
208.8630, 272.0626
209.3451, 272.0270
209.8272, 271.4748
210.3093, 270.5205
210.7914, 270.0354
211.2735, 270.2501
211.7557, 270.5863
212.2378, 270.9502
212.7199, 271.2761
213.2020, 271.3637
213.6841, 271.0249
214.1662, 270.3676
214.6484, 269.9299
215.1305, 269.8575
215.6126, 269.8390
216.0947, 269.7247
216.5768, 269.5205
217.0589, 269.2496
217.5410, 268.8601
218.0232, 268.4469
218.5053, 268.2414
218.9874, 268.3760
219.4695, 268.5618
219.9516, 268.5585
220.4337, 268.3708
220.9159, 268.1891
221.3980, 268.1802
221.8801, 268.1903
222.3622, 267.9625
222.8443, 267.3343
223.3264, 266.7006
223.8086, 266.5170
224.2907, 266.8243
224.7728, 267.1703
225.2549, 267.6205
225.7370, 267.8867
226.2191, 267.5901
226.7013, 266.5448
227.1834, 265.2843
227.6655, 264.4876
228.1476, 264.2373
228.6297, 264.0992
229.1118, 263.9007
229.5940, 263.7846
230.0761, 263.9350
230.5582, 264.4168
231.0403, 264.9641
231.5224, 265.1587
232.0045, 264.8924
232.4867, 264.5871
232.9688, 264.0861
233.4509, 263.7154
233.9330, 263.8349
234.4151, 264.5243
234.8972, 265.3777
235.3794, 265.7109
235.8615, 265.2612
236.3436, 264.8836
236.8257, 264.5478
237.3078, 264.3673
237.7899, 264.4773
238.2721, 264.8934
238.7542, 265.4578
239.2363, 265.8887
239.7184, 265.9964
240.2005, 266.3663
240.6826, 267.4121
241.1648, 268.4178
241.6469, 268.7192
242.1290, 268.2320
242.6111, 267.5173
243.0932, 267.4777
243.5753, 268.7611
244.0575, 269.3851
244.5396, 268.7557
245.0217, 267.9558
245.5038, 267.8788
245.9859, 268.6372
246.4680, 269.5813
246.9502, 269.8159
247.4323, 268.9354
247.9144, 268.3073
248.3965, 268.0448
248.8786, 267.9289
249.3607, 267.7938
249.8429, 267.6169
250.3250, 267.4990
250.8071, 267.5738
251.2892, 267.9214
251.7713, 268.1775
252.2534, 268.3386
252.7356, 268.4132
253.2177, 268.4528
253.6998, 268.4458
254.1819, 268.2562
254.6640, 267.7013
255.1461, 266.7009
255.6283, 265.8730
256.1104, 265.1964
256.5925, 264.7084
257.0746, 264.4876
257.5567, 264.5238
258.0388, 264.6801
258.5210, 264.9389
259.0031, 265.2679
259.4852, 265.1205
259.9673, 264.1255
260.4494, 262.9335
260.9315, 261.9374
261.4137, 261.1651
261.8958, 260.6336
262.3779, 260.4097
262.8600, 260.4635
263.3421, 260.4864
263.8242, 260.4290
264.3064, 260.3723
264.7885, 260.3568
265.2706, 260.3839
265.7527, 260.5024
266.2348, 260.8679
266.7169, 261.2895
267.1991, 261.2641
267.6812, 260.3825
268.1633, 259.5309
268.6454, 259.5080
269.1275, 260.2243
269.6096, 260.7556
270.0918, 260.6049
270.5739, 260.0492
271.0560, 259.6404
271.5381, 259.4193
272.0202, 259.2759
272.5023, 259.1676
272.9845, 259.0866
273.4666, 258.9518
273.9487, 258.6447
274.4308, 258.3629
274.9129, 258.4381
275.3951, 258.9632
275.8772, 259.3024
276.3593, 258.8402
276.8414, 257.7211
277.3235, 256.8827
277.8056, 256.6436
278.2878, 256.6733
278.7699, 256.6473
279.2520, 256.5653
279.7341, 256.4396
280.2162, 256.3142
280.6983, 256.1632
281.1805, 255.8361
281.6626, 255.1953
282.1447, 254.5366
282.6268, 254.1052
283.1089, 253.8582
283.5910, 253.6195
284.0732, 253.3035
284.5553, 252.9187
285.0374, 252.4746
285.5195, 251.9077
286.0016, 251.3966
286.4837, 251.0898
286.9659, 250.9098
287.4480, 250.6890
287.9301, 250.2623
288.4122, 249.7554
288.8943, 249.5404
289.3764, 249.7307
289.8586, 249.9732
290.3407, 250.2243
290.8228, 250.3934
291.3049, 250.3136
291.7870, 249.8267
292.2691, 249.1759
292.7513, 248.8311
293.2334, 248.8838
293.7155, 248.9977
294.1976, 249.0787
294.6797, 249.1456
295.1618, 249.2370
295.6440, 249.3782
296.1261, 249.4788
296.6082, 249.3739
297.0903, 249.0032
297.5724, 248.6805
298.0545, 248.4709
298.5367, 248.3470
299.0188, 248.3289
299.5009, 248.4165
299.9830, 248.5162
300.4651, 248.5307
300.9472, 248.4551
301.4294, 248.3271
301.9115, 248.0515
302.3936, 247.8022
302.8757, 247.6360
303.3578, 247.5708
303.8399, 247.6449
304.3221, 248.0222
304.8042, 248.7121
305.2863, 249.0262
305.7684, 248.6692
306.2505, 248.1998
306.7326, 247.7746
307.2148, 247.4420
307.6969, 247.2832
308.1790, 247.3908
308.6611, 247.7277
309.1432, 248.0782
309.6253, 248.5399
310.1075, 248.8603
310.5896, 248.9741
311.0717, 248.9034
311.5538, 248.6680
312.0359, 248.2566
312.5180, 247.7159
313.0002, 247.1223
313.4823, 246.3271
313.9644, 245.8022
314.4465, 245.8522
314.9286, 246.1113
315.4107, 246.2328
315.8929, 246.0972
316.3750, 245.7971
316.8571, 245.4581
317.3392, 245.0499
317.8213, 244.6918
318.3034, 244.3950
318.7856, 244.1616
319.2677, 244.0757
319.7498, 244.1249
320.2319, 244.0862
320.7140, 243.6006
321.1961, 242.5728
321.6783, 241.8835
322.1604, 242.1028
322.6425, 242.2559
323.1246, 241.8235
323.6067, 240.8748
324.0888, 239.8098
324.5710, 238.8396
325.0531, 237.9849
325.5352, 237.5258
326.0173, 237.8384
326.4994, 238.0852
326.9815, 237.8966
327.4637, 237.4126
327.9458, 236.8674
328.4279, 236.3236
328.9100, 235.8624
329.3921, 235.8053
329.8742, 236.4703
330.3564, 236.8828
330.8385, 236.5703
331.3206, 235.9412
331.8027, 235.4246
332.2848, 235.1803
332.7669, 235.0440
333.2491, 234.7403
333.7312, 234.2080
334.2133, 233.7423
334.6954, 233.4210
335.1775, 233.1897
335.6596, 233.0867
336.1418, 233.1010
336.6239, 233.0435
337.1060, 232.6016
337.5881, 231.7544
338.0702, 231.2778
338.5523, 231.5864
339.0345, 231.9578
339.5165, 231.9892
339.9987, 231.7229
340.4808, 231.3765
340.9629, 231.0359
341.4450, 230.7216
341.9271, 230.5938
342.4092, 230.8409
342.8914, 230.9362
343.3735, 230.4690
343.8556, 229.7294
344.3377, 229.1878
344.8198, 229.1013
345.3019, 229.2365
345.7841, 229.1593
346.2662, 228.8068
346.7483, 228.4902
347.2304, 228.3451
347.7125, 228.2927
348.1946, 228.3548
348.6768, 228.5840
349.1589, 228.6304
349.6410, 227.8779
350.1231, 226.3418
350.6052, 225.4583
351.0873, 226.0588
351.5695, 226.9312
352.0516, 226.9671
352.5337, 226.2087
353.0158, 225.4938
353.4979, 225.4018
353.9800, 225.7755
354.4622, 226.1283
354.9443, 226.5179
355.4264, 226.6669
355.9085, 226.1152
356.3906, 225.1746
356.8727, 224.5740
357.3549, 224.9198
357.8370, 225.5416
358.3191, 225.2801
358.8012, 223.9922
359.2833, 223.0731
359.7654, 223.6229
360.2476, 224.8381
360.7297, 225.4350
361.2118, 225.1081
361.6939, 224.5244
362.1760, 224.1101
362.6581, 223.8547
363.1403, 223.7258
363.6224, 223.7798
364.1045, 223.8701
364.5866, 223.7767
365.0687, 223.4901
365.5508, 223.2478
366.0330, 223.1647
366.5151, 223.1843
366.9972, 223.2248
367.4793, 223.2822
367.9614, 223.3098
368.4435, 223.2180
368.9257, 223.0388
369.4078, 222.9714
369.8899, 223.1406
370.3720, 223.3609
370.8541, 223.4180
371.3362, 223.3395
371.8184, 223.4405
372.3005, 224.0429
372.7826, 224.8716
373.2647, 225.0028
373.7468, 223.9547
374.2289, 223.0375
374.7111, 222.8362
375.1932, 223.1172
375.6753, 223.4699
376.1574, 223.7787
376.6395, 224.0054
377.1216, 224.0526
377.6038, 223.8458
378.0859, 223.7485
378.5680, 223.8835
379.0501, 224.0872
379.5322, 224.2216
380.0143, 224.2683
380.4965, 224.2588
380.9786, 224.1974
381.4607, 224.0820
381.9428, 224.1299
382.4249, 224.3460
382.9070, 224.6931
383.3892, 225.3140
383.8713, 226.0488
384.3534, 226.5274
384.8355, 226.5357
385.3176, 226.2651
385.7997, 226.2790
386.2819, 227.0175
386.7640, 227.4973
387.2461, 227.4191
387.7282, 227.2171
388.2103, 227.3414
388.6924, 227.8713
389.1746, 228.5108
389.6567, 228.8840
390.1388, 228.8929
390.6209, 229.0219
391.1030, 229.2346
391.5851, 229.5752
392.0673, 230.1346
392.5494, 230.8418
393.0315, 231.5040
393.5136, 231.9569
393.9957, 232.2948
394.4778, 233.0928
394.9600, 235.0078
395.4421, 236.5044
395.9242, 236.9385
396.4063, 237.0666
396.8884, 237.7536
397.3705, 239.2586
397.8527, 241.0345
398.3348, 242.1315
398.8169, 242.2113
399.2990, 242.8347
399.7811, 244.4419
400.2632, 246.3412
400.7454, 248.3378
401.2275, 250.3540
401.7096, 252.2918
402.1917, 253.9990
402.6738, 255.5426
403.1559, 257.3673
403.6381, 259.5935
404.1202, 261.8922
404.6023, 264.0970
405.0844, 266.2999
405.5665, 268.5757
406.0486, 270.8934
406.5308, 273.4754
407.0129, 276.8366
407.4950, 281.0660
407.9771, 284.8681
408.4592, 287.5922
408.9413, 290.1040
409.4235, 293.2089
409.9056, 296.9023
410.3877, 300.5067
410.8698, 303.5556
411.3519, 306.2570
411.8340, 309.1414
412.3162, 312.2545
412.7983, 315.5810
413.2804, 319.2151
413.7625, 323.0656
414.2446, 326.8973
414.7267, 330.7276
415.2089, 334.4682
415.6910, 337.9865
416.1731, 341.3155
416.6552, 344.6175
417.1373, 347.9291
417.6194, 351.2825
418.1016, 354.8666
418.5837, 358.8578
419.0658, 362.2977
419.5479, 364.3307
420.0300, 365.9546
420.5121, 368.5360
420.9943, 372.2544
421.4764, 376.1085
421.9585, 379.2812
422.4406, 381.7177
422.9227, 383.6003
423.4048, 384.6600
423.8870, 385.4917
424.3691, 386.7061
424.8512, 387.8506
425.3333, 388.0322
425.8154, 386.8387
426.2975, 384.4428
426.7797, 381.1718
427.2618, 376.5685
427.7439, 371.7106
428.2260, 366.8211
428.7081, 361.5499
429.1902, 355.4174
429.6724, 348.5044
430.1545, 341.3510
430.6366, 334.4189
431.1187, 327.7348
431.6008, 321.2868
432.0829, 315.0176
432.5651, 309.0312
433.0472, 303.2564
433.5293, 297.7966
434.0114, 292.7554
434.4935, 288.2083
434.9756, 284.0429
435.4578, 280.0190
435.9399, 276.0210
436.4220, 272.5890
436.9041, 270.2137
437.3862, 268.0808
437.8683, 265.7904
438.3505, 263.3326
438.8326, 260.8875
439.3147, 258.4087
439.7968, 256.0345
440.2789, 254.4503
440.7610, 253.9878
441.2432, 253.5623
441.7253, 252.4893
442.2074, 251.1929
442.6895, 250.2304
443.1716, 249.8402
443.6537, 249.5013
444.1359, 248.5695
444.6180, 247.1804
445.1001, 246.2150
445.5822, 245.9854
446.0643, 246.0940
446.5464, 246.2186
447.0286, 246.3485
447.5107, 246.2105
447.9928, 245.4258
448.4749, 244.5265
448.9570, 244.1150
449.4391, 244.1861
449.9213, 244.3821
450.4034, 244.5865
450.8855, 244.6989
451.3676, 244.3060
451.8497, 242.9463
452.3318, 241.8745
452.8140, 241.7794
453.2961, 241.9945
453.7782, 241.5346
454.2603, 240.1973
454.7424, 238.7747
455.2245, 238.2625
455.7067, 238.9627
456.1888, 238.7683
456.6709, 236.9342
457.1530, 235.1409
457.6351, 234.1676
458.1172, 233.7215
458.5994, 233.1541
459.0815, 232.1230
459.5636, 230.8216
460.0457, 229.7733
460.5278, 229.2847
461.0099, 228.4145
461.4921, 226.7506
461.9742, 224.9993
462.4563, 223.4902
462.9384, 222.3143
463.4205, 221.5538
463.9026, 221.5200
464.3848, 222.0149
464.8669, 221.6113
465.3490, 219.8482
465.8311, 218.0525
466.3132, 216.5441
466.7953, 215.3736
467.2775, 214.7324
467.7596, 214.7636
468.2417, 214.8358
468.7238, 214.2559
469.2059, 213.1139
469.6880, 212.1292
470.1702, 211.4919
470.6523, 210.9375
471.1344, 210.0957
471.6165, 209.0738
472.0986, 208.4038
472.5807, 208.6273
473.0629, 208.9550
473.5450, 208.5656
474.0271, 207.5632
474.5092, 206.5914
474.9913, 205.9500
475.4734, 205.5346
475.9556, 205.1251
476.4377, 204.7340
476.9198, 204.3208
477.4019, 203.8955
477.8840, 203.4375
478.3661, 202.9209
478.8483, 202.3467
479.3304, 201.7317
479.8125, 201.0531
480.2946, 200.3334
480.7767, 199.9060
481.2589, 200.0840
481.7410, 200.1844
482.2231, 200.0215
482.7052, 199.7611
483.1873, 199.6539
483.6694, 199.7469
484.1516, 199.7834
484.6337, 199.3169
485.1158, 198.1800
485.5979, 197.5359
486.0800, 197.9199
486.5621, 198.2363
487.0443, 198.0794
487.5264, 197.5567
488.0085, 196.8391
488.4906, 195.9185
488.9727, 195.0532
489.4548, 194.7941
489.9370, 195.2019
490.4191, 195.2395
490.9012, 194.2487
491.3833, 193.1985
491.8654, 193.1112
492.3475, 193.9176
492.8297, 194.7019
493.3118, 195.2942
493.7939, 195.5439
494.2760, 194.9622
494.7581, 193.5900
495.2402, 192.6644
495.7224, 193.0632
496.2045, 194.2541
496.6866, 194.5862
497.1687, 193.6899
497.6508, 192.8499
498.1329, 192.3618
498.6151, 192.0736
499.0972, 191.8168
499.5793, 191.5678
500.0614, 191.4132
500.5435, 191.4498
501.0256, 191.6740
501.5078, 191.8061
501.9899, 191.9134
502.4720, 191.8456
502.9541, 191.3593
503.4362, 190.7780
503.9183, 190.4768
504.4004, 190.5625
504.8825, 190.8697
505.3647, 191.2339
505.8468, 191.6811
506.3289, 192.0083
506.8110, 192.3969
507.2931, 192.4132
507.7752, 191.5332
508.2574, 190.2510
508.7395, 189.4598
509.2216, 189.5964
509.7037, 190.1209
510.1858, 190.3928
510.6679, 190.4244
511.1501, 190.4686
511.6322, 190.6663
512.1143, 190.7740
512.5964, 190.3237
513.0786, 189.4230
513.5607, 188.9870
514.0428, 189.6114
514.5249, 190.5250
515.0070, 191.1935
515.4891, 191.5702
515.9713, 191.4972
516.4534, 190.8247
516.9355, 189.8602
517.4176, 189.2694
517.8997, 189.1476
518.3818, 189.2417
518.8640, 189.8380
519.3461, 190.4169
519.8282, 190.5312
520.3103, 190.2622
520.7924, 190.0230
521.2745, 190.1130
521.7567, 190.4226
522.2388, 190.4554
522.7209, 189.8947
523.2030, 189.6479
523.6851, 190.1648
524.1672, 190.7559
524.6494, 190.8883
525.1315, 190.5441
525.6136, 190.0873
526.0957, 189.6911
526.5778, 189.4121
527.0599, 189.5382
527.5421, 190.2161
528.0242, 190.7887
528.5063, 190.9621
528.9884, 190.8468
529.4705, 190.5227
529.9526, 189.9196
530.4348, 189.4683
530.9169, 189.5253
531.3990, 189.8390
531.8811, 190.0200
532.3632, 190.0149
532.8453, 189.8413
533.3275, 189.4429
533.8096, 188.8802
534.2917, 188.6504
534.7738, 189.0659
535.2559, 189.3591
535.7380, 189.1848
536.2202, 188.8901
536.7023, 188.9006
537.1844, 189.2762
537.6665, 189.7495
538.1486, 190.0727
538.6307, 190.2474
539.1129, 190.1065
539.5950, 189.2056
540.0771, 188.5745
540.5592, 188.4974
541.0413, 188.7854
541.5234, 189.2991
542.0056, 189.9908
542.4877, 190.6781
542.9698, 191.2020
543.4519, 191.5628
543.9340, 191.7524
544.4161, 191.7419
544.8983, 191.6264
545.3804, 191.3486
545.8625, 191.0277
546.3446, 190.8998
546.8267, 191.0277
547.3088, 191.2959
547.7910, 191.6680
548.2731, 192.1276
548.7552, 192.6712
549.2373, 193.2963
549.7194, 193.9372
550.2015, 194.5543
550.6837, 195.1499
551.1658, 195.5325
551.6479, 195.5224
552.1300, 195.5488
552.6121, 195.5649
553.0942, 195.7568
553.5764, 196.4703
554.0585, 197.7437
554.5406, 199.0978
555.0227, 199.8943
555.5048, 200.0808
555.9869, 200.6262
556.4691, 201.9785
556.9512, 203.0544
557.4333, 203.2206
557.9154, 203.0269
558.3975, 203.1756
558.8796, 203.8721
559.3618, 204.7856
559.8439, 205.6118
560.3260, 206.4034
560.8081, 207.4447
561.2902, 208.8799
561.7723, 210.1052
562.2545, 210.5219
562.7366, 210.3248
563.2187, 210.5239
563.7008, 211.4277
564.1829, 212.3460
564.6650, 212.8946
565.1472, 213.3472
565.6293, 214.1850
566.1114, 215.4632
566.5935, 216.7032
567.0756, 217.4192
567.5577, 217.6130
568.0399, 217.8066
568.5220, 217.9116
569.0041, 218.1282
569.4862, 218.5766
569.9683, 219.1011
570.4504, 219.5504
570.9326, 219.8947
571.4147, 220.1810
571.8968, 220.4551
572.3789, 220.7128
572.8610, 220.9208
573.3431, 221.0510
573.8253, 221.2070
574.3074, 221.3343
574.7895, 221.5745
575.2716, 222.2202
575.7537, 223.4356
576.2358, 224.4379
576.7180, 224.5560
577.2001, 224.3658
577.6822, 224.7031
578.1643, 225.6318
578.6464, 226.6921
579.1285, 227.5247
579.6107, 228.2797
580.0928, 229.6115
580.5749, 232.4082
581.0570, 234.5997
581.5391, 235.6109
582.0212, 236.3834
582.5034, 237.5935
582.9855, 239.2873
583.4676, 241.1755
583.9497, 243.0568
584.4318, 244.9871
584.9139, 247.1451
585.3961, 249.5813
585.8782, 252.1048
586.3602, 254.7328
586.8423, 257.3809
587.3245, 259.9747
587.8066, 262.5071
588.2887, 264.9582
588.7708, 267.1245
589.2529, 269.3340
589.7350, 272.0135
590.2172, 275.1080
590.6993, 278.2681
591.1814, 281.3943
591.6635, 284.4234
592.1456, 287.2223
592.6277, 289.7059
593.1099, 292.1784
593.5920, 294.5571
594.0741, 297.0087
594.5562, 299.7487
595.0383, 302.5938
595.5204, 305.2331
596.0026, 307.5261
596.4847, 309.6126
596.9668, 311.7403
597.4489, 313.9231
597.9310, 316.0192
598.4131, 318.2396
598.8953, 320.0523
599.3774, 321.0549
599.8595, 321.5677
600.3416, 322.1031
600.8237, 322.7546
601.3058, 323.5568
601.7880, 324.7742
602.2701, 326.1375
602.7522, 326.8230
603.2343, 326.6546
603.7164, 326.6175
604.1985, 327.6086
604.6807, 329.4477
605.1628, 330.6382
605.6449, 330.9158
606.1270, 330.9967
606.6091, 331.0766
607.0912, 330.9623
607.5734, 330.6767
608.0555, 330.0760
608.5376, 328.6393
609.0197, 325.8154
609.5018, 321.9633
609.9839, 318.6429
610.4661, 316.3009
610.9482, 313.2080
611.4303, 308.5055
611.9124, 303.2006
612.3945, 298.0033
612.8766, 292.9229
613.3588, 287.6561
613.8409, 282.0444
614.3230, 276.1894
614.8051, 269.9796
615.2872, 263.5607
615.7693, 257.7280
616.2515, 252.8111
616.7336, 248.5267
617.2157, 244.6040
617.6978, 241.1555
618.1799, 237.3777
618.6620, 232.6240
619.1442, 228.2882
619.6263, 225.1926
620.1084, 222.7474
620.5905, 220.0769
621.0726, 216.9065
621.5547, 213.7436
622.0369, 211.2052
622.5190, 209.2738
623.0011, 207.4469
623.4832, 205.7262
623.9653, 204.1079
624.4474, 202.6465
624.9296, 201.2750
625.4117, 199.8984
625.8938, 198.4992
626.3759, 197.1554
626.8580, 195.9015
627.3401, 194.7161
627.8223, 193.5517
628.3044, 192.4184
628.7865, 191.3899
629.2686, 190.5024
629.7507, 189.7636
630.2328, 189.2225
630.7150, 189.0701
631.1971, 188.7322
631.6792, 188.2007
632.1613, 187.5200
632.6434, 186.6500
633.1255, 185.6554
633.6077, 184.5776
634.0898, 183.3812
634.5719, 182.3998
635.0540, 182.2814
635.5361, 182.8981
636.0182, 183.0294
636.5004, 182.3588
636.9825, 181.6439
637.4646, 181.4670
637.9467, 181.7024
638.4288, 181.7906
638.9109, 181.5891
639.3931, 181.4569
639.8752, 181.6882
640.3573, 181.9342
640.8394, 181.7394
641.3215, 181.1304
641.8036, 180.5104
642.2858, 180.1649
642.7679, 180.0385
643.2500, 179.9495
643.7321, 179.9094
644.2142, 179.8769
644.6964, 179.8124
645.1785, 179.7852
645.6606, 179.9353
646.1427, 180.1635
646.6248, 180.1494
647.1069, 179.5845
647.5891, 179.0119
648.0712, 179.1121
648.5533, 179.6455
649.0354, 179.8233
649.5175, 179.4549
649.9996, 178.8891
650.4818, 178.3781
650.9639, 177.9375
651.4460, 177.8606
651.9281, 178.6531
652.4102, 179.1250
652.8923, 178.8816
653.3745, 178.4018
653.8566, 178.0921
654.3387, 177.9801
654.8208, 177.8851
655.3029, 177.7045
655.7850, 177.4218
656.2672, 176.8774
656.7493, 176.0184
657.2314, 175.5995
657.7135, 176.0429
658.1956, 176.6552
658.6777, 176.6449
659.1599, 176.1385
659.6420, 175.8207
660.1241, 175.9955
660.6062, 176.1491
661.0883, 175.8898
661.5704, 175.5058
662.0526, 175.5412
662.5347, 176.0452
663.0168, 176.4431
663.4989, 176.1453
663.9810, 175.2748
664.4631, 174.8352
664.9453, 175.0505
665.4274, 175.2195
665.9095, 175.1208
666.3916, 174.9773
666.8737, 174.9891
667.3558, 175.1210
667.8380, 175.1336
668.3201, 174.8425
668.8022, 174.4617
669.2843, 174.1947
669.7664, 174.0172
670.2485, 173.8396
670.7307, 173.6362
671.2128, 173.4937
671.6949, 173.5282
672.1770, 173.7384
672.6591, 173.7952
673.1412, 173.4883
673.6234, 173.2926
674.1055, 173.4320
674.5876, 173.5954
675.0697, 173.5212
675.5518, 173.1932
676.0339, 172.7361
676.5161, 172.1926
676.9982, 171.6137
677.4803, 170.9859
677.9624, 170.3317
678.4445, 170.1302
678.9266, 170.6331
679.4088, 171.2999
679.8909, 171.5651
680.3730, 171.4253
680.8551, 171.3927
681.3372, 171.5862
681.8193, 171.7355
682.3015, 171.7602
682.7836, 171.7005
683.2657, 171.5531
683.7478, 171.3520
684.2299, 171.2390
684.7120, 171.3786
685.1942, 171.6118
685.6763, 171.3609
686.1584, 170.5053
686.6405, 170.0338
687.1226, 170.4425
687.6047, 170.9421
688.0869, 170.7290
688.5690, 169.9722
689.0511, 169.3338
689.5332, 168.8888
690.0153, 168.6147
690.4974, 168.5442
690.9796, 168.6178
691.4617, 168.8080
691.9438, 169.0796
692.4259, 169.3104
692.9080, 169.3998
693.3901, 169.3857
693.8723, 169.4459
694.3544, 169.6889
694.8365, 169.6585
695.3186, 169.1120
695.8007, 168.4440
696.2828, 167.8072
696.7650, 167.2510
697.2471, 166.9234
697.7292, 166.9723
698.2113, 167.0625
698.6934, 166.8890
699.1755, 166.6458
699.6577, 166.7775
700.1398, 167.2741
700.6219, 167.5434
701.1040, 167.1288
701.5861, 166.2537
702.0682, 165.6530
702.5504, 165.3540
703.0325, 165.2754
703.5146, 165.7332
703.9967, 166.0999
704.4788, 165.9361
704.9609, 165.4938
705.4431, 165.3344
705.9252, 165.7164
706.4073, 166.0947
706.8894, 165.9799
707.3715, 165.5949
707.8536, 165.3391
708.3358, 165.2573
708.8179, 165.2912
709.3000, 165.4295
709.7821, 165.5987
710.2642, 165.6157
710.7463, 165.4521
711.2285, 165.1972
711.7106, 164.7392
712.1927, 164.3141
712.6748, 164.0464
713.1569, 163.8656
713.6390, 163.6360
714.1212, 163.3142
714.6033, 163.0702
715.0854, 163.0987
715.5675, 163.2801
716.0496, 163.4353
716.5317, 163.5399
717.0139, 163.3915
717.4960, 162.8201
717.9781, 162.1978
718.4602, 162.2076
718.9423, 163.1133
719.4244, 163.5708
719.9066, 163.0626
720.3887, 162.7455
720.8708, 163.2405
721.3529, 163.9658
721.8350, 164.1913
722.3171, 163.8088
722.7993, 163.3546
723.2814, 163.2635
723.7635, 163.3436
724.2456, 163.2612
724.7277, 163.0253
725.2098, 162.6954
725.6920, 162.2649
726.1741, 161.8659
726.6562, 161.6557
727.1383, 161.6412
727.6204, 161.6494
728.1025, 161.6284
728.5847, 161.6983
729.0668, 161.9345
729.5489, 162.2309
730.0310, 162.5419
730.5131, 162.8302
730.9952, 163.0018
731.4774, 162.9630
731.9595, 162.8455
732.4416, 162.9093
732.9237, 163.0772
733.4058, 162.8736
733.8879, 162.1515
734.3701, 161.5988
734.8522, 161.8506
735.3343, 162.7122
735.8164, 163.1706
736.2985, 162.7781
736.7806, 162.6187
737.2628, 162.9467
737.7449, 163.2885
738.2270, 163.3307
738.7091, 163.1626
739.1912, 162.9951
739.6733, 162.8925
740.1555, 162.9123
740.6376, 163.1795
741.1197, 163.6030
741.6018, 163.9721
742.0839, 164.2646
742.5660, 164.3881
743.0482, 164.2407
743.5303, 164.0176
744.0124, 164.1458
744.4945, 164.8509
744.9766, 165.1790
745.4587, 164.8662
745.9409, 164.5076
746.4230, 164.2344
746.9051, 164.0592
747.3872, 163.9562
747.8693, 163.9297
748.3514, 164.0700
748.8336, 164.5038
749.3157, 165.1062
749.7978, 165.8040
750.2799, 166.5291
750.7620, 166.8633
751.2441, 166.6420
751.7263, 166.4135
752.2084, 166.8435
752.6905, 167.9005
753.1726, 168.3977
753.6547, 167.9146
754.1368, 167.5028
754.6190, 167.3025
755.1011, 167.2115
755.5832, 167.1324
756.0653, 167.0965
756.5474, 167.2450
757.0295, 167.7379
757.5117, 168.2216
757.9938, 168.0299
758.4759, 167.7157
758.9580, 168.8229
759.4401, 171.2974
759.9222, 172.8891
760.4044, 171.9930
760.8865, 169.8281
761.3686, 169.6341
761.8507, 172.5052
762.3328, 173.9901
762.8149, 173.1809
763.2971, 172.0351
763.7792, 171.0373
764.2613, 170.3229
764.7434, 170.1911
765.2255, 170.7428
765.7076, 171.1256
766.1898, 170.7700
766.6719, 170.2080
767.1540, 169.8903
767.6361, 169.7944
768.1182, 169.7917
768.6003, 169.8416
769.0825, 170.0059
769.5646, 170.3703
770.0467, 170.9098
770.5288, 171.4202
771.0109, 171.9391
771.4930, 172.3011
771.9752, 172.4538
772.4573, 172.4429
772.9394, 172.2348
773.4215, 171.8871
773.9036, 171.6341
774.3857, 171.3657
774.8679, 171.4050
775.3500, 172.2102
775.8321, 173.1595
776.3142, 173.6532
776.7963, 173.6670
777.2784, 173.3400
777.7606, 172.7178
778.2427, 172.1091
778.7248, 172.0669
779.2069, 172.5549
779.6890, 173.0639
780.1711, 173.6343
780.6533, 173.8872
781.1354, 173.4091
781.6175, 172.7254
782.0996, 172.9049
782.5817, 174.2741
783.0638, 174.9080
783.5460, 174.0886
784.0281, 173.2538
784.5102, 172.8738
784.9923, 172.8488
785.4744, 173.2260
785.9565, 173.8769
786.4387, 174.1995
786.9208, 173.5840
787.4029, 172.6297
787.8850, 172.3183
788.3671, 172.5437
788.8492, 172.7809
789.3314, 172.9266
789.8135, 172.9826
790.2956, 172.9001
790.7777, 172.7715
791.2598, 173.0084
791.7419, 174.0319
792.2241, 174.6192
792.7062, 174.5107
793.1883, 174.2296
793.6704, 173.8588
794.1525, 173.5221
794.6346, 173.4282
795.1168, 173.6387
795.5989, 173.8714
796.0810, 174.0404
796.5631, 174.0859
797.0452, 173.8826
797.5273, 173.4970
798.0095, 173.0827
798.4916, 172.6983
798.9737, 172.4352
799.4558, 172.4171
799.9379, 172.6048
800.4200, 172.7121
800.9022, 172.7292
801.3843, 172.7018
801.8664, 172.6824
802.3485, 172.5676
802.8306, 172.1519
803.3127, 171.5633
803.7949, 171.2246
804.2770, 171.4199
804.7591, 171.4359
805.2412, 170.8494
805.7233, 170.1973
806.2054, 169.8385
806.6876, 169.7951
807.1697, 170.1024
807.6518, 170.7681
808.1339, 171.3708
808.6160, 171.3781
809.0981, 170.9393
809.5803, 170.4728
810.0624, 169.9878
810.5445, 169.8665
811.0266, 170.3698
811.5087, 170.8480
811.9908, 170.4664
812.4730, 169.2113
812.9551, 168.2535
813.4372, 167.6998
813.9193, 167.2988
814.4014, 167.1594
814.8835, 167.0364
815.3657, 166.7043
815.8478, 166.2480
816.3299, 165.9299
816.8120, 165.8552
817.2941, 165.8668
817.7762, 166.0087
818.2584, 166.0831
818.7405, 165.7206
819.2226, 165.0190
819.7047, 164.4139
820.1868, 164.0926
820.6689, 163.9154
821.1511, 163.7235
821.6332, 163.5105
822.1153, 163.0917
822.5974, 162.3454
823.0795, 161.8779
823.5616, 162.0590
824.0438, 162.3443
824.5259, 162.0992
825.0080, 161.3913
825.4901, 160.9288
825.9722, 160.9700
826.4543, 160.9391
826.9365, 160.5644
827.4186, 160.2005
827.9007, 160.3184
828.3828, 160.6565
828.8649, 160.4551
829.3470, 159.3677
829.8292, 158.3152
830.3113, 158.4017
830.7934, 159.0969
831.2755, 159.3175
831.7576, 159.0552
832.2397, 158.5699
832.7219, 157.9341
833.2040, 157.4113
833.6861, 157.3760
834.1682, 157.7844
834.6503, 157.8111
835.1324, 157.2567
835.6146, 156.7765
836.0967, 156.5601
836.5788, 156.3830
837.0609, 156.0688
837.5430, 155.6704
838.0251, 155.3357
838.5073, 155.1043
838.9894, 154.8895
839.4715, 154.7659
839.9536, 154.5549
840.4357, 153.8903
840.9178, 153.0854
841.4000, 152.8331
841.8821, 153.3174
842.3642, 153.9444
842.8463, 154.2398
843.3284, 154.2105
843.8105, 153.6800
844.2927, 152.7364
844.7748, 152.2866
845.2569, 152.6053
845.7390, 153.0600
846.2211, 153.1054
846.7032, 152.8298
847.1854, 152.6399
847.6675, 152.5755
848.1496, 152.5108
848.6317, 152.4147
849.1138, 152.3457
849.5959, 152.4039
850.0781, 152.4709
850.5602, 152.3423
851.0423, 151.9742
851.5244, 151.6492
852.0065, 151.4589
852.4886, 151.3481
852.9708, 151.3030
853.4529, 151.3017
853.9350, 151.2852
854.4171, 151.2675
854.8992, 151.3929
855.3813, 151.8272
855.8635, 152.2916
856.3456, 152.2281
856.8277, 151.7343
857.3098, 151.3759
857.7919, 151.2302
858.2740, 151.0442
858.7562, 150.6539
859.2383, 150.2057
859.7204, 149.9460
860.2025, 149.8545
860.6846, 150.0996
861.1667, 151.1640
861.6489, 151.8305
862.1310, 151.5900
862.6131, 151.0030
863.0952, 150.4212
863.5773, 149.8922
864.0594, 149.5142
864.5416, 149.3244
865.0237, 149.2625
865.5058, 149.3616
865.9879, 149.5292
866.4700, 149.6776
866.9521, 149.8160
867.4343, 150.0508
867.9164, 150.4150
868.3985, 150.6367
868.8806, 150.3036
869.3627, 149.6418
869.8448, 149.1617
870.3270, 148.8766
870.8091, 148.9326
871.2912, 149.3984
871.7733, 149.8509
872.2554, 149.9081
872.7375, 149.6216
873.2197, 149.2001
873.7018, 148.4827
874.1839, 148.1032
874.6660, 148.2863
875.1481, 148.5686
875.6302, 148.7743
876.1124, 148.9047
876.5945, 148.9428
877.0766, 148.8753
877.5587, 148.8146
878.0408, 148.8372
878.5229, 148.8074
879.0051, 148.5715
879.4872, 148.3070
879.9693, 148.2645
880.4514, 148.4087
880.9335, 148.4686
881.4156, 148.2790
881.8978, 148.0266
882.3799, 147.8847
882.8620, 147.8390
883.3441, 147.8783
883.8262, 147.9898
884.3083, 148.1364
884.7905, 148.3030
885.2726, 148.4441
885.7547, 148.5084
886.2368, 148.4929
886.7189, 148.3196
887.2010, 147.9222
887.6832, 147.7049
888.1653, 147.8259
888.6474, 148.0122
889.1295, 148.0677
889.6116, 148.0124
890.0938, 147.9243
890.5759, 147.8452
891.0580, 147.6491
891.5401, 147.0794
892.0222, 146.6798
892.5043, 146.7872
892.9865, 147.1375
893.4686, 147.3604
893.9507, 147.4377
894.4328, 147.7137
894.9149, 148.7263
895.3970, 149.5504
895.8792, 149.3241
896.3613, 148.6158
896.8434, 148.1487
897.3255, 147.9795
897.8076, 147.8922
898.2897, 147.7807
898.7719, 147.6624
899.2540, 147.5698
899.7361, 147.4878
900.2182, 147.2736
900.7003, 146.9457
901.1824, 146.9870
901.6646, 147.5828
902.1467, 148.2938
902.6288, 148.7273
903.1109, 148.8883
903.5930, 148.7600
904.0751, 148.1701
904.5573, 147.8004
905.0394, 147.8195
905.5215, 147.8821
906.0036, 147.7430
906.4857, 147.5832
906.9678, 147.7248
907.4500, 148.2124
907.9321, 148.5623
908.4142, 148.6950
908.8963, 148.7076
909.3784, 148.5308
909.8605, 148.3286
910.3427, 148.1929
910.8248, 148.1681
911.3069, 148.3953
911.7890, 149.0291
912.2711, 149.4283
912.7532, 148.7013
913.2354, 147.7642
913.7175, 147.9407
914.1996, 148.8619
914.6817, 149.4255
915.1638, 149.3275
915.6459, 148.9769
916.1280, 148.6833
916.6101, 148.4662
917.0922, 148.3667
917.5743, 148.3853
918.0565, 148.5660
918.5386, 148.9292
919.0207, 149.2325
919.5028, 149.3292
919.9849, 149.3441
920.4670, 149.5191
920.9492, 149.8932
921.4313, 149.9147
921.9134, 149.3000
922.3955, 148.9591
922.8776, 149.2360
923.3597, 149.6988
923.8419, 150.0925
924.3240, 150.3922
924.8061, 150.4901
925.2882, 150.2300
925.7703, 150.1225
926.2524, 150.1873
926.7346, 150.4768
927.2167, 151.2066
927.6988, 152.0606
928.1809, 152.6699
928.6630, 152.9934
929.1451, 153.2138
929.6273, 153.3032
930.1094, 153.4906
930.5915, 154.1389
931.0736, 154.8597
931.5557, 155.0699
932.0378, 154.8898
932.5200, 154.7859
933.0021, 154.9473
933.4842, 155.3099
933.9663, 155.9032
934.4484, 156.5979
934.9305, 157.0735
935.4127, 157.3578
935.8948, 157.5292
936.3769, 157.6120
936.8590, 157.8834
937.3411, 158.5330
937.8232, 159.4897
938.3054, 160.6830
938.7875, 162.1551
939.2696, 163.3510
939.7517, 164.2179
940.2338, 164.9615
940.7159, 165.5675
941.1981, 166.2093
941.6802, 167.0127
942.1623, 167.9987
942.6444, 169.3112
943.1265, 171.1751
943.6086, 173.0032
944.0908, 174.8296
944.5729, 176.5661
945.0550, 177.9640
945.5371, 179.3769
946.0192, 181.3065
946.5013, 183.7765
946.9835, 186.2878
947.4656, 188.5975
947.9477, 191.0759
948.4298, 193.8799
948.9119, 196.8997
949.3940, 200.0302
949.8762, 203.3076
950.3583, 206.8272
950.8404, 210.6272
951.3225, 214.6785
951.8046, 218.9146
952.2867, 223.4288
952.7689, 228.3527
953.2510, 233.6096
953.7331, 239.0461
954.2152, 244.6718
954.6973, 250.7286
955.1794, 257.4038
955.6616, 264.4732
956.1437, 271.4454
956.6258, 278.5645
957.1079, 286.6980
957.5900, 295.8877
958.0721, 305.7163
958.5543, 316.0853
959.0364, 327.0154
959.5185, 338.5158
960.0006, 350.6097
960.4827, 363.3466
960.9648, 376.6387
961.4470, 390.9923
961.9291, 406.4443
962.4112, 422.6893
962.8933, 439.5334
963.3754, 456.9544
963.8575, 474.8578
964.3397, 493.2789
964.8218, 512.5292
965.3039, 532.3428
965.7860, 553.3902
966.2681, 576.0343
966.7502, 599.5677
967.2324, 624.2318
967.7145, 649.3804
968.1966, 673.8375
968.6787, 697.5164
969.1608, 721.3411
969.6429, 745.7207
970.1251, 770.0667
970.6072, 793.6697
971.0893, 817.7452
971.5714, 844.0375
972.0535, 871.5972
972.5356, 898.0223
973.0178, 922.4760
973.4999, 946.8599
973.9820, 973.1965
974.4641, 998.8419
974.9462, 1022.239
975.4283, 1043.311
975.9105, 1062.361
976.3926, 1079.126
976.8747, 1092.871
977.3568, 1103.229
977.8389, 1110.091
978.3210, 1114.545
978.8032, 1114.684
979.2853, 1107.745
979.7674, 1093.903
980.2495, 1074.018
980.7316, 1048.382
981.2137, 1017.178
981.6959, 980.5840
982.1780, 939.1102
982.6601, 893.2823
983.1422, 843.9247
983.6243, 793.0353
984.1064, 741.2520
984.5886, 691.6356
985.0707, 645.4480
985.5528, 601.7053
986.0349, 559.2109
986.5170, 518.6728
986.9991, 483.5140
987.4813, 453.8799
987.9634, 427.4902
988.4455, 404.2404
988.9276, 383.8530
989.4097, 366.3028
989.8918, 351.0654
990.3740, 337.3982
990.8561, 325.2595
991.3382, 314.2362
991.8203, 304.2397
992.3024, 295.3925
992.7845, 287.7454
993.2667, 281.1454
993.7488, 275.7349
994.2309, 271.1167
994.7130, 266.6813
995.1951, 262.4101
995.6772, 258.4926
996.1594, 254.8887
996.6415, 251.6598
997.1236, 249.0773
997.6057, 246.6025
998.0878, 243.5973
998.5699, 240.5827
999.0521, 238.6635
999.5342, 238.0936
1000.016, 237.3869
1000.498, 236.0592
1000.981, 234.8131
1001.463, 233.9677
1001.945, 233.2489
1002.427, 232.4395
1002.909, 231.5565
1003.391, 230.6541
1003.873, 229.7376
1004.355, 228.9329
1004.837, 228.1357
1005.320, 227.6451
1005.802, 227.9791
1006.284, 228.5040
1006.766, 228.3333
1007.248, 227.6367
1007.730, 227.2106
1008.212, 227.3567
1008.694, 227.8448
1009.177, 228.8540
1009.659, 229.8053
1010.141, 230.0706
1010.623, 229.8530
1011.105, 229.2991
1011.587, 228.6296
1012.069, 228.4605
1012.551, 229.1304
1013.033, 230.1957
1013.516, 231.4241
1013.998, 232.5821
1014.480, 233.1274
1014.962, 233.2792
1015.444, 233.6901
1015.926, 234.4672
1016.408, 235.2915
1016.890, 235.9695
1017.372, 236.5131
1017.855, 236.7711
1018.337, 236.9422
1018.819, 237.7884
1019.301, 239.1968
1019.783, 240.3719
1020.265, 241.1162
1020.747, 241.6263
1021.229, 242.0099
1021.712, 242.4150
1022.194, 243.1835
1022.676, 244.2664
1023.158, 245.2030
1023.640, 245.9850
1024.122, 246.8536
1024.604, 247.8678
1025.086, 249.1421
1025.568, 250.8426
1026.051, 252.6903
1026.533, 253.9439
1027.015, 254.5814
1027.497, 254.9843
1027.979, 255.0757
1028.461, 255.6285
1028.943, 257.0501
1029.425, 258.3272
1029.908, 258.4965
1030.390, 257.8911
1030.872, 257.5670
1031.354, 257.5446
1031.836, 257.7917
1032.318, 258.5463
1032.800, 258.8031
1033.282, 258.1606
1033.765, 257.0567
1034.247, 255.7670
1034.729, 254.4134
1035.211, 253.5666
1035.693, 253.7107
1036.175, 252.8696
1036.657, 250.6793
1037.139, 248.2303
1037.621, 245.7940
1038.104, 243.3184
1038.586, 240.6712
1039.068, 237.9547
1039.550, 235.6186
1040.032, 234.0704
1040.514, 231.9413
1040.996, 228.7844
1041.478, 225.7063
1041.960, 223.0455
1042.443, 220.5550
1042.925, 218.1545
1043.407, 215.7622
1043.889, 212.9463
1044.371, 209.2001
1044.853, 206.1834
1045.335, 204.4358
1045.817, 202.7501
1046.300, 200.7031
1046.782, 198.6177
1047.264, 196.7549
1047.746, 195.1041
1048.228, 193.6004
1048.710, 192.2645
1049.192, 191.0094
1049.674, 189.7944
1050.156, 188.7028
1050.639, 187.7881
1051.121, 186.9823
1051.603, 186.0719
1052.085, 185.2228
1052.567, 184.9951
1053.049, 185.6142
1053.531, 186.3266
1054.013, 187.2043
1054.495, 187.8864
1054.978, 187.6663
1055.460, 187.6598
1055.942, 189.2696
1056.424, 191.9028
1056.906, 193.6424
1057.388, 193.8765
1057.870, 194.4876
1058.352, 196.2899
1058.835, 198.1826
1059.317, 199.6126
1059.799, 200.9746
1060.281, 202.6222
1060.763, 204.5260
1061.245, 206.5838
1061.727, 208.7954
1062.209, 210.9126
1062.692, 212.6631
1063.174, 214.5224
1063.656, 216.7418
1064.138, 219.1431
1064.620, 221.8615
1065.102, 224.5371
1065.584, 226.2901
1066.066, 226.8806
1066.548, 227.6974
1067.031, 228.8441
1067.513, 230.8874
1067.995, 235.8754
1068.477, 240.3168
1068.959, 240.5683
1069.441, 237.9730
1069.923, 235.7068
1070.405, 234.4365
1070.887, 232.6747
1071.370, 229.4063
1071.852, 226.0380
1072.334, 223.5762
1072.816, 221.0204
1073.298, 217.2209
1073.780, 212.8187
1074.262, 209.1746
1074.744, 206.4955
1075.227, 203.6597
1075.709, 200.0141
1076.191, 196.3958
1076.673, 193.2282
1077.155, 190.2299
1077.637, 186.9764
1078.119, 183.8103
1078.601, 181.4183
1079.083, 179.7993
1079.566, 178.0755
1080.048, 175.7450
1080.530, 173.5206
1081.012, 171.7677
1081.494, 170.2094
1081.976, 168.7222
1082.458, 167.2498
1082.940, 165.6870
1083.422, 164.0805
1083.905, 162.7404
1084.387, 161.8404
1084.869, 161.0352
1085.351, 160.4176
1085.833, 159.5703
1086.315, 157.8282
1086.797, 155.9491
1087.279, 154.9664
1087.761, 154.2039
1088.244, 154.4872
1088.726, 154.4483
1089.208, 154.1034
1089.690, 152.5366
1090.172, 152.5477
1090.654, 151.9264
1091.136, 151.2792
1091.618, 151.5124
1092.101, 150.1224
1092.583, 150.3416
1093.065, 149.9189
1093.547, 149.7899
1094.029, 149.0247
1094.511, 148.4560
1094.993, 148.5238
1095.475, 148.2392
1095.958, 147.3998
1096.440, 147.2896
1096.922, 146.6502
1097.404, 145.8131
1097.886, 144.9761
1098.368, 144.3700
1098.850, 143.9077
1099.332, 143.5378
1099.814, 143.3187
1100.297, 143.5271
1100.779, 143.7977
1101.261, 143.4723
1101.743, 142.5281
1102.225, 141.7813
1102.707, 141.5199
1103.189, 141.3475
1103.671, 141.0364
1104.153, 140.9306
1104.636, 141.4469
1105.118, 142.1301
1105.600, 142.4025
1106.082, 142.2925
1106.564, 142.2276
1107.046, 142.3107
1107.528, 142.3635
1108.010, 142.3651
1108.493, 142.3165
1108.975, 142.0354
1109.457, 141.8553
1109.939, 142.2061
1110.421, 142.9086
1110.903, 143.4151
1111.385, 143.7403
1111.867, 143.6508
1112.349, 142.3968
1112.832, 141.7354
1113.314, 142.5922
1113.796, 143.6841
1114.278, 144.0132
1114.760, 143.9899
1115.242, 144.5573
1115.724, 145.8821
1116.206, 146.6068
1116.688, 146.4650
1117.171, 146.1429
1117.653, 145.3675
1118.135, 144.8798
1118.617, 145.1749
1119.099, 145.8547
1119.581, 146.4809
1120.063, 147.0376
1120.545, 147.2784
1121.028, 147.1009
1121.510, 146.8155
1121.992, 146.2610
1122.474, 145.9745
1122.956, 146.3757
1123.438, 146.7619
1123.920, 146.3927
1124.402, 145.4883
1124.885, 144.8774
1125.367, 144.6555
1125.849, 144.2752
1126.331, 143.6650
1126.813, 143.1575
1127.295, 142.8983
1127.777, 142.5807
1128.259, 142.0001
1128.741, 141.1936
1129.224, 140.1453
1129.706, 138.8725
1130.188, 138.3557
1130.670, 138.7552
1131.152, 138.5200
1131.634, 137.3261
1132.116, 136.1268
1132.598, 135.3749
1133.080, 134.9601
1133.563, 134.8218
1134.045, 134.8076
1134.527, 134.2117
1135.009, 133.0694
1135.491, 132.1931
1135.973, 131.6424
1136.455, 131.3334
1136.937, 131.2396
1137.420, 130.9227
1137.902, 129.9685
1138.384, 128.7714
1138.866, 128.0943
1139.348, 127.8359
1139.830, 127.6841
1140.312, 127.5836
1140.794, 127.2166
1141.276, 126.5913
1141.759, 126.2918
1142.241, 126.6476
1142.723, 127.0987
1143.205, 126.9199
1143.687, 126.4253
1144.169, 126.2145
1144.651, 126.1491
1145.133, 125.9003
1145.615, 125.4820
1146.098, 125.0282
1146.580, 124.6123
1147.062, 124.4562
1147.544, 124.8384
1148.026, 125.3065
1148.508, 125.3283
1148.990, 125.1983
1149.472, 125.3967
1149.955, 125.6967
1150.437, 125.5907
1150.919, 125.0667
1151.401, 124.4861
1151.883, 123.9698
1152.365, 123.6283
1152.847, 123.5569
1153.329, 123.6608
1153.812, 124.0992
1154.294, 124.4957
1154.776, 124.2557
1155.258, 123.6787
1155.740, 123.6171
1156.222, 124.2649
1156.704, 124.6554
1157.186, 124.0512
1157.668, 123.7148
1158.151, 124.4901
1158.633, 125.2099
1159.115, 125.0021
1159.597, 124.3781
1160.079, 123.9901
1160.561, 123.8673
1161.043, 123.8402
1161.525, 123.8571
1162.007, 124.0436
1162.490, 124.7940
1162.972, 125.1800
1163.454, 124.7129
1163.936, 124.0587
1164.418, 123.5615
1164.900, 123.3115
1165.382, 123.5995
1165.864, 124.5235
1166.347, 124.8940
1166.829, 124.4731
1167.311, 124.2370
1167.793, 124.4232
1168.275, 124.4421
1168.757, 123.9130
1169.239, 123.3873
1169.721, 123.5649
1170.203, 124.2139
1170.686, 124.3174
1171.168, 123.8524
1171.650, 123.5886
1172.132, 123.5568
1172.614, 123.6739
1173.096, 123.9223
1173.578, 124.1789
1174.060, 124.3824
1174.542, 124.3700
1175.025, 123.6859
1175.507, 122.6595
1175.989, 122.4535
1176.471, 122.8804
1176.953, 123.3623
1177.435, 123.7623
1177.917, 123.8233
1178.399, 123.4862
1178.882, 123.1564
1179.364, 123.1470
1179.846, 123.3325
1180.328, 123.7043
1180.810, 124.0626
1181.292, 124.0670
1181.774, 123.8543
1182.256, 123.7031
1182.739, 123.6449
1183.221, 123.5402
1183.703, 123.3147
1184.185, 123.2316
1184.667, 123.6816
1185.149, 124.0422
1185.631, 123.7971
1186.113, 123.3912
1186.595, 123.1821
1187.078, 123.1518
1187.560, 123.2861
1188.042, 123.5456
1188.524, 123.5541
1189.006, 122.9085
1189.488, 122.5687
1189.970, 123.0014
1190.452, 123.3759
1190.934, 123.3655
1191.417, 123.1605
1191.899, 122.8312
1192.381, 122.4774
1192.863, 122.3727
1193.345, 122.5686
1193.827, 122.6413
1194.309, 122.5937
1194.791, 122.3619
1195.274, 121.7691
1195.756, 121.5581
1196.238, 122.1982
1196.720, 123.0094
1197.202, 123.2388
1197.684, 123.0100
1198.166, 122.6827
1198.648, 122.2632
1199.130, 121.9175
1199.613, 121.6544
1200.095, 121.6196
1200.577, 121.8251
1201.059, 121.9181
1201.541, 121.6952
1202.023, 121.3162
1202.505, 120.8770
1202.987, 120.5150
1203.469, 120.6590
1203.952, 121.0113
1204.434, 120.8540
1204.916, 120.3386
1205.398, 120.0647
1205.880, 120.1628
1206.362, 120.3820
1206.844, 120.6375
1207.326, 120.7719
1207.809, 120.5033
1208.291, 120.2497
1208.773, 120.5236
1209.255, 120.8530
1209.737, 120.6161
1210.219, 120.0168
1210.701, 119.6142
1211.183, 119.5079
1211.666, 119.4568
1212.148, 119.3031
1212.630, 119.3566
1213.112, 120.0389
1213.594, 120.4860
1214.076, 120.1075
1214.558, 119.5261
1215.040, 119.2789
1215.522, 119.2696
1216.005, 119.2205
1216.487, 119.1159
1216.969, 119.1228
1217.451, 119.3136
1217.933, 119.2693
1218.415, 118.8503
1218.897, 118.6334
1219.379, 118.9460
1219.861, 119.1762
1220.344, 118.5877
1220.826, 117.6235
1221.308, 117.5089
1221.790, 118.0466
1222.272, 118.2468
1222.754, 118.1590
1223.236, 118.2315
1223.718, 118.5057
1224.201, 118.6264
1224.683, 118.4290
1225.165, 118.2352
1225.647, 118.4354
1226.129, 118.6484
1226.611, 118.3562
1227.093, 117.9105
1227.575, 117.7590
1228.057, 117.7659
1228.540, 117.5614
1229.022, 117.1962
1229.504, 117.1682
1229.986, 117.7286
1230.468, 118.1528
1230.950, 118.2432
1231.432, 118.0920
1231.914, 117.5424
1232.396, 116.9672
1232.879, 116.4883
1233.361, 116.2252
1233.843, 116.4324
1234.325, 117.0231
1234.807, 117.2981
1235.289, 117.1334
1235.771, 117.0642
1236.253, 117.1537
1236.736, 117.0809
1237.218, 116.7168
1237.700, 116.4566
1238.182, 116.5706
1238.664, 116.7731
1239.146, 116.6223
1239.628, 116.2866
1240.110, 116.4195
1240.593, 116.8568
1241.075, 116.8606
1241.557, 116.4786
1242.039, 116.1198
1242.521, 115.8927
1243.003, 115.7550
1243.485, 115.6904
1243.967, 115.6141
1244.449, 115.3002
1244.932, 115.1081
1245.414, 115.6386
1245.896, 116.2384
1246.378, 116.0287
1246.860, 115.4295
1247.342, 115.3011
1247.824, 115.6690
1248.306, 115.8417
1248.788, 115.5673
1249.271, 115.3629
1249.753, 115.3524
1250.235, 115.3731
1250.717, 115.4778
1251.199, 115.4714
1251.681, 115.1772
1252.163, 114.7747
1252.645, 114.4699
1253.128, 114.2924
1253.610, 114.5136
1254.092, 115.2037
1254.574, 115.3534
1255.056, 114.9112
1255.538, 114.6378
1256.020, 114.7074
1256.502, 114.9396
1256.984, 115.2408
1257.467, 115.4445
1257.949, 115.3472
1258.431, 115.0612
1258.913, 114.6276
1259.395, 114.2345
1259.877, 114.3190
1260.359, 114.6574
1260.841, 114.7874
1261.323, 114.6355
1261.806, 114.2777
1262.288, 113.7123
1262.770, 113.2500
1263.252, 112.8569
1263.734, 112.8431
1264.216, 113.8249
1264.698, 114.6697
1265.180, 114.5412
1265.663, 113.9789
1266.145, 113.5151
1266.627, 113.2246
1267.109, 113.4379
1267.591, 114.3604
1268.073, 114.4658
1268.555, 113.5161
1269.037, 112.9164
1269.520, 112.9138
1270.002, 112.9814
1270.484, 112.8915
1270.966, 112.7886
1271.448, 112.8082
1271.930, 112.9022
1272.412, 113.0480
1272.894, 113.1677
1273.376, 113.0190
1273.859, 112.7183
1274.341, 112.5095
1274.823, 112.4211
1275.305, 112.4179
1275.787, 112.4823
1276.269, 112.5742
1276.751, 112.7273
1277.233, 112.7789
1277.715, 112.5111
1278.198, 112.2897
1278.680, 112.3429
1279.162, 112.5077
1279.644, 112.7610
1280.126, 112.9546
1280.608, 112.7669
1281.090, 112.2153
1281.572, 111.8658
1282.055, 111.7859
1282.537, 111.7271
1283.019, 111.6858
1283.501, 111.6145
1283.983, 111.4908
1284.465, 111.5168
1284.947, 111.8331
1285.429, 112.1332
1285.911, 112.0886
1286.394, 111.7542
##END=



