##NAMES=Actinolite
##RRUFFID=R050025
##IDEAL CHEMISTRY=Ca_2_(Mg_4.5-2.5_Fe^2+^_0.5-2.5_)Si_8_O_22_(OH)_2_
##LOCALITY=Tyrol, Austria
##OWNER=RRUFF
##SOURCE=Eugene Schlepp
##DESCRIPTION=Green colored bladed single crystals
##STATUS=The identification of this mineral has been confirmed by X-ray diffraction and chemical analysis
##URL=rruff.info/R050025
##MEASURED CHEMISTRY=(Ca_.930_Na_.056_Mn_.010_K_.004_)_2_(Mg_.883_Fe_.117_)_5_(Si_.978_Al_.022_)_8_O_22_(OH)_2_
##PIN_ID=L00431
##ORIENTATION=Laser parallel to a* (1 0 0). Fiducial mark perpendicular to laser is parallel to b [0 1 0]
91.284, 0.000
92.678, 1.973
94.071, 187.511
95.465, 0.376
96.858, 3.673
98.251, 0.195
99.644, 103.793
101.036, 54.641
102.428, 32.276
103.820, 195.060
105.212, 234.456
106.604, 818.671
107.995, 998.140
109.387, 1566.563
110.777, 2475.534
112.168, 3291.021
113.559, 3688.958
114.949, 3188.073
116.339, 3215.531
117.729, 2937.324
119.119, 2722.583
120.508, 2832.855
121.897, 2694.427
123.286, 2499.537
124.675, 1707.608
126.063, 1259.583
127.452, 804.413
128.840, 636.066
130.228, 358.519
131.615, 297.752
133.003, 100.756
134.390, 60.460
135.777, 33.312
137.164, 175.867
138.550, 289.067
139.937, 395.679
141.323, 290.306
142.709, 390.343
144.094, 338.548
145.480, 330.518
146.865, 104.274
148.250, 21.540
149.635, 21.820
151.019, 8.441
152.403, 249.176
153.788, 661.396
155.171, 1224.133
156.555, 1970.416
157.939, 2626.272
159.322, 3407.720
160.705, 3226.783
162.088, 2846.479
163.470, 2158.826
164.853, 1443.841
166.235, 959.539
167.617, 830.933
168.998, 982.038
170.380, 1027.865
171.761, 1633.426
173.142, 2191.733
174.523, 3000.868
175.904, 4048.003
177.284, 4637.093
178.664, 4951.642
180.044, 4404.040
181.424, 3579.435
182.803, 2612.903
184.183, 2147.621
185.562, 1720.245
186.940, 1438.312
188.319, 1454.493
189.698, 1197.158
191.076, 1131.006
192.454, 1111.107
193.831, 905.875
195.209, 849.414
196.586, 604.213
197.963, 713.041
199.340, 665.911
200.717, 787.816
202.093, 856.734
203.470, 1054.384
204.846, 1245.075
206.221, 1485.098
207.597, 1895.002
208.972, 2255.393
210.347, 2881.970
211.722, 3100.655
213.097, 3771.230
214.472, 4610.795
215.846, 5264.346
217.220, 6638.883
218.594, 7711.402
219.967, 9212.898
221.341, 10345.362
222.714, 10916.778
224.087, 11072.148
225.460, 11103.464
226.832, 11287.729
228.204, 11645.937
229.577, 12060.092
230.948, 12248.201
232.320, 11573.266
233.692, 10235.274
235.063, 8358.239
236.434, 6498.156
237.805, 5167.026
239.175, 3836.850
240.545, 3277.626
241.916, 2885.357
243.286, 2834.044
244.655, 2867.685
246.025, 3224.283
247.394, 3508.836
248.763, 3612.345
250.132, 3724.812
251.501, 3243.235
252.869, 3099.616
254.237, 2499.954
255.605, 2105.250
256.973, 1724.459
258.340, 1383.666
259.708, 1220.721
261.075, 985.770
262.442, 936.500
263.808, 781.243
265.175, 503.395
266.541, 311.195
267.907, 138.727
269.273, 106.625
270.639, 77.618
272.004, 110.054
273.369, 204.681
274.734, 256.510
276.099, 158.539
277.463, 236.785
278.828, 133.460
280.192, 160.282
281.556, 149.252
282.919, 72.333
284.283, 8.607
285.646, 93.971
287.009, 141.707
288.372, 261.460
289.734, 272.840
291.097, 309.363
292.459, 360.097
293.821, 354.711
295.183, 486.498
296.544, 460.617
297.905, 716.167
299.266, 856.886
300.627, 923.910
301.988, 1112.619
303.348, 1020.158
304.709, 1216.267
306.069, 965.740
307.428, 1017.355
308.788, 898.763
310.147, 830.631
311.507, 793.465
312.865, 578.738
314.224, 531.798
315.583, 493.649
316.941, 421.420
318.299, 424.237
319.657, 424.645
321.015, 447.985
322.372, 407.840
323.729, 412.581
325.086, 516.259
326.443, 458.877
327.800, 597.437
329.156, 679.940
330.512, 851.392
331.868, 900.792
333.224, 910.141
334.579, 935.441
335.935, 889.692
337.290, 916.896
338.645, 864.054
339.999, 1018.165
341.354, 1047.229
342.708, 1123.239
344.062, 1337.164
345.416, 1453.916
346.769, 1809.357
348.123, 2045.450
349.476, 2247.225
350.829, 2444.716
352.182, 2488.040
353.534, 2479.285
354.887, 2277.476
356.239, 2117.618
357.591, 1969.719
358.942, 1947.787
360.294, 2299.218
361.645, 2580.086
362.996, 3289.738
364.347, 4195.702
365.698, 5334.640
367.048, 6770.543
368.398, 7633.411
369.748, 8174.236
371.098, 7496.023
372.448, 6533.772
373.797, 5343.488
375.146, 4457.178
376.495, 3886.842
377.844, 3330.479
379.192, 2982.091
380.540, 2854.677
381.889, 2794.236
383.236, 3168.770
384.584, 3588.277
385.932, 4160.757
387.279, 5154.213
388.626, 6356.641
389.973, 7591.045
391.319, 8470.424
392.666, 8715.595
394.012, 9167.100
395.358, 8270.399
396.704, 6941.675
398.049, 5656.923
399.394, 4522.146
400.740, 3572.345
402.084, 3241.518
403.429, 2925.665
404.774, 2897.788
406.118, 2982.885
407.462, 3168.957
408.806, 3631.003
410.150, 4092.025
411.493, 4865.022
412.836, 5469.993
414.179, 6024.939
415.522, 6218.861
416.865, 6045.758
418.207, 5676.630
419.549, 4899.440
420.891, 4257.197
422.233, 3532.901
423.575, 2833.556
424.916, 2491.163
426.257, 2133.723
427.598, 1913.551
428.939, 1767.534
430.279, 1673.279
431.619, 1880.635
432.959, 1933.111
434.299, 2181.564
435.639, 2300.583
436.978, 2033.878
438.318, 1702.402
439.657, 1201.734
440.996, 1093.938
442.334, 707.628
443.673, 502.046
445.011, 435.491
446.349, 252.493
447.687, 376.223
449.024, 120.222
450.361, 213.394
451.699, 166.756
453.036, 118.344
454.372, 142.254
455.709, 4.424
457.045, 183.741
458.381, 104.912
459.717, 235.563
461.053, 255.144
462.388, 120.734
463.724, 239.163
465.059, 170.379
466.394, 195.340
467.728, 232.412
469.063, 200.109
470.397, 292.988
471.731, 214.976
473.065, 239.568
474.398, 244.938
475.732, 212.101
477.065, 349.078
478.398, 278.714
479.731, 358.317
481.063, 356.881
482.396, 455.510
483.728, 499.933
485.060, 603.341
486.391, 770.151
487.723, 574.687
489.054, 671.767
490.385, 852.156
491.716, 639.582
493.047, 715.974
494.377, 544.342
495.708, 569.693
497.038, 557.006
498.368, 579.300
499.697, 672.582
501.027, 676.829
502.356, 831.059
503.685, 958.274
505.014, 1076.455
506.342, 1290.615
507.671, 1555.742
508.999, 1971.864
510.327, 2239.970
511.655, 2454.045
512.982, 2877.099
514.310, 2881.124
515.637, 2927.121
516.964, 2860.088
518.291, 2746.027
519.617, 2676.969
520.944, 2686.882
522.270, 2552.791
523.596, 2454.685
524.921, 2585.551
526.247, 2624.410
527.572, 2555.240
528.897, 2618.057
530.222, 2445.849
531.547, 2281.609
532.871, 1963.361
534.196, 1716.084
535.520, 1661.781
536.844, 1410.451
538.167, 1427.092
539.491, 1218.710
540.814, 1197.300
542.137, 1175.860
543.460, 941.391
544.783, 982.892
546.105, 873.363
547.427, 879.806
548.749, 941.219
550.071, 787.603
551.393, 768.957
552.714, 727.281
554.035, 741.577
555.356, 861.842
556.677, 633.079
557.998, 751.285
559.318, 574.463
560.638, 623.610
561.958, 623.729
563.278, 584.818
564.597, 574.877
565.917, 577.907
567.236, 667.907
568.555, 555.878
569.874, 555.820
571.192, 876.732
572.511, 446.614
573.829, 697.467
575.147, 586.291
576.464, 526.084
577.782, 619.848
579.099, 480.583
580.416, 571.289
581.733, 432.966
583.050, 476.613
584.366, 414.231
585.683, 324.822
586.999, 302.385
588.315, 175.925
589.630, 127.446
590.946, 23.946
592.261, 15.459
593.576, 89.993
594.891, 14.425
596.206, 0.205
597.520, 28.138
598.834, 82.446
600.148, 5.776
601.462, 134.081
602.776, 153.430
604.089, 33.999
605.402, 131.354
606.715, 28.311
608.028, 155.383
609.341, 14.215
610.653, 109.285
611.965, 94.687
613.277, 60.917
614.589, 94.738
615.901, 63.094
617.212, 22.973
618.523, 22.253
619.834, 26.490
621.145, 40.602
622.456, 78.221
623.766, 125.524
625.076, 85.908
626.386, 162.421
627.696, 105.775
629.006, 306.493
630.315, 151.000
631.624, 319.455
632.933, 384.109
634.242, 405.418
635.551, 463.412
636.859, 536.015
638.167, 575.899
639.475, 789.600
640.783, 799.867
642.090, 1022.433
643.398, 1046.617
644.705, 1186.223
646.012, 1501.678
647.318, 1627.897
648.625, 1947.432
649.931, 2144.152
651.237, 2567.051
652.543, 2826.396
653.849, 3262.562
655.155, 3750.238
656.460, 4205.895
657.765, 4672.268
659.070, 5574.420
660.375, 6307.183
661.679, 7738.400
662.984, 9616.698
664.288, 11955.842
665.592, 15548.116
666.895, 19950.219
668.199, 25816.291
669.502, 32714.832
670.805, 38624.641
672.108, 42164.574
673.411, 42984.598
674.713, 37116.395
676.016, 31643.117
677.318, 24691.826
678.620, 19203.555
679.921, 14619.479
681.223, 11339.188
682.524, 8936.738
683.825, 7187.468
685.126, 6054.596
686.427, 4834.482
687.727, 4208.973
689.028, 3627.024
690.328, 3111.465
691.628, 2883.261
692.927, 2338.120
694.227, 2194.489
695.526, 1967.386
696.825, 1758.707
698.124, 1685.004
699.423, 1439.278
700.721, 1390.529
702.020, 1300.755
703.318, 1060.959
704.616, 1129.139
705.913, 858.296
707.211, 1031.431
708.508, 889.542
709.805, 831.631
711.102, 942.697
712.399, 814.741
713.695, 800.562
714.992, 714.761
716.288, 628.738
717.584, 798.694
718.879, 630.627
720.175, 734.540
721.470, 697.430
722.765, 749.299
724.060, 764.147
725.355, 744.975
726.649, 798.781
727.944, 859.566
729.238, 794.332
730.532, 1085.077
731.825, 1038.802
733.119, 1424.507
734.412, 1561.191
735.705, 1785.857
736.998, 2201.502
738.291, 2349.129
739.584, 2616.736
740.876, 2587.324
742.168, 2549.770
743.460, 2637.109
744.752, 2676.906
746.043, 3047.488
747.334, 3144.524
748.626, 3055.479
749.916, 3060.868
751.207, 2696.661
752.498, 2414.314
753.788, 2103.194
755.078, 1576.636
756.368, 1478.861
757.658, 1170.004
758.947, 1000.903
760.237, 903.272
761.526, 760.509
762.815, 760.190
764.104, 597.882
765.392, 619.418
766.680, 481.976
767.969, 373.439
769.257, 604.560
770.544, 373.015
771.832, 295.451
773.119, 400.403
774.406, 229.396
775.693, 337.331
776.980, 214.372
778.267, 221.571
779.553, 274.970
780.839, 136.202
782.125, 235.755
783.411, 136.073
784.697, 83.229
785.982, 150.735
787.267, 65.904
788.552, 174.067
789.837, 79.226
791.122, 97.376
792.406, 136.521
793.690, 19.342
794.974, 139.771
796.258, 36.876
797.542, 2.029
798.825, 15.047
800.108, 45.112
801.391, 97.167
802.674, 12.214
803.957, 4.250
805.239, 38.729
806.522, 64.741
807.804, 72.202
809.085, 54.862
810.367, 88.967
811.649, 7.871
812.930, 65.302
814.211, 76.520
815.492, 16.215
816.772, 53.061
818.053, 19.628
819.333, 104.691
820.613, 52.074
821.893, 13.509
823.173, 24.917
824.452, 66.637
825.732, 24.006
827.011, 4.529
828.290, 44.258
829.568, 119.215
830.847, 50.246
832.125, 88.299
833.403, 57.893
834.681, 25.479
835.959, 88.154
837.236, 6.166
838.514, 65.521
839.791, 2.244
841.068, 66.024
842.345, 84.710
843.621, 66.511
844.898, 4.270
846.174, 7.059
847.450, 49.145
848.726, 31.655
850.001, 29.529
851.277, 83.710
852.552, 36.891
853.827, 169.069
855.102, 44.247
856.376, 165.423
857.651, 130.600
858.925, 69.775
860.199, 202.951
861.473, 63.126
862.746, 102.301
864.020, 233.489
865.293, 100.678
866.566, 305.868
867.839, 276.060
869.112, 190.252
870.384, 310.448
871.656, 212.645
872.928, 378.843
874.200, 250.071
875.472, 344.301
876.744, 377.532
878.015, 300.783
879.286, 489.035
880.557, 469.312
881.828, 382.592
883.098, 540.875
884.369, 557.171
885.639, 606.468
886.909, 579.776
888.178, 574.089
889.448, 767.404
890.717, 691.748
891.987, 713.103
893.256, 784.462
894.524, 653.865
895.793, 807.271
897.061, 797.699
898.330, 814.146
899.598, 957.603
900.865, 766.081
902.133, 976.569
903.401, 1061.069
904.668, 927.614
905.935, 1183.174
907.202, 1019.756
908.468, 1208.377
909.735, 1204.013
911.001, 1153.715
912.267, 1292.474
913.533, 1158.256
914.799, 1348.101
916.064, 1545.969
917.330, 1387.894
918.595, 1731.847
919.860, 1917.845
921.124, 2121.902
922.389, 2460.973
923.653, 2695.083
924.918, 3164.236
926.182, 3562.412
927.445, 4018.614
928.709, 4518.832
929.972, 4476.059
931.236, 4419.319
932.499, 4136.591
933.761, 3522.873
935.024, 3175.165
936.286, 2621.467
937.549, 2265.645
938.811, 2096.972
940.073, 1880.114
941.334, 1885.481
942.596, 1776.731
943.857, 1783.071
945.118, 1931.467
946.379, 1824.036
947.640, 1894.448
948.900, 1895.612
950.161, 1607.146
951.421, 1787.249
952.681, 1470.489
953.940, 1484.951
955.200, 1452.083
956.459, 1274.015
957.719, 1407.752
958.978, 1225.032
960.236, 1221.473
961.495, 1302.401
962.753, 992.337
964.012, 1211.541
965.270, 1111.953
966.527, 1098.741
967.785, 1207.058
969.043, 975.283
970.300, 1209.647
971.557, 1092.866
972.814, 986.246
974.071, 1221.639
975.327, 969.558
976.583, 1000.203
977.840, 1021.695
979.095, 901.083
980.351, 1067.698
981.607, 947.362
982.862, 919.040
984.117, 1061.678
985.372, 962.107
986.627, 974.737
987.882, 953.515
989.136, 942.113
990.390, 1112.300
991.644, 949.717
992.898, 1043.524
994.152, 1084.755
995.405, 1010.591
996.659, 1486.061
997.912, 1131.455
999.165, 1623.335
1000.417, 1540.676
1001.670, 1331.579
1002.922, 1640.497
1004.174, 1633.425
1005.426, 1646.368
1006.678, 1944.322
1007.930, 1885.466
1009.181, 1997.443
1010.432, 2178.554
1011.683, 2109.554
1012.934, 2415.572
1014.185, 2464.656
1015.435, 2658.699
1016.685, 2940.012
1017.935, 3092.307
1019.185, 3538.392
1020.435, 3873.053
1021.684, 4432.156
1022.934, 5270.282
1024.183, 5980.177
1025.432, 7192.322
1026.680, 8113.477
1027.929, 8917.478
1029.177, 9194.651
1030.425, 8779.978
1031.673, 7781.429
1032.921, 6868.996
1034.169, 5630.016
1035.416, 4943.235
1036.663, 4165.042
1037.911, 3762.705
1039.157, 3492.950
1040.404, 3171.924
1041.650, 3056.011
1042.897, 3004.441
1044.143, 2864.713
1045.389, 3068.040
1046.634, 3017.476
1047.880, 3242.232
1049.125, 3688.861
1050.371, 3773.449
1051.615, 4492.033
1052.860, 4877.678
1054.105, 5359.636
1055.349, 6041.982
1056.593, 6796.894
1057.837, 7097.578
1059.081, 6629.935
1060.325, 6038.181
1061.568, 5812.811
1062.812, 5269.461
1064.055, 5030.447
1065.298, 5249.028
1066.540, 5044.873
1067.783, 5172.297
1069.025, 4972.689
1070.267, 4637.884
1071.509, 4110.623
1072.751, 3624.130
1073.993, 3016.912
1075.234, 2925.505
1076.475, 2405.081
1077.716, 2321.101
1078.957, 2145.746
1080.198, 1883.180
1081.438, 1806.839
1082.679, 1669.310
1083.919, 1540.314
1085.159, 1576.716
1086.398, 1302.483
1087.638, 1430.835
1088.877, 1181.233
1090.116, 1015.778
1091.355, 1181.277
1092.594, 1073.852
1093.833, 1066.439
1095.071, 1000.822
1096.309, 816.516
1097.547, 964.258
1098.785, 823.800
1100.023, 770.664
1101.260, 971.110
1102.498, 677.572
1103.735, 855.571
1104.972, 899.040
1106.208, 689.485
1107.445, 869.382
1108.681, 677.771
1109.918, 631.596
1111.154, 794.218
1112.389, 598.631
1113.625, 560.984
1114.860, 624.406
1116.096, 540.842
1117.331, 683.834
1118.566, 512.272
1119.800, 557.167
1121.035, 708.200
1122.269, 478.663
1123.503, 604.960
1124.737, 573.667
1125.971, 353.243
1127.205, 594.293
1128.438, 368.727
1129.671, 415.563
1130.904, 412.409
1132.137, 219.848
1133.370, 441.751
1134.602, 307.208
1135.834, 200.655
1137.066, 580.154
1138.298, 352.202
1139.530, 786.690
1140.762, 355.435
1141.993, 119.871
1143.224, 347.112
1144.455, 157.781
1145.686, 206.203
1146.917, 311.908
1148.147, 93.318
1149.377, 270.723
1150.607, 230.853
1151.837, 89.232
1153.067, 219.262
1154.296, 169.934
1155.526, 33.271
1156.755, 270.779
1157.984, 50.087
1159.213, 122.699
1160.441, 179.703
1161.670, 54.035
1162.898, 190.990
1164.126, 29.953
1165.354, 38.139
1166.581, 208.997
1167.809, 5.771
1169.036, 101.358
1170.263, 114.824
1171.490, 107.080
1172.717, 108.058
1173.943, 129.492
1175.170, 58.522
1176.396, 168.777
1177.622, 78.120
1178.848, 50.731
1180.073, 26.049
1181.299, 23.141
1182.524, 197.631
1183.749, 18.281
1184.974, 17.438
1186.199, 139.300
1187.423, 82.500
1188.648, 19.893
1189.872, 87.177
1191.096, 132.984
1192.320, 118.465
1193.543, 53.073
1194.767, 25.703
1195.990, 61.657
1197.213, 21.843
1198.436, 77.417
1199.659, 66.011
1200.881, 89.774
1202.104, 214.360
1203.326, 10.953
1204.548, 66.039
1205.770, 206.099
1206.991, 42.669
1208.213, 90.312
1209.434, 87.670
1210.655, 21.129
1211.876, 107.755
1213.096, 47.272
1214.317, 10.812
1215.537, 188.980
1216.757, 53.626
1217.977, 80.077
1219.197, 136.849
1220.417, 14.004
1221.636, 118.604
1222.855, 6.257
1224.074, 25.025
1225.293, 108.546
1226.512, 54.407
1227.731, 107.020
1228.949, 152.741
1230.167, 33.192
1231.385, 173.537
1232.603, 87.772
1233.820, 2.492
1235.038, 226.764
1236.255, 68.682
1237.472, 153.571
1238.689, 135.703
1239.906, 4.830
1241.122, 199.234
1242.338, 109.274
1243.555, 22.346
1244.771, 145.635
1245.986, 69.745
1247.202, 170.187
1248.417, 166.080
1249.633, 44.372
1250.848, 164.212
1252.063, 170.026
1253.277, 65.739
1254.492, 255.501
1255.706, 20.764
1256.920, 138.518
1258.134, 198.189
1259.348, 29.006
1260.562, 298.867
1261.775, 261.425
1262.988, 62.126
1264.201, 329.619
1265.414, 87.082
1266.627, 61.686
1267.839, 223.087
1269.052, 38.462
1270.264, 141.421
1271.476, 171.721
1272.688, 61.190
1273.899, 228.418
1275.111, 105.604
1276.322, 109.198
1277.533, 237.322
1278.744, 97.416
1279.955, 227.719
1281.165, 285.752
1282.376, 9.246
1283.586, 188.913
1284.796, 75.838
1286.006, 24.905
1287.215, 298.979
1288.425, 12.781
1289.634, 153.545
1290.843, 214.281
1292.052, 3.985
1293.261, 256.845
1294.469, 257.457
1295.678, 57.039
1296.886, 294.899
1298.094, 66.403
1299.302, 137.874
1300.509, 232.313
1301.717, 170.542
1302.924, 547.939
1304.131, 139.162
1305.338, 17.458
1306.545, 263.800
1307.752, 51.962
1308.958, 15.146
1310.164, 333.262
1311.370, 64.151
1312.576, 195.231
1313.782, 274.881
1314.987, 3.895
1316.193, 220.012
1317.398, 181.186
1318.603, 106.085
1319.807, 277.201
1321.012, 119.199
1322.216, 162.001
1323.421, 262.616
1324.625, 86.083
1325.829, 207.408
1327.032, 232.260
1328.236, 121.887
1329.439, 292.903
1330.642, 161.041
1331.845, 75.574
1333.048, 237.352
1334.251, 74.994
1335.453, 125.272
1336.656, 230.655
1337.858, 38.043
1339.060, 256.127
1340.261, 173.955
1341.463, 134.888
1342.664, 306.839
1343.866, 95.025
1345.067, 218.873
1346.267, 278.381
1347.468, 59.478
1348.669, 247.985
1349.869, 203.824
1351.069, 31.162
1352.269, 227.944
1353.469, 74.643
1354.668, 106.300
1355.868, 288.604
1357.067, 26.290
1358.266, 148.695
1359.465, 263.830
1360.664, 9.348
1361.862, 213.647
1363.061, 140.268
1364.259, 44.915
1365.457, 258.274
1366.655, 145.920
1367.852, 109.467
1369.050, 250.539
1370.247, 32.988
1371.444, 183.618
1372.641, 80.891
1373.838, 20.685
1375.035, 259.146
1376.231, 1.147
1377.427, 51.562
1378.623, 205.689
1379.819, 69.362
1381.015, 126.852
1382.211, 288.408
1383.406, 59.560
1384.601, 211.728
1385.796, 336.663
1386.991, 62.110
1388.185, 301.133
1389.380, 105.665
1390.574, 22.078
1391.768, 252.473
1392.962, 44.190
1394.156, 196.303
1395.350, 216.570
1396.543, 6.696
1397.736, 199.712
1398.929, 146.822
1400.122, 14.288
1401.315, 243.238
1402.507, 96.357
1403.700, 75.903
1404.892, 312.421
1406.084, 97.796
1407.276, 208.509
1408.467, 301.083
1409.659, 15.320
1410.850, 198.659
1412.041, 209.758
1413.232, 0.317
1414.423, 315.460
1415.614, 80.245
1416.804, 142.294
1417.994, 355.063
1419.184, 20.907
1420.374, 146.287
1421.564, 221.477
1422.753, 65.763
1423.943, 209.729
1425.132, 237.171
1426.321, 74.029
1427.510, 273.197
1428.698, 79.705
1429.887, 58.329
1431.075, 258.913
1432.263, 160.279
1433.451, 154.228
1434.639, 290.390
1435.827, 42.098
1437.014, 267.084
1438.201, 124.467
1439.388, 32.996
1440.575, 280.890
1441.762, 106.530
1442.949, 119.413
1444.135, 331.646
1445.321, 99.336
1446.507, 104.496
1447.693, 295.147
1448.879, 78.075
1450.064, 290.006
1451.250, 203.442
1452.435, 46.289
1453.620, 404.068
1454.805, 145.214
1455.989, 57.522
1457.174, 236.971
1458.358, 60.176
1459.542, 184.434
1460.726, 329.220
1461.910, 35.301
1463.093, 292.062
1464.277, 192.253
1465.460, 146.340
1466.643, 257.732
1467.826, 256.232
1469.009, 101.327
1470.191, 369.163
1471.373, 121.497
1472.556, 219.493
1473.738, 348.852
1474.919, 98.551
1476.101, 205.583
1477.283, 144.574
1478.464, 139.011
1479.645, 365.761
1480.826, 140.655
1482.007, 87.523
1483.187, 471.288
1484.368, 145.897
1485.548, 26.896
1486.728, 356.921
1487.908, 138.105
1489.088, 314.369
1490.268, 359.360
1491.447, 59.129
1492.626, 357.178
1493.805, 229.379
1494.984, 101.620
1496.163, 376.932
1497.341, 183.326
1498.520, 188.780
1499.698, 450.786
1500.876, 21.945
1502.054, 163.270
1503.232, 446.566
1504.409, 63.262
1505.586, 388.948
1506.763, 302.219
1507.940, 13.159
1509.117, 425.898
1510.294, 294.182
1511.470, 131.568
1512.647, 446.599
1513.823, 172.938
1514.999, 182.999
1516.174, 396.515
1517.350, 0.508
1518.526, 0.000
##END=



