##NAMES=Actinolite
##RRUFFID=R050025
##IDEAL CHEMISTRY=Ca_2_(Mg_4.5-2.5_Fe^2+^_0.5-2.5_)Si_8_O_22_(OH)_2_
##LOCALITY=Tyrol, Austria
##OWNER=RRUFF
##SOURCE=Eugene Schlepp
##DESCRIPTION=Green colored bladed single crystals
##STATUS=The identification of this mineral has been confirmed by X-ray diffraction and chemical analysis
##URL=rruff.info/R050025
##MEASURED CHEMISTRY=(Ca_.930_Na_.056_Mn_.010_K_.004_)_2_(Mg_.883_Fe_.117_)_5_(Si_.978_Al_.022_)_8_O_22_(OH)_2_
##PIN_ID=L00525
##ORIENTATION=Laser parallel to b* (0 1 0). Fiducial mark perpendicular to laser is parallel to c [0 0 1]
96.858, 0.000
98.251, 68.571
99.644, 3.269
101.036, 197.928
102.428, 59.163
103.820, 245.837
105.212, 399.850
106.604, 469.233
107.995, 849.941
109.387, 860.132
110.777, 1033.863
112.168, 1450.750
113.559, 2221.195
114.949, 2526.868
116.339, 2989.694
117.729, 3121.720
119.119, 2964.709
120.508, 3470.350
121.897, 3408.408
123.286, 3480.812
124.675, 2783.951
126.063, 2204.882
127.452, 1626.384
128.840, 1480.362
130.228, 1262.375
131.615, 964.812
133.003, 877.494
134.390, 532.496
135.777, 571.301
137.164, 548.815
138.550, 616.559
139.937, 510.476
141.323, 332.115
142.709, 171.944
144.094, 35.735
145.480, 110.725
146.865, 95.948
148.250, 12.806
149.635, 44.910
151.019, 82.015
152.403, 20.648
153.788, 17.573
155.171, 93.904
156.555, 51.749
157.939, 39.059
159.322, 138.865
160.705, 36.198
162.088, 147.082
163.470, 91.536
164.853, 110.577
166.235, 114.221
167.617, 110.481
168.998, 426.664
170.380, 584.235
171.761, 1007.978
173.142, 1386.519
174.523, 2590.983
175.904, 4272.108
177.284, 6055.447
178.664, 5997.482
180.044, 6939.272
181.424, 5458.382
182.803, 3649.793
184.183, 2407.786
185.562, 1812.772
186.940, 1154.675
188.319, 1044.410
189.698, 724.144
191.076, 613.639
192.454, 493.853
193.831, 383.743
195.209, 419.680
196.586, 310.702
197.963, 346.587
199.340, 206.091
200.717, 316.339
202.093, 295.199
203.470, 345.326
204.846, 393.223
206.221, 360.190
207.597, 554.509
208.972, 585.686
210.347, 774.991
211.722, 800.611
213.097, 1008.169
214.472, 1419.463
215.846, 1766.670
217.220, 2694.845
218.594, 3307.988
219.967, 4875.101
221.341, 5922.173
222.714, 6438.198
224.087, 6918.164
225.460, 5419.057
226.832, 4427.861
228.204, 3153.559
229.577, 2652.135
230.948, 2326.584
232.320, 1941.904
233.692, 1851.108
235.063, 1253.207
236.434, 1130.218
237.805, 784.156
239.175, 523.022
240.545, 432.819
241.916, 226.545
243.286, 283.202
244.655, 144.791
246.025, 336.311
247.394, 349.348
248.763, 451.150
250.132, 546.471
251.501, 420.711
252.869, 540.850
254.237, 289.881
255.605, 301.824
256.973, 183.688
258.340, 136.472
259.708, 99.163
261.075, 49.400
262.442, 2.338
263.808, 36.191
265.175, 36.702
266.541, 36.750
267.907, 140.919
269.273, 3.365
270.639, 128.786
272.004, 6.890
273.369, 144.559
274.734, 113.641
276.099, 3.254
277.463, 87.181
278.828, 60.009
280.192, 7.427
281.556, 130.229
282.919, 188.682
284.283, 302.724
285.646, 568.431
287.009, 698.520
288.372, 1045.149
289.734, 1066.111
291.097, 1076.914
292.459, 941.134
293.821, 762.333
295.183, 714.418
296.544, 563.682
297.905, 596.075
299.266, 604.733
300.627, 597.372
301.988, 777.637
303.348, 664.324
304.709, 756.757
306.069, 563.085
307.428, 572.258
308.788, 481.430
310.147, 419.349
311.507, 478.167
312.865, 290.854
314.224, 381.264
315.583, 266.565
316.941, 258.657
318.299, 285.057
319.657, 204.628
321.015, 294.412
322.372, 271.757
323.729, 421.426
325.086, 375.417
326.443, 455.956
327.800, 700.840
329.156, 763.873
330.512, 1267.016
331.868, 1453.176
333.224, 1506.408
334.579, 1496.573
335.935, 1081.610
337.290, 1099.503
338.645, 888.365
339.999, 906.192
341.354, 842.858
342.708, 940.371
344.062, 1040.688
345.416, 899.698
346.769, 1153.406
348.123, 1109.796
349.476, 1226.565
350.829, 1363.598
352.182, 1335.987
353.534, 1629.768
354.887, 1348.020
356.239, 1489.732
357.591, 1391.949
358.942, 1524.283
360.294, 1828.855
361.645, 1966.695
362.996, 2769.267
364.347, 3252.796
365.698, 4671.118
367.048, 6483.826
368.398, 7740.770
369.748, 7892.841
371.098, 8287.037
372.448, 7080.632
373.797, 5523.970
375.146, 3823.377
376.495, 3350.769
377.844, 2514.123
379.192, 2352.441
380.540, 2038.723
381.889, 1894.968
383.236, 2004.177
384.584, 1870.350
385.932, 2285.486
387.279, 2319.587
388.626, 3018.651
389.973, 3550.680
391.319, 4060.675
392.666, 5295.634
394.012, 4843.559
395.358, 4827.450
396.704, 3777.308
398.049, 2806.132
399.394, 2351.924
400.740, 1658.684
402.084, 1405.433
403.429, 1179.784
404.774, 1075.933
406.118, 1063.545
407.462, 927.918
408.806, 1080.782
410.150, 1089.681
411.493, 1339.986
412.836, 1419.670
414.179, 1573.809
415.522, 1728.432
416.865, 1601.986
418.207, 1628.572
419.549, 1480.250
420.891, 1482.490
422.233, 1039.259
423.575, 762.173
424.916, 674.309
426.257, 532.327
427.598, 475.766
428.939, 377.120
430.279, 400.853
431.619, 422.562
432.959, 288.043
434.299, 328.235
435.639, 312.435
436.978, 319.803
438.318, 286.148
439.657, 144.285
440.996, 236.548
442.334, 50.499
443.673, 57.233
445.011, 73.903
446.349, 44.468
447.687, 94.970
449.024, 64.315
450.361, 75.991
451.699, 14.110
453.036, 70.118
454.372, 7.703
455.709, 5.696
457.045, 110.650
458.381, 32.574
459.717, 86.504
461.053, 102.555
462.388, 17.612
463.724, 82.764
465.059, 7.786
466.394, 60.967
467.728, 45.487
469.063, 22.022
470.397, 99.161
471.731, 32.974
473.065, 38.102
474.398, 12.611
475.732, 26.927
477.065, 50.310
478.398, 2.471
479.731, 72.869
481.063, 52.808
482.396, 61.176
483.728, 106.444
485.060, 80.323
486.391, 116.016
487.723, 82.033
489.054, 85.857
490.385, 51.673
491.716, 17.486
493.047, 26.277
494.377, 13.964
495.708, 39.763
497.038, 51.462
498.368, 38.130
499.697, 24.764
501.027, 38.536
502.356, 46.550
503.685, 56.480
505.014, 88.988
506.342, 100.469
507.671, 122.920
508.999, 216.359
510.327, 102.774
511.655, 243.163
512.982, 290.536
514.310, 286.888
515.637, 404.241
516.964, 369.577
518.291, 462.905
519.617, 574.242
520.944, 426.567
522.270, 546.893
523.596, 437.216
524.921, 459.529
526.247, 511.840
527.572, 494.140
528.897, 641.435
530.222, 558.725
531.547, 607.000
532.871, 560.269
534.196, 478.518
535.520, 620.749
536.844, 449.965
538.167, 528.162
539.491, 470.340
540.814, 389.499
542.137, 482.638
543.460, 371.759
544.783, 449.862
546.105, 292.947
547.427, 362.013
548.749, 420.060
550.071, 281.090
551.393, 377.101
552.714, 268.094
554.035, 325.070
555.356, 317.027
556.677, 256.966
557.998, 359.888
559.318, 267.793
560.638, 261.680
561.958, 329.553
563.278, 278.416
564.597, 345.271
565.917, 214.118
567.236, 265.962
568.555, 277.796
569.874, 238.620
571.192, 324.432
572.511, 245.232
573.829, 301.020
575.147, 275.795
576.464, 244.562
577.782, 385.320
579.099, 246.073
580.416, 338.823
581.733, 327.572
583.050, 298.323
584.366, 378.087
585.683, 224.855
586.999, 260.646
588.315, 119.236
589.630, 181.034
590.946, 75.909
592.261, 42.373
593.576, 128.045
594.891, 35.763
596.206, 7.606
597.520, 4.654
598.834, 26.430
600.148, 5.810
601.462, 42.938
602.776, 29.043
604.089, 14.921
605.402, 30.234
606.715, 108.812
608.028, 102.270
609.341, 23.643
610.653, 19.296
611.965, 59.818
613.277, 49.779
614.589, 46.232
615.901, 65.354
617.212, 84.061
618.523, 52.998
619.834, 112.300
621.145, 62.483
622.456, 107.667
623.766, 191.288
625.076, 84.136
626.386, 168.494
627.696, 191.191
629.006, 241.609
630.315, 276.344
631.624, 277.176
632.933, 386.614
634.242, 379.586
635.551, 521.629
636.859, 543.427
638.167, 525.431
639.475, 741.216
640.783, 698.173
642.090, 906.582
643.398, 1020.673
644.705, 1198.362
646.012, 1559.336
647.318, 1610.039
648.625, 2744.827
649.931, 3562.346
651.237, 2854.666
652.543, 3633.094
653.849, 3528.921
655.155, 4170.189
656.460, 4253.569
657.765, 4130.588
659.070, 4886.308
660.375, 4578.695
661.679, 5793.789
662.984, 6484.756
664.288, 7525.071
665.592, 10282.289
666.895, 11434.145
668.199, 16876.643
669.502, 20592.820
670.805, 26261.570
672.108, 34007.262
673.411, 32062.951
674.713, 32655.814
676.016, 26773.830
677.318, 19914.521
678.620, 16905.879
679.921, 11262.731
681.223, 9358.350
682.524, 6967.082
683.825, 5428.821
685.126, 4767.154
686.427, 3502.497
687.727, 3226.155
689.028, 2726.807
690.328, 2231.404
691.628, 2147.120
692.927, 1611.726
694.227, 1671.275
695.526, 1382.825
696.825, 1170.360
698.124, 1234.888
699.423, 992.516
700.721, 984.030
702.020, 850.689
703.318, 801.189
704.616, 772.682
705.913, 588.168
707.211, 673.648
708.508, 608.121
709.805, 489.588
711.102, 527.048
712.399, 400.501
713.695, 519.949
714.992, 430.390
716.288, 384.824
717.584, 397.253
718.879, 274.676
720.175, 397.092
721.470, 292.503
722.765, 339.907
724.060, 402.307
725.355, 274.699
726.649, 432.086
727.944, 350.468
729.238, 265.843
730.532, 412.213
731.825, 239.577
733.119, 382.936
734.412, 344.288
735.705, 342.636
736.998, 421.978
738.291, 354.315
739.584, 373.646
740.876, 501.971
742.168, 440.292
743.460, 655.606
744.752, 584.915
746.043, 878.219
747.334, 917.374
748.626, 970.389
749.916, 1191.677
751.207, 965.665
752.498, 921.534
753.788, 792.279
755.078, 579.423
756.368, 560.143
757.658, 378.681
758.947, 392.734
760.237, 302.640
761.526, 198.653
762.815, 251.907
764.104, 151.625
765.392, 664.576
766.680, 875.512
767.969, 568.662
769.257, 228.382
770.544, 49.444
771.832, 95.586
773.119, 111.809
774.406, 9.905
775.693, 70.144
776.980, 12.285
778.267, 104.522
779.553, 72.758
780.839, 16.006
782.125, 106.213
783.411, 12.568
784.697, 78.636
785.982, 58.844
787.267, 55.050
788.552, 100.257
789.837, 27.467
791.122, 25.673
792.406, 63.878
793.690, 37.918
794.974, 82.257
796.258, 13.432
797.542, 23.399
798.825, 5.749
800.108, 71.110
801.391, 50.015
802.674, 69.953
803.957, 1.064
805.239, 6.074
806.522, 21.923
807.804, 20.937
809.085, 9.970
810.367, 5.983
811.649, 25.929
812.930, 36.127
814.211, 6.791
815.492, 40.701
816.772, 1.390
818.053, 32.508
819.333, 55.598
820.613, 20.258
821.893, 11.108
823.173, 14.047
824.452, 43.778
825.732, 57.401
827.011, 53.379
828.290, 8.845
829.568, 79.085
830.847, 47.624
832.125, 35.672
833.403, 9.669
834.681, 146.662
835.959, 25.684
837.236, 23.948
838.514, 19.426
839.791, 19.821
841.068, 36.765
842.345, 25.655
843.621, 46.903
844.898, 16.456
846.174, 7.996
847.450, 101.538
848.726, 49.068
850.001, 111.594
851.277, 96.116
852.552, 23.635
853.827, 99.153
855.102, 12.668
856.376, 97.178
857.651, 121.685
858.925, 54.188
860.199, 111.689
861.473, 120.188
862.746, 101.683
864.020, 189.175
865.293, 111.665
866.566, 252.152
867.839, 130.639
869.112, 179.123
870.384, 248.613
871.656, 142.099
872.928, 245.583
874.200, 135.083
875.472, 200.579
876.744, 233.075
878.015, 206.575
879.286, 250.073
880.557, 259.576
881.828, 236.076
883.098, 340.573
884.369, 331.069
885.639, 351.563
886.909, 394.065
888.178, 393.311
889.448, 432.096
890.717, 428.608
891.987, 398.119
893.256, 424.628
894.524, 275.136
895.793, 416.641
897.061, 322.146
898.330, 271.650
899.598, 416.155
900.865, 259.678
902.133, 331.201
903.401, 378.723
904.668, 304.261
905.935, 421.799
907.202, 337.339
908.468, 378.884
909.735, 464.428
911.001, 306.983
912.267, 428.542
913.533, 414.100
914.799, 416.677
916.064, 446.251
917.330, 363.846
918.595, 582.461
919.860, 517.077
921.124, 609.704
922.389, 797.331
923.653, 722.864
924.918, 974.490
926.182, 1111.114
927.445, 1154.443
928.709, 1547.062
929.972, 1485.432
931.236, 1540.053
932.499, 1633.673
933.761, 1254.723
935.024, 1270.341
936.286, 997.567
937.549, 827.183
938.811, 893.755
940.073, 696.309
941.334, 870.923
942.596, 741.362
943.857, 675.794
945.118, 960.387
946.379, 807.125
947.640, 907.734
948.900, 857.104
950.161, 734.686
951.421, 789.829
952.681, 641.549
953.940, 701.559
955.200, 599.345
956.459, 494.257
957.719, 561.409
958.978, 478.059
960.236, 489.766
961.495, 476.081
962.753, 393.234
964.012, 428.689
965.270, 378.521
966.527, 393.721
967.785, 406.256
969.043, 351.062
970.300, 360.797
971.557, 381.363
972.814, 338.727
974.071, 433.070
975.327, 463.204
976.583, 446.767
977.840, 477.373
979.095, 397.981
980.351, 437.417
981.607, 426.678
982.862, 344.270
984.117, 481.186
985.372, 324.604
986.627, 383.245
987.882, 412.772
989.136, 336.283
990.390, 437.195
991.644, 283.096
992.898, 363.673
994.152, 460.253
995.405, 309.883
996.659, 439.391
997.912, 312.046
999.165, 390.710
1000.417, 557.368
1001.670, 409.037
1002.922, 609.721
1004.174, 557.268
1005.426, 558.956
1006.678, 691.497
1007.930, 695.365
1009.181, 721.123
1010.432, 900.007
1011.683, 718.928
1012.934, 968.631
1014.185, 941.534
1015.435, 973.242
1016.685, 1206.166
1017.935, 1039.564
1019.185, 1360.278
1020.435, 1605.937
1021.684, 1523.698
1022.934, 2299.452
1024.183, 2453.433
1025.432, 2900.155
1026.680, 3860.438
1027.929, 3746.622
1029.177, 4361.362
1030.425, 4352.875
1031.673, 3446.666
1032.921, 3406.510
1034.169, 2538.526
1035.416, 2028.322
1036.663, 1878.600
1037.911, 1469.193
1039.157, 1454.945
1040.404, 1295.866
1041.650, 1213.822
1042.897, 1317.796
1044.143, 1045.841
1045.389, 1252.692
1046.634, 1334.755
1047.880, 1269.844
1049.125, 1622.357
1050.371, 1718.617
1051.615, 1999.647
1052.860, 2451.469
1054.105, 2532.354
1055.349, 3274.365
1056.593, 3428.366
1057.837, 3343.422
1059.081, 4012.194
1060.325, 3472.750
1061.568, 3329.697
1062.812, 3331.528
1064.055, 2701.693
1065.298, 3221.566
1066.540, 3220.657
1067.783, 3295.434
1069.025, 3728.534
1070.267, 3058.699
1071.509, 3058.715
1072.751, 2722.697
1073.993, 2100.636
1075.234, 2107.560
1076.475, 1654.472
1077.716, 1498.441
1078.957, 1418.357
1080.198, 1115.312
1081.438, 1257.258
1082.679, 1079.321
1083.919, 917.425
1085.159, 963.355
1086.398, 777.178
1087.638, 767.066
1088.877, 738.811
1090.116, 594.030
1091.355, 661.894
1092.594, 578.788
1093.833, 473.006
1095.071, 535.732
1096.309, 421.752
1097.547, 516.356
1098.785, 508.083
1100.023, 370.088
1101.260, 467.050
1102.498, 362.796
1103.735, 382.933
1104.972, 475.822
1106.208, 276.664
1107.445, 434.730
1108.681, 350.635
1109.918, 264.563
1111.154, 417.381
1112.389, 278.157
1113.625, 308.887
1114.860, 354.726
1116.096, 180.782
1117.331, 316.878
1118.566, 262.656
1119.800, 254.713
1121.035, 285.607
1122.269, 228.387
1123.503, 227.365
1124.737, 192.142
1125.971, 129.913
1127.205, 148.549
1128.438, 113.681
1129.671, 143.455
1130.904, 169.249
1132.137, 141.034
1133.370, 150.915
1134.602, 136.922
1135.834, 56.752
1137.066, 180.805
1138.298, 73.583
1139.530, 98.733
1140.762, 126.874
1141.993, 92.645
1143.224, 153.855
1144.455, 81.184
1145.686, 40.076
1146.917, 198.895
1148.147, 67.843
1149.377, 108.822
1150.607, 101.613
1151.837, 17.667
1153.067, 99.033
1154.296, 63.236
1155.526, 18.924
1156.755, 46.924
1157.984, 17.587
1159.213, 10.239
1160.441, 123.013
1161.670, 16.923
1162.898, 89.805
1164.126, 14.895
1165.354, 9.509
1166.581, 116.521
1167.809, 29.502
1169.036, 59.038
1170.263, 61.759
1171.490, 65.532
1172.717, 91.938
1173.943, 4.107
1175.170, 18.625
1176.396, 109.178
1177.622, 23.273
1178.848, 66.104
1180.073, 57.005
1181.299, 16.371
1182.524, 69.729
1183.749, 33.640
1184.974, 54.349
1186.199, 101.778
1187.423, 44.298
1188.648, 36.531
1189.872, 33.130
1191.096, 17.092
1192.320, 63.796
1193.543, 14.638
1194.767, 8.816
1195.990, 2.914
1197.213, 62.318
1198.436, 24.739
1199.659, 75.011
1200.881, 55.708
1202.104, 30.271
1203.326, 33.587
1204.548, 20.655
1205.770, 88.586
1206.991, 0.402
1208.213, 52.579
1209.434, 82.738
1210.655, 41.056
1211.876, 72.764
1213.096, 20.693
1214.317, 66.257
1215.537, 18.471
1216.757, 12.339
1217.977, 40.164
1219.197, 48.001
1220.417, 58.751
1221.636, 61.612
1222.855, 64.442
1224.074, 54.156
1225.293, 66.749
1226.512, 57.332
1227.731, 58.923
1228.949, 30.465
1230.167, 26.698
1231.385, 68.270
1232.603, 95.038
1233.820, 82.696
1235.038, 120.157
1236.255, 18.909
1237.472, 87.402
1238.689, 79.821
1239.906, 19.470
1241.122, 139.848
1242.338, 51.213
1243.555, 25.271
1244.771, 156.053
1245.986, 55.551
1247.202, 66.143
1248.417, 146.413
1249.633, 31.835
1250.848, 95.365
1252.063, 106.590
1253.277, 53.227
1254.492, 93.423
1255.706, 88.606
1256.920, 115.774
1258.134, 173.926
1259.348, 24.733
1260.562, 115.307
1261.775, 62.396
1262.988, 52.782
1264.201, 231.221
1265.414, 61.241
1266.627, 103.711
1267.839, 147.750
1269.052, 81.713
1270.264, 144.114
1271.476, 181.042
1272.688, 80.979
1273.899, 154.008
1275.111, 169.879
1276.322, 144.341
1277.533, 150.158
1278.744, 111.960
1279.955, 82.092
1281.165, 122.845
1282.376, 70.580
1283.586, 168.290
1284.796, 45.980
1286.006, 48.657
1287.215, 140.333
1288.425, 37.960
1289.634, 27.568
1290.843, 104.154
1292.052, 120.678
1293.261, 88.333
1294.469, 78.833
1295.678, 22.689
1296.886, 184.989
1298.094, 139.438
1299.302, 1.839
1300.509, 136.502
1301.717, 59.669
1302.924, 184.932
1304.131, 145.052
1305.338, 106.096
1306.545, 71.586
1307.752, 75.591
1308.958, 35.775
1310.164, 190.723
1311.370, 39.180
1312.576, 44.300
1313.782, 229.628
1314.987, 91.660
1316.193, 91.816
1317.398, 203.588
1318.603, 32.399
1319.807, 124.095
1321.012, 41.581
1322.216, 98.489
1323.421, 157.598
1324.625, 2.596
1325.829, 128.138
1327.032, 126.676
1328.236, 58.407
1329.439, 168.632
1330.642, 5.522
1331.845, 57.232
1333.048, 122.811
1334.251, 34.274
1335.453, 53.700
1336.656, 135.032
1337.858, 10.534
1339.060, 117.804
1340.261, 92.527
1341.463, 23.299
1342.664, 158.321
1343.866, 66.533
1345.067, 60.933
1346.267, 152.619
1347.468, 33.782
1348.669, 88.937
1349.869, 144.081
1351.069, 34.576
1352.269, 96.964
1353.469, 5.905
1354.668, 35.324
1355.868, 134.199
1357.067, 84.349
1358.266, 51.264
1359.465, 111.482
1360.664, 7.663
1361.862, 78.111
1363.061, 71.005
1364.259, 32.914
1365.457, 96.852
1366.655, 45.101
1367.852, 20.964
1369.050, 110.902
1370.247, 107.857
1371.444, 101.726
1372.641, 114.571
1373.838, 32.710
1375.035, 93.962
1376.231, 44.879
1377.427, 24.198
1378.623, 132.833
1379.819, 37.363
1381.015, 95.813
1382.211, 148.601
1383.406, 47.656
1384.601, 164.126
1385.796, 110.694
1386.991, 69.436
1388.185, 125.886
1389.380, 64.558
1390.574, 33.148
1391.768, 123.560
1392.962, 66.943
1394.156, 37.203
1395.350, 151.642
1396.543, 14.279
1397.736, 135.642
1398.929, 162.218
1400.122, 108.658
1401.315, 169.855
1402.507, 58.016
1403.700, 22.430
1404.892, 195.445
1406.084, 30.954
1407.276, 18.960
1408.467, 185.048
1409.659, 6.296
1410.850, 87.542
1412.041, 130.289
1413.232, 6.258
1414.423, 147.645
1415.614, 94.076
1416.804, 66.951
1417.994, 160.730
1419.184, 2.497
1420.374, 142.488
1421.564, 94.706
1422.753, 11.429
1423.943, 167.303
1425.132, 98.763
1426.321, 111.940
1427.510, 187.225
1428.698, 91.646
1429.887, 85.387
1431.075, 182.223
1432.263, 126.726
1433.451, 108.192
1434.639, 111.292
1435.827, 56.917
1437.014, 186.361
1438.201, 105.535
1439.388, 30.622
1440.575, 206.375
1441.762, 122.636
1442.949, 15.727
1444.135, 234.261
1445.321, 119.933
1446.507, 140.545
1447.693, 160.730
1448.879, 10.347
1450.064, 198.164
1451.250, 154.426
1452.435, 119.274
1453.620, 124.250
1454.805, 101.117
1455.989, 30.705
1457.174, 149.881
1458.358, 38.040
1459.542, 79.108
1460.726, 228.118
1461.910, 46.818
1463.093, 179.846
1464.277, 164.655
1465.460, 123.057
1466.643, 172.555
1467.826, 147.125
1469.009, 82.344
1470.191, 219.197
1471.373, 164.721
1472.556, 128.260
1473.738, 268.786
1474.919, 47.160
1476.101, 196.612
1477.283, 166.006
1478.464, 86.068
1479.645, 250.721
1480.826, 198.176
1482.007, 12.453
1483.187, 222.963
1484.368, 54.493
1485.548, 136.110
1486.728, 274.694
1487.908, 7.525
1489.088, 105.370
1490.268, 172.859
1491.447, 44.130
1492.626, 146.882
1493.805, 101.720
1494.984, 77.639
1496.163, 236.687
1497.341, 157.407
1498.520, 153.551
1499.698, 229.816
1500.876, 59.334
1502.054, 86.516
1503.232, 197.967
1504.409, 75.072
1505.586, 183.951
1506.763, 250.583
1507.940, 6.317
1509.117, 264.190
1510.294, 131.073
1511.470, 73.754
1512.647, 244.442
1513.823, 92.640
1514.999, 194.988
1516.174, 229.216
1517.350, 0.750
1518.526, 0.000
##END=



