##NAMES=Actinolite
##RRUFFID=R050336
##IDEAL CHEMISTRY=Ca_2_(Mg_4.5-2.5_Fe^2+^_0.5-2.5_)Si_8_O_22_(OH)_2_
##LOCALITY=Kragerø, Norway
##OWNER=RRUFF
##SOURCE=California Institute of Technology
##DESCRIPTION=Dark green prismatic fragment
##STATUS=The identification of this mineral has been confirmed by X-ray diffraction and chemical analysis
##URL=rruff.info/R050336
##MEASURED CHEMISTRY=([box]_0.62_Na_0.34_K_0.04_)(Ca_1.60_Na_0.40_)_Σ=2_(Mg_3.90_Fe^2+^_0.70_Al_0.20_Ti_0.10_Fe^3+^_0.10_)_Σ=5_(Si_7.52_Al_0.48_)_Σ=8_O_22_((OH)_0.97_F_0.03_)_2_
##PIN_ID=M00375
##ORIENTATION=Laser parallel to b* (0 1 0). Fiducial mark perpendicular to laser is parallel to -c [0 0 -1]
142.3590, 0.0000000E+00
143.5880, 168.9265
144.8170, 43.30127
146.0460, 57.92822
147.2750, 413.3564
148.5030, 954.3291
149.7320, 1802.540
150.9600, 2622.662
152.1880, 3782.466
153.4160, 5028.701
154.6440, 6576.816
155.8720, 8385.991
157.0990, 10337.02
158.3270, 11718.60
159.5540, 12845.93
160.7810, 12965.16
162.0080, 12348.55
163.2350, 11043.75
164.4610, 9649.743
165.6880, 8508.765
166.9140, 7459.216
168.1400, 7160.624
169.3660, 7293.596
170.5920, 7553.827
171.8180, 8023.048
173.0430, 8750.478
174.2690, 9570.558
175.4940, 10147.01
176.7190, 10490.16
177.9440, 10461.34
179.1680, 10329.90
180.3930, 9688.581
181.6170, 8805.598
182.8420, 7911.075
184.0660, 6862.150
185.2900, 5982.936
186.5140, 4941.513
187.7370, 4268.930
188.9610, 3669.231
190.1840, 3255.451
191.4070, 2934.618
192.6300, 2667.015
193.8530, 2544.903
195.0760, 2494.059
196.2980, 2497.238
197.5210, 2707.446
198.7430, 2595.688
199.9650, 3031.967
201.1870, 3216.287
202.4090, 3571.052
203.6310, 3884.753
204.8520, 4447.888
206.0730, 4960.768
207.2950, 5948.729
208.5160, 6838.391
209.7360, 7806.910
210.9570, 9079.553
212.1780, 10371.56
213.3980, 11861.75
214.6180, 13327.22
215.8380, 14615.86
217.0580, 16117.40
218.2780, 17565.99
219.4980, 18572.83
220.7170, 19197.10
221.9360, 19202.01
223.1560, 18947.67
224.3750, 17790.06
225.5930, 16324.12
226.8120, 14508.74
228.0310, 12595.89
229.2490, 10583.41
230.4670, 8908.221
231.6850, 7268.302
232.9030, 6000.619
234.1210, 4984.161
235.3380, 4185.914
236.5560, 3487.881
237.7730, 2824.071
238.9900, 2470.464
240.2070, 2050.069
241.4240, 1797.898
242.6410, 1542.926
243.8570, 1527.116
245.0730, 1403.455
246.2900, 1352.931
247.5060, 1324.524
248.7210, 1194.209
249.9370, 1158.965
251.1530, 1105.779
252.3680, 923.6523
253.5830, 785.5835
254.7980, 630.5718
256.0130, 577.6162
257.2280, 342.7153
258.4430, 376.8677
259.6570, 361.0723
260.8720, 25.32666
262.0860, 77.37061
263.3000, 99.02100
264.5130, 342.6270
265.7270, 383.1899
266.9410, 422.7119
268.1540, 403.1948
269.3670, 437.6411
270.5800, 447.0518
271.7930, 505.4292
273.0060, 544.7754
274.2190, 496.0928
275.4310, 429.4053
276.6430, 317.8311
277.8550, 299.5684
279.0670, 275.6455
280.2790, 156.0967
281.4910, 81.97705
282.7020, 77.82031
283.9140, 254.4106
285.1250, 250.9072
286.3360, 651.4385
287.5470, 757.0229
288.7570, 865.7207
289.9680, 1207.963
291.1780, 1349.951
292.3880, 1559.622
293.5990, 1731.629
294.8080, 2097.014
296.0180, 2269.604
297.2280, 2413.543
298.4370, 2829.530
299.6470, 2857.641
300.8560, 3016.998
302.0650, 2963.708
303.2740, 2935.208
304.4820, 2896.745
305.6910, 2628.054
306.8990, 2479.949
308.1070, 2433.578
309.3150, 2255.038
310.5230, 2103.896
311.7310, 2019.482
312.9390, 1965.880
314.1460, 2022.464
315.3530, 1957.503
316.5600, 1944.162
317.7670, 2052.079
318.9740, 2029.214
320.1810, 2033.337
321.3870, 2099.574
322.5930, 2178.587
323.8000, 2363.929
325.0060, 2422.083
326.2110, 2554.949
327.4170, 2682.992
328.6230, 2950.869
329.8280, 2895.314
331.0330, 2979.938
332.2380, 2947.707
333.4430, 2864.161
334.6480, 2724.385
335.8530, 2582.907
337.0570, 2467.695
338.2610, 2070.273
339.4650, 2078.594
340.6690, 1854.124
341.8730, 1545.298
343.0770, 1545.453
344.2800, 1380.182
345.4840, 1207.112
346.6870, 1111.818
347.8900, 1009.465
349.0930, 914.8843
350.2950, 922.9072
351.4980, 939.5259
352.7000, 878.6958
353.9030, 742.3845
355.1050, 778.7498
356.3070, 821.8821
357.5080, 668.9292
358.7100, 672.0027
359.9110, 706.1008
361.1130, 771.2231
362.3140, 696.3694
363.5150, 789.5396
364.7160, 863.7322
365.9160, 935.9448
367.1170, 1042.175
368.3170, 1148.418
369.5170, 1186.671
370.7170, 1248.932
371.9170, 1209.195
373.1170, 1340.460
374.3170, 1245.724
375.5160, 1384.986
376.7150, 1434.244
377.9140, 1613.496
379.1130, 1630.742
380.3120, 1879.979
381.5110, 2147.208
382.7090, 2372.427
383.9070, 2705.634
385.1060, 3201.827
386.3040, 3408.007
387.5010, 3858.171
388.6990, 4119.319
389.8970, 4410.450
391.0940, 4653.564
392.2910, 4584.657
393.4880, 4546.731
394.6850, 4308.786
395.8820, 3897.819
397.0780, 3310.832
398.2750, 2982.823
399.4710, 2550.793
400.6670, 2179.739
401.8630, 1855.664
403.0590, 1746.564
404.2540, 1634.440
405.4500, 1606.292
406.6450, 1542.053
407.8400, 1510.936
409.0350, 1597.430
410.2300, 1706.802
411.4250, 1737.972
412.6190, 1834.100
413.8140, 1785.250
415.0080, 1652.784
416.2020, 1636.040
417.3960, 1397.053
418.5900, 1344.612
419.7830, 1144.696
420.9770, 996.5991
422.1700, 798.3516
423.3630, 633.2480
424.5560, 544.8687
425.7490, 501.7004
426.9410, 439.1360
428.1340, 380.5576
429.3260, 348.4744
430.5180, 337.3591
431.7100, 278.7383
432.9020, 234.1492
434.0940, 196.5930
435.2850, 139.8831
436.4770, 75.55029
437.6680, 41.02637
438.8590, 16.47656
440.0500, 24.11646
441.2410, 107.7793
442.4310, 114.5593
443.6220, 156.4648
444.8120, 169.2800
446.0020, 174.0396
447.1920, 167.6479
448.3820, 157.7539
449.5710, 129.7124
450.7610, 104.5261
451.9500, 96.73291
453.1390, 32.94531
454.3280, 86.32959
455.5170, 27.39795
456.7060, 69.05762
457.8940, 45.92603
459.0830, 127.8066
460.2710, 129.5281
461.4590, 133.9988
462.6470, 205.1558
463.8350, 205.7578
465.0220, 205.9456
466.2100, 234.5793
467.3970, 222.0852
468.5840, 261.6445
469.7710, 235.7009
470.9580, 258.7053
472.1440, 152.5051
473.3310, 191.2402
474.5170, 184.9185
475.7030, 203.5378
476.8890, 219.1016
478.0750, 152.6116
479.2610, 187.0557
480.4460, 114.4404
481.6320, 162.7495
482.8170, 153.9944
484.0020, 226.1726
485.1870, 228.2966
486.3710, 294.3662
487.5560, 251.3865
488.7400, 305.3550
489.9250, 358.2742
491.1090, 359.1445
492.2930, 396.9666
493.4760, 434.7427
494.6600, 480.4741
495.8440, 523.9048
497.0270, 546.8105
498.2100, 625.4194
499.3930, 660.9900
500.5760, 726.5229
501.7580, 721.0173
502.9410, 793.4736
504.1230, 905.8914
505.3060, 875.2703
506.4880, 845.6099
507.6690, 963.9106
508.8510, 965.1724
510.0330, 1094.394
511.2140, 1098.576
512.3950, 1160.719
513.5760, 1181.821
514.7570, 1237.108
515.9380, 1279.555
517.1190, 1341.889
518.2990, 1363.831
519.4800, 1386.732
520.6600, 1418.594
521.8400, 1462.415
523.0190, 1632.195
524.1990, 1675.935
525.3790, 1801.635
526.5580, 1800.293
527.7370, 1960.912
528.9160, 2044.490
530.0950, 2145.027
531.2740, 2137.524
532.4520, 2141.979
533.6310, 2231.396
534.8090, 2188.771
535.9870, 2292.106
537.1650, 2228.400
538.3430, 2100.654
539.5200, 2134.868
540.6980, 2077.041
541.8750, 1962.174
543.0520, 1950.267
544.2290, 1983.320
545.4060, 1847.333
546.5820, 1786.305
547.7590, 1783.240
548.9350, 1558.152
550.1110, 1626.045
551.2870, 1636.968
552.4630, 1503.933
553.6390, 1524.950
554.8140, 1508.025
555.9900, 1398.168
557.1650, 1342.381
558.3400, 1280.473
559.5150, 1219.076
560.6900, 1134.557
561.8640, 1092.105
563.0390, 994.6992
564.2130, 942.3267
565.3870, 903.9893
566.5610, 862.6611
567.7350, 832.3203
568.9080, 825.9438
570.0820, 808.5432
571.2550, 779.1057
572.4280, 806.6448
573.6010, 783.1492
574.7740, 621.6177
575.9470, 670.0510
577.1190, 583.4548
578.2920, 605.8843
579.4640, 547.0632
580.6360, 510.9705
581.8080, 499.3235
582.9790, 455.3127
584.1510, 315.7642
585.3220, 252.4824
586.4940, 213.3003
587.6650, 207.7244
588.8360, 123.4580
590.0060, 103.7217
591.1770, 55.66187
592.3470, 4.923828
593.5180, 59.16943
594.6880, 60.66748
595.8580, 135.7830
597.0280, 100.6340
598.1970, 156.6003
599.3670, 158.9768
600.5360, 93.94214
601.7050, 123.1252
602.8740, 119.5122
604.0430, 79.90479
605.2120, 74.45825
606.3800, 36.82910
607.5490, 2.644043
608.7170, 96.70557
609.8850, 143.2988
611.0530, 142.6787
612.2210, 243.1902
613.3880, 267.0994
614.5560, 331.7979
615.7230, 376.3193
616.8900, 423.1257
618.0570, 508.1316
619.2240, 587.8091
620.3900, 645.1902
621.5570, 690.7502
622.7230, 783.5376
623.8890, 884.0845
625.0550, 937.9565
626.2210, 1028.816
627.3870, 1122.070
628.5520, 1285.091
629.7180, 1437.303
630.8830, 1627.495
632.0480, 1707.668
633.2130, 1837.820
634.3770, 1960.953
635.5420, 2134.109
636.7060, 2361.161
637.8710, 2568.237
639.0350, 2861.294
640.1990, 3191.332
641.3620, 3388.352
642.5260, 3802.354
643.6890, 4154.338
644.8530, 4501.303
646.0160, 4958.252
647.1790, 5358.184
648.3410, 5842.097
649.5040, 6490.995
650.6670, 7149.874
651.8290, 7837.737
652.9910, 8829.585
654.1530, 9628.417
655.3150, 10989.23
656.4770, 12344.03
657.6380, 14039.82
658.7990, 16096.58
659.9610, 18606.34
661.1220, 21646.08
662.2830, 25125.80
663.4430, 29328.51
664.6040, 33721.20
665.7640, 39092.89
666.9240, 44216.55
668.0850, 48799.21
669.2440, 53111.85
670.4040, 56337.48
671.5640, 57357.09
672.7230, 57134.70
673.8830, 54463.29
675.0420, 50157.86
676.2010, 44306.43
677.3590, 38069.99
678.5180, 31859.52
679.6770, 26473.06
680.8350, 22102.58
681.9930, 18318.09
683.1510, 15250.59
684.3090, 12957.07
685.4670, 11090.55
686.6240, 9682.023
687.7810, 8393.481
688.9390, 7419.931
690.0960, 6665.372
691.2530, 5969.962
692.4090, 5491.053
693.5660, 5019.261
694.7220, 4591.908
695.8790, 4201.121
697.0350, 3835.417
698.1910, 3640.627
699.3460, 3282.609
700.5020, 3236.235
701.6570, 2983.244
702.8130, 2957.561
703.9680, 2734.103
705.1230, 2733.675
706.2780, 2591.009
707.4320, 2523.935
708.5870, 2553.156
709.7410, 2539.776
710.8950, 2611.274
712.0490, 2618.215
713.2030, 2526.976
714.3570, 2606.925
715.5100, 2590.054
716.6640, 2677.941
717.8170, 2653.333
718.9700, 2620.481
720.1230, 2690.335
721.2760, 2753.417
722.4280, 2715.608
723.5810, 2794.100
724.7330, 2768.495
725.8850, 2861.068
727.0370, 2902.254
728.1890, 2879.848
729.3400, 2921.398
730.4920, 3002.402
731.6430, 2853.037
732.7940, 2927.941
733.9450, 2837.776
735.0960, 2916.199
736.2460, 2876.016
737.3970, 2776.360
738.5470, 2806.623
739.6970, 2640.990
740.8470, 2653.552
741.9970, 2615.370
743.1470, 2536.691
744.2970, 2491.373
745.4460, 2423.620
746.5950, 2337.820
747.7440, 2285.035
748.8930, 2146.584
750.0420, 2122.195
751.1900, 2000.959
752.3390, 1849.731
753.4870, 1840.506
754.6350, 1683.286
755.7830, 1667.068
756.9310, 1527.852
758.0780, 1353.645
759.2260, 1316.442
760.3730, 1274.252
761.5200, 1113.071
762.6670, 1114.899
763.8140, 947.7302
764.9610, 946.5645
766.1070, 933.4004
767.2530, 787.2388
768.4000, 673.0781
769.5460, 762.9197
770.6910, 674.7632
771.8370, 581.6086
772.9830, 671.4565
774.1280, 537.3074
775.2730, 579.1606
776.4180, 583.0168
777.5630, 533.8765
778.7080, 507.7393
779.8520, 551.6057
780.9970, 513.5593
782.1410, 542.3508
783.2850, 495.2292
784.4290, 500.1125
785.5730, 478.2290
786.7160, 469.2524
787.8600, 499.7900
789.0030, 459.6926
790.1460, 468.6006
791.2890, 458.5144
792.4320, 413.4336
793.5750, 450.3589
794.7170, 400.2898
795.8590, 420.2275
797.0020, 427.1716
798.1440, 402.1223
799.2850, 391.0796
800.4270, 369.0442
801.5690, 287.0161
802.7100, 272.9951
803.8510, 197.9817
804.9920, 160.9758
806.1330, 155.9778
807.2740, 154.9873
808.4140, 164.0054
809.5550, 88.03149
810.6950, 160.0659
811.8350, 69.10938
812.9750, 73.16113
814.1150, 89.22144
815.2540, 14.29102
816.3940, 54.36963
817.5330, 12.45752
818.6720, 72.55444
819.8110, 76.66089
820.9500, 19.77734
822.0880, 129.9031
823.2270, 94.83228
824.3650, 92.18530
825.5030, 93.34131
826.6410, 47.50757
827.7790, 0.3159180
828.9170, 13.78662
830.0540, 55.94653
831.1920, 63.77734
832.3290, 56.62769
833.4660, 75.49463
834.6030, 74.38672
835.7390, 70.88647
836.8760, 65.24292
838.0120, 72.20190
839.1480, 42.18384
840.2840, 65.17383
841.4200, 66.18311
842.5560, 23.21118
843.6920, 14.23877
844.8270, 61.26196
845.9620, 7.301025
847.0970, 67.33301
848.2320, 16.38354
849.3670, 12.42920
850.5020, 17.46973
851.6360, 43.50586
852.7700, 16.91309
853.9040, 49.58521
855.0380, 6.369141
856.1720, 16.66431
857.3060, 43.69189
858.4390, 23.72534
859.5730, 50.75610
860.7060, 71.79517
861.8390, 59.85059
862.9720, 49.91650
864.1040, 72.98853
865.2370, 92.07324
866.3690, 12.17969
867.5010, 21.27051
868.6330, 71.33936
869.7650, 55.60522
870.8970, 67.59375
872.0290, 27.64404
873.1600, 102.7466
874.2910, 27.91553
875.4220, 239.1519
876.5530, 188.4380
877.6840, 155.7822
878.8140, 286.1826
879.9450, 225.6292
881.0750, 317.1206
882.2050, 424.6316
883.3350, 430.1687
884.4650, 440.7217
885.5950, 447.2878
886.7240, 484.8682
887.8530, 524.6021
888.9820, 580.0693
890.1110, 634.6899
891.2400, 706.3237
892.3690, 766.9712
893.4970, 743.6411
894.6260, 822.3259
895.7540, 864.0371
896.8820, 906.7773
898.0100, 1012.540
899.1370, 1017.330
900.2650, 1123.136
901.3920, 1078.968
902.5200, 1192.827
903.6470, 1335.730
904.7730, 1339.666
905.9000, 1586.625
907.0270, 1574.600
908.1530, 1791.604
909.2790, 1932.632
910.4050, 2106.691
911.5310, 2228.772
912.6570, 2519.872
913.7830, 2615.999
914.9080, 2809.158
916.0330, 3174.343
917.1580, 3430.553
918.2830, 3665.788
919.4080, 4022.047
920.5330, 4382.323
921.6570, 4697.627
922.7820, 5007.948
923.9060, 5353.303
925.0300, 5701.673
926.1540, 5834.062
927.2770, 6024.467
928.4010, 5838.897
929.5240, 5717.355
930.6470, 5406.844
931.7700, 5007.361
932.8930, 4606.896
934.0160, 4192.458
935.1380, 3754.037
936.2610, 3453.630
937.3830, 3126.245
938.5050, 2777.877
939.6270, 2583.528
940.7490, 2394.201
941.8700, 2297.889
942.9910, 2117.592
944.1130, 2070.316
945.2340, 1986.056
946.3550, 1919.811
947.4750, 1871.588
948.5960, 1818.385
949.7160, 1771.543
950.8370, 1716.249
951.9570, 1670.900
953.0770, 1624.770
954.1970, 1588.438
955.3160, 1531.555
956.4360, 1517.469
957.5550, 1457.398
958.6740, 1405.340
959.7930, 1441.296
960.9120, 1364.266
962.0310, 1391.249
963.1490, 1462.084
964.2670, 1384.424
965.3860, 1339.654
966.5040, 1339.446
967.6210, 1403.679
968.7390, 1249.831
969.8570, 1281.073
970.9740, 1199.546
972.0910, 1228.376
973.2080, 1201.825
974.3250, 1195.970
975.4420, 1209.890
976.5580, 1094.782
977.6750, 1061.913
978.7910, 1003.454
979.9070, 984.7019
981.0230, 1011.552
982.1390, 1007.527
983.2540, 943.0605
984.3700, 998.7764
985.4850, 966.3081
986.6000, 1047.660
987.7150, 1017.260
988.8300, 1036.362
989.9450, 991.7246
991.0590, 1070.403
992.1730, 1086.885
993.2880, 1159.314
994.4010, 1189.499
995.5150, 1205.607
996.6290, 1305.395
997.7420, 1349.712
998.8560, 1417.860
999.9690, 1493.992
1001.082, 1630.043
1002.195, 1637.776
1003.307, 1749.165
1004.420, 1771.730
1005.532, 1834.312
1006.645, 1836.907
1007.757, 1894.518
1008.868, 1945.144
1009.980, 2022.783
1011.092, 2014.437
1012.203, 2180.103
1013.314, 2152.783
1014.425, 2154.476
1015.536, 2368.181
1016.647, 2333.898
1017.758, 2418.629
1018.868, 2478.372
1019.978, 2518.152
1021.088, 2644.991
1022.198, 2779.906
1023.308, 2925.770
1024.418, 3022.637
1025.527, 3117.581
1026.637, 3247.318
1027.746, 3411.410
1028.855, 3527.139
1029.963, 3743.555
1031.072, 3927.400
1032.181, 4190.186
1033.289, 4291.835
1034.397, 4657.058
1035.505, 4897.286
1036.613, 5262.160
1037.721, 5512.655
1038.828, 5954.460
1039.935, 6500.782
1041.043, 6803.302
1042.150, 7398.392
1043.257, 7761.376
1044.363, 8693.118
1045.470, 9254.060
1046.576, 9909.903
1047.682, 10809.08
1048.788, 11788.78
1049.894, 12532.37
1051.000, 13627.55
1052.106, 14630.81
1053.211, 15604.41
1054.316, 16452.93
1055.421, 17217.29
1056.526, 17826.11
1057.631, 17936.62
1058.736, 17851.36
1059.840, 17360.91
1060.944, 16660.43
1062.049, 15665.62
1063.153, 14603.16
1064.256, 13476.08
1065.360, 12060.50
1066.463, 10771.60
1067.567, 9508.274
1068.670, 8585.696
1069.773, 7570.369
1070.876, 6775.044
1071.978, 5891.150
1073.081, 5263.447
1074.183, 4786.297
1075.285, 4247.792
1076.387, 3818.526
1077.489, 3577.833
1078.591, 3170.359
1079.692, 2926.139
1080.794, 2773.601
1081.895, 2547.065
1082.996, 2316.117
1084.097, 2182.404
1085.198, 1955.071
1086.298, 1955.442
1087.399, 1779.799
1088.499, 1592.173
1089.599, 1567.358
1090.699, 1403.589
1091.799, 1358.735
1092.898, 1326.880
1093.998, 1274.967
1095.097, 1089.161
1096.196, 1137.394
1097.295, 1071.767
1098.394, 1027.273
1099.492, 1043.688
1100.591, 998.0608
1101.689, 925.3606
1102.787, 826.6011
1103.885, 863.8689
1104.983, 844.1760
1106.081, 765.5583
1107.178, 759.8423
1108.275, 763.1355
1109.373, 780.4336
1110.470, 778.7686
1111.566, 756.3467
1112.663, 661.4194
1113.760, 707.7002
1114.856, 644.0061
1115.952, 640.2930
1117.048, 623.5923
1118.144, 600.8928
1119.240, 565.9839
1120.335, 556.6079
1121.431, 476.9583
1122.526, 445.2577
1123.621, 398.5408
1124.716, 447.7168
1125.810, 378.8542
1126.905, 394.9958
1127.999, 347.2631
1129.094, 325.4167
1130.188, 346.6062
1131.282, 292.9825
1132.375, 353.1561
1133.469, 287.3325
1134.562, 262.7174
1135.656, 285.8866
1136.749, 228.0461
1137.842, 187.1963
1138.935, 211.4993
1140.027, 196.6295
1141.120, 203.7495
1142.212, 166.8593
1143.304, 118.9584
1144.396, 135.0474
1145.488, 86.12573
1146.579, 92.19360
1147.671, 82.25073
1148.762, 49.29797
1149.853, 65.36389
1150.944, 40.38855
1152.035, 31.40112
1153.126, 17.40112
1154.216, 34.38782
1155.307, 38.36145
1156.397, 24.32214
1157.487, 25.73083
1158.577, 4.184814
1159.667, 39.91492
1160.756, 50.05359
1161.846, 24.23779
1162.935, 38.45325
1164.024, 3.708740
1165.113, 27.98657
1166.201, 43.29956
1167.290, 100.6561
1168.378, 62.08704
1169.467, 18.57239
1170.555, 7.910278
1171.643, 44.62537
1172.730, 21.20752
1173.818, 50.82397
1174.905, 14.49084
1175.993, 1.189087
1177.080, 30.91260
1178.167, 51.67676
1179.254, 27.49316
1180.340, 25.34924
1181.427, 18.24451
1182.513, 19.17505
1183.599, 9.858154
1184.685, 38.13037
1185.771, 26.83423
1186.856, 58.21973
1187.942, 16.66821
1189.027, 9.535645
1190.112, 16.38000
1191.197, 19.79688
1192.282, 30.01233
1193.367, 35.27222
1194.451, 40.99854
1195.536, 30.06250
1196.620, 27.31519
1197.704, 16.26318
1198.788, 32.81909
1199.872, 3.645020
1200.955, 17.85876
1202.039, 6.339844
1203.122, 7.206177
1204.205, 76.21338
1205.288, 30.61462
1206.370, 3.005127
1207.453, 52.34241
1208.535, 29.67065
1209.618, 3.022705
1210.700, 2.250488
1211.782, 13.50684
1212.863, 10.69666
1213.945, 59.87329
1215.026, 24.03052
1216.108, 48.16431
1217.189, 50.27783
1218.270, 48.37097
1219.351, 84.44360
1220.431, 73.49731
1221.512, 93.53149
1222.592, 93.78308
1223.672, 107.5437
1224.752, 81.52197
1225.832, 72.48511
1226.911, 50.45728
1227.991, 38.37561
1229.070, 48.80469
1230.149, 55.60754
1231.228, 70.00000
1232.307, 87.83313
1233.386, 84.64636
1234.464, 78.45178
1235.543, 64.22449
1236.621, 88.97607
1237.699, 89.70728
1238.777, 91.48425
1239.855, 83.22400
1240.932, 89.89258
1242.009, 83.63770
1243.087, 98.26746
1244.164, 94.92175
1245.241, 99.40930
1246.317, 96.12744
1247.394, 95.67493
1248.470, 83.24097
1249.546, 82.78833
1250.623, 85.80750
1251.698, 96.69336
1252.774, 100.1353
1253.850, 126.8575
1254.925, 143.3779
1256.000, 147.5227
1257.076, 108.5044
1258.150, 139.9219
1259.225, 129.3020
1260.300, 86.60339
1261.374, 157.8871
1262.449, 136.1508
1263.523, 85.54980
1264.597, 178.7717
1265.670, 202.0183
1266.744, 163.2737
1267.818, 100.4354
1268.891, 184.5756
1269.964, 172.7400
1271.037, 178.8759
1272.110, 182.9747
1273.183, 187.1581
1274.255, 197.3046
1275.327, 150.4320
1276.400, 153.5591
1277.472, 167.8933
1278.543, 133.8981
1279.615, 153.9331
1280.687, 237.8352
1281.758, 166.7006
1282.829, 187.4520
1283.900, 242.2799
1284.971, 213.0654
1286.042, 185.7651
1287.112, 168.6649
1288.183, 181.1650
1289.253, 224.2140
1290.323, 207.4100
1291.393, 234.2678
1292.463, 220.0779
1293.532, 225.0128
1294.602, 193.3926
1295.671, 197.7328
1296.740, 249.4198
1297.809, 147.4758
1298.878, 191.2421
1299.946, 216.4534
1301.015, 190.4576
1302.083, 236.8835
1303.151, 118.4288
1304.219, 148.1830
1305.287, 142.7404
1306.354, 193.3732
1307.422, 115.6584
1308.489, 167.4189
1309.556, 162.2721
1310.623, 96.53040
1311.690, 194.6913
1312.757, 158.5087
1313.823, 107.3986
1314.890, 124.4370
1315.956, 148.9894
1317.022, 145.8468
1318.088, 187.4808
1319.153, 134.2749
1320.219, 126.0948
1321.284, 158.2390
1322.349, 146.0194
1323.414, 92.40796
1324.479, 165.2841
1325.544, 112.4689
1326.608, 147.0707
1327.673, 95.91382
1328.737, 148.4955
1329.801, 115.0626
1330.865, 112.1884
1331.929, 125.4607
1332.992, 159.4717
1334.056, 112.1765
1335.119, 171.6481
1336.182, 162.5161
1337.245, 97.15393
1338.308, 125.5275
1339.370, 114.2064
1340.433, 109.8708
1341.495, 130.9348
1342.557, 94.75330
1343.619, 123.1780
1344.681, 115.8866
1345.742, 150.6140
1346.804, 77.29590
1347.865, 157.1521
1348.926, 129.9482
1349.987, 95.81555
1351.048, 114.6876
1352.108, 104.5894
1353.169, 45.37061
1354.229, 38.14026
1355.289, 64.72620
1356.349, 100.1765
1357.409, 97.71814
1358.469, 60.30286
1359.528, 45.96313
1360.588, 104.6870
1361.647, 40.38708
1362.706, 133.0505
1363.765, 53.64343
1364.823, 53.33020
1365.882, 26.00964
1366.940, 29.68689
1367.998, 89.31970
1369.056, 18.02917
1370.114, 53.94788
1371.172, 65.61584
1372.229, 43.26111
1373.287, 16.95984
1374.344, 61.59277
1375.401, 29.21558
1376.458, 92.77820
1377.515, 53.33118
1378.571, 51.88916
1379.628, 71.48535
1380.684, 7.911255
1381.740, 7.795044
1382.796, 9.454346
1383.852, 24.36523
1384.907, 16.97168
1385.963, 20.70178
1387.018, 85.38208
1388.073, 44.84387
1389.128, 60.54785
1390.183, 0.7611080
1391.237, 58.75073
1392.292, 22.46350
1393.346, 15.14856
1394.400, 51.82935
1395.454, 59.36035
1396.508, 21.03333
1397.562, 22.82129
1398.615, 26.48694
1399.668, 1.265259
1400.722, 4.948608
1401.775, 7.065308
1402.827, 2.016235
1403.880, 10.63159
1404.933, 21.00891
1405.985, 8.618286
1407.037, 47.29358
1408.089, 21.92737
1409.141, 28.55994
1410.193, 20.28394
1411.244, 63.91443
1412.295, 29.54248
1413.347, 74.17017
1414.398, 16.92725
1415.449, 6.541138
1416.499, 63.19617
1417.550, 1.835571
1418.600, 31.47949
1419.650, 25.13245
1420.700, 18.74512
1421.750, 72.43774
1422.800, 62.06812
1423.850, 66.20667
1424.899, 16.58484
1425.948, 55.26440
1426.997, 37.92322
1428.046, 32.58960
1429.095, 16.25806
1430.144, 37.93726
1431.192, 18.61499
1432.240, 73.27686
1433.288, 64.38037
1434.336, 98.68091
1435.384, 75.36072
1436.432, 72.14124
1437.479, 74.16870
1438.526, 76.38928
1439.574, 72.06738
1440.621, 98.77124
1441.667, 60.49146
1442.714, 95.21912
1443.760, 93.99182
1444.807, 89.80737
1445.853, 87.64673
1446.899, 79.99683
1447.945, 69.87109
1448.990, 61.22168
1450.036, 62.10132
1451.081, 48.98743
1452.126, 81.89514
1453.171, 116.8345
1454.216, 92.78015
1455.261, 59.72974
1456.305, 89.68140
1457.350, 115.6329
1458.394, 19.58374
1459.438, 40.49097
1460.482, 13.44690
1461.526, 54.40967
1462.569, 75.37659
1463.612, 92.33167
1464.656, 48.30688
1465.699, 31.13831
1466.742, 54.99805
1467.784, 102.9802
1468.827, 57.84351
1469.869, 54.78198
1470.912, 13.77991
1471.954, 97.78516
1472.996, 69.21643
1474.037, 90.69019
1475.079, 42.50769
1476.120, 13.51379
1477.162, 18.29529
1478.203, 27.24109
1479.244, 8.148193
1480.284, 16.60999
1481.325, 52.05151
1482.365, 18.73352
1483.406, 40.40698
1484.446, 50.81946
1485.486, 33.69861
1486.526, 61.67761
1487.565, 37.65662
1488.605, 29.69653
1489.644, 19.53748
1490.683, 50.42163
1491.722, 38.48279
1492.761, 27.51111
1493.800, 4.591064
1494.838, 9.373291
1495.876, 40.72339
1496.915, 25.78259
1497.953, 8.873291
1498.990, 47.00122
1500.028, 38.13928
1501.066, 22.28638
1502.103, 27.44995
1503.140, 23.62585
1504.177, 21.81274
1505.214, 51.00891
1506.251, 34.21387
1507.287, 18.42688
1508.324, 0.6475830
1509.360, 69.87427
1510.396, 20.10779
1511.432, 68.34875
1512.468, 19.44641
1513.503, 35.80896
1514.538, 43.07349
1515.574, 15.34998
1516.609, 19.63806
1517.644, 57.89294
1518.678, 32.21924
1519.713, 22.52307
1520.747, 67.88855
1521.782, 0.1456300
1522.816, 39.54504
1523.850, 0.9816890
1524.883, 23.44885
1525.917, 23.06360
1526.951, 40.45166
1527.984, 31.99036
1529.017, 71.22485
1530.050, 31.76807
1531.083, 23.16309
1532.115, 91.74353
1533.148, 54.34534
1534.180, 12.96838
1535.212, 59.55273
1536.244, 54.80115
1537.276, 56.42358
1538.308, 4.209839
1539.339, 55.51282
1540.370, 28.89648
1541.402, 50.31140
1542.433, 60.09546
1543.463, 59.82129
1544.494, 56.69751
1545.525, 13.87097
1546.555, 46.61169
1547.585, 23.90967
1548.615, 0.5292970
1549.645, 29.70557
1550.675, 52.35986
1551.704, 37.97717
1552.734, 124.6005
1553.763, 103.4948
1554.792, 91.59827
1555.821, 72.06055
1556.849, 111.3229
1557.878, 19.74084
1558.906, 60.92969
1559.935, 16.03162
1560.963, 0.1877440
1561.991, 0.0000000E+00
##END=



