##NAMES=Actinolite
##RRUFFID=R050025
##IDEAL CHEMISTRY=Ca_2_(Mg_4.5-2.5_Fe^2+^_0.5-2.5_)Si_8_O_22_(OH)_2_
##LOCALITY=Tyrol, Austria
##OWNER=RRUFF
##SOURCE=Eugene Schlepp
##DESCRIPTION=Green colored bladed single crystals
##STATUS=The identification of this mineral has been confirmed by X-ray diffraction and chemical analysis
##URL=rruff.info/R050025
##MEASURED CHEMISTRY=(Ca_.930_Na_.056_Mn_.010_K_.004_)_2_(Mg_.883_Fe_.117_)_5_(Si_.978_Al_.022_)_8_O_22_(OH)_2_
##PIN_ID=L00400
##ORIENTATION=Laser parallel to c* (0 0 1). Fiducial mark perpendicular to laser is parallel to a [1 0 0]
102.428, 0.000
103.820, 1.069
105.212, 50.037
106.604, 160.391
107.995, 185.940
109.387, 185.987
110.777, 178.495
112.168, 234.186
113.559, 373.550
114.949, 517.505
116.339, 731.392
117.729, 893.910
119.119, 872.102
120.508, 853.493
121.897, 810.032
123.286, 694.947
124.675, 560.087
126.063, 413.616
127.452, 282.412
128.840, 205.408
130.228, 190.579
131.615, 43.899
133.003, 66.351
134.390, 17.920
135.777, 2.407
137.164, 5.356
138.550, 53.200
139.937, 51.116
141.323, 15.905
142.709, 27.872
144.094, 21.735
145.480, 39.152
146.865, 14.881
148.250, 31.977
149.635, 119.060
151.019, 321.145
152.403, 708.240
153.788, 1474.346
155.171, 2748.454
156.555, 4990.561
157.939, 7559.667
159.322, 9633.770
160.705, 9517.871
162.088, 7861.979
163.470, 5667.089
164.853, 4130.200
166.235, 3306.312
167.617, 3241.422
168.998, 3515.528
170.380, 4295.626
171.761, 5973.720
173.142, 8454.805
174.523, 12298.878
175.904, 16962.943
177.284, 21106.990
178.664, 22961.031
180.044, 20805.055
181.424, 16399.064
182.803, 12093.058
184.183, 8497.585
185.562, 6090.791
186.940, 4696.855
188.319, 3734.975
189.698, 3142.450
191.076, 2807.001
192.454, 2495.314
193.831, 2332.299
195.209, 2231.391
196.586, 2201.583
197.963, 2148.889
199.340, 2166.312
200.717, 2275.780
202.093, 2375.260
203.470, 2531.711
204.846, 2795.129
206.221, 3001.450
207.597, 3396.695
208.972, 3843.923
210.347, 4568.150
211.722, 5390.375
213.097, 6610.600
214.472, 8348.825
215.846, 10953.043
217.220, 14427.266
218.594, 18491.551
219.967, 23455.863
221.341, 27470.180
222.714, 29934.490
224.087, 28238.783
225.460, 24183.057
226.832, 19227.305
228.204, 14111.533
229.577, 10545.736
230.948, 7749.912
232.320, 5731.061
233.692, 4137.184
235.063, 3081.283
236.434, 2399.356
237.805, 1843.403
239.175, 1384.426
240.545, 1064.424
241.916, 853.397
243.286, 777.347
244.655, 645.271
246.025, 640.171
247.394, 721.047
248.763, 731.898
250.132, 811.726
251.501, 799.529
252.869, 743.308
254.237, 644.064
255.605, 506.796
256.973, 467.504
258.340, 417.188
259.708, 314.849
261.075, 297.486
262.442, 210.100
263.808, 153.691
265.175, 147.966
266.541, 39.999
267.907, 63.806
269.273, 11.624
270.639, 16.276
272.004, 14.171
273.369, 40.171
274.734, 7.385
276.099, 33.638
277.463, 4.223
278.828, 64.874
280.192, 57.722
281.556, 134.374
282.919, 191.068
284.283, 369.678
285.646, 584.911
287.009, 768.370
288.372, 976.048
289.734, 1156.887
291.097, 1208.034
292.459, 1116.213
293.821, 1137.021
295.183, 1243.803
296.544, 1374.625
297.905, 1620.885
299.266, 2003.775
300.627, 2334.296
301.988, 2583.189
303.348, 2556.842
304.709, 2290.598
306.069, 1738.239
307.428, 1407.904
308.788, 1052.041
310.147, 804.400
311.507, 564.533
312.865, 485.782
314.224, 301.809
315.583, 287.163
316.941, 279.416
318.299, 277.534
319.657, 251.706
321.015, 241.073
322.372, 304.412
323.729, 377.704
325.086, 475.725
326.443, 631.877
327.800, 911.927
329.156, 1151.141
330.512, 1498.283
331.868, 1709.740
333.224, 1758.064
334.579, 1585.570
335.935, 1353.632
337.290, 1098.198
338.645, 933.130
339.999, 893.944
341.354, 913.696
342.708, 970.476
344.062, 1031.990
345.416, 1257.464
346.769, 1349.845
348.123, 1588.095
349.476, 1799.323
350.829, 1996.509
352.182, 2047.640
353.534, 1978.723
354.887, 1818.781
356.239, 1722.820
357.591, 1569.845
358.942, 1520.855
360.294, 1555.850
361.645, 1656.830
362.996, 2052.794
364.347, 2547.741
365.698, 3298.673
367.048, 4170.587
368.398, 5093.486
369.748, 5383.370
371.098, 4974.235
372.448, 4223.087
373.797, 3233.922
375.146, 2628.742
376.495, 2040.546
377.844, 1665.334
379.192, 1456.107
380.540, 1329.863
381.889, 1215.603
383.236, 1198.327
384.584, 1211.034
385.932, 1362.725
387.279, 1498.398
388.626, 1779.055
389.973, 2067.696
391.319, 2515.320
392.666, 2753.927
394.012, 2805.518
395.358, 2447.092
396.704, 1989.651
398.049, 1506.192
399.394, 1071.718
400.740, 789.227
402.084, 578.720
403.429, 417.197
404.774, 344.657
406.118, 330.101
407.462, 311.529
408.806, 253.941
410.150, 250.337
411.493, 378.717
412.836, 449.081
414.179, 444.429
415.522, 468.761
416.865, 474.077
418.207, 394.377
419.549, 335.661
420.891, 280.930
422.233, 210.182
423.575, 159.419
424.916, 86.640
426.257, 36.719
427.598, 42.753
428.939, 54.301
430.279, 73.923
431.619, 113.615
432.959, 140.990
434.299, 132.491
435.639, 145.485
436.978, 118.261
438.318, 49.428
439.657, 59.482
440.996, 12.870
442.334, 8.803
443.673, 28.200
445.011, 30.416
446.349, 42.675
447.687, 32.988
449.024, 40.349
450.361, 29.761
451.699, 51.218
453.036, 67.730
454.372, 63.307
455.709, 31.945
457.045, 31.629
458.381, 18.353
459.717, 23.113
461.053, 29.907
462.388, 5.263
463.724, 15.416
465.059, 5.547
466.394, 18.656
467.728, 65.754
469.063, 57.845
470.397, 14.927
471.731, 8.997
473.065, 47.051
474.398, 17.080
475.732, 15.088
477.065, 25.072
478.398, 44.033
479.731, 30.973
481.063, 6.891
482.396, 7.784
483.728, 10.656
485.060, 49.514
486.391, 23.354
487.723, 35.174
489.054, 11.974
490.385, 11.239
491.716, 48.474
493.047, 30.757
494.377, 18.072
495.708, 19.591
497.038, 19.765
498.368, 32.854
499.697, 57.452
501.027, 68.048
502.356, 57.623
503.685, 117.183
505.014, 122.738
506.342, 141.276
507.671, 169.796
508.999, 224.304
510.327, 228.796
511.655, 302.289
512.982, 371.772
514.310, 445.239
515.637, 514.701
516.964, 550.150
518.291, 641.593
519.617, 616.031
520.944, 627.454
522.270, 615.878
523.596, 554.286
524.921, 609.683
526.247, 625.070
527.572, 668.447
528.897, 753.822
530.222, 799.184
531.547, 758.535
532.871, 732.870
534.196, 659.199
535.520, 634.512
536.844, 562.808
538.167, 559.095
539.491, 520.366
540.814, 447.623
542.137, 402.873
543.460, 341.109
544.783, 312.332
546.105, 352.539
547.427, 286.731
548.749, 310.908
550.071, 313.069
551.393, 301.215
552.714, 336.345
554.035, 289.459
555.356, 328.559
556.677, 268.643
557.998, 283.712
559.318, 247.765
560.638, 224.803
561.958, 260.826
563.278, 204.834
564.597, 202.826
565.917, 199.804
567.236, 217.766
568.555, 202.714
569.874, 197.646
571.192, 193.563
572.511, 191.466
573.829, 230.353
575.147, 219.226
576.464, 214.084
577.782, 225.927
579.099, 215.755
580.416, 264.568
581.733, 228.366
583.050, 197.951
584.366, 216.217
585.683, 185.199
586.999, 174.218
588.315, 162.312
589.630, 153.478
590.946, 133.805
592.261, 124.245
593.576, 86.647
594.891, 127.112
596.206, 145.458
597.520, 114.523
598.834, 146.622
600.148, 159.369
601.462, 190.174
602.776, 149.752
604.089, 178.179
605.402, 158.826
606.715, 208.072
608.028, 215.848
609.341, 255.280
610.653, 284.359
611.965, 257.396
613.277, 328.707
614.589, 298.984
615.901, 354.340
617.212, 383.466
618.523, 444.293
619.834, 496.693
621.145, 501.223
622.456, 529.870
623.766, 624.399
625.076, 578.063
626.386, 687.001
627.696, 725.899
629.006, 855.518
630.315, 884.281
631.624, 989.114
632.933, 1079.736
634.242, 1179.464
635.551, 1314.285
636.859, 1428.116
638.167, 1602.954
639.475, 1733.571
640.783, 1936.564
642.090, 2222.184
643.398, 2514.853
644.705, 2871.098
646.012, 3234.933
647.318, 3884.075
648.625, 4646.960
649.931, 5124.239
651.237, 6053.915
652.543, 6775.466
653.849, 7581.812
655.155, 8021.396
656.460, 8270.176
657.765, 8963.246
659.070, 9452.145
660.375, 10261.945
661.679, 11724.026
662.984, 13603.239
664.288, 16322.421
665.592, 20122.479
666.895, 25871.736
668.199, 32845.062
669.502, 41655.484
670.805, 52604.680
672.108, 60256.266
673.411, 62826.195
674.713, 59087.293
676.016, 48269.094
677.318, 39198.270
678.620, 28931.279
679.921, 22050.436
681.223, 16650.363
682.524, 12950.864
683.825, 10531.203
685.126, 8293.266
686.427, 6917.850
687.727, 5995.879
689.028, 4991.917
690.328, 4359.906
691.628, 3838.927
692.927, 3349.959
694.227, 2991.108
695.526, 2633.104
696.825, 2351.171
698.124, 2095.363
699.423, 1887.334
700.721, 1754.005
702.020, 1596.959
703.318, 1415.905
704.616, 1348.842
705.913, 1240.776
707.211, 1112.697
708.508, 1001.610
709.805, 930.515
711.102, 866.412
712.399, 803.302
713.695, 729.183
714.992, 703.057
716.288, 640.923
717.584, 589.781
718.879, 549.632
720.175, 520.476
721.470, 495.312
722.765, 447.141
724.060, 473.963
725.355, 425.778
726.649, 425.585
727.944, 359.386
729.238, 383.179
730.532, 422.966
731.825, 323.747
733.119, 350.520
734.412, 360.287
735.705, 366.047
736.998, 337.801
738.291, 418.549
739.584, 368.291
740.876, 361.030
742.168, 345.765
743.460, 349.498
744.752, 307.228
746.043, 336.954
747.334, 296.677
748.626, 281.370
749.916, 336.903
751.207, 250.604
752.498, 286.309
753.788, 200.955
755.078, 221.654
756.368, 163.353
757.658, 122.054
758.947, 169.764
760.237, 135.482
761.526, 108.214
762.815, 141.955
764.104, 59.708
765.392, 120.471
766.680, 126.249
767.969, 128.045
769.257, 98.860
770.544, 35.686
771.832, 95.520
773.119, 96.361
774.406, 96.210
775.693, 77.069
776.980, 117.928
778.267, 79.787
779.553, 85.646
780.839, 70.505
782.125, 71.362
783.411, 66.218
784.697, 34.073
785.982, 73.933
787.267, 76.791
788.552, 13.650
789.837, 9.507
791.122, 34.363
792.406, 14.218
793.690, 15.071
794.974, 1.076
796.258, 28.228
797.542, 8.398
798.825, 3.578
800.108, 11.236
801.391, 36.952
802.674, 32.162
803.957, 11.388
805.239, 32.609
806.522, 49.840
807.804, 7.094
809.085, 36.355
810.367, 7.369
811.649, 64.909
812.930, 10.776
814.211, 12.541
815.492, 45.868
816.772, 2.777
818.053, 8.417
819.333, 9.944
820.613, 11.684
821.893, 63.690
823.173, 17.103
824.452, 21.471
825.732, 36.957
827.011, 9.408
828.290, 29.869
829.568, 41.350
830.847, 10.145
832.125, 61.363
833.403, 11.094
834.681, 11.450
835.959, 22.004
837.236, 19.573
838.514, 48.154
839.791, 6.763
841.068, 15.378
842.345, 28.996
843.621, 32.630
844.898, 28.724
846.174, 12.079
847.450, 19.567
848.726, 65.776
850.001, 1.119
851.277, 38.541
852.552, 15.780
853.827, 12.899
855.102, 51.414
856.376, 78.728
857.651, 44.042
858.925, 7.356
860.199, 71.670
861.473, 59.986
862.746, 75.302
864.020, 61.619
865.293, 72.937
866.566, 93.255
867.839, 55.575
869.112, 84.895
870.384, 102.217
871.656, 83.541
872.928, 71.865
874.200, 107.196
875.472, 170.528
876.744, 162.862
878.015, 132.197
879.286, 207.535
880.557, 229.874
881.828, 205.215
883.098, 248.558
884.369, 286.904
885.639, 329.252
886.909, 367.602
888.178, 388.961
889.448, 447.323
890.717, 473.703
891.987, 535.085
893.256, 489.484
894.524, 469.898
895.793, 597.320
897.061, 560.744
898.330, 571.172
899.598, 601.604
900.865, 660.042
902.133, 674.483
903.401, 678.931
904.668, 764.388
905.935, 817.849
907.202, 772.316
908.468, 919.788
909.735, 1002.262
911.001, 1025.746
912.267, 1172.232
913.533, 1178.726
914.799, 1318.223
916.064, 1483.723
917.330, 1603.240
918.595, 1850.761
919.860, 2071.285
921.124, 2519.818
922.389, 2758.354
923.653, 3134.837
924.918, 3732.404
926.182, 4234.974
927.445, 5016.546
928.709, 5587.122
929.972, 5982.705
931.236, 6164.291
932.499, 5747.882
933.761, 5160.476
935.024, 4435.078
936.286, 3656.684
937.549, 3123.259
938.811, 2795.885
940.073, 2641.512
941.334, 2601.029
942.596, 2520.533
943.857, 2723.149
945.118, 2967.689
946.379, 3127.238
947.640, 3239.433
948.900, 3121.031
950.161, 2873.833
951.421, 2683.912
952.681, 2335.491
953.940, 2064.589
955.200, 1862.006
956.459, 1740.702
957.719, 1543.116
958.978, 1397.458
960.236, 1313.431
961.495, 1222.643
962.753, 1184.276
964.012, 1155.721
965.270, 1101.381
966.527, 1045.095
967.785, 968.783
969.043, 959.363
970.300, 985.048
971.557, 899.973
972.814, 876.688
974.071, 893.332
975.327, 837.882
976.583, 889.660
977.840, 849.034
979.095, 771.069
980.351, 742.925
981.607, 804.079
982.862, 748.850
984.117, 754.787
985.372, 713.580
986.627, 708.603
987.882, 710.038
989.136, 761.637
990.390, 730.515
991.644, 679.867
992.898, 680.771
994.152, 724.664
995.405, 748.605
996.659, 723.513
997.912, 704.409
999.165, 797.185
1000.417, 843.112
1001.670, 875.967
1002.922, 878.695
1004.174, 919.642
1005.426, 998.888
1006.678, 1063.850
1007.930, 1040.819
1009.181, 1114.801
1010.432, 1198.785
1011.683, 1223.783
1012.934, 1330.795
1014.185, 1384.814
1015.435, 1492.839
1016.685, 1589.870
1017.935, 1688.909
1019.185, 1841.954
1020.435, 1941.081
1021.684, 2168.138
1022.934, 2334.232
1024.183, 2538.216
1025.432, 2801.331
1026.680, 3085.534
1027.929, 3416.624
1029.177, 3691.719
1030.425, 3607.905
1031.673, 3581.012
1032.921, 3489.142
1034.169, 3223.481
1035.416, 3251.699
1036.663, 3175.834
1037.911, 3348.491
1039.157, 3620.745
1040.404, 3824.427
1041.650, 4182.633
1042.897, 4602.267
1044.143, 5233.107
1045.389, 5917.556
1046.634, 6756.800
1047.880, 7939.157
1049.125, 9468.585
1050.371, 11188.489
1051.615, 13657.892
1052.860, 15937.526
1054.105, 19368.375
1055.349, 22697.580
1056.593, 25687.656
1057.837, 28467.037
1059.081, 28846.357
1060.325, 27146.826
1061.568, 24396.215
1062.812, 20326.373
1064.055, 16895.707
1065.298, 13945.161
1066.540, 11637.663
1067.783, 10267.083
1069.025, 8926.418
1070.267, 7846.940
1071.509, 6598.503
1072.751, 5518.783
1073.993, 4811.865
1075.234, 4069.169
1076.475, 3465.537
1077.716, 3114.882
1078.957, 2799.292
1080.198, 2532.653
1081.438, 2285.348
1082.679, 2093.770
1083.919, 1969.228
1085.159, 1751.104
1086.398, 1594.028
1087.638, 1476.581
1088.877, 1394.019
1090.116, 1295.088
1091.355, 1238.441
1092.594, 1134.550
1093.833, 1102.641
1095.071, 1003.028
1096.309, 977.112
1097.547, 965.685
1098.785, 857.158
1100.023, 870.612
1101.260, 809.915
1102.498, 714.583
1103.735, 757.948
1104.972, 725.824
1106.208, 680.181
1107.445, 675.729
1108.681, 607.230
1109.918, 633.811
1111.154, 570.306
1112.389, 557.860
1113.625, 554.441
1114.860, 506.969
1116.096, 510.027
1117.331, 494.477
1118.566, 441.911
1119.800, 432.572
1121.035, 400.136
1122.269, 407.536
1123.503, 406.244
1124.737, 352.697
1125.971, 315.108
1127.205, 317.676
1128.438, 371.247
1129.671, 290.763
1130.904, 251.292
1132.137, 247.836
1133.370, 259.414
1134.602, 253.017
1135.834, 199.552
1137.066, 249.330
1138.298, 188.243
1139.530, 183.742
1140.762, 183.334
1141.993, 158.906
1143.224, 150.651
1144.455, 100.639
1145.686, 85.298
1146.917, 137.850
1148.147, 98.499
1149.377, 74.154
1150.607, 137.669
1151.837, 47.160
1153.067, 70.958
1154.296, 57.790
1155.526, 43.311
1156.755, 113.415
1157.984, 54.053
1159.213, 90.362
1160.441, 63.337
1161.670, 29.050
1162.898, 57.535
1164.126, 45.064
1165.354, 41.636
1166.581, 34.405
1167.809, 7.771
1169.036, 29.129
1170.263, 20.518
1171.490, 21.063
1172.717, 20.760
1173.943, 2.361
1175.170, 39.836
1176.396, 68.250
1177.622, 13.697
1178.848, 37.124
1180.073, 33.230
1181.299, 2.317
1182.524, 17.118
1183.749, 46.697
1184.974, 26.032
1186.199, 15.365
1187.423, 57.292
1188.648, 30.875
1189.872, 55.541
1191.096, 42.422
1192.320, 19.779
1193.543, 31.338
1194.767, 6.471
1195.990, 0.468
1197.213, 9.366
1198.436, 1.646
1199.659, 4.261
1200.881, 23.115
1202.104, 59.951
1203.326, 9.955
1204.548, 13.975
1205.770, 31.897
1206.991, 15.130
1208.213, 18.758
1209.434, 9.347
1210.655, 33.693
1211.876, 8.539
1213.096, 45.422
1214.317, 17.403
1215.537, 40.181
1216.757, 12.782
1217.977, 3.087
1219.197, 8.165
1220.417, 68.459
1221.636, 54.193
1222.855, 39.960
1224.074, 46.634
1225.293, 8.606
1226.512, 45.097
1227.731, 3.702
1228.949, 32.337
1230.167, 8.077
1231.385, 1.502
1232.603, 30.833
1233.820, 12.776
1235.038, 33.301
1236.255, 32.261
1237.472, 55.138
1238.689, 0.478
1239.906, 0.093
1241.122, 49.476
1242.338, 31.145
1243.555, 16.634
1244.771, 33.902
1245.986, 40.322
1247.202, 17.373
1248.417, 7.027
1249.633, 17.731
1250.848, 9.561
1252.063, 72.834
1253.277, 30.361
1254.492, 45.527
1255.706, 28.750
1256.920, 50.978
1258.134, 37.063
1259.348, 35.310
1260.562, 48.399
1261.775, 9.511
1262.988, 71.816
1264.201, 75.820
1265.414, 27.999
1266.627, 46.118
1267.839, 85.154
1269.052, 26.254
1270.264, 78.343
1271.476, 88.248
1272.688, 55.397
1273.899, 55.250
1275.111, 70.086
1276.322, 70.316
1277.533, 66.157
1278.744, 62.043
1279.955, 56.281
1281.165, 73.031
1282.376, 29.770
1283.586, 21.617
1284.796, 86.304
1286.006, 64.060
1287.215, 69.786
1288.425, 35.416
1289.634, 20.173
1290.843, 48.767
1292.052, 73.410
1293.261, 50.968
1294.469, 48.508
1295.678, 81.136
1296.886, 88.756
1298.094, 32.244
1299.302, 29.920
1300.509, 79.436
1301.717, 3.134
1302.924, 49.272
1304.131, 11.660
1305.338, 0.975
1306.545, 38.367
1307.752, 80.689
1308.958, 68.994
1310.164, 57.653
1311.370, 32.952
1312.576, 104.203
1313.782, 111.357
1314.987, 95.569
1316.193, 86.809
1317.398, 27.169
1318.603, 44.284
1319.807, 65.299
1321.012, 78.547
1322.216, 68.645
1323.421, 71.650
1324.625, 15.708
1325.829, 61.730
1327.032, 63.527
1328.236, 40.420
1329.439, 98.385
1330.642, 61.809
1331.845, 72.618
1333.048, 110.987
1334.251, 29.816
1335.453, 148.205
1336.656, 18.375
1337.858, 82.922
1339.060, 76.693
1340.261, 91.395
1341.463, 78.919
1342.664, 101.023
1343.866, 73.545
1345.067, 56.819
1346.267, 68.881
1347.468, 59.552
1348.669, 100.341
1349.869, 111.545
1351.069, 79.059
1352.269, 105.666
1353.469, 89.080
1354.668, 48.703
1355.868, 92.173
1357.067, 43.481
1358.266, 81.724
1359.465, 101.072
1360.664, 33.453
1361.862, 58.628
1363.061, 83.747
1364.259, 92.136
1365.457, 91.704
1366.655, 53.057
1367.852, 72.272
1369.050, 48.584
1370.247, 55.720
1371.444, 75.886
1372.641, 65.091
1373.838, 73.154
1375.035, 68.174
1376.231, 42.733
1377.427, 45.224
1378.623, 61.007
1379.819, 79.861
1381.015, 76.032
1382.211, 77.877
1383.406, 28.384
1384.601, 61.546
1385.796, 60.134
1386.991, 4.941
1388.185, 72.364
1389.380, 26.630
1390.574, 51.137
1391.768, 36.612
1392.962, 44.016
1394.156, 68.823
1395.350, 16.468
1396.543, 5.703
1397.736, 56.047
1398.929, 39.656
1400.122, 34.939
1401.315, 67.321
1402.507, 24.600
1403.700, 57.836
1404.892, 53.391
1406.084, 10.642
1407.276, 75.581
1408.467, 22.079
1409.659, 29.063
1410.850, 45.033
1412.041, 25.815
1413.232, 24.458
1414.423, 60.233
1415.614, 12.814
1416.804, 100.759
1417.994, 69.382
1419.184, 0.884
1420.374, 48.831
1421.564, 33.013
1422.753, 0.671
1423.943, 93.857
1425.132, 52.334
1426.321, 21.631
1427.510, 65.883
1428.698, 33.181
1429.887, 35.313
1431.075, 56.261
1432.263, 17.849
1433.451, 51.474
1434.639, 35.077
1435.827, 51.388
1437.014, 113.876
1438.201, 24.462
1439.388, 22.110
1440.575, 78.460
1441.762, 7.706
1442.949, 31.888
1444.135, 71.273
1445.321, 62.946
1446.507, 78.313
1447.693, 57.505
1448.879, 104.968
1450.064, 80.429
1451.250, 92.508
1452.435, 1.973
1453.620, 37.726
1454.805, 60.924
1455.989, 66.516
1457.174, 105.898
1458.358, 25.190
1459.542, 19.668
1460.726, 61.927
1461.910, 68.194
1463.093, 12.464
1464.277, 74.502
1465.460, 38.142
1466.643, 95.136
1467.826, 75.997
1469.009, 70.563
1470.191, 116.634
1471.373, 41.023
1472.556, 84.167
1473.738, 37.896
1474.919, 63.164
1476.101, 103.065
1477.283, 88.878
1478.464, 42.720
1479.645, 133.762
1480.826, 26.001
1482.007, 11.471
1483.187, 79.926
1484.368, 15.831
1485.548, 41.943
1486.728, 84.038
1487.908, 29.109
1489.088, 49.521
1490.268, 45.488
1491.447, 8.894
1492.626, 53.580
1493.805, 1.155
1494.984, 60.625
1496.163, 30.452
1497.341, 21.346
1498.520, 66.296
1499.698, 65.314
1500.876, 19.328
1502.054, 64.347
1503.232, 68.506
1504.409, 46.990
1505.586, 108.937
1506.763, 59.807
1507.940, 14.274
1509.117, 62.301
1510.294, 6.632
1511.470, 36.438
1512.647, 121.868
1513.823, 2.445
1514.999, 54.988
1516.174, 17.603
1517.350, 36.573
1518.526, 69.043
1519.701, 32.946
1520.876, 40.605
1522.051, 17.535
1523.226, 0.000
##END=



