##NAMES=Actinolite
##RRUFFID=R060045
##IDEAL CHEMISTRY=Ca_2_(Mg_4.5-2.5_Fe^2+^_0.5-2.5_)Si_8_O_22_(OH)_2_
##LOCALITY=Colorado, USA
##OWNER=RRUFF
##SOURCE=University of Arizona Mineral Museum
##DESCRIPTION=Green prismatic crystals in a radial arrangement
##STATUS=The identification of this mineral has been confirmed by X-ray diffraction and chemical analysis
##URL=rruff.info/R060045
##MEASURED CHEMISTRY=(Ca_1.99_Na_0.01_)_Σ=2_(Mg_4.20_Fe^2+^_0.59_Al_0.09_Fe^3+^_0.08_Mn_0.02_Ti_0.01_)_Σ=5_(Si_7.82_Al_0.18_)_Σ=8_O_22_(OH)_2_
##PIN_ID=M00155
##ORIENTATION=Laser parallel to b* (0 1 0). Fiducial mark perpendicular to laser is parallel to c [0 0 1]
137.8140, 0.0000000E+00
139.0430, 210.9355
140.2710, 231.6924
141.5000, 276.3301
142.7280, 24.95215
143.9560, 81.13477
145.1840, 256.5645
146.4120, 290.8408
147.6390, 664.9639
148.8670, 982.1602
150.0940, 1377.753
151.3210, 2124.201
152.5490, 3336.062
153.7750, 5577.989
155.0020, 8405.860
156.2290, 10846.69
157.4550, 10544.18
158.6810, 7330.042
159.9080, 4851.067
161.1340, 2958.095
162.3590, 2028.999
163.5850, 1575.671
164.8110, 1554.030
166.0360, 1442.004
167.2610, 1784.529
168.4860, 2161.559
169.7110, 2709.107
170.9360, 3678.868
172.1610, 5304.520
173.3850, 7624.521
174.6100, 10941.57
175.8340, 13742.60
177.0580, 13537.62
178.2820, 10378.64
179.5050, 7119.643
180.7290, 4522.667
181.9520, 3062.773
183.1760, 1970.970
184.3990, 1415.236
185.6220, 1145.577
186.8450, 669.9951
188.0670, 387.4941
189.2900, 412.0703
190.5120, 274.7236
191.7340, 179.4512
192.9560, 166.2549
194.1780, 205.1338
195.4000, 194.0850
196.6220, 204.1035
197.8430, 206.1855
199.0640, 403.3271
200.2860, 444.5254
201.5070, 611.3633
202.7270, 673.0107
203.9480, 683.8350
205.1690, 838.5439
206.3890, 1107.682
207.6090, 1308.556
208.8290, 1741.546
210.0490, 2194.474
211.2690, 2610.510
212.4890, 3718.480
213.7080, 4533.432
214.9280, 5912.382
216.1470, 7760.367
217.3660, 9997.396
218.5850, 12256.48
219.8030, 14241.62
221.0220, 14731.82
222.2400, 13704.24
223.4590, 11494.01
224.6770, 8812.031
225.8950, 6832.082
227.1120, 5269.344
228.3300, 4057.757
229.5480, 3100.345
230.7650, 2355.008
231.9820, 1592.753
233.1990, 1385.589
234.4160, 1141.461
235.6330, 1000.416
236.8490, 794.0586
238.0660, 553.5479
239.2820, 484.6592
240.4980, 387.7920
241.7140, 329.9492
242.9300, 350.1396
244.1460, 208.3486
245.3610, 349.6348
246.5770, 417.9727
247.7920, 383.3838
249.0070, 466.8232
250.2220, 385.2617
251.4370, 366.7021
252.6510, 295.1445
253.8660, 295.5889
255.0800, 160.0332
256.2940, 199.4775
257.5080, 193.9209
258.7220, 206.3633
259.9360, 252.8057
261.1490, 79.24512
262.3630, 65.68262
263.5760, 9.882813
264.7890, 34.44922
266.0020, 37.45898
267.2150, 135.5908
268.4270, 39.16797
269.6400, 73.74707
270.8520, 100.3311
272.0640, 107.9199
273.2760, 308.5088
274.4880, 116.1064
275.7000, 134.7490
276.9120, 44.55273
278.1230, 49.21582
279.3340, 91.82715
280.5450, 15.79785
281.7560, 48.75586
282.9670, 16.71484
284.1780, 2.043945
285.3880, 213.1260
286.5980, 339.9023
287.8090, 409.0459
289.0190, 370.3760
290.2290, 435.0918
291.4380, 330.0312
292.6480, 505.1670
293.8570, 477.4766
295.0670, 867.9355
296.2760, 859.5332
297.4850, 1083.248
298.6930, 1176.074
299.9020, 1050.999
301.1110, 1003.013
302.3190, 933.1035
303.5270, 693.6123
304.7350, 718.1523
305.9430, 427.3652
307.1510, 332.5586
308.3580, 210.7881
309.5660, 324.4180
310.7730, 105.5537
311.9800, 267.4463
313.1870, 21.83301
314.3940, 164.0117
315.6010, 103.5156
316.8070, 137.3076
318.0130, 174.9053
319.2200, 179.4521
320.4260, 362.6680
321.6310, 349.7236
322.8370, 353.2441
324.0430, 581.1221
325.2480, 664.6504
326.4540, 618.1670
327.6590, 892.0879
328.8640, 793.9512
330.0680, 1114.112
331.2730, 1143.547
332.4780, 1321.373
333.6820, 1361.943
334.8860, 1543.233
336.0900, 1692.617
337.2940, 1856.527
338.4980, 1951.223
339.7010, 2009.915
340.9050, 2030.607
342.1080, 1956.359
343.3110, 1841.268
344.5140, 1621.291
345.7170, 1444.593
346.9200, 1056.880
348.1220, 1220.529
349.3240, 1175.077
350.5270, 1264.898
351.7290, 999.5732
352.9310, 1063.311
354.1320, 894.0107
355.3340, 900.6543
356.5350, 895.3574
357.7370, 767.3213
358.9380, 851.5332
360.1390, 863.7451
361.3400, 880.9570
362.5400, 1049.170
363.7410, 1257.559
364.9410, 1502.771
366.1410, 1614.111
367.3410, 1581.361
368.5410, 1576.566
369.7410, 1380.768
370.9400, 1325.773
372.1400, 1032.133
373.3390, 1086.306
374.5380, 930.4707
375.7370, 820.6279
376.9360, 860.7773
378.1350, 817.9180
379.3330, 942.0498
380.5310, 1072.171
381.7300, 1075.283
382.9280, 1230.385
384.1260, 1552.476
385.3230, 2002.557
386.5210, 2666.626
387.7180, 3028.685
388.9160, 3505.730
390.1130, 3543.766
391.3100, 3806.789
392.5060, 3648.800
393.7030, 2854.798
394.9000, 2413.785
396.0960, 2032.757
397.2920, 1675.716
398.4880, 1415.664
399.6840, 1208.598
400.8800, 973.5186
402.0750, 991.4258
403.2710, 1052.393
404.4660, 1059.414
405.6610, 1049.282
406.8560, 1023.495
408.0510, 1114.667
409.2450, 1348.579
410.4400, 1421.782
411.6340, 1269.157
412.8280, 1506.854
414.0220, 1247.162
415.2160, 1140.229
416.4100, 1005.090
417.6030, 927.6484
418.7970, 610.8320
419.9900, 517.0098
421.1830, 352.6992
422.3760, 373.8652
423.5690, 226.1367
424.7610, 277.7891
425.9540, 212.4688
427.1460, 199.6660
428.3380, 169.5098
429.5300, 156.6973
430.7220, 200.3184
431.9140, 404.0820
433.1050, 498.7070
434.2970, 567.5215
435.4880, 669.1309
436.6790, 389.0957
437.8700, 267.6855
439.0610, 205.7070
440.2510, 174.3105
441.4420, 187.1445
442.6320, 180.4570
443.8220, 141.5820
445.0120, 182.8496
446.2020, 54.53711
447.3910, 50.97852
448.5810, 124.0547
449.7700, 122.5703
450.9600, 122.0684
452.1490, 15.95117
453.3370, 134.6270
454.5260, 34.34375
455.7150, 102.1895
456.9030, 81.75000
458.0910, 26.38281
459.2800, 1.429688
460.4670, 74.79492
461.6550, 57.80078
462.8430, 46.75391
464.0300, 16.61133
465.2180, 7.179688
466.4050, 103.9004
467.5920, 40.58984
468.7790, 7.855469
469.9650, 99.26367
471.1520, 114.6543
472.3380, 59.01953
473.5250, 6.638672
474.7110, 3.121094
475.8970, 7.494141
477.0820, 10.86719
478.2680, 97.30273
479.4540, 110.3730
480.6390, 183.5781
481.8240, 289.6855
483.0090, 237.7812
484.1940, 105.8594
485.3780, 154.9141
486.5630, 83.95117
487.7470, 50.96094
488.9320, 50.95898
490.1160, 152.9277
491.3000, 220.8789
492.4830, 48.16797
493.6670, 75.75391
494.8500, 15.65039
496.0340, 34.47852
497.2170, 17.66406
498.4000, 66.12305
499.5820, 9.917969
500.7650, 251.6758
501.9480, 231.4316
503.1300, 242.1953
504.3120, 255.9434
505.4940, 131.6680
506.6760, 262.3770
507.8580, 144.0664
509.0390, 165.7363
510.2210, 387.3906
511.4020, 277.0273
512.5830, 373.6582
513.7640, 233.2715
514.9450, 382.9238
516.1250, 605.5762
517.3060, 340.2070
518.4860, 465.8203
519.6660, 325.4121
520.8460, 358.0039
522.0260, 436.5762
523.2060, 490.1270
524.3850, 452.6602
525.5650, 622.1719
526.7440, 735.6719
527.9230, 462.1738
529.1020, 718.6523
530.2810, 419.1133
531.4590, 521.5938
532.6380, 359.0527
533.8160, 545.4922
534.9940, 288.9238
536.1720, 253.3418
537.3500, 274.7402
538.5270, 232.1289
539.7050, 294.4941
540.8820, 220.8438
542.0590, 362.1699
543.2360, 397.4805
544.4130, 170.7871
545.5900, 155.0762
546.7660, 216.3418
547.9430, 103.5879
549.1190, 71.80859
550.2950, 195.0039
551.4710, 92.19922
552.6470, 356.3926
553.8220, 249.5977
554.9980, 275.7852
556.1730, 304.9688
557.3480, 143.1484
558.5230, 358.3242
559.6980, 283.5488
560.8730, 197.7695
562.0470, 232.9941
563.2220, 242.1973
564.3960, 69.38672
565.5700, 302.5488
566.7440, 169.6895
567.9170, 3.195313
569.0910, 137.8789
570.2640, 20.07422
571.4380, 278.9199
572.6110, 162.8926
573.7840, 309.8379
574.9570, 150.7637
576.1290, 232.6641
577.3020, 111.5430
578.4740, 203.3945
579.6460, 94.22461
580.8180, 191.0273
581.9900, 133.8086
583.1620, 268.5605
584.3330, 173.2949
585.5040, 227.0039
586.6760, 156.7344
587.8470, 254.1113
589.0180, 82.43359
590.1880, 149.1191
591.3590, 111.8555
592.5290, 185.5762
593.7000, 107.9199
594.8700, 82.83594
596.0400, 27.95117
597.2090, 12.75391
598.3790, 325.5156
599.5490, 203.0391
600.7180, 217.2773
601.8870, 240.7012
603.0560, 85.16406
604.2250, 78.94336
605.3940, 167.8711
606.5620, 92.32031
607.7300, 183.3965
608.8990, 275.8066
610.0670, 236.2188
611.2350, 287.2109
612.4020, 292.2461
613.5700, 355.9688
614.7370, 380.4023
615.9050, 443.4277
617.0720, 472.1816
618.2390, 647.0078
619.4060, 576.8477
620.5720, 655.7188
621.7390, 803.7910
622.9050, 750.1484
624.0710, 991.4824
625.2370, 1034.488
626.4030, 1043.449
627.5690, 1029.115
628.7340, 912.9590
629.9000, 1098.480
631.0650, 1086.414
632.2300, 837.0332
633.3950, 911.2715
634.5600, 1160.752
635.7240, 1196.869
636.8890, 1387.266
638.0530, 1559.293
639.2170, 1662.365
640.3810, 1751.750
641.5450, 2081.938
642.7080, 2348.367
643.8720, 2617.430
645.0350, 2945.453
646.1980, 3252.414
647.3610, 3563.730
648.5240, 3879.451
649.6870, 4150.904
650.8490, 4634.631
652.0120, 5041.039
653.1740, 4948.109
654.3360, 4953.412
655.4980, 5497.043
656.6600, 6107.967
657.8210, 6197.734
658.9830, 7276.238
660.1440, 8452.107
661.3050, 9441.785
662.4660, 11485.57
663.6270, 13857.99
664.7870, 16766.60
665.9480, 20363.84
667.1080, 24595.16
668.2680, 29202.68
669.4280, 33744.01
670.5880, 36550.00
671.7480, 36431.29
672.9070, 34056.55
674.0670, 29289.55
675.2260, 23919.99
676.3850, 18932.70
677.5440, 14637.54
678.7030, 11492.85
679.8610, 9068.354
681.0200, 7449.879
682.1780, 5979.260
683.3360, 4963.582
684.4940, 4262.713
685.6520, 3593.625
686.8090, 2954.660
687.9670, 2786.314
689.1240, 2212.754
690.2810, 2129.461
691.4380, 1712.719
692.5950, 1392.344
693.7520, 1413.398
694.9080, 1344.156
696.0650, 1136.029
697.2210, 1097.678
698.3770, 853.5098
699.5330, 683.3223
700.6880, 676.1133
701.8440, 593.8848
702.9990, 546.6348
704.1550, 523.7578
705.3100, 600.4668
706.4650, 588.0469
707.6190, 516.0312
708.7740, 448.6230
709.9290, 356.6875
711.0830, 371.2949
712.2370, 345.7383
713.3910, 318.3086
714.5450, 392.6602
715.6980, 331.7227
716.8520, 338.6172
718.0050, 269.8301
719.1580, 271.8633
720.3110, 232.2832
721.4640, 207.8926
722.6170, 333.8594
723.7700, 175.1465
724.9220, 156.5254
726.0740, 152.7012
727.2260, 319.0469
728.3780, 259.8945
729.5300, 228.1074
730.6810, 178.2227
731.8330, 259.6465
732.9840, 148.8125
734.1350, 401.9414
735.2860, 222.7656
736.4370, 137.4062
737.5880, 175.8242
738.7380, 349.2422
739.8880, 380.6523
741.0390, 389.8867
742.1890, 508.3496
743.3380, 366.5117
744.4880, 303.9238
745.6380, 321.1328
746.7870, 402.5195
747.9360, 625.9141
749.0850, 554.3008
750.2340, 472.6699
751.3830, 509.0273
752.5310, 288.3711
753.6800, 418.7109
754.8280, 220.0469
755.9760, 100.3750
757.1240, 259.6992
758.2720, 343.0117
759.4190, 148.3105
760.5670, 12.40820
761.7140, 75.83789
762.8610, 92.06641
764.0080, 170.2793
765.1550, 140.4766
766.3020, 16.33789
767.4480, 96.81250
768.5950, 129.9492
769.7410, 67.92773
770.8870, 99.87109
772.0330, 330.1270
773.1780, 5.882813
774.3240, 131.0820
775.4690, 67.94922
776.6140, 86.02539
777.7590, 55.83008
778.9040, 33.32617
780.0490, 85.52734
781.1940, 59.20312
782.3380, 93.91602
783.4820, 18.61328
784.6260, 13.29492
785.7700, 88.95508
786.9140, 5.603516
788.0580, 108.2266
789.2010, 42.16016
790.3450, 23.40234
791.4880, 201.0488
792.6310, 47.63086
793.7730, 33.73633
794.9160, 65.09180
796.0590, 124.4316
797.2010, 54.24219
798.3430, 70.03516
799.4850, 39.30078
800.6270, 151.5527
801.7690, 69.78906
802.9100, 15.98438
804.0520, 65.78516
805.1930, 73.35742
806.3340, 133.4883
807.4750, 142.3926
808.6160, 135.6348
809.7560, 125.6523
810.8970, 49.34180
812.0370, 55.62109
813.1770, 14.42969
814.3170, 17.50586
815.4570, 67.39453
816.5960, 16.28320
817.7360, 6.160156
818.8750, 34.02539
820.0140, 77.12305
821.1530, 63.67383
822.2920, 110.4609
823.4310, 175.2402
824.5690, 99.01172
825.7070, 175.7773
826.8460, 56.46680
827.9840, 56.75000
829.1220, 25.07422
830.2590, 49.57617
831.3970, 12.78125
832.5340, 83.84375
833.6710, 92.46094
834.8080, 205.0723
835.9450, 260.6758
837.0820, 184.2734
838.2190, 191.8613
839.3550, 121.4453
840.4910, 269.0195
841.6270, 236.0293
842.7630, 91.15625
843.8990, 268.7148
845.0350, 252.2793
846.1700, 221.8398
847.3060, 197.4082
848.4410, 308.9727
849.5760, 415.5312
850.7100, 166.0859
851.8450, 270.6348
852.9800, 355.1797
854.1140, 348.7422
855.2480, 444.2969
856.3820, 310.8574
857.5160, 625.4160
858.6500, 696.9688
859.7830, 514.5195
860.9170, 536.0664
862.0500, 520.5605
863.1830, 453.0410
864.3160, 251.5762
865.4480, 402.1113
866.5810, 249.6406
867.7130, 478.1660
868.8460, 391.6895
869.9780, 166.1465
871.1100, 267.6641
872.2410, 241.1797
873.3730, 301.6055
874.5050, 223.1191
875.6360, 50.67969
876.7670, 465.2441
877.8980, 5.804688
879.0290, 300.3926
880.1590, 284.9805
881.2900, 211.6133
882.4200, 237.2461
883.5500, 140.8750
884.6800, 256.5137
885.8100, 179.1504
886.9400, 230.7871
888.0690, 209.4180
889.1990, 242.6895
890.3280, 396.7188
891.4570, 352.3750
892.5860, 340.8203
893.7140, 424.4727
894.8430, 335.1211
895.9710, 324.7656
897.1000, 349.1543
898.2280, 410.5430
899.3560, 382.2383
900.4830, 358.6816
901.6110, 413.3418
902.7380, 352.5234
903.8660, 472.0000
904.9930, 495.6191
906.1200, 269.5918
907.2460, 567.5723
908.3730, 724.2422
909.5000, 809.1680
910.6260, 635.8359
911.7520, 769.9102
912.8780, 799.8633
914.0040, 800.2246
915.1290, 869.5215
916.2550, 933.5586
917.3800, 1053.168
918.5050, 1262.490
919.6300, 1385.639
920.7550, 1634.727
921.8800, 1884.260
923.0040, 2362.133
924.1290, 2507.760
925.2530, 3149.688
926.3770, 3762.941
927.5010, 3905.943
928.6250, 4508.621
929.7480, 4400.023
930.8720, 4201.594
931.9950, 3901.439
933.1180, 3254.920
934.2410, 2888.578
935.3640, 2361.115
936.4860, 2020.842
937.6090, 1932.678
938.7310, 1473.713
939.8530, 1475.658
940.9750, 1366.389
942.0970, 1489.295
943.2180, 1463.527
944.3400, 1572.441
945.4610, 1514.059
946.5820, 1451.559
947.7030, 1384.297
948.8240, 1201.768
949.9450, 1131.084
951.0650, 1061.914
952.1860, 977.5430
953.3060, 895.8066
954.4260, 876.8652
955.5460, 727.6348
956.6650, 662.5117
957.7850, 613.5391
958.9040, 526.6016
960.0230, 469.4238
961.1420, 417.5098
962.2610, 346.9844
963.3800, 300.3340
964.4990, 273.7148
965.6170, 205.6504
966.7350, 199.6934
967.8530, 389.9688
968.9710, 189.0723
970.0890, 304.1895
971.2070, 340.3184
972.3240, 197.4531
973.4410, 178.5977
974.5580, 173.7480
975.6750, 183.9102
976.7920, 233.0781
977.9090, 219.2539
979.0250, 63.44141
980.1410, 130.7773
981.2580, 138.8418
982.3740, 125.0508
983.4890, 186.2715
984.6050, 158.5000
985.7200, 245.7383
986.8360, 342.9844
987.9510, 323.5996
989.0660, 192.8633
990.1810, 247.2012
991.2950, 264.4805
992.4100, 391.7676
993.5240, 220.0645
994.6390, 353.3691
995.7530, 580.6836
996.8660, 262.0039
997.9800, 525.3340
999.0940, 559.6738
1000.207, 605.0215
1001.320, 802.3750
1002.433, 716.7422
1003.546, 717.1133
1004.659, 851.4941
1005.772, 808.8027
1006.884, 726.2812
1007.996, 847.6895
1009.108, 862.2715
1010.220, 835.2773
1011.332, 1035.707
1012.444, 934.5312
1013.555, 1279.979
1014.666, 965.2617
1015.777, 1158.721
1016.888, 1157.189
1017.999, 1072.406
1019.110, 1108.887
1020.220, 1335.373
1021.331, 1252.865
1022.441, 1142.453
1023.551, 1570.840
1024.661, 1636.354
1025.770, 1582.873
1026.880, 1582.398
1027.989, 1830.932
1029.098, 1860.469
1030.207, 1886.893
1031.316, 1694.453
1032.425, 1664.020
1033.533, 1397.596
1034.642, 1405.176
1035.750, 1841.762
1036.858, 1727.367
1037.966, 1918.979
1039.073, 2143.594
1040.181, 1963.244
1041.288, 2393.930
1042.396, 2437.924
1043.503, 3006.275
1044.610, 3551.986
1045.716, 3804.729
1046.823, 4643.506
1047.929, 5307.293
1049.036, 6235.098
1050.142, 7446.938
1051.248, 8717.781
1052.353, 9993.633
1053.459, 11493.49
1054.564, 12699.36
1055.670, 14032.23
1056.775, 14622.12
1057.880, 14740.01
1058.985, 13842.92
1060.089, 12219.86
1061.194, 10426.46
1062.298, 9040.139
1063.402, 7575.408
1064.506, 6768.527
1065.610, 5812.312
1066.713, 5077.355
1067.817, 4813.400
1068.920, 3948.453
1070.023, 3534.506
1071.126, 2951.562
1072.229, 2392.070
1073.332, 2399.164
1074.435, 1877.260
1075.537, 1622.361
1076.639, 1372.506
1077.741, 1197.652
1078.843, 1061.465
1079.945, 991.4727
1081.046, 1028.039
1082.148, 929.5703
1083.249, 1044.762
1084.350, 1185.957
1085.451, 1286.182
1086.551, 1245.383
1087.652, 995.5879
1088.752, 815.8203
1089.853, 551.4980
1090.953, 546.7344
1092.053, 489.9707
1093.152, 604.2129
1094.252, 468.4590
1095.351, 475.7207
1096.451, 481.0020
1097.550, 284.2930
1098.649, 275.5859
1099.748, 490.8828
1100.846, 310.1836
1101.945, 122.6367
1103.043, 399.9375
1104.141, 484.2402
1105.239, 473.5430
1106.337, 466.8457
1107.434, 278.1504
1108.532, 464.4531
1109.629, 266.7598
1110.726, 311.0645
1111.823, 119.3691
1112.920, 160.8555
1114.017, 225.9824
1115.113, 230.2871
1116.210, 212.5938
1117.306, 243.9004
1118.402, 137.2070
1119.498, 73.49023
1120.593, 199.7773
1121.689, 35.95703
1122.784, 319.2891
1123.879, 284.5312
1124.974, 125.7773
1126.069, 266.0195
1127.164, 251.2637
1128.259, 256.5078
1129.353, 223.6875
1130.447, 38.99219
1131.541, 86.23242
1132.635, 118.4727
1133.729, 104.7109
1134.822, 167.9492
1135.916, 158.7656
1137.009, 182.4219
1138.102, 93.66016
1139.195, 24.89453
1140.288, 172.8711
1141.380, 19.73633
1142.473, 153.3828
1143.565, 112.5000
1144.657, 131.5508
1145.749, 181.3984
1146.841, 107.5469
1147.932, 152.4922
1149.024, 51.54883
1150.115, 214.3750
1151.206, 236.2969
1152.297, 72.21875
1153.388, 23.86328
1154.479, 83.96680
1155.569, 127.8770
1156.659, 304.7188
1157.750, 141.5742
1158.839, 198.4316
1159.929, 57.28516
1161.019, 161.8320
1162.108, 266.9844
1163.198, 179.8008
1164.287, 274.6113
1165.376, 114.4219
1166.465, 116.2383
1167.553, 220.0488
1168.642, 197.8574
1169.730, 181.5820
1170.818, 370.4668
1171.906, 118.2695
1172.994, 53.93164
1174.082, 43.17578
1175.170, 101.5469
1176.257, 166.2617
1177.344, 91.97852
1178.431, 266.6895
1179.518, 101.4004
1180.605, 106.1055
1181.691, 145.8066
1182.778, 91.50781
1183.864, 179.2012
1184.950, 358.8926
1186.036, 242.5801
1187.122, 275.0254
1188.207, 270.9473
1189.292, 138.6250
1190.378, 30.29883
1191.463, 55.03125
1192.548, 87.65820
1193.632, 96.84766
1194.717, 62.35156
1195.801, 40.90625
1196.886, 56.50000
1197.970, 99.90234
1199.054, 400.2988
1200.137, 93.69336
1201.221, 244.0820
1202.305, 14.46680
1203.388, 163.8438
1204.471, 162.2129
1205.554, 235.5820
1206.637, 126.9434
1207.719, 47.30078
1208.802, 22.34766
1209.884, 6.976563
1210.966, 16.28516
1212.048, 17.58594
1213.130, 197.8750
1214.212, 184.1602
1215.293, 32.44141
1216.374, 260.7168
1217.456, 185.9863
1218.536, 199.2500
1219.617, 18.48828
1220.698, 142.7441
1221.778, 82.97266
1222.859, 96.40039
1223.939, 165.6191
1225.019, 302.8340
1226.099, 81.04297
1227.178, 373.2461
1228.258, 139.4453
1229.337, 114.6406
1230.417, 288.8301
1231.496, 3.013672
1232.574, 110.1816
1233.653, 363.3418
1234.732, 697.5000
1235.810, 647.1738
1236.888, 730.7227
1237.966, 523.9453
1239.044, 602.0820
1240.122, 327.2148
1241.199, 241.3438
1242.277, 391.4688
1243.354, 252.5859
1244.431, 187.7012
1245.508, 406.8086
1246.585, 277.9082
1247.661, 574.0059
1248.738, 503.0977
1249.814, 334.8242
1250.890, 243.9082
1251.966, 235.9180
1253.042, 199.6992
1254.117, 308.0645
1255.193, 288.1328
1256.268, 338.2246
1257.343, 460.3125
1258.418, 298.3984
1259.493, 450.4766
1260.567, 359.5527
1261.642, 402.6230
1262.716, 338.6895
1263.790, 390.7520
1264.864, 287.8105
1265.938, 319.8652
1267.011, 387.9141
1268.085, 414.9590
1269.158, 588.0039
1270.231, 396.8730
1271.304, 737.3262
1272.377, 760.3574
1273.450, 479.9297
1274.522, 499.9551
1275.594, 577.1504
1276.666, 416.1699
1277.738, 515.9844
1278.810, 579.2559
1279.882, 471.2715
1280.953, 407.2832
1282.025, 446.2949
1283.096, 572.2188
1284.167, 276.3438
1285.238, 424.3516
1286.308, 306.6504
1287.379, 391.6582
1288.449, 489.6621
1289.519, 589.3066
1290.589, 498.7305
1291.659, 610.7305
1292.729, 452.7305
1293.798, 477.7266
1294.868, 506.7363
1295.937, 688.7344
1297.006, 547.7285
1298.075, 365.7227
1299.143, 603.7168
1300.212, 206.7090
1301.280, 350.7031
1302.348, 292.3945
1303.416, 322.7422
1304.484, 241.7324
1305.552, 508.7266
1306.620, 521.7168
1307.687, 660.7090
1308.754, 584.7012
1309.821, 713.6953
1310.888, 455.6895
1311.955, 628.6855
1313.021, 574.6836
1314.088, 602.6816
1315.154, 514.6855
1316.220, 563.6855
1317.286, 310.6914
1318.352, 641.7031
1319.417, 499.6973
1320.483, 622.0996
1321.548, 306.4434
1322.613, 765.1992
1323.678, 511.1152
1324.743, 442.3711
1325.807, 424.3945
1326.872, 410.4238
1327.936, 222.4512
1329.000, 354.4805
1330.064, 274.5156
1331.128, 359.1152
1332.191, 314.1543
1333.255, 397.1973
1334.318, 246.2461
1335.381, 252.2969
1336.444, 263.3457
1337.507, 61.73633
1338.569, 78.95312
1339.632, 393.6191
1340.694, 110.3359
1341.756, 180.4062
1342.818, 32.48047
1343.880, 288.5352
1344.941, 57.61719
1346.003, 271.7051
1347.064, 206.7988
1348.125, 178.4512
1349.186, 172.5547
1350.247, 36.33594
1351.308, 160.7754
1352.368, 24.89062
1353.428, 49.00977
1354.489, 407.1367
1355.549, 178.2695
1356.608, 197.4102
1357.668, 75.55469
1358.727, 278.7070
1359.787, 376.7109
1360.846, 98.87891
1361.905, 236.0508
1362.964, 161.2305
1364.022, 98.39062
1365.081, 54.55859
1366.139, 69.56250
1367.197, 270.9180
1368.255, 189.0781
1369.313, 121.1953
1370.371, 274.2695
1371.428, 222.3516
1372.486, 307.4375
1373.543, 154.5195
1374.600, 259.6133
1375.657, 479.7109
1376.713, 264.8125
1377.770, 191.9453
1378.826, 273.0859
1379.882, 137.2422
1380.938, 376.6992
1381.994, 326.8711
1383.050, 253.5703
1384.106, 209.7500
1385.161, 432.9414
1386.216, 139.1406
1387.271, 357.3398
1388.326, 332.5547
1389.381, 90.77734
1390.435, 249.0977
1391.490, 298.3320
1392.544, 169.5742
1393.598, 284.8242
1394.652, 194.0820
1395.705, 134.3477
1396.759, 148.6211
1397.812, 96.95312
1398.866, 116.2969
1399.919, 71.65234
1400.972, 153.0469
1402.024, 7.453125
1403.077, 67.91797
1404.129, 84.60938
1405.181, 130.8516
1406.233, 360.3438
1407.285, 129.8398
1408.337, 70.34766
1409.389, 348.8711
1410.440, 126.4141
1411.491, 150.0000
1412.542, 92.40625
1413.593, 198.1875
1414.644, 248.7734
1415.695, 129.7383
1416.745, 140.2656
1417.795, 247.2305
1418.845, 346.7422
1419.895, 294.2617
1420.945, 33.20703
1421.995, 64.32812
1423.044, 316.8789
1424.093, 149.4375
1425.142, 195.0117
1426.191, 196.6016
1427.240, 243.2031
1428.289, 198.8164
1429.337, 427.4609
1430.385, 139.1367
1431.433, 320.8242
1432.481, 569.5391
1433.529, 484.2695
1434.577, 377.1094
1435.624, 626.8945
1436.672, 630.7109
1437.719, 499.7383
1438.766, 701.6211
1439.812, 826.5391
1440.859, 762.5039
1441.905, 857.5117
1442.952, 869.1484
1443.998, 929.7617
1445.044, 918.7969
1446.090, 1085.434
1447.135, 1149.465
1448.181, 1233.242
1449.226, 1123.125
1450.271, 1116.035
1451.316, 1362.957
1452.361, 1390.902
1453.405, 1093.855
1454.450, 1273.832
1455.494, 897.8359
1456.538, 1128.875
1457.582, 1013.945
1458.626, 1188.031
1459.670, 1216.133
1460.713, 1309.262
1461.757, 1300.062
1462.800, 1088.227
1463.843, 801.4102
1464.886, 728.6133
1465.928, 770.8398
1466.971, 635.0938
1468.013, 787.3750
1469.055, 908.6719
1470.097, 217.9883
1471.139, 661.3242
1472.181, 472.6875
1473.222, 527.0742
1474.263, 553.4883
1475.305, 597.9258
1476.346, 765.3906
1477.386, 314.8672
1478.427, 570.2930
1479.468, 690.7422
1480.508, 438.2227
1481.548, 688.7266
1482.588, 483.2539
1483.628, 197.8125
1484.668, 308.3984
1485.707, 278.0078
1486.747, 139.6484
1487.786, 565.3086
1488.825, 585.3008
1489.864, 236.9414
1490.902, 437.6133
1491.941, 429.3086
1492.979, 206.2344
1494.017, 115.2383
1495.055, 306.9102
1496.093, 201.3125
1497.131, 336.0391
1498.168, 384.4609
1499.206, 120.8984
1500.243, 114.3555
1501.280, 329.8320
1502.317, 308.3242
1503.354, 184.8359
1504.390, 207.3594
1505.426, 41.10547
1506.463, 117.4375
1507.499, 125.0039
1508.535, 279.5312
1509.570, 295.0820
1510.606, 9.660156
1511.641, 227.2578
1512.676, 62.86719
1513.711, 19.50000
1514.746, 4.855469
1515.781, 252.8008
1516.816, 309.4922
1517.850, 130.2031
1518.884, 283.9297
1519.918, 86.66016
1520.952, 425.4102
1521.986, 152.1641
1523.019, 172.9219
1524.053, 159.6836
1525.086, 328.4453
1526.119, 248.2148
1527.152, 234.9844
1528.185, 442.7539
1529.217, 172.5156
1530.250, 602.3516
1531.282, 256.2539
1532.314, 360.2578
1533.346, 296.8320
1534.377, 158.6562
1535.409, 367.5781
1536.440, 101.5703
1537.472, 118.6289
1538.503, 319.8594
1539.534, 276.3828
1540.564, 352.6758
1541.595, 285.9961
1542.625, 246.3477
1543.656, 131.2969
1544.686, 160.7773
1545.716, 197.1133
1546.745, 182.5703
1547.775, 198.5547
1548.804, 227.4805
1549.834, 193.1484
1550.863, 291.7578
1551.892, 299.4023
1552.920, 344.0156
1553.949, 529.5430
1554.977, 397.1133
1556.006, 228.5742
1557.034, 396.2812
1558.062, 42.33984
1559.089, 342.7656
1560.117, 132.6523
1561.144, 33.11719
1562.172, 275.3359
1563.199, 476.6250
1564.226, 331.9805
1565.252, 230.8203
1566.279, 187.6289
1567.305, 5.097656
1568.332, 123.6211
1569.358, 128.1367
1570.384, 0.0000000E+00
##END=



