##NAMES=Actinolite
##RRUFFID=R060041
##IDEAL CHEMISTRY=Ca_2_(Mg_4.5-2.5_Fe^2+^_0.5-2.5_)Si_8_O_22_(OH)_2_
##LOCALITY=Prince of Wales Island, Alaska, USA
##OWNER=RRUFF
##SOURCE=University of Arizona Mineral Museum
##DESCRIPTION=Green acicular crystals forming parallel groups in cylindrical or bladed forms
##STATUS=The identification of this mineral has been confirmed by X-ray diffraction and chemical analysis
##URL=rruff.info/R060041
##MEASURED CHEMISTRY=(Ca_0.97_Na_0.03_)_2_(Mg_0.65_Fe^2+^_0.29_Fe^3+^_0.04_Al_0.01_Mn_0.01_)_5_(Si_0.98_Al_0.02_)_8_O_22_(OH)_2_
95.94800, 0.0000000E+00
97.18200, 1.788086
98.41600, 101.9473
99.64900, 34.75195
100.8830, 68.04590
102.1160, 21.17773
103.3490, 23.04590
104.5820, 119.8984
105.8150, 143.5586
107.0470, 498.9570
108.2800, 726.2549
109.5120, 1020.785
110.7440, 987.0127
111.9760, 583.0078
113.2080, 595.3105
114.4400, 593.2461
115.6710, 647.5566
116.9030, 785.0098
118.1340, 638.4053
119.3650, 684.5654
120.5960, 391.3389
121.8270, 181.5947
123.0580, 314.2236
124.2880, 264.1289
125.5190, 206.2314
126.7490, 91.45703
127.9790, 27.25781
129.2090, 183.0264
130.4390, 125.2568
131.6680, 203.3828
132.8980, 201.3574
134.1270, 370.1094
135.3560, 449.5674
136.5850, 562.6758
137.8140, 687.3916
139.0430, 1098.675
140.2710, 1426.498
141.5000, 1917.830
142.7280, 2605.652
143.9560, 3523.947
145.1840, 4779.697
146.4120, 5914.889
147.6390, 7330.514
148.8670, 8729.568
150.0940, 10401.05
151.3210, 11387.95
152.5490, 11366.26
153.7750, 10462.97
155.0020, 8579.068
156.2290, 7284.551
157.4550, 5676.399
158.6810, 4526.605
159.9080, 3848.160
161.1340, 3338.055
162.3590, 3256.277
163.5850, 3489.818
164.8110, 4212.665
166.0360, 5144.807
167.2610, 6293.232
168.4860, 7642.931
169.7110, 9533.816
170.9360, 11486.63
172.1610, 13576.43
173.3850, 14732.26
174.6100, 14556.13
175.8340, 13088.08
177.0580, 11029.10
178.2820, 9137.229
179.5050, 7288.464
180.7290, 5449.814
181.9520, 4379.287
183.1760, 3402.889
184.3990, 2728.620
185.6220, 2415.483
186.8450, 2220.483
188.0670, 2106.680
189.2900, 2101.027
190.5120, 1998.525
191.7340, 1916.270
192.9560, 2071.147
194.1780, 2066.162
195.4000, 2210.311
196.6220, 2450.638
197.8430, 2454.260
199.0640, 2566.227
200.2860, 3037.416
201.5070, 3376.818
202.7270, 3801.508
203.9480, 4422.369
205.1690, 4868.439
206.3890, 5305.701
207.6090, 6209.143
208.8290, 7287.762
210.0490, 8984.582
211.2690, 10377.62
212.4890, 12093.77
213.7080, 13892.04
214.9280, 15537.45
216.1470, 17021.95
217.3660, 17840.55
218.5850, 18205.34
219.8030, 17808.24
221.0220, 16469.23
222.2400, 14762.33
223.4590, 12826.63
224.6770, 10965.05
225.8950, 9257.600
227.1120, 7506.220
228.3300, 6296.905
229.5480, 5062.656
230.7650, 4082.469
231.9820, 3379.347
233.1990, 2792.284
234.4160, 2272.280
235.6330, 1907.705
236.8490, 1654.447
238.0660, 1434.615
239.2820, 1304.839
240.4980, 1236.114
241.7140, 1052.443
242.9300, 873.3203
244.1460, 984.2842
245.3610, 895.7871
246.5770, 882.8340
247.7920, 941.4004
249.0070, 685.1396
250.2220, 762.5752
251.4370, 628.3789
252.6510, 684.5195
253.8660, 548.9697
255.0800, 650.7090
256.2940, 592.7148
257.5080, 354.9717
258.7220, 568.4551
259.9360, 761.1602
261.1490, 743.0752
262.3630, 614.1875
263.5760, 431.4893
264.7890, 400.9697
266.0020, 352.6201
267.2150, 376.4355
268.4270, 302.4072
269.6400, 322.5273
270.8520, 245.7930
272.0640, 355.1963
273.2760, 366.7324
274.4880, 549.2275
275.7000, 478.0146
276.9120, 452.9219
278.1230, 500.8564
279.3340, 636.9883
280.5450, 550.2285
281.7560, 750.0986
282.9670, 823.5410
284.1780, 978.0820
285.3880, 799.6328
286.5980, 1076.359
287.8090, 1119.178
289.0190, 1007.082
290.2290, 1132.071
291.4380, 1234.145
292.6480, 1279.297
293.8570, 1229.528
295.0670, 1192.953
296.2760, 1174.124
297.4850, 1160.202
298.6930, 1054.057
299.9020, 1096.618
301.1110, 801.6514
302.3190, 789.3770
303.5270, 717.2637
304.7350, 411.3662
305.9430, 384.7402
307.1510, 474.2520
308.3580, 427.2461
309.5660, 286.9834
310.7730, 327.4795
311.9800, 431.9512
313.1870, 317.6621
314.3940, 473.1807
315.6010, 390.5938
316.8070, 434.5947
318.0130, 266.3223
319.2200, 494.3516
320.4260, 424.9795
321.6310, 610.4766
322.8370, 590.9043
324.0430, 760.3223
325.2480, 667.1650
326.4540, 816.0713
327.6590, 675.5273
328.8640, 807.4160
330.0680, 794.3594
331.2730, 915.0732
332.4780, 975.0781
333.6820, 849.1250
334.8860, 898.2012
336.0900, 887.9697
337.2940, 913.9814
338.4980, 932.7285
339.7010, 1019.015
340.9050, 1010.834
342.1080, 1185.105
343.3110, 1283.406
344.5140, 1306.920
345.7170, 1344.665
346.9200, 1319.147
348.1220, 1218.294
349.3240, 1323.636
350.5270, 1176.080
351.7290, 1441.543
352.9310, 1432.729
354.1320, 1181.229
355.3340, 1452.746
356.5350, 1410.277
357.7370, 1600.824
358.9380, 1415.386
360.1390, 1596.961
361.3400, 1700.548
362.5400, 1634.147
363.7410, 1630.758
364.9410, 1570.379
366.1410, 1641.012
367.3410, 1473.654
368.5410, 1371.304
369.7410, 1073.962
370.9400, 1210.629
372.1400, 1131.301
373.3390, 1064.980
374.5380, 1104.666
375.7370, 1165.358
376.9360, 1289.055
378.1350, 1332.848
379.3330, 1346.465
380.5310, 1459.177
381.7300, 1617.893
382.9280, 1650.613
384.1260, 1729.338
385.3230, 1778.066
386.5210, 1753.749
387.7180, 1833.574
388.9160, 1705.397
390.1130, 1553.261
391.3100, 1557.162
392.5060, 1319.098
393.7030, 1222.069
394.9000, 1016.071
396.0960, 1062.104
397.2920, 779.1641
398.4880, 708.2490
399.6840, 710.3604
400.8800, 595.4941
402.0750, 775.6514
403.2710, 817.8281
404.4660, 632.0254
405.6610, 677.2402
406.8560, 493.4736
408.0510, 542.7236
409.2450, 282.9883
410.4400, 445.2695
411.6340, 512.5645
412.8280, 370.8730
414.0220, 357.1934
415.2160, 196.5244
416.4100, 334.8672
417.6030, 254.2207
418.7970, 206.5840
419.9900, 215.6250
421.1830, 93.66406
422.3760, 135.6875
423.5690, 6.046875
424.7610, 39.58984
425.9540, 197.7637
427.1460, 68.12207
428.3380, 158.5156
429.5300, 11.77930
430.7220, 109.0791
431.9140, 107.3789
433.1050, 137.7012
434.2970, 134.0068
435.4880, 85.79297
436.6790, 65.20020
437.8700, 17.07324
439.0610, 67.77832
440.2510, 81.52051
441.4420, 213.3066
442.6320, 48.00879
443.8220, 275.9346
445.0120, 52.99414
446.2020, 16.27637
447.3910, 78.36035
448.5810, 63.14355
449.7700, 165.3896
450.9600, 14.56250
452.1490, 25.21582
453.3370, 18.43359
454.5260, 85.79688
455.7150, 0.3945310
456.9030, 82.05566
458.0910, 58.67773
459.2800, 68.84277
460.4670, 10.10352
461.6550, 28.28516
462.8430, 124.3428
464.0300, 20.93945
465.2180, 99.79883
466.4050, 80.61621
467.5920, 55.49707
468.7790, 55.59668
469.9650, 24.31836
471.1520, 95.72363
472.3380, 26.75195
473.5250, 23.24316
474.7110, 156.7139
475.8970, 76.65820
477.0820, 123.5879
478.2680, 18.50879
479.4540, 15.39844
480.6390, 47.74121
481.8240, 22.94238
483.0090, 58.80469
484.1940, 115.5303
485.3780, 113.8828
486.5630, 2.061523
487.7470, 69.58789
488.9320, 20.21973
490.1160, 90.18555
491.3000, 6.316406
492.4830, 5.773438
493.6670, 164.1875
494.8500, 53.41406
496.0340, 166.9180
497.2170, 236.2354
498.4000, 197.5352
499.5820, 355.8203
500.7650, 208.0850
501.9480, 282.3320
503.1300, 358.5625
504.3120, 337.7734
505.4940, 338.9658
506.6760, 357.1445
507.8580, 237.3037
509.0390, 419.4502
510.2210, 352.6309
511.4020, 503.7910
512.5830, 458.9346
513.7640, 591.0596
514.9450, 480.1650
516.1250, 414.2539
517.3060, 636.3223
518.4860, 736.3770
519.6660, 565.4238
520.8460, 778.4502
522.0260, 815.4932
523.2060, 1008.535
524.3850, 1002.601
525.5650, 875.7061
526.7440, 984.8555
527.9230, 918.9844
529.1020, 800.0938
530.2810, 839.1846
531.4590, 837.2539
532.6380, 772.4580
533.8160, 582.4453
534.9940, 693.5654
536.1720, 620.6641
537.3500, 582.7441
538.5270, 620.8193
539.7050, 527.8711
540.8820, 557.8994
542.0590, 662.9043
543.2360, 468.8848
544.4130, 464.8398
545.5900, 525.7705
546.7660, 607.7031
547.9430, 439.6094
549.1190, 631.5098
550.2950, 432.3877
551.4710, 346.2686
552.6470, 238.1318
553.8220, 380.9697
554.9980, 301.7812
556.1730, 358.5645
557.3480, 572.3252
558.5230, 448.0703
559.6980, 524.2275
560.8730, 434.5039
562.0470, 453.1934
563.2220, 427.9697
564.3960, 299.6348
565.5700, 315.2734
566.7440, 417.3574
567.9170, 302.9414
569.0910, 234.4961
570.2640, 413.1094
571.4380, 514.6074
572.6110, 428.0820
573.7840, 198.5293
574.9570, 400.9492
576.1290, 270.3379
577.3020, 440.7012
578.4740, 404.0352
579.6460, 285.2285
580.8180, 288.7207
581.9900, 271.3711
583.1620, 165.3086
584.3330, 207.5781
585.5040, 223.4141
586.6760, 9.597656
587.8470, 103.3672
589.0180, 137.4375
590.1880, 102.9980
591.3590, 145.4473
592.5290, 11.43945
593.7000, 83.69922
594.8700, 178.2188
596.0400, 100.7871
597.2090, 358.1367
598.3790, 117.6992
599.5490, 202.3887
600.7180, 109.5078
601.8870, 397.9199
603.0560, 287.0488
604.2250, 288.6016
605.3940, 417.3047
606.5620, 346.0938
607.7300, 368.9102
608.8990, 398.3223
610.0670, 395.6875
611.2350, 228.5195
612.4020, 614.9336
613.5700, 241.3086
614.7370, 574.9277
615.9050, 757.2734
617.0720, 592.7188
618.2390, 749.7129
619.4060, 627.3262
620.5720, 806.4414
621.7390, 855.7363
622.9050, 759.0137
624.0710, 908.7129
625.2370, 963.8672
626.4030, 1020.998
627.5690, 1253.920
628.7340, 1327.990
629.9000, 1394.947
631.0650, 1452.438
632.2300, 1633.533
633.3950, 1613.961
634.5600, 1860.932
635.7240, 2115.551
636.8890, 2183.127
638.0530, 2355.031
639.2170, 2588.082
640.3810, 2786.945
641.5450, 3099.787
642.7080, 3520.695
643.8720, 3849.490
645.0350, 4173.266
646.1980, 4498.777
647.3610, 4808.508
648.5240, 5186.564
649.6870, 5961.410
650.8490, 6323.074
652.0120, 6939.086
653.1740, 7830.859
654.3360, 8879.736
655.4980, 10560.85
656.6600, 11745.55
657.8210, 13849.23
658.9830, 16435.96
660.1440, 19392.55
661.3050, 23214.64
662.4660, 27276.96
663.6270, 31905.01
664.7870, 36301.16
665.9480, 40250.83
667.1080, 43177.20
668.2680, 43990.93
669.4280, 42485.93
670.5880, 39722.18
671.7480, 35550.05
672.9070, 30349.88
674.0670, 25171.45
675.2260, 20657.85
676.3850, 16750.00
677.5440, 13474.02
678.7030, 11122.45
679.8610, 9294.484
681.0200, 7548.637
682.1780, 6330.658
683.3360, 5697.619
684.4940, 4898.551
685.6520, 4436.430
686.8090, 3731.445
687.9670, 3625.676
689.1240, 2960.977
690.2810, 2716.207
691.4380, 2180.795
692.5950, 2041.781
693.7520, 1939.492
694.9080, 1835.295
696.0650, 1755.389
697.2210, 1639.744
698.3770, 1179.283
699.5330, 1358.418
700.6880, 1213.170
701.8440, 938.4590
702.9990, 1173.539
704.1550, 990.3320
705.3100, 892.9766
706.4650, 718.4062
707.6190, 699.8066
708.7740, 623.1289
709.9290, 777.1836
711.0830, 608.8320
712.2370, 653.2441
713.3910, 760.6582
714.5450, 690.0977
715.6980, 581.6777
716.8520, 600.9609
718.0050, 475.6445
719.1580, 468.8125
720.3110, 334.6504
721.4640, 348.0117
722.6170, 350.1074
723.7700, 345.1953
724.9220, 444.6680
726.0740, 437.5723
727.2260, 541.2832
728.3780, 371.0859
729.5300, 349.3008
730.6810, 436.3652
731.8330, 565.8691
732.9840, 297.8906
734.1350, 473.0137
735.2860, 456.5215
736.4370, 751.1055
737.5880, 539.9688
738.7380, 516.1602
739.8880, 584.9258
741.0390, 443.0000
742.1890, 454.0488
743.3380, 553.1172
744.4880, 437.1641
745.6380, 545.2207
746.7870, 585.2852
747.9360, 567.3242
749.0850, 550.3398
750.2340, 544.0586
751.3830, 405.3340
752.5310, 424.3008
753.6800, 382.2617
754.8280, 166.1992
755.9760, 79.11523
757.1240, 238.9980
758.2720, 74.86719
759.4190, 81.71484
760.5670, 136.5605
761.7140, 323.3984
762.8610, 348.2168
764.0080, 246.0156
765.1550, 204.7910
766.3020, 108.5566
767.4480, 234.3008
768.5950, 147.0332
769.7410, 333.7812
770.8870, 99.51758
772.0330, 288.2441
773.1780, 4.949219
774.3240, 72.64062
775.4690, 260.3066
776.6140, 151.9492
777.7590, 263.5684
778.9040, 209.1680
780.0490, 168.7441
781.1940, 198.3008
782.3380, 225.8340
783.4820, 58.34961
784.6260, 284.8379
785.7700, 23.30273
786.9140, 155.2617
788.0580, 251.0469
789.2010, 98.33594
790.3450, 148.5996
791.4880, 116.8438
792.6310, 74.06641
793.7730, 148.2617
794.9160, 25.43945
796.0590, 0.4121090
797.2010, 155.6934
798.3430, 103.2188
799.4850, 28.22656
800.6270, 136.2891
801.7690, 186.4609
802.9100, 211.7695
804.0520, 168.7715
805.1930, 78.29492
806.3340, 42.79688
807.4750, 190.2754
808.6160, 188.2637
809.7560, 49.06445
810.8970, 185.6309
812.0370, 108.5410
813.1770, 13.69336
814.3170, 37.17773
815.4570, 80.89453
816.5960, 202.9531
817.7360, 128.9922
818.8750, 151.0156
820.0140, 221.0215
821.1530, 186.0137
822.2920, 75.01172
823.4310, 120.8945
824.5690, 51.21094
825.7070, 44.62305
826.8460, 85.55859
827.9840, 12.81445
829.1220, 87.89648
830.2590, 153.5938
831.3970, 114.2754
832.5340, 38.94531
833.6710, 30.40625
834.8080, 180.2070
835.9450, 78.19336
837.0820, 85.33984
838.2190, 99.13867
839.3550, 12.30859
840.4910, 53.73828
841.6270, 81.15625
842.7630, 176.5566
843.8990, 168.9473
845.0350, 24.32617
846.1700, 69.68750
847.3060, 48.03906
848.4410, 96.37500
849.5760, 82.83008
850.7100, 73.07422
851.8450, 31.31641
852.9800, 93.60352
854.1140, 1.880859
855.2480, 121.1426
856.3820, 79.60547
857.5160, 88.40625
858.6500, 175.7363
859.7830, 83.87109
860.9170, 33.99414
862.0500, 77.10547
863.1830, 164.2266
864.3160, 139.3887
865.4480, 212.0195
866.5810, 219.6895
867.7130, 292.8281
868.8460, 196.9766
869.9780, 210.1191
871.1100, 125.2520
872.2410, 6.619141
873.3730, 180.4941
874.5050, 51.60352
875.6360, 120.7227
876.7670, 439.8359
877.8980, 307.9395
879.0290, 255.0352
880.1590, 213.1250
881.2900, 324.2031
882.4200, 204.2754
883.5500, 217.3379
884.6800, 220.3945
885.8100, 426.4414
886.9400, 370.5234
888.0690, 442.6016
889.1990, 314.6719
890.3280, 397.7344
891.4570, 466.6621
892.5860, 373.0176
893.7140, 465.0684
894.8430, 482.3789
895.9710, 551.7812
897.1000, 527.5625
898.2280, 698.5918
899.3560, 793.6621
900.4830, 746.7266
901.6110, 742.7832
902.7380, 708.4629
903.8660, 594.5117
904.9930, 1002.357
906.1200, 964.4355
907.2460, 824.0703
908.3730, 1186.135
909.5000, 1238.822
910.6260, 1373.230
911.7520, 1351.285
912.8780, 1603.172
914.0040, 1354.227
915.1290, 1624.277
916.2550, 1917.232
917.3800, 2298.273
918.5050, 2615.309
919.6300, 2919.584
920.7550, 3251.633
921.8800, 3554.365
923.0040, 3999.279
924.1290, 4251.373
925.2530, 4564.094
926.3770, 4871.061
927.5010, 5073.895
928.6250, 4897.473
929.7480, 4425.439
930.8720, 4261.438
931.9950, 3868.355
933.1180, 3414.424
934.2410, 2934.986
935.3640, 2645.299
936.4860, 2372.869
937.6090, 2263.307
938.7310, 2086.199
939.8530, 2159.373
940.9750, 2238.182
942.0970, 2036.697
943.2180, 2079.945
944.3400, 1960.559
945.4610, 1926.201
946.5820, 1936.080
947.7030, 1716.098
948.8240, 1519.346
949.9450, 1606.697
951.0650, 1558.637
952.1860, 1276.943
953.3060, 1278.141
954.4260, 1344.441
955.5460, 1313.783
956.6650, 1276.803
957.7850, 972.5137
958.9040, 1136.734
960.0230, 1067.721
961.1420, 988.6172
962.2610, 1046.559
963.3800, 830.1230
964.4990, 934.2891
965.6170, 944.7012
966.7350, 1067.006
967.8530, 861.9922
968.9710, 867.7637
970.0890, 582.2383
971.2070, 927.1621
972.3240, 829.4492
973.4410, 774.1797
974.5580, 914.1152
975.6750, 746.3223
976.7920, 795.6758
977.9090, 862.2285
979.0250, 742.8496
980.1410, 754.0684
981.2580, 783.4941
982.3740, 683.8457
983.4890, 975.4160
984.6050, 758.9473
985.7200, 869.4551
986.8360, 974.8066
987.9510, 851.4355
989.0660, 682.6504
990.1810, 989.3672
991.2950, 782.4102
992.4100, 773.9688
993.5240, 955.7148
994.6390, 1008.408
995.7530, 953.9102
996.8660, 961.6113
997.9800, 1022.400
999.0940, 1119.197
1000.207, 1134.008
1001.320, 1327.830
1002.433, 1086.660
1003.546, 1403.502
1004.659, 1231.354
1005.772, 1438.217
1006.884, 1609.613
1007.996, 1410.500
1009.108, 1616.109
1010.220, 1837.016
1011.332, 1780.932
1012.444, 1785.855
1013.555, 1932.812
1014.666, 2233.738
1015.777, 2188.695
1016.888, 2194.660
1017.999, 2421.637
1019.110, 2413.625
1020.220, 2544.623
1021.331, 2761.920
1022.441, 2818.939
1023.551, 2969.027
1024.661, 2737.965
1025.770, 3043.012
1026.880, 3325.623
1027.989, 3194.875
1029.098, 3503.514
1030.207, 3537.625
1031.316, 3566.730
1032.425, 3537.131
1033.533, 3837.457
1034.642, 3770.590
1035.750, 4021.090
1036.858, 4383.240
1037.966, 4831.402
1039.073, 5487.834
1040.181, 6402.203
1041.288, 7150.477
1042.396, 7999.893
1043.503, 9173.443
1044.610, 10110.34
1045.716, 11672.59
1046.823, 12949.73
1047.929, 14220.98
1049.036, 15533.24
1050.142, 16523.51
1051.248, 17405.79
1052.353, 17611.17
1053.459, 17851.78
1054.564, 17197.80
1055.670, 16224.12
1056.775, 15203.97
1057.880, 13733.36
1058.985, 12070.58
1060.089, 10986.18
1061.194, 10464.93
1062.298, 9752.344
1063.402, 8973.174
1064.506, 8558.609
1065.610, 7799.076
1066.713, 6856.922
1067.817, 5684.539
1068.920, 5393.104
1070.023, 4274.832
1071.126, 3962.469
1072.229, 3455.180
1073.332, 2821.840
1074.435, 2383.785
1075.537, 2070.633
1076.639, 1905.363
1077.741, 1783.010
1078.843, 1630.811
1079.945, 1548.213
1081.046, 1377.541
1082.148, 1361.418
1083.249, 1177.578
1084.350, 995.2891
1085.451, 1065.365
1086.551, 908.3184
1087.652, 909.2305
1088.752, 839.2383
1089.853, 860.1543
1090.953, 665.1016
1092.053, 704.0488
1093.152, 826.0195
1094.252, 545.9941
1095.351, 694.1328
1096.451, 643.8379
1097.550, 514.8574
1098.649, 509.9941
1099.748, 611.0176
1100.846, 592.0430
1101.945, 459.4902
1103.043, 516.5312
1104.141, 419.7539
1105.239, 316.8203
1106.337, 527.9219
1107.434, 87.15430
1108.532, 632.5371
1109.629, 375.6406
1110.726, 344.0000
1111.823, 325.1113
1112.920, 346.2168
1114.017, 322.3203
1115.113, 228.4688
1116.210, 290.6016
1117.306, 244.7051
1118.402, 381.1602
1119.498, 353.2637
1120.593, 460.3672
1121.689, 416.4727
1122.784, 238.5723
1123.879, 120.6953
1124.974, 415.8359
1126.069, 163.9766
1127.164, 296.1152
1128.259, 193.2520
1129.353, 246.3887
1130.447, 262.5215
1131.541, 114.9316
1132.635, 305.0586
1133.729, 84.18359
1134.822, 167.3047
1135.916, 220.4219
1137.009, 338.5391
1138.102, 164.6523
1139.195, 148.0234
1140.288, 94.86914
1141.380, 103.1934
1142.473, 45.25000
1143.565, 251.3008
1144.657, 143.3496
1145.749, 146.3965
1146.841, 84.43750
1147.932, 315.4746
1149.024, 87.50977
1150.115, 137.5371
1151.206, 169.4395
1152.297, 0.4921880
1153.388, 150.4160
1154.479, 48.33594
1155.569, 16.75391
1156.659, 279.1445
1157.750, 6.962891
1158.839, 25.91992
1159.929, 6.207031
1161.019, 68.65625
1162.108, 129.5098
1163.198, 181.6406
1164.287, 29.10547
1165.376, 123.8457
1166.465, 2.576172
1167.553, 256.2969
1168.642, 184.0098
1169.730, 132.2812
1170.818, 104.3457
1171.906, 67.96680
1172.994, 37.58398
1174.082, 10.18750
1175.170, 2.236328
1176.257, 88.36914
1177.344, 23.05078
1178.431, 152.5059
1179.518, 143.0527
1180.605, 123.5938
1181.691, 118.1289
1182.778, 63.65430
1183.864, 56.82812
1184.950, 111.3555
1186.036, 261.0391
1187.122, 58.57227
1188.207, 156.7676
1189.292, 110.9023
1190.378, 65.34961
1191.463, 30.59180
1192.548, 132.8223
1193.632, 101.9570
1194.717, 192.1895
1195.801, 110.6719
1196.886, 4.615234
1197.970, 47.58203
1199.054, 110.4082
1200.137, 85.38672
1201.221, 125.3535
1202.305, 185.3105
1203.388, 26.72656
1204.471, 14.80273
1205.554, 12.71875
1206.637, 230.9512
1207.719, 8.804688
1208.802, 238.6348
1209.884, 221.4492
1210.966, 289.2578
1212.048, 181.0527
1213.130, 3.835938
1214.212, 20.40625
1215.293, 41.68750
1216.374, 124.9863
1217.456, 209.6445
1218.536, 115.2891
1219.617, 247.9238
1220.698, 165.5430
1221.778, 158.1504
1222.859, 408.7461
1223.939, 255.3281
1225.019, 110.9004
1226.099, 14.54297
1227.178, 187.9766
1228.258, 117.4863
1229.337, 177.9824
1230.417, 222.4648
1231.496, 88.06250
1232.574, 210.4258
1233.653, 111.8652
1234.732, 260.2891
1235.810, 465.7031
1236.888, 15.10742
1237.966, 4.515625
1239.044, 263.8281
1240.122, 178.8301
1241.199, 153.3887
1242.277, 172.5918
1243.354, 214.7891
1244.431, 145.9707
1245.508, 150.2031
1246.585, 182.1973
1247.661, 74.49805
1248.738, 262.6230
1249.814, 232.7324
1250.890, 290.8301
1251.966, 515.9121
1253.042, 185.9844
1254.117, 456.0762
1255.193, 419.1309
1256.268, 182.1699
1257.343, 546.1973
1258.418, 503.2109
1259.493, 278.2109
1260.567, 98.19336
1261.642, 375.1602
1262.716, 174.1152
1263.790, 452.0547
1264.864, 302.9805
1265.938, 327.9082
1267.011, 186.8828
1268.085, 105.7676
1269.158, 490.6504
1270.231, 198.6973
1271.304, 344.5566
1272.377, 280.4004
1273.450, 248.2305
1274.522, 232.1211
1275.594, 296.9258
1276.666, 390.8906
1277.738, 274.6680
1278.810, 376.4316
1279.882, 307.3711
1280.953, 314.1035
1282.025, 242.5293
1283.096, 220.8535
1284.167, 201.3867
1285.238, 218.7324
1286.308, 195.3945
1287.379, 207.6719
1288.449, 251.8516
1289.519, 245.0039
1290.589, 337.5918
1291.659, 405.1836
1292.729, 398.4766
1293.798, 469.8379
1294.868, 441.3906
1295.937, 429.5684
1297.006, 331.1113
1298.075, 539.6406
1299.143, 421.7051
1300.212, 187.2090
1301.280, 379.0137
1302.348, 469.3184
1303.416, 361.4395
1304.484, 299.2031
1305.552, 361.0020
1306.620, 357.1582
1307.687, 306.5625
1308.754, 680.9492
1309.821, 671.3223
1310.888, 501.0586
1311.955, 290.2441
1313.021, 299.6953
1314.088, 388.2988
1315.154, 268.5977
1316.220, 560.4062
1317.286, 277.6738
1318.352, 308.0938
1319.417, 432.1348
1320.483, 577.0078
1321.548, 414.2070
1322.613, 266.9922
1323.678, 407.1719
1324.743, 324.3281
1325.807, 542.1035
1326.872, 550.5430
1327.936, 537.7676
1329.000, 384.7559
1330.064, 473.8867
1331.128, 272.2520
1332.191, 342.4219
1333.255, 261.4316
1334.318, 364.4102
1335.381, 362.2656
1336.444, 377.7422
1337.507, 443.8242
1338.569, 462.9004
1339.632, 573.0781
1340.694, 338.1348
1341.756, 576.9297
1342.818, 555.5312
1343.880, 346.4043
1344.941, 489.3926
1346.003, 418.1660
1347.064, 437.6758
1348.125, 413.3789
1349.186, 531.3945
1350.247, 474.4062
1351.308, 539.4121
1352.368, 404.4141
1353.428, 506.5215
1354.489, 518.2930
1355.549, 400.5957
1356.608, 307.9219
1357.668, 293.9199
1358.727, 340.8926
1359.787, 81.45508
1360.846, 219.2695
1361.905, 326.0742
1362.964, 214.3203
1364.022, 312.2832
1365.081, 294.6270
1366.139, 239.7910
1367.197, 256.0820
1368.255, 343.0898
1369.313, 245.3281
1370.371, 375.2598
1371.428, 219.1855
1372.486, 93.24805
1373.543, 313.2656
1374.600, 403.1816
1375.657, 236.7422
1376.713, 293.6445
1377.770, 409.5957
1378.826, 319.4883
1379.882, 191.7344
1380.938, 101.6152
1381.994, 245.2324
1383.050, 211.1348
1384.106, 218.0117
1385.161, 269.8906
1386.216, 210.7676
1387.271, 150.6445
1388.326, 230.2402
1389.381, 383.1133
1390.435, 240.9492
1391.490, 209.7812
1392.544, 110.6133
1393.598, 96.44531
1394.652, 173.3574
1395.705, 122.8398
1396.759, 225.6699
1397.812, 296.5352
1398.866, 258.4805
1399.919, 145.3340
1400.972, 103.4688
1402.024, 246.3340
1403.077, 80.17188
1404.129, 176.0117
1405.181, 222.6777
1406.233, 76.32227
1407.285, 227.9648
1408.337, 124.1152
1409.389, 129.2051
1410.440, 104.8047
1411.491, 118.3965
1412.542, 297.9883
1413.593, 172.5703
1414.644, 267.7539
1415.695, 160.6621
1416.745, 282.9473
1417.795, 271.4492
1418.845, 190.9375
1419.895, 249.7305
1420.945, 195.4355
1421.995, 177.6641
1423.044, 191.7676
1424.093, 164.1562
1425.142, 238.9805
1426.191, 153.4023
1427.240, 34.72461
1428.289, 119.0273
1429.337, 188.3125
1430.385, 7.419922
1431.433, 37.82422
1432.481, 9.025391
1433.529, 292.2090
1434.577, 343.3555
1435.624, 436.2773
1436.672, 40.21484
1437.719, 195.1738
1438.766, 43.05078
1439.812, 231.7656
1440.859, 347.4531
1441.905, 163.1562
1442.952, 333.1250
1443.998, 256.8320
1445.044, 394.2031
1446.090, 272.3516
1447.135, 242.4297
1448.181, 420.4375
1449.226, 381.5117
1450.271, 220.6484
1451.316, 201.7969
1452.361, 39.92578
1453.405, 104.0742
1454.450, 268.2500
1455.494, 407.4375
1456.538, 56.37500
1457.582, 211.8125
1458.626, 106.0625
1459.670, 140.3281
1460.713, 180.5938
1461.757, 210.8672
1462.800, 183.6875
1463.843, 194.1641
1464.886, 124.7188
1465.928, 134.0195
1466.971, 142.2109
1468.013, 56.44922
1469.055, 237.6836
1470.097, 217.9375
1471.139, 184.3164
1472.181, 284.6875
1473.222, 198.9805
1474.263, 241.3594
1475.305, 366.7500
1476.346, 153.1406
1477.386, 161.4766
1478.427, 93.84766
1479.468, 53.98047
1480.508, 79.28125
1481.548, 57.02344
1482.588, 152.4102
1483.628, 168.7188
1484.668, 267.1016
1485.707, 197.5234
1486.747, 240.7578
1487.786, 4.890625
1488.825, 160.2852
1489.864, 156.4062
1490.902, 448.8281
1491.941, 26.87891
1492.979, 89.57812
1494.017, 94.05469
1495.055, 24.53906
1496.093, 304.0469
1497.131, 129.5781
1498.168, 144.0625
1499.206, 216.5664
1500.243, 441.3164
1501.280, 209.1445
1502.317, 163.8750
1503.354, 332.4492
1504.390, 95.35938
1505.426, 212.2930
1506.463, 8.031250
1507.499, 179.7031
1508.535, 256.5039
1509.570, 292.3906
1510.606, 318.3203
1511.641, 310.2656
1512.676, 341.8047
1513.711, 445.0977
1514.746, 336.7852
1515.781, 330.3398
1516.816, 264.1875
1517.850, 176.0469
1518.884, 269.6758
1519.918, 19.32812
1520.952, 387.5547
1521.986, 55.45312
1523.019, 181.3594
1524.053, 529.2852
1525.086, 139.5586
1526.119, 204.3281
1527.152, 270.8711
1528.185, 352.7500
1529.217, 316.4258
1530.250, 331.8125
1531.282, 316.3281
1532.314, 284.5859
1533.346, 284.2812
1534.377, 244.7812
1535.409, 373.3359
1536.440, 330.2656
1537.472, 468.9375
1538.503, 389.3594
1539.534, 375.1602
1540.564, 48.24609
1541.595, 421.1133
1542.625, 297.7695
1543.656, 104.5273
1544.686, 231.6641
1545.716, 266.7656
1546.745, 45.30078
1547.775, 140.5938
1548.804, 55.80469
1549.834, 124.1250
1550.863, 267.9883
1551.892, 407.8438
1552.920, 310.8750
1553.949, 543.5508
1554.977, 459.8242
1556.006, 274.0508
1557.034, 187.8008
1558.062, 275.5156
1559.089, 158.8867
1560.117, 67.95703
1561.144, 5.406250
1562.172, 50.56641
1563.199, 222.3789
1564.226, 199.7070
1565.252, 36.68750
1566.279, 294.0742
1567.305, 174.8750
1568.332, 232.0234
1569.358, 20.09375
1570.384, 0.0000000E+00
##END=



