##NAMES=Actinolite
##RRUFFID=R060045
##IDEAL CHEMISTRY=Ca_2_(Mg_4.5-2.5_Fe^2+^_0.5-2.5_)Si_8_O_22_(OH)_2_
##LOCALITY=Colorado, USA
##OWNER=RRUFF
##SOURCE=University of Arizona Mineral Museum
##DESCRIPTION=Green prismatic crystals in a radial arrangement
##STATUS=The identification of this mineral has been confirmed by X-ray diffraction and chemical analysis
##URL=rruff.info/R060045
##MEASURED CHEMISTRY=(Ca_1.99_Na_0.01_)_Σ=2_(Mg_4.20_Fe^2+^_0.59_Al_0.09_Fe^3+^_0.08_Mn_0.02_Ti_0.01_)_Σ=5_(Si_7.82_Al_0.18_)_Σ=8_O_22_(OH)_2_
##PIN_ID=M00155
##ORIENTATION=Laser parallel to b* (0 1 0). Fiducial mark perpendicular to laser is parallel to c [0 0 1]
137.8140, 0.0000000E+00
139.0430, 54.32422
140.2710, 63.76562
141.5000, 93.10645
142.7280, 169.0303
143.9560, 21.97168
145.1840, 12.91016
146.4120, 16.19141
147.6390, 86.50098
148.8670, 63.54688
150.0940, 207.0879
151.3210, 263.9326
152.5490, 185.9268
153.7750, 336.9414
155.0020, 301.8730
156.2290, 465.6445
157.4550, 448.1689
158.6810, 431.3701
159.9080, 288.1826
161.1340, 372.5508
162.3590, 366.4307
163.5850, 404.7871
164.8110, 668.5869
166.0360, 692.7988
167.2610, 1103.398
168.4860, 1228.361
169.7110, 1658.667
170.9360, 2168.299
172.1610, 2973.270
173.3850, 4287.593
174.6100, 5839.162
175.8340, 7767.961
177.0580, 8063.961
178.2820, 6698.149
179.5050, 4731.516
180.7290, 3436.051
181.9520, 2247.753
183.1760, 1568.628
184.3990, 1005.676
185.6220, 723.8926
186.8450, 676.2773
188.0670, 404.8242
189.2900, 449.5312
190.5120, 418.3848
191.7340, 315.3828
192.9560, 246.5156
194.1780, 311.7793
195.4000, 208.1621
196.6220, 306.6621
197.8430, 356.2715
199.0640, 356.9824
200.2860, 444.7910
201.5070, 511.9629
202.7270, 653.9492
203.9480, 330.0938
205.1690, 636.2402
206.3890, 519.6152
207.6090, 577.8926
208.8290, 693.2031
210.0490, 842.5801
211.2690, 1135.207
212.4890, 1501.441
213.7080, 1913.863
214.9280, 2459.238
216.1470, 3046.619
217.3660, 4131.014
218.5850, 5031.502
219.8030, 5823.023
221.0220, 6345.566
222.2400, 5956.148
223.4590, 5105.852
224.6770, 4154.678
225.8950, 3340.629
227.1120, 3018.758
228.3300, 2608.076
229.5480, 2200.463
230.7650, 2135.910
231.9820, 1658.410
233.1990, 1540.051
234.4160, 1206.793
235.6330, 938.5527
236.8490, 652.4492
238.0660, 621.4531
239.2820, 573.4668
240.4980, 422.4922
241.7140, 359.5352
242.9300, 534.5938
244.1460, 323.6680
245.3610, 465.8105
246.5770, 378.9824
247.7920, 512.1621
249.0070, 350.3477
250.2220, 240.5391
251.4370, 424.7402
252.6510, 318.9453
253.8660, 182.1582
255.0800, 327.3789
256.2940, 442.6074
257.5080, 154.8398
258.7220, 428.0801
259.9360, 522.3242
261.1490, 251.5742
262.3630, 165.8320
263.5760, 158.0918
264.7890, 15.64062
266.0020, 54.62891
267.2150, 89.90430
268.4270, 2.816406
269.6400, 2.464844
270.8520, 92.75195
272.0640, 71.04102
273.2760, 66.66602
274.4880, 55.62891
275.7000, 283.9238
276.9120, 41.77930
278.1230, 241.5215
279.3340, 194.8125
280.5450, 138.1016
281.7560, 244.3926
282.9670, 235.6914
284.1780, 532.7422
285.3880, 526.6172
286.5980, 707.2754
287.8090, 763.4375
289.0190, 788.8672
290.2290, 548.9707
291.4380, 623.4727
292.6480, 619.2285
293.8570, 406.1270
295.0670, 392.1191
296.2760, 337.1973
297.4850, 304.6758
298.6930, 430.7363
299.9020, 579.1445
301.1110, 480.5078
302.3190, 546.9297
303.5270, 400.4121
304.7350, 388.9492
305.9430, 342.2988
307.1510, 192.0156
308.3580, 74.18164
309.5660, 138.5508
310.7730, 53.53711
311.9800, 44.54102
313.1870, 308.0352
314.3940, 357.8672
315.6010, 317.0234
316.8070, 366.6738
318.0130, 332.5293
319.2200, 375.7773
320.4260, 346.7930
321.6310, 530.4551
322.8370, 575.8242
324.0430, 661.2363
325.2480, 658.5137
326.4540, 831.0488
327.6590, 949.3438
328.8640, 996.5312
330.0680, 1078.447
331.2730, 1130.305
332.4780, 1112.857
333.6820, 1077.459
334.8860, 1023.008
336.0900, 1044.098
337.2940, 1009.076
338.4980, 1078.410
339.7010, 1104.758
340.9050, 1158.115
342.1080, 1317.480
343.3110, 1118.613
344.5140, 1514.994
345.7170, 1341.383
346.9200, 1466.514
348.1220, 1501.914
349.3240, 1519.320
350.5270, 1484.887
351.7290, 1531.904
352.9310, 1670.301
354.1320, 1585.711
355.3340, 1612.127
356.5350, 1667.545
357.7370, 1961.967
358.9380, 2179.393
360.1390, 2429.824
361.3400, 3111.260
362.5400, 3587.697
363.7410, 4352.137
364.9410, 5357.582
366.1410, 5762.027
367.3410, 6187.480
368.5410, 5945.930
369.7410, 5226.383
370.9400, 4515.836
372.1400, 3728.293
373.3390, 3062.746
374.5380, 2577.199
375.7370, 2315.652
376.9360, 1778.104
378.1350, 1997.553
379.3330, 1867.996
380.5310, 2167.439
381.7300, 2004.879
382.9280, 2370.312
384.1260, 2393.744
385.3230, 2799.172
386.5210, 3167.596
387.7180, 3590.016
388.9160, 3767.430
390.1130, 4226.840
391.3100, 4298.246
392.5060, 3965.645
393.7030, 3602.041
394.9000, 2854.434
396.0960, 2379.820
397.2920, 1983.201
398.4880, 1683.578
399.6840, 1456.949
400.8800, 1048.316
402.0750, 1142.678
403.2710, 1058.033
404.4660, 1136.385
405.6610, 1008.730
406.8560, 1219.068
408.0510, 1134.402
409.2450, 1248.611
410.4400, 1186.934
411.6340, 1325.250
412.8280, 1305.533
414.0220, 1272.832
415.2160, 1096.129
416.4100, 975.4219
417.6030, 972.6914
418.7970, 776.9707
419.9900, 658.2441
421.1830, 378.0215
422.3760, 178.2812
423.5690, 485.5371
424.7610, 248.7168
425.9540, 275.9570
427.1460, 155.1914
428.3380, 224.4238
429.5300, 100.6562
430.7220, 204.8926
431.9140, 252.2246
433.1050, 170.4629
434.2970, 289.7168
435.4880, 320.9688
436.6790, 97.22266
437.8700, 59.47656
439.0610, 71.72852
440.2510, 63.02148
441.4420, 6.812500
442.6320, 30.38672
443.8220, 126.5820
445.0120, 99.68555
446.2020, 75.52539
447.3910, 62.71094
448.5810, 18.10547
449.7700, 38.51172
450.9600, 44.38281
452.1490, 62.33203
453.3370, 15.82227
454.5260, 70.04297
455.7150, 29.06055
456.9030, 81.10742
458.0910, 101.2930
459.2800, 60.38867
460.4670, 94.61523
461.6550, 17.14648
462.8430, 131.8438
464.0300, 9.466797
465.2180, 19.79883
466.4050, 2.984375
467.5920, 47.35547
468.7790, 94.63281
469.9650, 26.31836
471.1520, 55.82422
472.3380, 32.61523
473.5250, 107.0449
474.7110, 33.46289
475.8970, 76.13086
477.0820, 74.78906
478.2680, 45.51172
479.4540, 102.7129
480.6390, 168.9297
481.8240, 106.1328
483.0090, 397.3301
484.1940, 149.5137
485.3780, 16.68945
486.5630, 149.8418
487.7470, 166.9883
488.9320, 18.12109
490.1160, 302.2344
491.3000, 171.3379
492.4830, 22.56836
493.6670, 29.51367
494.8500, 335.4941
496.0340, 173.4922
497.2170, 280.4785
498.4000, 231.4570
499.5820, 131.4258
500.7650, 171.3887
501.9480, 200.3438
503.1300, 141.2852
504.3120, 327.2402
505.4940, 254.1855
506.6760, 341.1172
507.8580, 276.0410
509.0390, 316.9648
510.2210, 354.8398
511.4020, 128.7832
512.5830, 443.6758
513.7640, 462.6152
514.9450, 526.5430
516.1250, 339.4609
517.3060, 598.3652
518.4860, 452.2578
519.6660, 669.1855
520.8460, 415.1055
522.0260, 589.0137
523.2060, 549.9277
524.3850, 355.8418
525.5650, 689.7539
526.7440, 763.6562
527.9230, 731.5488
529.1020, 766.4473
530.2810, 636.3730
531.4590, 582.2871
532.6380, 701.2090
533.8160, 466.1445
534.9940, 500.0645
536.1720, 526.0215
537.3500, 500.9668
538.5270, 473.9023
539.7050, 495.8242
540.8820, 345.7344
542.0590, 289.6309
543.2360, 380.5176
544.4130, 352.3887
545.5900, 446.2461
546.7660, 422.0898
547.9430, 413.9219
549.1190, 444.9199
550.2950, 350.5840
551.4710, 394.3926
552.6470, 349.1914
553.8220, 191.9766
554.9980, 239.7461
556.1730, 354.5020
557.3480, 245.2461
558.5230, 275.9766
559.6980, 438.6992
560.8730, 235.4043
562.0470, 174.1172
563.2220, 162.8164
564.3960, 469.5039
565.5700, 32.17773
566.7440, 343.8281
567.9170, 485.4648
569.0910, 326.0859
570.2640, 461.6934
571.4380, 471.2852
572.6110, 130.8652
573.7840, 350.4277
574.9570, 294.9746
576.1290, 474.5078
577.3020, 244.0254
578.4740, 304.5293
579.6460, 432.0176
580.8180, 253.4922
581.9900, 521.6270
583.1620, 421.8262
584.3330, 256.1484
585.5040, 390.5625
586.6760, 49.96094
587.8470, 235.3379
589.0180, 220.2031
590.1880, 60.78516
591.3590, 352.0332
592.5290, 272.8613
593.7000, 128.5137
594.8700, 122.5742
596.0400, 203.6445
597.2090, 247.2422
598.3790, 224.6953
599.5490, 160.4961
600.7180, 201.9941
601.8870, 106.3047
603.0560, 130.2383
604.2250, 222.4102
605.3940, 3.949219
606.5620, 74.78516
607.7300, 104.3613
608.8990, 35.50000
610.0670, 3.150391
611.2350, 244.0391
612.4020, 254.0430
613.5700, 153.7246
614.7370, 329.6699
615.9050, 218.3223
617.0720, 348.9277
618.2390, 520.5879
619.4060, 405.0605
620.5720, 456.9473
621.7390, 416.8242
622.9050, 444.6895
624.0710, 501.5449
625.2370, 427.3887
626.4030, 612.4648
627.5690, 524.2852
628.7340, 656.0996
629.9000, 572.1641
631.0650, 566.2266
632.2300, 519.0078
633.3950, 350.6230
634.5600, 848.7812
635.7240, 838.5293
636.8890, 919.3418
638.0530, 799.8555
639.2170, 1084.887
640.3810, 1187.910
641.5450, 1361.736
642.7080, 1701.754
643.8720, 1873.641
645.0350, 2043.875
646.1980, 2431.758
647.3610, 2614.475
648.5240, 3127.477
649.6870, 3320.100
650.8490, 3865.396
652.0120, 3691.295
653.1740, 4296.541
654.3360, 4194.695
655.4980, 4484.262
656.6600, 4512.820
657.8210, 4896.363
658.9830, 5610.350
660.1440, 6224.398
661.3050, 7124.746
662.4660, 8746.668
663.6270, 10254.43
664.7870, 12436.43
665.9480, 14491.82
667.1080, 17609.24
668.2680, 20789.35
669.4280, 24034.45
670.5880, 26363.01
671.7480, 27201.75
672.9070, 26029.71
674.0670, 22842.07
675.2260, 18960.53
676.3850, 15283.87
677.5440, 11969.45
678.7030, 9375.754
679.8610, 7521.414
681.0200, 5980.748
682.1780, 4858.209
683.3360, 4100.457
684.4940, 3369.688
685.6520, 3032.906
686.8090, 2552.109
687.9670, 2082.879
689.1240, 2024.051
690.2810, 1566.211
691.4380, 1338.725
692.5950, 1269.852
693.7520, 1135.969
694.9080, 981.0664
696.0650, 933.3066
697.2210, 770.4922
698.3770, 805.5508
699.5330, 729.5898
700.6880, 681.0859
701.8440, 646.1152
702.9990, 386.3105
704.1550, 610.3125
705.3100, 371.3633
706.4650, 437.3359
707.6190, 442.2930
708.7740, 378.2344
709.9290, 544.1621
711.0830, 411.0781
712.2370, 380.8828
713.3910, 344.7676
714.5450, 382.6387
715.6980, 193.4961
716.8520, 287.3359
718.0050, 241.1660
719.1580, 195.9766
720.3110, 280.7773
721.4640, 40.58203
722.6170, 157.3711
723.7700, 335.1484
724.9220, 159.9102
726.0740, 163.0957
727.2260, 45.83008
728.3780, 318.5469
729.5300, 749.8223
730.6810, 372.5352
731.8330, 462.2500
732.9840, 255.9004
734.1350, 488.5117
735.2860, 472.2305
736.4370, 418.9492
737.5880, 407.6816
738.7380, 436.9609
739.8880, 444.6895
741.0390, 577.9102
742.1890, 612.6738
743.3380, 800.4258
744.4880, 1088.172
745.6380, 1087.736
746.7870, 1008.748
747.9360, 1192.068
749.0850, 1016.033
750.2340, 904.7832
751.3830, 726.5449
752.5310, 607.2969
753.6800, 598.0371
754.8280, 630.7637
755.9760, 533.9395
757.1240, 504.0195
758.2720, 441.0410
759.4190, 322.7988
760.5670, 310.5469
761.7140, 244.6934
762.8610, 216.0098
764.0080, 181.7246
765.1550, 133.4336
766.3020, 130.7383
767.4480, 145.5469
768.5950, 65.49609
769.7410, 193.1621
770.8870, 202.8203
772.0330, 176.4805
773.1780, 158.1465
774.3240, 111.8555
775.4690, 12.44922
776.6140, 54.07422
777.7590, 1.689453
778.9040, 97.27930
780.0490, 48.86719
781.1940, 60.57422
782.3380, 20.93555
783.4820, 72.42969
784.6260, 109.9102
785.7700, 31.61719
786.9140, 283.8125
788.0580, 14.23633
789.2010, 54.64062
790.3450, 195.9668
791.4880, 18.29883
792.6310, 169.5508
793.7730, 305.7930
794.9160, 155.0254
796.0590, 161.7500
797.2010, 19.36523
798.3430, 7.466797
799.4850, 34.44922
800.6270, 32.40625
801.7690, 14.31445
802.9100, 41.57227
804.0520, 3.537109
805.1930, 39.51758
806.3340, 135.6152
807.4750, 78.19727
808.6160, 67.00391
809.7560, 71.25586
810.8970, 135.4336
812.0370, 159.8867
813.1770, 132.6914
814.3170, 3.742188
815.4570, 119.8066
816.5960, 23.34570
817.7360, 93.87500
818.8750, 59.39844
820.0140, 126.9102
821.1530, 229.4141
822.2920, 175.9121
823.4310, 110.4023
824.5690, 60.11523
825.7070, 231.3203
826.8460, 136.7480
827.9840, 14.17188
829.1220, 228.5840
830.2590, 191.9863
831.3970, 246.3887
832.5340, 29.78125
833.6710, 205.1641
834.8080, 140.5430
835.9450, 144.9141
837.0820, 62.72070
838.2190, 98.75391
839.3550, 50.07422
840.4910, 150.3828
841.6270, 378.6836
842.7630, 126.9824
843.8990, 182.2734
845.0350, 296.5645
846.1700, 273.8457
847.3060, 245.1250
848.4410, 259.3965
849.5760, 351.6621
850.7100, 236.9238
851.8450, 432.1836
852.9800, 227.4336
854.1140, 241.6797
855.2480, 426.3730
856.3820, 506.1582
857.5160, 569.3926
858.6500, 568.0293
859.7830, 599.6914
860.9170, 530.4727
862.0500, 657.6875
863.1830, 460.9004
864.3160, 603.6055
865.4480, 306.8086
866.5810, 543.0137
867.7130, 288.2109
868.8460, 278.4082
869.9780, 195.6133
871.1100, 220.8164
872.2410, 226.0312
873.3730, 382.2422
874.5050, 563.4492
875.6360, 506.0625
876.7670, 489.9629
877.8980, 469.0605
879.0290, 274.2676
880.1590, 268.4688
881.2900, 226.6934
882.4200, 175.9180
883.5500, 128.2070
884.6800, 239.5215
885.8100, 230.8379
886.9400, 112.1504
888.0690, 391.4590
889.1990, 199.7637
890.3280, 180.0645
891.4570, 198.3613
892.5860, 370.6543
893.7140, 436.9434
894.8430, 322.2324
895.9710, 149.5117
897.1000, 190.8477
898.2280, 280.1836
899.3560, 74.51367
900.4830, 99.85156
901.6110, 179.1836
902.7380, 67.51172
903.8660, 237.8379
904.9930, 122.8906
906.1200, 220.2188
907.2460, 286.5469
908.3730, 508.8711
909.5000, 294.1934
910.6260, 469.4395
911.7520, 221.9668
912.8780, 528.9668
914.0040, 481.9609
915.1290, 320.1406
916.2550, 430.1133
917.3800, 264.2051
918.5050, 576.9395
919.6300, 422.0312
920.7550, 801.2910
921.8800, 533.2539
923.0040, 789.5977
924.1290, 845.2578
925.2530, 939.3047
926.3770, 1349.990
927.5010, 1174.754
928.6250, 1381.094
929.7480, 1626.434
930.8720, 1353.775
931.9950, 1362.693
933.1180, 1341.535
934.2410, 1082.070
935.3640, 1021.029
936.4860, 663.1328
937.6090, 784.4043
938.7310, 1129.482
939.8530, 718.9062
940.9750, 940.6484
942.0970, 769.3730
943.2180, 935.6289
944.3400, 810.7109
945.4610, 789.5488
946.5820, 889.9785
947.7030, 839.3008
948.8240, 674.7344
949.9450, 575.9141
951.0650, 688.3535
952.1860, 399.4316
953.3060, 406.8223
954.4260, 40.11523
955.5460, 257.6113
956.6650, 447.1113
957.7850, 390.6270
958.9040, 189.1465
960.0230, 215.0879
961.1420, 196.6152
962.2610, 273.1758
963.3800, 104.3691
964.4990, 251.9355
965.6170, 17.50977
966.7350, 252.0879
967.8530, 97.39648
968.9710, 238.9824
970.0890, 289.5742
971.2070, 280.1699
972.3240, 122.7031
973.4410, 2.867188
974.5580, 170.2578
975.6750, 13.83398
976.7920, 341.4160
977.9090, 41.00391
979.0250, 303.5977
980.1410, 241.1934
981.2580, 79.79492
982.3740, 36.40234
983.4890, 145.0156
984.6050, 167.6328
985.7200, 306.2559
986.8360, 220.8848
987.9510, 437.5176
989.0660, 109.1543
990.1810, 247.7969
991.2950, 156.4453
992.4100, 202.0996
993.5240, 133.7617
994.6390, 287.4297
995.7530, 256.1016
996.8660, 451.7773
997.9800, 545.4590
999.0940, 638.1484
1000.207, 739.6133
1001.320, 837.5723
1002.433, 874.2773
1003.546, 776.0547
1004.659, 825.7734
1005.772, 985.4121
1006.884, 1169.141
1007.996, 927.8730
1009.108, 1302.611
1010.220, 1325.354
1011.332, 1212.168
1012.444, 1479.920
1013.555, 1447.676
1014.666, 1379.908
1015.777, 1445.951
1016.888, 1477.123
1017.999, 1519.312
1019.110, 1649.090
1020.220, 1688.871
1021.331, 1816.654
1022.441, 1987.443
1023.551, 2436.236
1024.661, 2559.033
1025.770, 3293.832
1026.880, 3626.637
1027.989, 3899.443
1029.098, 3926.256
1030.207, 3796.250
1031.316, 3207.605
1032.425, 2571.428
1033.533, 2349.000
1034.642, 2099.826
1035.750, 1551.654
1036.858, 1455.486
1037.966, 1422.320
1039.073, 1143.258
1040.181, 1036.197
1041.288, 1099.041
1042.396, 1185.889
1043.503, 1286.738
1044.610, 1332.979
1045.716, 1375.416
1046.823, 1476.311
1047.929, 1493.184
1049.036, 1636.059
1050.142, 1873.938
1051.248, 2301.840
1052.353, 2689.926
1053.459, 2863.672
1054.564, 3337.590
1055.670, 3575.453
1056.775, 3738.383
1057.880, 3677.324
1058.985, 3922.441
1060.089, 3823.441
1061.194, 3464.449
1062.298, 3484.555
1063.402, 3238.145
1064.506, 3479.562
1065.610, 3836.621
1066.713, 3879.688
1067.817, 3775.926
1068.920, 3416.016
1070.023, 3341.539
1071.126, 2554.652
1072.229, 2142.770
1073.332, 2119.180
1074.435, 1583.324
1075.537, 1345.508
1076.639, 1218.488
1077.741, 1194.695
1078.843, 1088.930
1079.945, 974.1680
1081.046, 985.4492
1082.148, 1005.902
1083.249, 982.0234
1084.350, 1159.309
1085.451, 1333.598
1086.551, 1407.844
1087.652, 1062.133
1088.752, 842.4258
1089.853, 627.1953
1090.953, 398.4883
1092.053, 286.7773
1093.152, 629.0859
1094.252, 421.5469
1095.351, 406.8555
1096.451, 319.1641
1097.550, 321.4727
1098.649, 270.7773
1099.748, 242.0820
1100.846, 374.3828
1101.945, 667.6836
1103.043, 365.9844
1104.141, 512.2930
1105.239, 157.4648
1106.337, 168.7773
1107.434, 384.1016
1108.532, 418.4180
1109.629, 514.7422
1110.726, 423.0586
1111.823, 440.3867
1112.920, 212.6914
1114.017, 360.0039
1115.113, 231.3164
1116.210, 189.6250
1117.306, 241.7617
1118.402, 237.2383
1119.498, 252.5430
1120.593, 173.8438
1121.689, 129.1602
1122.784, 212.4570
1123.879, 45.75391
1124.974, 315.0508
1126.069, 204.3477
1127.164, 121.6367
1128.259, 187.9258
1129.353, 280.2227
1130.447, 318.5117
1131.541, 273.8008
1132.635, 25.08984
1133.729, 33.37500
1134.822, 41.88281
1135.916, 272.9102
1137.009, 54.80078
1138.102, 241.4492
1139.195, 346.6992
1140.288, 35.94531
1141.380, 161.1836
1142.473, 39.57422
1143.565, 100.6367
1144.657, 45.84375
1145.749, 60.95312
1146.841, 9.792969
1147.932, 105.6484
1149.024, 44.71484
1150.115, 146.4766
1151.206, 74.51953
1152.297, 275.5625
1153.388, 343.5938
1154.479, 517.6328
1155.569, 68.65625
1156.659, 127.6914
1157.750, 199.7188
1158.839, 294.7422
1159.929, 124.7695
1161.019, 196.2109
1162.108, 5.691406
1163.198, 194.5898
1164.287, 13.51953
1165.376, 145.3516
1166.465, 185.2227
1167.553, 165.0859
1168.642, 352.9492
1169.730, 18.19531
1170.818, 22.64062
1171.906, 316.4727
1172.994, 126.3008
1174.082, 295.1250
1175.170, 142.9453
1176.257, 156.7656
1177.344, 321.5820
1178.431, 377.3945
1179.518, 131.2031
1180.605, 80.00781
1181.691, 86.80859
1182.778, 65.39062
1183.864, 28.02344
1184.950, 163.0781
1186.036, 45.20703
1187.122, 116.4766
1188.207, 77.14844
1189.292, 20.82031
1190.378, 147.4844
1191.463, 200.1484
1192.548, 27.80469
1193.632, 9.457031
1194.717, 83.89844
1195.801, 91.68359
1196.886, 347.2617
1197.970, 32.16406
1199.054, 248.3750
1200.137, 36.08594
1201.221, 278.4180
1202.305, 195.9180
1203.388, 17.41016
1204.471, 135.8945
1205.554, 208.3789
1206.637, 10.14062
1207.719, 295.3164
1208.802, 112.7695
1209.884, 238.2188
1210.966, 181.6562
1212.048, 99.09766
1213.130, 222.5273
1214.212, 295.9570
1215.293, 144.3789
1216.374, 124.2031
1217.456, 333.1367
1218.536, 296.4648
1219.617, 21.20703
1220.698, 284.0898
1221.778, 420.3828
1222.859, 175.6758
1223.939, 80.03906
1225.019, 200.1875
1226.099, 123.4102
1227.178, 134.6289
1228.258, 55.84375
1229.337, 395.0508
1230.417, 143.2578
1231.496, 349.4531
1232.574, 254.6523
1233.653, 80.30469
1234.732, 123.4922
1235.810, 496.6875
1236.888, 268.8828
1237.966, 153.0703
1239.044, 308.2617
1240.122, 130.4414
1241.199, 564.6172
1242.277, 254.7891
1243.354, 292.9570
1244.431, 60.12109
1245.508, 203.2773
1246.585, 268.4336
1247.661, 370.6211
1248.738, 284.8047
1249.814, 102.9844
1250.890, 40.16016
1251.966, 193.3281
1253.042, 196.4961
1254.117, 284.6602
1255.193, 146.8203
1256.268, 608.9727
1257.343, 408.5547
1258.418, 428.7383
1259.493, 854.8828
1260.567, 485.0195
1261.642, 343.1562
1262.716, 391.2617
1263.790, 176.3867
1264.864, 411.4453
1265.938, 369.5469
1267.011, 362.7461
1268.085, 557.8594
1269.158, 455.9727
1270.231, 397.0781
1271.304, 386.1836
1272.377, 470.2148
1273.450, 599.3125
1274.522, 618.4102
1275.594, 645.0273
1276.666, 747.8477
1277.738, 378.6211
1278.810, 323.2148
1279.882, 408.3086
1280.953, 335.4023
1282.025, 550.4961
1283.096, 331.5859
1284.167, 181.6797
1285.238, 299.6719
1286.308, 432.7617
1287.379, 480.8438
1288.449, 488.9297
1289.519, 274.0117
1290.589, 261.9180
1291.659, 288.4531
1292.729, 591.5352
1293.798, 398.8711
1294.868, 444.9531
1295.937, 646.0312
1297.006, 406.1094
1298.075, 446.1953
1299.143, 377.1797
1300.212, 132.1680
1301.280, 323.2539
1302.348, 214.3398
1303.416, 479.4258
1304.484, 357.5117
1305.552, 337.5938
1306.620, 238.6797
1307.687, 357.7734
1308.754, 453.8633
1309.821, 494.9492
1310.888, 574.0391
1311.955, 561.9570
1313.021, 668.2148
1314.088, 717.3086
1315.154, 512.4727
1316.220, 564.5742
1317.286, 531.6719
1318.352, 572.6055
1319.417, 669.7188
1320.483, 298.8359
1321.548, 581.8555
1322.613, 364.3867
1323.678, 463.0977
1324.743, 592.2148
1325.807, 586.3320
1326.872, 369.2852
1327.936, 323.4102
1329.000, 337.1172
1330.064, 175.2461
1331.128, 397.3750
1332.191, 197.2227
1333.255, 295.3594
1334.318, 121.5000
1335.381, 144.8477
1336.444, 114.7617
1337.507, 119.5664
1338.569, 113.2969
1339.632, 206.4570
1340.694, 336.6211
1341.756, 366.7812
1342.818, 195.9492
1343.880, 318.1172
1344.941, 222.3359
1346.003, 145.5156
1347.064, 350.6992
1348.125, 187.4141
1349.186, 272.6133
1350.247, 220.8125
1351.308, 208.3633
1352.368, 328.0781
1353.428, 252.2969
1354.489, 161.5117
1355.549, 257.7344
1356.608, 277.9570
1357.668, 252.1406
1358.727, 68.32422
1359.787, 248.5195
1360.846, 48.28516
1361.905, 4.917969
1362.964, 118.1211
1364.022, 61.33594
1365.081, 170.5547
1366.139, 104.7852
1367.197, 302.0078
1368.255, 247.2461
1369.313, 353.4844
1370.371, 126.7344
1371.428, 374.9844
1372.486, 154.2422
1373.543, 270.5117
1374.600, 139.8672
1375.657, 326.1484
1376.713, 191.4453
1377.770, 400.7422
1378.826, 353.0352
1379.882, 487.3516
1380.938, 139.6758
1381.994, 336.0078
1383.050, 443.3477
1384.106, 19.30469
1385.161, 36.94531
1386.216, 170.4102
1387.271, 37.78125
1388.326, 357.1562
1389.381, 267.5430
1390.435, 152.9414
1391.490, 37.34375
1392.544, 173.2266
1393.598, 229.1719
1394.652, 178.5977
1395.705, 332.0391
1396.759, 177.4844
1397.812, 225.9453
1398.866, 131.4102
1399.919, 153.9023
1400.972, 17.40625
1402.024, 182.9219
1403.077, 248.4727
1404.129, 245.0391
1405.181, 215.8594
1406.233, 137.5039
1407.285, 181.1562
1408.337, 21.20703
1409.389, 439.8906
1410.440, 37.58984
1411.491, 33.82812
1412.542, 388.7656
1413.593, 125.3672
1414.644, 64.98438
1415.695, 275.6055
1416.745, 170.2422
1417.795, 172.9492
1418.845, 141.6719
1419.895, 275.4141
1420.945, 290.1680
1421.995, 155.9453
1423.044, 307.7266
1424.093, 58.28125
1425.142, 230.0977
1426.191, 7.929688
1427.240, 15.71875
1428.289, 83.50781
1429.337, 225.3086
1430.385, 304.1172
1431.433, 482.9453
1432.481, 297.7891
1433.529, 527.7148
1434.577, 239.5898
1435.624, 471.4844
1436.672, 601.3555
1437.719, 759.2422
1438.766, 643.1719
1439.812, 743.1367
1440.859, 494.2070
1441.905, 720.2344
1442.952, 674.2969
1443.998, 837.4023
1445.044, 855.9961
1446.090, 748.2617
1447.135, 877.0078
1448.181, 812.7852
1449.226, 975.6328
1450.271, 996.5078
1451.316, 678.4219
1452.361, 885.3672
1453.405, 882.3320
1454.450, 1000.320
1455.494, 998.6133
1456.538, 1026.348
1457.582, 953.3867
1458.626, 880.4414
1459.670, 871.5938
1460.713, 748.7812
1461.757, 748.9922
1462.800, 518.2578
1463.843, 770.5664
1464.886, 632.8906
1465.928, 351.2500
1466.971, 664.8789
1468.013, 547.2578
1469.055, 571.6602
1470.097, 621.0859
1471.139, 486.5312
1472.181, 248.0000
1473.222, 859.4922
1474.263, 421.9102
1475.305, 617.3555
1476.346, 581.8203
1477.386, 274.3086
1478.427, 391.2461
1479.468, 192.3711
1480.508, 234.9102
1481.548, 244.8633
1482.588, 602.5039
1483.628, 233.9648
1484.668, 346.4492
1485.707, 272.9609
1486.747, 133.4883
1487.786, 397.0430
1488.825, 644.6016
1489.864, 142.1680
1490.902, 249.7422
1491.941, 306.9219
1492.979, 199.5273
1494.017, 207.1523
1495.055, 209.8008
1496.093, 166.4688
1497.131, 61.16016
1498.168, 274.8672
1499.206, 164.4141
1500.243, 151.3281
1501.280, 96.09766
1502.317, 126.8828
1503.354, 78.69922
1504.390, 153.5273
1505.426, 104.0469
1506.463, 200.2617
1507.499, 177.1562
1508.535, 164.0586
1509.570, 488.9766
1510.606, 122.9336
1511.641, 164.9258
1512.676, 419.9453
1513.711, 418.0000
1514.746, 167.0859
1515.781, 234.2031
1516.816, 275.3516
1517.850, 41.52734
1518.884, 70.72656
1519.918, 289.9922
1520.952, 354.2812
1521.986, 467.6055
1523.019, 215.9492
1524.053, 323.3281
1525.086, 268.7422
1526.119, 304.2344
1527.152, 435.9141
1528.185, 522.7891
1529.217, 37.28125
1530.250, 232.7148
1531.282, 492.7656
1532.314, 7.4219003E-02
1533.346, 446.1562
1534.377, 441.4609
1535.409, 302.3906
1536.440, 719.9141
1537.472, 342.4648
1538.503, 66.04297
1539.534, 164.6562
1540.564, 271.2930
1541.595, 264.9609
1542.625, 114.6562
1543.656, 210.3672
1544.686, 197.0898
1545.716, 187.8398
1546.745, 314.6016
1547.775, 11.62891
1548.804, 178.1406
1549.834, 320.8789
1550.863, 440.0273
1551.892, 197.4453
1552.920, 415.9570
1553.949, 215.1641
1554.977, 344.3945
1556.006, 293.6445
1557.034, 77.89844
1558.062, 172.1641
1559.089, 133.4219
1560.117, 354.0898
1561.144, 438.1523
1562.172, 410.5039
1563.199, 299.0898
1564.226, 99.74219
1565.252, 146.5664
1566.279, 160.7930
1567.305, 353.2539
1568.332, 1.582031
1569.358, 158.4219
1570.384, 0.0000000E+00
##END=



