##NAMES=Actinolite
##RRUFFID=R040064
##IDEAL CHEMISTRY=Ca_2_(Mg_4.5-2.5_Fe^2+^_0.5-2.5_)Si_8_O_22_(OH)_2_
##LOCALITY=Ehime Perfecture, Uma Gun, Japan
##OWNER=RRUFF
##SOURCE=University of Arizona Mineral Museum
##DESCRIPTION=Aggregate of green acicular crystals associated with chlorite
##STATUS=The identification of this mineral has been confirmed by X-ray diffraction and chemical analysis
##URL=rruff.info/R040064
##MEASURED CHEMISTRY=(Ca_0.95_Na_0.04_Mn_0.01_)_2_(Mg_0.88_Fe_0.12_)_5_(Si_0.98_Al_0.02_)_8_O_22_(OH)_2_
##PIN_ID=M00214
##ORIENTATION=Laser parallel to [1 0 1]. Fiducial mark perpendicular to laser is parallel to b* (0 1 0)
107.711, 0.000
109.109, 130.369
110.507, 271.801
111.905, 391.311
113.303, 680.775
114.700, 1054.192
116.097, 1393.205
117.494, 1959.098
118.891, 2426.659
120.287, 2492.600
121.683, 2585.868
123.079, 2430.185
124.475, 2131.313
125.870, 1745.990
127.265, 1283.545
128.660, 922.471
130.055, 808.011
131.449, 568.440
132.843, 478.974
134.237, 293.440
135.631, 173.770
137.024, 108.898
138.417, 162.767
139.810, 48.321
141.203, 26.512
142.596, 82.707
143.988, 90.379
145.380, 26.543
146.771, 52.226
148.163, 35.678
149.554, 110.980
150.945, 196.643
152.336, 272.642
153.726, 362.627
155.117, 559.387
156.507, 471.107
157.896, 556.713
159.286, 470.625
160.675, 391.830
162.064, 296.356
163.453, 205.189
164.842, 250.274
166.230, 232.603
167.618, 393.166
169.006, 697.953
170.393, 1247.951
171.781, 1893.146
173.168, 3068.523
174.555, 4250.071
175.941, 5391.777
177.328, 6193.634
178.714, 6125.632
180.100, 5557.761
181.485, 4590.015
182.871, 3492.386
184.256, 2465.867
185.641, 1719.732
187.025, 1165.841
188.410, 825.654
189.794, 483.451
191.178, 362.331
192.562, 177.191
193.945, 177.076
195.328, 115.036
196.711, 70.146
198.094, 39.657
199.476, 29.125
200.859, 40.544
202.241, 55.883
203.623, 91.117
205.004, 20.277
206.385, 65.100
207.766, 193.739
209.147, 365.836
210.528, 589.982
211.908, 821.266
213.288, 1156.661
214.668, 1596.193
216.048, 2324.672
217.427, 3286.310
218.806, 4231.996
220.185, 5006.761
221.564, 5801.630
222.942, 5826.580
224.320, 5611.594
225.698, 4966.706
227.076, 4321.900
228.453, 3527.109
229.830, 3037.333
231.207, 2625.560
232.584, 2056.786
233.960, 1801.012
235.337, 1316.236
236.713, 1005.456
238.088, 786.646
239.464, 591.792
240.839, 441.455
242.214, 353.073
243.589, 310.211
244.964, 296.347
246.338, 394.478
247.712, 408.605
249.086, 441.728
250.459, 503.844
251.833, 524.955
253.206, 422.059
254.579, 408.156
255.951, 194.246
257.324, 135.330
258.696, 60.406
260.068, 60.472
261.439, 14.466
262.811, 4.423
264.182, 31.389
265.553, 26.975
266.924, 0.358
268.294, 7.635
269.665, 66.601
271.035, 104.416
272.404, 176.810
273.774, 295.053
275.143, 425.537
276.512, 620.654
277.881, 773.371
279.250, 1016.595
280.618, 1291.912
281.986, 1474.031
283.354, 1591.481
284.721, 1647.850
286.089, 1795.831
287.456, 1636.430
288.823, 1662.981
290.190, 1484.407
291.556, 1226.369
292.922, 1126.858
294.288, 842.418
295.654, 668.188
297.019, 538.124
298.385, 534.686
299.750, 558.398
301.114, 543.819
302.479, 525.894
303.843, 437.071
305.207, 351.506
306.571, 326.490
307.935, 237.353
309.298, 229.829
310.661, 152.252
312.024, 62.947
313.387, 38.188
314.749, 30.216
316.111, 46.438
317.473, 14.199
318.835, 15.907
320.196, 15.041
321.558, 41.226
322.919, 162.334
324.279, 88.506
325.640, 303.255
327.000, 416.370
328.360, 666.982
329.720, 920.403
331.080, 1105.562
332.439, 1213.990
333.798, 1162.097
335.157, 1029.196
336.516, 975.617
337.874, 704.097
339.232, 726.295
340.590, 592.357
341.948, 733.656
343.305, 675.000
344.662, 681.889
346.019, 700.510
347.376, 881.546
348.733, 961.261
350.089, 965.430
351.445, 1257.301
352.801, 1184.180
354.156, 1235.024
355.512, 1317.862
356.867, 1365.692
358.222, 1331.516
359.576, 1513.332
360.931, 1983.139
362.285, 2445.937
363.639, 3192.978
364.992, 4196.673
366.346, 5629.861
367.699, 6821.810
369.052, 7716.052
370.405, 7840.780
371.757, 7185.493
373.110, 6020.192
374.462, 5074.876
375.814, 4019.545
377.165, 3234.199
378.516, 2623.835
379.868, 2148.441
381.218, 2083.030
382.569, 1982.602
383.920, 2020.154
385.270, 2194.733
386.620, 2585.247
387.969, 2920.742
389.319, 3725.215
390.668, 4439.669
392.017, 4964.100
393.366, 5358.510
394.714, 5283.035
396.063, 4807.403
397.411, 4051.748
398.759, 3106.070
400.106, 2542.514
401.454, 1872.792
402.801, 1518.339
404.148, 1287.692
405.495, 1086.927
406.841, 1073.234
408.187, 905.399
409.533, 1095.542
410.879, 1053.006
412.224, 1396.104
413.570, 1469.207
414.915, 1534.257
416.260, 1587.283
417.604, 1486.285
418.949, 1316.264
420.293, 1066.218
421.637, 876.149
422.980, 770.055
424.324, 544.937
425.667, 464.662
427.010, 299.598
428.353, 280.653
429.695, 140.386
431.037, 81.146
432.379, 61.880
433.721, 40.588
435.063, 32.585
436.404, 73.081
437.745, 82.797
439.086, 52.725
440.427, 20.379
441.767, 61.730
443.108, 25.390
444.448, 27.472
445.787, 23.257
447.127, 30.337
448.466, 53.640
449.805, 16.109
451.144, 94.255
452.482, 8.455
453.821, 20.803
455.159, 22.277
456.497, 0.428
457.834, 1.402
459.172, 6.507
460.509, 69.374
461.846, 4.787
463.183, 24.001
464.519, 30.242
465.856, 18.449
467.192, 24.902
468.527, 29.684
469.863, 84.241
471.198, 6.201
472.534, 41.304
473.868, 24.221
475.203, 67.811
476.538, 84.512
477.872, 30.195
479.206, 12.955
480.540, 19.771
481.873, 2.348
483.206, 66.537
484.539, 101.568
485.872, 13.417
487.205, 125.533
488.537, 70.456
489.869, 22.634
491.201, 127.208
492.533, 5.974
493.864, 64.216
495.196, 54.451
496.527, 43.079
497.857, 12.665
499.188, 20.233
500.518, 14.247
501.848, 17.763
503.178, 2.329
504.508, 69.048
505.837, 84.422
507.166, 179.760
508.495, 80.067
509.824, 148.336
511.153, 215.591
512.481, 213.831
513.809, 276.039
515.137, 309.219
516.464, 393.369
517.792, 453.490
519.119, 406.583
520.446, 448.646
521.772, 451.678
523.099, 554.678
524.425, 546.329
525.751, 432.614
527.077, 541.553
528.402, 536.474
529.728, 461.372
531.053, 494.238
532.377, 557.073
533.702, 526.875
535.027, 428.645
536.351, 420.381
537.675, 522.085
538.998, 362.756
540.322, 441.394
541.645, 321.998
542.968, 427.569
544.291, 243.106
545.613, 441.610
546.936, 370.081
548.258, 286.517
549.580, 367.919
550.902, 268.287
552.223, 334.622
553.544, 228.922
554.865, 264.187
556.186, 315.419
557.507, 287.617
558.827, 231.780
560.147, 373.909
561.467, 198.003
562.786, 240.062
564.106, 264.085
565.425, 242.074
566.744, 305.028
568.063, 281.949
569.381, 190.835
570.700, 310.685
572.018, 267.500
573.335, 324.281
574.653, 279.029
575.970, 341.742
577.288, 415.422
578.604, 343.068
579.921, 468.680
581.238, 415.259
582.554, 461.803
583.870, 435.313
585.186, 515.790
586.501, 488.239
587.817, 368.657
589.132, 377.043
590.447, 300.394
591.761, 320.635
593.076, 250.665
594.390, 276.979
595.704, 263.126
597.018, 210.264
598.331, 214.228
599.645, 149.988
600.958, 200.890
602.271, 176.177
603.583, 110.253
604.896, 144.512
606.208, 180.250
607.520, 146.450
608.832, 163.767
610.143, 116.290
611.455, 192.407
612.766, 152.875
614.077, 186.451
615.387, 238.177
616.698, 260.311
618.008, 312.322
619.318, 360.280
620.628, 400.146
621.937, 430.192
623.247, 452.367
624.556, 534.482
625.865, 511.198
627.173, 652.717
628.482, 601.350
629.790, 647.989
631.098, 603.661
632.405, 678.511
633.713, 621.203
635.020, 569.710
636.327, 672.844
637.634, 724.507
638.941, 793.818
640.247, 858.733
641.553, 1035.620
642.859, 1136.953
644.165, 1381.281
645.471, 1540.125
646.776, 1723.011
648.081, 2097.044
649.386, 2366.480
650.691, 2721.291
651.995, 3062.711
653.299, 3600.133
654.603, 3736.978
655.907, 4130.970
657.210, 4287.145
658.514, 4638.166
659.817, 5076.062
661.120, 5611.520
662.422, 6507.088
663.725, 7904.750
665.027, 9522.650
666.329, 12060.022
667.630, 15361.658
668.932, 20073.203
670.233, 25801.270
671.534, 30889.480
672.835, 35407.684
674.136, 35865.797
675.436, 34734.422
676.737, 29132.393
678.036, 23909.984
679.336, 18657.941
680.636, 14735.269
681.935, 11206.908
683.234, 8824.597
684.533, 6842.532
685.832, 5541.342
687.130, 4559.051
688.428, 3746.463
689.726, 3393.910
691.024, 2831.269
692.322, 2398.326
693.619, 2135.357
694.916, 1872.781
696.213, 1639.822
697.510, 1566.775
698.806, 1453.975
700.102, 1210.876
701.398, 1137.707
702.694, 1004.559
703.990, 1011.383
705.285, 888.183
706.580, 814.957
707.875, 831.708
709.170, 858.434
710.464, 1154.998
711.758, 1351.675
713.052, 1578.327
714.346, 1444.955
715.640, 1191.416
716.933, 947.996
718.226, 684.262
719.519, 690.675
720.812, 457.160
722.105, 433.528
723.397, 379.990
724.689, 416.430
725.981, 342.503
727.272, 238.897
728.564, 365.238
729.855, 571.589
731.146, 247.916
732.437, 394.221
733.727, 300.503
735.017, 566.764
736.308, 453.002
737.597, 359.220
738.887, 625.416
740.176, 671.590
741.466, 677.743
742.755, 733.875
744.043, 749.986
745.332, 876.077
746.620, 1122.146
747.908, 1198.196
749.196, 1304.082
750.484, 1260.087
751.771, 1266.012
753.059, 1301.694
754.346, 937.372
755.633, 812.787
756.919, 598.395
758.206, 593.908
759.492, 519.070
760.778, 294.471
762.063, 350.034
763.349, 265.482
764.634, 200.996
765.919, 136.357
767.204, 162.032
768.489, 137.530
769.773, 53.159
771.057, 169.001
772.341, 34.904
773.625, 60.794
774.909, 136.664
776.192, 17.473
777.475, 128.362
778.758, 84.198
780.041, 50.021
781.323, 55.842
782.605, 58.353
783.887, 67.398
785.169, 63.143
786.451, 1.129
787.732, 44.593
789.013, 40.324
790.294, 63.963
791.575, 8.287
792.856, 87.376
794.136, 23.039
795.416, 68.693
796.696, 45.669
797.976, 149.922
799.255, 4.486
800.534, 78.920
801.813, 46.586
803.092, 17.908
804.371, 87.565
805.649, 13.036
806.927, 8.518
808.205, 63.981
809.483, 130.566
810.760, 24.807
812.037, 109.830
813.315, 64.528
814.591, 9.262
815.868, 134.007
817.144, 11.162
818.421, 86.312
819.697, 41.691
820.972, 63.189
822.248, 58.123
823.523, 47.062
824.798, 12.760
826.073, 7.840
827.348, 22.799
828.623, 12.261
829.897, 42.656
831.171, 127.556
832.445, 32.440
833.718, 178.529
834.992, 66.613
836.265, 78.268
837.538, 13.060
838.811, 22.163
840.083, 52.662
841.356, 117.399
842.628, 102.121
843.900, 116.833
845.171, 181.533
846.443, 196.301
847.714, 80.985
848.985, 165.654
850.256, 180.314
851.527, 114.966
852.797, 269.606
854.067, 194.235
855.337, 268.855
856.607, 263.469
857.876, 318.070
859.146, 322.672
860.415, 347.016
861.684, 401.852
862.953, 376.441
864.221, 411.022
865.489, 395.607
866.757, 240.185
868.025, 344.756
869.293, 499.325
870.560, 354.926
871.828, 528.440
873.095, 243.021
874.361, 257.594
875.628, 272.163
876.894, 366.725
878.160, 281.278
879.426, 235.829
880.692, 460.371
881.958, 294.902
883.223, 359.435
884.488, 273.956
885.753, 448.471
887.018, 362.981
888.282, 377.486
889.546, 181.984
890.810, 456.497
892.074, 351.002
893.338, 355.503
894.601, 389.994
895.864, 264.513
897.127, 439.027
898.390, 263.533
899.652, 258.035
900.915, 482.568
902.177, 407.094
903.439, 321.628
904.700, 496.154
905.962, 260.707
907.223, 265.252
908.484, 359.790
909.745, 364.359
911.006, 438.920
912.266, 383.479
913.526, 408.060
914.786, 332.633
916.046, 417.203
917.306, 521.759
918.565, 436.037
919.824, 580.419
921.083, 634.694
922.342, 668.608
923.600, 753.002
924.859, 1016.824
926.117, 1200.748
927.375, 1384.980
928.632, 1487.387
929.890, 1605.407
931.147, 1715.557
932.404, 1679.396
933.661, 1523.253
934.918, 1353.125
936.174, 1057.032
937.430, 970.911
938.686, 714.338
939.942, 768.120
941.198, 691.873
942.453, 551.445
943.708, 484.500
944.963, 508.416
946.218, 502.051
947.472, 625.868
948.727, 436.600
949.981, 680.735
951.235, 343.959
952.488, 422.615
953.742, 446.284
954.995, 398.777
956.248, 272.594
957.501, 256.092
958.754, 299.559
960.006, 303.248
961.258, 248.689
962.510, 332.189
963.762, 280.610
965.014, 238.542
966.265, 281.494
967.516, 176.744
968.767, 240.127
970.018, 83.812
971.269, 157.296
972.519, 207.253
973.769, 97.300
975.019, 9.229
976.269, 114.310
977.518, 147.585
978.767, 191.433
980.017, 144.681
981.265, 148.376
982.514, 242.454
983.762, 33.922
985.011, 291.045
986.259, 121.320
987.507, 214.777
988.754, 239.421
990.002, 122.026
991.249, 236.474
992.496, 280.605
993.743, 185.121
994.989, 209.798
996.236, 124.368
997.482, 339.712
998.728, 263.628
999.974, 398.095
1001.219, 773.224
1002.464, 707.622
1003.710, 721.776
1004.954, 576.168
1006.199, 531.243
1007.444, 465.652
1008.688, 561.892
1009.932, 626.761
1011.176, 781.335
1012.420, 688.776
1013.663, 943.197
1014.906, 920.517
1016.149, 1045.118
1017.392, 1190.000
1018.635, 1485.918
1019.877, 1640.487
1021.120, 2074.497
1022.362, 2277.355
1023.603, 2841.544
1024.845, 3416.924
1026.086, 4001.291
1027.328, 4525.924
1028.569, 4861.005
1029.809, 4945.241
1031.050, 5499.083
1032.290, 4404.717
1033.530, 3788.905
1034.770, 2673.204
1036.010, 2248.447
1037.250, 1763.090
1038.489, 1627.340
1039.728, 1317.062
1040.967, 1431.031
1042.206, 1225.957
1043.444, 1239.979
1044.683, 1222.294
1045.921, 1147.100
1047.159, 1311.084
1048.396, 1515.895
1049.634, 1589.189
1050.871, 2073.125
1052.108, 2190.976
1053.345, 2574.542
1054.582, 3276.334
1055.818, 3349.994
1057.054, 3753.595
1058.290, 3486.363
1059.526, 3889.929
1060.762, 3653.859
1061.997, 3624.504
1063.232, 3428.144
1064.467, 3572.642
1065.702, 3988.674
1066.937, 4011.967
1068.171, 4036.232
1069.405, 3990.134
1070.639, 3602.963
1071.873, 2896.943
1073.107, 2830.452
1074.340, 2343.570
1075.573, 2297.379
1076.806, 2170.129
1078.039, 2083.497
1079.272, 2447.517
1080.504, 2650.729
1081.736, 3734.654
1082.968, 5947.100
1084.200, 11165.491
1085.431, 18768.135
1086.663, 19440.592
1087.894, 13914.030
1089.125, 7806.553
1090.355, 4199.478
1091.586, 2671.647
1092.816, 1904.189
1094.046, 1246.297
1095.276, 1119.359
1096.506, 881.518
1097.735, 784.469
1098.965, 697.469
1100.194, 619.151
1101.423, 611.785
1102.651, 493.695
1103.880, 485.970
1105.108, 539.200
1106.336, 591.232
1107.564, 313.878
1108.792, 506.004
1110.019, 317.741
1111.246, 390.079
1112.473, 452.138
1113.700, 343.820
1114.927, 395.459
1116.153, 367.094
1117.380, 298.690
1118.606, 410.011
1119.831, 241.535
1121.057, 333.222
1122.283, 454.529
1123.508, 245.265
1124.733, 346.814
1125.958, 178.164
1127.182, 189.467
1128.407, 230.897
1129.631, 222.132
1130.855, 233.337
1132.079, 53.595
1133.302, 134.807
1134.526, 325.905
1135.749, 7.007
1136.972, 228.111
1138.195, 49.386
1139.417, 180.392
1140.640, 71.714
1141.862, 53.437
1143.084, 134.553
1144.305, 6.149
1145.527, 186.934
1146.748, 137.896
1147.970, 29.831
1149.191, 100.451
1150.411, 221.777
1151.632, 163.089
1152.852, 33.580
1154.072, 156.193
1155.292, 12.634
1156.512, 57.707
1157.732, 108.262
1158.951, 31.076
1160.170, 140.121
1161.389, 28.582
1162.608, 91.454
1163.826, 55.633
1165.045, 4.572
1166.263, 95.508
1167.481, 225.606
1168.699, 114.843
1169.916, 174.895
1171.134, 4.685
1172.351, 124.018
1173.568, 73.300
1174.784, 22.531
1176.001, 141.705
1177.217, 231.508
1178.433, 0.569
1179.649, 139.794
1180.865, 109.334
1182.081, 8.203
1183.296, 57.530
1184.511, 106.793
1185.726, 64.497
1186.941, 165.286
1188.155, 24.255
1189.370, 142.781
1190.584, 104.432
1191.798, 34.058
1193.011, 142.693
1194.225, 31.225
1195.438, 120.269
1196.651, 138.096
1197.864, 33.729
1199.077, 214.327
1200.290, 96.683
1201.502, 181.204
1202.714, 189.125
1203.926, 112.681
1205.138, 185.019
1206.349, 102.667
1207.561, 79.366
1208.772, 148.134
1209.983, 35.738
1211.194, 6.519
1212.404, 210.781
1213.614, 50.495
1214.825, 87.647
1216.034, 304.907
1217.244, 72.147
1218.454, 129.106
1219.663, 215.961
1220.872, 82.941
1222.081, 289.692
1223.290, 136.376
1224.498, 53.389
1225.707, 160.424
1226.915, 62.146
1228.123, 338.598
1229.331, 44.873
1230.538, 281.426
1231.746, 317.668
1232.953, 107.176
1234.160, 294.055
1235.366, 190.053
1236.573, 436.336
1237.779, 272.203
1238.986, 418.006
1240.192, 133.750
1241.397, 339.428
1242.603, 145.035
1243.808, 320.529
1245.013, 235.959
1246.218, 201.324
1247.423, 366.623
1248.628, 271.861
1249.832, 87.018
1251.036, 311.963
1252.240, 156.832
1253.444, 271.564
1254.648, 376.148
1255.851, 210.639
1257.054, 275.043
1258.257, 359.354
1259.460, 383.795
1260.663, 477.922
1261.865, 471.525
1263.067, 427.709
1264.269, 511.553
1265.471, 315.148
1266.673, 418.930
1267.874, 432.520
1269.075, 295.541
1270.276, 458.592
1271.477, 370.895
1272.678, 313.062
1273.878, 410.904
1275.078, 477.967
1276.278, 285.623
1277.478, 342.084
1278.678, 348.596
1279.877, 454.541
1281.077, 350.213
1282.276, 286.850
1283.475, 372.334
1284.673, 279.023
1285.872, 174.529
1287.070, 308.066
1288.268, 160.375
1289.466, 372.768
1290.664, 307.506
1291.861, 110.898
1293.058, 366.631
1294.255, 170.590
1295.452, 165.020
1296.649, 388.861
1297.846, 42.293
1299.042, 166.711
1300.238, 359.189
1301.434, 276.305
1302.630, 239.471
1303.825, 112.887
1305.020, 95.594
1306.216, 305.881
1307.411, 16.025
1308.605, 556.936
1309.800, 230.344
1310.994, 191.102
1312.188, 403.744
1313.382, 224.871
1314.576, 193.998
1315.770, 694.422
1316.963, 286.475
1318.156, 428.502
1319.349, 410.332
1320.542, 120.631
1321.735, 390.965
1322.927, 215.268
1324.119, 128.059
1325.311, 489.191
1326.503, 151.408
1327.695, 154.082
1328.886, 425.504
1330.077, 56.775
1331.268, 177.729
1332.459, 280.002
1333.650, 29.934
1334.840, 240.607
1336.030, 192.129
1337.220, 204.035
1338.410, 196.555
1339.600, 209.010
1340.789, 241.043
1341.979, 253.379
1343.168, 65.170
1344.357, 287.104
1345.545, 239.234
1346.734, 160.430
1347.922, 382.117
1349.110, 332.980
1350.298, 163.648
1351.486, 522.652
1352.674, 211.918
1353.861, 159.576
1355.048, 348.807
1356.235, 2.225
1357.422, 571.207
1358.608, 200.969
1359.795, 187.584
1360.981, 384.729
1362.167, 233.957
1363.353, 182.402
1364.538, 221.967
1365.724, 582.277
1366.909, 133.109
1368.094, 111.826
1369.279, 48.131
1370.463, 330.740
1371.648, 188.141
1372.832, 284.818
1374.016, 363.848
1375.200, 21.648
1376.384, 55.994
1377.567, 403.535
1378.750, 122.279
1379.933, 517.182
1381.116, 513.811
1382.299, 312.201
1383.481, 608.736
1384.664, 354.340
1385.846, 310.213
1387.028, 416.914
1388.210, 343.266
1389.391, 310.037
1390.572, 517.492
1391.754, 229.557
1392.935, 352.639
1394.115, 376.354
1395.296, 126.424
1396.476, 533.094
1397.656, 182.156
1398.837, 313.098
1400.016, 283.051
1401.196, 62.807
1402.375, 411.195
1403.555, 367.906
1404.734, 13.355
1405.912, 406.982
1407.091, 78.395
1408.270, 65.326
1409.448, 387.197
1410.626, 57.961
1411.804, 279.562
1412.982, 265.695
1414.159, 0.000
##END=



