##NAMES=Actinolite
##RRUFFID=R040064
##IDEAL CHEMISTRY=Ca_2_(Mg_4.5-2.5_Fe^2+^_0.5-2.5_)Si_8_O_22_(OH)_2_
##LOCALITY=Ehime Perfecture, Uma Gun, Japan
##OWNER=RRUFF
##SOURCE=University of Arizona Mineral Museum
##DESCRIPTION=Aggregate of green acicular crystals associated with chlorite
##STATUS=The identification of this mineral has been confirmed by X-ray diffraction and chemical analysis
##URL=rruff.info/R040064
##MEASURED CHEMISTRY=(Ca_0.95_Na_0.04_Mn_0.01_)_2_(Mg_0.88_Fe_0.12_)_5_(Si_0.98_Al_0.02_)_8_O_22_(OH)_2_
##PIN_ID=M00405
##ORIENTATION=Laser parallel to a [1 0 0]. Fiducial mark perpendicular to laser is parallel to b* (0 1 0)
106.423, 0.000
107.817, 228.398
109.210, 776.922
110.603, 1723.612
111.996, 1883.171
113.388, 2607.155
114.780, 3446.425
116.172, 4837.417
117.564, 6046.930
118.956, 6893.394
120.347, 7282.569
121.738, 7036.752
123.129, 6137.418
124.519, 4885.663
125.910, 3727.635
127.300, 2705.161
128.690, 2055.463
130.080, 1312.046
131.469, 1014.236
132.858, 717.708
134.248, 454.272
135.636, 292.772
137.025, 236.084
138.413, 149.104
139.801, 130.749
141.189, 73.947
142.577, 15.295
143.964, 86.231
145.352, 99.704
146.739, 124.693
148.125, 188.130
149.512, 154.298
150.898, 111.287
152.284, 24.809
153.670, 273.380
155.056, 475.067
156.441, 897.720
157.827, 1061.352
159.212, 1087.953
160.596, 751.520
161.981, 637.058
163.365, 391.575
164.749, 130.077
166.133, 250.570
167.517, 333.064
168.900, 549.561
170.283, 918.062
171.666, 1594.570
173.049, 2499.082
174.431, 3629.602
175.813, 4910.126
177.195, 5330.659
178.577, 5211.196
179.959, 4431.740
181.340, 3402.291
182.721, 2340.847
184.102, 1626.410
185.483, 1065.977
186.863, 767.019
188.244, 516.113
189.624, 397.798
191.003, 264.227
192.383, 394.523
193.762, 256.772
195.141, 201.451
196.520, 155.329
197.899, 46.361
199.277, 87.635
200.656, 38.066
202.034, 84.750
203.411, 122.535
204.789, 272.392
206.166, 215.351
207.543, 349.386
208.920, 531.362
210.297, 758.197
211.673, 850.874
213.049, 1081.561
214.425, 1497.295
215.801, 1974.073
217.176, 2524.894
218.552, 3304.754
219.927, 4024.655
221.302, 4314.597
222.676, 4284.582
224.051, 4014.650
225.425, 3754.812
226.799, 3562.186
228.173, 3185.301
229.546, 3075.591
230.919, 2885.902
232.292, 2716.228
233.665, 2256.562
235.038, 1784.899
236.410, 1325.247
237.782, 1043.604
239.154, 725.968
240.526, 638.338
241.898, 706.713
243.269, 629.093
244.640, 842.478
246.011, 937.866
247.381, 1116.260
248.752, 1132.656
250.122, 1213.058
251.492, 1014.461
252.861, 809.867
254.231, 720.274
255.600, 514.685
256.969, 430.096
258.338, 415.508
259.707, 247.924
261.075, 215.341
262.443, 227.758
263.811, 157.175
265.179, 26.409
266.546, 68.006
267.914, 48.580
269.281, 28.801
270.647, 182.863
272.014, 127.574
273.380, 50.561
274.747, 94.718
276.113, 93.440
277.478, 134.937
278.844, 60.340
280.209, 43.650
281.574, 76.349
282.939, 32.242
284.304, 249.980
285.668, 472.016
287.032, 680.305
288.396, 743.295
289.760, 832.462
291.123, 769.938
292.487, 581.713
293.850, 489.763
295.212, 435.339
296.575, 466.528
297.937, 657.041
299.300, 649.527
300.662, 607.496
302.023, 741.734
303.385, 637.971
304.746, 569.715
306.107, 558.414
307.468, 372.633
308.829, 421.904
310.189, 256.534
311.549, 216.129
312.909, 157.232
314.269, 125.209
315.629, 104.871
316.988, 107.996
318.347, 114.844
319.706, 147.440
321.065, 164.561
322.423, 186.676
323.781, 235.785
325.139, 393.891
326.497, 500.990
327.855, 746.086
329.212, 988.176
330.569, 1146.262
331.926, 1189.543
333.283, 1274.619
334.639, 1152.235
335.995, 924.496
337.351, 818.557
338.707, 805.626
340.063, 855.441
341.418, 811.867
342.773, 744.382
344.128, 736.429
345.483, 863.399
346.837, 788.674
348.192, 874.686
349.546, 803.692
350.899, 883.659
352.253, 796.574
353.606, 843.289
354.960, 868.895
356.313, 816.348
357.665, 854.715
359.018, 870.092
360.370, 1203.453
361.722, 1399.483
363.074, 1890.115
364.426, 2631.045
365.777, 3411.400
367.128, 4111.752
368.479, 4472.098
369.830, 4402.441
371.181, 4022.777
372.531, 3333.109
373.881, 2793.437
375.231, 2333.760
376.581, 1944.080
377.930, 1754.396
379.280, 1675.668
380.629, 1825.016
381.977, 1915.318
383.326, 2275.616
384.674, 2685.910
386.023, 3296.198
387.370, 4326.480
388.718, 5276.756
390.066, 6617.025
391.413, 7617.289
392.760, 8317.546
394.107, 7557.793
395.454, 6618.035
396.800, 5358.270
398.146, 4328.496
399.492, 3238.717
400.838, 2508.930
402.184, 2149.133
403.529, 1899.329
404.874, 1809.518
406.219, 1739.705
407.564, 1959.878
408.908, 2180.267
410.252, 2410.424
411.596, 2830.723
412.940, 3040.862
414.284, 3190.996
415.627, 3071.120
416.970, 3001.235
418.313, 2511.343
419.656, 2231.441
420.999, 1831.531
422.341, 1441.612
423.683, 1001.684
425.025, 752.748
426.367, 698.802
427.708, 486.681
429.049, 482.718
430.390, 361.195
431.731, 434.117
433.072, 348.460
434.412, 465.164
435.752, 510.483
437.092, 335.918
438.432, 309.340
439.772, 228.789
441.111, 79.094
442.450, 31.369
443.789, 33.266
445.127, 35.825
446.466, 22.076
447.804, 83.944
449.142, 7.087
450.480, 90.332
451.817, 6.418
453.155, 20.772
454.492, 48.077
455.829, 135.150
457.166, 32.685
458.502, 19.677
459.838, 19.917
461.175, 98.455
462.510, 0.814
463.846, 1.148
465.181, 38.541
466.517, 18.725
467.852, 64.972
469.186, 3.207
470.521, 108.441
471.855, 37.688
473.190, 36.051
474.523, 36.215
475.857, 23.502
477.191, 72.800
478.524, 142.084
479.857, 77.378
481.190, 197.657
482.523, 300.924
483.855, 126.226
485.187, 563.514
486.519, 382.816
487.851, 210.146
489.183, 293.464
490.514, 104.779
491.845, 48.080
493.176, 166.368
494.507, 18.643
495.837, 49.899
497.168, 97.144
498.498, 1.376
499.828, 74.416
501.157, 28.732
502.487, 38.137
503.816, 92.992
505.145, 13.893
506.474, 40.192
507.802, 148.263
509.131, 189.324
510.459, 248.375
511.787, 283.683
513.115, 286.438
514.442, 305.452
515.770, 234.464
517.097, 203.480
518.424, 92.488
519.750, 121.484
521.077, 260.474
522.403, 36.454
523.729, 1.572
525.055, 297.384
526.381, 216.329
527.706, 175.266
529.031, 254.190
530.356, 243.105
531.681, 142.021
533.006, 280.925
534.330, 159.817
535.654, 328.700
536.978, 157.572
538.302, 406.460
539.625, 275.338
540.949, 224.236
542.272, 233.124
543.595, 282.001
544.917, 260.869
546.240, 189.725
547.562, 328.570
548.884, 167.406
550.206, 266.229
551.527, 95.043
552.849, 233.846
554.170, 192.637
555.491, 261.418
556.812, 110.188
558.132, 228.946
559.453, 117.696
560.773, 96.433
562.093, 135.160
563.412, 123.876
564.732, 92.581
566.051, 231.275
567.370, 39.959
568.689, 338.630
570.008, 57.289
571.326, 225.938
572.644, 274.575
573.963, 213.201
575.280, 311.817
576.598, 180.422
577.915, 279.016
579.233, 127.600
580.550, 246.172
581.866, 324.734
583.183, 223.285
584.499, 171.826
585.815, 340.357
587.131, 148.892
588.447, 197.416
589.763, 55.951
591.078, 25.523
592.393, 43.026
593.708, 81.604
595.022, 150.195
596.337, 152.770
597.651, 32.554
598.965, 106.092
600.279, 84.701
601.593, 37.004
602.906, 41.250
604.219, 29.533
605.532, 35.427
606.845, 43.998
608.158, 150.812
609.470, 22.396
610.782, 109.236
612.094, 55.175
613.406, 0.605
614.718, 88.141
616.029, 16.681
617.340, 101.210
618.651, 147.160
619.962, 115.660
621.272, 272.918
622.582, 140.199
623.892, 164.994
625.202, 212.853
626.512, 211.192
627.821, 338.622
629.131, 287.073
630.440, 415.217
631.749, 340.226
633.057, 278.342
634.366, 516.488
635.674, 474.814
636.982, 558.154
638.290, 556.484
639.597, 814.882
640.905, 604.242
642.212, 962.623
643.519, 927.217
644.825, 925.078
646.132, 1263.436
647.438, 1464.029
648.744, 1462.369
650.050, 1650.529
651.356, 1948.931
652.662, 1996.702
653.967, 2585.458
655.272, 2773.757
656.577, 3261.063
657.882, 3744.074
659.186, 4371.969
660.490, 5096.692
661.794, 6454.938
663.098, 7911.360
664.402, 10089.351
665.705, 13148.795
667.009, 17227.367
668.312, 22615.584
669.614, 28623.881
670.917, 34582.172
672.219, 37272.227
673.522, 37894.266
674.824, 32302.443
676.125, 27200.688
677.427, 21069.168
678.728, 16187.329
680.030, 12306.754
681.331, 9573.815
682.631, 7452.121
683.932, 6000.253
685.232, 4878.439
686.532, 4196.557
687.832, 3427.006
689.132, 3035.110
690.432, 2523.205
691.731, 2241.294
693.030, 1929.490
694.329, 1843.770
695.628, 1631.837
696.926, 1397.031
698.224, 1245.082
699.522, 1263.203
700.820, 1071.410
702.118, 1179.438
703.415, 997.481
704.713, 735.493
706.010, 823.498
707.307, 671.495
708.603, 829.484
709.900, 697.467
711.196, 745.442
712.492, 553.410
713.788, 581.369
715.083, 679.323
716.379, 327.270
717.674, 645.209
718.969, 463.142
720.264, 601.068
721.558, 478.982
722.853, 416.896
724.147, 514.577
725.441, 432.478
726.735, 450.221
728.028, 688.107
729.322, 385.988
730.615, 653.863
731.908, 441.731
733.201, 879.594
734.493, 727.450
735.785, 615.301
737.078, 843.146
738.370, 780.983
739.661, 748.816
740.953, 926.645
742.244, 1144.466
743.535, 1172.283
744.826, 1370.094
746.117, 1357.755
747.407, 1723.253
748.698, 1700.851
749.988, 1638.605
751.278, 1806.389
752.567, 1454.167
753.857, 1309.211
755.146, 1066.978
756.435, 864.719
757.724, 749.469
759.013, 457.021
760.301, 504.521
761.590, 502.062
762.878, 319.635
764.165, 447.390
765.453, 354.933
766.741, 362.716
768.028, 240.421
769.315, 367.858
770.602, 325.701
771.888, 82.616
773.175, 320.466
774.461, 78.324
775.747, 156.177
777.033, 264.032
778.319, 111.890
779.604, 129.758
780.889, 67.626
782.174, 155.490
783.459, 233.354
784.744, 171.216
786.028, 59.073
787.312, 256.942
788.596, 14.809
789.880, 132.671
791.164, 69.470
792.447, 118.342
793.730, 146.150
795.013, 166.046
796.296, 361.661
797.579, 90.637
798.861, 142.992
800.143, 204.566
801.425, 27.879
802.707, 139.651
803.989, 57.179
805.270, 44.704
806.551, 82.225
807.832, 0.256
809.113, 117.255
810.394, 54.762
811.674, 2.271
812.954, 159.797
814.234, 152.679
815.514, 284.772
816.794, 32.222
818.073, 209.678
819.352, 12.866
820.631, 4.574
821.910, 102.008
823.189, 39.674
824.467, 37.102
825.745, 25.473
827.023, 58.065
828.301, 139.305
829.578, 36.672
830.856, 4.036
832.133, 121.403
833.410, 21.232
834.687, 96.117
835.963, 13.471
837.240, 140.820
838.516, 38.168
839.792, 235.515
841.068, 37.140
842.343, 220.182
843.618, 77.500
844.894, 244.819
846.169, 22.136
847.443, 100.549
848.718, 66.710
849.992, 116.033
851.266, 111.164
852.540, 28.360
853.814, 5.554
855.088, 192.748
856.361, 39.940
857.634, 177.134
858.907, 184.326
860.180, 171.520
861.453, 98.731
862.725, 55.941
863.997, 353.155
865.269, 50.377
866.541, 57.599
867.812, 284.823
869.084, 172.063
870.355, 219.304
871.626, 248.122
872.897, 203.825
874.167, 221.090
875.438, 178.358
876.708, 135.627
877.978, 72.897
879.248, 300.171
880.517, 147.445
881.787, 234.723
883.056, 112.003
884.325, 339.283
885.594, 176.573
886.862, 223.864
888.130, 51.157
889.399, 138.461
890.667, 285.765
891.934, 263.072
893.202, 280.382
894.469, 207.696
895.737, 225.015
897.004, 252.332
898.270, 219.653
899.537, 296.991
900.803, 404.340
902.070, 121.702
903.336, 489.066
904.601, 396.434
905.867, 193.806
907.132, 311.189
908.398, 368.581
909.663, 505.973
910.928, 524.060
912.192, 546.754
913.457, 558.209
914.721, 515.629
915.985, 503.056
917.249, 460.484
918.512, 587.916
919.776, 905.352
921.039, 882.790
922.302, 960.234
923.565, 1537.678
924.827, 1545.128
926.090, 1942.594
927.352, 2170.060
928.614, 2437.527
929.876, 2685.018
931.138, 2402.506
932.399, 2369.997
933.660, 2317.488
934.922, 1524.983
936.182, 1572.480
937.443, 1159.978
938.704, 1087.442
939.964, 1094.941
941.224, 602.224
942.484, 739.725
943.744, 532.297
945.003, 629.799
946.262, 707.306
947.521, 473.841
948.780, 711.351
950.039, 382.643
951.298, 480.661
952.556, 608.181
953.814, 313.457
955.072, 430.980
956.330, 348.505
957.587, 125.979
958.845, 343.535
960.102, 380.454
961.359, 318.017
962.615, 165.553
963.872, 162.628
965.128, 240.196
966.384, 67.834
967.640, 195.406
968.896, 103.339
970.152, 210.921
971.407, 137.492
972.662, 174.743
973.917, 17.660
975.172, 20.056
976.427, 147.570
977.681, 163.635
978.935, 227.396
980.189, 65.005
981.443, 402.537
982.697, 11.538
983.950, 179.162
985.203, 185.563
986.456, 113.192
987.709, 180.711
988.962, 98.345
990.214, 86.147
991.467, 213.903
992.719, 159.225
993.971, 217.033
995.222, 234.718
996.474, 192.412
997.725, 109.995
998.976, 161.550
1000.227, 279.318
1001.478, 540.472
1002.728, 418.217
1003.978, 355.889
1005.229, 354.065
1006.479, 221.847
1007.728, 439.995
1008.978, 328.063
1010.227, 456.027
1011.476, 388.090
1012.725, 655.912
1013.974, 624.290
1015.223, 724.249
1016.471, 752.145
1017.719, 960.533
1018.967, 1051.971
1020.215, 1089.870
1021.462, 1352.317
1022.710, 1600.533
1023.957, 2009.229
1025.204, 2367.859
1026.451, 2795.881
1027.697, 3134.007
1028.944, 3052.360
1030.190, 3170.264
1031.436, 2678.863
1032.682, 2147.230
1033.928, 1785.150
1035.173, 1554.812
1036.418, 1233.207
1037.663, 1171.581
1038.908, 791.271
1040.153, 1189.188
1041.398, 867.834
1042.642, 876.121
1043.886, 1045.149
1045.130, 803.481
1046.374, 951.408
1047.617, 1259.920
1048.860, 1031.031
1050.104, 1508.972
1051.347, 1529.312
1052.589, 1647.563
1053.832, 2075.956
1055.074, 2284.660
1056.316, 2892.581
1057.558, 2771.710
1058.800, 2919.629
1060.042, 3117.537
1061.283, 2656.540
1062.524, 2734.457
1063.765, 2592.966
1065.006, 2502.019
1066.247, 2809.944
1067.487, 2628.365
1068.728, 2917.012
1069.968, 2764.928
1071.208, 2113.651
1072.447, 2171.557
1073.687, 1619.451
1074.926, 1430.816
1076.165, 1328.698
1077.404, 956.574
1078.643, 1039.341
1079.881, 987.211
1081.120, 745.377
1082.358, 923.432
1083.596, 811.714
1084.834, 709.930
1086.071, 787.776
1087.309, 615.612
1088.546, 513.765
1089.783, 541.599
1091.020, 399.574
1092.256, 647.817
1093.493, 305.641
1094.729, 354.122
1095.965, 472.075
1097.201, 300.008
1098.436, 438.499
1099.672, 286.363
1100.907, 204.870
1102.142, 452.893
1103.377, 180.775
1104.612, 304.573
1105.846, 632.432
1107.081, 100.317
1108.315, 359.238
1109.549, 167.062
1110.782, 94.874
1112.016, 572.991
1113.249, 100.778
1114.483, 398.552
1115.716, 266.354
1116.948, 4.871
1118.181, 243.239
1119.413, 50.997
1120.646, 130.186
1121.878, 348.556
1123.110, 56.041
1124.341, 283.936
1125.573, 31.622
1126.804, 249.297
1128.035, 208.085
1129.266, 175.851
1130.497, 46.203
1131.727, 153.056
1132.957, 40.647
1134.188, 368.964
1135.418, 106.844
1136.647, 224.444
1137.877, 76.812
1139.106, 104.375
1140.335, 142.013
1141.564, 104.462
1142.793, 211.973
1144.022, 171.182
1145.250, 339.422
1146.479, 126.871
1147.707, 142.933
1148.934, 20.943
1150.162, 228.784
1151.390, 277.125
1152.617, 14.570
1153.844, 198.069
1155.071, 80.806
1156.298, 108.121
1157.524, 136.777
1158.751, 74.360
1159.977, 243.027
1161.203, 55.904
1162.428, 36.774
1163.654, 200.995
1164.879, 78.319
1166.105, 54.641
1167.330, 283.048
1168.555, 69.546
1169.779, 127.832
1171.004, 16.223
1172.228, 33.043
1173.452, 180.438
1174.676, 157.508
1175.900, 104.232
1177.123, 290.924
1178.346, 47.763
1179.570, 104.389
1180.793, 235.772
1182.015, 17.666
1183.238, 109.397
1184.460, 116.820
1185.683, 16.735
1186.905, 361.182
1188.126, 59.996
1189.348, 146.320
1190.569, 5.803
1191.791, 142.428
1193.012, 398.638
1194.233, 110.505
1195.453, 32.773
1196.674, 333.300
1197.894, 19.521
1199.114, 176.460
1200.334, 143.164
1201.554, 69.068
1202.774, 335.027
1203.993, 11.686
1205.212, 257.467
1206.431, 493.393
1207.650, 34.338
1208.869, 310.000
1210.087, 125.811
1211.305, 38.154
1212.524, 413.689
1213.741, 162.004
1214.959, 107.740
1216.177, 433.152
1217.394, 89.443
1218.611, 314.809
1219.828, 370.107
1221.045, 23.523
1222.261, 481.666
1223.478, 347.619
1224.694, 44.281
1225.910, 390.771
1227.126, 229.631
1228.342, 254.902
1229.557, 200.137
1230.772, 216.652
1231.987, 511.479
1233.202, 336.264
1234.417, 235.609
1235.631, 450.311
1236.846, 275.566
1238.060, 210.197
1239.274, 564.795
1240.488, 164.736
1241.701, 289.273
1242.915, 303.781
1244.128, 168.740
1245.341, 433.162
1246.554, 177.676
1247.767, 293.365
1248.979, 547.689
1250.191, 48.020
1251.403, 376.418
1252.615, 320.615
1253.827, 95.799
1255.039, 370.051
1256.250, 374.145
1257.461, 258.285
1258.672, 372.301
1259.883, 336.379
1261.094, 620.904
1262.304, 115.021
1263.514, 258.990
1264.724, 542.930
1265.934, 66.605
1267.144, 190.771
1268.354, 554.498
1269.563, 297.820
1270.772, 411.748
1271.981, 374.830
1273.190, 108.127
1274.398, 321.789
1275.607, 274.998
1276.815, 56.799
1278.023, 359.910
1279.231, 172.668
1280.439, 299.850
1281.646, 442.758
1282.853, 14.322
1284.060, 368.975
1285.267, 341.668
1286.474, 15.436
1287.681, 447.107
1288.887, 69.693
1290.093, 182.340
1291.299, 434.820
1292.505, 72.797
1293.711, 230.158
1294.916, 271.889
1296.121, 154.123
1297.327, 356.441
1298.531, 32.080
1299.736, 20.082
1300.941, 451.783
1302.145, 103.404
1303.349, 85.057
1304.553, 322.541
1305.757, 25.783
1306.961, 325.281
1308.164, 105.320
1309.367, 306.096
1310.570, 436.975
1311.773, 194.709
1312.976, 255.934
1314.178, 242.645
1315.381, 83.441
1316.583, 463.713
1317.785, 213.984
1318.987, 284.814
1320.188, 505.492
1321.390, 535.881
1322.591, 316.658
1323.792, 496.684
1324.993, 13.117
1326.193, 377.475
1327.394, 226.271
1328.594, 146.277
1329.794, 506.250
1330.994, 84.682
1332.194, 34.830
1333.394, 424.184
1334.593, 13.836
1335.792, 262.688
1336.991, 462.256
1338.190, 27.916
1339.389, 211.262
1340.587, 357.785
1341.786, 117.414
1342.984, 454.586
1344.182, 163.785
1345.379, 372.785
1346.577, 321.412
1347.774, 150.764
1348.972, 378.852
1350.169, 298.084
1351.365, 22.729
1352.562, 585.303
1353.759, 294.359
1354.955, 47.232
1356.151, 590.568
1357.347, 19.447
1358.543, 267.777
1359.738, 385.830
1360.934, 134.561
1362.129, 322.439
1363.324, 383.021
1364.519, 111.635
1365.713, 536.740
1366.908, 146.287
1368.102, 14.801
1369.296, 318.391
1370.490, 3.152
1371.684, 244.988
1372.877, 243.061
1374.071, 60.768
1375.264, 408.475
1376.457, 346.459
1377.650, 15.607
1378.843, 641.979
1380.035, 169.947
1381.227, 360.938
1382.419, 651.773
1383.611, 27.025
1384.803, 483.658
1385.995, 374.154
1387.186, 189.123
1388.377, 490.178
1389.568, 280.045
1390.759, 80.660
1391.950, 691.559
1393.140, 311.309
1394.331, 261.697
1395.521, 820.066
1396.711, 110.469
1397.900, 281.025
1399.090, 340.123
1400.279, 288.285
1401.469, 407.791
1402.658, 287.650
1403.847, 162.010
1405.035, 242.357
1406.224, 153.684
1407.412, 262.520
1408.600, 250.748
1409.788, 168.613
1410.976, 250.180
1412.164, 312.547
1413.351, 167.875
1414.538, 279.250
1415.725, 303.795
1416.912, 162.283
1418.099, 519.510
1419.285, 175.498
1420.472, 363.365
1421.658, 511.584
1422.844, 180.062
1424.030, 501.561
1425.215, 449.199
1426.401, 106.195
1427.586, 398.588
1428.771, 201.979
1429.956, 269.557
1431.141, 577.867
1432.325, 204.055
1433.510, 460.797
1434.694, 508.559
1435.878, 95.068
1437.062, 363.846
1438.245, 361.217
1439.429, 167.246
1440.612, 789.303
1441.795, 395.031
1442.978, 132.242
1444.161, 697.471
1445.343, 257.652
1446.526, 377.457
1447.708, 753.191
1448.890, 276.895
1450.072, 564.607
1451.253, 500.029
1452.435, 206.500
1453.616, 791.652
1454.797, 406.594
1455.978, 142.197
1457.159, 904.973
1458.340, 399.982
1459.520, 502.965
1460.700, 717.746
1461.880, 302.449
1463.060, 595.539
1464.240, 628.139
1465.420, 231.938
1466.599, 684.887
1467.778, 518.361
1468.957, 273.209
1470.136, 906.945
1471.315, 420.713
1472.493, 394.504
1473.671, 938.025
1474.849, 299.453
1476.027, 362.242
1477.205, 675.197
1478.383, 58.312
1479.560, 679.225
1480.737, 451.594
1481.914, 244.658
1483.091, 626.416
1484.268, 159.340
1485.444, 382.205
1486.621, 625.195
1487.797, 148.154
1488.973, 290.781
1490.149, 643.664
1491.324, 96.457
1492.500, 609.117
1493.675, 281.736
1494.850, 214.287
1496.025, 486.670
1497.200, 159.893
1498.374, 134.150
1499.548, 578.586
1500.723, 112.695
1501.897, 177.572
1503.071, 482.746
1504.244, 31.803
1505.418, 433.980
1506.591, 370.193
1507.764, 13.047
1508.937, 614.438
1510.110, 322.707
1511.282, 151.768
1512.455, 581.797
1513.627, 87.494
1514.799, 211.818
1515.971, 592.027
1517.143, 46.312
1518.314, 426.686
1519.486, 323.209
1520.657, 0.000
##END=



