##NAMES=Actinolite
##RRUFFID=R060041
##IDEAL CHEMISTRY=Ca_2_(Mg_4.5-2.5_Fe^2+^_0.5-2.5_)Si_8_O_22_(OH)_2_
##LOCALITY=Prince of Wales Island, Alaska, USA
##OWNER=RRUFF
##SOURCE=University of Arizona Mineral Museum
##DESCRIPTION=Green acicular crystals forming parallel groups in cylindrical or bladed forms
##STATUS=The identification of this mineral has been confirmed by X-ray diffraction and chemical analysis
##URL=rruff.info/R060041
##MEASURED CHEMISTRY=(Ca_0.97_Na_0.03_)_2_(Mg_0.65_Fe^2+^_0.29_Fe^3+^_0.04_Al_0.01_Mn_0.01_)_5_(Si_0.98_Al_0.02_)_8_O_22_(OH)_2_
95.94800, 0.0000000E+00
97.18200, 0.7958980
98.41600, 45.24316
99.64900, 114.7520
100.8830, 21.87402
102.1160, 48.28125
103.3490, 123.0293
104.5820, 377.5420
105.8150, 713.6348
107.0470, 1246.088
108.2800, 1636.963
109.5120, 2322.516
110.7440, 2079.146
111.9760, 1171.372
113.2080, 799.8018
114.4400, 987.1064
115.6710, 1254.007
116.9030, 1133.249
118.1340, 1045.613
119.3650, 583.9160
120.5960, 394.9971
121.8270, 497.7051
123.0580, 559.9160
124.2880, 446.5146
125.5190, 514.4160
126.7490, 341.5420
127.9790, 482.8262
129.2090, 751.2041
130.4390, 633.6162
131.6680, 825.0098
132.8980, 755.3350
134.1270, 704.5146
135.3560, 673.4688
136.5850, 830.1387
137.8140, 1207.474
139.0430, 1437.434
140.2710, 1874.001
141.5000, 2013.210
142.7280, 2241.008
143.9560, 2891.319
145.1840, 3528.113
146.4120, 4091.372
147.6390, 4570.079
148.8670, 4712.222
150.0940, 4864.797
151.3210, 4869.803
152.5490, 4596.971
153.7750, 5024.123
155.0020, 3676.451
156.2290, 3022.222
157.4550, 2185.420
158.6810, 1905.027
159.9080, 1734.029
161.1340, 1350.414
162.3590, 1538.166
163.5850, 1909.271
164.8110, 2236.721
166.0360, 2688.499
167.2610, 3137.597
168.4860, 3685.002
169.7110, 3922.616
170.9360, 4411.184
172.1610, 4720.743
173.3850, 4618.301
174.6100, 4289.920
175.8340, 3842.619
177.0580, 3520.416
178.2820, 2848.326
179.5050, 2301.358
180.7290, 1931.522
181.9520, 1529.826
183.1760, 1174.273
184.3990, 1079.770
185.6220, 1042.109
186.8450, 983.8418
188.0670, 1241.871
189.2900, 1380.762
190.5120, 1499.070
191.7340, 1578.541
192.9560, 1963.170
194.1780, 2191.960
195.4000, 2271.910
196.6220, 2719.018
197.8430, 2878.279
199.0640, 3144.698
200.2860, 3718.300
201.5070, 3992.145
202.7270, 4620.234
203.9480, 5229.611
205.1690, 5220.232
206.3890, 5778.207
207.6090, 6550.448
208.8290, 7455.135
210.0490, 8370.316
211.2690, 9999.951
212.4890, 11222.81
213.7080, 12377.90
214.9280, 13486.17
216.1470, 14279.58
217.3660, 14971.12
218.5850, 15317.78
219.8030, 15232.54
221.0220, 15375.40
222.2400, 14908.34
223.4590, 14169.37
224.6770, 13516.50
225.8950, 12682.71
227.1120, 11457.01
228.3300, 10618.39
229.5480, 9658.862
230.7650, 8691.413
231.9820, 7866.047
233.1990, 6903.762
234.4160, 6331.553
235.6330, 5795.419
236.8490, 5493.360
238.0660, 5032.373
239.2820, 4855.460
240.4980, 4532.615
241.7140, 4382.842
242.9300, 3983.301
244.1460, 3831.411
245.3610, 3433.139
246.5770, 2945.181
247.7920, 2713.801
249.0070, 2407.275
250.2220, 2229.858
251.4370, 1978.043
252.6510, 1763.448
253.8660, 1504.945
255.0800, 1330.986
256.2940, 1038.324
257.5080, 763.9443
258.7220, 883.8262
259.9360, 1218.958
261.1490, 1164.322
262.3630, 641.9121
263.5760, 421.7109
264.7890, 157.7119
266.0020, 276.9062
267.2150, 354.2842
268.4270, 74.83887
269.6400, 47.56445
270.8520, 30.45215
272.0640, 63.50293
273.2760, 13.69043
274.4880, 95.96973
275.7000, 62.49316
276.9120, 54.11523
278.1230, 41.85645
279.3340, 70.27637
280.5450, 49.71289
281.7560, 56.17969
282.9670, 51.04199
284.1780, 257.3770
285.3880, 40.82129
286.5980, 282.3740
287.8090, 151.0303
289.0190, 333.7891
290.2290, 250.6465
291.4380, 270.6025
292.6480, 213.6523
293.8570, 388.7949
295.0670, 420.0283
296.2760, 317.3516
297.4850, 351.7607
298.6930, 291.0742
299.9020, 344.8311
301.1110, 217.4883
302.3190, 243.0137
303.5270, 265.8818
304.7350, 402.0518
305.9430, 197.1133
307.1510, 350.5410
308.3580, 225.0371
309.5660, 122.1484
310.7730, 293.7324
311.9800, 68.31250
313.1870, 257.2461
314.3940, 139.6270
315.6010, 106.6562
316.8070, 20.46875
318.0130, 99.45117
319.2200, 128.4609
320.4260, 163.1230
321.6310, 245.2051
322.8370, 353.0820
324.0430, 359.3477
325.2480, 451.4277
326.4540, 418.9453
327.6590, 520.7168
328.8640, 667.8145
330.0680, 794.5488
331.2730, 865.2480
332.4780, 1194.205
333.6820, 1329.266
334.8860, 1677.975
336.0900, 1719.609
337.2940, 2028.014
338.4980, 2221.850
339.7010, 2271.727
340.9050, 2403.643
342.1080, 2743.600
343.3110, 2715.594
344.5140, 2830.625
345.7170, 3072.691
346.9200, 3065.295
348.1220, 3321.930
349.3240, 3216.100
350.5270, 3324.301
351.7290, 3418.170
352.9310, 3485.789
354.1320, 3851.070
355.3340, 4125.377
356.5350, 4473.705
357.7370, 4781.055
358.9380, 4916.422
360.1390, 5250.811
361.3400, 5314.213
362.5400, 5585.633
363.7410, 5589.068
364.9410, 5438.520
366.1410, 5361.984
367.3410, 5097.465
368.5410, 4828.959
369.7410, 4848.465
370.9400, 4513.984
372.1400, 4591.518
373.3390, 4764.061
374.5380, 4892.615
375.7370, 5045.180
376.9360, 5341.756
378.1350, 5623.340
379.3330, 6100.936
380.5310, 6341.539
381.7300, 6604.150
382.9280, 6754.770
384.1260, 7133.395
385.3230, 6827.031
386.5210, 6961.672
387.7180, 6722.363
388.9160, 6241.109
390.1130, 5840.895
391.3100, 5419.732
392.5060, 5093.607
393.7030, 4786.119
394.9000, 4477.488
396.0960, 4321.484
397.2920, 4089.510
398.4880, 3999.570
399.6840, 3930.660
400.8800, 4163.777
402.0750, 3761.920
403.2710, 4083.090
404.4660, 4096.283
405.6610, 3803.500
406.8560, 3763.738
408.0510, 3646.996
409.2450, 3464.275
410.4400, 3320.572
411.6340, 2896.883
412.8280, 2706.215
414.0220, 2522.561
415.2160, 2138.924
416.4100, 2067.752
417.6030, 1911.143
418.7970, 1604.559
419.9900, 1437.436
421.1830, 1504.859
422.3760, 1412.297
423.5690, 1503.102
424.7610, 1856.555
425.9540, 2005.553
427.1460, 2071.023
428.3380, 2431.498
429.5300, 2438.984
430.7220, 2706.473
431.9140, 2795.967
433.1050, 2443.467
434.2970, 2265.969
435.4880, 1902.477
436.6790, 1443.986
437.8700, 1244.500
439.0610, 831.0156
440.2510, 432.5352
441.4420, 365.0508
442.6320, 275.6152
443.8220, 172.1348
445.0120, 19.04102
446.2020, 116.8535
447.3910, 96.76562
448.5810, 4.625000
449.7700, 0.9140630
450.9600, 161.9688
452.1490, 26.87500
453.3370, 83.47266
454.5260, 6.931641
455.7150, 66.00977
456.9030, 172.4219
458.0910, 77.25781
459.2800, 53.12109
460.4670, 53.58789
461.6550, 264.3848
462.8430, 192.0684
464.0300, 225.4238
465.2180, 301.1172
466.4050, 270.9863
467.5920, 16.13672
468.7790, 94.65039
469.9650, 6.931641
471.1520, 98.60547
472.3380, 75.54883
473.5250, 66.77148
474.7110, 40.49414
475.8970, 40.07227
477.0820, 212.8965
478.2680, 57.42188
479.4540, 18.08203
480.6390, 272.3477
481.8240, 277.7598
483.0090, 342.1465
484.1940, 234.5137
485.3780, 368.8613
486.5630, 250.1836
487.7470, 181.4863
488.9320, 430.7656
490.1160, 585.0234
491.3000, 537.2559
492.4830, 536.4668
493.6670, 556.6523
494.8500, 594.8027
496.0340, 799.9492
497.2170, 782.0625
498.4000, 1007.980
499.5820, 1231.213
500.7650, 1367.248
501.9480, 1402.262
503.1300, 1560.250
504.3120, 1703.215
505.4940, 1845.174
506.6760, 1990.070
507.8580, 2197.961
509.0390, 2421.830
510.2210, 2606.670
511.4020, 2583.484
512.5830, 2557.270
513.7640, 2676.025
514.9450, 3126.756
516.1250, 3020.457
517.3060, 3359.139
518.4860, 3498.816
519.6660, 3611.520
520.8460, 3668.195
522.0260, 3585.848
523.2060, 3646.477
524.3850, 3401.096
525.5650, 3405.689
526.7440, 3189.256
527.9230, 2928.795
529.1020, 2581.305
530.2810, 2377.781
531.4590, 2204.232
532.6380, 1874.652
533.8160, 1699.074
534.9940, 1470.480
536.1720, 1341.859
537.3500, 1448.207
538.5270, 1231.527
539.7050, 1140.828
540.8820, 1195.094
542.0590, 971.3281
543.2360, 1163.557
544.4130, 1015.754
545.5900, 1011.918
546.7660, 935.0488
547.9430, 770.1562
549.1190, 993.2285
550.2950, 680.2676
551.4710, 866.2715
552.6470, 654.2676
553.8220, 824.2578
554.9980, 876.2617
556.1730, 931.2656
557.3480, 875.2812
558.5230, 855.3555
559.6980, 837.0137
560.8730, 738.1562
562.0470, 772.0469
563.2220, 768.8945
564.3960, 759.7168
565.5700, 814.5254
566.7440, 937.2930
567.9170, 745.0391
569.0910, 703.7461
570.2640, 909.4160
571.4380, 1010.045
572.6110, 735.6328
573.7840, 661.2402
574.9570, 706.9102
576.1290, 686.6426
577.3020, 663.3340
578.4740, 710.9844
579.6460, 545.5918
580.8180, 539.1562
581.9900, 518.6797
583.1620, 325.1602
584.3330, 343.6074
585.5040, 274.0098
586.6760, 64.42188
587.8470, 25.78711
589.0180, 90.69141
590.1880, 42.71680
591.3590, 174.3770
592.5290, 220.9863
593.7000, 85.00586
594.8700, 258.4941
596.0400, 218.0137
597.2090, 0.8066410
598.3790, 34.91016
599.5490, 118.9707
600.7180, 140.2559
601.8870, 150.3750
603.0560, 121.4766
604.2250, 54.93164
605.3940, 11.91406
606.5620, 119.1934
607.7300, 207.0371
608.8990, 85.08008
610.0670, 113.6914
611.2350, 1.068359
612.4020, 126.9082
613.5700, 87.44336
614.7370, 6.015625
615.9050, 271.9355
617.0720, 158.9453
618.2390, 255.3086
619.4060, 537.7520
620.5720, 369.4316
621.7390, 304.6836
622.9050, 419.8965
624.0710, 548.0723
625.2370, 515.2109
626.4030, 665.3125
627.5690, 776.3770
628.7340, 997.4004
629.9000, 1076.389
631.0650, 1107.340
632.2300, 1204.252
633.3950, 1334.127
634.5600, 1560.023
635.7240, 1754.934
636.8890, 2093.781
638.0530, 2074.504
639.2170, 2402.189
640.3810, 2528.834
641.5450, 2768.199
642.7080, 3012.768
643.8720, 3284.152
645.0350, 3252.854
646.1980, 3670.654
647.3610, 3619.412
648.5240, 4068.432
649.6870, 4503.264
650.8490, 5155.562
652.0120, 5679.820
653.1740, 6320.043
654.3360, 7224.352
655.4980, 8283.791
656.6600, 9945.850
657.8210, 11821.82
658.9830, 13983.62
660.1440, 16925.05
661.3050, 20230.44
662.4660, 23676.28
663.6270, 27295.61
664.7870, 30894.86
665.9480, 32828.69
667.1080, 34800.12
668.2680, 34978.67
669.4280, 34106.51
670.5880, 31420.65
671.7480, 28195.00
672.9070, 24771.57
674.0670, 21103.66
675.2260, 17899.03
676.3850, 14631.04
677.5440, 12173.63
678.7030, 10367.47
679.8610, 8901.768
681.0200, 7745.580
682.1780, 6912.793
683.3360, 6168.641
684.4940, 5605.381
685.6520, 4942.398
686.8090, 4677.793
687.9670, 4161.033
689.1240, 3889.709
690.2810, 3550.447
691.4380, 2930.777
692.5950, 2646.486
693.7520, 2478.463
694.9080, 2152.504
696.0650, 2043.787
697.2210, 1889.541
698.3770, 1915.857
699.5330, 1626.883
700.6880, 1835.074
701.8440, 1263.545
702.9990, 1458.783
704.1550, 1440.396
705.3100, 1403.904
706.4650, 1344.184
707.6190, 1257.250
708.7740, 1011.738
709.9290, 1084.633
711.0830, 926.0078
712.2370, 941.3301
713.3910, 1108.766
714.5450, 902.2891
715.6980, 960.4766
716.8520, 1073.010
718.0050, 845.8379
719.1580, 950.5117
720.3110, 904.3145
721.4640, 1102.635
722.6170, 1140.492
723.7700, 1115.215
724.9220, 1093.926
726.0740, 976.4727
727.2260, 1132.045
728.3780, 1240.021
729.5300, 1231.861
730.6810, 1401.504
731.8330, 1689.070
732.9840, 1673.264
734.1350, 1828.242
735.2860, 2077.912
736.4370, 1992.229
737.5880, 1938.582
738.7380, 1948.211
739.8880, 1890.787
741.0390, 2051.617
742.1890, 2025.201
743.3380, 1907.340
744.4880, 1785.697
745.6380, 1777.078
746.7870, 1536.512
747.9360, 1434.779
749.0850, 1307.244
750.2340, 1202.928
751.3830, 927.8242
752.5310, 1013.137
753.6800, 971.7754
754.8280, 649.0352
755.9760, 626.9844
757.1240, 728.1738
758.2720, 560.3320
759.4190, 568.4727
760.5670, 527.5762
761.7140, 693.6445
762.8610, 460.6738
764.0080, 578.6641
765.1550, 731.6211
766.3020, 657.5371
767.4480, 507.4199
768.5950, 470.2676
769.7410, 362.0762
770.8870, 354.1602
772.0330, 314.8262
773.1780, 302.6855
774.3240, 307.9492
775.4690, 339.5762
776.6140, 399.1699
777.7590, 461.7285
778.9040, 146.2500
780.0490, 373.7285
781.1940, 122.1738
782.3380, 275.5762
783.4820, 63.94336
784.6260, 243.2637
785.7700, 169.5449
786.9140, 205.7871
788.0580, 354.9922
789.2010, 390.1602
790.3450, 361.1465
791.4880, 291.0176
792.6310, 250.4668
793.7730, 17.49805
794.9160, 49.52148
796.0590, 143.6309
797.2010, 46.12695
798.3430, 45.83984
799.4850, 98.50586
800.6270, 28.86719
801.7690, 43.17383
802.9100, 84.19336
804.0520, 145.6582
805.1930, 112.0879
806.3340, 268.4785
807.4750, 184.8359
808.6160, 127.1582
809.7560, 89.55664
810.8970, 19.37305
812.0370, 89.74414
813.1770, 19.82422
814.3170, 253.8594
815.4570, 36.13672
816.5960, 345.7949
817.7360, 165.6992
818.8750, 77.43164
820.0140, 135.3457
821.1530, 150.0859
822.2920, 76.79492
823.4310, 21.53320
824.5690, 236.0781
825.7070, 120.6582
826.8460, 94.20508
827.9840, 73.28320
829.1220, 96.46484
830.2590, 149.8770
831.3970, 120.3242
832.5340, 156.2266
833.6710, 24.25977
834.8080, 112.6523
835.9450, 169.5312
837.0820, 117.3770
838.2190, 327.1953
839.3550, 22.01367
840.4910, 61.27539
841.6270, 231.3906
842.7630, 42.97266
843.8990, 104.6016
845.0350, 167.1484
846.1700, 89.66406
847.3060, 201.1504
848.4410, 210.3887
849.5760, 373.0742
850.7100, 391.9922
851.8450, 193.8457
852.9800, 97.66016
854.1140, 346.4453
855.2480, 36.20898
856.3820, 230.9434
857.5160, 93.65625
858.6500, 27.66211
859.7830, 209.9746
860.9170, 125.5918
862.0500, 10.81250
863.1830, 310.7969
864.3160, 114.4199
865.4480, 156.0352
866.5810, 351.6523
867.7130, 282.2578
868.8460, 436.8496
869.9780, 274.4785
871.1100, 186.0859
872.2410, 91.67773
873.3730, 157.2832
874.5050, 75.88867
875.6360, 399.4805
876.7670, 239.0645
877.8980, 424.6309
879.0290, 298.1895
880.1590, 517.7578
881.2900, 435.3594
882.4200, 156.9434
883.5500, 401.5078
884.6800, 372.0625
885.8100, 598.6035
886.9400, 544.1777
888.0690, 290.7852
889.1990, 580.3809
890.3280, 369.9824
891.4570, 601.5645
892.5860, 744.1387
893.7140, 724.7656
894.8430, 924.3789
895.9710, 919.0391
897.1000, 810.6816
898.2280, 987.3047
899.3560, 967.9160
900.4830, 1188.531
901.6110, 1138.156
902.7380, 977.7637
903.8660, 1041.354
904.9930, 1142.930
906.1200, 1181.492
907.2460, 1229.096
908.3730, 1497.617
909.5000, 1501.074
910.6260, 1625.543
911.7520, 1615.088
912.8780, 1643.615
914.0040, 1938.131
915.1290, 2089.875
916.2550, 2327.365
917.3800, 2530.988
918.5050, 2717.244
919.6300, 3038.338
920.7550, 3497.445
921.8800, 3715.221
923.0040, 4036.141
924.1290, 4457.537
925.2530, 4572.920
926.3770, 4542.285
927.5010, 4640.516
928.6250, 4537.564
929.7480, 4231.936
930.8720, 3770.389
931.9950, 3374.969
933.1180, 3042.873
934.2410, 2776.688
935.3640, 2605.188
936.4860, 2437.031
937.6090, 2337.602
938.7310, 2345.320
939.8530, 2311.965
940.9750, 2362.492
942.0970, 2504.670
943.2180, 2407.492
944.3400, 2445.502
945.4610, 2127.383
946.5820, 2223.184
947.7030, 2179.650
948.8240, 1759.434
949.9450, 1767.592
951.0650, 1930.443
952.1860, 1518.844
953.3060, 1647.670
954.4260, 1584.047
955.5460, 1383.740
956.6650, 1614.490
957.7850, 1347.916
958.9040, 1244.938
960.0230, 1251.066
961.1420, 1382.707
962.2610, 1249.238
963.3800, 1280.129
964.4990, 977.6230
965.6170, 1030.797
966.7350, 1168.863
967.8530, 1109.713
968.9710, 1212.891
970.0890, 1426.539
971.2070, 1138.459
972.3240, 1057.170
973.4410, 1258.555
974.5580, 1265.123
975.6750, 1287.271
976.7920, 1226.475
977.9090, 1309.865
979.0250, 1199.549
980.1410, 1365.504
981.2580, 1353.137
982.3740, 1224.242
983.4890, 1149.354
984.6050, 1052.301
985.7200, 1076.582
986.8360, 1376.229
987.9510, 1332.947
989.0660, 1512.322
990.1810, 1847.809
991.2950, 1634.119
992.4100, 1405.869
993.5240, 1660.992
994.6390, 1731.256
995.7530, 1831.178
996.8660, 2032.135
997.9800, 1930.539
999.0940, 2132.453
1000.207, 2183.551
1001.320, 2281.963
1002.433, 2447.496
1003.546, 2623.684
1004.659, 2851.719
1005.772, 3106.621
1006.884, 3401.000
1007.996, 3712.865
1009.108, 4044.670
1010.220, 4439.180
1011.332, 4701.617
1012.444, 5126.135
1013.555, 5471.621
1014.666, 5982.752
1015.777, 6638.543
1016.888, 6961.811
1017.999, 7832.598
1019.110, 8378.621
1020.220, 9513.818
1021.331, 9900.727
1022.441, 10524.55
1023.551, 11457.58
1024.661, 11352.21
1025.770, 11281.72
1026.880, 11077.50
1027.989, 10324.11
1029.098, 9272.650
1030.207, 8583.109
1031.316, 7418.566
1032.425, 6533.914
1033.533, 5602.840
1034.642, 4980.875
1035.750, 4538.873
1036.858, 4671.324
1037.966, 4495.193
1039.073, 4717.090
1040.181, 4975.986
1041.288, 5203.424
1042.396, 5226.463
1043.503, 5834.445
1044.610, 6450.578
1045.716, 7207.576
1046.823, 7980.662
1047.929, 8590.664
1049.036, 9026.875
1050.142, 9702.939
1051.248, 10052.05
1052.353, 10618.07
1053.459, 10498.63
1054.564, 10010.20
1055.670, 9880.953
1056.775, 9731.373
1057.880, 9443.977
1058.985, 9307.215
1060.089, 8816.994
1061.194, 8910.078
1062.298, 8809.758
1063.402, 8599.859
1064.506, 8080.121
1065.610, 7317.977
1066.713, 6752.104
1067.817, 5649.760
1068.920, 5185.727
1070.023, 4490.291
1071.126, 3871.793
1072.229, 3266.293
1073.332, 2796.912
1074.435, 2422.213
1075.537, 2231.574
1076.639, 1859.062
1077.741, 1901.342
1078.843, 1711.795
1079.945, 1648.023
1081.046, 1617.791
1082.148, 1467.311
1083.249, 1319.742
1084.350, 1372.984
1085.451, 1303.508
1086.551, 1237.021
1087.652, 1071.559
1088.752, 1077.090
1089.853, 680.8008
1090.953, 709.4180
1092.053, 592.9492
1093.152, 844.4707
1094.252, 978.2969
1095.351, 905.8105
1096.451, 1022.873
1097.550, 757.4844
1098.649, 859.0820
1099.748, 509.7871
1100.846, 173.4570
1101.945, 713.5859
1103.043, 739.7129
1104.141, 669.9941
1105.239, 496.7539
1106.337, 392.3984
1107.434, 719.0469
1108.532, 566.7109
1109.629, 524.3613
1110.726, 349.0215
1111.823, 357.6758
1112.920, 432.3184
1114.017, 481.9551
1115.113, 199.5801
1116.210, 255.2578
1117.306, 311.0293
1118.402, 423.8965
1119.498, 504.6348
1120.593, 595.6055
1121.689, 716.4434
1122.784, 631.2754
1123.879, 725.6836
1124.974, 436.4941
1126.069, 273.3047
1127.164, 467.1211
1128.259, 239.9102
1129.353, 368.6953
1130.447, 495.0137
1131.541, 254.7773
1132.635, 193.5273
1133.729, 110.2656
1134.822, 471.9922
1135.916, 232.7031
1137.009, 324.4023
1138.102, 29.08984
1139.195, 26.76172
1140.288, 113.4180
1141.380, 130.0625
1142.473, 172.6914
1143.565, 132.4258
1144.657, 64.97070
1145.749, 74.41992
1146.841, 73.07227
1147.932, 214.5508
1149.024, 78.01367
1150.115, 23.46094
1151.206, 135.1133
1152.297, 54.22461
1153.388, 74.54297
1154.479, 17.15625
1155.569, 126.1133
1156.659, 24.63281
1157.750, 251.4160
1158.839, 6.355469
1159.929, 230.3203
1161.019, 280.5684
1162.108, 204.4414
1163.198, 1.300781
1164.287, 74.86523
1165.376, 76.09961
1166.465, 47.60352
1167.553, 250.2812
1168.642, 77.94727
1169.730, 7.406250
1170.818, 182.7930
1171.906, 215.6973
1172.994, 40.17188
1174.082, 54.62500
1175.170, 18.05859
1176.257, 50.47070
1177.344, 30.42773
1178.431, 50.22461
1179.518, 9.570313
1180.605, 36.89062
1181.691, 25.18945
1182.778, 47.46484
1183.864, 161.7207
1184.950, 156.9570
1186.036, 115.1758
1187.122, 270.3789
1188.207, 151.5625
1189.292, 288.7305
1190.378, 150.8789
1191.463, 36.00781
1192.548, 134.1152
1193.632, 96.79688
1194.717, 50.79297
1195.801, 112.1523
1196.886, 48.08203
1197.970, 55.01562
1199.054, 88.82617
1200.137, 100.3555
1201.221, 299.3750
1202.305, 230.0938
1203.388, 84.20703
1204.471, 136.4121
1205.554, 117.0117
1206.637, 313.5918
1207.719, 45.84961
1208.802, 175.3496
1209.884, 42.02148
1210.966, 151.3828
1212.048, 309.7246
1213.130, 21.04883
1214.212, 122.6543
1215.293, 211.5391
1216.374, 620.7148
1217.456, 290.8730
1218.536, 246.0117
1219.617, 170.1328
1220.698, 47.76562
1221.778, 284.2695
1222.859, 387.2891
1223.939, 141.2891
1225.019, 360.2715
1226.099, 69.76562
1227.178, 203.1250
1228.258, 230.9941
1229.337, 198.8477
1230.417, 228.6816
1231.496, 109.5000
1232.574, 83.70508
1233.653, 70.00391
1234.732, 192.6875
1235.810, 413.3574
1236.888, 366.0117
1237.966, 449.9531
1239.044, 449.4062
1240.122, 437.8594
1241.199, 356.4414
1242.277, 317.0039
1243.354, 222.5508
1244.431, 323.0742
1245.508, 542.5820
1246.585, 524.0742
1247.661, 241.5430
1248.738, 442.7422
1249.814, 382.4375
1250.890, 419.8594
1251.966, 370.2617
1253.042, 78.64453
1254.117, 484.0625
1255.193, 353.4570
1256.268, 215.8320
1257.343, 438.1914
1258.418, 571.5312
1259.493, 89.85156
1260.567, 256.1484
1261.642, 352.4258
1262.716, 458.6875
1263.790, 247.8125
1264.864, 512.0312
1265.938, 418.2305
1267.011, 699.4102
1268.085, 508.0938
1269.158, 597.7422
1270.231, 360.7227
1271.304, 799.7500
1272.377, 192.8320
1273.450, 525.8203
1274.522, 562.8203
1275.594, 398.1602
1276.666, 563.8281
1277.738, 511.8164
1278.810, 473.4453
1279.882, 655.8164
1280.953, 682.0000
1282.025, 407.4414
1283.096, 509.9453
1284.167, 590.2344
1285.238, 676.8945
1286.308, 477.6406
1287.379, 556.1016
1288.449, 616.7070
1289.519, 454.3711
1290.589, 551.0781
1291.659, 454.7734
1292.729, 634.5547
1293.798, 664.7422
1294.868, 682.8008
1295.937, 715.8828
1297.006, 679.4961
1298.075, 457.6641
1299.143, 433.7969
1300.212, 745.9102
1301.280, 417.4609
1302.348, 648.4023
1303.416, 760.3828
1304.484, 595.1914
1305.552, 545.1211
1306.620, 748.9453
1307.687, 647.8359
1308.754, 836.5078
1309.821, 928.3125
1310.888, 748.0469
1311.955, 734.8672
1313.021, 908.1406
1314.088, 662.6250
1315.154, 654.9453
1316.220, 580.3164
1317.286, 772.4922
1318.352, 630.8477
1319.417, 705.9961
1320.483, 931.6484
1321.548, 865.8203
1322.613, 1035.445
1323.678, 972.9102
1324.743, 1022.395
1325.807, 831.5234
1326.872, 1002.812
1327.936, 937.6016
1329.000, 768.3164
1330.064, 793.0977
1331.128, 913.3516
1332.191, 910.0508
1333.255, 668.9922
1334.318, 977.8438
1335.381, 1038.133
1336.444, 909.5586
1337.507, 651.8320
1338.569, 790.9492
1339.632, 779.9023
1340.694, 785.1055
1341.756, 662.3828
1342.818, 844.1914
1343.880, 724.3672
1344.941, 700.5469
1346.003, 793.7227
1347.064, 435.8984
1348.125, 895.8828
1349.186, 902.3281
1350.247, 784.4883
1351.308, 624.6484
1352.368, 645.1367
1353.428, 516.7422
1354.489, 741.3633
1355.549, 407.4609
1356.608, 628.4062
1357.668, 595.4844
1358.727, 590.0156
1359.787, 661.7148
1360.846, 485.4102
1361.905, 861.9492
1362.964, 428.2500
1364.022, 659.4062
1365.081, 331.9453
1366.139, 575.4766
1367.197, 556.0234
1368.255, 618.7969
1369.313, 714.9727
1370.371, 530.7500
1371.428, 732.9141
1372.486, 771.1719
1373.543, 590.3359
1374.600, 707.2305
1375.657, 448.8125
1376.713, 468.9805
1377.770, 421.1484
1378.826, 473.3906
1379.882, 442.5195
1380.938, 275.7617
1381.994, 498.8945
1383.050, 348.0312
1384.106, 441.1523
1385.161, 692.3047
1386.216, 309.8398
1387.271, 522.7617
1388.326, 543.8828
1389.381, 524.0078
1390.435, 455.1094
1391.490, 491.2109
1392.544, 250.3047
1393.598, 261.3750
1394.652, 537.6094
1395.705, 287.6797
1396.759, 335.7266
1397.812, 197.7148
1398.866, 378.6992
1399.919, 264.2617
1400.972, 324.8008
1402.024, 594.4180
1403.077, 345.8594
1404.129, 379.2461
1405.181, 347.5820
1406.233, 264.8359
1407.285, 403.0117
1408.337, 478.1367
1409.389, 398.1250
1410.440, 323.8789
1411.491, 182.5352
1412.542, 377.0703
1413.593, 347.4727
1414.644, 129.8320
1415.695, 107.2852
1416.745, 519.3281
1417.795, 243.2891
1418.845, 455.2734
1419.895, 229.3164
1420.945, 232.3555
1421.995, 133.4531
1423.044, 442.5977
1424.093, 382.7383
1425.142, 481.8828
1426.191, 116.0352
1427.240, 211.1875
1428.289, 158.3477
1429.337, 424.4961
1430.385, 203.6406
1431.433, 266.7773
1432.481, 284.9062
1433.529, 182.1328
1434.577, 151.3828
1435.624, 388.6836
1436.672, 207.0625
1437.719, 395.4727
1438.766, 145.9219
1439.812, 58.39453
1440.859, 53.01953
1441.905, 327.6367
1442.952, 270.3203
1443.998, 191.0625
1445.044, 192.8164
1446.090, 228.6016
1447.135, 92.42578
1448.181, 340.2539
1449.226, 18.83203
1450.271, 112.0898
1451.316, 305.0156
1452.361, 85.06250
1453.405, 214.1055
1454.450, 11.16406
1455.494, 12.02344
1456.538, 362.2930
1457.582, 8.375000
1458.626, 142.4688
1459.670, 239.5664
1460.713, 123.6641
1461.757, 183.6914
1462.800, 147.6445
1463.843, 55.39844
1464.886, 354.5703
1465.928, 303.5586
1466.971, 170.5625
1468.013, 66.58203
1469.055, 289.6211
1470.097, 289.6836
1471.139, 265.7656
1472.181, 288.8594
1473.222, 317.4102
1474.263, 66.15234
1475.305, 291.3750
1476.346, 292.6680
1477.386, 29.03516
1478.427, 54.48438
1479.468, 165.0039
1480.508, 250.6133
1481.548, 20.26562
1482.588, 398.9648
1483.628, 81.71484
1484.668, 211.5117
1485.707, 401.3594
1486.747, 218.2656
1487.786, 4.230469
1488.825, 234.2500
1489.864, 94.32812
1490.902, 97.86328
1491.941, 96.36719
1492.979, 65.57812
1494.017, 76.83984
1495.055, 178.8203
1496.093, 280.3164
1497.131, 179.1523
1498.168, 307.0391
1499.206, 65.88672
1500.243, 108.5469
1501.280, 340.7656
1502.317, 10.21875
1503.354, 179.9141
1504.390, 212.1641
1505.426, 177.6992
1506.463, 249.6133
1507.499, 305.9844
1508.535, 389.9883
1509.570, 63.90234
1510.606, 132.4648
1511.641, 149.4844
1512.676, 262.1055
1513.711, 456.2891
1514.746, 437.4219
1515.781, 413.4961
1516.816, 468.6914
1517.850, 271.2305
1518.884, 214.1094
1519.918, 293.8477
1520.952, 406.0195
1521.986, 469.8555
1523.019, 671.4922
1524.053, 28.41016
1525.086, 211.8906
1526.119, 1.351563
1527.152, 375.0156
1528.185, 357.5312
1529.217, 250.2031
1530.250, 169.8164
1531.282, 280.9219
1532.314, 256.2852
1533.346, 422.6602
1534.377, 363.5781
1535.409, 318.0234
1536.440, 270.2344
1537.472, 191.6797
1538.503, 109.9531
1539.534, 0.8007810
1540.564, 0.0000000E+00
##END=



