##NAMES=Actinolite
##RRUFFID=R060041
##IDEAL CHEMISTRY=Ca_2_(Mg_4.5-2.5_Fe^2+^_0.5-2.5_)Si_8_O_22_(OH)_2_
##LOCALITY=Prince of Wales Island, Alaska, USA
##OWNER=RRUFF
##SOURCE=University of Arizona Mineral Museum
##DESCRIPTION=Green acicular crystals forming parallel groups in cylindrical or bladed forms
##STATUS=The identification of this mineral has been confirmed by X-ray diffraction and chemical analysis
##URL=rruff.info/R060041
##MEASURED CHEMISTRY=(Ca_0.97_Na_0.03_)_2_(Mg_0.65_Fe^2+^_0.29_Fe^3+^_0.04_Al_0.01_Mn_0.01_)_5_(Si_0.98_Al_0.02_)_8_O_22_(OH)_2_
95.94800, 0.0000000E+00
97.18200, 73.55469
98.41600, 9.911133
99.64900, 237.0293
100.8830, 251.5732
102.1160, 368.8525
103.3490, 1088.571
104.5820, 1822.672
105.8150, 3312.913
107.0470, 4911.365
108.2800, 6570.038
109.5120, 7486.465
110.7440, 7066.195
111.9760, 7691.834
113.2080, 8742.043
114.4400, 9629.297
115.6710, 10259.02
116.9030, 9497.657
118.1340, 8352.352
119.3650, 6699.994
120.5960, 4851.328
121.8270, 3743.137
123.0580, 2865.240
124.2880, 1914.503
125.5190, 882.8105
126.7490, 518.0674
127.9790, 252.1934
129.2090, 243.1113
130.4390, 231.7598
131.6680, 116.0811
132.8980, 157.9775
134.1270, 59.47949
135.3560, 21.61328
136.5850, 174.6514
137.8140, 472.5039
139.0430, 716.9902
140.2710, 897.9561
141.5000, 906.3018
142.7280, 1060.708
143.9560, 1360.179
145.1840, 1640.720
146.4120, 1852.341
147.6390, 2147.054
148.8670, 2192.877
150.0940, 2191.826
151.3210, 2310.909
152.5490, 2219.141
153.7750, 1898.523
155.0020, 1603.062
156.2290, 1402.754
157.4550, 969.5898
158.6810, 971.5645
159.9080, 1103.670
161.1340, 1321.902
162.3590, 2095.254
163.5850, 2863.720
164.8110, 4121.293
166.0360, 5257.971
167.2610, 6113.748
168.4860, 6889.617
169.7110, 7288.521
170.9360, 7911.312
172.1610, 8268.045
173.3850, 8227.761
174.6100, 7843.787
175.8340, 7087.653
177.0580, 6038.220
178.2820, 4863.701
179.5050, 3931.480
180.7290, 2929.527
181.9520, 2122.104
183.1760, 1568.875
184.3990, 1303.401
185.6220, 1185.861
186.8450, 1224.426
188.0670, 1194.070
189.2900, 1371.781
190.5120, 1381.598
191.7340, 1584.516
192.9560, 1732.534
194.1780, 1783.649
195.4000, 1844.858
196.6220, 1927.182
197.8430, 2030.753
199.0640, 2301.616
200.2860, 2347.717
201.5070, 2803.041
202.7270, 2871.593
203.9480, 2760.296
205.1690, 2311.217
206.3890, 2481.328
207.6090, 2911.716
208.8290, 3435.233
210.0490, 4104.887
211.2690, 4620.682
212.4890, 5137.628
213.7080, 5674.668
214.9280, 6025.744
216.1470, 6342.836
217.3660, 6278.941
218.5850, 6167.058
219.8030, 6058.192
221.0220, 5573.343
222.2400, 5045.507
223.4590, 4608.681
224.6770, 3907.863
225.8950, 3428.057
227.1120, 2920.259
228.3300, 2384.467
229.5480, 2120.684
230.7650, 1698.907
231.9820, 1511.137
233.1990, 1320.370
234.4160, 1096.608
235.6330, 907.8486
236.8490, 729.0918
238.0660, 569.3379
239.2820, 618.5859
240.4980, 410.8330
241.7140, 448.0811
242.9300, 253.5537
244.1460, 408.5566
245.3610, 251.8838
246.5770, 69.30273
247.7920, 295.2207
249.0070, 95.55176
250.2220, 117.2344
251.4370, 81.22559
252.6510, 64.53027
253.8660, 8.928711
255.0800, 60.40430
256.2940, 105.5625
257.5080, 51.56836
258.7220, 188.5723
259.9360, 425.8613
261.1490, 188.1650
262.3630, 182.4287
263.5760, 156.9355
264.7890, 201.3594
266.0020, 95.72070
267.2150, 70.00391
268.4270, 149.2129
269.6400, 179.3701
270.8520, 139.4863
272.0640, 118.5596
273.2760, 114.4092
274.4880, 26.44434
275.7000, 156.5391
276.9120, 268.6924
278.1230, 260.9004
279.3340, 347.6875
280.5450, 488.1914
281.7560, 522.5449
282.9670, 496.9414
284.1780, 556.3740
285.3880, 649.8350
286.5980, 764.3213
287.8090, 869.8262
289.0190, 703.3525
290.2290, 868.8984
291.4380, 706.4639
292.6480, 762.0488
293.8570, 703.6514
295.0670, 603.3545
296.2760, 492.6504
297.4850, 628.7314
298.6930, 398.5049
299.9020, 421.0967
301.1110, 249.8398
302.3190, 399.0996
303.5270, 335.3535
304.7350, 289.4541
305.9430, 281.7188
307.1510, 246.1973
308.3580, 141.2490
309.5660, 183.3008
310.7730, 266.1953
311.9800, 393.5479
313.1870, 147.0449
314.3940, 378.4004
315.6010, 346.3828
316.8070, 643.3018
318.0130, 509.9941
319.2200, 596.9756
320.4260, 703.8350
321.6310, 916.2480
322.8370, 783.1514
324.0430, 966.3701
325.2480, 1016.878
326.4540, 1273.231
327.6590, 1337.070
328.8640, 1376.528
330.0680, 1360.873
331.2730, 1613.242
332.4780, 1658.550
333.6820, 1809.861
334.8860, 1936.174
336.0900, 1937.489
337.2940, 1972.807
338.4980, 2171.123
339.7010, 2184.440
340.9050, 2429.855
342.1080, 2425.948
343.3110, 2599.262
344.5140, 2788.571
345.7170, 2893.875
346.9200, 3058.174
348.1220, 3288.465
349.3240, 3479.746
350.5270, 3761.020
351.7290, 4161.282
352.9310, 4584.533
354.1320, 4999.771
355.3340, 5338.996
356.5350, 5905.207
357.7370, 6270.404
358.9380, 6464.583
360.1390, 6816.750
361.3400, 6867.900
362.5400, 6938.033
363.7410, 6587.152
364.9410, 6371.252
366.1410, 6137.338
367.3410, 5727.405
368.5410, 5300.457
369.7410, 5029.490
370.9400, 4937.506
372.1400, 4760.504
373.3390, 4820.406
374.5380, 4964.449
375.7370, 5079.396
376.9360, 5204.326
378.1350, 5430.236
379.3330, 5723.129
380.5310, 6095.004
381.7300, 6322.861
382.9280, 6391.697
384.1260, 6241.518
385.3230, 6239.529
386.5210, 6063.994
387.7180, 5869.896
388.9160, 5584.697
390.1130, 5217.504
391.3100, 4780.311
392.5060, 4419.115
393.7030, 4097.117
394.9000, 3732.712
396.0960, 3543.500
397.2920, 3392.418
398.4880, 3239.070
399.6840, 2917.095
400.8800, 2972.051
402.0750, 2811.375
403.2710, 2875.097
404.4660, 2749.805
405.6610, 2695.498
406.8560, 2478.442
408.0510, 2314.612
409.2450, 2214.500
410.4400, 2073.559
411.6340, 1776.759
412.8280, 1634.104
414.0220, 1482.881
415.2160, 1297.605
416.4100, 972.3281
417.6030, 940.8633
418.7970, 726.3799
419.9900, 675.8779
421.1830, 479.3594
422.3760, 574.8223
423.5690, 476.2812
424.7610, 471.7256
425.9540, 427.1523
427.1460, 430.5566
428.3380, 296.9434
429.5300, 393.3086
430.7220, 368.6543
431.9140, 231.9775
433.1050, 316.2812
434.2970, 261.5635
435.4880, 213.0645
436.6790, 169.0615
437.8700, 115.2803
439.0610, 21.47363
440.2510, 56.61133
441.4420, 51.07422
442.6320, 95.35449
443.8220, 33.49414
445.0120, 41.17578
446.2020, 40.52441
447.3910, 67.42773
448.5810, 62.25684
449.7700, 72.55762
450.9600, 49.46289
452.1490, 73.56152
453.3370, 14.46484
454.5260, 37.43652
455.7150, 71.35449
456.9030, 5.108398
458.0910, 14.77148
459.2800, 124.4004
460.4670, 104.7510
461.6550, 158.0068
462.8430, 3.869141
464.0300, 65.95898
465.2180, 93.85840
466.4050, 123.4971
467.5920, 56.93457
468.7790, 28.30664
469.9650, 81.51660
471.1520, 89.55273
472.3380, 49.84277
473.5250, 89.83301
474.7110, 517.7891
475.8970, 322.7197
477.0820, 286.6250
478.2680, 416.5068
479.4540, 259.3633
480.6390, 330.1934
481.8240, 331.9980
483.0090, 183.7773
484.1940, 106.5303
485.3780, 409.2510
486.5630, 283.9463
487.7470, 304.6143
488.9320, 261.2578
490.1160, 406.8750
491.3000, 293.4678
492.4830, 302.0332
493.6670, 400.5732
494.8500, 361.0898
496.0340, 325.5801
497.2170, 622.0449
498.4000, 612.4854
499.5820, 633.8994
500.7650, 620.2871
501.9480, 765.6494
503.1300, 708.9873
504.3120, 776.3008
505.4940, 748.5869
506.6760, 781.8496
507.8580, 797.7070
509.0390, 864.2998
510.2210, 799.4863
511.4020, 870.6562
512.5830, 827.8027
513.7640, 976.9395
514.9450, 810.0537
516.1250, 908.1582
517.3060, 853.2383
518.4860, 948.2949
519.6660, 923.3691
520.8460, 989.4180
522.0260, 1044.450
523.2060, 1124.459
524.3850, 1201.470
525.5650, 1223.509
526.7440, 1223.546
527.9230, 1058.606
529.1020, 1009.642
530.2810, 882.6543
531.4590, 1006.670
532.6380, 923.7041
533.8160, 990.7598
534.9940, 886.8281
536.1720, 742.8721
537.3500, 1043.891
538.5270, 787.8828
539.7050, 774.8613
540.8820, 885.8252
542.0590, 822.7764
543.2360, 768.7256
544.4130, 748.6611
545.5900, 643.5693
546.7660, 631.3828
547.9430, 584.0586
549.1190, 598.1973
550.2950, 548.0869
551.4710, 592.9912
552.6470, 649.9463
553.8220, 602.8896
554.9980, 721.8389
556.1730, 776.8418
557.3480, 735.8857
558.5230, 782.9355
559.6980, 753.9590
560.8730, 633.9551
562.0470, 736.9238
563.2220, 680.8662
564.3960, 801.7930
565.5700, 703.7002
566.7440, 796.5781
567.9170, 630.4277
569.0910, 793.2500
570.2640, 659.0449
571.4380, 823.8125
572.6110, 536.5508
573.7840, 509.2627
574.9570, 564.9697
576.1290, 593.6504
577.3020, 472.3037
578.4740, 419.9297
579.6460, 520.4463
580.8180, 525.3574
581.9900, 376.4727
583.1620, 300.8818
584.3330, 311.4619
585.5040, 109.8740
586.6760, 62.75488
587.8470, 58.37793
589.0180, 35.60156
590.1880, 71.39551
591.3590, 62.95605
592.5290, 54.92188
593.7000, 55.60547
594.8700, 41.40820
596.0400, 25.54688
597.2090, 2.978516
598.3790, 5.294922
599.5490, 30.58008
600.7180, 6.344727
601.8870, 9.526367
603.0560, 82.28711
604.2250, 26.17676
605.3940, 10.46582
606.5620, 162.1797
607.7300, 79.56250
608.8990, 128.5684
610.0670, 145.5781
611.2350, 218.0254
612.4020, 59.71777
613.5700, 210.4131
614.7370, 184.0713
615.9050, 293.7744
617.0720, 408.4619
618.2390, 361.1309
619.4060, 396.7832
620.5720, 367.4170
621.7390, 508.0342
622.9050, 450.6357
624.0710, 675.1211
625.2370, 584.9092
626.4030, 711.4590
627.5690, 806.1797
628.7340, 1030.504
629.9000, 1010.003
631.0650, 1181.483
632.2300, 1327.062
633.3950, 1400.565
634.5600, 1777.302
635.7240, 1745.963
636.8890, 2031.410
638.0530, 2331.901
639.2170, 2554.266
640.3810, 2713.612
641.5450, 3175.189
642.7080, 3185.772
643.8720, 3619.428
645.0350, 4128.719
646.1980, 4352.133
647.3610, 4654.840
648.5240, 5039.070
649.6870, 5543.745
650.8490, 6223.412
652.0120, 6797.402
653.1740, 7854.160
654.3360, 8893.002
655.4980, 10447.79
656.6600, 12081.45
657.8210, 14758.73
658.9830, 17757.15
660.1440, 21612.22
661.3050, 25917.21
662.4660, 30062.92
663.6270, 34816.37
664.7870, 39280.79
665.9480, 40389.91
667.1080, 42058.59
668.2680, 41727.04
669.4280, 39561.39
670.5880, 36462.12
671.7480, 32269.39
672.9070, 27667.34
674.0670, 22759.20
675.2260, 18644.60
676.3850, 15244.52
677.5440, 12348.47
678.7030, 10141.25
679.8610, 8462.178
681.0200, 7120.166
682.1780, 6100.555
683.3360, 5167.355
684.4940, 4590.006
685.6520, 4133.281
686.8090, 3698.699
687.9670, 3299.201
689.1240, 2953.951
690.2810, 2637.771
691.4380, 2417.190
692.5950, 2154.562
693.7520, 2084.254
694.9080, 1815.378
696.0650, 1791.572
697.2210, 1646.144
698.3770, 1325.777
699.5330, 1511.142
700.6880, 1422.793
701.8440, 1152.111
702.9990, 1068.145
704.1550, 947.6621
705.3100, 907.9092
706.4650, 858.1230
707.6190, 949.3340
708.7740, 805.5107
709.9290, 769.6641
711.0830, 723.7969
712.2370, 585.2754
713.3910, 1020.491
714.5450, 769.8926
715.6980, 784.1211
716.8520, 650.1377
718.0050, 557.1299
719.1580, 603.1006
720.3110, 555.0664
721.4640, 888.0371
722.6170, 951.0186
723.7700, 850.0215
724.9220, 894.4932
726.0740, 821.6699
727.2260, 1005.214
728.3780, 923.0840
729.5300, 999.4023
730.6810, 1232.729
731.8330, 1429.045
732.9840, 1240.361
734.1350, 1429.552
735.2860, 1588.615
736.4370, 1817.429
737.5880, 1930.086
738.7380, 2008.639
739.8880, 2018.813
741.0390, 2093.787
742.1890, 2153.607
743.3380, 2228.137
744.4880, 2278.519
745.6380, 2040.637
746.7870, 1913.495
747.9360, 1948.602
749.0850, 1621.713
750.2340, 1438.846
751.3830, 1288.709
752.5310, 1080.817
753.6800, 833.9111
754.8280, 773.9863
755.9760, 823.0410
757.1240, 651.0781
758.2720, 866.0967
759.4190, 508.0957
760.5670, 377.0762
761.7140, 423.0381
762.8610, 339.9814
764.0080, 269.9092
765.1550, 336.8184
766.3020, 307.7109
767.4480, 359.5840
768.5950, 245.4395
769.7410, 157.2764
770.8870, 171.0947
772.0330, 110.8936
773.1780, 124.6133
774.3240, 171.4336
775.4690, 156.1748
776.6140, 192.8975
777.7590, 190.6045
778.9040, 123.2939
780.0490, 116.9648
781.1940, 95.61523
782.3380, 178.2471
783.4820, 144.8623
784.6260, 70.45801
785.7700, 193.0352
786.9140, 69.59473
788.0580, 0.1347660
789.2010, 16.64355
790.3450, 33.87109
791.4880, 27.56543
792.6310, 35.02148
793.7730, 45.34277
794.9160, 133.6855
796.0590, 141.9873
797.2010, 210.2334
798.3430, 8.560547
799.4850, 25.61035
800.6270, 80.24023
801.7690, 176.1631
802.9100, 60.20801
804.0520, 165.3135
805.1930, 47.46484
806.3340, 66.22266
807.4750, 88.03613
808.6160, 145.3691
809.7560, 156.8076
810.8970, 124.3555
812.0370, 28.00391
813.1770, 135.3428
814.3170, 120.6680
815.4570, 156.9785
816.5960, 17.72559
817.7360, 93.53613
818.8750, 7.782227
820.0140, 126.0068
821.1530, 157.2168
822.2920, 10.41504
823.4310, 14.40723
824.5690, 33.74121
825.7070, 11.87109
826.8460, 83.98438
827.9840, 192.9160
829.1220, 209.0586
830.2590, 126.0225
831.3970, 143.0273
832.5340, 129.1719
833.6710, 8.406250
834.8080, 81.33691
835.9450, 190.0664
837.0820, 62.78418
838.2190, 156.4873
839.3550, 36.81934
840.4910, 13.16211
841.6270, 159.4697
842.7630, 142.0918
843.8990, 144.7041
845.0350, 154.3057
846.1700, 203.8975
847.3060, 158.4785
848.4410, 33.05273
849.5760, 80.38867
850.7100, 38.11621
851.8450, 71.60938
852.9800, 136.0918
854.1140, 153.5645
855.2480, 165.0264
856.3820, 110.4834
857.5160, 175.9297
858.6500, 276.3672
859.7830, 323.7969
860.9170, 147.2188
862.0500, 76.63281
863.1830, 132.0430
864.3160, 189.4668
865.4480, 145.8906
866.5810, 207.6758
867.7130, 102.7188
868.8460, 236.1270
869.9780, 250.5273
871.1100, 214.9258
872.2410, 274.3164
873.3730, 278.7070
874.5050, 376.0957
875.6360, 232.4902
876.7670, 443.8789
877.8980, 268.2656
879.0290, 275.6445
880.1590, 392.0176
881.2900, 449.3926
882.4200, 439.3086
883.5500, 509.1191
884.6800, 415.4688
885.8100, 399.8125
886.9400, 386.1621
888.0690, 468.5059
889.1990, 409.8398
890.3280, 433.1680
891.4570, 434.4863
892.5860, 407.7168
893.7140, 471.1035
894.8430, 416.4023
895.9710, 352.6934
897.1000, 430.9883
898.2280, 454.2773
899.3560, 369.5762
900.4830, 629.9023
901.6110, 614.2578
902.7380, 499.6055
903.8660, 389.9570
904.9930, 587.3145
906.1200, 633.5508
907.2460, 634.8418
908.3730, 740.8984
909.5000, 959.0078
910.6260, 610.3535
911.7520, 853.6641
912.8780, 971.0820
914.0040, 727.4980
915.1290, 1152.689
916.2550, 1082.854
917.3800, 1301.938
918.5050, 1461.387
919.6300, 1820.695
920.7550, 1980.691
921.8800, 2158.141
923.0040, 2332.127
924.1290, 2464.109
925.2530, 2661.754
926.3770, 2677.604
927.5010, 2796.354
928.6250, 2760.148
929.7480, 2648.043
930.8720, 2456.354
931.9950, 1991.496
933.1180, 2063.980
934.2410, 1693.527
935.3640, 1481.346
936.4860, 1462.439
937.6090, 1540.523
938.7310, 1582.898
939.8530, 1557.535
940.9750, 1565.182
942.0970, 1493.787
943.2180, 1436.490
944.3400, 1292.641
945.4610, 1097.098
946.5820, 1095.645
947.7030, 1108.637
948.8240, 940.0938
949.9450, 956.5020
951.0650, 812.0664
952.1860, 713.4648
953.3060, 802.7832
954.4260, 748.6855
955.5460, 563.1582
956.6650, 801.7637
957.7850, 649.7500
958.9040, 604.5703
960.0230, 587.7109
961.1420, 509.7480
962.2610, 496.0273
963.3800, 437.8730
964.4990, 438.5312
965.6170, 405.1113
966.7350, 391.1152
967.8530, 345.0312
968.9710, 446.5547
970.0890, 227.0000
971.2070, 500.6992
972.3240, 396.0938
973.4410, 429.8066
974.5580, 511.7852
975.6750, 342.2656
976.7920, 611.9980
977.9090, 410.7383
979.0250, 394.4863
980.1410, 493.2422
981.2580, 449.0098
982.3740, 522.7852
983.4890, 437.2051
984.6050, 536.8711
985.7200, 493.3379
986.8360, 761.9570
987.9510, 555.7793
989.0660, 455.6074
990.1810, 639.4453
991.2950, 501.2832
992.4100, 648.1367
993.5240, 580.9941
994.6390, 722.8613
995.7530, 581.7363
996.8660, 739.5059
997.9800, 876.3965
999.0940, 809.2988
1000.207, 796.2070
1001.320, 870.1191
1002.433, 906.0430
1003.546, 1029.975
1004.659, 986.9141
1005.772, 1274.861
1006.884, 1329.816
1007.996, 1432.777
1009.108, 1399.750
1010.220, 1665.727
1011.332, 1666.713
1012.444, 1689.707
1013.555, 1952.707
1014.666, 2254.926
1015.777, 2432.941
1016.888, 2590.963
1017.999, 2943.992
1019.110, 3576.186
1020.220, 3898.379
1021.331, 4645.432
1022.441, 4577.494
1023.551, 5147.562
1024.661, 5071.641
1025.770, 5396.723
1026.880, 5133.090
1027.989, 4880.473
1029.098, 4704.877
1030.207, 4210.492
1031.316, 3583.520
1032.425, 3208.691
1033.533, 2702.896
1034.642, 2603.746
1035.750, 2278.951
1036.858, 2319.750
1037.966, 2242.258
1039.073, 2432.422
1040.181, 2482.832
1041.288, 2480.166
1042.396, 2696.350
1043.503, 3029.318
1044.610, 3455.744
1045.716, 3843.943
1046.823, 4391.396
1047.929, 4872.723
1049.036, 5357.938
1050.142, 5809.875
1051.248, 6313.676
1052.353, 6630.287
1053.459, 6316.605
1054.564, 6377.232
1055.670, 6603.471
1056.775, 6545.143
1057.880, 6418.396
1058.985, 6636.656
1060.089, 6759.031
1061.194, 7326.586
1062.298, 7524.121
1063.402, 7429.195
1064.506, 7493.523
1065.610, 6986.113
1066.713, 6177.844
1067.817, 5332.547
1068.920, 4699.902
1070.023, 4113.314
1071.126, 3359.775
1072.229, 3028.414
1073.332, 2731.273
1074.435, 2204.814
1075.537, 2142.359
1076.639, 1786.719
1077.741, 1572.455
1078.843, 1411.588
1079.945, 1485.496
1081.046, 1368.209
1082.148, 1256.059
1083.249, 1219.771
1084.350, 1162.703
1085.451, 1094.801
1086.551, 1043.273
1087.652, 966.4785
1088.752, 903.3027
1089.853, 793.9355
1090.953, 685.6836
1092.053, 780.4199
1093.152, 727.1562
1094.252, 775.9824
1095.351, 764.1543
1096.451, 673.5508
1097.550, 661.3438
1098.649, 680.4531
1099.748, 709.2852
1100.846, 676.0527
1101.945, 632.3281
1103.043, 645.0039
1104.141, 584.8750
1105.239, 609.7422
1106.337, 578.7930
1107.434, 686.6699
1108.532, 621.5508
1109.629, 527.4316
1110.726, 407.4219
1111.823, 408.8301
1112.920, 391.1133
1114.017, 508.3789
1115.113, 464.7988
1116.210, 327.6660
1117.306, 479.5527
1118.402, 501.4355
1119.498, 672.3164
1120.593, 667.1973
1121.689, 699.0703
1122.784, 651.9414
1123.879, 621.2383
1124.974, 338.6758
1126.069, 488.5664
1127.164, 428.4238
1128.259, 315.4141
1129.353, 515.4961
1130.447, 397.4141
1131.541, 267.2559
1132.635, 212.0918
1133.729, 150.1230
1134.822, 311.7500
1135.916, 72.57227
1137.009, 208.3906
1138.102, 144.2012
1139.195, 333.0078
1140.288, 92.81055
1141.380, 186.6055
1142.473, 136.3965
1143.565, 310.1797
1144.657, 93.95703
1145.749, 23.26953
1146.841, 152.4844
1147.932, 121.2305
1149.024, 188.9727
1150.115, 36.71680
1151.206, 52.54688
1152.297, 127.1562
1153.388, 105.8496
1154.479, 193.5371
1155.569, 100.2168
1156.659, 85.36328
1157.750, 17.55859
1158.839, 16.21484
1159.929, 14.86133
1161.019, 20.10156
1162.108, 8.888672
1163.198, 43.29297
1164.287, 122.7285
1165.376, 116.2559
1166.465, 80.16406
1167.553, 34.43359
1168.642, 29.06641
1169.730, 119.2715
1170.818, 41.60156
1171.906, 72.08008
1172.994, 124.1855
1174.082, 144.5586
1175.170, 119.3945
1176.257, 153.6895
1177.344, 46.76367
1178.431, 100.1719
1179.518, 116.8203
1180.605, 29.19531
1181.691, 74.24805
1182.778, 18.64062
1183.864, 90.51758
1184.950, 19.38477
1186.036, 113.6191
1187.122, 21.91992
1188.207, 150.8906
1189.292, 157.6934
1190.378, 94.48242
1191.463, 17.73633
1192.548, 64.01367
1193.632, 152.2520
1194.717, 116.3848
1195.801, 67.00781
1196.886, 33.38086
1197.970, 44.19531
1199.054, 74.24609
1200.137, 123.2539
1201.221, 141.7402
1202.305, 89.21484
1203.388, 49.67773
1204.471, 195.1250
1205.554, 205.5625
1206.637, 53.01367
1207.719, 101.3594
1208.802, 63.28125
1209.884, 82.01953
1210.966, 192.3027
1212.048, 97.57812
1213.130, 138.8359
1214.212, 80.08398
1215.293, 43.31445
1216.374, 78.53125
1217.456, 185.7480
1218.536, 111.9551
1219.617, 35.85352
1220.698, 131.2891
1221.778, 140.4199
1222.859, 307.5352
1223.939, 116.6406
1225.019, 34.72852
1226.099, 23.80273
1227.178, 188.8574
1228.258, 62.91406
1229.337, 190.9570
1230.417, 67.98438
1231.496, 210.9941
1232.574, 19.99219
1233.653, 188.1660
1234.732, 389.1270
1235.810, 99.07422
1236.888, 378.0234
1237.966, 168.9648
1239.044, 230.8906
1240.122, 117.8027
1241.199, 31.69922
1242.277, 47.35352
1243.354, 51.89453
1244.431, 6.826172
1245.508, 176.6562
1246.585, 154.4727
1247.661, 300.2734
1248.738, 264.0625
1249.814, 299.9121
1250.890, 346.7832
1251.966, 305.3262
1253.042, 387.5625
1254.117, 289.5020
1255.193, 143.4062
1256.268, 189.1016
1257.343, 119.2949
1258.418, 97.01172
1259.493, 135.4922
1260.567, 156.1289
1261.642, 224.7539
1262.716, 429.3613
1263.790, 334.9707
1264.864, 385.5645
1265.938, 284.1465
1267.011, 291.7109
1268.085, 304.9766
1269.158, 423.8047
1270.231, 346.3262
1271.304, 280.8359
1272.377, 308.3301
1273.450, 235.8066
1274.522, 293.2695
1275.594, 550.5098
1276.666, 448.0566
1277.738, 470.4746
1278.810, 301.0566
1279.882, 461.2930
1280.953, 502.5176
1282.025, 249.8770
1283.096, 589.2148
1284.167, 445.5430
1285.238, 332.8516
1286.308, 340.1504
1287.379, 617.1543
1288.449, 440.1309
1289.519, 556.0801
1290.589, 316.8066
1291.659, 207.1641
1292.729, 552.6270
1293.798, 534.7383
1294.868, 470.5801
1295.937, 720.6738
1297.006, 358.1680
1298.075, 402.9473
1299.143, 205.1543
1300.212, 508.0430
1301.280, 403.9668
1302.348, 489.0332
1303.416, 461.3984
1304.484, 253.4434
1305.552, 352.4688
1306.620, 311.2305
1307.687, 464.1074
1308.754, 629.0898
1309.821, 509.3379
1310.888, 416.7168
1311.955, 489.2734
1313.021, 450.5879
1314.088, 542.6445
1315.154, 418.5469
1316.220, 581.0117
1317.286, 350.8926
1318.352, 423.7578
1319.417, 485.5137
1320.483, 585.0859
1321.548, 504.6797
1322.613, 436.9570
1323.678, 517.0957
1324.743, 410.6660
1325.807, 346.0977
1326.872, 283.5508
1327.936, 417.3457
1329.000, 219.1074
1330.064, 503.8672
1331.128, 407.4688
1332.191, 321.9297
1333.255, 427.8184
1334.318, 492.5938
1335.381, 262.2422
1336.444, 322.8418
1337.507, 372.0879
1338.569, 362.5918
1339.632, 248.3613
1340.694, 614.9121
1341.756, 465.5977
1342.818, 142.2324
1343.880, 353.5273
1344.941, 443.2617
1346.003, 428.9238
1347.064, 485.8105
1348.125, 275.2188
1349.186, 432.8379
1350.247, 328.4707
1351.308, 302.0996
1352.368, 387.6289
1353.428, 329.2266
1354.489, 424.4336
1355.549, 225.9258
1356.608, 285.2871
1357.668, 258.8750
1358.727, 324.1855
1359.787, 319.7617
1360.846, 35.91211
1361.905, 269.4766
1362.964, 215.0352
1364.022, 133.0977
1365.081, 265.6211
1366.139, 284.1504
1367.197, 290.6758
1368.255, 171.0820
1369.313, 77.13086
1370.371, 1.3672000E-02
1371.428, 73.35938
1372.486, 162.6934
1373.543, 268.1836
1374.600, 166.6680
1375.657, 203.1465
1376.713, 71.62305
1377.770, 69.10156
1378.826, 288.7578
1379.882, 25.22070
1380.938, 42.99805
1381.994, 47.45312
1383.050, 257.8750
1384.106, 1.322266
1385.161, 360.6328
1386.216, 138.2832
1387.271, 255.6387
1388.326, 144.5996
1389.381, 293.2598
1390.435, 101.8398
1391.490, 245.3086
1392.544, 189.0098
1393.598, 134.6289
1394.652, 157.3672
1395.705, 251.8379
1396.759, 98.23828
1397.812, 265.5879
1398.866, 322.9355
1399.919, 332.4375
1400.972, 248.7734
1402.024, 345.0605
1403.077, 70.35156
1404.129, 231.6348
1405.181, 32.08789
1406.233, 142.1309
1407.285, 155.3164
1408.337, 177.5117
1409.389, 123.6465
1410.440, 162.7656
1411.491, 138.8789
1412.542, 129.4453
1413.593, 165.0312
1414.644, 112.0684
1415.695, 174.0898
1416.745, 168.1055
1417.795, 86.10938
1418.845, 24.09180
1419.895, 286.0098
1420.945, 6.935547
1421.995, 210.8691
1423.044, 289.2500
1424.093, 290.4570
1425.142, 74.34961
1426.191, 89.21680
1427.240, 124.0645
1428.289, 142.9121
1429.337, 74.74219
1430.385, 39.59180
1431.433, 194.4570
1432.481, 186.2969
1433.529, 293.1211
1434.577, 301.6777
1435.624, 147.7578
1436.672, 275.9922
1437.719, 238.9141
1438.766, 171.9023
1439.812, 281.6582
1440.859, 252.3984
1441.905, 170.3379
1442.952, 329.0000
1443.998, 162.6074
1445.044, 318.1270
1446.090, 436.3594
1447.135, 118.9863
1448.181, 43.65430
1449.226, 14.36523
1450.271, 291.0918
1451.316, 12.12891
1452.361, 120.6484
1453.405, 223.4258
1454.450, 119.2168
1455.494, 236.0566
1456.538, 137.9219
1457.582, 93.78711
1458.626, 66.65430
1459.670, 93.48828
1460.713, 4.658203
1461.757, 247.2168
1462.800, 183.0957
1463.843, 267.9785
1464.886, 89.82812
1465.928, 230.6816
1466.971, 194.3047
1468.013, 67.16797
1469.055, 149.9863
1470.097, 59.20312
1471.139, 178.5625
1472.181, 216.7617
1473.222, 352.5645
1474.263, 340.3672
1475.305, 137.9316
1476.346, 238.3359
1477.386, 125.5762
1478.427, 22.82422
1479.468, 65.59375
1480.508, 49.63672
1481.548, 96.10938
1482.588, 156.8418
1483.628, 110.5703
1484.668, 336.3008
1485.707, 32.03906
1486.747, 229.7773
1487.786, 196.3574
1488.825, 45.16406
1489.864, 17.44141
1490.902, 154.2891
1491.941, 226.0352
1492.979, 240.7930
1494.017, 106.5664
1495.055, 43.72070
1496.093, 75.58398
1497.131, 29.77344
1498.168, 162.5996
1499.206, 138.2285
1500.243, 258.0938
1501.280, 137.3984
1502.317, 31.68945
1503.354, 177.2461
1504.390, 210.2129
1505.426, 57.20117
1506.463, 242.2227
1507.499, 172.2754
1508.535, 347.3730
1509.570, 223.5117
1510.606, 44.49219
1511.641, 182.5430
1512.676, 34.66602
1513.711, 84.79492
1514.746, 25.15430
1515.781, 131.5430
1516.816, 73.06055
1517.850, 94.68750
1518.884, 66.09375
1519.918, 130.7812
1520.952, 128.3008
1521.986, 163.1914
1523.019, 282.0879
1524.053, 105.9844
1525.086, 249.7832
1526.119, 223.4102
1527.152, 419.7930
1528.185, 319.3105
1529.217, 294.7754
1530.250, 207.1582
1531.282, 353.3164
1532.314, 257.4531
1533.346, 366.0078
1534.377, 203.4902
1535.409, 534.0703
1536.440, 143.5723
1537.472, 214.2227
1538.503, 498.9414
1539.534, 355.6738
1540.564, 206.2305
1541.595, 243.8145
1542.625, 293.6641
1543.656, 187.0234
1544.686, 417.7305
1545.716, 125.4023
1546.745, 3.802734
1547.775, 22.21289
1548.804, 142.2832
1549.834, 462.1797
1550.863, 553.9219
1551.892, 417.8047
1552.920, 463.9844
1553.949, 471.7910
1554.977, 421.4238
1556.006, 409.7305
1557.034, 363.3711
1558.062, 263.0566
1559.089, 169.0938
1560.117, 2.751953
1561.144, 44.60547
1562.172, 25.00391
1563.199, 185.4355
1564.226, 110.9473
1565.252, 28.77344
1566.279, 134.1875
1567.305, 268.9609
1568.332, 150.4980
1569.358, 0.4746090
1570.384, 0.0000000E+00
##END=



