##NAMES=Actinolite
##RRUFFID=R060045
##IDEAL CHEMISTRY=Ca_2_(Mg_4.5-2.5_Fe^2+^_0.5-2.5_)Si_8_O_22_(OH)_2_
##LOCALITY=Colorado, USA
##OWNER=RRUFF
##SOURCE=University of Arizona Mineral Museum
##DESCRIPTION=Green prismatic crystals in a radial arrangement
##STATUS=The identification of this mineral has been confirmed by X-ray diffraction and chemical analysis
##URL=rruff.info/R060045
##MEASURED CHEMISTRY=(Ca_1.99_Na_0.01_)_Σ=2_(Mg_4.20_Fe^2+^_0.59_Al_0.09_Fe^3+^_0.08_Mn_0.02_Ti_0.01_)_Σ=5_(Si_7.82_Al_0.18_)_Σ=8_O_22_(OH)_2_
##PIN_ID=M00340
##ORIENTATION=Laser parallel to -a* (-1 0 0). Fiducial mark perpendicular to laser is parallel to -b [0 -1 0]
134.1270, 0.0000000E+00
135.3560, 50.98633
136.5850, 3.943359
137.8140, 150.8633
139.0430, 93.86133
140.2710, 249.5469
141.5000, 42.62109
142.7280, 28.35742
143.9560, 28.32617
145.1840, 45.47070
146.4120, 156.8477
147.6390, 499.2559
148.8670, 609.5273
150.0940, 763.5215
151.3210, 890.1836
152.5490, 1131.680
153.7750, 988.9414
155.0020, 1233.791
156.2290, 1180.102
157.4550, 878.7832
158.6810, 709.7656
159.9080, 852.0059
161.1340, 648.4609
162.3590, 486.1035
163.5850, 575.9043
164.8110, 1180.840
166.0360, 1583.893
167.2610, 1839.197
168.4860, 2567.516
169.7110, 2835.379
170.9360, 2906.850
172.1610, 2822.084
173.3850, 2816.139
174.6100, 2607.988
175.8340, 2471.902
177.0580, 2065.164
178.2820, 2016.562
179.5050, 1540.869
180.7290, 1176.105
181.9520, 1236.285
183.1760, 850.4219
184.3990, 715.5215
185.6220, 346.5859
186.8450, 277.6172
188.0670, 316.6191
189.2900, 160.5879
190.5120, 244.5234
191.7340, 200.4277
192.9560, 108.3008
194.1780, 230.1387
195.4000, 181.9414
196.6220, 413.7070
197.8430, 435.4395
199.0640, 399.2285
200.2860, 453.5137
201.5070, 798.1172
202.7270, 1181.857
203.9480, 963.2578
205.1690, 1223.717
206.3890, 1004.502
207.6090, 1177.250
208.8290, 1459.111
210.0490, 2006.145
211.2690, 2513.320
212.4890, 2928.240
213.7080, 3111.135
214.9280, 3390.385
216.1470, 3778.049
217.3660, 3610.189
218.5850, 3698.455
219.8030, 3648.824
221.0220, 3808.461
222.2400, 3936.348
223.4590, 3676.346
224.6770, 3559.396
225.8950, 3243.484
227.1120, 2895.922
228.3300, 2559.219
229.5480, 2368.539
230.7650, 2025.936
231.9820, 1805.510
233.1990, 1608.086
234.4160, 1523.652
235.6330, 1412.217
236.8490, 1211.758
238.0660, 1095.281
239.2820, 1133.787
240.4980, 974.2695
241.7140, 1166.730
242.9300, 875.1777
244.1460, 967.5957
245.3610, 847.9805
246.5770, 715.3340
247.7920, 870.6504
249.0070, 562.9277
250.2220, 665.1699
251.4370, 548.3750
252.6510, 404.5449
253.8660, 512.6777
255.0800, 426.7754
256.2940, 310.8359
257.5080, 284.8633
258.7220, 311.8535
259.9360, 244.7305
261.1490, 233.5898
262.3630, 203.6133
263.5760, 122.4648
264.7890, 106.2793
266.0020, 43.93945
267.2150, 85.19727
268.4270, 36.48438
269.6400, 118.1914
270.8520, 23.16797
272.0640, 112.5605
273.2760, 84.00586
274.4880, 214.5703
275.7000, 136.8105
276.9120, 102.0508
278.1230, 55.88281
279.3340, 223.1309
280.5450, 40.90234
281.7560, 249.5977
282.9670, 164.1934
284.1780, 131.8438
285.3880, 339.3027
286.5980, 30.83789
287.8090, 113.4355
289.0190, 240.2031
290.2290, 145.8984
291.4380, 375.7598
292.6480, 154.5293
293.8570, 319.6992
295.0670, 533.5176
296.2760, 330.1094
297.4850, 439.5762
298.6930, 466.8652
299.9020, 375.6074
301.1110, 410.4102
302.3190, 352.7871
303.5270, 304.3965
304.7350, 296.6035
305.9430, 193.6777
307.1510, 242.4766
308.3580, 400.9961
309.5660, 403.1094
310.7730, 386.2227
311.9800, 440.1562
313.1870, 351.4590
314.3940, 315.6914
315.6010, 403.6855
316.8070, 456.0195
318.0130, 396.9141
319.2200, 215.9258
320.4260, 433.1758
321.6310, 313.2480
322.8370, 461.1035
324.0430, 689.0293
325.2480, 682.0098
326.4540, 439.6816
327.6590, 465.5410
328.8640, 626.4824
330.0680, 556.1406
331.2730, 642.5469
332.4780, 789.2109
333.6820, 760.2461
334.8860, 766.0508
336.0900, 1026.527
337.2940, 918.1289
338.4980, 1090.992
339.7010, 1263.033
340.9050, 1178.633
342.1080, 1230.570
343.3110, 1238.162
344.5140, 1296.902
345.7170, 1334.158
346.9200, 1225.729
348.1220, 1224.555
349.3240, 1365.943
350.5270, 1165.217
351.7290, 1150.473
352.9310, 1325.209
354.1320, 1446.104
355.3340, 1461.500
356.5350, 1776.465
357.7370, 1895.131
358.9380, 2533.777
360.1390, 2925.410
361.3400, 3116.027
362.5400, 3089.623
363.7410, 3143.201
364.9410, 3116.762
366.1410, 3046.303
367.3410, 2917.322
368.5410, 2619.320
369.7410, 2521.795
370.9400, 2245.246
372.1400, 1984.676
373.3390, 2152.082
374.5380, 2009.463
375.7370, 1748.820
376.9360, 1873.154
378.1350, 1862.461
379.3330, 2198.746
380.5310, 2490.004
381.7300, 2795.236
382.9280, 3402.443
384.1260, 3669.625
385.3230, 3838.785
386.5210, 3794.916
387.7180, 3735.023
388.9160, 3617.107
390.1130, 3355.166
391.3100, 3056.199
392.5060, 2913.207
393.7030, 2748.189
394.9000, 2421.150
396.0960, 2139.086
397.2920, 1850.994
398.4880, 1673.877
399.6840, 1551.736
400.8800, 1629.572
402.0750, 1666.385
403.2710, 1635.199
404.4660, 1523.959
405.6610, 1786.695
406.8560, 1696.408
408.0510, 1891.057
409.2450, 1859.605
410.4400, 1629.879
411.6340, 1668.529
412.8280, 1442.252
414.0220, 1385.732
415.2160, 1121.172
416.4100, 1221.967
417.6030, 911.5195
418.7970, 769.8496
419.9900, 549.2676
421.1830, 358.5137
422.3760, 629.7285
423.5690, 405.1152
424.7610, 430.0293
425.9540, 418.3691
427.1460, 416.6875
428.3380, 402.1836
429.5300, 509.4629
430.7220, 416.2031
431.9140, 416.7246
433.1050, 334.5254
434.2970, 294.7031
435.4880, 352.8965
436.6790, 237.0527
437.8700, 338.1953
439.0610, 147.3184
440.2510, 124.5957
441.4420, 50.37695
442.6320, 122.3086
443.8220, 49.79492
445.0120, 54.02344
446.2020, 22.85742
447.3910, 72.10352
448.5810, 38.09375
449.7700, 193.0293
450.9600, 124.9766
452.1490, 72.30078
453.3370, 55.21875
454.5260, 13.32227
455.7150, 4.966797
456.9030, 54.59570
458.0910, 12.21094
459.2800, 212.1973
460.4670, 52.42969
461.6550, 54.75977
462.8430, 27.19922
464.0300, 253.5078
465.2180, 11.09961
466.4050, 73.58984
467.5920, 66.59375
468.7790, 115.3730
469.9650, 118.9453
471.1520, 62.36523
472.3380, 92.65625
473.5250, 134.8867
474.7110, 306.0801
475.8970, 42.24219
477.0820, 62.36133
478.2680, 467.4414
479.4540, 297.4941
480.6390, 229.5117
481.8240, 180.5156
483.0090, 280.4863
484.1940, 193.4258
485.3780, 270.3359
486.5630, 228.2168
487.7470, 393.0684
488.9320, 228.8906
490.1160, 156.6816
491.3000, 42.43750
492.4830, 219.1523
493.6670, 209.8359
494.8500, 451.4883
496.0340, 287.1328
497.2170, 161.7656
498.4000, 259.4141
499.5820, 359.0859
500.7650, 503.7285
501.9480, 476.3789
503.1300, 813.0332
504.3120, 986.6562
505.4940, 896.3242
506.6760, 895.9668
507.8580, 954.5879
509.0390, 867.1855
510.2210, 1120.758
511.4020, 1166.346
512.5830, 1135.904
513.7640, 975.4707
514.9450, 890.0117
516.1250, 902.1250
517.3060, 876.3320
518.4860, 940.4727
519.6660, 979.9160
520.8460, 1004.334
522.0260, 1039.605
523.2060, 1017.090
524.3850, 1075.510
525.5650, 1042.904
526.7440, 1043.297
527.9230, 834.6621
529.1020, 959.0000
530.2810, 825.3301
531.4590, 798.6309
532.6380, 841.9062
533.8160, 752.1523
534.9940, 766.1309
536.1720, 545.5625
537.3500, 667.7344
538.5270, 629.8789
539.7050, 434.9941
540.8820, 413.0820
542.0590, 384.1426
543.2360, 606.1719
544.4130, 311.1738
545.5900, 529.1445
546.7660, 583.0859
547.9430, 337.0039
549.1190, 482.8926
550.2950, 469.7520
551.4710, 353.5820
552.6470, 368.3965
553.8220, 304.2090
554.9980, 336.0098
556.1730, 355.7773
557.3480, 356.5273
558.5230, 361.1621
559.6980, 376.0312
560.8730, 349.6523
562.0470, 363.4043
563.2220, 368.1289
564.3960, 558.3633
565.5700, 325.2383
566.7440, 429.2891
567.9170, 583.3926
569.0910, 246.5742
570.2640, 506.9316
571.4380, 889.4688
572.6110, 556.7656
573.7840, 471.4492
574.9570, 535.7793
576.1290, 422.0723
577.3020, 450.3438
578.4740, 407.1426
579.6460, 396.9023
580.8180, 497.1562
581.9900, 403.8145
583.1620, 452.9043
584.3330, 485.2480
585.5040, 485.5059
586.6760, 287.2715
587.8470, 227.5547
589.0180, 206.3203
590.1880, 2.185547
591.3590, 307.2852
592.5290, 118.6348
593.7000, 213.3516
594.8700, 174.0312
596.0400, 136.8594
597.2090, 11.72656
598.3790, 47.28906
599.5490, 25.32227
600.7180, 155.5371
601.8870, 60.13672
603.0560, 26.56836
604.2250, 251.7090
605.3940, 25.97852
606.5620, 37.41406
607.7300, 34.26953
608.8990, 125.9355
610.0670, 338.3945
611.2350, 297.6250
612.4020, 219.7266
613.5700, 269.0605
614.7370, 607.6035
615.9050, 642.8418
617.0720, 758.6641
618.2390, 755.6660
619.4060, 803.4023
620.5720, 832.5176
621.7390, 719.5293
622.9050, 1006.338
624.0710, 646.7930
625.2370, 733.0957
626.4030, 493.7227
627.5690, 711.3477
628.7340, 596.0059
629.9000, 547.6660
631.0650, 636.0742
632.2300, 722.8145
633.3950, 679.6289
634.5600, 664.7520
635.7240, 890.0449
636.8890, 892.5586
638.0530, 1046.289
639.2170, 1111.322
640.3810, 1221.201
641.5450, 1491.385
642.7080, 1465.285
643.8720, 1703.160
645.0350, 2025.361
646.1980, 2084.775
647.3610, 2109.254
648.5240, 2273.926
649.6870, 2430.285
650.8490, 2672.070
652.0120, 2601.826
653.1740, 3203.086
654.3360, 3314.709
655.4980, 3553.367
656.6600, 4046.176
657.8210, 4804.094
658.9830, 5961.512
660.1440, 6953.400
661.3050, 8490.500
662.4660, 10307.28
663.6270, 12611.73
664.7870, 14781.54
665.9480, 16882.77
667.1080, 17867.51
668.2680, 18369.75
669.4280, 18106.91
670.5880, 17256.23
671.7480, 15207.65
672.9070, 13694.21
674.0670, 11908.50
675.2260, 10124.58
676.3850, 8183.070
677.5440, 6978.240
678.7030, 5554.805
679.8610, 4516.770
681.0200, 3859.703
682.1780, 3264.611
683.3360, 2724.488
684.4940, 2186.311
685.6520, 1801.135
686.8090, 1781.334
687.9670, 1623.412
689.1240, 1314.152
690.2810, 1231.865
691.4380, 945.5488
692.5950, 963.2070
693.7520, 915.7852
694.9080, 576.3887
696.0650, 672.0332
697.2210, 447.5781
698.3770, 553.0977
699.5330, 85.58984
700.6880, 364.0449
701.8440, 323.4902
702.9990, 158.9062
704.1550, 237.3008
705.3100, 188.6621
706.4650, 166.9941
707.6190, 141.2949
708.7740, 90.28125
709.9290, 294.5176
711.0830, 51.27734
712.2370, 228.8516
713.3910, 70.94922
714.5450, 308.0137
715.6980, 69.05273
716.8520, 79.05664
718.0050, 39.02930
719.1580, 450.9629
720.3110, 314.8750
721.4640, 204.8066
722.6170, 451.7129
723.7700, 289.5977
724.9220, 389.4844
726.0740, 578.2930
727.2260, 308.8359
728.3780, 576.3223
729.5300, 713.6641
730.6810, 761.5547
731.8330, 1342.838
732.9840, 1335.500
734.1350, 1403.020
735.2860, 1348.373
736.4370, 1368.674
737.5880, 1111.930
738.7380, 1317.754
739.8880, 1219.133
741.0390, 1383.133
742.1890, 1178.018
743.3380, 1389.826
744.4880, 1108.697
745.6380, 1042.609
746.7870, 999.9453
747.9360, 880.1973
749.0850, 855.9551
750.2340, 799.7324
751.3830, 631.4746
752.5310, 640.2188
753.6800, 523.9453
754.8280, 441.6465
755.9760, 439.3340
757.1240, 134.0020
758.2720, 249.6445
759.4190, 31.73242
760.5670, 184.8301
761.7140, 124.3711
762.8610, 67.88672
764.0080, 61.37891
765.1550, 34.84180
766.3020, 103.2773
767.4480, 271.6875
768.5950, 215.5977
769.7410, 200.4473
770.8870, 169.8008
772.0330, 80.13281
773.1780, 34.55859
774.3240, 25.31250
775.4690, 149.1211
776.6140, 163.8457
777.7590, 246.9062
778.9040, 99.16797
780.0490, 79.33398
781.1940, 205.4180
782.3380, 228.8516
783.4820, 61.71875
784.6260, 4.263672
785.7700, 21.76953
786.9140, 52.24609
788.0580, 130.3008
789.2010, 181.0449
790.3450, 91.63086
791.4880, 15.60938
792.6310, 180.8203
793.7730, 137.0117
794.9160, 103.1797
796.0590, 18.67188
797.2010, 94.42969
798.3430, 35.50977
799.4850, 104.5664
800.6270, 293.4004
801.7690, 80.44922
802.9100, 68.72656
804.0520, 82.02930
805.1930, 216.7637
806.3340, 54.51953
807.4750, 157.1367
808.6160, 122.7754
809.7560, 80.39453
810.8970, 134.9941
812.0370, 192.5781
813.1770, 17.85742
814.3170, 139.6719
815.4570, 36.18164
816.5960, 256.6719
817.7360, 316.1465
818.8750, 391.6055
820.0140, 410.0508
821.1530, 359.4785
822.2920, 206.8926
823.4310, 63.29297
824.5690, 84.67578
825.7070, 177.0410
826.8460, 225.3926
827.9840, 416.7285
829.1220, 299.0527
830.2590, 423.3613
831.3970, 233.6582
832.5340, 128.9395
833.6710, 546.2090
834.8080, 187.4648
835.9450, 603.7070
837.0820, 366.1016
838.2190, 297.0273
839.3550, 435.2305
840.4910, 335.2773
841.6270, 221.2676
842.7630, 739.0430
843.8990, 484.7188
845.0350, 623.2812
846.1700, 756.6250
847.3060, 309.7461
848.4410, 853.0703
849.5760, 688.9688
850.7100, 703.1797
851.8450, 846.2578
852.9800, 1010.445
854.1140, 895.6914
855.2480, 826.5977
856.3820, 973.6367
857.5160, 986.6719
858.6500, 765.4180
859.7830, 1005.438
860.9170, 715.4570
862.0500, 910.4648
863.1830, 885.4688
864.3160, 830.4570
865.4480, 825.4453
866.5810, 747.5781
867.7130, 488.4023
868.8460, 565.3828
869.9780, 585.3594
871.1100, 421.3242
872.2410, 670.3008
873.3730, 595.2773
874.5050, 327.2773
875.6360, 416.2734
876.7670, 400.2617
877.8980, 631.2461
879.0290, 426.2695
880.1590, 390.3047
881.2900, 455.3477
882.4200, 403.3789
883.5500, 322.4180
884.6800, 611.4492
885.8100, 558.4727
886.9400, 389.4922
888.0690, 548.5039
889.1990, 534.5039
890.3280, 590.4922
891.4570, 657.4844
892.5860, 644.4648
893.7140, 605.9883
894.8430, 795.9531
895.9710, 843.7148
897.1000, 749.4609
898.2280, 500.9492
899.3560, 610.2109
900.4830, 515.4453
901.6110, 600.4805
902.7380, 462.8828
903.8660, 592.8320
904.9930, 794.7031
906.1200, 742.5039
907.2460, 673.1992
908.3730, 522.5156
909.5000, 628.1328
910.6260, 559.8242
911.7520, 594.7656
912.8780, 589.2812
914.0040, 678.2109
915.1290, 750.8164
916.2550, 611.7109
917.3800, 341.6055
918.5050, 926.1445
919.6300, 656.4453
920.7550, 888.7305
921.8800, 902.7930
923.0040, 1244.148
924.1290, 1313.098
925.2530, 1593.070
926.3770, 1534.512
927.5010, 1584.566
928.6250, 1635.566
929.7480, 1647.387
930.8720, 1193.121
931.9950, 1283.320
933.1180, 1033.039
934.2410, 973.5273
935.3640, 842.3203
936.4860, 776.4141
937.6090, 853.1211
938.7310, 784.3828
939.8530, 840.1250
940.9750, 713.3320
942.0970, 738.4570
943.2180, 715.6875
944.3400, 691.6523
945.4610, 647.4492
946.5820, 526.4922
947.7030, 729.7305
948.8240, 543.5312
949.9450, 750.6367
951.0650, 487.3203
952.1860, 382.5859
953.3060, 525.8672
954.4260, 606.1523
955.5460, 326.4414
956.6650, 402.7383
957.7850, 423.0391
958.9040, 376.9414
960.0230, 464.9453
961.1420, 439.2734
962.2610, 370.1406
963.3800, 34.95312
964.4990, 201.3008
965.6170, 145.6562
966.7350, 73.01953
967.8530, 158.3203
968.9710, 62.69922
970.0890, 300.0859
971.2070, 165.4805
972.3240, 131.1133
973.4410, 176.2695
974.5580, 72.33984
975.6750, 52.04297
976.7920, 159.4375
977.9090, 158.8438
979.0250, 202.3789
980.1410, 213.2812
981.2580, 197.1289
982.3740, 209.5742
983.4890, 241.0586
984.6050, 265.8281
985.7200, 237.0547
986.8360, 173.5664
987.9510, 20.08984
989.0660, 45.62891
990.1810, 292.1836
991.2950, 103.7422
992.4100, 283.3164
993.5240, 406.4180
994.6390, 425.4531
995.7530, 548.0703
996.8660, 617.6953
997.9800, 913.3281
999.0940, 1003.969
1000.207, 824.6211
1001.320, 954.2852
1002.433, 776.2969
1003.546, 751.9805
1004.659, 579.6719
1005.772, 750.5508
1006.884, 782.2617
1007.996, 698.7773
1009.108, 711.5000
1010.220, 832.2344
1011.332, 857.9766
1012.444, 958.9805
1013.555, 1021.504
1014.666, 1126.984
1015.777, 1559.051
1016.888, 1484.832
1017.999, 1695.629
1019.110, 2152.539
1020.220, 2155.344
1021.331, 2548.164
1022.441, 2807.984
1023.551, 3238.820
1024.661, 3149.664
1025.770, 3253.512
1026.880, 3105.371
1027.989, 2973.234
1029.098, 2997.477
1030.207, 2424.719
1031.316, 2156.656
1032.425, 1838.582
1033.533, 1572.516
1034.642, 1525.461
1035.750, 1065.422
1036.858, 1196.387
1037.966, 843.3633
1039.073, 800.3477
1040.181, 731.1680
1041.288, 792.1758
1042.396, 949.1836
1043.503, 763.2227
1044.610, 813.2891
1045.716, 1226.762
1046.823, 1310.945
1047.929, 1544.508
1049.036, 1498.398
1050.142, 1735.676
1051.248, 2212.961
1052.353, 2246.988
1053.459, 2214.180
1054.564, 2471.566
1055.670, 2385.969
1056.775, 2746.785
1057.880, 2595.660
1058.985, 2252.125
1060.089, 2529.633
1061.194, 2632.145
1062.298, 2603.668
1063.402, 2545.219
1064.506, 2570.754
1065.610, 2385.906
1066.713, 2359.027
1067.817, 2227.598
1068.920, 1813.172
1070.023, 1562.840
1071.126, 1471.512
1072.229, 1222.215
1073.332, 1268.934
1074.435, 1065.648
1075.537, 1144.391
1076.639, 903.1445
1077.741, 916.8945
1078.843, 708.6602
1079.945, 718.4766
1081.046, 990.3008
1082.148, 820.1406
1083.249, 879.9844
1084.350, 666.7617
1085.451, 844.6133
1086.551, 625.4766
1087.652, 993.3398
1088.752, 855.2031
1089.853, 630.0742
1090.953, 482.9531
1092.053, 327.8359
1093.152, 394.7148
1094.252, 417.6055
1095.351, 275.5039
1096.451, 391.4062
1097.550, 328.3125
1098.649, 308.2188
1099.748, 268.1328
1100.846, 297.5820
1101.945, 298.5117
1103.043, 319.8984
1104.141, 406.8320
1105.239, 283.0586
1106.337, 448.9961
1107.434, 257.5703
1108.532, 256.5195
1109.629, 244.4727
1110.726, 373.4297
1111.823, 275.3867
1112.920, 323.3516
1114.017, 593.3164
1115.113, 138.2891
1116.210, 381.2578
1117.306, 162.2344
1118.402, 298.2148
1119.498, 318.1953
1120.593, 360.1797
1121.689, 229.1680
1122.784, 125.1602
1123.879, 362.1602
1124.974, 41.12109
1126.069, 1.144531
1127.164, 234.8281
1128.259, 28.80469
1129.353, 424.7812
1130.447, 248.7578
1131.541, 48.74219
1132.635, 268.7266
1133.729, 52.28906
1134.822, 108.6719
1135.916, 113.6328
1137.009, 48.41016
1138.102, 35.53125
1139.195, 57.53125
1140.288, 208.3750
1141.380, 138.2812
1142.473, 80.18750
1143.565, 142.8984
1144.657, 103.0664
1145.749, 49.71484
1146.841, 47.48828
1147.932, 189.2656
1149.024, 155.9297
1150.115, 14.83203
1151.206, 66.61719
1152.297, 150.3984
1153.388, 77.18750
1154.479, 80.97656
1155.569, 209.7656
1156.659, 212.5547
1157.750, 166.9102
1158.839, 174.1484
1159.929, 9.941406
1161.019, 10.73438
1162.108, 86.47266
1163.198, 134.2656
1164.287, 112.0078
1165.376, 96.74609
1166.465, 91.49219
1167.553, 268.2344
1168.642, 214.9805
1169.730, 111.7461
1170.818, 49.48828
1171.906, 354.2461
1172.994, 68.97266
1174.082, 220.7070
1175.170, 261.4453
1176.257, 14.17969
1177.344, 238.9180
1178.431, 24.34766
1179.518, 92.63672
1180.605, 208.0195
1181.691, 245.6758
1182.778, 7.328125
1183.864, 238.0234
1184.950, 181.4922
1186.036, 253.0039
1187.122, 167.4805
1188.207, 56.06641
1189.292, 86.30859
1190.378, 179.6797
1191.463, 87.05469
1192.548, 73.42969
1193.632, 145.1914
1194.717, 199.0977
1195.801, 9.382813
1196.886, 26.33594
1197.970, 161.9180
1199.054, 153.1758
1200.137, 169.4297
1201.221, 223.6875
1202.305, 195.9375
1203.388, 286.3711
1204.471, 421.4453
1205.554, 366.7852
1206.637, 776.9453
1207.719, 686.1953
1208.802, 702.0352
1209.884, 1084.684
1210.966, 604.9336
1212.048, 176.1758
1213.130, 133.4180
1214.212, 7.660156
1215.293, 344.8867
1216.374, 235.1133
1217.456, 453.3477
1218.536, 210.5742
1219.617, 408.7969
1220.698, 242.0195
1221.778, 403.2461
1222.859, 331.4688
1223.939, 39.68750
1225.019, 319.3164
1226.099, 232.5312
1227.178, 389.7461
1228.258, 122.4180
1229.337, 285.6328
1230.417, 398.8477
1231.496, 265.0586
1232.574, 352.2734
1233.653, 280.9141
1234.732, 581.1250
1235.810, 503.9180
1236.888, 370.1445
1237.966, 662.3750
1239.044, 372.6055
1240.122, 441.8281
1241.199, 359.0625
1242.277, 456.2930
1243.354, 497.5156
1244.431, 471.4805
1245.508, 608.9688
1246.585, 534.1953
1247.661, 503.4219
1248.738, 676.6484
1249.814, 618.8711
1250.890, 185.0977
1251.966, 493.3203
1253.042, 76.54297
1254.117, 43.23438
1255.193, 155.4531
1256.268, 174.2148
1257.343, 75.40625
1258.418, 154.5938
1259.493, 219.7852
1260.567, 628.9766
1261.642, 496.2031
1262.716, 536.4297
1263.790, 819.3164
1264.864, 675.5469
1265.938, 528.7773
1267.011, 819.8281
1268.085, 587.0625
1269.158, 474.5000
1270.231, 880.7344
1271.304, 631.9727
1272.377, 514.2656
1273.450, 851.2617
1274.522, 456.7383
1275.594, 618.9844
1276.666, 727.2344
1277.738, 398.4883
1278.810, 1011.746
1279.882, 759.8984
1280.953, 629.1602
1282.025, 436.4297
1283.096, 425.6992
1284.167, 512.9688
1285.238, 528.2500
1286.308, 476.5312
1287.379, 582.8125
1288.449, 574.1094
1289.519, 449.0391
1290.589, 484.0000
1291.659, 830.2812
1292.729, 538.5898
1293.798, 735.9023
1294.868, 543.2188
1295.937, 865.5430
1297.006, 728.8711
1298.075, 429.7500
1299.143, 868.1055
1300.212, 669.6406
1301.280, 565.0078
1302.348, 312.3789
1303.416, 531.7578
1304.484, 556.1406
1305.552, 637.1836
1306.620, 541.5820
1307.687, 555.6172
1308.754, 658.3750
1309.821, 824.7930
1310.888, 767.2148
1311.955, 696.9805
1313.021, 966.5977
1314.088, 638.0352
1315.154, 778.4961
1316.220, 840.5586
1317.286, 845.6172
1318.352, 728.1016
1319.417, 922.5938
1320.483, 784.8320
1321.548, 538.5938
1322.613, 679.0820
1323.678, 619.5977
1324.743, 654.5234
1325.807, 552.4961
1326.872, 317.0312
1327.936, 307.5781
1329.000, 229.4023
1330.064, 301.6367
1331.128, 324.1523
1332.191, 121.6758
1333.255, 442.2031
1334.318, 165.7422
1335.381, 188.2930
1336.444, 331.8516
1337.507, 233.5898
1338.569, 290.9297
1339.632, 351.4531
1340.694, 170.9922
1341.756, 563.5352
1342.818, 432.1602
1343.880, 182.7148
1344.941, 463.2852
1346.003, 259.8633
1347.064, 412.4492
1348.125, 361.0469
1349.186, 364.6602
1350.247, 205.2734
1351.308, 263.9062
1352.368, 22.45312
1353.428, 8.195313
1354.489, 415.8555
1355.549, 24.46875
1356.608, 261.2109
1357.668, 389.9023
1358.727, 19.60156
1359.787, 318.3203
1360.846, 23.95312
1361.905, 236.7852
1362.964, 29.46875
1364.022, 5.289063
1365.081, 321.0586
1366.139, 111.8398
1367.197, 402.6367
1368.255, 110.4453
1369.313, 105.2656
1370.371, 81.10156
1371.428, 303.9453
1372.486, 195.8086
1373.543, 258.6562
1374.600, 543.5156
1375.657, 129.3867
1376.713, 428.2773
1377.770, 88.17578
1378.826, 191.0859
1379.882, 517.0156
1380.938, 318.9570
1381.994, 503.1836
1383.050, 518.3047
1384.106, 224.3047
1385.161, 450.3164
1386.216, 517.3438
1387.271, 332.3828
1388.326, 190.9961
1389.381, 455.0664
1390.435, 325.1523
1391.490, 230.2734
1392.544, 473.4062
1393.598, 372.5586
1394.652, 448.7500
1395.705, 128.9492
1396.759, 174.3945
1397.812, 147.6484
1398.866, 4.078125
1399.919, 173.2227
1400.972, 8.574219
1402.024, 212.9766
1403.077, 411.4023
1404.129, 268.8438
1405.181, 454.3086
1406.233, 400.7969
1407.285, 356.3047
1408.337, 460.8359
1409.389, 393.3828
1410.440, 345.9609
1411.491, 112.5586
1412.542, 103.1758
1413.593, 212.8242
1414.644, 317.5508
1415.695, 218.2422
1416.745, 256.9688
1417.795, 438.7266
1418.845, 106.5625
1419.895, 380.2344
1420.945, 455.9336
1421.995, 72.65625
1423.044, 498.3984
1424.093, 98.03906
1425.142, 147.7344
1426.191, 242.5312
1427.240, 424.3750
1428.289, 272.2383
1429.337, 715.1289
1430.385, 410.0820
1431.433, 517.0234
1432.481, 948.9844
1433.529, 605.9766
1434.577, 927.0117
1435.624, 1015.109
1436.672, 1269.016
1437.719, 1249.934
1438.766, 1479.875
1439.812, 1492.887
1440.859, 1542.773
1441.905, 1659.781
1442.952, 1792.992
1443.998, 1801.824
1445.044, 1906.211
1446.090, 1941.625
1447.135, 2016.660
1448.181, 2035.504
1449.226, 2072.418
1450.271, 2182.383
1451.316, 2303.367
1452.361, 2200.379
1453.405, 1924.414
1454.450, 1886.477
1455.494, 2333.711
1456.538, 1723.707
1457.582, 2055.730
1458.626, 1682.789
1459.670, 1760.875
1460.713, 1689.988
1461.757, 1754.125
1462.800, 1448.824
1463.843, 1489.016
1464.886, 1225.707
1465.928, 1032.949
1466.971, 1006.707
1468.013, 930.3242
1469.055, 925.6406
1470.097, 925.9883
1471.139, 1042.371
1472.181, 914.7734
1473.222, 879.6914
1474.263, 880.6797
1475.305, 679.1797
1476.346, 638.7148
1477.386, 567.8633
1478.427, 665.9531
1479.468, 754.6250
1480.508, 632.2891
1481.548, 941.9336
1482.588, 487.6133
1483.628, 557.3242
1484.668, 916.0703
1485.707, 204.7695
1486.747, 562.5703
1487.786, 421.4062
1488.825, 552.2695
1489.864, 581.0273
1490.902, 489.0977
1491.941, 437.0547
1492.979, 309.0430
1494.017, 341.3320
1495.055, 316.7695
1496.093, 334.1875
1497.131, 393.2969
1498.168, 250.4336
1499.206, 342.4492
1500.243, 256.5000
1501.280, 482.5703
1502.317, 414.5703
1503.354, 452.8008
1504.390, 345.9531
1505.426, 259.1367
1506.463, 112.3281
1507.499, 33.51562
1508.535, 228.7188
1509.570, 152.9844
1510.606, 379.3086
1511.641, 338.6719
1512.676, 145.9219
1513.711, 294.6445
1514.746, 176.3750
1515.781, 387.1680
1516.816, 407.0078
1517.850, 215.9219
1518.884, 457.9023
1519.918, 250.9648
1520.952, 57.09766
1521.986, 308.2969
1523.019, 431.5586
1524.053, 190.8867
1525.086, 257.2773
1526.119, 392.7344
1527.152, 277.2617
1528.185, 304.8594
1529.217, 271.5391
1530.250, 293.2969
1531.282, 147.1367
1532.314, 423.0586
1533.346, 489.0625
1534.377, 380.1562
1535.409, 285.5352
1536.440, 384.0273
1537.472, 264.6484
1538.503, 162.4062
1539.534, 704.7578
1540.564, 539.7969
1541.595, 433.0000
1542.625, 119.2070
1543.656, 176.3555
1544.686, 296.5703
1545.716, 652.8477
1546.745, 429.1641
1547.775, 51.49609
1548.804, 200.8945
1549.834, 381.3125
1550.863, 351.7578
1551.892, 442.2070
1552.920, 563.6445
1553.949, 206.0195
1554.977, 253.8906
1556.006, 233.2344
1557.034, 268.6133
1558.062, 270.2461
1559.089, 379.1992
1560.117, 373.9414
1561.144, 222.9688
1562.172, 370.2031
1563.199, 227.7461
1564.226, 7.667969
1565.252, 414.7734
1566.279, 196.4258
1567.305, 95.21094
1568.332, 153.1250
1569.358, 9.230469
1570.384, 0.0000000E+00
##END=



