##NAMES=Actinolite
##RRUFFID=R040063
##IDEAL CHEMISTRY=Ca_2_(Mg_4.5-2.5_Fe^2+^_0.5-2.5_)Si_8_O_22_(OH)_2_
##LOCALITY=Harford County, Maryland, USA
##OWNER=RRUFF
##SOURCE=University of Arizona Mineral Museum
##DESCRIPTION=Mass of green acicular to bladed crystals associated with chlorite
##STATUS=The identification of this mineral has been confirmed by X-ray diffraction and chemical analysis
##URL=rruff.info/R040063
##MEASURED CHEMISTRY=(Ca_1.90_Na_0.06_Mn_0.04_)_Σ=2_(Mg_4.35_Fe_0.65_)_Σ=5_(Si_7.92_Al_0.08_)_Σ=8_O_22_(OH)_2_
##PIN_ID=S00044
##ORIENTATION=Laser parallel to b* (0 1 0). Fiducial mark perpendicular to laser is parallel to c [0 0 1]
141.323, 0.000
142.709, 24.612
144.094, 45.693
145.480, 112.875
146.865, 10.226
148.250, 3.437
149.635, 50.090
151.019, 90.213
152.403, 202.390
153.788, 338.268
155.171, 488.568
156.555, 544.070
157.939, 646.670
159.322, 690.354
160.705, 547.927
162.088, 521.240
163.470, 476.188
164.853, 434.687
166.235, 637.669
167.617, 809.080
168.998, 1309.873
170.380, 1922.007
171.761, 2849.447
173.142, 3804.344
174.523, 4977.658
175.904, 5771.211
177.284, 5862.821
178.664, 5474.486
180.044, 4630.208
181.424, 3517.002
182.803, 2524.888
184.183, 1950.871
185.562, 1367.951
186.940, 965.124
188.319, 744.380
189.698, 587.717
191.076, 456.130
192.454, 424.616
193.831, 356.170
195.209, 334.788
196.586, 309.524
197.963, 287.197
199.340, 280.981
200.717, 281.813
202.093, 313.192
203.470, 381.610
204.846, 430.101
206.221, 541.487
207.597, 652.891
208.972, 893.262
210.347, 1080.692
211.722, 1400.177
213.097, 1797.714
214.472, 2508.299
215.846, 3179.927
217.220, 4013.594
218.594, 4858.307
219.967, 5474.201
221.341, 5637.325
222.714, 5550.647
224.087, 4988.088
225.460, 4387.624
226.832, 3721.171
228.204, 3179.843
229.577, 2658.533
230.948, 2199.219
232.320, 1801.423
233.692, 1511.595
235.063, 1156.292
236.434, 944.012
237.805, 761.774
239.175, 568.573
240.545, 511.378
241.916, 462.196
243.286, 330.015
244.655, 385.837
246.025, 389.660
247.394, 424.485
248.763, 375.312
250.132, 452.142
251.501, 388.975
252.869, 329.809
254.237, 332.645
255.605, 213.484
256.973, 217.322
258.340, 162.159
259.708, 111.994
261.075, 88.828
262.442, 36.660
263.808, 66.491
265.175, 24.321
266.541, 22.851
267.907, 75.024
269.273, 75.394
270.639, 121.376
272.004, 42.555
273.369, 66.736
274.734, 9.081
276.099, 39.895
277.463, 28.707
278.828, 100.515
280.192, 52.320
281.556, 142.122
282.919, 258.920
284.283, 372.715
285.646, 538.505
287.009, 527.274
288.372, 615.977
289.734, 612.643
291.097, 650.335
292.459, 492.046
293.821, 549.790
295.183, 477.074
296.544, 450.052
297.905, 548.400
299.266, 510.053
300.627, 470.007
301.988, 509.682
303.348, 471.625
304.709, 457.237
306.069, 352.376
307.428, 306.079
308.788, 289.609
310.147, 227.631
311.507, 220.537
312.865, 187.374
314.224, 221.108
315.583, 239.011
316.941, 274.367
318.299, 254.797
319.657, 229.989
321.015, 391.595
322.372, 355.216
323.729, 477.875
325.086, 636.441
326.443, 749.075
327.800, 814.237
329.156, 1007.901
330.512, 1065.852
331.868, 1046.540
333.224, 1184.367
334.579, 1145.338
335.935, 1096.266
337.290, 1174.070
338.645, 1169.487
339.999, 1273.586
341.354, 1251.517
342.708, 1311.320
344.062, 1281.178
345.416, 1438.994
346.769, 1359.813
348.123, 1399.638
349.476, 1413.467
350.829, 1404.299
352.182, 1368.134
353.534, 1469.973
354.887, 1483.813
356.239, 1522.656
357.591, 1637.500
358.942, 1959.345
360.294, 2440.190
361.645, 2943.036
362.996, 3695.883
364.347, 4648.728
365.698, 5472.575
367.048, 5886.419
368.398, 5920.228
369.748, 5543.950
371.098, 4847.636
372.448, 4185.321
373.797, 3338.011
375.146, 2678.700
376.495, 2353.390
377.844, 2084.080
379.192, 2003.770
380.540, 1837.460
381.889, 1915.149
383.236, 2023.838
384.584, 2193.523
385.932, 2567.207
387.279, 3010.884
388.626, 3397.557
389.973, 3768.226
391.319, 3771.889
392.666, 3762.547
394.012, 3407.200
395.358, 2914.848
396.704, 2479.489
398.049, 1973.124
399.394, 1555.754
400.740, 1296.378
402.084, 1207.995
403.429, 1029.606
404.774, 1023.211
406.118, 1012.809
407.462, 1043.400
408.806, 1121.985
410.150, 1170.562
411.493, 1339.133
412.836, 1318.697
414.179, 1312.253
415.522, 1154.803
416.865, 1070.346
418.207, 996.880
419.549, 760.408
420.891, 690.929
422.233, 525.441
423.575, 516.947
424.916, 396.445
426.257, 352.935
427.598, 225.417
428.939, 233.459
430.279, 300.429
431.619, 272.364
432.959, 290.697
434.299, 366.955
435.639, 349.227
436.978, 249.061
438.318, 270.908
439.657, 214.107
440.996, 198.660
442.334, 56.056
443.673, 98.843
445.011, 114.422
446.349, 6.363
447.687, 37.723
449.024, 62.928
450.361, 38.490
451.699, 53.839
453.036, 31.555
454.372, 29.172
455.709, 27.931
457.045, 22.694
458.381, 16.521
459.717, 30.385
461.053, 17.801
462.388, 18.254
463.724, 12.251
465.059, 3.285
466.394, 15.349
467.728, 61.428
469.063, 19.552
470.397, 24.300
471.731, 25.855
473.065, 86.036
474.398, 23.277
475.732, 8.452
477.065, 59.181
478.398, 57.519
479.731, 6.623
481.063, 42.326
482.396, 50.051
483.728, 50.783
485.060, 137.506
486.391, 74.225
487.723, 5.055
489.054, 81.643
490.385, 0.655
491.716, 11.973
493.047, 59.691
494.377, 15.651
495.708, 44.981
497.038, 78.613
498.368, 13.238
499.697, 28.857
501.027, 54.462
502.356, 95.057
503.685, 75.660
505.014, 217.252
506.342, 174.833
507.671, 221.404
508.999, 278.977
510.327, 234.538
511.655, 347.104
512.982, 433.660
514.310, 449.204
515.637, 497.738
516.964, 531.266
518.291, 508.783
519.617, 500.288
520.944, 647.789
522.270, 458.277
523.596, 531.777
524.921, 617.268
526.247, 540.747
527.572, 647.216
528.897, 576.673
530.222, 636.120
531.547, 599.556
532.871, 641.981
534.196, 509.396
535.520, 564.799
536.844, 520.191
538.167, 607.573
539.491, 467.944
540.814, 588.304
542.137, 431.652
543.460, 449.990
544.783, 406.316
546.105, 288.631
547.427, 459.935
548.749, 379.228
550.071, 318.510
551.393, 291.780
552.714, 312.039
554.035, 301.287
555.356, 326.524
556.677, 199.749
557.998, 379.962
559.318, 255.166
560.638, 222.357
561.958, 282.537
563.278, 204.706
564.597, 250.863
565.917, 272.010
567.236, 240.145
568.555, 277.269
569.874, 208.381
571.192, 278.482
572.511, 222.572
573.829, 301.651
575.147, 254.718
576.464, 237.774
577.782, 308.818
579.099, 210.852
580.416, 264.873
581.733, 205.883
583.050, 238.883
584.366, 225.871
585.683, 197.848
586.999, 182.950
588.315, 139.770
589.630, 103.726
590.946, 66.683
592.261, 11.650
593.576, 10.120
594.891, 30.454
596.206, 29.447
597.520, 4.667
598.834, 61.192
600.148, 98.039
601.462, 30.842
602.776, 48.662
604.089, 22.470
605.402, 104.722
606.715, 109.377
608.028, 68.262
609.341, 0.108
610.653, 94.262
611.965, 56.004
613.277, 92.869
614.589, 74.787
615.901, 92.012
617.212, 108.599
618.523, 187.292
619.834, 211.790
621.145, 240.204
622.456, 171.986
623.766, 223.303
625.076, 269.449
626.386, 308.702
627.696, 346.004
629.006, 404.311
630.315, 431.129
631.624, 458.417
632.933, 509.371
634.242, 575.258
635.551, 642.730
636.859, 753.431
638.167, 923.173
639.475, 1028.606
640.783, 1209.657
642.090, 1346.053
643.398, 1594.591
644.705, 1841.501
646.012, 2123.466
647.318, 2605.126
648.625, 2907.578
649.931, 3227.912
651.237, 3620.263
652.543, 3780.535
653.849, 4104.019
655.155, 4236.240
656.460, 4429.105
657.765, 4710.220
659.070, 5251.550
660.375, 5897.144
661.679, 6718.496
662.984, 8079.887
664.288, 9951.269
665.592, 12545.184
666.895, 15786.549
668.199, 19481.447
669.502, 22632.799
670.805, 25184.141
672.108, 25325.471
673.411, 24427.766
674.713, 20509.082
676.016, 17320.387
677.318, 13692.771
678.620, 10774.064
679.921, 8310.375
681.223, 6622.113
682.524, 5313.380
683.825, 4344.640
685.126, 3565.889
686.427, 2977.131
687.727, 2568.363
689.028, 2280.588
690.328, 1877.807
691.628, 1723.015
692.927, 1504.216
694.227, 1292.410
695.526, 1202.595
696.825, 1073.772
698.124, 949.941
699.423, 931.103
700.721, 734.257
702.020, 802.404
703.318, 732.543
704.616, 540.674
705.913, 611.798
707.211, 444.915
708.508, 477.024
709.805, 355.126
711.102, 440.221
712.399, 328.309
713.695, 299.390
714.992, 382.464
716.288, 271.530
717.584, 360.591
718.879, 193.645
720.175, 339.691
721.470, 311.732
722.765, 246.767
724.060, 246.794
725.355, 267.816
726.649, 332.832
727.944, 289.841
729.238, 283.845
730.532, 337.843
731.825, 237.835
733.119, 400.822
734.412, 416.803
735.705, 322.778
736.998, 446.749
738.291, 422.713
739.584, 369.672
740.876, 589.627
742.168, 626.576
743.460, 681.521
744.752, 775.460
746.043, 810.395
747.334, 999.198
748.626, 994.218
749.916, 776.175
751.207, 852.686
752.498, 674.170
753.788, 595.291
755.078, 463.044
756.368, 444.944
757.658, 343.440
758.947, 252.132
760.237, 124.449
761.526, 244.337
762.815, 112.221
764.104, 158.027
765.392, 159.570
766.680, 116.486
767.969, 122.293
769.257, 198.230
770.544, 30.157
771.832, 39.111
773.119, 127.073
774.406, 21.046
775.693, 79.025
776.980, 26.013
778.267, 35.006
779.553, 20.996
780.839, 5.006
782.125, 12.997
783.411, 31.007
784.697, 27.018
785.982, 1.038
787.267, 27.081
788.552, 44.866
789.837, 45.162
791.122, 16.812
792.406, 34.201
793.690, 109.784
794.974, 55.829
796.258, 130.091
797.542, 13.989
798.825, 37.082
800.108, 34.803
801.391, 49.307
802.674, 0.446
803.957, 28.583
805.239, 14.730
806.522, 15.887
807.804, 35.045
809.085, 12.225
810.367, 33.412
811.649, 51.383
812.930, 3.180
814.211, 68.026
815.492, 37.732
816.772, 72.489
818.053, 54.246
819.333, 42.998
820.613, 61.735
821.893, 59.532
823.173, 78.170
824.452, 38.871
825.732, 95.572
827.011, 18.727
828.290, 5.965
829.568, 49.656
830.847, 21.651
832.125, 25.029
833.403, 86.289
834.681, 10.650
835.959, 2.983
837.236, 7.617
838.514, 64.252
839.791, 77.888
841.068, 96.032
842.345, 67.162
843.621, 117.801
844.898, 109.440
846.174, 102.081
847.450, 134.723
848.726, 160.366
850.001, 73.011
851.277, 144.657
852.552, 101.305
853.827, 193.953
855.102, 208.604
856.376, 231.259
857.651, 206.914
858.925, 320.573
860.199, 274.234
861.473, 225.907
862.746, 254.583
864.020, 337.264
865.293, 131.948
866.566, 246.634
867.839, 291.323
869.112, 164.021
870.384, 282.723
871.656, 214.455
872.928, 258.191
874.200, 196.936
875.472, 247.684
876.744, 233.437
878.015, 236.205
879.286, 294.980
880.557, 279.759
881.828, 308.557
883.098, 269.358
884.369, 346.163
885.639, 254.983
886.909, 375.808
888.178, 277.637
889.448, 282.477
890.717, 329.321
891.987, 263.171
893.256, 343.031
894.524, 291.901
895.793, 283.776
897.061, 320.656
898.330, 362.542
899.598, 327.450
900.865, 328.361
902.133, 261.284
903.401, 375.216
904.668, 245.169
905.935, 341.136
907.202, 366.116
908.468, 317.110
909.735, 361.108
911.001, 425.114
912.267, 478.140
913.533, 539.173
914.799, 539.212
916.064, 463.257
917.330, 483.307
918.595, 670.366
919.860, 635.443
921.124, 868.524
922.389, 831.610
923.653, 1097.700
924.918, 1173.797
926.182, 1384.897
927.445, 1495.968
928.709, 1537.078
929.972, 1668.185
931.236, 1529.305
932.499, 1388.825
933.761, 1319.336
935.024, 1200.415
936.286, 1051.556
937.549, 954.699
938.811, 897.587
940.073, 955.740
941.334, 963.871
942.596, 953.034
943.857, 1000.817
945.118, 929.128
946.379, 1059.246
947.640, 1046.767
948.900, 1087.951
950.161, 738.119
951.421, 804.873
952.681, 681.074
953.940, 669.103
955.200, 518.073
956.459, 610.444
957.719, 377.677
958.978, 487.861
960.236, 371.893
961.495, 462.323
962.753, 324.502
964.012, 351.756
965.270, 271.969
966.527, 363.047
967.785, 403.318
969.043, 182.597
970.300, 367.883
971.557, 245.634
972.814, 306.935
974.071, 234.702
975.327, 363.014
976.583, 334.332
977.840, 241.656
979.095, 229.020
980.351, 180.354
981.607, 323.696
982.862, 227.964
984.117, 415.317
985.372, 217.648
986.627, 185.554
987.882, 277.928
989.136, 271.308
990.390, 264.814
991.644, 249.209
992.898, 342.610
994.152, 248.046
995.405, 228.465
996.659, 394.908
997.912, 299.342
999.165, 367.782
1000.417, 1188.245
1001.670, 1329.718
1002.922, 1231.197
1004.174, 1172.686
1005.426, 924.378
1006.678, 665.879
1007.930, 667.412
1009.181, 719.294
1010.432, 770.818
1011.683, 824.522
1012.934, 936.061
1014.185, 908.422
1015.435, 1040.061
1016.685, 961.644
1017.935, 1263.396
1019.185, 1376.390
1020.435, 1547.992
1021.684, 1936.443
1022.934, 2178.056
1024.183, 2690.679
1025.432, 3012.777
1026.680, 3354.471
1027.929, 3679.300
1029.177, 3371.610
1030.425, 3253.260
1031.673, 2768.515
1032.921, 2470.306
1034.169, 2052.029
1035.416, 1776.329
1036.663, 1548.308
1037.911, 1460.329
1039.157, 1223.791
1040.404, 1405.487
1041.650, 1397.515
1042.897, 1440.779
1044.143, 1513.972
1045.389, 1505.754
1046.634, 1707.748
1047.880, 2019.889
1049.125, 2265.967
1050.371, 2707.689
1051.615, 3099.837
1052.860, 3431.891
1054.105, 3943.945
1055.349, 4227.762
1056.593, 4367.855
1057.837, 4353.234
1059.081, 4345.168
1060.325, 4156.916
1061.568, 3782.369
1062.812, 3674.305
1064.055, 3516.324
1065.298, 3648.427
1066.540, 3490.195
1067.783, 3482.008
1069.025, 3226.607
1070.267, 2828.359
1071.509, 2420.510
1072.751, 2162.616
1073.993, 1744.371
1075.234, 1536.398
1076.475, 1328.156
1077.716, 1169.925
1078.957, 1112.375
1080.198, 1134.163
1081.438, 865.950
1082.679, 878.398
1083.919, 750.297
1085.159, 782.236
1086.398, 734.034
1087.638, 666.059
1088.877, 548.222
1090.116, 490.176
1091.355, 492.156
1092.594, 594.011
1093.833, 585.852
1095.071, 497.692
1096.309, 419.560
1097.547, 331.440
1098.785, 353.513
1100.023, 285.395
1101.260, 281.785
1102.498, 299.605
1103.735, 311.503
1104.972, 393.600
1106.208, 495.507
1107.445, 277.416
1108.681, 389.546
1109.918, 381.478
1111.154, 313.744
1112.389, 376.021
1113.625, 277.953
1114.860, 299.891
1116.096, 351.833
1117.331, 204.376
1118.566, 306.311
1119.800, 208.241
1121.035, 200.797
1122.269, 172.878
1123.503, 124.819
1124.737, 286.755
1125.971, 168.685
1127.205, 220.607
1128.438, 262.572
1129.671, 154.487
1130.904, 46.395
1132.137, 168.303
1133.370, 90.205
1134.602, 82.122
1135.834, 84.048
1137.066, 115.968
1138.298, 8.517
1139.530, 80.421
1140.762, 102.526
1141.993, 35.383
1143.224, 107.314
1144.455, 39.493
1145.686, 281.627
1146.917, 303.506
1148.147, 389.488
1149.377, 101.735
1150.607, 124.217
1151.837, 156.247
1153.067, 8.189
1154.296, 70.510
1155.526, 52.915
1156.755, 4.829
1157.984, 97.177
1159.213, 40.698
1160.441, 71.322
1161.670, 16.448
1162.898, 45.237
1164.126, 103.445
1165.354, 35.107
1166.581, 23.246
1167.809, 79.364
1169.036, 109.027
1170.263, 92.706
1171.490, 14.994
1172.717, 3.493
1173.943, 68.428
1175.170, 48.423
1176.396, 6.927
1177.622, 144.479
1178.848, 53.749
1180.073, 57.861
1181.299, 82.842
1182.524, 35.845
1183.749, 25.854
1184.974, 17.638
1186.199, 21.123
1187.423, 120.406
1188.648, 21.929
1189.872, 16.682
1191.096, 15.079
1192.320, 86.814
1193.543, 37.909
1194.767, 9.284
1195.990, 59.354
1197.213, 131.969
1198.436, 16.559
1199.659, 37.652
1200.881, 38.988
1202.104, 20.089
1203.326, 130.797
1204.548, 17.993
1205.770, 72.840
1206.991, 203.974
1208.213, 44.361
1209.434, 76.383
1210.655, 57.105
1211.876, 38.404
1213.096, 119.085
1214.317, 110.534
1215.537, 28.824
1216.757, 211.895
1217.977, 33.709
1219.197, 44.266
1220.417, 255.122
1221.636, 67.342
1222.855, 137.836
1224.074, 171.023
1225.293, 16.885
1226.512, 327.484
1227.731, 558.389
1228.949, 19.383
1230.167, 120.719
1231.385, 111.365
1232.603, 201.961
1233.820, 93.226
1235.038, 67.326
1236.255, 117.604
1237.472, 121.887
1238.689, 152.741
1239.906, 172.968
1241.122, 193.735
1242.338, 203.934
1243.555, 184.212
1244.771, 115.121
1245.986, 345.427
1247.202, 85.559
1248.417, 136.086
1249.633, 316.181
1250.848, 116.259
1252.063, 248.134
1253.277, 258.177
1254.492, 122.161
1255.706, 212.171
1256.920, 92.361
1258.134, 92.627
1259.348, 292.579
1260.562, 172.616
1261.775, 292.685
1262.988, 52.574
1264.201, 202.866
1265.414, 282.973
1266.627, 53.026
1267.839, 142.860
1269.052, 272.666
1270.264, 282.393
1271.476, 322.097
1272.688, 231.743
1273.899, 171.365
1275.111, 210.966
1276.322, 240.540
1277.533, 190.732
1278.744, 200.398
1279.955, 209.896
1281.165, 192.906
1282.376, 242.334
1283.586, 61.740
1284.796, 211.181
1286.006, 140.530
1287.215, 39.857
1288.425, 179.134
1289.634, 118.386
1290.843, 127.598
1292.052, 186.801
1293.261, 24.019
1294.469, 95.117
1295.678, 64.226
1296.886, 143.307
1298.094, 162.365
1299.302, 81.192
1300.509, 70.181
1301.717, 87.031
1302.924, 137.611
1304.131, 106.453
1305.338, 123.090
1306.545, 81.865
1307.752, 209.765
1308.958, 61.670
1310.164, 276.925
1311.370, 235.331
1312.576, 42.468
1313.782, 270.971
1314.987, 142.604
1316.193, 51.038
1317.398, 388.397
1318.603, 86.255
1319.807, 14.493
1321.012, 169.567
1322.216, 187.127
1323.421, 95.320
1324.625, 119.883
1325.829, 22.117
1327.032, 335.926
1328.236, 81.358
1329.439, 69.084
1330.642, 256.693
1331.845, 102.833
1333.048, 100.709
1334.251, 128.225
1335.453, 74.475
1336.656, 40.767
1337.858, 208.438
1339.060, 105.868
1340.261, 103.119
1341.463, 96.405
1342.664, 25.986
1343.866, 141.170
1345.067, 78.389
1346.267, 175.578
1347.468, 210.978
1348.669, 88.420
1349.869, 243.851
1351.069, 91.050
1352.269, 28.405
1353.469, 222.026
1354.668, 209.141
1355.868, 46.145
1357.067, 213.040
1358.266, 30.246
1359.465, 207.387
1360.664, 131.964
1361.862, 9.120
1363.061, 175.859
1364.259, 82.621
1365.457, 0.279
1366.655, 256.529
1367.852, 16.404
1369.050, 59.359
1370.247, 116.977
1371.444, 53.966
1372.641, 40.950
1373.838, 17.901
1375.035, 84.791
1376.231, 91.446
1377.427, 18.065
1378.623, 33.809
1379.819, 154.540
1381.015, 36.896
1382.211, 41.650
1383.406, 249.962
1384.601, 48.097
1385.796, 276.410
1386.991, 134.586
1388.185, 32.697
1389.380, 120.608
1390.574, 168.474
1391.768, 66.660
1392.962, 324.142
1394.156, 261.555
1395.350, 0.548
1396.543, 217.486
1397.736, 34.565
1398.929, 183.400
1400.122, 111.325
1401.315, 89.197
1402.507, 246.242
1403.700, 133.762
1404.892, 120.234
1406.084, 307.199
1407.276, 59.580
1408.467, 85.770
1409.659, 92.822
1410.850, 138.792
1412.041, 139.229
1413.232, 191.729
1414.423, 158.388
1415.614, 156.797
1416.804, 172.640
1417.994, 169.576
1419.184, 245.706
1420.374, 29.871
1421.564, 106.947
1422.753, 253.177
1423.943, 35.077
1425.132, 360.609
1426.321, 237.207
1427.510, 93.438
1428.698, 158.573
1429.887, 175.146
1431.075, 161.195
1432.263, 432.179
1433.451, 278.499
1434.639, 244.905
1435.827, 381.346
1437.014, 136.842
1438.201, 352.793
1439.388, 288.373
1440.575, 285.123
1441.762, 419.846
1442.949, 353.035
1444.135, 224.811
1445.321, 670.941
1446.507, 365.420
1447.693, 549.478
1448.879, 543.514
1450.064, 372.128
1451.250, 528.700
1452.435, 463.487
1453.620, 379.131
1454.805, 502.921
1455.989, 477.643
1457.174, 516.855
1458.358, 624.425
1459.542, 550.324
1460.726, 514.104
1461.910, 448.684
1463.093, 403.026
1464.277, 485.892
1465.460, 419.687
1466.643, 254.054
1467.826, 498.564
1469.009, 443.086
1470.191, 325.670
1471.373, 409.568
1472.556, 403.147
1473.738, 296.544
1474.919, 450.376
1476.101, 174.145
1477.283, 187.840
1478.464, 411.383
1479.645, 214.789
1480.826, 308.032
1482.007, 221.281
1483.187, 244.769
1484.368, 468.207
1485.548, 171.930
1486.728, 215.706
1487.908, 349.422
1489.088, 223.091
1490.268, 147.130
1491.447, 291.137
1492.626, 225.181
1493.805, 239.198
1494.984, 213.202
1496.163, 67.511
1497.341, 402.167
1498.520, 116.911
1499.698, 121.787
1500.876, 236.853
1502.054, 7.876
1503.232, 117.609
1504.409, 163.348
1505.586, 39.361
1506.763, 155.708
1507.940, 132.470
1509.117, 29.669
1510.294, 307.385
1511.470, 61.142
1512.647, 79.396
1513.823, 278.214
1514.999, 2.486
1516.174, 219.005
1517.350, 83.239
1518.526, 0.000
##END=



