##NAMES=Actinolite
##RRUFFID=R050336
##IDEAL CHEMISTRY=Ca_2_(Mg_4.5-2.5_Fe^2+^_0.5-2.5_)Si_8_O_22_(OH)_2_
##LOCALITY=Kragerø, Norway
##OWNER=RRUFF
##SOURCE=California Institute of Technology
##DESCRIPTION=Dark green prismatic fragment
##STATUS=The identification of this mineral has been confirmed by X-ray diffraction and chemical analysis
##URL=rruff.info/R050336
##MEASURED CHEMISTRY=([box]_0.62_Na_0.34_K_0.04_)(Ca_1.60_Na_0.40_)_Σ=2_(Mg_3.90_Fe^2+^_0.70_Al_0.20_Ti_0.10_Fe^3+^_0.10_)_Σ=5_(Si_7.52_Al_0.48_)_Σ=8_O_22_((OH)_0.97_F_0.03_)_2_
##PIN_ID=M00375
##ORIENTATION=Laser parallel to b* (0 1 0). Fiducial mark perpendicular to laser is parallel to -c [0 0 -1]
144.8170, 0.0000000E+00
146.0460, 6.184082
147.2750, 2.750732
148.5030, 42.01294
149.7320, 45.20679
150.9600, 15.13745
152.1880, 81.81323
153.4160, 28.86743
154.6440, 23.89575
155.8720, 21.53540
157.0990, 47.47949
158.3270, 75.49414
159.5540, 71.36499
160.7810, 172.0820
162.0080, 217.7366
163.2350, 290.1580
164.4610, 314.1736
165.6880, 460.6580
166.9140, 521.5176
168.1400, 632.6831
169.3660, 800.1045
170.5920, 937.7429
171.8180, 1100.570
173.0430, 1180.561
174.2690, 1325.579
175.4940, 1522.509
176.7190, 1544.534
177.9440, 1655.582
179.1680, 1713.567
180.3930, 1588.388
181.6170, 1386.063
182.8420, 1303.611
184.0660, 1219.044
185.2900, 1089.377
186.5140, 1000.166
187.7370, 780.7910
188.9610, 815.8945
190.1840, 681.9436
191.4070, 651.9495
192.6300, 607.9248
193.8530, 590.8806
195.0760, 483.8237
196.2980, 532.7585
197.5210, 480.6880
198.7430, 453.6143
199.9650, 493.5374
201.1870, 457.4546
202.4090, 530.3789
203.6310, 469.2991
204.8520, 481.8162
206.0730, 550.6670
207.2950, 542.4907
208.5160, 614.7805
209.7360, 735.2012
210.9570, 850.8918
212.1780, 1024.543
213.3980, 1167.238
214.6180, 1284.969
215.8380, 1470.734
217.0580, 1596.532
218.2780, 1765.353
219.4980, 1975.178
220.7170, 2033.017
221.9360, 2102.878
223.1560, 2079.768
224.3750, 2064.687
225.5930, 1993.636
226.8120, 1859.618
228.0310, 1658.633
229.2490, 1662.682
230.4670, 1386.765
231.6850, 1343.887
232.9030, 1241.053
234.1210, 1024.260
235.3380, 956.5330
236.5560, 792.8623
237.7730, 688.2600
238.9900, 653.7722
240.2070, 491.3875
241.4240, 477.0518
242.6410, 357.7515
243.8570, 386.5093
245.0730, 372.3157
246.2900, 276.1492
247.5060, 266.0076
248.7210, 235.8860
249.9370, 230.7761
251.1530, 207.7205
252.3680, 168.5806
253.5830, 171.4941
254.7980, 161.4150
256.0130, 150.3430
257.2280, 58.27808
258.4430, 167.2202
259.6570, 179.1694
260.8720, 35.12549
262.0860, 15.08813
263.3000, 38.05762
264.5130, 31.96680
265.7270, 99.98511
266.9410, 55.99756
268.1540, 5.004150
269.3670, 74.00513
270.5800, 57.00122
271.7930, 117.9922
273.0060, 107.9790
274.2190, 24.96069
275.4310, 34.93848
276.6430, 24.91260
277.8550, 20.10962
279.0670, 21.06445
280.2790, 72.98950
281.4910, 77.84619
282.7020, 119.6208
283.9140, 118.3757
285.1250, 151.1328
286.3360, 223.8967
287.5470, 224.6675
288.7570, 264.4448
289.9680, 243.2288
291.1780, 247.2485
292.3880, 242.7002
293.5990, 229.5049
294.8080, 219.1184
296.0180, 214.7109
297.2280, 208.3979
298.4370, 211.2346
299.6470, 145.9998
300.8560, 177.8938
302.0650, 146.8391
303.2740, 106.8293
304.4820, 103.8594
305.6910, 156.9255
306.8990, 77.02368
308.1070, 116.1501
309.3150, 99.30127
310.5230, 73.49121
311.7310, 99.71436
312.9390, 122.9722
314.1460, 157.2705
315.3530, 137.6074
316.5600, 205.9863
317.7670, 165.7339
318.9740, 182.4243
320.1810, 222.8862
321.3870, 256.6965
322.5930, 255.3027
323.8000, 375.5095
325.0060, 294.4634
326.2110, 399.8103
327.4170, 432.1604
328.6230, 544.2422
329.8280, 563.6887
331.0330, 562.1357
332.2380, 605.3240
333.4430, 536.7883
334.6480, 562.0112
335.8530, 588.2756
337.0570, 507.2839
338.2610, 514.4360
339.4650, 449.1448
340.6690, 557.9104
341.8730, 436.2061
343.0770, 484.1821
344.2800, 505.4785
345.4840, 473.0249
346.6870, 484.1157
347.8900, 471.5591
349.0930, 456.7961
350.2950, 453.3218
351.4980, 473.7634
352.7000, 503.4011
353.9030, 581.4727
355.1050, 614.7173
356.3070, 716.9375
357.5080, 816.1621
358.7100, 922.3906
359.9110, 1094.623
361.1130, 1205.858
362.3140, 1500.097
363.5150, 1619.340
364.7160, 1766.585
365.9160, 1964.834
367.1170, 2041.085
368.3170, 2133.339
369.5170, 2132.596
370.7170, 2147.855
371.9170, 1946.116
373.1170, 1922.379
374.3170, 1799.645
375.5160, 1748.911
376.7150, 1559.179
377.9140, 1459.448
379.1130, 1437.718
380.3120, 1436.988
381.5110, 1332.259
382.7090, 1354.530
383.9070, 1410.799
385.1060, 1356.068
386.3040, 1407.335
387.5010, 1497.600
388.6990, 1577.863
389.8970, 1574.124
391.0940, 1600.383
392.2910, 1609.638
393.4880, 1523.891
394.6850, 1378.142
395.8820, 1291.388
397.0780, 1144.633
398.2750, 1020.874
399.4710, 915.4604
400.6670, 798.8999
401.8630, 699.5771
403.0590, 625.8047
404.2540, 566.0469
405.4500, 514.2498
406.6450, 511.4666
407.8400, 494.7537
409.0350, 520.3994
410.2300, 528.3125
411.4250, 577.7771
412.6190, 572.0798
413.8140, 577.1445
415.0080, 557.5503
416.2020, 556.3105
417.3960, 521.0254
418.5900, 532.7493
419.7830, 483.3135
420.9770, 457.3687
422.1700, 416.5361
423.3630, 412.6995
424.5560, 391.8596
425.7490, 290.0166
426.9410, 309.1709
428.1340, 212.3225
429.3260, 245.4712
430.5180, 222.6177
431.7100, 279.7615
432.9020, 200.9023
434.0940, 281.0408
435.2850, 207.1804
436.4770, 180.3206
437.6680, 226.4609
438.8590, 110.6006
440.0500, 188.7390
441.2410, 115.8750
442.4310, 152.0088
443.6220, 96.13989
444.8120, 149.2678
446.0020, 47.39233
447.1920, 81.51343
448.3820, 37.66821
449.5710, 68.85083
450.7610, 101.2156
451.9500, 17.53784
453.1390, 6.742432
454.3280, 30.19360
455.5170, 44.27393
456.7060, 38.96387
457.8940, 72.08594
459.0830, 41.87964
460.2710, 5.795410
461.4590, 11.88574
462.6470, 46.45410
463.8350, 13.48901
465.0220, 29.36621
466.2100, 12.16553
467.3970, 12.46069
468.5840, 2.662109
469.7710, 5.303223
470.9580, 6.198486
472.1440, 6.134766
473.3310, 57.80933
474.5170, 5.780762
475.7030, 41.96191
476.8890, 6.177979
478.0750, 12.57080
479.2610, 23.30273
480.4460, 17.02051
481.6320, 43.72266
482.8170, 1.413086
484.0020, 22.91870
485.1870, 25.71484
486.3710, 12.33447
487.5560, 96.93677
488.7400, 20.52856
489.9250, 92.10498
491.1090, 18.67163
492.2930, 79.22217
493.4760, 143.7625
494.6600, 161.2932
495.8440, 124.8142
497.0270, 153.3257
498.2100, 163.8284
499.3930, 221.3220
500.5760, 303.8066
501.7580, 305.2825
502.9410, 303.7490
504.1230, 290.2068
505.3060, 360.6553
506.4880, 397.0945
507.6690, 400.5244
508.8510, 506.9453
510.0330, 525.3569
511.2140, 538.7590
512.3950, 556.1521
513.5760, 572.2756
514.7570, 570.9097
515.9380, 616.2744
517.1190, 630.6296
518.2990, 676.9753
519.4800, 678.3115
520.6600, 742.6382
521.8400, 703.9553
523.0190, 735.2627
524.1990, 755.5608
525.3790, 807.8491
526.5580, 854.1274
527.7370, 863.3965
528.9160, 905.6562
530.0950, 912.9060
531.2740, 889.1462
532.4520, 967.3762
533.6310, 996.5972
534.8090, 908.8081
535.9870, 937.0095
537.1650, 992.2014
538.3430, 885.3833
539.5200, 862.5557
540.6980, 896.7183
541.8750, 917.8713
543.0520, 914.3716
544.2290, 925.6384
545.4060, 900.2722
546.5820, 914.3867
547.7590, 852.4917
548.9350, 832.5864
550.1110, 848.6721
551.2870, 825.9338
552.4630, 816.8511
553.6390, 838.9497
554.8140, 830.0408
555.9900, 845.1387
557.1650, 893.2395
558.3400, 930.3589
559.5150, 932.2637
560.6900, 944.1665
561.8640, 932.7766
563.0390, 918.9121
564.2130, 906.0378
565.3870, 873.1589
566.5610, 914.2808
567.7350, 840.4053
568.9080, 848.5366
570.0820, 856.6780
571.2550, 785.8169
572.4280, 815.9634
573.6010, 736.1172
574.7740, 683.2651
575.9470, 606.4207
577.1190, 557.1448
578.2920, 520.7263
579.4640, 468.8755
580.6360, 405.0151
581.8080, 379.1450
582.9790, 288.2688
584.1510, 267.3933
585.3220, 177.5088
586.4940, 89.61426
587.6650, 102.7107
588.8360, 64.79712
590.0060, 59.87378
591.1770, 41.93994
592.3470, 44.99414
593.5180, 41.96362
594.6880, 29.96680
595.8580, 40.00977
597.0280, 71.09717
598.1970, 67.24585
599.3670, 83.45337
600.5360, 37.72852
601.7050, 22.38745
602.8740, 51.00049
604.0430, 8.404785
605.2120, 6.169189
606.3800, 31.74561
607.5490, 19.04956
608.7170, 12.91748
609.8850, 52.29907
611.0530, 2.715332
612.2210, 32.88135
613.3880, 2.860840
614.5560, 34.99292
615.7230, 57.67114
616.8900, 48.06445
618.0570, 53.69141
619.2240, 69.26904
620.3900, 160.0957
621.5570, 135.7705
622.7230, 157.8813
623.8890, 175.9287
625.0550, 168.4387
626.2210, 208.2605
627.3870, 221.7551
628.5520, 308.9929
629.7180, 272.6792
630.8830, 353.9043
632.0480, 297.5310
633.2130, 440.7444
634.3770, 441.9519
635.5420, 521.1533
636.7060, 463.3496
637.8710, 586.5400
639.0350, 606.7246
640.1990, 707.9038
641.3620, 782.0776
642.5260, 820.2458
643.6890, 948.4089
644.8530, 1108.567
646.0160, 1132.720
647.1790, 1271.867
648.3410, 1449.010
649.5040, 1567.147
650.6670, 1705.796
651.8290, 1756.407
652.9910, 1958.531
654.1530, 2097.648
655.3150, 2232.763
656.4770, 2572.872
657.6380, 2735.977
658.7990, 3082.077
659.9610, 3480.173
661.1220, 3944.265
662.2830, 4429.354
663.4430, 5065.436
664.6040, 5876.516
665.7640, 6737.592
666.9240, 7683.664
668.0850, 8458.732
669.2440, 9314.798
670.4040, 9934.856
671.5640, 10098.92
672.7230, 10173.97
673.8830, 9754.019
675.0420, 8974.064
676.2010, 8090.109
677.3590, 7120.150
678.5180, 6093.188
679.6770, 5209.222
680.8350, 4430.255
681.9930, 3766.284
683.1510, 3277.310
684.3090, 2951.333
685.4670, 2604.354
686.6240, 2457.373
687.7810, 2238.390
688.9390, 2115.403
690.0960, 1993.416
691.2530, 1844.425
692.4090, 1852.433
693.5660, 1730.438
694.7220, 1698.441
695.8790, 1641.442
697.0350, 1687.441
698.1910, 1670.763
699.3460, 1590.654
700.5020, 1617.647
701.6570, 1601.637
702.8130, 1709.626
703.9680, 1670.608
705.1230, 1677.824
706.2780, 1796.470
707.4320, 1689.163
708.5870, 1853.415
709.7410, 1842.885
710.8950, 1928.732
712.0490, 2021.485
713.2030, 2102.262
714.3570, 2144.883
715.5100, 2199.916
716.6640, 2236.860
717.8170, 2268.527
718.9700, 2336.480
720.1230, 2398.431
721.2760, 2433.929
722.4280, 2494.321
723.5810, 2493.208
724.7330, 2579.148
725.8850, 2468.087
727.0370, 2484.022
728.1890, 2552.918
729.3400, 2568.780
730.4920, 2577.452
731.6430, 2482.162
732.7940, 2549.982
733.9450, 2583.548
735.0960, 2449.479
736.2460, 2357.455
737.3970, 2302.670
738.5470, 2327.868
739.6970, 2331.936
740.8470, 2212.973
741.9970, 2041.221
743.1470, 2062.148
744.2970, 2052.223
745.4460, 1949.700
746.5950, 1911.004
747.7440, 1727.726
748.8930, 1719.995
750.0420, 1582.397
751.1900, 1549.950
752.3390, 1453.771
753.4870, 1288.590
754.6350, 1353.606
755.7830, 1193.633
756.9310, 1134.682
758.0780, 1082.738
759.2260, 1002.800
760.3730, 953.8687
761.5200, 904.9429
762.6670, 850.5537
763.8140, 825.3203
764.9610, 773.2373
766.1070, 761.3540
767.2530, 751.4753
768.4000, 687.6042
769.5460, 641.7383
770.6910, 627.5505
771.8370, 598.1328
772.9830, 589.1812
774.1280, 595.3394
775.2730, 578.5032
776.4180, 611.6724
777.5630, 609.8477
778.7080, 567.0288
779.8520, 553.2153
780.9970, 579.4082
782.1410, 523.6067
783.2850, 588.8118
784.4290, 447.0225
785.5730, 516.2397
786.7160, 572.4634
787.8600, 503.6931
789.0030, 502.9297
790.1460, 442.1731
791.2890, 472.4229
792.4320, 469.6792
793.5750, 467.9429
794.7170, 472.3713
795.8590, 466.4907
797.0020, 458.7756
798.1440, 389.0674
799.2850, 370.3665
800.4270, 420.6729
801.5690, 446.9868
802.7100, 312.3081
803.8510, 317.6372
804.9920, 245.9739
806.1330, 310.3181
807.2740, 238.6704
808.4140, 242.0305
809.5550, 300.3987
810.6950, 272.7749
811.8350, 220.1597
812.9750, 238.5520
814.1150, 200.9531
815.2540, 180.3625
816.3940, 182.7803
817.5330, 189.2068
818.6720, 152.6414
819.8110, 119.0847
820.9500, 164.5371
822.0880, 55.99805
823.2270, 93.46802
824.3650, 81.94653
825.5030, 157.4346
826.6410, 141.9312
827.7790, 79.43701
828.9170, 56.95215
830.0540, 49.47632
831.1920, 51.01001
832.3290, 74.55298
833.4660, 4.105469
834.6030, 7.333252
835.7390, 41.76660
836.8760, 15.79199
838.0120, 13.36035
839.1480, 9.938232
840.2840, 23.47412
841.4200, 48.88623
842.5560, 57.30933
843.6920, 76.74634
844.8270, 87.19385
845.9620, 34.69507
847.0970, 80.18799
848.2320, 78.70435
849.3670, 20.24438
850.5020, 76.78271
851.6360, 26.34302
852.7700, 64.90332
853.9040, 18.48047
855.0380, 7.945557
856.1720, 63.38257
857.3060, 15.17017
858.4390, 54.71826
859.5730, 9.722900
860.7060, 32.17456
861.8390, 9.637451
862.9720, 24.11108
864.1040, 26.59570
865.2370, 20.09155
866.3690, 26.59937
867.5010, 82.11938
868.6330, 96.65137
869.7650, 62.21362
870.8970, 104.8015
872.0290, 79.41870
873.1600, 109.0730
874.2910, 130.7637
875.4220, 123.4956
876.5530, 137.2573
877.6840, 190.0437
878.8140, 147.8623
879.9450, 137.7019
881.0750, 139.5618
882.2050, 186.4490
883.3350, 186.3508
884.4650, 224.2747
885.5950, 263.2312
886.7240, 222.2065
887.8530, 240.2100
888.9820, 299.2373
890.1110, 224.2864
891.2400, 294.3516
892.3690, 318.4316
893.4970, 323.5273
894.6260, 320.6377
895.7540, 315.7598
896.8820, 238.8967
898.0100, 264.0510
899.1370, 244.2217
900.2650, 335.4209
901.3920, 255.6426
902.5200, 319.8896
903.6470, 245.1499
904.7730, 351.4326
905.9000, 225.7327
907.0270, 256.0447
908.1530, 304.3708
909.2790, 324.7087
910.4050, 336.0586
911.5310, 298.4199
912.6570, 284.7932
913.7830, 259.1782
914.9080, 253.5754
916.0330, 361.9856
917.1580, 366.4087
918.2830, 389.8428
919.4080, 419.2913
920.5330, 375.7510
921.6570, 457.2266
922.7820, 436.7141
923.9060, 377.2136
925.0300, 466.7346
926.1540, 441.2708
927.2770, 422.8181
928.4010, 455.3906
929.5240, 401.9761
930.6470, 442.5747
931.7700, 443.1902
932.8930, 394.8167
934.0160, 413.4543
935.1380, 399.0000
936.2610, 398.7642
937.3830, 397.4363
938.5050, 367.1206
939.6270, 367.8208
940.7490, 338.5491
941.8700, 287.2886
942.9910, 318.0410
944.1130, 309.8054
945.2340, 265.5806
946.3550, 382.3730
947.4750, 345.1792
948.5960, 269.0005
949.7160, 327.8357
950.8370, 304.6819
951.9570, 285.5386
953.0770, 279.4062
954.1970, 240.2913
955.3160, 326.1870
956.4360, 208.0947
957.5550, 185.0127
958.6740, 152.9490
959.7930, 221.8962
960.9120, 272.8542
962.0310, 251.8308
963.1490, 319.8191
964.2670, 258.8179
965.3860, 218.8269
966.5040, 238.8457
967.6210, 240.8779
968.7390, 212.9204
969.8570, 242.6484
970.9740, 174.8159
972.0910, 229.8901
973.2080, 157.9744
974.3250, 228.0688
975.4420, 197.1785
976.5580, 219.0625
977.6750, 198.5249
978.7910, 201.2556
979.9070, 248.8206
981.0230, 228.4829
982.1390, 214.7769
983.2540, 268.1721
984.3700, 222.5522
985.4850, 241.0972
986.6000, 218.2388
987.7150, 172.4773
988.8300, 180.0029
989.9450, 195.2495
991.0590, 207.5066
992.1730, 217.2256
993.2880, 247.7937
994.4010, 286.4070
995.5150, 305.7095
996.6290, 355.0229
997.7420, 364.3474
998.8560, 399.6829
999.9690, 485.0298
1001.082, 487.3877
1002.195, 628.7568
1003.307, 530.1372
1004.420, 494.5283
1005.532, 584.9297
1006.645, 583.3411
1007.757, 533.7632
1008.868, 563.2607
1009.980, 616.8687
1011.092, 554.3196
1012.203, 640.7800
1013.314, 708.2500
1014.425, 592.7285
1015.536, 643.2166
1016.647, 712.7131
1017.758, 652.2183
1018.868, 677.7324
1019.978, 773.2549
1021.088, 755.8296
1022.198, 754.8279
1023.308, 847.3728
1024.418, 844.8955
1025.527, 936.0874
1026.637, 925.5762
1027.746, 940.7290
1028.855, 1039.313
1029.963, 1062.629
1031.072, 1047.431
1032.181, 991.1558
1033.289, 955.6909
1034.397, 994.8320
1035.505, 938.6758
1036.613, 908.6602
1037.721, 903.7048
1038.828, 835.6724
1039.935, 883.4009
1041.043, 821.5920
1042.150, 834.3000
1043.257, 909.0396
1044.363, 873.7856
1045.470, 917.4590
1046.576, 868.2202
1047.682, 910.0916
1048.788, 967.0879
1049.894, 965.9717
1051.000, 1005.687
1052.106, 1107.935
1053.211, 1046.639
1054.316, 1132.379
1055.421, 1204.110
1056.526, 1186.013
1057.631, 1237.996
1058.736, 1370.597
1059.840, 1303.325
1060.944, 1319.180
1062.049, 1325.335
1063.153, 1276.494
1064.256, 1308.403
1065.360, 1244.146
1066.463, 1174.892
1067.567, 1153.641
1068.670, 1027.600
1069.773, 1018.354
1070.876, 867.3262
1071.978, 788.1797
1073.081, 766.9241
1074.183, 719.7295
1075.285, 716.9189
1076.387, 641.8740
1077.489, 586.6863
1078.591, 493.8237
1079.692, 512.2417
1080.794, 488.9551
1081.895, 488.3728
1082.996, 503.1587
1084.097, 484.9768
1085.198, 435.7800
1086.298, 381.0659
1087.399, 405.8801
1088.499, 359.8713
1089.599, 357.6865
1090.699, 294.2039
1091.799, 302.0759
1092.898, 348.9858
1093.998, 252.6643
1095.097, 241.7397
1096.196, 259.5176
1097.295, 191.2949
1098.394, 242.0715
1099.492, 237.5566
1100.591, 261.3313
1101.689, 235.1624
1102.787, 214.9404
1103.885, 259.9617
1104.983, 164.7463
1106.081, 187.5806
1107.178, 227.5532
1108.275, 160.3386
1109.373, 164.1870
1110.470, 154.9915
1111.566, 147.8406
1112.663, 142.8064
1113.760, 140.5176
1114.856, 137.3896
1115.952, 100.2605
1117.048, 118.1731
1118.144, 68.12305
1119.240, 49.04150
1120.335, 89.05811
1121.431, 58.96021
1122.526, 65.85986
1123.621, 96.75659
1124.716, 113.7292
1125.810, 137.6335
1126.905, 119.5354
1127.999, 131.7888
1129.094, 67.32886
1130.188, 98.22192
1131.282, 121.2600
1132.375, 45.24170
1133.469, 98.12427
1134.562, 47.16699
1135.656, 56.04199
1136.749, 64.91260
1137.842, 52.77930
1138.935, 7.696045
1140.027, 2.442627
1141.120, 4.589844
1142.212, 15.33203
1143.304, 6.422119
1144.396, 56.00977
1145.488, 21.84180
1146.579, 5.668945
1147.671, 40.49121
1148.762, 32.30835
1149.853, 43.12012
1150.944, 30.92725
1152.035, 0.7290040
1153.126, 21.47607
1154.216, 29.69971
1155.307, 12.94678
1156.397, 7.208496
1157.487, 11.48218
1158.577, 5.673340
1159.667, 15.93018
1160.756, 7.375488
1161.846, 14.69385
1162.935, 13.02954
1164.024, 57.38135
1165.113, 34.77344
1166.201, 45.58252
1167.290, 0.3520510
1168.378, 32.11255
1169.467, 14.60474
1170.555, 9.884766
1171.643, 1.544189
1172.730, 14.09888
1173.818, 12.29956
1174.905, 12.75513
1175.993, 31.20288
1177.080, 13.69580
1178.167, 8.128662
1179.254, 4.552979
1180.340, 8.967285
1181.427, 27.37231
1182.513, 0.7705080
1183.599, 37.15576
1184.685, 6.465820
1185.771, 30.89600
1186.856, 12.25000
1187.942, 25.40503
1189.027, 3.087158
1190.112, 51.21509
1191.197, 38.48999
1192.282, 5.770264
1193.367, 6.024170
1194.451, 6.738770
1195.536, 55.48022
1196.620, 54.69165
1197.704, 61.50122
1198.788, 16.12109
1199.872, 57.30713
1200.955, 16.56494
1202.039, 4.267090
1203.122, 50.11670
1204.205, 36.99170
1205.288, 9.091553
1206.370, 20.17944
1207.453, 38.25781
1208.535, 7.672852
1209.618, 4.376465
1210.700, 0.5886230
1211.782, 5.280029
1212.863, 50.28418
1213.945, 43.44971
1215.026, 47.75586
1216.108, 8.584961
1217.189, 46.37158
1218.270, 23.31958
1219.351, 47.31396
1220.431, 11.75513
1221.512, 36.23706
1222.592, 32.13306
1223.672, 13.98096
1224.752, 19.88013
1225.832, 69.72974
1226.911, 75.57080
1227.991, 70.54175
1229.070, 6.366211
1230.149, 79.17480
1231.228, 48.61499
1232.307, 89.49219
1233.386, 26.28564
1234.464, 79.11450
1235.543, 50.90137
1236.621, 30.65503
1237.699, 67.46484
1238.777, 51.19946
1239.855, 92.92456
1240.932, 57.64062
1242.009, 67.34741
1243.087, 80.04541
1244.164, 62.22778
1245.241, 76.49292
1246.317, 57.16260
1247.394, 51.83643
1248.470, 60.75146
1249.546, 42.44360
1250.623, 110.0742
1251.698, 146.6953
1252.774, 108.3069
1253.850, 50.90869
1254.925, 98.50049
1256.000, 76.16919
1257.076, 90.79907
1258.150, 83.36206
1259.225, 84.23047
1260.300, 40.77441
1261.374, 48.39429
1262.449, 89.00903
1263.523, 39.52197
1264.597, 72.02417
1265.670, 74.51636
1266.744, 134.0186
1267.818, 59.56128
1268.891, 72.02490
1269.964, 105.4126
1271.037, 54.69092
1272.110, 122.1252
1273.183, 132.5928
1274.255, 107.0085
1275.327, 105.4194
1276.400, 100.8210
1277.472, 123.2131
1278.543, 120.5967
1279.615, 115.9707
1280.687, 142.3354
1281.758, 125.6467
1282.829, 120.5339
1283.900, 100.8735
1284.971, 120.2341
1286.042, 124.9250
1287.112, 136.3181
1288.183, 145.0476
1289.253, 90.34375
1290.323, 174.9077
1291.393, 160.9832
1292.463, 118.1345
1293.532, 147.4788
1294.602, 132.2112
1295.671, 141.2395
1296.740, 96.12573
1297.809, 146.9497
1298.878, 161.8489
1299.946, 83.98511
1301.015, 109.6570
1302.083, 84.80884
1303.151, 130.9282
1304.219, 125.0376
1305.287, 42.21802
1306.354, 73.30762
1307.422, 104.2842
1308.489, 55.13354
1309.556, 85.09497
1310.623, 65.22266
1311.690, 140.8137
1312.757, 118.9426
1313.823, 59.03345
1314.890, 117.1304
1315.956, 94.05200
1317.022, 88.88989
1318.088, 113.1079
1319.153, 96.19458
1320.219, 80.15039
1321.284, 45.80396
1322.349, 85.44897
1323.414, 93.34033
1324.479, 61.39453
1325.544, 38.44238
1326.608, 93.47974
1327.673, 134.3018
1328.737, 26.32666
1329.801, 64.12915
1330.865, 45.04639
1331.929, 46.06860
1332.992, 95.02637
1334.056, 52.59570
1335.119, 120.3958
1336.182, 55.33105
1337.245, 81.93677
1338.308, 59.25781
1339.370, 12.72144
1340.433, 42.59155
1341.495, 3.532227
1342.557, 48.43604
1343.619, 38.35059
1344.681, 88.77612
1345.742, 68.66919
1346.804, 21.38062
1347.865, 34.26392
1348.926, 12.43970
1349.987, 77.25391
1351.048, 57.02515
1352.108, 74.02295
1353.169, 89.61914
1354.229, 37.50806
1355.289, 1.392822
1356.349, 60.27295
1357.409, 60.43994
1358.469, 12.68774
1359.528, 9.124268
1360.588, 26.98560
1361.647, 15.60791
1362.706, 23.46191
1363.765, 51.26099
1364.823, 12.91724
1365.882, 53.76025
1366.940, 84.57495
1367.998, 52.41089
1369.056, 76.21313
1370.114, 51.04248
1371.172, 38.86890
1372.229, 8.676270
1373.287, 39.49585
1374.344, 24.27271
1375.401, 5.977051
1376.458, 14.80396
1377.515, 49.61792
1378.571, 80.42188
1379.628, 65.22290
1380.684, 34.02173
1381.740, 44.74170
1382.796, 5.535400
1383.852, 12.32642
1384.907, 59.11523
1385.963, 8.072754
1387.018, 51.71045
1388.073, 3.656738
1389.128, 50.02686
1390.183, 40.80371
1391.237, 55.41528
1392.292, 39.18896
1393.346, 19.96143
1394.400, 7.732666
1395.454, 43.44873
1396.508, 52.21484
1397.562, 67.98364
1398.615, 56.67700
1399.668, 13.44556
1400.722, 25.27002
1401.775, 24.07397
1402.827, 68.84106
1403.880, 92.60767
1404.933, 65.48657
1405.985, 83.79590
1407.037, 64.02002
1408.089, 58.78711
1409.141, 32.55347
1410.193, 33.02808
1411.244, 30.17944
1412.295, 38.14429
1413.347, 35.71777
1414.398, 56.59521
1415.449, 51.97852
1416.499, 63.78271
1417.550, 81.59253
1418.600, 53.40967
1419.650, 21.37280
1420.700, 63.22876
1421.750, 94.08154
1422.800, 76.91699
1423.850, 49.75537
1424.899, 74.68384
1425.948, 66.40259
1426.997, 86.35986
1428.046, 77.18701
1429.095, 101.0107
1430.144, 87.82031
1431.192, 81.36523
1432.240, 82.36450
1433.288, 65.15063
1434.336, 91.57690
1435.384, 108.3762
1436.432, 99.15356
1437.479, 145.7083
1438.526, 117.0471
1439.574, 135.8137
1440.621, 156.5793
1441.667, 130.3635
1442.714, 123.1602
1443.760, 97.96558
1444.807, 110.7847
1445.853, 153.5667
1446.899, 108.2925
1447.945, 190.1057
1448.990, 114.9570
1450.036, 106.8108
1451.081, 107.6697
1452.126, 185.5894
1453.171, 111.2717
1454.216, 107.1428
1455.261, 169.0276
1456.305, 101.8447
1457.350, 83.64478
1458.394, 92.55737
1459.438, 154.4824
1460.482, 79.23975
1461.526, 98.38721
1462.569, 123.1924
1463.612, 91.01709
1464.656, 96.86108
1465.699, 90.79102
1466.742, 107.7222
1467.784, 83.65527
1468.827, 111.4849
1469.869, 126.0498
1470.912, 71.91528
1471.954, 109.8521
1472.996, 88.79175
1474.037, 86.53345
1475.079, 88.03125
1476.120, 41.71704
1477.162, 47.66138
1478.203, 94.61084
1479.244, 79.43262
1480.284, 114.3889
1481.325, 121.3501
1482.365, 125.2500
1483.406, 72.20435
1484.446, 57.16235
1485.486, 44.12378
1486.526, 29.37500
1487.565, 52.05981
1488.605, 41.02954
1489.644, 46.99902
1490.683, 83.97144
1491.722, 13.94043
1492.761, 39.91675
1493.800, 127.8962
1494.838, 52.87744
1495.876, 54.86206
1496.915, 60.84985
1497.953, 59.84277
1498.990, 38.84058
1500.028, 25.83350
1501.066, 61.83936
1502.103, 2.144043
1503.140, 89.87891
1504.177, 66.90894
1505.214, 26.94653
1506.251, 76.99170
1507.287, 62.04297
1508.324, 50.65942
1509.360, 72.55640
1510.396, 18.30103
1511.432, 76.40210
1512.468, 53.52100
1513.503, 34.65894
1514.538, 30.80664
1515.574, 39.96240
1516.609, 43.90283
1517.644, 50.77100
1518.678, 73.51562
1519.713, 54.74048
1520.747, 66.98022
1521.782, 39.23535
1522.816, 87.50439
1523.850, 56.78809
1524.883, 16.08691
1525.917, 18.59863
1526.951, 38.73267
1527.984, 40.97632
1529.017, 5.342285
1530.050, 98.72876
1531.083, 47.13770
1532.115, 84.57080
1533.148, 71.51685
1534.180, 17.98364
1535.212, 66.47754
1536.244, 2.000000
1537.276, 2.427490
1538.308, 5.6150001E-03
1539.339, 26.61597
1540.370, 131.2605
1541.402, 101.9407
1542.433, 90.65796
1543.463, 12.41479
1544.494, 26.75000
1545.525, 31.14624
1546.555, 60.67065
1547.585, 86.98584
1548.615, 20.69238
1549.645, 88.23218
1550.675, 49.16846
1551.704, 79.09912
1552.734, 74.24609
1553.763, 71.86719
1554.792, 105.4326
1555.821, 109.5425
1556.849, 70.97876
1557.878, 22.42725
1558.906, 0.8398440
1559.935, 52.42432
1560.963, 35.14893
1561.991, 0.0000000E+00
##END=



