##NAMES=Actinolite
##RRUFFID=R050025
##IDEAL CHEMISTRY=Ca_2_(Mg_4.5-2.5_Fe^2+^_0.5-2.5_)Si_8_O_22_(OH)_2_
##LOCALITY=Tyrol, Austria
##OWNER=RRUFF
##SOURCE=Eugene Schlepp
##DESCRIPTION=Green colored bladed single crystals
##STATUS=The identification of this mineral has been confirmed by X-ray diffraction and chemical analysis
##URL=rruff.info/R050025
##MEASURED CHEMISTRY=(Ca_.930_Na_.056_Mn_.010_K_.004_)_2_(Mg_.883_Fe_.117_)_5_(Si_.978_Al_.022_)_8_O_22_(OH)_2_
##PIN_ID=L00067
##ORIENTATION=Laser parallel to (1 0 1). Fiducial mark perpendicular to laser is parallel to -b [0 -1 0]
82.916, 0.000
84.311, 165.604
85.706, 5.168
87.101, 130.409
88.496, 88.238
89.890, 300.822
91.284, 484.611
92.678, 419.490
94.071, 475.659
95.465, 318.526
96.858, 255.900
98.251, 249.241
99.644, 200.044
101.036, 191.798
102.428, 272.585
103.820, 398.477
105.212, 582.332
106.604, 868.036
107.995, 813.618
109.387, 1163.826
110.777, 1442.132
112.168, 2015.143
113.559, 2803.757
114.949, 2935.897
116.339, 3123.492
117.729, 2459.484
119.119, 1961.825
120.508, 1448.475
121.897, 1110.397
123.286, 786.644
124.675, 533.957
126.063, 368.543
127.452, 302.300
128.840, 241.212
130.228, 177.402
131.615, 120.594
133.003, 151.472
134.390, 28.835
135.777, 89.710
137.164, 84.131
138.550, 278.443
139.937, 174.663
141.323, 121.803
142.709, 110.897
144.094, 32.033
145.480, 171.108
146.865, 77.133
148.250, 111.115
149.635, 161.059
151.019, 451.970
152.403, 863.851
153.788, 1549.707
155.171, 2388.541
156.555, 3393.355
157.939, 4463.153
159.322, 5541.936
160.705, 5304.707
162.088, 4511.466
163.470, 3502.217
164.853, 2676.961
166.235, 2138.684
167.617, 1931.336
168.998, 2092.942
170.380, 2579.520
171.761, 3440.083
173.142, 4347.638
174.523, 5758.194
175.904, 7295.755
177.284, 8131.069
178.664, 8322.799
180.044, 7304.193
181.424, 5917.886
182.803, 4416.960
184.183, 3283.114
185.562, 2526.188
186.940, 1987.331
188.319, 1656.545
189.698, 1369.846
191.076, 1235.230
192.454, 1088.684
193.831, 1075.206
195.209, 1008.796
196.586, 901.445
197.963, 1003.147
199.340, 1016.909
200.717, 1026.724
202.093, 1132.226
203.470, 1331.160
204.846, 1545.061
206.221, 1639.004
207.597, 2055.993
208.972, 2408.029
210.347, 2951.113
211.722, 3556.234
213.097, 4367.392
214.472, 5719.581
215.846, 7233.798
217.220, 9148.035
218.594, 11125.294
219.967, 13148.571
221.341, 14583.872
222.714, 14874.193
224.087, 14318.532
225.460, 13105.890
226.832, 11920.269
228.204, 10804.661
229.577, 10145.073
230.948, 9634.503
232.320, 8795.948
233.692, 7546.412
235.063, 6090.891
236.434, 4755.385
237.805, 3715.895
239.175, 2881.419
240.545, 2426.958
241.916, 2079.509
243.286, 1945.076
244.655, 2092.654
246.025, 2232.246
247.394, 2426.850
248.763, 2546.780
250.132, 2497.926
251.501, 2371.812
252.869, 2255.397
254.237, 1939.194
255.605, 1656.171
256.973, 1442.306
258.340, 1332.577
259.708, 1103.970
261.075, 1061.473
262.442, 984.072
263.808, 958.761
265.175, 665.531
266.541, 374.374
267.907, 326.285
269.273, 226.264
270.639, 104.675
272.004, 58.553
273.369, 94.388
274.734, 141.205
276.099, 149.982
277.463, 169.096
278.828, 177.332
280.192, 172.007
281.556, 154.621
282.919, 138.209
284.283, 79.753
285.646, 70.726
287.009, 106.236
288.372, 184.966
289.734, 310.762
291.097, 209.536
292.459, 267.437
293.821, 294.244
295.183, 392.604
296.544, 541.405
297.905, 718.243
299.266, 925.314
300.627, 957.333
301.988, 1053.379
303.348, 974.748
304.709, 928.660
306.069, 752.123
307.428, 612.908
308.788, 557.639
310.147, 399.095
311.507, 370.513
312.865, 208.575
314.224, 184.607
315.583, 189.674
316.941, 177.439
318.299, 135.418
319.657, 15.807
321.015, 89.922
322.372, 36.250
323.729, 105.469
325.086, 166.188
326.443, 236.908
327.800, 297.957
329.156, 380.677
330.512, 557.543
331.868, 588.631
333.224, 625.899
334.579, 747.092
335.935, 702.966
337.290, 787.690
338.645, 816.415
339.999, 1017.141
341.354, 1209.827
342.708, 1478.459
344.062, 1785.981
345.416, 2248.372
346.769, 2637.642
348.123, 3153.839
349.476, 3436.042
350.829, 3673.250
352.182, 3497.467
353.534, 3614.688
354.887, 3361.916
356.239, 3113.148
357.591, 3048.386
358.942, 2954.628
360.294, 3394.874
361.645, 3481.124
362.996, 4133.377
364.347, 4958.633
365.698, 5849.883
367.048, 6861.122
368.398, 7574.363
369.748, 7939.607
371.098, 7440.852
372.448, 6620.099
373.797, 5833.347
375.146, 4742.598
376.495, 4207.849
377.844, 3563.101
379.192, 3038.351
380.540, 2683.604
381.889, 2550.855
383.236, 2596.107
384.584, 2573.359
385.932, 2768.610
387.279, 3421.861
388.626, 3938.111
389.973, 4485.359
391.319, 4913.607
392.666, 5508.854
394.012, 5219.100
395.358, 4651.342
396.704, 3861.583
398.049, 3008.821
399.394, 2294.059
400.740, 1815.292
402.084, 1580.523
403.429, 1303.752
404.774, 1389.977
406.118, 1593.198
407.462, 1623.418
408.806, 1845.633
410.150, 2148.844
411.493, 2443.061
412.836, 3077.281
414.179, 3232.507
415.522, 3403.730
416.865, 3437.957
418.207, 3115.182
419.549, 2731.405
420.891, 2308.895
422.233, 1902.313
423.575, 1517.709
424.916, 1279.381
426.257, 1099.035
427.598, 951.511
428.939, 978.486
430.279, 966.197
431.619, 1089.556
432.959, 1152.850
434.299, 1269.125
435.639, 1251.007
436.978, 1133.536
438.318, 1111.035
439.657, 849.504
440.996, 540.451
442.334, 515.078
443.673, 300.853
445.011, 203.914
446.349, 119.213
447.687, 157.233
449.024, 53.624
450.361, 47.647
451.699, 69.779
453.036, 50.912
454.372, 80.379
455.709, 16.896
457.045, 98.064
458.381, 93.050
459.717, 24.375
461.053, 53.625
462.388, 48.661
463.724, 25.595
465.059, 84.583
466.394, 23.439
467.728, 118.201
469.063, 162.945
470.397, 207.673
471.731, 45.384
473.065, 59.073
474.398, 67.743
475.732, 61.394
477.065, 135.027
478.398, 85.646
479.731, 136.245
481.063, 225.641
482.396, 124.203
483.728, 158.518
485.060, 250.041
486.391, 211.548
487.723, 73.035
489.054, 192.502
490.385, 119.988
491.716, 68.456
493.047, 47.913
494.377, 56.348
495.708, 124.761
497.038, 173.173
498.368, 238.764
499.697, 226.962
501.027, 385.346
502.356, 456.722
503.685, 510.106
505.014, 649.489
506.342, 851.855
507.671, 1138.205
508.999, 1445.537
510.327, 1671.882
511.655, 1897.210
512.982, 2078.430
514.310, 2271.861
515.637, 2324.190
516.964, 2397.503
518.291, 2405.799
519.617, 2468.075
520.944, 2482.355
522.270, 2581.494
523.596, 2666.436
524.921, 2750.107
526.247, 2882.335
527.572, 2884.543
528.897, 2977.734
530.222, 2922.906
531.547, 2479.058
532.871, 2641.189
534.196, 1914.302
535.520, 1679.398
536.844, 1362.475
538.167, 1298.537
539.491, 1072.580
540.814, 946.614
542.137, 921.625
543.460, 845.615
544.783, 756.582
546.105, 616.527
547.427, 583.842
548.749, 699.348
550.071, 567.225
551.393, 457.079
552.714, 616.908
554.035, 485.716
555.356, 573.501
556.677, 323.262
557.998, 421.997
559.318, 335.710
560.638, 292.399
561.958, 391.063
563.278, 272.703
564.597, 346.318
565.917, 350.910
567.236, 306.476
568.555, 351.019
569.874, 312.686
571.192, 355.028
572.511, 313.494
573.829, 273.937
575.147, 364.353
576.464, 297.743
577.782, 363.108
579.099, 185.448
580.416, 202.759
581.733, 208.042
583.050, 142.297
584.366, 146.522
585.683, 188.717
586.999, 96.882
588.315, 51.016
589.630, 42.894
590.946, 57.883
592.261, 43.062
593.576, 68.976
594.891, 56.127
596.206, 174.288
597.520, 106.565
598.834, 138.919
600.148, 65.364
601.462, 66.864
602.776, 135.422
604.089, 8.079
605.402, 38.216
606.715, 11.535
608.028, 37.467
609.341, 39.613
610.653, 8.292
611.965, 81.045
613.277, 7.876
614.589, 83.125
615.901, 79.913
617.212, 163.738
618.523, 176.933
619.834, 223.494
621.145, 219.092
622.456, 250.163
623.766, 252.881
625.076, 271.805
626.386, 271.505
627.696, 478.197
629.006, 549.852
630.315, 592.078
631.624, 598.455
632.933, 725.718
634.242, 792.440
635.551, 853.745
636.859, 1062.119
638.167, 1126.462
639.475, 1377.824
640.783, 1553.060
642.090, 1780.378
643.398, 2159.669
644.705, 2338.137
646.012, 2723.242
647.318, 3162.336
648.625, 3446.634
649.931, 3944.080
651.237, 4510.195
652.543, 4751.146
653.849, 5213.568
655.155, 5580.948
656.460, 5868.505
657.765, 6358.465
659.070, 6966.716
660.375, 7724.328
661.679, 9008.191
662.984, 10670.422
664.288, 12902.748
665.592, 16386.033
666.895, 20775.660
668.199, 26287.963
669.502, 32597.480
670.805, 37790.539
672.108, 40311.926
673.411, 40186.273
674.713, 34631.043
676.016, 28984.980
677.318, 22846.602
678.620, 18106.322
679.921, 14219.681
681.223, 11492.263
682.524, 9503.471
683.825, 8232.248
685.126, 7431.200
686.427, 6849.814
687.727, 6411.479
689.028, 6144.967
690.328, 5783.628
691.628, 5252.810
692.927, 4580.189
694.227, 4161.169
695.526, 3595.725
696.825, 3192.338
698.124, 2758.387
699.423, 2441.886
700.721, 2232.642
702.020, 1940.661
703.318, 1721.589
704.616, 1524.484
705.913, 1390.352
707.211, 1163.198
708.508, 1238.005
709.805, 1092.919
711.102, 1016.665
712.399, 890.381
713.695, 764.067
714.992, 884.723
716.288, 681.350
717.584, 828.946
718.879, 680.515
720.175, 728.054
721.470, 675.562
722.765, 590.043
724.060, 599.494
725.355, 600.917
726.649, 653.312
727.944, 738.677
729.238, 753.612
730.532, 823.603
731.825, 843.602
733.119, 944.854
734.412, 1019.079
735.705, 1114.007
736.998, 1209.515
738.291, 1297.722
739.584, 1367.583
740.876, 1452.220
742.168, 1454.002
743.460, 1450.250
744.752, 1491.730
746.043, 1490.530
747.334, 1440.350
748.626, 1509.526
749.916, 1460.213
751.207, 1445.025
752.498, 1081.385
753.788, 955.957
755.078, 834.466
756.368, 673.560
757.658, 549.527
758.947, 451.163
760.237, 394.763
761.526, 415.495
762.815, 276.822
764.104, 297.483
765.392, 347.001
766.680, 220.483
767.969, 207.997
769.257, 308.414
770.544, 220.953
771.832, 147.431
773.119, 169.533
774.406, 150.676
775.693, 126.994
776.980, 205.276
778.267, 114.675
779.553, 197.064
780.839, 133.511
782.125, 140.938
783.411, 142.350
784.697, 137.742
785.982, 114.119
787.267, 140.480
788.552, 6.825
789.837, 15.146
791.122, 103.444
792.406, 272.727
793.690, 162.993
794.974, 573.244
796.258, 370.880
797.542, 638.700
798.825, 96.905
800.108, 97.093
801.391, 125.734
802.674, 79.346
803.957, 27.591
805.239, 10.437
806.522, 60.444
807.804, 58.561
809.085, 24.620
810.367, 5.284
811.649, 51.831
812.930, 25.647
814.211, 96.198
815.492, 53.472
816.772, 39.207
818.053, 7.868
819.333, 8.512
820.613, 101.861
821.893, 1.693
823.173, 22.771
824.452, 112.266
825.732, 54.836
827.011, 4.452
828.290, 70.911
829.568, 22.262
830.847, 79.401
832.125, 54.878
833.403, 29.856
834.681, 50.619
835.959, 9.422
837.236, 4.757
838.514, 5.080
839.791, 25.067
841.068, 4.393
842.345, 36.324
843.621, 0.563
844.898, 17.468
846.174, 34.610
847.450, 36.322
848.726, 3.282
850.001, 50.254
851.277, 79.742
852.552, 46.730
853.827, 42.709
855.102, 56.678
856.376, 71.659
857.651, 80.633
858.925, 165.600
860.199, 61.568
861.473, 111.532
862.746, 27.489
864.020, 252.444
865.293, 106.394
866.566, 115.354
867.839, 248.308
869.112, 207.257
870.384, 223.205
871.656, 148.153
872.928, 266.100
874.200, 98.065
875.472, 359.027
876.744, 220.985
878.015, 117.943
879.286, 381.900
880.557, 260.854
881.828, 402.807
883.098, 370.763
884.369, 524.725
885.639, 563.688
886.909, 532.660
888.178, 628.631
889.448, 701.614
890.717, 692.596
891.987, 719.577
893.256, 797.575
894.524, 836.575
895.793, 968.589
897.061, 1001.608
898.330, 992.633
899.598, 1116.701
900.865, 1194.825
902.133, 1161.209
903.401, 1198.134
904.668, 1130.356
905.935, 1097.643
907.202, 1127.975
908.468, 1148.960
909.735, 1352.780
911.001, 1313.237
912.267, 1334.747
913.533, 1496.285
914.799, 1500.837
916.064, 1581.411
917.330, 1643.994
918.595, 1951.606
919.860, 2049.234
921.124, 2447.870
922.389, 2532.520
923.653, 3073.177
924.918, 3420.736
926.182, 3690.396
927.445, 4117.984
928.709, 4498.482
929.972, 4591.162
931.236, 4378.633
932.499, 4047.319
933.761, 3698.883
935.024, 3004.489
936.286, 2804.110
937.549, 2374.721
938.811, 2354.242
940.073, 2398.881
941.334, 2193.711
942.596, 2303.823
943.857, 2427.335
945.118, 2373.060
946.379, 2629.787
947.640, 2633.519
948.900, 2607.252
950.161, 2335.989
951.421, 2261.530
952.681, 2089.079
953.940, 2075.943
955.200, 1934.438
956.459, 1880.537
957.719, 1700.764
958.978, 1863.212
960.236, 1714.485
961.495, 1766.930
962.753, 1645.169
964.012, 1761.987
965.270, 1639.489
966.527, 1671.604
967.785, 1663.444
969.043, 1637.894
970.300, 1574.224
971.557, 1476.569
972.814, 1511.295
974.071, 1517.838
975.327, 1499.885
976.583, 1575.365
977.840, 1425.502
979.095, 1483.643
980.351, 1307.348
981.607, 1286.873
982.862, 1266.687
984.117, 1269.383
985.372, 1260.419
986.627, 1319.207
987.882, 1236.349
989.136, 1240.905
990.390, 1245.349
991.644, 1371.946
992.898, 1195.553
994.152, 1312.311
995.405, 1190.878
996.659, 1381.006
997.912, 1336.812
999.165, 1521.004
1000.417, 1537.896
1001.670, 1560.409
1002.922, 1730.465
1004.174, 1681.409
1005.426, 1918.355
1006.678, 1947.775
1007.930, 2042.337
1009.181, 2102.007
1010.432, 2301.320
1011.683, 2523.631
1012.934, 2812.795
1014.185, 2929.014
1015.435, 3303.375
1016.685, 3551.097
1017.935, 4223.382
1019.185, 4553.693
1020.435, 4821.283
1021.684, 5300.190
1022.934, 5509.973
1024.183, 6043.184
1025.432, 6676.566
1026.680, 6987.994
1027.929, 7568.355
1029.177, 7555.033
1030.425, 7167.838
1031.673, 6685.598
1032.921, 5983.280
1034.169, 5152.145
1035.416, 4729.004
1036.663, 4039.244
1037.911, 4068.877
1039.157, 3699.383
1040.404, 3865.816
1041.650, 4183.687
1042.897, 4000.449
1044.143, 4348.547
1045.389, 4670.374
1046.634, 5023.379
1047.880, 5798.935
1049.125, 6370.540
1050.371, 7373.031
1051.615, 8602.881
1052.860, 9576.946
1054.105, 11108.560
1055.349, 11832.441
1056.593, 12752.547
1057.837, 12794.661
1059.081, 12401.421
1060.325, 11546.275
1061.568, 10221.286
1062.812, 8772.854
1064.055, 7975.430
1065.298, 7239.388
1066.540, 6556.229
1067.783, 6213.836
1069.025, 5622.629
1070.267, 5216.529
1071.509, 4444.061
1072.751, 4002.850
1073.993, 3425.666
1075.234, 3108.191
1076.475, 2711.047
1077.716, 2462.678
1078.957, 2273.367
1080.198, 2129.373
1081.438, 1939.528
1082.679, 1931.329
1083.919, 1753.972
1085.159, 1626.760
1086.398, 1540.889
1087.638, 1578.698
1088.877, 1417.421
1090.116, 1386.797
1091.355, 1360.304
1092.594, 1274.354
1093.833, 1226.989
1095.071, 1162.602
1096.309, 1082.747
1097.547, 974.319
1098.785, 892.218
1100.023, 961.535
1101.260, 779.005
1102.498, 639.090
1103.735, 736.587
1104.972, 790.711
1106.208, 782.721
1107.445, 702.605
1108.681, 668.709
1109.918, 730.581
1111.154, 716.079
1112.389, 731.121
1113.625, 664.631
1114.860, 549.140
1116.096, 627.670
1117.331, 581.208
1118.566, 496.736
1119.800, 622.410
1121.035, 429.146
1122.269, 647.204
1123.503, 435.928
1124.737, 501.454
1125.971, 390.643
1127.205, 417.197
1128.438, 274.001
1129.671, 438.568
1130.904, 157.143
1132.137, 201.779
1133.370, 403.998
1134.602, 230.520
1135.834, 185.439
1137.066, 395.622
1138.298, 130.021
1139.530, 340.963
1140.762, 92.440
1141.993, 161.188
1143.224, 310.324
1144.455, 36.825
1145.686, 303.129
1146.917, 64.332
1148.147, 0.151
1149.377, 188.884
1150.607, 113.072
1151.837, 195.442
1153.067, 286.409
1154.296, 89.783
1155.526, 189.845
1156.755, 120.872
1157.984, 48.535
1159.213, 42.929
1160.441, 87.151
1161.670, 25.616
1162.898, 49.906
1164.126, 66.312
1165.354, 86.944
1166.581, 93.346
1167.809, 23.642
1169.036, 5.570
1170.263, 8.020
1171.490, 95.437
1172.717, 111.526
1173.943, 104.960
1175.170, 11.607
1176.396, 51.882
1177.622, 24.624
1178.848, 39.146
1180.073, 15.858
1181.299, 35.877
1182.524, 26.205
1183.749, 40.438
1184.974, 87.656
1186.199, 43.229
1187.423, 140.538
1188.648, 39.263
1189.872, 43.492
1191.096, 3.831
1192.320, 43.195
1193.543, 25.266
1194.767, 135.465
1195.990, 53.694
1197.213, 83.113
1198.436, 72.343
1199.659, 120.400
1200.881, 48.885
1202.104, 81.300
1203.326, 43.314
1204.548, 41.079
1205.770, 128.334
1206.991, 108.448
1208.213, 72.111
1209.434, 9.354
1210.655, 7.225
1211.876, 89.819
1213.096, 118.319
1214.317, 174.786
1215.537, 131.807
1216.757, 106.604
1217.977, 207.970
1219.197, 134.881
1220.417, 128.613
1221.636, 272.493
1222.855, 121.300
1224.074, 175.521
1225.293, 11.357
1226.512, 88.809
1227.731, 52.723
1228.949, 138.911
1230.167, 14.863
1231.385, 142.819
1232.603, 68.757
1233.820, 145.510
1235.038, 166.790
1236.255, 30.026
1237.472, 378.174
1238.689, 90.190
1239.906, 161.154
1241.122, 334.851
1242.338, 66.521
1243.555, 203.160
1244.771, 124.771
1245.986, 44.404
1247.202, 247.181
1248.417, 84.015
1249.633, 281.114
1250.848, 83.581
1252.063, 113.343
1253.277, 142.904
1254.492, 90.277
1255.706, 150.037
1256.920, 315.806
1258.134, 111.069
1259.348, 255.093
1260.562, 278.280
1261.775, 246.475
1262.988, 280.787
1264.201, 271.815
1265.414, 213.909
1266.627, 198.556
1267.839, 127.526
1269.052, 206.780
1270.264, 307.648
1271.476, 102.465
1272.688, 275.141
1273.899, 196.811
1275.111, 18.439
1276.322, 248.537
1277.533, 49.022
1278.744, 95.673
1279.955, 320.428
1281.165, 168.779
1282.376, 30.114
1283.586, 71.535
1284.796, 157.748
1286.006, 305.421
1287.215, 200.521
1288.425, 104.583
1289.634, 59.138
1290.843, 78.965
1292.052, 89.800
1293.261, 172.694
1294.469, 189.676
1295.678, 91.398
1296.886, 278.091
1298.094, 128.697
1299.302, 163.840
1300.509, 17.041
1301.717, 95.410
1302.924, 190.946
1304.131, 49.116
1305.338, 23.593
1306.545, 62.801
1307.752, 43.772
1308.958, 54.299
1310.164, 225.231
1311.370, 34.836
1312.576, 275.037
1313.782, 59.567
1314.987, 87.237
1316.193, 126.284
1317.398, 54.275
1318.603, 124.842
1319.807, 119.613
1321.012, 98.103
1322.216, 282.234
1323.421, 88.474
1324.625, 43.433
1325.829, 191.424
1327.032, 154.185
1328.236, 89.903
1329.439, 130.197
1330.642, 119.058
1331.845, 186.997
1333.048, 190.963
1334.251, 32.548
1335.453, 399.188
1336.656, 100.360
1337.858, 206.736
1339.060, 285.892
1340.261, 101.448
1341.463, 144.910
1342.664, 150.437
1343.866, 61.438
1345.067, 96.430
1346.267, 160.991
1347.468, 81.045
1348.669, 274.676
1349.869, 119.303
1351.069, 16.245
1352.269, 292.042
1353.469, 3.640
1354.668, 348.636
1355.868, 229.580
1357.067, 736.100
1358.266, 723.688
1359.465, 104.302
1360.664, 149.856
1361.862, 287.264
1363.061, 106.200
1364.259, 140.546
1365.457, 96.816
1366.655, 106.863
1367.852, 238.005
1369.050, 82.328
1370.247, 19.486
1371.444, 232.257
1372.641, 49.825
1373.838, 48.633
1375.035, 243.529
1376.231, 30.434
1377.427, 58.849
1378.623, 137.035
1379.819, 140.970
1381.015, 156.369
1382.211, 182.003
1383.406, 188.062
1384.601, 250.505
1385.796, 251.536
1386.991, 273.481
1388.185, 262.020
1389.380, 13.533
1390.574, 193.282
1391.768, 173.618
1392.962, 103.896
1394.156, 360.945
1395.350, 171.258
1396.543, 212.120
1397.736, 253.402
1398.929, 146.688
1400.122, 136.203
1401.315, 402.170
1402.507, 8.411
1403.700, 266.416
1404.892, 355.635
1406.084, 204.969
1407.276, 306.301
1408.467, 237.680
1409.659, 96.920
1410.850, 323.713
1412.041, 163.205
1413.232, 257.137
1414.423, 426.977
1415.614, 47.996
1416.804, 334.168
1417.994, 356.299
1419.184, 84.943
1420.374, 329.963
1421.564, 169.404
1422.753, 133.543
1423.943, 323.389
1425.132, 211.723
1426.321, 179.105
1427.510, 357.277
1428.698, 85.891
1429.887, 272.488
1431.075, 294.416
1432.263, 82.988
1433.451, 308.850
1434.639, 236.344
1435.827, 169.227
1437.014, 307.541
1438.201, 12.074
1439.388, 180.436
1440.575, 241.971
1441.762, 51.773
1442.949, 324.395
1444.135, 214.586
1445.321, 157.594
1446.507, 350.246
1447.693, 100.799
1448.879, 194.014
1450.064, 280.373
1451.250, 223.623
1452.435, 239.297
1453.620, 376.875
1454.805, 258.328
1455.989, 249.461
1457.174, 164.455
1458.358, 106.559
1459.542, 120.137
1460.726, 224.316
1461.910, 92.381
1463.093, 359.586
1464.277, 287.207
1465.460, 94.381
1466.643, 474.305
1467.826, 215.090
1469.009, 353.492
1470.191, 365.926
1471.373, 303.379
1472.556, 365.275
1473.738, 357.553
1474.919, 171.721
1476.101, 540.463
1477.283, 105.463
1478.464, 359.176
1479.645, 468.744
1480.826, 154.354
1482.007, 250.867
1483.187, 279.879
1484.368, 152.934
1485.548, 384.551
1486.728, 413.117
1487.908, 34.455
1489.088, 465.000
1490.268, 136.322
1491.447, 201.383
1492.626, 493.906
1493.805, 144.988
1494.984, 232.539
1496.163, 531.180
1497.341, 222.857
1498.520, 220.600
1499.698, 414.117
1500.876, 0.820
1502.054, 253.426
1503.232, 388.854
1504.409, 68.154
1505.586, 381.988
1506.763, 228.176
1507.940, 28.369
1509.117, 439.395
1510.294, 207.227
1511.470, 220.412
1512.647, 413.379
1513.823, 180.633
1514.999, 312.734
1516.174, 325.852
1517.350, 1.262
1518.526, 279.789
1519.701, 0.000
##END=



