##NAMES=Actinolite
##RRUFFID=R050025
##IDEAL CHEMISTRY=Ca_2_(Mg_4.5-2.5_Fe^2+^_0.5-2.5_)Si_8_O_22_(OH)_2_
##LOCALITY=Tyrol, Austria
##OWNER=RRUFF
##SOURCE=Eugene Schlepp
##DESCRIPTION=Green colored bladed single crystals
##STATUS=The identification of this mineral has been confirmed by X-ray diffraction and chemical analysis
##URL=rruff.info/R050025
##MEASURED CHEMISTRY=(Ca_.930_Na_.056_Mn_.010_K_.004_)_2_(Mg_.883_Fe_.117_)_5_(Si_.978_Al_.022_)_8_O_22_(OH)_2_
##PIN_ID=L00525
##ORIENTATION=Laser parallel to b* (0 1 0). Fiducial mark perpendicular to laser is parallel to c [0 0 1]
85.706, 0.000
87.101, 3.621
88.496, 12.761
89.890, 153.269
91.284, 481.787
92.678, 356.274
94.071, 474.722
95.465, 312.398
96.858, 239.393
98.251, 182.965
99.644, 203.098
101.036, 349.529
102.428, 437.039
103.820, 542.204
105.212, 792.683
106.604, 887.971
107.995, 1353.174
109.387, 1269.453
110.777, 1553.726
112.168, 1917.357
113.559, 3053.769
114.949, 3469.976
116.339, 4367.332
117.729, 4703.397
119.119, 5165.625
120.508, 5777.603
121.897, 5599.170
123.286, 5595.185
124.675, 4246.914
126.063, 3216.596
127.452, 2495.471
128.840, 1817.844
130.228, 1533.306
131.615, 1154.221
133.003, 916.683
134.390, 548.937
135.777, 641.411
137.164, 492.273
138.550, 606.116
139.937, 467.713
141.323, 226.465
142.709, 71.416
144.094, 73.295
145.480, 10.883
146.865, 56.003
148.250, 91.382
149.635, 120.890
151.019, 48.097
152.403, 140.035
153.788, 354.539
155.171, 1023.442
156.555, 1883.770
157.939, 3861.544
159.322, 6116.790
160.705, 5172.527
162.088, 3767.367
163.470, 2095.815
164.853, 1260.810
166.235, 786.305
167.617, 690.367
168.998, 785.265
170.380, 949.452
171.761, 1545.945
173.142, 2454.277
174.523, 3249.617
175.904, 5173.000
177.284, 7198.997
178.664, 9399.308
180.044, 7715.909
181.424, 6114.272
182.803, 4112.933
184.183, 2717.935
185.562, 2115.249
186.940, 1420.342
188.319, 1209.815
189.698, 869.211
191.076, 826.701
192.454, 762.358
193.831, 693.447
195.209, 565.765
196.586, 521.408
197.963, 613.104
199.340, 464.903
200.717, 599.550
202.093, 533.414
203.470, 581.595
204.846, 702.630
206.221, 715.000
207.597, 962.864
208.972, 971.003
210.347, 1301.384
211.722, 1412.719
213.097, 1730.006
214.472, 2315.232
215.846, 2736.390
217.220, 4163.464
218.594, 4942.448
219.967, 7188.333
221.341, 8707.104
222.714, 9202.748
224.087, 9701.256
225.460, 7441.622
226.832, 6008.848
228.204, 4309.942
229.577, 3465.921
230.948, 2732.800
232.320, 2121.583
233.692, 1816.271
235.063, 1202.866
236.434, 972.368
237.805, 658.779
239.175, 451.100
240.545, 328.331
241.916, 151.475
243.286, 841.529
244.655, 1082.493
246.025, 985.335
247.394, 758.038
248.763, 735.655
250.132, 456.184
251.501, 407.021
252.869, 425.674
254.237, 273.368
255.605, 203.907
256.973, 58.240
258.340, 23.331
259.708, 83.146
261.075, 54.333
262.442, 0.137
263.808, 25.754
265.175, 48.344
266.541, 65.404
267.907, 112.574
269.273, 67.793
270.639, 225.741
272.004, 48.071
273.369, 137.712
274.734, 148.674
276.099, 76.963
277.463, 86.565
278.828, 2.463
280.192, 15.832
281.556, 125.383
282.919, 35.993
284.283, 109.372
285.646, 322.901
287.009, 273.196
288.372, 615.544
289.734, 552.745
291.097, 562.952
292.459, 593.928
293.821, 481.918
295.183, 636.951
296.544, 528.481
297.905, 694.009
299.266, 821.440
300.627, 1046.529
301.988, 1231.799
303.348, 1162.164
304.709, 1224.818
306.069, 867.236
307.428, 747.353
308.788, 662.058
310.147, 443.254
311.507, 537.463
312.865, 331.393
314.224, 409.346
315.583, 227.491
316.941, 305.341
318.299, 331.606
319.657, 231.064
321.015, 370.591
322.372, 286.554
323.729, 323.290
325.086, 374.868
326.443, 463.272
327.800, 638.000
329.156, 717.778
330.512, 1118.643
331.868, 1170.065
333.224, 1364.507
334.579, 1460.047
335.935, 1224.187
337.290, 1483.695
338.645, 1375.575
339.999, 1702.138
341.354, 1758.731
342.708, 1861.558
344.062, 2004.501
345.416, 1747.710
346.769, 1762.873
348.123, 1536.797
349.476, 1465.343
350.829, 1507.798
352.182, 1339.823
353.534, 1378.069
354.887, 1109.069
356.239, 1107.738
357.591, 1093.071
358.942, 1030.825
360.294, 1162.310
361.645, 1093.161
362.996, 1420.080
364.347, 1572.746
365.698, 2195.062
367.048, 2786.512
368.398, 3238.404
369.748, 3295.217
371.098, 3354.161
372.448, 2942.030
373.797, 2361.994
375.146, 1694.915
376.495, 1601.789
377.844, 1197.617
379.192, 1251.399
380.540, 1080.137
381.889, 1103.829
383.236, 1173.477
384.584, 1195.081
385.932, 1443.641
387.279, 1577.157
388.626, 2128.630
389.973, 2511.063
391.319, 3077.569
392.666, 3963.917
394.012, 3724.225
395.358, 3659.492
396.704, 3003.719
398.049, 2265.905
399.394, 1833.052
400.740, 1332.988
402.084, 1298.998
403.429, 1013.022
404.774, 1005.162
406.118, 939.726
407.462, 884.736
408.806, 1037.614
410.150, 1029.755
411.493, 1362.779
412.836, 1489.610
414.179, 1570.104
415.522, 1687.607
416.865, 1545.778
418.207, 1670.165
419.549, 1334.073
420.891, 1221.000
422.233, 1040.279
423.575, 808.249
424.916, 810.352
426.257, 606.712
427.598, 602.179
428.939, 559.908
430.279, 455.633
431.619, 594.130
432.959, 579.946
434.299, 846.736
435.639, 837.918
436.978, 796.991
438.318, 706.521
439.657, 499.711
440.996, 431.754
442.334, 249.323
443.673, 275.793
445.011, 210.051
446.349, 129.942
447.687, 153.286
449.024, 105.682
450.361, 110.282
451.699, 76.739
453.036, 97.813
454.372, 63.833
455.709, 19.435
457.045, 104.630
458.381, 67.171
459.717, 157.587
461.053, 45.313
462.388, 45.417
463.724, 87.627
465.059, 67.630
466.394, 164.580
467.728, 88.233
469.063, 59.373
470.397, 109.201
471.731, 58.139
473.065, 74.463
474.398, 65.913
475.732, 119.849
477.065, 161.633
478.398, 73.075
479.731, 193.695
481.063, 147.475
482.396, 254.208
483.728, 280.420
485.060, 290.910
486.391, 363.598
487.723, 189.637
489.054, 142.377
490.385, 98.419
491.716, 82.947
493.047, 141.434
494.377, 87.883
495.708, 141.297
497.038, 5.678
498.368, 94.021
499.697, 122.339
501.027, 41.631
502.356, 139.892
503.685, 41.128
505.014, 142.335
506.342, 96.512
507.671, 114.658
508.999, 167.806
510.327, 162.934
511.655, 289.044
512.982, 321.149
514.310, 279.238
515.637, 466.324
516.964, 449.398
518.291, 549.457
519.617, 557.514
520.944, 421.557
522.270, 453.590
523.596, 366.621
524.921, 468.638
526.247, 395.670
527.572, 423.688
528.897, 474.693
530.222, 423.682
531.547, 456.652
532.871, 413.604
534.196, 355.538
535.520, 440.452
536.844, 313.347
538.167, 368.223
539.491, 278.079
540.814, 250.917
542.137, 324.736
543.460, 253.544
544.783, 310.334
546.105, 197.105
547.427, 216.858
548.749, 214.593
550.071, 141.310
551.393, 241.008
552.714, 181.688
554.035, 189.351
555.356, 228.996
556.677, 178.624
557.998, 240.234
559.318, 144.827
560.638, 185.408
561.958, 185.980
563.278, 162.549
564.597, 217.121
565.917, 118.679
567.236, 166.219
568.555, 155.742
569.874, 157.252
571.192, 222.750
572.511, 177.239
573.829, 155.722
575.147, 198.198
576.464, 175.674
577.782, 214.152
579.099, 51.643
580.416, 216.150
581.733, 72.668
583.050, 112.224
584.366, 131.806
585.683, 12.407
586.999, 243.021
588.315, 97.604
589.630, 86.032
590.946, 11.790
592.261, 40.369
593.576, 15.501
594.891, 63.567
596.206, 30.587
597.520, 20.432
598.834, 14.500
600.148, 3.410
601.462, 53.024
602.776, 2.486
604.089, 75.231
605.402, 51.275
606.715, 30.780
608.028, 39.343
609.341, 11.447
610.653, 43.317
611.965, 33.609
613.277, 46.381
614.589, 44.936
615.901, 85.689
617.212, 22.582
618.523, 64.196
619.834, 143.352
621.145, 39.086
622.456, 143.934
623.766, 173.765
625.076, 144.106
626.386, 255.800
627.696, 194.733
629.006, 324.896
630.315, 316.239
631.624, 323.218
632.933, 455.064
634.242, 433.498
635.551, 579.652
636.859, 551.495
638.167, 649.328
639.475, 888.701
640.783, 766.789
642.090, 1145.398
643.398, 1218.192
644.705, 1364.324
646.012, 1833.444
647.318, 1886.982
648.625, 2442.470
649.931, 2712.887
651.237, 3104.659
652.543, 3909.578
653.849, 3818.024
655.155, 4395.350
656.460, 4358.576
657.765, 4287.350
659.070, 4851.085
660.375, 4675.515
661.679, 5788.785
662.984, 6196.354
664.288, 7304.042
665.592, 9734.891
666.895, 11020.815
668.199, 16015.673
669.502, 19370.887
670.805, 24188.707
672.108, 30655.355
673.411, 28564.996
674.713, 28642.068
676.016, 23053.879
677.318, 17151.902
678.620, 13909.777
679.921, 9509.592
681.223, 7822.539
682.524, 5961.917
683.825, 4657.898
685.126, 4058.961
686.427, 2986.919
687.727, 2773.812
689.028, 2335.334
690.328, 1960.319
691.628, 1832.298
692.927, 1381.164
694.227, 1338.139
695.526, 1188.133
696.825, 1040.050
698.124, 924.890
699.423, 821.609
700.721, 833.437
702.020, 661.337
703.318, 833.152
704.616, 671.726
705.913, 417.823
707.211, 515.503
708.508, 424.459
709.805, 415.242
711.102, 397.019
712.399, 285.851
713.695, 380.615
714.992, 338.374
716.288, 253.095
717.584, 270.842
718.879, 206.583
720.175, 380.318
721.470, 186.048
722.765, 257.677
724.060, 284.395
725.355, 107.106
726.649, 239.813
727.944, 255.514
729.238, 150.209
730.532, 278.898
731.825, 136.582
733.119, 254.260
734.412, 202.932
735.705, 161.312
736.998, 310.973
738.291, 248.445
739.584, 305.086
740.876, 265.728
742.168, 282.954
743.460, 311.583
744.752, 304.167
746.043, 525.705
747.334, 557.932
748.626, 610.262
749.916, 720.502
751.207, 581.098
752.498, 566.675
753.788, 522.929
755.078, 321.862
756.368, 462.969
757.658, 273.882
758.947, 256.049
760.237, 197.185
761.526, 177.143
762.815, 205.434
764.104, 134.743
765.392, 159.728
766.680, 40.076
767.969, 25.547
769.257, 89.908
770.544, 0.735
771.832, 62.760
773.119, 9.015
774.406, 30.562
775.693, 85.895
776.980, 20.814
778.267, 108.619
779.553, 66.049
780.839, 2.472
782.125, 63.885
783.411, 22.707
784.697, 9.677
785.982, 20.947
787.267, 18.593
788.552, 23.739
789.837, 33.936
791.122, 2.359
792.406, 6.358
793.690, 54.095
794.974, 24.128
796.258, 47.659
797.542, 32.486
798.825, 19.348
800.108, 11.764
801.391, 60.863
802.674, 30.956
803.957, 34.226
805.239, 19.120
806.522, 11.812
807.804, 1.237
809.085, 6.730
810.367, 33.714
811.649, 23.731
812.930, 10.774
814.211, 15.838
815.492, 1.925
816.772, 72.971
818.053, 18.861
819.333, 106.259
820.613, 3.448
821.893, 20.657
823.173, 54.893
824.452, 4.825
825.732, 45.474
827.011, 10.812
828.290, 53.825
829.568, 31.547
830.847, 62.047
832.125, 2.632
833.403, 14.800
834.681, 73.743
835.959, 90.723
837.236, 61.747
838.514, 40.208
839.791, 62.661
841.068, 92.104
842.345, 8.541
843.621, 49.969
844.898, 49.389
846.174, 91.800
847.450, 46.203
848.726, 39.598
850.001, 55.993
851.277, 85.380
852.552, 16.242
853.827, 138.113
855.102, 51.460
856.376, 110.800
857.651, 138.131
858.925, 54.456
860.199, 149.772
861.473, 28.083
862.746, 96.386
864.020, 137.704
865.293, 52.016
866.566, 210.320
867.839, 191.617
869.112, 153.907
870.384, 191.191
871.656, 128.469
872.928, 259.740
874.200, 127.022
875.472, 175.297
876.744, 227.566
878.015, 119.836
879.286, 268.099
880.557, 142.361
881.828, 129.616
883.098, 357.866
884.369, 208.112
885.639, 304.352
886.909, 337.587
888.178, 289.818
889.448, 430.046
890.717, 352.275
891.987, 326.499
893.256, 395.718
894.524, 237.932
895.793, 425.140
897.061, 340.344
898.330, 311.542
899.598, 470.736
900.865, 357.932
902.133, 408.128
903.401, 446.321
904.668, 392.527
905.935, 567.730
907.202, 452.932
908.468, 572.156
909.735, 606.377
911.001, 486.612
912.267, 732.843
913.533, 621.081
914.799, 763.322
916.064, 776.560
917.330, 783.802
918.595, 1041.042
919.860, 1098.069
921.124, 1238.041
922.389, 1515.279
923.653, 1522.683
924.918, 2055.804
926.182, 2341.588
927.445, 2427.366
928.709, 3213.571
929.972, 2997.844
931.236, 3152.056
932.499, 3130.166
933.761, 2550.610
935.024, 2488.717
936.286, 1922.812
937.549, 1730.526
938.811, 1609.687
940.073, 1316.959
941.334, 1510.883
942.596, 1343.280
943.857, 1401.632
945.118, 1583.512
946.379, 1439.679
947.640, 1578.590
948.900, 1663.106
950.161, 1326.498
951.421, 1419.616
952.681, 1093.284
953.940, 1014.344
955.200, 1017.277
956.459, 797.222
957.719, 864.061
958.978, 745.537
960.236, 649.713
961.495, 784.450
962.753, 518.663
964.012, 725.451
965.270, 608.951
966.527, 488.169
967.785, 643.138
969.043, 446.242
970.300, 611.038
971.557, 552.756
972.814, 471.629
974.071, 557.554
975.327, 476.471
976.583, 429.780
977.840, 543.247
979.095, 369.717
980.351, 523.749
981.607, 506.035
982.862, 369.105
984.117, 557.316
985.372, 277.588
986.627, 502.719
987.882, 424.415
989.136, 348.503
990.390, 464.504
991.644, 331.603
992.898, 375.763
994.152, 404.748
995.405, 328.805
996.659, 501.865
997.912, 350.032
999.165, 405.087
1000.417, 513.172
1001.670, 396.275
1002.922, 582.458
1004.174, 559.603
1005.426, 472.939
1006.678, 611.135
1007.930, 558.330
1009.181, 563.522
1010.432, 671.655
1011.683, 557.048
1012.934, 803.087
1014.185, 826.762
1015.435, 761.972
1016.685, 917.135
1017.935, 870.388
1019.185, 938.614
1020.435, 1112.050
1021.684, 1059.386
1022.934, 1429.621
1024.183, 1430.939
1025.432, 1714.176
1026.680, 2152.498
1027.929, 2076.160
1029.177, 2385.409
1030.425, 2357.831
1031.673, 1977.120
1032.921, 2153.406
1034.169, 1660.422
1035.416, 1616.683
1036.663, 1708.173
1037.911, 1544.005
1039.157, 1702.375
1040.404, 1708.568
1041.650, 1716.840
1042.897, 2209.310
1044.143, 2129.732
1045.389, 2553.021
1046.634, 2950.482
1047.880, 3024.010
1049.125, 4116.390
1050.371, 4311.045
1051.615, 5324.428
1052.860, 6703.040
1054.105, 7176.337
1055.349, 9179.623
1056.593, 10043.165
1057.837, 9899.616
1059.081, 11219.034
1060.325, 9530.777
1061.568, 8577.293
1062.812, 7620.910
1064.055, 5709.624
1065.298, 5510.008
1066.540, 4546.174
1067.783, 4090.655
1069.025, 3979.009
1070.267, 3131.702
1071.509, 2939.536
1072.751, 2484.937
1073.993, 1929.473
1075.234, 1975.942
1076.475, 1523.320
1077.716, 1430.802
1078.957, 1402.337
1080.198, 1076.876
1081.438, 1194.362
1082.679, 981.643
1083.919, 912.214
1085.159, 994.607
1086.398, 713.029
1087.638, 840.304
1088.877, 772.633
1090.116, 591.163
1091.355, 728.510
1092.594, 565.024
1093.833, 547.663
1095.071, 612.200
1096.309, 378.745
1097.547, 491.705
1098.785, 450.380
1100.023, 394.133
1101.260, 528.772
1102.498, 345.300
1103.735, 454.867
1104.972, 434.256
1106.208, 323.946
1107.445, 383.721
1108.681, 353.275
1109.918, 337.950
1111.154, 445.672
1112.389, 303.149
1113.625, 296.205
1114.860, 354.614
1116.096, 237.027
1117.331, 364.722
1118.566, 316.131
1119.800, 210.854
1121.035, 305.438
1122.269, 200.873
1123.503, 290.578
1124.737, 266.067
1125.971, 119.520
1127.205, 295.984
1128.438, 138.451
1129.671, 171.207
1130.904, 140.675
1132.137, 59.138
1133.370, 148.844
1134.602, 165.309
1135.834, 73.767
1137.066, 211.686
1138.298, 54.396
1139.530, 123.864
1140.762, 171.577
1141.993, 34.968
1143.224, 211.187
1144.455, 49.043
1145.686, 71.466
1146.917, 161.603
1148.147, 43.709
1149.377, 114.963
1150.607, 140.013
1151.837, 76.381
1153.067, 69.280
1154.296, 26.014
1155.526, 46.641
1156.755, 103.550
1157.984, 71.308
1159.213, 3.855
1160.441, 158.644
1161.670, 93.806
1162.898, 99.727
1164.126, 78.922
1165.354, 52.167
1166.581, 122.744
1167.809, 12.017
1169.036, 37.228
1170.263, 99.547
1171.490, 68.263
1172.717, 122.155
1173.943, 49.406
1175.170, 24.375
1176.396, 86.220
1177.622, 19.843
1178.848, 62.223
1180.073, 67.019
1181.299, 11.765
1182.524, 120.499
1183.749, 24.910
1184.974, 7.093
1186.199, 55.159
1187.423, 28.544
1188.648, 119.392
1189.872, 41.639
1191.096, 53.522
1192.320, 104.636
1193.543, 45.807
1194.767, 30.675
1195.990, 66.528
1197.213, 15.883
1198.436, 67.929
1199.659, 13.907
1200.881, 25.310
1202.104, 174.440
1203.326, 32.551
1204.548, 90.729
1205.770, 63.027
1206.991, 31.157
1208.213, 39.445
1209.434, 16.346
1210.655, 3.580
1211.876, 73.130
1213.096, 4.926
1214.317, 50.626
1215.537, 81.120
1216.757, 8.278
1217.977, 14.262
1219.197, 73.175
1220.417, 42.486
1221.636, 58.269
1222.855, 80.921
1224.074, 58.480
1225.293, 45.834
1226.512, 47.610
1227.731, 59.927
1228.949, 146.226
1230.167, 39.195
1231.385, 85.048
1232.603, 86.990
1233.820, 1.639
1235.038, 185.862
1236.255, 79.058
1237.472, 162.616
1238.689, 85.776
1239.906, 57.100
1241.122, 82.247
1242.338, 84.366
1243.555, 17.723
1244.771, 56.923
1245.986, 40.894
1247.202, 70.175
1248.417, 97.218
1249.633, 87.247
1250.848, 131.261
1252.063, 57.263
1253.277, 38.646
1254.492, 91.618
1255.706, 63.570
1256.920, 54.033
1258.134, 114.952
1259.348, 20.855
1260.562, 189.736
1261.775, 140.599
1262.988, 68.444
1264.201, 212.306
1265.414, 61.107
1266.627, 101.134
1267.839, 141.896
1269.052, 74.627
1270.264, 130.928
1271.476, 158.606
1272.688, 261.458
1273.899, 254.160
1275.111, 70.762
1276.322, 141.606
1277.533, 147.166
1278.744, 6.696
1279.955, 159.477
1281.165, 152.950
1282.376, 46.403
1283.586, 88.248
1284.796, 152.632
1286.006, 84.998
1287.215, 162.455
1288.425, 26.319
1289.634, 49.620
1290.843, 180.900
1292.052, 27.163
1293.261, 79.517
1294.469, 75.676
1295.678, 0.129
1296.886, 162.208
1298.094, 40.343
1299.302, 57.458
1300.509, 80.507
1301.717, 38.574
1302.924, 52.615
1304.131, 94.605
1305.338, 11.661
1306.545, 89.209
1307.752, 75.592
1308.958, 21.581
1310.164, 151.546
1311.370, 64.286
1312.576, 14.032
1313.782, 158.558
1314.987, 12.150
1316.193, 159.813
1317.398, 78.373
1318.603, 8.008
1319.807, 120.593
1321.012, 41.740
1322.216, 19.278
1323.421, 192.893
1324.625, 2.665
1325.829, 100.755
1327.032, 84.422
1328.236, 13.181
1329.439, 188.958
1330.642, 76.733
1331.845, 62.947
1333.048, 179.314
1334.251, 44.420
1335.453, 94.624
1336.656, 183.688
1337.858, 71.863
1339.060, 276.842
1340.261, 156.732
1341.463, 23.750
1342.664, 279.406
1343.866, 96.395
1345.067, 161.049
1346.267, 201.995
1347.468, 52.928
1348.669, 145.582
1349.869, 107.387
1351.069, 89.112
1352.269, 180.489
1353.469, 54.065
1354.668, 20.521
1355.868, 139.855
1357.067, 41.497
1358.266, 118.332
1359.465, 170.832
1360.664, 6.559
1361.862, 170.694
1363.061, 189.422
1364.259, 29.935
1365.457, 188.304
1366.655, 168.730
1367.852, 82.247
1369.050, 160.480
1370.247, 37.616
1371.444, 141.675
1372.641, 214.738
1373.838, 0.000
1375.035, 146.627
1376.231, 39.512
1377.427, 50.819
1378.623, 118.854
1379.819, 27.818
1381.015, 43.158
1382.211, 199.207
1383.406, 82.517
1384.601, 122.007
1385.796, 240.896
1386.991, 65.010
1388.185, 249.135
1389.380, 122.954
1390.574, 72.147
1391.768, 181.265
1392.962, 145.537
1394.156, 177.601
1395.350, 141.980
1396.543, 44.981
1397.736, 225.298
1398.929, 167.077
1400.122, 32.782
1401.315, 228.700
1402.507, 209.562
1403.700, 428.281
1404.892, 270.480
1406.084, 259.843
1407.276, 114.729
1408.467, 210.556
1409.659, 65.415
1410.850, 141.487
1412.041, 169.685
1413.232, 23.120
1414.423, 297.432
1415.614, 70.714
1416.804, 100.837
1417.994, 226.104
1419.184, 52.908
1420.374, 144.303
1421.564, 271.046
1422.753, 45.602
1423.943, 146.690
1425.132, 226.674
1426.321, 25.011
1427.510, 246.921
1428.698, 109.267
1429.887, 75.367
1431.075, 357.377
1432.263, 304.061
1433.451, 188.223
1434.639, 311.296
1435.827, 72.949
1437.014, 196.570
1438.201, 190.846
1439.388, 56.079
1440.575, 255.364
1441.762, 117.626
1442.949, 88.513
1444.135, 251.891
1445.321, 106.519
1446.507, 162.143
1447.693, 163.917
1448.879, 107.564
1450.064, 175.821
1451.250, 176.359
1452.435, 44.700
1453.620, 256.198
1454.805, 123.551
1455.989, 70.825
1457.174, 270.061
1458.358, 112.881
1459.542, 195.899
1460.726, 185.867
1461.910, 47.683
1463.093, 211.911
1464.277, 221.761
1465.460, 13.969
1466.643, 204.047
1467.826, 95.115
1469.009, 144.926
1470.191, 257.894
1471.373, 145.361
1472.556, 131.216
1473.738, 330.640
1474.919, 228.367
1476.101, 249.604
1477.283, 260.192
1478.464, 116.104
1479.645, 245.418
1480.826, 248.846
1482.007, 66.634
1483.187, 258.786
1484.368, 141.877
1485.548, 22.422
1486.728, 343.869
1487.908, 121.383
1489.088, 136.375
1490.268, 238.807
1491.447, 16.658
1492.626, 147.072
1493.805, 195.515
1494.984, 56.950
1496.163, 333.360
1497.341, 124.763
1498.520, 56.171
1499.698, 423.500
1500.876, 130.143
1502.054, 106.633
1503.232, 298.326
1504.409, 17.762
1505.586, 155.515
1506.763, 231.214
1507.940, 59.526
1509.117, 294.620
1510.294, 161.226
1511.470, 36.255
1512.647, 275.204
1513.823, 68.160
1514.999, 0.000
##END=



