##NAMES=Actinolite
##RRUFFID=R050025
##IDEAL CHEMISTRY=Ca_2_(Mg_4.5-2.5_Fe^2+^_0.5-2.5_)Si_8_O_22_(OH)_2_
##LOCALITY=Tyrol, Austria
##OWNER=RRUFF
##SOURCE=Eugene Schlepp
##DESCRIPTION=Green colored bladed single crystals
##STATUS=The identification of this mineral has been confirmed by X-ray diffraction and chemical analysis
##URL=rruff.info/R050025
##MEASURED CHEMISTRY=(Ca_.930_Na_.056_Mn_.010_K_.004_)_2_(Mg_.883_Fe_.117_)_5_(Si_.978_Al_.022_)_8_O_22_(OH)_2_
##PIN_ID=L00067
##ORIENTATION=Laser parallel to (1 0 1). Fiducial mark perpendicular to laser is parallel to -b [0 -1 0]
85.706, 0.000
87.101, 3.601
88.496, 196.731
89.890, 372.896
91.284, 592.292
92.678, 436.106
94.071, 625.601
95.465, 331.817
96.858, 362.396
98.251, 419.945
99.644, 466.663
101.036, 507.224
102.428, 597.671
103.820, 657.592
105.212, 688.923
106.604, 904.407
107.995, 774.889
109.387, 780.237
110.777, 1269.618
112.168, 1686.450
113.559, 2367.256
114.949, 2259.007
116.339, 2132.309
117.729, 1592.811
119.119, 1143.982
120.508, 925.617
121.897, 793.644
123.286, 784.001
124.675, 515.641
126.063, 324.524
127.452, 211.613
128.840, 274.880
130.228, 197.297
131.615, 137.849
133.003, 74.532
134.390, 72.595
135.777, 46.046
137.164, 155.011
138.550, 187.185
139.937, 145.122
141.323, 9.847
142.709, 26.376
144.094, 50.270
145.480, 3.840
146.865, 48.823
148.250, 24.424
149.635, 111.154
151.019, 243.570
152.403, 480.837
153.788, 1041.965
155.171, 1595.962
156.555, 2232.840
157.939, 2756.603
159.322, 2886.359
160.705, 3203.814
162.088, 2727.275
163.470, 2060.647
164.853, 1359.936
166.235, 1106.143
167.617, 899.274
168.998, 1055.318
170.380, 1156.259
171.761, 1689.128
173.142, 1972.949
174.523, 2625.735
175.904, 3250.494
177.284, 3530.234
178.664, 3786.960
180.044, 3295.898
181.424, 2696.375
182.803, 2034.378
184.183, 1567.699
185.562, 1274.225
186.940, 896.552
188.319, 786.542
189.698, 649.146
191.076, 488.786
192.454, 594.486
193.831, 568.223
195.209, 570.013
196.586, 392.853
197.963, 601.732
199.340, 543.647
200.717, 693.599
202.093, 658.589
203.470, 995.201
204.846, 1050.455
206.221, 1180.857
207.597, 1532.164
208.972, 1759.916
210.347, 2241.695
211.722, 2666.515
213.097, 3351.365
214.472, 4394.246
215.846, 5304.155
217.220, 6834.090
218.594, 8125.039
219.967, 9554.003
221.341, 10830.973
222.714, 11419.950
224.087, 11740.938
225.460, 12202.933
226.832, 12152.931
228.204, 12748.939
229.577, 13106.947
230.948, 13242.960
232.320, 12405.974
233.692, 10999.992
235.063, 9240.010
236.434, 7617.028
237.805, 6453.051
239.175, 4505.074
240.545, 3923.097
241.916, 3376.122
243.286, 3265.146
244.655, 3398.170
246.025, 3745.193
247.394, 3919.217
248.763, 4002.240
250.132, 4068.263
251.501, 3700.912
252.869, 3281.098
254.237, 2727.799
255.605, 2350.829
256.973, 1933.115
258.340, 1540.607
259.708, 1378.270
261.075, 1084.075
262.442, 1051.002
263.808, 982.032
265.175, 589.151
266.541, 458.346
267.907, 307.605
269.273, 232.925
270.639, 122.302
272.004, 36.742
273.369, 31.234
274.734, 208.229
276.099, 0.759
277.463, 133.192
278.828, 0.620
280.192, 83.016
281.556, 210.416
282.919, 174.832
284.283, 107.242
285.646, 168.667
287.009, 117.089
288.372, 7.466
289.734, 37.032
291.097, 74.354
292.459, 9.757
293.821, 86.846
295.183, 287.623
296.544, 325.247
297.905, 421.934
299.266, 580.538
300.627, 633.216
301.988, 691.064
303.348, 688.593
304.709, 742.705
306.069, 600.361
307.428, 611.004
308.788, 566.706
310.147, 448.275
311.507, 471.875
312.865, 218.103
314.224, 200.666
315.583, 138.251
316.941, 77.781
318.299, 140.293
319.657, 0.210
321.015, 60.259
322.372, 86.289
323.729, 30.113
325.086, 131.494
326.443, 163.140
327.800, 45.158
329.156, 24.438
330.512, 310.697
331.868, 178.942
333.224, 227.176
334.579, 386.731
335.935, 284.348
337.290, 483.545
338.645, 485.729
339.999, 675.901
341.354, 738.062
342.708, 981.212
344.062, 1139.347
345.416, 1460.352
346.769, 1687.263
348.123, 2106.010
349.476, 2197.604
350.829, 2446.042
352.182, 2415.463
353.534, 2656.816
354.887, 2347.167
356.239, 2265.514
357.591, 2328.858
358.942, 2065.198
360.294, 2570.533
361.645, 2657.865
362.996, 3273.191
364.347, 4146.512
365.698, 4968.828
367.048, 6079.119
368.398, 6577.357
369.748, 7143.580
371.098, 6485.718
372.448, 5728.840
373.797, 5029.959
375.146, 4124.071
376.495, 3697.180
377.844, 3115.283
379.192, 2781.381
380.540, 2673.473
381.889, 2530.080
383.236, 3012.641
384.584, 2974.716
385.932, 3767.783
387.279, 4803.846
388.626, 5200.900
389.973, 6264.951
391.319, 6923.992
392.666, 7701.027
394.012, 7211.055
395.358, 6662.076
396.704, 5579.090
398.049, 4497.096
399.394, 3739.095
400.740, 2917.086
402.084, 2754.069
403.429, 2454.045
404.774, 2518.012
406.118, 2823.972
407.462, 2855.924
408.806, 3376.867
410.150, 3880.801
411.493, 4622.984
412.836, 5103.902
414.179, 5437.818
415.522, 5574.049
416.865, 5635.634
418.207, 5283.529
419.549, 4680.416
420.891, 4075.290
422.233, 3473.153
423.575, 2787.004
424.916, 2474.031
426.257, 2172.854
427.598, 1792.662
428.939, 1935.781
430.279, 1877.972
431.619, 2003.943
432.959, 2189.646
434.299, 2480.840
435.639, 2573.188
436.978, 2219.776
438.318, 2094.146
439.657, 1595.151
440.996, 1391.145
442.334, 969.133
443.673, 645.167
445.011, 751.006
446.349, 350.519
447.687, 391.255
449.024, 356.821
450.361, 281.730
451.699, 339.956
453.036, 273.621
454.372, 213.034
455.709, 48.879
457.045, 277.839
458.381, 277.045
459.717, 154.846
461.053, 316.109
462.388, 156.930
463.724, 388.539
465.059, 200.950
466.394, 413.766
467.728, 458.979
469.063, 360.813
470.397, 354.293
471.731, 356.607
473.065, 383.720
474.398, 271.089
475.732, 246.343
477.065, 439.407
478.398, 324.449
479.731, 403.466
481.063, 433.894
482.396, 326.783
483.728, 303.692
485.060, 441.562
486.391, 430.490
487.723, 387.430
489.054, 279.731
490.385, 292.191
491.716, 425.994
493.047, 263.836
494.377, 165.653
495.708, 149.444
497.038, 383.226
498.368, 254.983
499.697, 504.738
501.027, 381.521
502.356, 494.281
503.685, 634.063
505.014, 546.819
506.342, 857.554
507.671, 992.263
508.999, 1176.952
510.327, 1413.058
511.655, 1879.263
512.982, 1879.887
514.310, 2047.499
515.637, 2383.089
516.964, 2382.693
518.291, 2375.276
519.617, 2695.836
520.944, 2671.396
522.270, 2546.935
523.596, 2635.475
524.921, 2810.992
526.247, 2938.496
527.572, 2842.006
528.897, 2809.493
530.222, 2833.957
531.547, 2320.402
532.871, 2311.824
534.196, 1708.260
535.520, 1656.674
536.844, 1372.080
538.167, 1330.465
539.491, 1200.825
540.814, 952.185
542.137, 1101.521
543.460, 1039.836
544.783, 906.127
546.105, 818.393
547.427, 907.634
548.749, 780.851
550.071, 648.042
551.393, 671.208
552.714, 804.350
554.035, 591.468
555.356, 811.562
556.677, 813.629
557.998, 839.674
559.318, 589.691
560.638, 476.685
561.958, 601.651
563.278, 355.592
564.597, 453.507
565.917, 536.395
567.236, 484.256
568.555, 547.742
569.874, 235.900
571.192, 530.680
572.511, 462.433
573.829, 385.159
575.147, 595.858
576.464, 409.529
577.782, 543.174
579.099, 445.791
580.416, 375.382
581.733, 408.943
583.050, 258.479
584.366, 363.983
585.683, 355.462
586.999, 227.912
588.315, 207.330
589.630, 78.719
590.946, 9.933
592.261, 18.353
593.576, 46.587
594.891, 90.779
596.206, 219.005
597.520, 24.957
598.834, 102.939
600.148, 39.973
601.462, 90.133
602.776, 116.281
604.089, 29.504
605.402, 110.723
606.715, 36.984
608.028, 13.686
609.341, 104.660
610.653, 54.882
611.965, 22.410
613.277, 63.896
614.589, 3.825
615.901, 167.438
617.212, 61.370
618.523, 105.237
619.834, 3.177
621.145, 231.678
622.456, 81.746
623.766, 52.392
625.076, 95.741
626.386, 154.879
627.696, 234.822
629.006, 78.663
630.315, 383.781
631.624, 247.931
632.933, 269.675
634.242, 568.143
635.551, 496.039
636.859, 687.700
638.167, 728.429
639.475, 1021.549
640.783, 848.104
642.090, 1171.170
643.398, 1291.322
644.705, 1376.958
646.012, 1657.949
647.318, 1865.923
648.625, 2100.517
649.931, 2435.368
651.237, 2681.834
652.543, 2847.579
653.849, 3431.211
655.155, 3467.925
656.460, 3947.974
657.765, 4403.683
659.070, 5051.168
660.375, 5495.201
661.679, 6726.423
662.984, 8158.966
664.288, 9945.167
665.592, 12948.928
666.895, 16423.123
668.199, 20901.648
669.502, 25944.812
670.805, 30018.074
672.108, 32086.061
673.411, 32378.518
674.713, 27813.426
676.016, 23798.312
677.318, 18525.836
678.620, 14834.657
679.921, 11408.186
681.223, 9234.027
682.524, 7543.525
683.825, 6289.973
685.126, 5458.035
686.427, 4705.664
687.727, 4486.860
689.028, 4033.016
690.328, 3503.231
691.628, 3330.396
692.927, 2921.246
694.227, 2670.089
695.526, 2527.491
696.825, 2058.992
698.124, 1798.329
699.423, 1705.410
700.721, 1421.683
702.020, 1452.923
703.318, 1205.130
704.616, 1056.306
705.913, 988.449
707.211, 768.560
708.508, 1015.639
709.805, 725.077
711.102, 939.430
712.399, 716.413
713.695, 547.686
714.992, 851.606
716.288, 502.497
717.584, 791.355
718.879, 386.184
720.175, 539.980
721.470, 463.746
722.765, 465.480
724.060, 626.185
725.355, 507.858
726.649, 541.244
727.944, 648.857
729.238, 514.441
730.532, 689.995
731.825, 512.520
733.119, 854.014
734.412, 896.479
735.705, 726.913
736.998, 960.318
738.291, 1075.696
739.584, 1056.854
740.876, 1345.173
742.168, 1190.463
743.460, 1419.398
744.752, 1645.219
746.043, 1690.213
747.334, 1810.432
748.626, 1777.100
749.916, 1549.473
751.207, 1788.500
752.498, 1331.475
753.788, 1172.601
755.078, 827.805
756.368, 896.900
757.658, 746.858
758.947, 569.152
760.237, 520.916
761.526, 549.510
762.815, 367.416
764.104, 436.617
765.392, 477.520
766.680, 415.734
767.969, 314.162
769.257, 464.486
770.544, 437.645
771.832, 87.512
773.119, 461.738
774.406, 118.467
775.693, 193.590
776.980, 296.879
778.267, 299.322
779.553, 162.318
780.839, 150.871
782.125, 187.760
783.411, 390.963
784.697, 126.289
785.982, 15.227
787.267, 261.949
788.552, 22.805
789.837, 145.576
791.122, 193.938
792.406, 169.279
793.690, 70.604
794.974, 28.096
796.258, 36.639
797.542, 48.369
798.825, 79.447
800.108, 83.664
801.391, 79.756
802.674, 163.828
803.957, 93.881
805.239, 177.914
806.522, 21.930
807.804, 44.074
809.085, 92.875
810.367, 62.197
811.649, 185.328
812.930, 121.418
814.211, 160.852
815.492, 226.768
816.772, 80.369
818.053, 152.955
819.333, 10.525
820.613, 135.074
821.893, 48.607
823.173, 126.123
824.452, 30.379
825.732, 151.086
827.011, 131.467
828.290, 156.895
829.568, 167.240
830.847, 88.426
832.125, 181.842
833.403, 90.902
834.681, 119.287
835.959, 26.535
837.236, 109.391
838.514, 37.686
839.791, 136.744
841.068, 0.791
842.345, 0.820
843.621, 128.160
844.898, 3.219
846.174, 61.266
847.450, 22.645
848.726, 188.541
850.001, 91.562
851.277, 155.275
852.552, 9.891
853.827, 134.920
855.102, 196.721
856.376, 108.531
857.651, 174.332
858.925, 158.125
860.199, 139.924
861.473, 100.719
862.746, 4.506
864.020, 13.744
865.293, 153.072
866.566, 13.871
867.839, 237.660
869.112, 312.443
870.384, 156.254
871.656, 242.057
872.928, 213.854
874.200, 154.664
875.472, 436.469
876.744, 174.270
878.015, 313.068
879.286, 457.859
880.557, 273.689
881.828, 397.514
883.098, 289.340
884.369, 528.162
885.639, 450.982
886.909, 587.812
888.178, 512.637
889.448, 371.459
890.717, 694.279
891.987, 605.094
893.256, 612.908
894.524, 462.721
895.793, 721.531
897.061, 654.342
898.330, 674.150
899.598, 789.975
900.865, 818.830
902.133, 810.697
903.401, 1004.582
904.668, 893.480
905.935, 919.453
907.202, 903.447
908.468, 977.486
909.735, 995.373
911.001, 1069.703
912.267, 1087.760
913.533, 1235.906
914.799, 1311.104
916.064, 1391.309
917.330, 1290.529
918.595, 1662.791
919.860, 1757.061
921.124, 2154.348
922.389, 2218.637
923.653, 2674.947
924.918, 3077.754
926.182, 3459.129
927.445, 3730.086
928.709, 4034.387
929.972, 4132.789
931.236, 3746.207
932.499, 3743.467
933.761, 3194.689
935.024, 2759.082
936.286, 2638.543
937.549, 2028.699
938.811, 2035.793
940.073, 2047.268
941.334, 1750.961
942.596, 1661.234
943.857, 1816.723
945.118, 1852.117
946.379, 1960.105
947.640, 2024.639
948.900, 1966.158
950.161, 1921.473
951.421, 1832.008
952.681, 1649.100
953.940, 1587.186
955.200, 1391.633
956.459, 1432.797
957.719, 1220.324
958.978, 1356.213
960.236, 1313.113
961.495, 1320.322
962.753, 1227.168
964.012, 1300.326
965.270, 1026.686
966.527, 1372.469
967.785, 1312.043
969.043, 1012.273
970.300, 1347.820
971.557, 1212.785
972.814, 1125.287
974.071, 1076.441
975.327, 1365.938
976.583, 1530.307
977.840, 1102.938
979.095, 1237.066
980.351, 1069.715
981.607, 1212.383
982.862, 1166.719
984.117, 1157.062
985.372, 1138.012
986.627, 1088.625
987.882, 1076.557
989.136, 1124.518
990.390, 1183.838
991.644, 1126.568
992.898, 1138.705
994.152, 1306.830
995.405, 1150.908
996.659, 1311.160
997.912, 1214.561
999.165, 1393.945
1000.417, 1531.354
1001.670, 1412.049
1002.922, 1664.953
1004.174, 1828.057
1005.426, 1811.074
1006.678, 2090.703
1007.930, 2182.617
1009.181, 2118.676
1010.432, 2274.793
1011.683, 2491.900
1012.934, 2784.930
1014.185, 2705.328
1015.435, 3235.053
1016.685, 3230.732
1017.935, 3910.865
1019.185, 4354.023
1020.435, 4359.418
1021.684, 5142.936
1022.934, 5450.330
1024.183, 6228.605
1025.432, 7315.848
1026.680, 7640.713
1027.929, 8642.213
1029.177, 8363.512
1030.425, 8007.443
1031.673, 7272.848
1032.921, 6531.012
1034.169, 5441.117
1035.416, 4762.918
1036.663, 3868.820
1037.911, 4000.258
1039.157, 3469.930
1040.404, 3368.309
1041.650, 3219.660
1042.897, 3125.176
1044.143, 3190.289
1045.389, 3385.930
1046.634, 3447.631
1047.880, 3898.104
1049.125, 3945.104
1050.371, 4430.154
1051.615, 4859.531
1052.860, 5057.576
1054.105, 5934.562
1055.349, 6410.125
1056.593, 6868.459
1057.837, 6586.561
1059.081, 6564.252
1060.325, 6140.555
1061.568, 5709.520
1062.812, 5154.580
1064.055, 4894.361
1065.298, 4831.846
1066.540, 4359.014
1067.783, 4666.551
1069.025, 4079.186
1070.267, 4088.641
1071.509, 3397.102
1072.751, 3020.617
1073.993, 2683.070
1075.234, 2457.523
1076.475, 2196.041
1077.716, 1939.482
1078.957, 1837.283
1080.198, 1733.209
1081.438, 1699.641
1082.679, 1535.299
1083.919, 1451.748
1085.159, 1279.164
1086.398, 1267.898
1087.638, 1238.689
1088.877, 1128.977
1090.116, 1178.139
1091.355, 1264.564
1092.594, 1023.961
1093.833, 1060.271
1095.071, 910.668
1096.309, 1001.748
1097.547, 982.141
1098.785, 1254.539
1100.023, 1026.254
1101.260, 675.668
1102.498, 677.357
1103.735, 887.754
1104.972, 810.484
1106.208, 674.561
1107.445, 933.369
1108.681, 583.166
1109.918, 624.166
1111.154, 824.520
1112.389, 790.367
1113.625, 633.006
1114.860, 396.396
1116.096, 588.643
1117.331, 621.100
1118.566, 521.500
1119.800, 466.320
1121.035, 383.566
1122.269, 577.742
1123.503, 481.125
1124.737, 387.461
1125.971, 267.871
1127.205, 622.400
1128.438, 385.734
1129.671, 437.498
1130.904, 201.803
1132.137, 217.014
1133.370, 410.615
1134.602, 223.916
1135.834, 139.670
1137.066, 358.934
1138.298, 135.213
1139.530, 497.537
1140.762, 127.428
1141.993, 49.031
1143.224, 527.398
1144.455, 141.846
1145.686, 379.127
1146.917, 309.836
1148.147, 59.865
1149.377, 413.375
1150.607, 119.115
1151.837, 260.129
1153.067, 100.150
1154.296, 74.861
1155.526, 259.852
1156.755, 103.709
1157.984, 62.838
1159.213, 16.994
1160.441, 199.049
1161.670, 47.418
1162.898, 157.801
1164.126, 107.904
1165.354, 82.789
1166.581, 209.805
1167.809, 109.033
1169.036, 110.217
1170.263, 162.775
1171.490, 51.885
1172.717, 209.465
1173.943, 68.957
1175.170, 159.264
1176.396, 357.039
1177.622, 134.365
1178.848, 201.295
1180.073, 21.271
1181.299, 37.205
1182.524, 113.846
1183.749, 18.992
1184.974, 205.641
1186.199, 153.684
1187.423, 225.801
1188.648, 235.189
1189.872, 205.686
1191.096, 65.080
1192.320, 180.838
1193.543, 169.430
1194.767, 225.908
1195.990, 3.977
1197.213, 44.639
1198.436, 255.879
1199.659, 11.455
1200.881, 10.006
1202.104, 217.131
1203.326, 66.609
1204.548, 122.656
1205.770, 222.121
1206.991, 77.674
1208.213, 159.584
1209.434, 157.410
1210.655, 33.229
1211.876, 468.039
1213.096, 133.355
1214.317, 285.418
1215.537, 262.518
1216.757, 67.674
1217.977, 450.215
1219.197, 55.881
1220.417, 315.717
1221.636, 368.119
1222.855, 294.367
1224.074, 382.051
1225.293, 227.623
1226.512, 14.926
1227.731, 479.094
1228.949, 263.889
1230.167, 75.381
1231.385, 401.414
1232.603, 253.055
1233.820, 368.176
1235.038, 273.094
1236.255, 38.172
1237.472, 632.006
1238.689, 100.805
1239.906, 120.568
1241.122, 573.293
1242.338, 173.982
1243.555, 364.326
1244.771, 387.941
1245.986, 58.059
1247.202, 414.596
1248.417, 278.096
1249.633, 433.164
1250.848, 266.584
1252.063, 183.504
1253.277, 246.393
1254.492, 247.686
1255.706, 202.436
1256.920, 499.930
1258.134, 241.084
1259.348, 303.131
1260.562, 479.201
1261.775, 165.219
1262.988, 113.744
1264.201, 513.670
1265.414, 261.475
1266.627, 158.816
1267.839, 173.525
1269.052, 122.064
1270.264, 454.566
1271.476, 113.020
1272.688, 322.730
1273.899, 435.957
1275.111, 17.061
1276.322, 458.084
1277.533, 161.047
1278.744, 302.922
1279.955, 435.434
1281.165, 266.213
1282.376, 141.938
1283.586, 413.602
1284.796, 366.188
1286.006, 227.020
1287.215, 306.496
1288.425, 43.947
1289.634, 249.543
1290.843, 172.699
1292.052, 234.826
1293.261, 328.316
1294.469, 0.352
1295.678, 87.969
1296.886, 395.809
1298.094, 133.529
1299.302, 135.539
1300.509, 184.412
1301.717, 143.949
1302.924, 57.494
1304.131, 33.510
1305.338, 133.338
1306.545, 183.889
1307.752, 245.219
1308.958, 45.117
1310.164, 338.227
1311.370, 205.250
1312.576, 211.498
1313.782, 30.959
1314.987, 124.758
1316.193, 392.582
1317.398, 101.980
1318.603, 32.643
1319.807, 334.045
1321.012, 38.963
1322.216, 248.170
1323.421, 195.609
1324.625, 478.512
1325.829, 691.578
1327.032, 171.650
1328.236, 275.965
1329.439, 147.117
1330.642, 61.678
1331.845, 251.953
1333.048, 177.971
1334.251, 29.549
1335.453, 305.715
1336.656, 71.326
1337.858, 89.348
1339.060, 445.254
1340.261, 21.340
1341.463, 442.844
1342.664, 289.355
1343.866, 40.373
1345.067, 278.682
1346.267, 348.309
1347.468, 242.998
1348.669, 406.879
1349.869, 223.941
1351.069, 192.371
1352.269, 483.150
1353.469, 142.771
1354.668, 350.174
1355.868, 320.352
1357.067, 189.791
1358.266, 238.512
1359.465, 219.574
1360.664, 194.773
1361.862, 482.135
1363.061, 59.820
1364.259, 237.078
1365.457, 443.389
1366.655, 117.990
1367.852, 242.246
1369.050, 258.543
1370.247, 5.496
1371.444, 476.336
1372.641, 169.172
1373.838, 30.332
1375.035, 677.779
1376.231, 46.738
1377.427, 290.404
1378.623, 387.525
1379.819, 7.971
1381.015, 389.297
1382.211, 363.693
1383.406, 349.732
1384.601, 468.301
1385.796, 386.873
1386.991, 169.553
1388.185, 790.312
1389.380, 22.248
1390.574, 459.006
1391.768, 340.566
1392.962, 191.787
1394.156, 681.615
1395.350, 207.719
1396.543, 204.594
1397.736, 536.385
1398.929, 214.293
1400.122, 264.705
1401.315, 702.908
1402.507, 113.404
1403.700, 387.154
1404.892, 457.541
1406.084, 203.289
1407.276, 469.740
1408.467, 431.414
1409.659, 185.277
1410.850, 627.035
1412.041, 111.715
1413.232, 314.277
1414.423, 709.199
1415.614, 10.662
1416.804, 547.576
1417.994, 555.721
1419.184, 29.312
1420.374, 426.713
1421.564, 396.838
1422.753, 88.775
1423.943, 368.512
1425.132, 386.590
1426.321, 304.775
1427.510, 570.461
1428.698, 172.854
1429.887, 421.613
1431.075, 506.408
1432.263, 184.182
1433.451, 462.154
1434.639, 367.455
1435.827, 116.586
1437.014, 602.600
1438.201, 78.070
1439.388, 190.844
1440.575, 628.410
1441.762, 81.623
1442.949, 578.166
1444.135, 356.996
1445.321, 249.547
1446.507, 508.213
1447.693, 314.281
1448.879, 166.330
1450.064, 731.250
1451.250, 22.430
1452.435, 264.414
1453.620, 444.725
1454.805, 197.936
1455.989, 428.258
1457.174, 690.008
1458.358, 234.383
1459.542, 873.871
1460.726, 926.641
1461.910, 270.596
1463.093, 794.230
1464.277, 234.201
1465.460, 274.625
1466.643, 659.262
1467.826, 153.707
1469.009, 646.400
1470.191, 718.400
1471.373, 159.277
1472.556, 706.975
1473.738, 694.656
1474.919, 16.350
1476.101, 738.094
1477.283, 180.869
1478.464, 466.756
1479.645, 637.297
1480.826, 241.930
1482.007, 136.242
1483.187, 824.658
1484.368, 110.998
1485.548, 553.170
1486.728, 728.967
1487.908, 64.930
1489.088, 827.055
1490.268, 426.410
1491.447, 155.074
1492.626, 818.039
1493.805, 238.494
1494.984, 462.375
1496.163, 896.727
1497.341, 260.193
1498.520, 552.271
1499.698, 843.932
1500.876, 1.279
1502.054, 649.406
1503.232, 799.244
1504.409, 111.998
1505.586, 1044.445
1506.763, 480.994
1507.940, 162.789
1509.117, 994.426
1510.294, 420.229
1511.470, 454.268
1512.647, 885.127
1513.823, 207.311
1514.999, 739.818
1516.174, 947.867
1517.350, 3.162
1518.526, 0.000
##END=



