##NAMES=Actinolite
##RRUFFID=R060045
##IDEAL CHEMISTRY=Ca_2_(Mg_4.5-2.5_Fe^2+^_0.5-2.5_)Si_8_O_22_(OH)_2_
##LOCALITY=Colorado, USA
##OWNER=RRUFF
##SOURCE=University of Arizona Mineral Museum
##DESCRIPTION=Green prismatic crystals in a radial arrangement
##STATUS=The identification of this mineral has been confirmed by X-ray diffraction and chemical analysis
##URL=rruff.info/R060045
##MEASURED CHEMISTRY=(Ca_1.99_Na_0.01_)_Σ=2_(Mg_4.20_Fe^2+^_0.59_Al_0.09_Fe^3+^_0.08_Mn_0.02_Ti_0.01_)_Σ=5_(Si_7.82_Al_0.18_)_Σ=8_O_22_(OH)_2_
##PIN_ID=M00122
##ORIENTATION=Laser parallel to (1 0 1). Fiducial mark perpendicular to laser is parallel to b [0 1 0]
125.5190, 0.0000000E+00
126.7490, 18.33203
127.9790, 188.2773
129.2090, 12.33594
130.4390, 228.7754
131.6680, 86.51367
132.8980, 290.6777
134.1270, 67.59375
135.3560, 163.0117
136.5850, 315.9473
137.8140, 440.7695
139.0430, 315.1094
140.2710, 306.6738
141.5000, 367.2129
142.7280, 274.5254
143.9560, 397.4395
145.1840, 467.8086
146.4120, 641.4961
147.6390, 550.3789
148.8670, 730.3457
150.0940, 1012.312
151.3210, 1111.201
152.5490, 1441.945
153.7750, 1581.492
155.0020, 2318.789
156.2290, 3096.789
157.4550, 3580.457
158.6810, 3308.748
159.9080, 2587.631
161.1340, 2078.072
162.3590, 1945.070
163.5850, 1851.561
164.8110, 1815.785
166.0360, 1948.830
167.2610, 2209.539
168.4860, 2594.598
169.7110, 3157.988
170.9360, 3898.695
172.1610, 5035.717
173.3850, 6453.045
174.6100, 8747.672
175.8340, 11195.59
177.0580, 12023.80
178.2820, 10138.31
179.5050, 7791.088
180.7290, 5442.139
181.9520, 3933.453
183.1760, 3071.023
184.3990, 2052.844
185.6220, 1571.898
186.8450, 1516.180
188.0670, 1067.682
189.2900, 943.3926
190.5120, 1019.309
191.7340, 904.4141
192.9560, 899.7109
194.1780, 829.1895
195.4000, 874.8438
196.6220, 750.6660
197.8430, 807.2715
199.0640, 729.3750
200.2860, 987.6543
201.5070, 1212.768
202.7270, 1331.984
203.9480, 1251.051
205.1690, 1197.152
206.3890, 1479.307
207.6090, 1731.537
208.8290, 2116.832
210.0490, 2475.199
211.2690, 3110.637
212.4890, 3935.152
213.7080, 4881.750
214.9280, 6092.430
216.1470, 7286.322
217.3660, 9167.516
218.5850, 11184.79
219.8030, 12862.15
221.0220, 13840.59
222.2400, 13389.19
223.4590, 11281.04
224.6770, 9621.088
225.8950, 7374.242
227.1120, 5933.504
228.3300, 4602.021
229.5480, 3594.699
230.7650, 2713.463
231.9820, 2240.336
233.1990, 1859.307
234.4160, 1352.352
235.6330, 1128.365
236.8490, 1109.785
238.0660, 766.1816
239.2820, 667.6309
240.4980, 663.1484
241.7140, 285.7441
242.9300, 312.4062
244.1460, 427.1172
245.3610, 490.8750
246.5770, 407.6797
247.7920, 509.5312
249.0070, 339.4297
250.2220, 451.3750
251.4370, 520.3652
252.6510, 320.4004
253.8660, 467.4785
255.0800, 256.5996
256.2940, 361.7617
257.5080, 60.96484
258.7220, 156.2109
259.9360, 395.4980
261.1490, 253.8242
262.3630, 235.1875
263.5760, 244.5879
264.7890, 38.02539
266.0020, 108.5000
267.2150, 101.0098
268.4270, 66.55664
269.6400, 39.85938
270.8520, 8.763672
272.0640, 21.99219
273.2760, 11.74219
274.4880, 154.2363
275.7000, 78.04102
276.9120, 8.472656
278.1230, 175.6992
279.3340, 6.300781
280.5450, 132.4277
281.7560, 187.8691
282.9670, 179.5039
284.1780, 155.3203
285.3880, 234.3086
286.5980, 271.8047
287.8090, 248.8750
289.0190, 383.3066
290.2290, 568.8750
291.4380, 534.5645
292.6480, 498.3770
293.8570, 700.3027
295.0670, 380.3359
296.2760, 235.4727
297.4850, 792.7051
298.6930, 648.0371
299.9020, 575.4570
301.1110, 528.9785
302.3190, 731.5801
303.5270, 656.2656
304.7350, 595.7969
305.9430, 411.4512
307.1510, 357.2285
308.3580, 227.8633
309.5660, 345.9414
310.7730, 267.0859
311.9800, 254.2969
313.1870, 113.5664
314.3940, 198.9414
315.6010, 30.37695
316.8070, 334.1582
318.0130, 235.7324
319.2200, 401.5391
320.4260, 183.2148
321.6310, 366.4688
322.8370, 291.5039
324.0430, 294.4141
325.2480, 409.2852
326.4540, 660.1992
327.6590, 771.3418
328.8640, 822.8867
330.0680, 841.0195
331.2730, 873.0918
332.4780, 888.4707
333.6820, 921.0547
334.8860, 940.1484
336.0900, 982.5605
337.2940, 1060.100
338.4980, 1059.373
339.7010, 1219.900
340.9050, 1278.234
342.1080, 1226.598
343.3110, 1604.602
344.5140, 1679.016
345.7170, 1560.457
346.9200, 1555.535
348.1220, 1598.025
349.3240, 1797.543
350.5270, 1662.086
351.7290, 1824.656
352.9310, 1549.541
354.1320, 1606.121
355.3340, 1459.766
356.5350, 1576.986
357.7370, 1732.678
358.9380, 1865.396
360.1390, 2028.016
361.3400, 2189.898
362.5400, 2435.682
363.7410, 2953.484
364.9410, 3337.309
366.1410, 3551.152
367.3410, 3637.014
368.5410, 3310.895
369.7410, 3187.793
370.9400, 2811.705
372.1400, 2338.637
373.3390, 2059.578
374.5380, 1625.539
375.7370, 1419.514
376.9360, 1332.500
378.1350, 1031.500
379.3330, 1045.512
380.5310, 1133.535
381.7300, 1090.570
382.9280, 990.6152
384.1260, 945.6699
385.3230, 1046.734
386.5210, 1081.811
387.7180, 1369.895
388.9160, 1320.986
390.1130, 1425.086
391.3100, 1478.195
392.5060, 1265.314
393.7030, 1090.441
394.9000, 1004.576
396.0960, 704.7129
397.2920, 648.8613
398.4880, 354.0156
399.6840, 384.1797
400.8800, 296.3457
402.0750, 303.5176
403.2710, 240.6973
404.4660, 394.8809
405.6610, 221.0723
406.8560, 224.2656
408.0510, 176.4648
409.2450, 479.6699
410.4400, 259.8770
411.6340, 182.3008
412.8280, 446.5156
414.0220, 281.4258
415.2160, 258.6504
416.4100, 72.88672
417.6030, 151.0684
418.7970, 352.3848
419.9900, 35.91992
421.1830, 193.6328
422.3760, 144.5469
423.5690, 25.13281
424.7610, 59.27148
425.9540, 139.6934
427.1460, 135.1973
428.3380, 163.6523
429.5300, 158.1543
430.7220, 35.36133
431.9140, 308.1270
433.1050, 271.6270
434.2970, 211.1367
435.4880, 566.6582
436.6790, 204.1895
437.8700, 155.7324
439.0610, 100.2832
440.2510, 30.84180
441.4420, 6.408203
442.6320, 185.9844
443.8220, 191.0195
445.0120, 123.6074
446.2020, 223.2031
447.3910, 132.1973
448.5810, 98.43750
449.7700, 223.5723
450.9600, 9.947266
452.1490, 90.45117
453.3370, 138.6348
454.5260, 169.0391
455.7150, 19.44531
456.9030, 155.6836
458.0910, 44.60352
459.2800, 120.8750
460.4670, 164.1035
461.6550, 194.5547
462.8430, 95.68164
464.0300, 149.9902
465.2180, 10.15820
466.4050, 26.77148
467.5920, 49.34570
468.7790, 97.51758
469.9650, 91.37305
471.1520, 48.31836
472.3380, 247.3008
473.5250, 131.5703
474.7110, 193.4395
475.8970, 114.3027
477.0820, 44.83789
478.2680, 19.98047
479.4540, 37.73828
480.6390, 73.56641
481.8240, 18.66797
483.0090, 86.07422
484.1940, 95.81055
485.3780, 54.46094
486.5630, 236.2188
487.7470, 35.89453
488.9320, 163.4395
490.1160, 119.1191
491.3000, 271.6738
492.4830, 141.2207
493.6670, 56.77344
494.8500, 27.32227
496.0340, 5.099609
497.2170, 78.45117
498.4000, 13.00391
499.5820, 185.5039
500.7650, 286.0059
501.9480, 174.4980
503.1300, 180.9805
504.3120, 111.4707
505.4940, 445.9609
506.6760, 365.4785
507.8580, 436.9844
509.0390, 254.4785
510.2210, 617.0527
511.4020, 650.6152
512.5830, 645.2188
513.7640, 666.8164
514.9450, 633.4180
516.1250, 680.0098
517.3060, 767.5918
518.4860, 687.1719
519.6660, 761.7363
520.8460, 708.2949
522.0260, 758.8379
523.2060, 786.3828
524.3850, 559.9160
525.5650, 747.4355
526.7440, 896.9512
527.9230, 844.4551
529.1020, 653.9746
530.2810, 737.4980
531.4590, 636.0371
532.6380, 724.5664
533.8160, 791.0762
534.9940, 320.5762
536.1720, 480.0586
537.3500, 389.5293
538.5270, 275.9863
539.7050, 395.4297
540.8820, 437.8574
542.0590, 258.2734
543.2360, 569.6719
544.4130, 451.0566
545.5900, 333.4277
546.7660, 442.7812
547.9430, 203.1211
549.1190, 173.4453
550.2950, 255.7559
551.4710, 251.0488
552.6470, 50.32617
553.8220, 440.5762
554.9980, 281.8105
556.1730, 480.0332
557.3480, 259.2832
558.5230, 216.5117
559.6980, 128.7266
560.8730, 93.22266
562.0470, 29.09961
563.2220, 80.23828
564.3960, 243.3672
565.5700, 186.8359
566.7440, 225.9414
567.9170, 135.0293
569.0910, 182.0977
570.2640, 146.1484
571.4380, 256.1797
572.6110, 202.0723
573.7840, 294.0684
574.9570, 286.6641
576.1290, 347.0000
577.3020, 290.9375
578.4740, 284.8555
579.6460, 305.7617
580.8180, 284.6465
581.9900, 409.5117
583.1620, 266.3516
584.3330, 38.17578
585.5040, 268.3262
586.6760, 388.0859
587.8470, 360.8262
589.0180, 121.7754
590.1880, 50.34570
591.3590, 105.3066
592.5290, 278.0430
593.7000, 72.60938
594.8700, 326.4883
596.0400, 298.0078
597.2090, 110.4941
598.3790, 87.89062
599.5490, 63.25000
600.7180, 30.71094
601.8870, 231.5469
603.0560, 224.6094
604.2250, 131.8301
605.3940, 196.5059
606.5620, 49.42578
607.7300, 232.4961
608.8990, 134.6309
610.0670, 156.7461
611.2350, 393.9902
612.4020, 225.5215
613.5700, 563.4785
614.7370, 487.5195
615.9050, 384.5430
617.0720, 313.5469
618.2390, 396.9062
619.4060, 220.8359
620.5720, 489.6230
621.7390, 555.7051
622.9050, 657.6562
624.0710, 439.5488
625.2370, 511.5234
626.4030, 521.7656
627.5690, 627.9219
628.7340, 561.7422
629.9000, 628.1504
631.0650, 926.3535
632.2300, 1129.516
633.3950, 992.6387
634.5600, 871.3691
635.7240, 833.3613
636.8890, 947.8711
638.0530, 1340.240
639.2170, 1396.371
640.3810, 1450.010
641.5450, 1859.629
642.7080, 1858.645
643.8720, 2067.164
645.0350, 2681.814
646.1980, 2876.445
647.3610, 3211.969
648.5240, 3469.793
649.6870, 3700.605
650.8490, 4118.312
652.0120, 4423.781
653.1740, 4603.656
654.3360, 4881.904
655.4980, 4752.465
656.6600, 5199.910
657.8210, 5460.336
658.9830, 6104.656
660.1440, 6508.801
661.3050, 7689.062
662.4660, 8867.422
663.6270, 10287.04
664.7870, 12322.54
665.9480, 14589.16
667.1080, 17366.12
668.2680, 19829.56
669.4280, 22409.29
670.5880, 24508.54
671.7480, 25008.75
672.9070, 23522.80
674.0670, 20927.81
675.2260, 17900.79
676.3850, 14312.77
677.5440, 11440.71
678.7030, 9338.996
679.8610, 7444.180
681.0200, 5973.055
682.1780, 5116.895
683.3360, 4486.176
684.4940, 3702.961
685.6520, 3336.734
686.8090, 3003.938
687.9670, 2771.660
689.1240, 2452.352
690.2810, 2270.023
691.4380, 1917.672
692.5950, 1880.086
693.7520, 1488.465
694.9080, 1646.504
696.0650, 1484.602
697.2210, 1349.203
698.3770, 955.7070
699.5330, 1025.160
700.6880, 924.5781
701.8440, 557.6250
702.9990, 752.0430
704.1550, 630.1680
705.3100, 758.5312
706.4650, 807.0508
707.6190, 466.5625
708.7740, 582.8516
709.9290, 647.0859
711.0830, 344.9531
712.2370, 645.1719
713.3910, 542.3711
714.5450, 437.5430
715.6980, 366.6914
716.8520, 317.3516
718.0050, 235.8867
719.1580, 344.9648
720.3110, 280.0156
721.4640, 475.1875
722.6170, 378.2305
723.7700, 138.7891
724.9220, 349.7812
726.0740, 280.7617
727.2260, 312.7070
728.3780, 589.4414
729.5300, 71.02734
730.6810, 78.77344
731.8330, 487.7227
732.9840, 138.8672
734.1350, 454.7656
735.2860, 422.6406
736.4370, 745.6641
737.5880, 748.9805
738.7380, 826.6758
739.8880, 601.4062
741.0390, 579.6680
742.1890, 601.4961
743.3380, 539.3633
744.4880, 499.7070
745.6380, 367.5898
746.7870, 318.5898
747.9360, 280.8359
749.0850, 122.1094
750.2340, 308.3242
751.3830, 252.0820
752.5310, 432.3359
753.6800, 240.1172
754.8280, 225.9727
755.9760, 212.7109
757.1240, 163.4531
758.2720, 170.1367
759.4190, 166.1172
760.5670, 139.5664
761.7140, 234.2656
762.8610, 177.9180
764.0080, 307.9414
765.1550, 125.5547
766.3020, 373.1719
767.4480, 149.7695
768.5950, 101.3906
769.7410, 106.9883
770.8870, 15.43359
772.0330, 263.0898
773.1780, 130.4062
774.3240, 177.9883
775.4690, 111.3789
776.6140, 194.7383
777.7590, 333.0898
778.9040, 214.4258
780.0490, 99.74609
781.1940, 25.96094
782.3380, 3.277344
783.4820, 92.52344
784.6260, 235.5820
785.7700, 121.6758
786.9140, 288.2539
788.0580, 138.6211
789.2010, 172.5195
790.3450, 87.21094
791.4880, 27.08984
792.6310, 151.5664
793.7730, 172.1953
794.9160, 0.1914060
796.0590, 190.3828
797.2010, 37.93750
798.3430, 242.4648
799.4850, 2.023438
800.6270, 94.45312
801.7690, 116.9062
802.9100, 8.335938
804.0520, 36.73828
805.1930, 70.88281
806.3340, 28.58203
807.4750, 85.32422
808.6160, 148.8477
809.7560, 178.0039
810.8970, 195.6562
812.0370, 234.8477
813.1770, 175.3711
814.3170, 191.4609
815.4570, 89.53516
816.5960, 106.5898
817.7360, 174.6289
818.8750, 298.6484
820.0140, 64.64844
821.1530, 363.6328
822.2920, 340.6016
823.4310, 61.55469
824.5690, 484.4922
825.7070, 282.4102
826.8460, 253.3125
827.9840, 183.2031
829.1220, 323.0781
830.2590, 17.94922
831.3970, 54.79297
832.5340, 133.1680
833.6710, 145.5586
834.8080, 162.2773
835.9450, 157.9766
837.0820, 113.6680
838.2190, 259.3359
839.3550, 40.99219
840.4910, 28.36328
841.6270, 260.6406
842.7630, 111.2148
843.8990, 91.77344
845.0350, 184.3203
846.1700, 419.8516
847.3060, 16.39453
848.4410, 307.9297
849.5760, 399.4453
850.7100, 294.9531
851.8450, 359.4414
852.9800, 208.9258
854.1140, 21.60547
855.2480, 259.8281
856.3820, 373.2539
857.5160, 105.6719
858.6500, 460.7617
859.7830, 405.1484
860.9170, 402.1602
862.0500, 140.5391
863.1830, 550.9023
864.3160, 405.2578
865.4480, 278.5977
866.5810, 210.0859
867.7130, 187.6680
868.8460, 207.9102
869.9780, 187.0078
871.1100, 347.3359
872.2410, 150.6523
873.3730, 206.0000
874.5050, 133.3438
875.6360, 6.683594
876.7670, 18.03906
877.8980, 418.3945
879.0290, 89.76562
880.1590, 6.132813
881.2900, 266.4805
882.4200, 75.82031
883.5500, 112.1484
884.6800, 289.4727
885.8100, 12.44141
886.9400, 211.7383
888.0690, 12.02344
889.1990, 526.2930
890.3280, 94.58203
891.4570, 520.8594
892.5860, 359.1289
893.7140, 382.2305
894.8430, 381.3555
895.9710, 408.4492
897.1000, 106.4297
898.2280, 359.6641
899.3560, 22.78516
900.4830, 223.9883
901.6110, 428.8711
902.7380, 310.0742
903.8660, 250.0547
904.9930, 408.8242
906.1200, 344.5977
907.2460, 357.3945
908.3730, 328.5508
909.5000, 221.1328
910.6260, 324.1758
911.7520, 305.3945
912.8780, 593.0547
914.0040, 444.2383
915.1290, 500.4141
916.2550, 684.1641
917.3800, 617.3906
918.5050, 804.4570
919.6300, 883.5117
920.7550, 961.6719
921.8800, 1347.504
923.0040, 1274.320
924.1290, 1253.219
925.2530, 1479.328
926.3770, 1841.004
927.5010, 1978.289
928.6250, 1884.242
929.7480, 1881.277
930.8720, 1937.309
931.9950, 1920.422
933.1180, 1811.977
934.2410, 1674.828
935.3640, 1496.844
936.4860, 1296.566
937.6090, 1046.430
938.7310, 983.1367
939.8530, 959.1172
940.9750, 1318.320
942.0970, 1096.844
943.2180, 1245.824
944.3400, 1393.871
945.4610, 1457.035
946.5820, 1433.230
947.7030, 1529.414
948.8240, 1128.582
949.9450, 1105.770
951.0650, 1336.586
952.1860, 755.4688
953.3060, 769.6445
954.4260, 782.8281
955.5460, 556.5508
956.6650, 806.7305
957.7850, 814.9141
958.9040, 472.6328
960.0230, 444.8125
961.1420, 514.0234
962.2610, 410.2344
963.3800, 461.4492
964.4990, 560.6602
965.6170, 297.0859
966.7350, 17.16016
967.8530, 69.50391
968.9710, 398.6406
970.0890, 470.8477
971.2070, 245.0430
972.3240, 278.0586
973.4410, 357.2656
974.5580, 285.9062
975.6750, 31.62891
976.7920, 481.5781
977.9090, 37.60938
979.0250, 164.5664
980.1410, 314.7812
981.2580, 180.1133
982.3740, 372.6992
983.4890, 269.9141
984.6050, 209.1328
985.7200, 196.3555
986.8360, 253.5742
987.9510, 602.7891
989.0660, 229.0703
990.1810, 91.32422
991.2950, 223.5820
992.4100, 193.3086
993.5240, 400.8789
994.6390, 405.1328
995.7530, 221.3906
996.8660, 383.6367
997.9800, 223.8984
999.0940, 419.1562
1000.207, 456.4219
1001.320, 378.7500
1002.433, 480.0234
1003.546, 603.5977
1004.659, 531.8789
1005.772, 828.1562
1006.884, 709.4336
1007.996, 493.7188
1009.108, 585.1523
1010.220, 741.1484
1011.332, 841.9023
1012.444, 808.0547
1013.555, 786.8984
1014.666, 774.6914
1015.777, 908.4883
1016.888, 1186.188
1017.999, 1170.453
1019.110, 1467.762
1020.220, 1472.633
1021.331, 1503.980
1022.441, 1443.859
1023.551, 1769.434
1024.661, 1953.668
1025.770, 2300.004
1026.880, 2478.184
1027.989, 2517.520
1029.098, 2615.855
1030.207, 2611.777
1031.316, 2264.180
1032.425, 1940.523
1033.533, 1750.504
1034.642, 1538.062
1035.750, 1729.375
1036.858, 1738.754
1037.966, 1734.098
1039.073, 1651.445
1040.181, 1881.797
1041.288, 2162.160
1042.396, 2185.746
1043.503, 2401.156
1044.610, 2672.254
1045.716, 2897.664
1046.823, 3471.141
1047.929, 4212.551
1049.036, 4698.961
1050.142, 5327.375
1051.248, 6445.801
1052.353, 7106.238
1053.459, 7830.434
1054.564, 8680.898
1055.670, 9130.570
1056.775, 9425.281
1057.880, 9296.840
1058.985, 8928.449
1060.089, 8305.922
1061.194, 7576.551
1062.298, 6580.176
1063.402, 5774.059
1064.506, 5453.695
1065.610, 4891.664
1066.713, 4397.305
1067.817, 4248.941
1068.920, 3740.582
1070.023, 3318.676
1071.126, 2744.312
1072.229, 2131.961
1073.332, 1782.605
1074.435, 1438.109
1075.537, 1573.969
1076.639, 1126.855
1077.741, 1188.566
1078.843, 1331.273
1079.945, 938.2070
1081.046, 821.9180
1082.148, 849.6133
1083.249, 798.3086
1084.350, 829.0078
1085.451, 927.6992
1086.551, 563.3906
1087.652, 623.2617
1088.752, 553.0977
1089.853, 784.7812
1090.953, 591.4609
1092.053, 344.1406
1093.152, 662.5898
1094.252, 687.2617
1095.351, 519.9297
1096.451, 266.5938
1097.550, 464.2500
1098.649, 411.0859
1099.748, 229.5312
1100.846, 329.2188
1101.945, 473.9102
1103.043, 324.5938
1104.141, 287.2773
1105.239, 349.2188
1106.337, 247.9062
1107.434, 297.5781
1108.532, 159.8555
1109.629, 296.7188
1110.726, 231.4062
1111.823, 331.0938
1112.920, 115.2266
1114.017, 274.3906
1115.113, 299.0039
1116.210, 64.73438
1117.306, 391.3359
1118.402, 296.9414
1119.498, 359.5312
1120.593, 459.2930
1121.689, 131.8867
1122.784, 117.4766
1123.879, 190.0625
1124.974, 264.1055
1126.069, 298.7266
1127.164, 219.7617
1128.259, 326.3320
1129.353, 285.8906
1130.447, 163.4414
1131.541, 150.9922
1132.635, 64.34375
1133.729, 161.0703
1134.822, 11.60156
1135.916, 79.17188
1137.009, 245.6875
1138.102, 118.1992
1139.195, 288.7109
1140.288, 46.21484
1141.380, 7.289063
1142.473, 49.81250
1143.565, 80.37500
1144.657, 6.175781
1145.749, 187.5430
1146.841, 70.91016
1147.932, 130.2656
1149.024, 267.6133
1150.115, 253.9609
1151.206, 139.2422
1152.297, 86.57422
1153.388, 126.0703
1154.479, 80.60547
1155.569, 202.6523
1156.659, 207.2266
1157.750, 8.523438
1158.839, 124.6953
1159.929, 260.9062
1161.019, 15.11328
1162.108, 78.30078
1163.198, 304.4883
1164.287, 126.6641
1165.376, 47.83594
1166.465, 25.00000
1167.553, 91.12891
1168.642, 349.2461
1169.730, 307.3555
1170.818, 210.4609
1171.906, 267.5625
1172.994, 48.65234
1174.082, 256.7344
1175.170, 3.191406
1176.257, 128.8594
1177.344, 200.0977
1178.431, 440.8203
1179.518, 166.7305
1180.605, 128.6289
1181.691, 193.5156
1182.778, 171.3984
1183.864, 50.72266
1184.950, 151.1055
1186.036, 55.92188
1187.122, 66.73438
1188.207, 212.5352
1189.292, 214.3281
1190.378, 4.886719
1191.463, 164.8750
1192.548, 130.6250
1193.632, 41.44141
1194.717, 103.0938
1195.801, 28.18750
1196.886, 110.5000
1197.970, 234.1758
1199.054, 362.8477
1200.137, 125.4961
1201.221, 633.0742
1202.305, 168.6367
1203.388, 159.1914
1204.471, 322.7383
1205.554, 241.2695
1206.637, 137.1992
1207.719, 222.2305
1208.802, 224.6523
1209.884, 49.07031
1210.966, 248.4766
1212.048, 212.8711
1213.130, 150.2578
1214.212, 259.6328
1215.293, 278.0039
1216.374, 154.3633
1217.456, 57.72266
1218.536, 66.06250
1219.617, 149.3984
1220.698, 375.7266
1221.778, 153.0430
1222.859, 100.6484
1223.939, 595.5820
1225.019, 190.8047
1226.099, 348.0273
1227.178, 394.2344
1228.258, 57.43359
1229.337, 364.6250
1230.417, 411.8086
1231.496, 131.9883
1232.574, 197.1523
1233.653, 279.3125
1234.732, 33.46484
1235.810, 407.6055
1236.888, 147.7383
1237.966, 140.8633
1239.044, 53.98438
1240.122, 203.0938
1241.199, 140.0703
1242.277, 222.1641
1243.354, 149.1367
1244.431, 328.2422
1245.508, 59.33984
1246.585, 217.4297
1247.661, 325.5117
1248.738, 210.5898
1249.814, 98.33984
1250.890, 276.6602
1251.966, 370.6562
1253.042, 414.6406
1254.117, 48.62109
1255.193, 248.3672
1256.268, 194.0508
1257.343, 311.9062
1258.418, 115.7539
1259.493, 229.5977
1260.567, 357.4375
1261.642, 176.2617
1262.716, 352.0273
1263.790, 583.8438
1264.864, 68.35938
1265.938, 212.1602
1267.011, 368.3008
1268.085, 408.0938
1269.158, 539.6211
1270.231, 639.5156
1271.304, 506.0391
1272.377, 413.8789
1273.450, 76.22266
1274.522, 393.4453
1275.594, 78.15625
1276.666, 200.7930
1277.738, 332.4961
1278.810, 329.1953
1279.882, 26.10938
1280.953, 337.5664
1282.025, 23.21094
1283.096, 586.8789
1284.167, 97.29297
1285.238, 37.04688
1286.308, 611.5859
1287.379, 185.3789
1288.449, 366.0039
1289.519, 478.6367
1290.589, 418.6797
1291.659, 291.2227
1292.729, 519.8477
1293.798, 195.4648
1294.868, 580.8711
1295.937, 548.5156
1297.006, 279.0977
1298.075, 142.7109
1299.143, 258.3281
1300.212, 225.9453
1301.280, 164.5586
1302.348, 142.9688
1303.416, 160.5977
1304.484, 229.5391
1305.552, 464.1758
1306.620, 1584.746
1307.687, 824.3828
1308.754, 1296.023
1309.821, 1472.664
1310.888, 515.3086
1311.955, 412.9531
1313.021, 151.8789
1314.088, 476.5312
1315.154, 397.9805
1316.220, 517.4883
1317.286, 579.1445
1318.352, 538.8164
1319.417, 578.6289
1320.483, 694.3047
1321.548, 404.9688
1322.613, 653.3750
1323.678, 281.0391
1324.743, 479.3633
1325.807, 608.0234
1326.872, 404.6836
1327.936, 333.3438
1329.000, 448.5586
1330.064, 331.2188
1331.128, 332.5469
1332.191, 262.6992
1333.255, 291.2109
1334.318, 122.8828
1335.381, 157.3828
1336.444, 231.0547
1337.507, 516.7266
1338.569, 462.1797
1339.632, 387.8555
1340.694, 448.5391
1341.756, 211.2227
1342.818, 341.9102
1343.880, 285.6016
1344.941, 377.3008
1346.003, 311.8086
1347.064, 308.3633
1348.125, 262.3320
1349.186, 27.76953
1350.247, 137.4766
1351.308, 353.4141
1352.368, 361.1328
1353.428, 196.8516
1354.489, 429.5781
1355.549, 210.3086
1356.608, 9.875000
1357.668, 257.6250
1358.727, 533.3672
1359.787, 243.1133
1360.846, 321.8711
1361.905, 339.6328
1362.964, 292.1328
1364.022, 191.9062
1365.081, 158.1680
1366.139, 385.4805
1367.197, 137.1016
1368.255, 41.08594
1369.313, 208.7227
1370.371, 355.5469
1371.428, 280.2266
1372.486, 333.0977
1373.543, 355.8594
1374.600, 491.7539
1375.657, 514.7031
1376.713, 358.5625
1377.770, 547.3164
1378.826, 407.2500
1379.882, 261.1914
1380.938, 517.1445
1381.994, 354.9531
1383.050, 35.58203
1384.106, 322.3984
1385.161, 506.3945
1386.216, 248.3984
1387.271, 472.4180
1388.326, 524.4531
1389.381, 385.5938
1390.435, 513.6523
1391.490, 29.72266
1392.544, 348.7578
1393.598, 62.13672
1394.652, 407.0117
1395.705, 310.1406
1396.759, 354.2773
1397.812, 224.4375
1398.866, 59.62109
1399.919, 48.83594
1400.972, 41.08203
1402.024, 96.19531
1403.077, 268.4883
1404.129, 536.8047
1405.181, 553.1367
1406.233, 198.4844
1407.285, 399.9180
1408.337, 100.3125
1409.389, 162.5586
1410.440, 284.9062
1411.491, 259.3125
1412.542, 356.4062
1413.593, 326.8516
1414.644, 379.3203
1415.695, 139.8164
1416.745, 424.3867
1417.795, 153.9297
1418.845, 464.4961
1419.895, 181.0938
1420.945, 397.7070
1421.995, 284.6445
1423.044, 252.3281
1424.093, 393.0352
1425.142, 206.3164
1426.191, 378.0820
1427.240, 627.8789
1428.289, 14.22656
1429.337, 357.0859
1430.385, 379.9844
1431.433, 94.08203
1432.481, 451.0625
1433.529, 382.2773
1434.577, 225.3984
1435.624, 555.5586
1436.672, 302.7422
1437.719, 311.0781
1438.766, 493.1445
1439.812, 609.3516
1440.859, 306.3906
1441.905, 536.4258
1442.952, 790.7422
1443.998, 391.3008
1445.044, 342.5352
1446.090, 682.4766
1447.135, 425.3320
1448.181, 850.6641
1449.226, 662.0273
1450.271, 276.4141
1451.316, 491.8555
1452.361, 661.3516
1453.405, 347.8633
1454.450, 604.4336
1455.494, 389.0664
1456.538, 585.7148
1457.582, 504.3867
1458.626, 555.0703
1459.670, 500.7773
1460.713, 490.5000
1461.757, 626.2422
1462.800, 252.0820
1463.843, 189.9414
1464.886, 395.8242
1465.928, 559.7266
1466.971, 418.6523
1468.013, 561.6016
1469.055, 668.5820
1470.097, 413.5898
1471.139, 703.5312
1472.181, 227.5391
1473.222, 407.5352
1474.263, 409.5625
1475.305, 313.6445
1476.346, 322.7969
1477.386, 473.9766
1478.427, 612.6172
1479.468, 556.0234
1480.508, 344.4688
1481.548, 290.9375
1482.588, 309.4414
1483.628, 410.0781
1484.668, 513.6211
1485.707, 365.1875
1486.747, 522.8906
1487.786, 158.5742
1488.825, 479.2930
1489.864, 303.0547
1490.902, 365.8672
1491.941, 370.7109
1492.979, 381.6289
1494.017, 112.5820
1495.055, 255.5664
1496.093, 143.4219
1497.131, 217.6250
1498.168, 316.7031
1499.206, 190.8125
1500.243, 110.9258
1501.280, 411.0469
1502.317, 407.1797
1503.354, 532.3320
1504.390, 481.5117
1505.426, 302.7109
1506.463, 169.9375
1507.499, 228.1875
1508.535, 273.4102
1509.570, 195.6992
1510.606, 514.0781
1511.641, 326.5156
1512.676, 723.0156
1513.711, 62.58203
1514.746, 535.2109
1515.781, 217.9062
1516.816, 336.6758
1517.850, 431.5039
1518.884, 90.40234
1519.918, 232.3789
1520.952, 492.4258
1521.986, 307.5742
1523.019, 440.8047
1524.053, 670.1289
1525.086, 262.5391
1526.119, 173.0391
1527.152, 675.6328
1528.185, 537.3516
1529.217, 263.1875
1530.250, 200.1289
1531.282, 240.1641
1532.314, 302.3125
1533.346, 507.5586
1534.377, 309.3242
1535.409, 188.2305
1536.440, 582.2227
1537.472, 424.3008
1538.503, 296.4844
1539.534, 176.7656
1540.564, 153.1719
1541.595, 386.6875
1542.625, 448.8945
1543.656, 349.6367
1544.686, 206.5117
1545.716, 118.3008
1546.745, 411.4141
1547.775, 234.6641
1548.804, 77.03906
1549.834, 422.5469
1550.863, 323.1641
1551.892, 45.10547
1552.920, 662.3203
1553.949, 274.5781
1554.977, 35.16406
1556.006, 487.7188
1557.034, 231.0664
1558.062, 572.8906
1559.089, 576.1797
1560.117, 436.7656
1561.144, 276.5352
1562.172, 307.3750
1563.199, 243.3789
1564.226, 367.2031
1565.252, 514.6055
1566.279, 224.3164
1567.305, 4.261719
1568.332, 258.3516
1569.358, 95.71484
1570.384, 0.0000000E+00
##END=



