##NAMES=Actinolite
##RRUFFID=R050336
##IDEAL CHEMISTRY=Ca_2_(Mg_4.5-2.5_Fe^2+^_0.5-2.5_)Si_8_O_22_(OH)_2_
##LOCALITY=Kragerø, Norway
##OWNER=RRUFF
##SOURCE=California Institute of Technology
##DESCRIPTION=Dark green prismatic fragment
##STATUS=The identification of this mineral has been confirmed by X-ray diffraction and chemical analysis
##URL=rruff.info/R050336
##MEASURED CHEMISTRY=([box]_0.62_Na_0.34_K_0.04_)(Ca_1.60_Na_0.40_)_Σ=2_(Mg_3.90_Fe^2+^_0.70_Al_0.20_Ti_0.10_Fe^3+^_0.10_)_Σ=5_(Si_7.52_Al_0.48_)_Σ=8_O_22_((OH)_0.97_F_0.03_)_2_
##PIN_ID=M00375
##ORIENTATION=Laser parallel to b* (0 1 0). Fiducial mark perpendicular to laser is parallel to -c [0 0 -1]
144.8170, 0.0000000E+00
146.0460, 4.162598
147.2750, 2.049316
148.5030, 40.05054
149.7320, 131.6082
150.9600, 271.4397
152.1880, 500.2568
153.4160, 649.9727
154.6440, 788.3440
155.8720, 1086.279
157.0990, 1236.853
158.3270, 1550.341
159.5540, 1650.198
160.7810, 1624.374
162.0080, 1629.040
163.2350, 1493.809
164.4610, 1401.158
165.6880, 1237.709
166.9140, 1161.188
168.1400, 1149.396
169.3660, 1224.187
170.5920, 1335.446
171.8180, 1552.089
173.0430, 1728.049
174.2690, 1810.501
175.4940, 1989.323
176.7190, 2010.698
177.9440, 1994.608
179.1680, 1902.672
180.3930, 1806.521
181.6170, 1743.764
182.8420, 1540.463
184.0660, 1268.674
185.2900, 1190.452
186.5140, 999.8462
187.7370, 868.9072
188.9610, 779.6792
190.1840, 670.1987
191.4070, 647.4956
192.6300, 614.5952
193.8530, 580.5190
195.0760, 554.2847
196.2980, 567.9080
197.5210, 596.4019
198.7430, 623.7769
199.9650, 621.0422
201.1870, 747.2053
202.4090, 893.2734
203.6310, 760.3535
204.8520, 916.5386
206.0730, 1116.398
207.2950, 1163.788
208.5160, 1431.713
209.7360, 1682.739
210.9570, 1979.182
212.1780, 2312.133
213.3980, 2626.530
214.6180, 2982.161
215.8380, 3265.840
217.0580, 3720.566
218.2780, 3915.327
219.4980, 4096.099
220.7170, 4266.918
221.9360, 4309.803
223.1560, 4296.764
224.3750, 4133.808
225.5930, 3825.936
226.8120, 3510.172
228.0310, 3111.540
229.2490, 2743.063
230.4670, 2406.717
231.6850, 2092.348
232.9030, 1805.600
234.1210, 1555.155
235.3380, 1327.524
236.5560, 1136.721
237.7730, 934.9919
238.9900, 748.3269
240.2070, 729.7219
241.4240, 625.1709
242.6410, 540.6667
243.8570, 535.2051
245.0730, 414.7871
246.2900, 383.4094
247.5060, 391.0674
248.7210, 331.7581
249.9370, 335.4714
251.1530, 275.1973
252.3680, 199.1970
253.5830, 191.3921
254.7980, 172.9160
256.0130, 144.3459
257.2280, 75.42456
258.4430, 58.62085
259.6570, 20.96631
260.8720, 17.56543
262.0860, 26.98999
263.3000, 89.98511
264.5130, 99.83203
265.7270, 130.9038
266.9410, 104.8367
268.1540, 135.0339
269.3670, 79.22729
270.5800, 122.4175
271.7930, 103.6040
273.0060, 106.7881
274.2190, 120.9692
275.4310, 135.1484
276.6430, 125.3552
277.8550, 78.65967
279.0670, 12.10376
280.2790, 52.68066
281.4910, 49.61963
282.7020, 68.79736
283.9140, 109.8335
285.1250, 148.7908
286.3360, 186.2480
287.5470, 224.6667
288.7570, 278.6274
289.9680, 284.6025
291.1780, 337.7527
292.3880, 295.9050
293.5990, 343.8933
294.8080, 338.2798
296.0180, 473.9663
297.2280, 443.8938
298.4370, 548.0181
299.6470, 551.3059
300.8560, 559.7297
302.0650, 500.2747
303.2740, 491.9084
304.4820, 529.6265
305.6910, 504.4138
306.8990, 466.3943
308.1070, 532.2913
309.3150, 471.0444
310.5230, 402.0046
311.7310, 391.3835
312.9390, 402.8083
314.1460, 395.1021
315.3530, 434.5625
316.5600, 470.2393
317.7670, 489.6450
318.9740, 552.0405
320.1810, 521.7625
321.3870, 588.0259
322.5930, 643.5046
323.8000, 632.0247
325.0060, 769.1062
326.2110, 845.8613
327.4170, 956.6096
328.6230, 974.5339
329.8280, 1053.658
331.0330, 1097.840
332.2380, 1082.942
333.4430, 1075.026
334.6480, 1127.166
335.8530, 1089.450
337.0570, 1127.655
338.2610, 1069.635
339.4650, 1095.592
340.6690, 1057.532
341.8730, 934.5610
343.0770, 886.4719
344.2800, 892.7136
345.4840, 825.5972
346.6870, 823.5015
347.8900, 789.3562
349.0930, 781.1523
350.2950, 729.8135
351.4980, 757.7502
352.7000, 667.0864
353.9030, 639.2725
355.1050, 627.3120
356.3070, 647.7666
357.5080, 738.0083
358.7100, 757.7959
359.9110, 859.5889
361.1130, 925.3875
362.3140, 977.1914
363.5150, 1078.457
364.7160, 1197.813
365.9160, 1254.632
367.1170, 1329.455
368.3170, 1362.028
369.5170, 1401.111
370.7170, 1367.944
371.9170, 1333.780
373.1170, 1279.617
374.3170, 1168.456
375.5160, 1129.295
376.7150, 1116.134
377.9140, 1051.971
379.1130, 1050.808
380.3120, 1019.642
381.5110, 1079.474
382.7090, 1141.304
383.9070, 1140.130
385.1060, 1288.952
386.3040, 1363.772
387.5010, 1450.587
388.6990, 1488.398
389.8970, 1547.092
391.0940, 1638.006
392.2910, 1594.802
393.4880, 1604.594
394.6850, 1552.379
395.8820, 1256.160
397.0780, 1214.936
398.2750, 1114.705
399.4710, 864.4688
400.6670, 816.2268
401.8630, 776.9792
403.0590, 736.7256
404.2540, 705.2542
405.4500, 688.6245
406.6450, 671.2354
407.8400, 667.1675
409.0350, 702.4658
410.2300, 700.7983
411.4250, 756.7517
412.6190, 823.7939
413.8140, 737.3232
415.0080, 729.1265
416.2020, 834.0947
417.3960, 745.8474
418.5900, 702.6948
419.7830, 658.6372
420.9770, 590.1799
422.1700, 541.6428
423.3630, 561.9617
424.5560, 441.9763
425.7490, 474.6238
426.9410, 486.2695
428.1340, 416.9141
429.3260, 523.5581
430.5180, 400.2014
431.7100, 412.8442
432.9020, 403.4861
434.0940, 392.1272
435.2850, 375.7581
436.4770, 300.4229
437.6680, 285.0735
438.8590, 232.7219
440.0500, 200.8674
441.2410, 100.0085
442.4310, 134.6440
443.6220, 73.27393
444.8120, 13.89673
446.0020, 22.51147
447.1920, 16.11816
448.3820, 51.91284
449.5710, 12.46777
450.7610, 19.71729
451.9500, 6.239014
453.1390, 55.33862
454.3280, 26.80591
455.5170, 8.175781
456.7060, 4.484131
457.8940, 37.97290
459.0830, 24.46948
460.2710, 2.360840
461.4590, 31.57495
462.6470, 18.97803
463.8350, 10.44971
465.0220, 35.47583
466.2100, 39.33618
467.3970, 18.71777
468.5840, 27.60767
469.7710, 26.76660
470.9580, 20.40454
472.1440, 71.74951
473.3310, 60.71582
474.5170, 13.64746
475.7030, 67.71216
476.8890, 58.76245
478.0750, 44.79810
479.2610, 49.81738
480.4460, 75.82104
481.6320, 82.81079
482.8170, 135.7874
484.0020, 60.75049
485.1870, 116.6995
486.3710, 40.63477
487.5560, 78.55396
488.7400, 70.45947
489.9250, 81.35107
491.1090, 115.2297
492.2930, 77.09546
493.4760, 33.94922
494.6600, 114.7866
495.8440, 163.6130
497.0270, 116.4294
498.2100, 154.2363
499.3930, 205.0344
500.5760, 161.8235
501.7580, 254.6042
502.9410, 235.3765
504.1230, 247.1396
505.3060, 292.8945
506.4880, 331.6404
507.6690, 391.3777
508.8510, 378.1062
510.0330, 398.8259
511.2140, 401.5366
512.3950, 435.2385
513.5760, 507.9312
514.7570, 562.6150
515.9380, 557.2898
517.1190, 589.9558
518.2990, 616.6125
519.4800, 614.2603
520.6600, 628.8987
521.8400, 681.5281
523.0190, 680.1482
524.1990, 603.7593
525.3790, 605.3613
526.5580, 649.9546
527.7370, 664.5386
528.9160, 708.1133
530.0950, 724.6787
531.2740, 761.2354
532.4520, 750.7827
533.6310, 761.3210
534.8090, 758.8503
535.9870, 761.3704
537.1650, 754.8567
538.3430, 741.3835
539.5200, 721.8767
540.6980, 722.3604
541.8750, 676.8354
543.0520, 662.8882
544.2290, 656.7581
545.4060, 625.2061
546.5820, 587.6455
547.7590, 599.0840
548.9350, 603.5239
550.1110, 658.9812
551.2870, 600.4580
552.4630, 651.9634
553.6390, 556.4902
554.8140, 560.0464
555.9900, 557.6172
557.1650, 569.2139
558.3400, 590.8345
559.5150, 527.4807
560.6900, 480.1641
561.8640, 532.8826
563.0390, 510.6392
564.2130, 558.4226
565.3870, 552.2227
566.5610, 546.0469
567.7350, 462.8721
568.9080, 485.7009
570.0820, 506.5269
571.2550, 430.3628
572.4280, 438.2007
573.6010, 357.0398
574.7740, 362.8723
575.9470, 307.7126
577.1190, 342.5439
578.2920, 271.3750
579.4640, 236.1973
580.6360, 218.0146
581.8080, 188.8335
582.9790, 144.6467
584.1510, 143.4573
585.3220, 156.2620
586.4940, 159.0520
587.6650, 133.5144
588.8360, 47.61768
590.0060, 72.38599
591.1770, 20.01074
592.3470, 17.24512
593.5180, 31.34058
594.6880, 75.63770
595.8580, 36.36523
597.0280, 74.14404
598.1970, 13.81079
599.3670, 15.65039
600.5360, 42.71484
601.7050, 72.52563
602.8740, 48.35327
604.0430, 19.53027
605.2120, 42.27539
606.3800, 105.2793
607.5490, 11.39502
608.7170, 19.12134
609.8850, 65.42969
611.0530, 9.048096
612.2210, 26.25684
613.3880, 3.328613
614.5560, 91.30957
615.7230, 100.3418
616.8900, 92.36548
618.0570, 151.3076
619.2240, 147.0806
620.3900, 143.9102
621.5570, 204.9404
622.7230, 139.9736
623.8890, 221.0012
625.0550, 225.9199
626.2210, 304.9365
627.3870, 346.6023
628.5520, 394.6069
629.7180, 462.5723
630.8830, 470.5679
632.0480, 577.5583
633.2130, 624.5349
634.3770, 626.0632
635.5420, 720.0388
636.7060, 788.0098
637.8710, 866.9758
639.0350, 984.9373
640.1990, 1056.894
641.3620, 1173.846
642.5260, 1276.545
643.6890, 1409.737
644.8530, 1502.676
646.0160, 1631.610
647.1790, 1768.541
648.3410, 1967.466
649.5040, 2052.388
650.6670, 2298.305
651.8290, 2456.219
652.9910, 2681.128
654.1530, 2879.033
655.3150, 3175.935
656.4770, 3492.833
657.6380, 3820.726
658.7990, 4163.617
659.9610, 4688.502
661.1220, 5447.384
662.2830, 6284.264
663.4430, 7114.141
664.6040, 8190.012
665.7640, 9299.883
666.9240, 10477.75
668.0850, 11605.61
669.2440, 12593.47
670.4040, 13226.32
671.5640, 13729.18
672.7230, 13363.03
673.8830, 12774.87
675.0420, 11489.71
676.2010, 10321.55
677.3590, 8928.396
678.5180, 7526.228
679.6770, 6402.061
680.8350, 5361.891
681.9930, 4547.718
683.1510, 3802.543
684.3090, 3380.366
685.4670, 2881.185
686.6240, 2584.003
687.7810, 2316.820
688.9390, 2056.633
690.0960, 1952.444
691.2530, 1833.271
692.4090, 1694.531
693.5660, 1614.991
694.7220, 1513.681
695.8790, 1458.479
697.0350, 1398.780
698.1910, 1359.745
699.3460, 1362.489
700.5020, 1271.413
701.6570, 1236.541
702.8130, 1185.984
703.9680, 1253.772
705.1230, 1299.174
706.2780, 1329.986
707.4320, 1366.542
708.5870, 1353.481
709.7410, 1429.473
710.8950, 1375.427
712.0490, 1502.432
713.2030, 1506.546
714.3570, 1585.941
715.5100, 1638.670
716.6640, 1572.331
717.8170, 1693.049
718.9700, 1703.469
720.1230, 1715.551
721.2760, 1806.829
722.4280, 1745.835
723.5810, 1847.155
724.7330, 1838.026
725.8850, 1801.710
727.0370, 1858.390
728.1890, 1791.868
729.3400, 1839.509
730.4920, 1902.562
731.6430, 1865.744
732.7940, 1820.051
733.9450, 1833.692
735.0960, 1807.859
736.2460, 1741.651
737.3970, 1730.252
738.5470, 1756.830
739.6970, 1669.776
740.8470, 1677.875
741.9970, 1583.490
743.1470, 1570.920
744.2970, 1496.892
745.4460, 1453.625
746.5950, 1405.580
747.7440, 1347.025
748.8930, 1250.267
750.0420, 1204.125
751.1900, 1138.426
752.3390, 1071.341
753.4870, 1030.974
754.6350, 976.7314
755.7830, 932.4897
756.9310, 913.2493
758.0780, 803.0112
759.2260, 810.7749
760.3730, 716.5400
761.5200, 660.3062
762.6670, 705.0728
763.8140, 597.8413
764.9610, 610.6111
766.1070, 558.3838
767.2530, 505.1582
768.4000, 476.9338
769.5460, 431.7109
770.6910, 449.4900
771.8370, 419.2708
772.9830, 378.0557
774.1280, 434.8420
775.2730, 405.6304
776.4180, 397.4211
777.5630, 389.2139
778.7080, 399.0090
779.8520, 347.8062
780.9970, 354.6057
782.1410, 412.4077
783.2850, 316.2119
784.4290, 375.0186
785.5730, 360.8284
786.7160, 410.6404
787.8600, 266.4556
789.0030, 313.2732
790.1460, 333.0940
791.2890, 267.9180
792.4320, 340.7446
793.5750, 337.5745
794.7170, 246.4075
795.8590, 306.2439
797.0020, 298.0835
798.1440, 294.9263
799.2850, 305.8486
800.4270, 259.6226
801.5690, 288.4761
802.7100, 242.3333
803.8510, 225.1943
804.9920, 194.0588
806.1330, 157.9275
807.2740, 182.8000
808.4140, 193.6765
809.5550, 145.1741
810.6950, 134.5010
811.8350, 89.33057
812.9750, 68.22388
814.1150, 105.1211
815.2540, 108.0229
816.3940, 117.9292
817.5330, 90.84009
818.6720, 105.7554
819.8110, 98.67529
820.9500, 22.60010
822.0880, 41.52979
823.2270, 42.46387
824.3650, 24.40283
825.5030, 37.34717
826.6410, 95.29590
827.7790, 3.249756
828.9170, 54.20728
830.0540, 23.17017
831.1920, 7.137939
832.3290, 30.11084
833.4660, 8.911377
834.6030, 10.93384
835.7390, 46.95776
836.8760, 21.99927
838.0120, 44.04688
839.1480, 49.64673
840.2840, 72.19360
841.4200, 66.30640
842.5560, 39.44604
843.6920, 52.59912
844.8270, 23.77222
845.9620, 76.95093
847.0970, 43.16138
848.2320, 44.38623
849.3670, 7.625977
850.5020, 68.86450
851.6360, 7.870361
852.7700, 39.38843
853.9040, 27.34082
855.0380, 15.92334
856.1720, 48.18872
857.3060, 13.46948
858.4390, 28.87476
859.5730, 15.03613
860.7060, 4.322754
861.8390, 33.39478
862.9720, 35.11938
864.1040, 59.85107
865.2370, 8.590088
866.3690, 69.33691
867.5010, 22.09375
868.6330, 93.86865
869.7650, 83.66626
870.8970, 99.49707
872.0290, 138.3513
873.1600, 86.23828
874.2910, 135.1421
875.4220, 180.0632
876.5530, 150.0083
877.6840, 165.9851
878.8140, 216.9875
879.9450, 184.0081
881.0750, 274.0535
882.2050, 258.1401
883.3350, 232.2542
884.4650, 324.3896
885.5950, 306.5337
886.7240, 334.6926
887.8530, 321.8601
888.9820, 396.0459
890.1110, 391.2480
891.2400, 355.4580
892.3690, 471.6753
893.4970, 378.9004
894.6260, 450.1331
895.7540, 443.3735
896.8820, 419.6218
898.0100, 424.8779
899.1370, 446.1477
900.2650, 441.4280
901.3920, 436.7161
902.5200, 498.0122
903.6470, 478.3252
904.7730, 488.6519
905.9000, 560.9932
907.0270, 614.3472
908.1530, 575.7319
909.2790, 592.1243
910.4050, 693.5249
911.5310, 693.9468
912.6570, 676.3765
913.7830, 757.8140
914.9080, 827.2627
916.0330, 784.7190
917.1580, 914.1841
918.2830, 908.6567
919.4080, 1133.142
920.5330, 1131.654
921.6570, 1221.178
922.7820, 1316.712
923.9060, 1347.258
925.0300, 1411.812
926.1540, 1416.375
927.2770, 1472.947
928.4010, 1405.527
929.5240, 1445.117
930.6470, 1418.716
931.7700, 1326.323
932.8930, 1210.941
934.0160, 1212.582
935.1380, 1121.230
936.2610, 1065.892
937.3830, 1055.567
938.5050, 1023.249
939.6270, 969.9534
940.7490, 1001.667
941.8700, 938.3911
942.9910, 931.1235
944.1130, 879.8647
945.2340, 904.6152
946.3550, 818.3740
947.4750, 855.1467
948.5960, 839.9336
949.7160, 831.7400
950.8370, 797.5540
951.9570, 771.3774
953.0770, 700.2087
954.1970, 659.0483
955.3160, 641.8965
956.4360, 580.7524
957.5550, 550.6182
958.6740, 566.4917
959.7930, 575.3735
960.9120, 599.2637
962.0310, 584.4873
963.1490, 546.0498
964.2670, 563.9644
965.3860, 543.8892
966.5040, 551.5540
967.6210, 537.4495
968.7390, 518.2053
969.8570, 509.5657
970.9740, 458.9980
972.0910, 451.8335
973.2080, 443.4722
974.3250, 401.7993
975.4420, 352.7883
976.5580, 394.1685
977.6750, 346.1409
978.7910, 362.2805
979.9070, 366.7925
981.0230, 382.0393
982.1390, 353.8889
983.2540, 363.6929
984.3700, 321.3918
985.4850, 355.8159
986.6000, 328.9106
987.7150, 342.0781
988.8300, 296.1917
989.9450, 379.6084
991.0590, 393.3679
992.1730, 349.9360
993.2880, 441.7803
994.4010, 457.3162
995.5150, 410.3047
996.6290, 464.4854
997.7420, 488.3196
998.8560, 534.9456
999.9690, 570.8865
1001.082, 596.7351
1002.195, 582.2388
1003.307, 619.8447
1004.420, 636.5925
1005.532, 652.4758
1006.645, 697.4636
1007.757, 688.8630
1008.868, 733.3674
1009.980, 756.6982
1011.092, 789.7417
1012.203, 801.7620
1013.314, 820.2820
1014.425, 860.0142
1015.536, 888.0281
1016.647, 900.2634
1017.758, 934.8374
1018.868, 925.6992
1019.978, 954.1433
1021.088, 998.8406
1022.198, 1011.042
1023.308, 1024.860
1024.418, 1080.042
1025.527, 1126.368
1026.637, 1164.521
1027.746, 1164.079
1028.855, 1217.623
1029.963, 1252.122
1031.072, 1287.585
1032.181, 1355.375
1033.289, 1370.432
1034.397, 1440.028
1035.505, 1490.286
1036.613, 1554.078
1037.721, 1597.926
1038.828, 1650.364
1039.935, 1716.422
1041.043, 1844.293
1042.150, 1906.781
1043.257, 2078.280
1044.363, 2200.882
1045.470, 2395.384
1046.576, 2441.906
1047.682, 2630.055
1048.788, 2874.571
1049.894, 3057.174
1051.000, 3360.698
1052.106, 3485.222
1053.211, 3746.010
1054.316, 3842.664
1055.421, 4083.266
1056.526, 4178.924
1057.631, 4363.471
1058.736, 4187.174
1059.840, 4127.961
1060.944, 3923.535
1062.049, 3761.514
1063.153, 3568.347
1064.256, 3310.900
1065.360, 3110.967
1066.463, 2736.985
1067.567, 2476.581
1068.670, 2209.355
1069.773, 2032.825
1070.876, 1813.476
1071.978, 1663.226
1073.081, 1471.120
1074.183, 1389.266
1075.285, 1239.924
1076.387, 1144.657
1077.489, 1005.591
1078.591, 950.2021
1079.692, 858.2144
1080.794, 827.2407
1081.895, 771.4731
1082.996, 700.0679
1084.097, 683.9355
1085.198, 643.6331
1086.298, 660.3003
1087.399, 577.0503
1088.499, 550.7795
1089.599, 461.6692
1090.699, 448.4082
1091.799, 443.1353
1092.898, 405.7979
1093.998, 413.4631
1095.097, 379.2749
1096.196, 352.0566
1097.295, 332.2190
1098.394, 360.8567
1099.492, 303.4800
1100.591, 326.0969
1101.689, 290.6968
1102.787, 292.3953
1103.885, 324.5908
1104.983, 286.6243
1106.081, 293.2524
1107.178, 255.3774
1108.275, 265.1519
1109.373, 212.8477
1110.470, 240.6976
1111.566, 225.4858
1112.663, 207.7616
1113.760, 242.0814
1114.856, 180.8026
1115.952, 192.7958
1117.048, 178.7036
1118.144, 207.5050
1119.240, 186.5886
1120.335, 167.0039
1121.431, 153.7578
1122.526, 155.5132
1123.621, 132.2775
1124.716, 144.1205
1125.810, 98.89648
1126.905, 77.67334
1127.999, 113.4486
1129.094, 98.22095
1130.188, 154.9917
1131.282, 78.75940
1132.375, 89.52405
1133.469, 136.4128
1134.562, 67.17163
1135.656, 104.9307
1136.749, 23.78882
1137.842, 85.54102
1138.935, 93.28943
1140.027, 80.21265
1141.120, 12.06982
1142.212, 10.92651
1143.304, 39.65942
1144.396, 4.388550
1145.488, 4.886597
1146.579, 2.168579
1147.671, 43.45630
1148.762, 15.70923
1149.853, 3.037720
1150.944, 5.627075
1152.035, 53.29846
1153.126, 24.04626
1154.216, 31.40979
1155.307, 14.20422
1156.397, 26.81323
1157.487, 3.417358
1158.577, 35.01587
1159.667, 11.60925
1160.756, 5.197144
1161.846, 41.77917
1162.935, 19.64417
1164.024, 4.085938
1165.113, 15.46204
1166.201, 11.00391
1167.290, 28.46021
1168.378, 15.94836
1169.467, 20.45410
1170.555, 9.979858
1171.643, 80.52039
1172.730, 42.88708
1173.818, 28.28870
1174.905, 43.31604
1175.993, 32.04614
1177.080, 28.40186
1178.167, 3.248779
1179.254, 42.08813
1180.340, 14.41846
1181.427, 43.74182
1182.513, 7.941528
1183.599, 59.64062
1184.685, 9.382813
1185.771, 22.85779
1186.856, 8.908813
1187.942, 62.30762
1189.027, 11.65540
1190.112, 7.856689
1191.197, 37.04871
1192.282, 3.233521
1193.367, 16.40710
1194.451, 17.57239
1195.536, 2.729614
1196.620, 44.12537
1197.704, 39.98267
1198.788, 7.916626
1199.872, 2.834229
1200.955, 30.23279
1202.039, 38.70837
1203.122, 9.315796
1204.205, 3.329346
1205.288, 32.33032
1206.370, 20.34839
1207.453, 9.332275
1208.535, 46.34912
1209.618, 9.685425
1210.700, 9.740479
1211.782, 28.77734
1212.863, 60.14014
1213.945, 14.02649
1215.026, 30.17383
1216.108, 38.04150
1217.189, 23.90063
1218.270, 26.75073
1219.351, 14.59180
1220.431, 26.42212
1221.512, 28.24353
1222.592, 42.05542
1223.672, 41.85913
1224.752, 20.69897
1225.832, 23.48389
1226.911, 7.259644
1227.991, 50.12866
1229.070, 53.88269
1230.149, 55.62830
1231.228, 74.36548
1232.307, 38.09448
1233.386, 7.832397
1234.464, 12.83582
1235.543, 84.23328
1236.621, 10.91907
1237.699, 34.59204
1238.777, 57.25537
1239.855, 28.90979
1240.932, 40.65088
1242.009, 34.31201
1243.087, 51.01880
1244.164, 100.6342
1245.241, 22.24036
1246.317, 29.86169
1247.394, 52.44580
1248.470, 99.02026
1249.546, 73.12964
1250.623, 77.68567
1251.698, 81.23242
1252.774, 99.87292
1253.850, 50.40112
1254.925, 90.61560
1256.000, 99.12427
1257.076, 81.62366
1258.150, 122.1136
1259.225, 109.8468
1260.300, 94.32422
1261.374, 84.83215
1262.449, 42.39465
1263.523, 81.84229
1264.597, 75.14954
1265.670, 49.57788
1266.744, 102.9961
1267.818, 78.40466
1268.891, 37.80383
1269.964, 47.19189
1271.037, 46.56958
1272.110, 108.9365
1273.183, 88.35596
1274.255, 132.7029
1275.327, 85.85425
1276.400, 142.0854
1277.472, 58.80151
1278.543, 118.2266
1279.615, 111.3752
1280.687, 70.64575
1281.758, 108.9282
1282.829, 95.71606
1283.900, 141.2170
1284.971, 167.3401
1286.042, 173.2958
1287.112, 98.43225
1288.183, 127.8362
1289.253, 115.4385
1290.323, 101.2889
1291.393, 145.3386
1292.463, 80.81689
1293.532, 123.4758
1294.602, 124.1414
1295.671, 144.1863
1296.740, 120.2054
1297.809, 109.9618
1298.878, 141.4489
1299.946, 150.3556
1301.015, 118.1602
1302.083, 139.4445
1303.151, 124.0774
1304.219, 93.07861
1305.287, 92.17639
1306.354, 68.25061
1307.422, 105.6945
1308.489, 110.7692
1309.556, 121.7539
1310.623, 83.81580
1311.690, 88.01086
1312.757, 88.66016
1313.823, 68.57996
1314.890, 81.54590
1315.956, 95.45227
1317.022, 19.46777
1318.088, 56.32239
1319.153, 60.08972
1320.219, 94.06506
1321.284, 79.62024
1322.349, 124.4756
1323.414, 113.7776
1324.479, 86.79846
1325.544, 96.31201
1326.608, 82.24463
1327.673, 62.99377
1328.737, 81.04272
1329.801, 89.90784
1330.865, 85.67041
1331.929, 97.28381
1332.992, 51.64172
1334.056, 36.48364
1335.119, 98.24658
1336.182, 31.80347
1337.245, 106.6805
1338.308, 83.15161
1339.370, 30.60449
1340.433, 31.84778
1341.495, 72.72339
1342.557, 2.678223
1343.619, 42.08582
1344.681, 49.87585
1345.742, 41.57019
1346.804, 62.27966
1347.865, 97.81445
1348.926, 99.49548
1349.987, 123.1821
1351.048, 36.92822
1352.108, 25.66626
1353.169, 45.24719
1354.229, 97.97632
1355.289, 10.19763
1356.349, 92.93884
1357.409, 72.68909
1358.469, 80.44080
1359.528, 52.20728
1360.588, 30.93311
1361.647, 89.10913
1362.706, 71.44751
1363.765, 43.19702
1364.823, 106.4562
1365.882, 62.07922
1366.940, 75.79150
1367.998, 10.35425
1369.056, 26.98608
1370.114, 13.60229
1371.172, 93.26624
1372.229, 86.98376
1373.287, 26.43420
1374.344, 66.96680
1375.401, 37.61682
1376.458, 25.67981
1377.515, 71.01343
1378.571, 54.76538
1379.628, 7.452271
1380.684, 43.13550
1381.740, 28.42432
1382.796, 34.20752
1383.852, 70.54541
1384.907, 81.87439
1385.963, 4.361328
1387.018, 35.28186
1388.073, 22.56531
1389.128, 7.080933
1390.183, 60.53638
1391.237, 15.17566
1392.292, 35.87390
1393.346, 35.22546
1394.400, 44.96533
1395.454, 58.59863
1396.508, 33.05164
1397.562, 43.56396
1398.615, 45.07141
1399.668, 15.69727
1400.722, 36.32080
1401.775, 56.94336
1402.827, 57.59204
1403.880, 62.89587
1404.933, 62.99951
1405.985, 49.42419
1407.037, 55.06140
1408.089, 37.68713
1409.141, 36.32275
1410.193, 56.96509
1411.244, 28.61633
1412.295, 18.28809
1413.347, 103.9385
1414.398, 77.55664
1415.449, 79.69153
1416.499, 81.30823
1417.550, 32.92371
1418.600, 78.53870
1419.650, 29.22083
1420.700, 62.94055
1421.750, 81.59912
1422.800, 49.26404
1423.850, 43.90613
1424.899, 97.57239
1425.948, 12.21155
1426.997, 85.88599
1428.046, 82.52795
1429.095, 86.16882
1430.144, 120.7991
1431.192, 106.4348
1432.240, 83.06226
1433.288, 78.68030
1434.336, 62.32397
1435.384, 119.3558
1436.432, 125.1279
1437.479, 139.6281
1438.526, 132.7439
1439.574, 130.4252
1440.621, 121.1106
1441.667, 105.6537
1442.714, 141.3335
1443.760, 109.0123
1444.807, 137.6891
1445.853, 101.3943
1446.899, 173.1101
1447.945, 149.8409
1448.990, 104.5883
1450.036, 133.3081
1451.081, 115.0074
1452.126, 112.7296
1453.171, 58.49792
1454.216, 128.9832
1455.261, 126.7751
1456.305, 89.56897
1457.350, 144.3652
1458.394, 151.1082
1459.438, 101.9059
1460.482, 117.5806
1461.526, 158.3833
1462.569, 88.16431
1463.612, 88.97607
1464.656, 103.7936
1465.699, 69.61584
1466.742, 79.28198
1467.784, 45.00220
1468.827, 53.79663
1469.869, 79.63135
1470.912, 121.3837
1471.954, 77.05847
1472.996, 107.5311
1474.037, 74.32227
1475.079, 64.75720
1476.120, 119.4719
1477.162, 85.09497
1478.203, 46.59595
1479.244, 1.641235
1480.284, 59.12488
1481.325, 76.89697
1482.365, 38.57703
1483.406, 88.35400
1484.446, 87.13440
1485.486, 9.917847
1486.526, 102.7043
1487.565, 81.49023
1488.605, 61.20691
1489.644, 89.99707
1490.683, 28.78723
1491.722, 42.58069
1492.761, 79.37573
1493.800, 92.17346
1494.838, 19.85352
1495.876, 58.65527
1496.915, 59.46045
1497.953, 111.2695
1498.990, 103.2987
1500.028, 51.89185
1501.066, 93.71033
1502.103, 29.53662
1503.140, 11.36914
1504.177, 41.20532
1505.214, 31.04504
1506.251, 36.88696
1507.287, 24.73181
1508.324, 15.57910
1509.360, 75.43372
1510.396, 30.28857
1511.432, 25.85486
1512.468, 53.00427
1513.503, 41.86401
1514.538, 53.72339
1515.574, 70.58655
1516.609, 44.45068
1517.644, 34.36511
1518.678, 19.34058
1519.713, 37.33301
1520.747, 47.35474
1521.782, 79.03430
1522.816, 66.33838
1523.850, 64.15149
1524.883, 46.03394
1525.917, 36.12012
1526.951, 26.22095
1527.984, 32.33643
1529.017, 66.38916
1530.050, 54.53906
1531.083, 93.70703
1532.115, 52.89514
1533.148, 43.84412
1534.180, 95.06628
1535.212, 43.27148
1536.244, 32.31665
1537.276, 24.15723
1538.308, 88.16040
1539.339, 6.830200
1540.370, 63.18481
1541.402, 35.95435
1542.433, 59.95483
1543.463, 19.95081
1544.494, 11.93872
1545.525, 26.69653
1546.555, 25.61621
1547.585, 33.48767
1548.615, 29.31250
1549.645, 91.85999
1550.675, 30.83374
1551.704, 114.2502
1552.734, 107.9948
1553.763, 108.4180
1554.792, 96.38074
1555.821, 56.36890
1556.849, 37.96106
1557.878, 32.54211
1558.906, 0.7539060
1559.935, 12.39966
1560.963, 15.47473
1561.991, 0.0000000E+00
##END=



