##NAMES=Adamite
##RRUFFID=R040130
##IDEAL CHEMISTRY=Zn^2+^_2_As^5+^O_4_(OH)
##LOCALITY=Mina Ojuela, Mapimi, Durango, Mexico
##OWNER=RRUFF
##SOURCE=Bob Downs
##DESCRIPTION=Pale yellow spherical aggregate of bladed crystals
##STATUS=The identification of this mineral has been confirmed by X-ray diffraction and chemical analysis
##URL=rruff.info/R040130
##MEASURED CHEMISTRY=Zn_1.97_(As_1.01_O_4_)(OH)
##PIN_ID=S00040
##ORIENTATION=Laser parallel to c* (0 0 1). Fiducial mark perpendicular to laser is parallel to a [1 0 0]
114.254, 0.000
115.644, 61.037
117.034, 111.510
118.424, 11.514
119.813, 364.619
121.203, 289.604
122.592, 334.087
123.981, 727.572
125.369, 578.941
126.758, 794.383
128.146, 577.428
129.534, 845.789
130.922, 803.164
132.309, 713.227
133.696, 503.645
135.083, 736.121
136.470, 460.432
137.857, 456.535
139.243, 307.582
140.630, 147.684
142.016, 64.871
143.401, 154.031
144.787, 124.027
146.172, 114.676
147.557, 247.754
148.942, 48.074
150.327, 257.488
151.711, 196.883
153.096, 317.166
154.480, 351.232
155.863, 253.148
157.247, 347.883
158.630, 360.709
160.013, 254.158
161.396, 279.844
162.779, 325.871
164.161, 332.279
165.544, 394.766
166.926, 255.928
168.308, 375.357
169.689, 367.238
171.070, 535.666
172.452, 556.236
173.833, 325.826
175.213, 512.986
176.594, 201.619
177.974, 179.438
179.354, 392.344
180.734, 259.395
182.114, 59.633
183.493, 430.105
184.872, 88.850
186.251, 304.898
187.630, 160.289
189.008, 282.047
190.387, 171.205
191.765, 142.789
193.143, 376.822
194.520, 339.332
195.898, 362.340
197.275, 361.916
198.652, 574.244
200.029, 789.057
201.405, 849.182
202.782, 870.283
204.158, 1306.572
205.534, 1639.043
206.909, 1488.225
208.285, 1943.980
209.660, 2100.320
211.035, 1822.258
212.410, 1793.186
213.784, 1642.734
215.159, 1594.051
216.533, 1745.953
217.907, 1411.402
219.281, 1597.275
220.654, 1434.119
222.027, 1811.182
223.400, 1852.215
224.773, 2286.363
226.146, 2657.375
227.518, 3105.133
228.891, 3382.521
230.263, 4094.758
231.634, 4230.348
233.006, 4059.564
234.377, 3602.404
235.748, 3224.209
237.119, 2747.707
238.490, 2864.516
239.860, 2539.785
241.231, 2843.162
242.601, 2924.504
243.970, 3237.807
245.340, 3732.066
246.709, 3846.268
248.079, 4795.414
249.448, 4714.496
250.816, 4949.510
252.185, 4970.449
253.553, 4568.314
254.921, 4423.104
256.289, 3748.814
257.657, 3439.447
259.024, 3018.000
260.391, 2621.479
261.758, 2240.883
263.125, 2153.217
264.492, 1733.479
265.858, 1626.672
267.224, 1667.803
268.590, 1033.871
269.956, 1211.877
271.321, 1067.828
272.687, 1015.721
274.052, 666.561
275.416, 1014.352
276.781, 809.090
278.146, 504.783
279.510, 606.305
280.874, 500.342
282.237, 582.682
283.601, 567.115
284.964, 97.900
286.327, 502.662
287.690, 211.490
289.053, 33.354
290.416, 397.217
291.778, 83.090
293.140, 221.943
294.502, 109.223
295.863, 150.531
297.225, 109.240
298.586, 48.102
299.947, 11.471
301.308, 41.031
302.668, 59.627
304.029, 27.674
305.389, 34.109
306.749, 82.998
308.108, 57.010
309.468, 96.861
310.827, 114.359
312.186, 195.719
313.545, 72.762
314.903, 7.143
316.262, 118.582
317.620, 56.447
318.978, 37.562
320.336, 2.525
321.693, 149.721
323.051, 81.936
324.408, 248.500
325.765, 184.885
327.121, 291.828
328.478, 136.742
329.834, 78.824
331.190, 91.939
332.546, 103.951
333.902, 157.100
335.257, 117.504
336.612, 102.955
337.967, 63.053
339.322, 23.955
340.677, 19.164
342.031, 40.414
343.385, 4.801
344.739, 51.549
346.093, 19.867
347.446, 63.705
348.799, 9.586
350.153, 57.424
351.505, 4.344
352.858, 70.166
354.210, 91.904
355.563, 11.566
356.915, 2.141
358.267, 136.629
359.618, 37.947
360.969, 307.385
362.321, 250.662
363.672, 142.855
365.022, 465.982
366.373, 349.012
367.723, 364.951
369.073, 521.713
370.423, 516.324
371.773, 476.764
373.122, 757.037
374.471, 901.109
375.821, 756.043
377.169, 990.738
378.518, 652.326
379.866, 631.711
381.215, 452.986
382.563, 508.105
383.910, 538.047
385.258, 405.709
386.605, 519.262
387.952, 216.775
389.299, 581.244
390.646, 364.609
391.992, 458.859
393.339, 444.016
394.685, 576.061
396.031, 640.041
397.376, 417.965
398.722, 533.846
400.067, 386.686
401.412, 417.484
402.757, 437.340
404.101, 499.098
405.446, 486.912
406.790, 696.732
408.134, 761.561
409.478, 798.395
410.821, 853.236
412.165, 599.090
413.508, 1050.969
414.851, 909.857
416.193, 716.758
417.536, 963.680
418.878, 1070.629
420.220, 1177.590
421.562, 1223.730
422.904, 1189.566
424.245, 1309.578
425.586, 1017.605
426.927, 1255.652
428.268, 930.717
429.609, 1001.799
430.949, 1021.902
432.289, 1388.023
433.629, 948.170
434.969, 1381.338
436.309, 1068.535
437.648, 1289.758
438.987, 1221.027
440.326, 1182.324
441.665, 1175.621
443.003, 1349.945
444.342, 1214.264
445.680, 1361.594
447.018, 1478.418
448.355, 1063.746
449.693, 1136.844
451.030, 1370.496
452.367, 1456.838
453.704, 1003.312
455.041, 1375.590
456.377, 1161.730
457.713, 1308.889
459.049, 1384.172
460.385, 1519.180
461.721, 1712.934
463.056, 1265.445
464.391, 1544.809
465.726, 1825.424
467.061, 1426.436
468.395, 1550.402
469.730, 1736.031
471.064, 1410.121
472.398, 2117.219
473.731, 1416.256
475.065, 1878.746
476.398, 1616.600
477.731, 1935.623
479.064, 1790.605
480.397, 1793.043
481.729, 1916.531
483.062, 1919.848
484.394, 2115.877
485.725, 2031.139
487.057, 2384.547
488.389, 2590.252
489.720, 2679.781
491.051, 3066.041
492.382, 3574.723
493.712, 3790.781
495.043, 3462.111
496.373, 3379.666
497.703, 3237.934
499.032, 3108.752
500.362, 2488.586
501.691, 2355.156
503.020, 1999.572
504.349, 1928.174
505.678, 1905.141
507.007, 1664.066
508.335, 1469.533
509.663, 1620.283
510.991, 1609.211
512.319, 1421.010
513.646, 1698.584
514.973, 1217.910
516.300, 1824.471
517.627, 1571.635
518.954, 1162.375
520.280, 1492.455
521.607, 1354.359
522.933, 1511.324
524.259, 1181.697
525.584, 1342.789
526.910, 1510.947
528.235, 1458.172
529.560, 1622.463
530.885, 1573.662
532.209, 1354.256
533.534, 1522.756
534.858, 1562.332
536.182, 1620.412
537.506, 1706.141
538.829, 1586.945
540.152, 1321.830
541.476, 1664.801
542.799, 1281.848
544.121, 1450.975
545.444, 1342.189
546.766, 1158.518
548.088, 1489.904
549.410, 1253.383
550.732, 1274.945
552.053, 1245.320
553.375, 1152.066
554.696, 1104.908
556.017, 1401.840
557.337, 1109.070
558.658, 1151.191
559.978, 984.410
561.298, 1296.455
562.618, 1096.865
563.938, 1081.377
565.257, 1342.986
566.576, 957.695
567.895, 1131.506
569.214, 1061.414
570.533, 1165.426
571.851, 1028.594
573.170, 1040.000
574.488, 937.131
575.805, 953.594
577.123, 1010.205
578.440, 924.838
579.758, 1247.371
581.075, 919.219
582.391, 1283.172
583.708, 928.232
585.024, 847.400
586.341, 1245.678
587.657, 986.064
588.972, 1135.561
590.288, 1039.168
591.603, 768.018
592.918, 766.848
594.233, 918.424
595.548, 1188.480
596.863, 837.402
598.177, 944.686
599.491, 1106.080
600.805, 819.846
602.119, 769.473
603.432, 911.990
604.746, 1019.850
606.059, 963.012
607.372, 782.121
608.685, 1041.355
609.997, 645.211
611.309, 733.709
612.621, 692.957
613.933, 888.719
615.245, 691.668
616.557, 884.926
617.868, 849.143
619.179, 700.184
620.490, 593.721
621.801, 856.441
623.111, 651.320
624.421, 870.354
625.731, 326.551
627.041, 1109.988
628.351, 675.547
629.660, 485.246
630.970, 1155.137
632.279, 465.242
633.588, 626.494
634.896, 505.908
636.205, 962.516
637.513, 459.301
638.821, 464.242
640.129, 733.350
641.437, 863.660
642.744, 456.123
644.051, 756.816
645.358, 523.652
646.665, 677.730
647.972, 548.008
649.278, 210.475
650.584, 369.096
651.890, 933.863
653.196, 701.781
654.502, 748.846
655.807, 389.066
657.113, 436.469
658.418, 351.867
659.722, 428.781
661.027, 355.705
662.331, 468.797
663.636, 640.074
664.940, 160.529
666.244, 793.170
667.547, 198.986
668.851, 577.959
670.154, 362.105
671.457, 270.408
672.760, 694.871
674.062, 359.504
675.365, 398.307
676.667, 438.264
677.969, 399.406
679.271, 432.719
680.572, 327.184
681.874, 319.480
683.175, 648.566
684.476, 228.480
685.777, 214.549
687.077, 148.766
688.378, 577.137
689.678, 370.660
690.978, 407.336
692.278, 252.836
693.577, 697.080
694.877, 51.148
696.176, 564.371
697.475, 6.756
698.774, 467.293
700.072, 299.988
701.371, 99.836
702.669, 50.160
703.967, 222.988
705.265, 614.293
706.562, 361.754
707.860, 76.629
709.157, 644.125
710.454, 57.039
711.751, 360.109
713.047, 10.664
714.344, 289.719
715.640, 82.254
716.936, 76.051
718.232, 386.785
719.527, 195.777
720.823, 317.930
722.118, 232.242
723.413, 160.707
724.708, 139.336
726.002, 465.117
727.297, 150.938
728.591, 388.125
729.885, 453.348
731.179, 85.270
732.472, 120.746
733.766, 317.902
735.059, 38.289
736.352, 175.672
737.645, 145.793
738.937, 349.070
740.230, 324.414
741.522, 151.102
742.814, 205.855
744.106, 303.766
745.397, 81.836
746.689, 4.934
747.980, 138.449
749.271, 70.004
750.562, 167.680
751.853, 199.477
753.143, 315.477
754.433, 259.586
755.723, 214.148
757.013, 361.223
758.303, 108.246
759.592, 44.414
760.881, 51.770
762.170, 183.195
763.459, 119.316
764.748, 160.406
766.036, 123.988
767.325, 134.461
768.613, 225.215
769.901, 227.043
771.188, 51.969
772.476, 142.160
773.763, 224.555
775.050, 275.824
776.337, 5.363
777.624, 254.051
778.910, 134.891
780.196, 436.887
781.482, 1.035
782.768, 76.332
784.054, 173.781
785.339, 400.383
786.625, 28.133
787.910, 347.035
789.195, 97.090
790.479, 258.289
791.764, 325.645
793.048, 113.152
794.332, 341.801
795.616, 488.605
796.900, 472.582
798.183, 301.707
799.467, 548.977
800.750, 374.391
802.033, 357.957
803.316, 996.688
804.598, 85.562
805.880, 925.641
807.163, 803.863
808.445, 641.238
809.726, 597.754
811.008, 1092.430
812.289, 497.281
813.570, 1022.277
814.851, 1281.414
816.132, 1239.688
817.413, 1225.121
818.693, 1842.691
819.973, 1960.457
821.253, 1712.371
822.533, 2068.469
823.813, 2046.734
825.092, 1935.168
826.371, 2209.797
827.650, 2457.598
828.929, 2950.590
830.208, 3448.766
831.486, 3310.070
832.764, 4012.957
834.042, 4844.652
835.320, 6020.488
836.598, 7544.453
837.875, 9611.371
839.152, 11529.961
840.429, 14907.484
841.706, 17780.203
842.983, 21429.086
844.259, 24576.133
845.536, 24962.312
846.812, 23471.203
848.088, 20171.641
849.363, 17122.219
850.639, 14170.488
851.914, 11921.852
853.189, 9397.434
854.464, 8119.621
855.739, 7179.984
857.013, 5914.445
858.288, 5034.102
859.562, 4508.898
860.836, 4259.832
862.110, 3478.176
863.383, 3466.383
864.656, 2881.723
865.930, 3077.191
867.203, 2778.586
868.475, 2748.332
869.748, 2341.191
871.020, 2482.449
872.292, 2596.555
873.564, 2702.789
874.836, 2741.180
876.108, 2903.703
877.379, 3428.344
878.650, 4101.086
879.922, 4743.973
881.192, 4917.918
882.463, 6098.031
883.733, 7161.266
885.004, 8965.562
886.274, 10413.926
887.544, 12567.477
888.813, 13222.348
890.083, 13489.117
891.352, 12489.996
892.621, 10968.977
893.890, 8977.074
895.159, 7358.281
896.427, 6033.586
897.695, 5363.996
898.964, 4114.508
900.232, 3579.984
901.499, 2954.703
902.767, 2794.883
904.034, 2235.797
905.301, 2223.047
906.568, 1987.164
907.835, 1735.367
909.102, 1381.406
910.368, 1389.785
911.634, 1417.477
912.900, 1135.031
914.166, 1442.496
915.432, 1061.215
916.697, 738.016
917.962, 1163.426
919.227, 973.398
920.492, 963.848
921.757, 891.988
923.021, 976.211
924.285, 845.332
925.550, 697.707
926.813, 801.508
928.077, 601.039
929.341, 769.629
930.604, 797.309
931.867, 497.078
933.130, 648.914
934.393, 911.766
935.655, 344.742
936.918, 837.785
938.180, 238.902
939.442, 410.082
940.703, 533.328
941.965, 681.641
943.226, 669.492
944.488, 457.949
945.749, 607.453
947.009, 440.914
948.270, 428.590
949.530, 507.270
950.791, 520.008
952.051, 526.547
953.311, 546.441
954.570, 483.441
955.830, 503.402
957.089, 366.309
958.348, 241.371
959.607, 327.020
960.866, 317.180
962.124, 311.547
963.383, 336.996
964.641, 190.512
965.899, 315.566
967.156, 215.961
968.414, 201.863
969.671, 252.340
970.928, 142.781
972.185, 260.383
973.442, 260.668
974.699, 377.453
975.955, 325.660
977.211, 76.430
978.468, 389.895
979.723, 589.781
980.979, 115.816
982.234, 608.117
983.490, 148.922
984.745, 371.539
986.000, 543.328
987.254, 102.523
988.509, 432.340
989.763, 285.031
991.017, 283.227
992.271, 309.012
993.525, 533.109
994.779, 384.320
996.032, 461.273
997.285, 576.840
998.538, 47.402
999.791, 732.523
1001.044, 29.391
1002.296, 439.227
1003.548, 505.375
1004.800, 533.641
1006.052, 489.035
1007.304, 544.867
1008.555, 512.141
1009.807, 570.398
1011.058, 688.234
1012.309, 646.852
1013.559, 642.211
1014.810, 224.883
1016.060, 570.496
1017.310, 651.336
1018.560, 131.977
1019.810, 391.402
1021.060, 685.488
1022.309, 317.719
1023.558, 733.965
1024.807, 253.801
1026.056, 501.289
1027.305, 404.660
1028.553, 787.199
1029.801, 469.816
1031.049, 332.480
1032.297, 322.117
1033.545, 766.957
1034.793, 430.438
1036.040, 506.152
1037.287, 573.773
1038.534, 393.391
1039.781, 605.461
1041.027, 362.945
1042.274, 488.090
1043.520, 697.441
1044.766, 439.176
1046.012, 533.379
1047.257, 367.895
1048.503, 744.652
1049.748, 317.090
1050.993, 707.582
1052.238, 609.879
1053.483, 335.035
1054.727, 371.266
1055.971, 754.426
1057.216, 509.793
1058.459, 411.203
1059.703, 509.309
1060.947, 383.371
1062.190, 556.402
1063.433, 505.383
1064.676, 280.324
1065.919, 222.215
1067.162, 668.203
1068.404, 107.016
1069.646, 432.074
1070.888, 525.801
1072.130, 382.094
1073.372, 301.719
1074.613, 581.293
1075.855, 146.531
1077.096, 144.023
1078.337, 677.465
1079.578, 358.098
1080.818, 444.801
1082.059, 277.062
1083.299, 498.270
1084.539, 297.465
1085.779, 303.555
1087.018, 300.578
1088.258, 191.539
1089.497, 224.758
1090.736, 314.598
1091.975, 94.367
1093.213, 146.066
1094.452, 251.699
1095.690, 83.270
1096.928, 31.242
1098.166, 295.125
1099.404, 459.430
1100.642, 150.656
1101.879, 134.816
1103.116, 16.098
1104.353, 240.867
1105.590, 147.246
1106.827, 253.453
1108.063, 58.082
1109.299, 404.605
1110.536, 44.707
1111.771, 64.938
1113.007, 356.250
1114.243, 147.422
1115.478, 216.453
1116.713, 47.414
1117.948, 262.258
1119.183, 124.973
1120.418, 68.590
1121.652, 53.945
1122.886, 27.648
1124.120, 16.188
1125.354, 102.512
1126.588, 31.711
1127.821, 116.070
1129.055, 68.633
1130.288, 214.621
1131.521, 39.094
1132.753, 265.289
1133.986, 101.688
1135.218, 241.332
1136.450, 218.109
1137.682, 156.340
1138.914, 141.469
1140.146, 149.500
1141.377, 9.766
1142.609, 42.188
1143.840, 165.035
1145.071, 247.332
1146.301, 192.539
1147.532, 126.641
1148.762, 36.633
1149.992, 11.066
1151.222, 66.379
1152.452, 301.117
1153.682, 100.480
1154.911, 293.707
1156.140, 55.195
1157.369, 67.711
1158.598, 117.480
1159.827, 91.129
1161.055, 68.645
1162.284, 129.031
1163.512, 95.293
1164.740, 168.422
1165.967, 13.438
1167.195, 332.301
1168.422, 119.066
1169.650, 269.703
1170.877, 79.242
1172.103, 21.355
1173.330, 42.871
1174.557, 351.953
1175.783, 332.938
1177.009, 15.824
1178.235, 323.559
1179.461, 143.195
1180.686, 181.703
1181.912, 345.098
1183.137, 497.703
1184.362, 253.906
1185.587, 194.008
1186.811, 296.992
1188.036, 263.879
1189.260, 290.660
1190.484, 157.336
1191.708, 186.434
1192.932, 375.336
1194.155, 257.680
1195.378, 241.926
1196.602, 472.059
1197.825, 104.105
1199.047, 638.023
1200.270, 213.852
1201.492, 725.578
1202.715, 114.215
1203.937, 457.730
1205.159, 450.168
1206.380, 528.512
1207.602, 586.156
1208.823, 609.930
1210.044, 527.004
1211.265, 605.984
1212.486, 540.863
1213.707, 359.641
1214.927, 543.324
1216.147, 199.910
1217.367, 723.371
1218.587, 427.746
1219.807, 558.020
1221.027, 726.199
1222.246, 419.281
1223.465, 576.270
1224.684, 797.160
1225.903, 488.957
1227.121, 196.656
1228.340, 766.246
1229.558, 600.742
1230.776, 543.141
1231.994, 660.441
1233.212, 566.652
1234.429, 801.758
1235.646, 482.770
1236.864, 645.680
1238.081, 642.496
1239.297, 858.730
1240.514, 904.363
1241.730, 579.898
1242.947, 731.441
1244.163, 768.746
1245.378, 749.012
1246.594, 881.184
1247.810, 793.824
1249.025, 785.012
1250.240, 718.285
1251.455, 571.105
1252.670, 625.945
1253.885, 574.598
1255.099, 725.633
1256.313, 404.125
1257.527, 832.375
1258.741, 726.297
1259.955, 341.547
1261.168, 714.000
1262.382, 769.086
1263.595, 693.625
1264.808, 715.551
1266.021, 658.492
1267.233, 642.230
1268.446, 703.238
1269.658, 529.711
1270.870, 727.723
1272.082, 621.133
1273.294, 663.816
1274.505, 538.035
1275.716, 452.062
1276.928, 354.777
1278.139, 745.801
1279.349, 345.250
1280.560, 568.328
1281.770, 510.957
1282.981, 334.918
1284.191, 599.957
1285.401, 523.449
1286.610, 405.301
1287.820, 545.797
1289.029, 167.137
1290.239, 391.691
1291.448, 365.574
1292.656, 407.453
1293.865, 442.727
1295.073, 475.984
1296.282, 497.391
1297.490, 494.754
1298.698, 537.680
1299.906, 434.441
1301.113, 445.078
1302.320, 302.492
1303.528, 481.242
1304.735, 337.375
1305.942, 276.680
1307.148, 568.203
1308.355, 387.367
1309.561, 448.543
1310.767, 372.445
1311.973, 306.500
1313.179, 377.105
1314.384, 508.254
1315.590, 394.598
1316.795, 423.879
1318.000, 265.527
1319.205, 474.480
1320.410, 288.512
1321.614, 221.336
1322.819, 487.047
1324.023, 238.664
1325.227, 555.293
1326.431, 473.688
1327.634, 67.406
1328.838, 252.867
1330.041, 358.414
1331.244, 432.930
1332.447, 384.977
1333.650, 411.590
1334.852, 574.527
1336.055, 232.234
1337.257, 596.691
1338.459, 231.543
1339.661, 412.074
1340.862, 361.379
1342.064, 361.012
1343.265, 429.625
1344.466, 543.559
1345.667, 533.715
1346.868, 630.746
1348.068, 583.137
1349.269, 571.547
1350.469, 597.078
1351.669, 552.953
1352.869, 870.699
1354.069, 800.312
1355.268, 431.613
1356.468, 745.516
1357.667, 852.043
1358.866, 530.320
1360.065, 724.223
1361.263, 563.066
1362.462, 698.672
1363.660, 861.090
1364.858, 578.434
1366.056, 865.281
1367.254, 717.359
1368.451, 665.309
1369.649, 446.172
1370.846, 603.938
1372.043, 587.574
1373.240, 650.141
1374.436, 578.727
1375.633, 616.430
1376.829, 507.875
1378.025, 457.938
1379.221, 721.199
1380.417, 707.426
1381.613, 702.703
1382.808, 777.055
1384.003, 814.531
1385.199, 686.180
1386.393, 339.414
1387.588, 815.969
1388.783, 301.648
1389.977, 687.691
1391.171, 490.000
1392.365, 467.262
1393.559, 609.625
1394.753, 590.996
1395.946, 709.527
1397.140, 503.160
1398.333, 568.906
1399.526, 564.762
1400.719, 614.680
1401.911, 565.672
1403.104, 554.738
1404.296, 381.848
1405.488, 612.988
1406.680, 255.316
1407.872, 501.676
1409.063, 778.121
1410.255, 406.617
1411.446, 553.582
1412.637, 437.094
1413.828, 584.633
1415.018, 610.207
1416.209, 460.832
1417.399, 371.477
1418.589, 727.137
1419.779, 427.820
1420.969, 505.512
1422.159, 516.180
1423.348, 441.836
1424.537, 478.504
1425.726, 523.266
1426.915, 481.066
1428.104, 453.977
1429.293, 470.309
1430.481, 496.977
1431.669, 489.094
1432.857, 587.301
1434.045, 643.723
1435.233, 729.059
1436.420, 650.660
1437.608, 447.406
1438.795, 312.297
1439.982, 705.336
1441.169, 481.539
1442.355, 294.887
1443.542, 702.398
1444.728, 375.059
1445.914, 461.863
1447.100, 430.820
1448.286, 578.926
1449.472, 234.180
1450.657, 746.594
1451.842, 529.164
1453.027, 312.926
1454.212, 753.867
1455.397, 117.004
1456.581, 459.352
1457.766, 543.930
1458.950, 407.773
1460.134, 760.887
1461.318, 340.301
1462.501, 274.035
1463.685, 380.105
1464.868, 144.543
1466.051, 304.305
1467.234, 235.582
1468.417, 438.234
1469.600, 450.348
1470.782, 378.957
1471.965, 50.121
1473.147, 461.879
1474.329, 531.305
1475.510, 89.473
1476.692, 209.465
1477.873, 304.371
1479.055, 15.703
1480.236, 551.379
1481.416, 154.785
1482.597, 112.723
1483.778, 52.457
1484.958, 197.320
1486.138, 2.195
1487.318, 10.090
1488.498, 82.395
1489.678, 49.293
1490.857, 1.301
1492.037, 0.000
##END=



