##NAMES=Adamite
##RRUFFID=R050020
##IDEAL CHEMISTRY=Zn^2+^_2_As^5+^O_4_(OH)
##LOCALITY=Mina Ojuela, Mapimi, Durango, Mexico
##OWNER=RRUFF
##SOURCE=Eugene Schlepp
##DESCRIPTION=Light green prismatic crystal
##STATUS=The identification of this mineral has been confirmed by X-ray diffraction and chemical analysis
##URL=rruff.info/R050020
##MEASURED CHEMISTRY=(Zn_1.97_Cu_0.03_)_Σ=2_((As_0.98_P_0.02_)_Σ=1_O_4_)(OH)
##PIN_ID=L00236
##ORIENTATION=Laser parallel to -c* (0 0 -1). Fiducial mark perpendicular to laser is parallel to a [1 0 0]
46.637, 0.000
48.043, 35.607
49.450, 22.151
50.856, 78.550
52.261, 126.860
53.667, 114.732
55.072, 159.976
56.477, 237.806
57.882, 266.555
59.287, 366.457
60.691, 413.536
62.095, 434.241
63.499, 426.873
64.903, 404.929
66.306, 448.440
67.709, 405.121
69.112, 360.149
70.515, 340.714
71.917, 320.162
73.319, 234.938
74.721, 179.020
76.123, 123.391
77.525, 71.038
78.926, 48.947
80.327, 3.894
81.728, 40.494
83.128, 7.862
84.529, 20.003
85.929, 57.917
87.329, 29.605
88.728, 27.923
90.128, 5.339
91.527, 52.600
92.926, 63.731
94.324, 123.043
95.723, 194.525
97.121, 250.167
98.519, 281.952
99.917, 362.866
101.314, 438.904
102.712, 470.062
104.109, 550.339
105.505, 608.733
106.902, 706.241
108.298, 822.863
109.694, 927.598
111.090, 1069.444
112.486, 1121.401
113.881, 1262.469
115.277, 1323.645
116.672, 1502.931
118.066, 1669.325
119.461, 1943.827
120.855, 2203.439
122.249, 2460.209
123.643, 2707.173
125.036, 3002.276
126.430, 3199.479
127.823, 3294.779
129.216, 3489.173
130.608, 3479.665
132.001, 3618.253
133.393, 3611.933
134.785, 3499.693
136.176, 3322.524
137.568, 3170.417
138.959, 2844.364
140.350, 2590.350
141.741, 2284.365
143.131, 2030.410
144.521, 1776.487
145.911, 1616.589
147.301, 1446.023
148.691, 1256.730
150.080, 1230.718
151.469, 1140.672
152.858, 1111.656
154.247, 1132.693
155.635, 1172.786
157.024, 1166.938
158.411, 1120.148
159.799, 1093.417
161.187, 1086.748
162.574, 1080.140
163.961, 1146.594
165.348, 1207.111
166.734, 1234.690
168.121, 1326.333
169.507, 1459.039
170.893, 1523.810
172.278, 1544.646
173.664, 1467.546
175.049, 1338.511
176.434, 1119.542
177.819, 991.639
179.203, 907.802
180.587, 832.031
181.971, 743.327
183.355, 785.689
184.739, 843.119
186.122, 793.615
187.505, 840.178
188.888, 911.807
190.271, 947.502
191.653, 993.264
193.035, 1017.092
194.417, 1145.153
195.799, 1274.603
197.180, 1446.442
198.562, 1575.051
199.943, 1762.131
201.324, 2056.272
202.704, 2228.747
204.084, 2611.015
205.465, 2978.347
206.844, 3186.741
208.224, 3458.197
209.603, 3498.715
210.983, 3416.294
212.362, 3143.933
213.740, 2986.971
215.119, 2635.028
216.497, 2341.043
217.875, 2312.995
219.253, 2182.861
220.631, 2240.641
222.008, 2392.333
223.385, 2805.896
224.762, 3241.337
226.139, 3921.696
227.515, 4765.997
228.891, 5441.221
230.267, 6020.280
231.643, 6067.069
233.018, 5775.599
234.394, 5176.064
235.769, 4602.546
237.144, 3978.096
238.518, 3711.712
239.893, 3630.395
241.267, 3692.054
242.641, 4118.564
244.014, 4596.714
245.388, 5299.708
246.761, 5990.977
248.134, 6653.239
249.507, 7134.834
250.879, 7463.947
252.252, 7344.950
253.624, 7001.994
254.996, 6510.871
256.367, 5968.948
257.739, 5338.251
259.110, 4775.688
260.481, 4291.246
261.852, 3846.853
263.222, 3511.525
264.592, 3234.246
265.962, 3050.037
267.332, 2879.879
268.702, 2757.770
270.071, 2635.731
271.440, 2633.755
272.809, 2772.835
274.178, 2738.971
275.546, 2656.158
276.915, 2424.395
278.283, 2182.678
279.650, 1906.012
281.018, 1607.392
282.385, 1450.824
283.752, 1169.306
285.119, 1066.833
286.486, 909.410
287.852, 832.039
289.218, 770.729
290.584, 630.467
291.950, 590.255
293.316, 594.091
294.681, 512.991
296.046, 506.933
297.411, 416.931
298.775, 411.972
300.140, 340.059
301.504, 348.197
302.868, 378.379
304.231, 401.612
305.595, 456.896
306.958, 510.245
308.321, 450.638
309.684, 513.074
311.047, 539.564
312.409, 616.097
313.771, 663.697
315.133, 754.341
316.495, 794.041
317.856, 801.785
319.217, 880.565
320.578, 857.383
321.939, 833.249
323.299, 771.152
324.660, 706.900
326.020, 644.081
327.380, 520.102
328.739, 401.169
330.099, 263.283
331.458, 212.453
332.817, 131.671
334.176, 113.941
335.534, 70.251
336.892, 84.599
338.251, 16.010
339.608, 34.414
340.966, 23.877
342.323, 77.614
343.681, 10.078
345.037, 86.506
346.394, 19.909
347.751, 72.279
349.107, 61.622
350.463, 123.938
351.819, 9.764
353.174, 10.498
354.530, 40.278
355.885, 23.912
357.240, 16.927
358.594, 11.795
359.949, 42.686
361.303, 96.598
362.657, 194.531
364.011, 288.474
365.365, 359.446
366.718, 547.446
368.071, 720.473
369.424, 971.528
370.777, 1258.611
372.129, 1585.720
373.481, 1902.857
374.833, 1889.021
376.185, 1949.211
377.537, 1763.426
378.888, 1467.667
380.239, 1118.934
381.590, 783.226
382.941, 711.545
384.291, 430.891
385.642, 346.263
386.992, 315.663
388.341, 182.092
389.691, 174.548
391.040, 125.033
392.389, 134.546
393.738, 130.090
395.087, 134.664
396.435, 160.132
397.784, 174.907
399.132, 251.577
400.479, 325.278
401.827, 451.011
403.174, 570.774
404.521, 634.569
405.868, 771.396
407.215, 840.255
408.561, 1016.149
409.908, 1161.084
411.254, 1269.069
412.599, 1493.094
413.945, 1474.162
415.290, 1833.280
416.636, 1879.440
417.980, 1989.630
419.325, 2196.156
420.670, 2167.671
422.014, 2136.436
423.358, 1885.742
424.702, 1621.966
426.045, 1326.324
427.389, 1056.305
428.732, 789.047
430.075, 641.546
431.417, 476.965
432.760, 471.890
434.102, 345.556
435.444, 303.841
436.786, 269.331
438.127, 237.565
439.469, 209.546
440.810, 210.474
442.151, 245.173
443.492, 235.400
444.832, 254.111
446.172, 286.389
447.512, 300.351
448.852, 357.279
450.192, 341.578
451.531, 421.979
452.870, 459.701
454.209, 577.161
455.548, 565.458
456.887, 596.036
458.225, 628.754
459.563, 650.578
460.901, 673.840
462.238, 647.656
463.576, 616.039
464.913, 769.918
466.250, 727.830
467.587, 844.054
468.923, 887.626
470.259, 988.763
471.596, 1082.511
472.931, 1230.541
474.267, 1317.696
475.603, 1381.796
476.938, 1513.093
478.273, 1522.092
479.608, 1431.199
480.942, 1516.392
482.276, 1435.490
483.611, 1563.684
484.944, 1479.269
486.278, 1533.430
487.612, 1681.001
488.945, 1826.336
490.278, 2188.824
491.611, 2502.573
492.943, 2808.852
494.276, 3062.738
495.608, 3115.200
496.940, 3007.891
498.271, 2537.131
499.603, 2198.231
500.934, 1782.434
502.265, 1361.547
503.596, 1200.484
504.927, 949.375
506.257, 798.087
507.587, 674.610
508.917, 529.685
510.247, 591.027
511.577, 445.619
512.906, 480.928
514.235, 438.781
515.564, 457.101
516.892, 419.172
518.221, 461.601
519.549, 573.936
520.877, 494.274
522.205, 589.617
523.533, 778.965
524.860, 743.316
526.187, 973.672
527.514, 1114.031
528.841, 1405.394
530.167, 1617.761
531.493, 1901.131
532.820, 2138.505
534.145, 2555.882
535.471, 2802.261
536.796, 2994.644
538.122, 3031.029
539.447, 3035.418
540.771, 2764.809
542.096, 2629.201
543.420, 2323.597
544.744, 1967.994
546.068, 1850.394
547.392, 1399.796
548.715, 1282.199
550.039, 1089.604
551.362, 901.011
552.684, 842.419
554.007, 592.828
555.329, 533.238
556.652, 517.649
557.973, 419.062
559.295, 351.475
560.617, 303.888
561.938, 258.302
563.259, 221.716
564.580, 239.130
565.901, 249.544
567.221, 91.958
568.541, 81.372
569.861, 124.785
571.181, 100.198
572.501, 139.609
573.820, 96.020
575.139, 95.429
576.458, 46.837
577.777, 9.244
579.095, 10.644
580.414, 6.039
581.732, 74.426
583.049, 36.189
584.367, 38.167
585.685, 64.479
587.002, 11.832
588.319, 21.136
589.636, 69.564
590.952, 43.310
592.268, 21.090
593.585, 13.893
594.900, 0.947
596.216, 6.661
597.532, 13.603
598.847, 5.750
600.162, 7.885
601.477, 8.990
602.792, 0.607
604.106, 10.210
605.420, 2.707
606.734, 18.640
608.048, 58.597
609.361, 8.597
610.675, 13.617
611.988, 8.659
613.301, 73.719
614.614, 8.168
615.926, 45.956
617.238, 3.882
618.550, 3.293
619.862, 29.486
621.174, 4.709
622.485, 29.949
623.797, 30.220
625.108, 86.522
626.418, 6.882
627.729, 0.739
629.039, 43.655
630.349, 2.914
631.659, 101.532
632.969, 1.958
634.279, 52.568
635.588, 3.866
636.897, 58.286
638.206, 29.702
639.515, 14.886
640.823, 30.503
642.131, 6.113
643.439, 42.254
644.747, 14.616
646.055, 19.029
647.362, 21.698
648.669, 60.392
649.976, 35.406
651.283, 45.898
652.589, 4.703
653.896, 10.477
655.202, 18.353
656.508, 43.796
657.814, 1.057
659.119, 33.924
660.424, 28.180
661.729, 2.288
663.034, 51.384
664.339, 7.486
665.643, 37.580
666.947, 57.678
668.251, 32.777
669.555, 66.887
670.859, 49.006
672.162, 126.066
673.465, 47.137
674.768, 15.207
676.071, 127.272
677.373, 62.336
678.676, 87.398
679.978, 142.458
681.280, 72.517
682.581, 66.574
683.883, 42.629
685.184, 47.683
686.485, 112.736
687.786, 53.789
689.087, 130.839
690.387, 26.890
691.687, 146.939
692.987, 102.988
694.287, 65.037
695.586, 160.085
696.886, 32.134
698.185, 133.183
699.484, 41.236
700.783, 94.289
702.081, 154.342
703.379, 91.396
704.677, 121.450
705.975, 50.509
707.273, 123.569
708.570, 157.630
709.868, 103.695
711.165, 54.762
712.462, 69.830
713.758, 40.898
715.055, 95.969
716.351, 97.042
717.647, 62.116
718.943, 145.193
720.238, 113.271
721.533, 151.352
722.829, 73.438
724.124, 151.525
725.418, 106.616
726.713, 59.709
728.007, 179.805
729.301, 146.904
730.595, 160.008
731.889, 254.115
733.182, 216.226
734.476, 283.039
735.769, 311.894
737.061, 339.530
738.354, 304.657
739.647, 316.896
740.939, 362.032
742.231, 237.577
743.523, 328.395
744.814, 312.485
746.106, 254.688
747.397, 296.414
748.688, 255.429
749.978, 238.854
751.269, 218.105
752.559, 207.642
753.849, 268.461
755.139, 258.946
756.429, 189.524
757.719, 300.187
759.008, 210.393
760.297, 277.071
761.586, 202.094
762.875, 204.180
764.163, 339.924
765.451, 248.597
766.739, 286.976
768.027, 372.647
769.315, 314.509
770.602, 377.121
771.890, 333.620
773.177, 381.042
774.463, 425.054
775.750, 407.541
777.036, 454.494
778.323, 501.959
779.609, 562.459
780.894, 625.657
782.180, 659.535
783.465, 741.876
784.750, 769.634
786.035, 902.138
787.320, 919.547
788.605, 1070.042
789.889, 1217.363
791.173, 1291.013
792.457, 1590.582
793.741, 1753.092
795.024, 2101.723
796.307, 2483.286
797.591, 2740.487
798.873, 3249.137
800.156, 3679.405
801.439, 3928.938
802.721, 4193.347
804.003, 4067.519
805.285, 4006.189
806.566, 3997.279
807.848, 3871.819
809.129, 3906.158
810.410, 4112.973
811.691, 4650.807
812.971, 5010.715
814.252, 5902.735
815.532, 6978.622
816.812, 8063.829
818.092, 8569.761
819.371, 8927.637
820.651, 9231.263
821.930, 8877.265
823.209, 8273.288
824.488, 7849.335
825.766, 7381.862
827.045, 7337.949
828.323, 7294.062
829.601, 7620.093
830.878, 8166.251
832.156, 9162.430
833.433, 10378.632
834.710, 11804.887
835.987, 14141.166
837.264, 16577.463
838.540, 20403.801
839.817, 24290.162
841.093, 29726.539
842.369, 35942.953
843.644, 41049.398
844.920, 45325.898
846.195, 44572.418
847.470, 41628.996
848.745, 36475.586
850.020, 30132.266
851.294, 25328.904
852.568, 20896.332
853.842, 17073.021
855.116, 14779.742
856.390, 12306.491
857.663, 10953.261
858.936, 9651.032
860.209, 8157.857
861.482, 7514.724
862.755, 6892.148
864.027, 6159.065
865.299, 5946.028
866.571, 5503.014
867.843, 5480.027
869.115, 5267.066
870.386, 5194.129
871.657, 5421.223
872.928, 5478.350
874.199, 6045.500
875.470, 6453.012
876.740, 7060.222
878.010, 8387.456
879.280, 9274.721
880.550, 11322.006
881.820, 13289.328
883.089, 16796.857
884.358, 20524.234
885.627, 25011.668
886.896, 29519.111
888.164, 33356.586
889.433, 35214.098
890.701, 34541.621
891.969, 30899.199
893.236, 26576.811
894.504, 22544.449
895.771, 17833.133
897.038, 14780.844
898.305, 12088.587
899.572, 9896.378
900.838, 8334.212
902.105, 7082.085
903.371, 6129.997
904.637, 5247.940
905.902, 4511.911
907.168, 4184.911
908.433, 3681.938
909.698, 3311.994
910.963, 3116.082
912.228, 2724.972
913.492, 2743.120
914.757, 2340.299
916.021, 2094.721
917.285, 2122.979
918.548, 1914.271
919.812, 1942.597
921.075, 1679.955
922.338, 1633.488
923.601, 1677.927
924.864, 1485.407
926.126, 1569.917
927.388, 1547.458
928.650, 1427.089
929.912, 1387.699
931.174, 1169.346
932.435, 1186.324
933.697, 1069.061
934.958, 987.829
936.218, 989.627
937.479, 881.465
938.739, 924.000
940.000, 816.921
941.260, 656.872
942.520, 779.868
943.779, 660.892
945.039, 831.940
946.298, 843.011
947.557, 898.115
948.816, 863.242
950.074, 942.403
951.333, 810.587
952.591, 881.195
953.849, 690.437
955.107, 704.711
956.365, 558.028
957.622, 478.381
958.879, 574.773
960.136, 452.194
961.393, 403.639
962.650, 461.117
963.906, 269.617
965.162, 472.143
966.418, 425.705
967.674, 232.288
968.930, 394.896
970.185, 278.527
971.441, 255.973
972.696, 187.647
973.950, 220.343
975.205, 186.441
976.459, 191.891
977.714, 169.664
978.968, 156.823
980.222, 141.643
981.475, 163.908
982.729, 153.204
983.982, 86.085
985.235, 149.445
986.488, 81.367
987.740, 76.719
988.993, 116.654
990.245, 54.632
991.497, 73.823
992.749, 13.471
994.000, 7.505
995.252, 10.913
996.503, 14.559
997.754, 3.338
999.005, 21.977
1000.256, 5.899
1001.506, 96.240
1002.756, 44.606
1004.006, 44.558
1005.256, 46.370
1006.506, 9.566
1007.755, 47.778
1009.005, 50.485
1010.254, 74.762
1011.502, 85.800
1012.751, 32.925
1014.000, 78.646
1015.248, 25.767
1016.496, 3.085
1017.744, 185.381
1018.991, 92.725
1020.239, 94.082
1021.486, 137.909
1022.733, 97.412
1023.980, 182.806
1025.227, 21.332
1026.473, 79.083
1027.719, 30.552
1028.965, 37.562
1030.211, 118.010
1031.457, 69.018
1032.702, 13.390
1033.948, 114.279
1035.193, 1.461
1036.438, 149.036
1037.682, 74.546
1038.927, 87.520
1040.171, 98.044
1041.415, 56.750
1042.659, 100.718
1043.903, 178.272
1045.146, 39.292
1046.390, 110.268
1047.633, 5.777
1048.876, 76.573
1050.118, 170.235
1051.361, 53.736
1052.603, 64.195
1053.845, 44.128
1055.087, 63.824
1056.329, 11.443
1057.571, 110.069
1058.812, 79.700
1060.053, 130.335
1061.294, 52.507
1062.535, 122.121
1063.775, 75.753
1065.016, 9.542
1066.256, 95.096
1067.496, 33.039
1068.736, 89.682
1069.975, 87.329
1071.214, 5.135
1072.454, 89.515
1073.693, 63.305
1074.931, 45.056
1076.170, 99.711
1077.408, 30.462
1078.647, 130.187
1079.885, 100.835
1081.122, 9.510
1082.360, 121.274
1083.597, 44.927
1084.835, 28.627
1086.072, 135.279
1087.308, 18.070
1088.545, 77.663
1089.781, 86.306
1091.018, 107.841
1092.254, 152.480
1093.490, 25.119
1094.725, 57.779
1095.961, 108.413
1097.196, 31.044
1098.431, 138.479
1099.666, 81.104
1100.900, 7.272
1102.135, 142.343
1103.369, 90.955
1104.603, 107.563
1105.837, 84.168
1107.071, 56.791
1108.304, 16.591
1109.538, 23.185
1110.771, 51.984
1112.004, 74.568
1113.236, 52.892
1114.469, 44.750
1115.701, 21.422
1116.933, 31.983
1118.165, 49.615
1119.397, 24.835
1120.629, 44.727
1121.860, 30.247
1123.091, 7.760
1124.322, 94.451
1125.553, 46.949
1126.783, 3.471
1128.014, 115.363
1129.244, 3.833
1130.474, 4.288
1131.704, 52.953
1132.933, 107.613
1134.163, 30.124
1135.392, 7.476
1136.621, 18.186
1137.850, 95.423
1139.079, 14.725
1140.307, 58.466
1141.535, 70.998
1142.763, 93.772
1143.991, 83.371
1145.219, 29.521
1146.446, 96.372
1147.674, 95.149
1148.901, 38.152
1150.128, 136.199
1151.354, 117.712
1152.581, 21.264
1153.807, 123.333
1155.033, 48.312
1156.259, 1.722
1157.485, 72.791
1158.710, 52.280
1159.936, 63.596
1161.161, 27.633
1162.386, 51.474
1163.611, 104.372
1164.835, 12.219
1166.060, 97.978
1167.284, 113.797
1168.508, 4.530
1169.732, 5.763
1170.955, 67.102
1172.179, 10.238
1173.402, 114.062
1174.625, 54.789
1175.848, 27.386
1177.070, 155.139
1178.293, 9.856
1179.515, 51.671
1180.737, 47.182
1181.959, 28.322
1183.181, 132.102
1184.402, 15.373
1185.624, 37.021
1186.845, 108.478
1188.066, 16.999
1189.286, 40.319
1190.507, 105.210
1191.727, 26.494
1192.947, 142.757
1194.167, 25.479
1195.387, 56.701
1196.607, 71.906
1197.826, 5.640
1199.045, 29.796
1200.264, 52.325
1201.483, 75.328
1202.702, 119.431
1203.920, 117.902
1205.138, 120.973
1206.356, 141.028
1207.574, 46.068
1208.792, 141.317
1210.009, 109.321
1211.227, 82.308
1212.444, 132.070
1213.661, 60.025
1214.877, 128.961
1216.094, 147.880
1217.310, 33.848
1218.526, 171.604
1219.742, 79.467
1220.958, 85.314
1222.173, 239.143
1223.389, 78.019
1224.604, 106.763
1225.819, 150.542
1227.034, 126.530
1228.248, 84.982
1229.463, 165.713
1230.677, 98.427
1231.891, 150.125
1233.105, 160.805
1234.318, 92.800
1235.532, 182.447
1236.745, 38.074
1237.958, 221.682
1239.171, 156.274
1240.384, 109.848
1241.596, 128.404
1242.809, 148.945
1244.021, 43.470
1245.233, 182.974
1246.444, 124.520
1247.656, 182.591
1248.867, 149.043
1250.079, 149.479
1251.290, 171.897
1252.500, 197.299
1253.711, 85.228
1254.921, 221.587
1256.132, 87.928
1257.342, 160.426
1258.552, 219.730
1259.761, 119.016
1260.971, 102.280
1262.180, 178.522
1263.389, 109.926
1264.598, 212.132
1265.807, 118.526
1267.015, 169.771
1268.223, 213.922
1269.432, 92.942
1270.640, 194.030
1271.847, 121.101
1273.055, 24.790
1274.262, 244.820
1275.470, 141.409
1276.677, 89.025
1277.883, 222.004
1279.090, 66.504
1280.296, 138.444
1281.503, 201.957
1282.709, 71.889
1283.915, 199.887
1285.120, 53.563
1286.326, 76.785
1287.531, 167.613
1288.736, 22.493
1289.941, 140.329
1291.146, 116.090
1292.350, 42.636
1293.555, 128.674
1294.759, 124.400
1295.963, 63.111
1297.167, 170.811
1298.370, 30.863
1299.574, 123.532
1300.777, 219.186
1301.980, 30.685
1303.183, 111.920
1304.386, 159.734
1305.588, 3.689
1306.790, 87.588
1307.993, 81.315
1309.195, 77.845
1310.396, 189.396
1311.598, 75.897
1312.799, 118.385
1314.000, 132.400
1315.201, 52.739
1316.402, 170.178
1317.603, 101.148
1318.803, 60.562
1320.003, 174.917
1321.203, 51.727
1322.403, 25.098
1323.603, 139.906
1324.802, 48.127
1326.002, 196.269
1327.201, 81.820
1328.400, 59.128
1329.599, 190.423
1330.797, 58.252
1331.995, 43.524
1333.194, 185.616
1334.392, 5.439
1335.589, 136.677
1336.787, 129.025
1337.985, 11.758
1339.182, 148.506
1340.379, 96.481
1341.576, 5.588
1342.772, 250.852
1343.969, 21.157
1345.165, 83.983
1346.361, 134.227
1347.557, 13.363
1348.753, 132.489
1349.949, 136.608
1351.144, 96.721
1352.339, 236.309
1353.534, 110.417
1354.729, 96.519
1355.924, 161.547
1357.118, 107.641
1358.312, 132.429
1359.506, 171.516
1360.700, 51.600
1361.894, 169.794
1363.088, 112.827
1364.281, 78.717
1365.474, 245.646
1366.667, 49.729
1367.860, 85.574
1369.052, 127.591
1370.245, 11.398
1371.437, 72.608
1372.629, 104.954
1373.821, 105.962
1375.013, 227.929
1376.204, 138.794
1377.395, 77.516
1378.586, 218.689
1379.777, 95.015
1380.968, 230.190
1382.159, 229.364
1383.349, 120.669
1384.539, 172.784
1385.729, 214.874
1386.919, 81.937
1388.109, 197.723
1389.298, 44.493
1390.487, 157.429
1391.676, 241.256
1392.865, 74.085
1394.054, 163.948
1395.242, 150.611
1396.431, 4.578
1397.619, 234.599
1398.807, 149.131
1399.995, 17.490
1401.182, 198.307
1402.370, 136.761
1403.557, 117.665
1404.744, 251.291
1405.931, 14.137
1407.118, 105.462
1408.304, 225.030
1409.490, 29.109
1410.676, 191.959
1411.862, 182.131
1413.048, 52.687
1414.234, 204.375
1415.419, 85.118
1416.604, 55.840
1417.789, 193.410
1418.974, 25.255
1420.159, 155.938
1421.343, 200.885
1422.528, 124.460
1423.712, 249.315
1424.896, 93.063
1426.079, 10.588
1427.263, 184.602
1428.446, 97.516
1429.629, 186.097
1430.812, 249.107
1431.995, 20.543
1433.178, 123.430
1434.360, 219.657
1435.543, 6.493
1436.725, 211.355
1437.907, 155.194
1439.088, 120.026
1440.270, 196.737
1441.451, 129.563
1442.632, 173.384
1443.813, 287.078
1444.994, 49.536
1446.175, 249.288
1447.355, 227.024
1448.535, 114.753
1449.715, 218.476
1450.895, 212.188
1452.075, 67.897
1453.255, 203.590
1454.434, 35.145
1455.613, 105.817
1456.792, 221.481
1457.971, 58.873
1459.149, 125.533
1460.328, 253.768
1461.506, 113.433
1462.684, 246.673
1463.862, 104.358
1465.040, 113.854
1466.217, 302.669
1467.395, 162.514
1468.572, 124.361
1469.749, 222.052
1470.925, 106.922
1472.102, 250.795
1473.278, 261.352
1474.455, 92.274
1475.631, 266.101
1476.807, 245.097
1477.982, 33.077
1479.158, 213.060
1480.333, 121.051
1481.508, 92.050
1482.683, 166.140
1483.858, 145.249
1485.033, 135.378
1486.207, 330.533
1487.381, 22.278
1488.555, 172.972
1489.729, 176.301
1490.903, 30.698
1492.076, 220.164
1493.250, 168.688
1494.423, 92.271
1495.596, 226.920
1496.769, 73.658
1497.941, 57.478
1499.114, 205.450
1500.286, 109.533
1501.458, 127.734
1502.630, 181.071
1503.802, 54.268
1504.973, 143.950
1506.145, 153.635
1507.316, 12.295
1508.487, 169.879
1509.657, 72.288
1510.828, 45.353
1511.999, 189.989
1513.169, 1.785
1514.339, 63.134
1515.509, 242.718
1516.678, 38.687
1517.848, 0.000
##END=



