##NAMES=Adamite
##RRUFFID=R040130
##IDEAL CHEMISTRY=Zn^2+^_2_As^5+^O_4_(OH)
##LOCALITY=Mina Ojuela, Mapimi, Durango, Mexico
##OWNER=RRUFF
##SOURCE=Bob Downs
##DESCRIPTION=Pale yellow spherical aggregate of bladed crystals
##STATUS=The identification of this mineral has been confirmed by X-ray diffraction and chemical analysis
##URL=rruff.info/R040130
##MEASURED CHEMISTRY=Zn_1.97_(As_1.01_O_4_)(OH)
##PIN_ID=S00233
##ORIENTATION=Laser parallel to -a* (-1 0 0). Fiducial mark perpendicular to laser is parallel to b [0 1 0]
110.082, 0.000
111.473, 121.633
112.864, 12.420
114.254, 117.500
115.644, 88.716
117.034, 531.791
118.424, 358.943
119.813, 805.463
121.203, 1068.812
122.592, 1298.987
123.981, 1894.371
125.369, 2267.340
126.758, 3017.312
128.146, 3460.775
129.534, 4398.273
130.922, 5123.441
132.309, 5886.199
133.696, 6353.713
135.083, 7287.150
136.470, 6968.312
137.857, 7211.769
139.243, 6335.200
140.630, 5539.465
142.016, 4413.405
143.401, 3525.819
144.787, 2603.545
146.172, 1950.455
147.557, 1443.448
148.942, 946.445
150.327, 678.470
151.711, 436.731
153.096, 415.320
154.480, 327.688
155.863, 380.793
157.247, 284.158
158.630, 415.658
160.013, 371.226
161.396, 315.402
162.779, 522.610
164.161, 560.879
165.544, 837.273
166.926, 859.001
168.308, 1196.431
169.689, 1435.152
171.070, 1896.749
172.452, 2196.742
173.833, 1834.995
175.213, 1617.549
176.594, 1129.438
177.974, 1117.697
179.354, 772.355
180.734, 487.440
182.114, 352.976
183.493, 538.987
184.872, 319.496
186.251, 462.521
187.630, 114.083
189.008, 305.201
190.387, 255.792
191.765, 209.691
193.143, 403.704
194.520, 309.180
195.898, 466.533
197.275, 493.812
198.652, 727.976
200.029, 838.412
201.405, 842.580
202.782, 1111.668
204.158, 1521.014
205.534, 1872.989
206.909, 1961.200
208.285, 2292.435
209.660, 2446.337
211.035, 2124.773
212.410, 1975.878
213.784, 1784.917
215.159, 1755.943
216.533, 1481.952
217.907, 1226.936
219.281, 1334.890
220.654, 1030.812
222.027, 1159.095
223.400, 1260.978
224.773, 1393.606
226.146, 1617.188
227.518, 1763.837
228.891, 1838.183
230.263, 1935.124
231.634, 1877.266
233.006, 1923.562
234.377, 1579.847
235.748, 1375.080
237.119, 974.253
238.490, 1182.358
239.860, 925.387
241.231, 1004.332
242.601, 1207.180
243.970, 1477.935
245.340, 1669.595
246.709, 1779.161
248.079, 2100.637
249.448, 2139.021
250.816, 2353.314
252.185, 2181.514
253.553, 1991.620
254.921, 1659.631
256.289, 1522.550
257.657, 1329.379
259.024, 1131.117
260.391, 942.770
261.758, 856.335
263.125, 863.816
264.492, 646.215
265.858, 420.530
267.224, 654.766
268.590, 136.921
269.956, 406.000
271.321, 305.003
272.687, 242.908
274.052, 116.736
275.416, 94.578
276.781, 9.151
278.146, 11.588
279.510, 56.398
280.874, 85.268
282.237, 125.125
283.601, 143.334
284.964, 122.916
286.327, 20.737
287.690, 51.343
289.053, 71.558
290.416, 43.370
291.778, 111.962
293.140, 77.184
294.502, 227.629
295.863, 85.287
297.225, 67.589
298.586, 97.244
299.947, 141.637
301.308, 142.577
302.668, 105.158
304.029, 90.299
305.389, 50.511
306.749, 25.229
308.108, 164.845
309.468, 146.220
310.827, 198.282
312.186, 235.476
313.545, 442.647
314.903, 752.062
316.262, 916.014
317.620, 1175.879
318.978, 1401.652
320.336, 1972.324
321.693, 2166.885
323.051, 2344.324
324.408, 2061.640
325.765, 1994.829
327.121, 1287.899
328.478, 1126.854
329.834, 721.697
331.190, 689.432
332.546, 164.056
333.902, 422.555
335.257, 396.943
336.612, 185.226
337.967, 157.390
339.322, 110.436
340.677, 70.360
342.031, 44.161
343.385, 13.833
344.739, 167.374
346.093, 16.187
347.446, 43.115
348.799, 270.302
350.153, 126.400
351.505, 215.400
352.858, 312.315
354.210, 270.128
355.563, 380.854
356.915, 546.460
358.267, 640.886
359.618, 682.116
360.969, 1016.139
362.321, 1152.943
363.672, 1579.525
365.022, 1846.910
366.373, 2554.985
367.723, 3160.821
369.073, 4232.379
370.423, 5466.658
371.773, 6366.748
373.122, 7634.695
374.471, 8189.558
375.821, 7206.365
377.169, 6148.166
378.518, 4399.928
379.866, 3494.654
381.215, 2729.342
382.563, 1943.992
383.910, 1502.604
385.258, 1327.153
386.605, 1174.666
387.952, 707.113
389.299, 917.447
390.646, 631.641
391.992, 698.709
393.339, 850.732
394.685, 959.685
396.031, 1111.747
397.376, 1191.479
398.722, 1494.340
400.067, 1678.175
401.412, 1985.990
402.757, 2349.591
404.101, 2812.544
405.446, 3183.283
406.790, 3560.997
408.134, 4080.688
409.478, 4494.355
410.821, 4653.000
412.165, 4457.623
413.508, 4467.237
414.851, 4126.832
416.193, 3715.406
417.536, 3358.962
418.878, 3071.498
420.220, 2535.018
421.562, 2296.911
422.904, 1966.006
424.245, 1808.477
425.586, 1511.931
426.927, 1511.373
428.268, 1022.799
429.609, 894.214
430.949, 740.217
432.289, 887.605
433.629, 545.835
434.969, 727.504
436.309, 309.258
437.648, 494.521
438.987, 372.241
440.326, 273.709
441.665, 178.981
443.003, 292.722
444.342, 226.509
445.680, 119.479
447.018, 161.638
448.355, 93.466
449.693, 37.934
451.030, 128.957
452.367, 319.246
453.704, 192.426
455.041, 246.408
456.377, 93.275
457.713, 13.451
459.049, 85.752
460.385, 42.691
461.721, 213.232
463.056, 91.350
464.391, 14.957
465.726, 36.178
467.061, 179.658
468.395, 107.842
469.730, 149.973
471.064, 150.705
472.398, 316.514
473.731, 112.512
475.065, 18.678
476.398, 174.115
477.731, 74.898
479.064, 144.672
480.397, 168.434
481.729, 242.189
483.062, 224.938
484.394, 133.678
485.725, 181.414
487.057, 186.143
488.389, 259.871
489.720, 246.596
491.051, 157.320
492.382, 453.043
493.712, 388.084
495.043, 323.807
496.373, 237.461
497.703, 233.092
499.032, 175.207
500.362, 95.479
501.691, 160.459
503.020, 69.299
504.349, 158.564
505.678, 63.922
507.007, 218.381
508.335, 63.271
509.663, 135.873
510.991, 190.152
512.319, 71.891
513.646, 216.119
514.973, 62.850
516.300, 128.469
517.627, 374.666
518.954, 164.605
520.280, 322.566
521.607, 288.551
522.933, 483.562
524.259, 372.600
525.584, 440.668
526.910, 718.766
528.235, 718.895
529.560, 961.059
530.885, 981.258
532.209, 891.492
533.534, 1335.766
534.858, 1518.080
536.182, 1451.824
537.506, 1680.219
538.829, 1625.992
540.152, 1629.469
541.476, 1528.988
542.799, 1234.551
544.121, 1326.158
545.444, 1109.811
546.766, 870.146
548.088, 971.891
549.410, 733.684
550.732, 649.523
552.053, 719.641
553.375, 649.582
554.696, 616.904
556.017, 652.949
557.337, 534.133
558.658, 347.283
559.978, 357.473
561.298, 567.730
562.618, 325.045
563.938, 460.414
565.257, 388.842
566.576, 191.326
567.895, 433.869
569.214, 363.473
570.533, 458.135
571.851, 354.555
573.170, 446.340
574.488, 311.184
575.805, 206.092
577.123, 210.062
578.440, 323.098
579.758, 477.197
581.075, 289.363
582.391, 437.594
583.708, 300.893
585.024, 174.258
586.341, 376.691
587.657, 292.193
588.972, 566.766
590.288, 425.418
591.603, 103.143
592.918, 337.939
594.233, 326.811
595.548, 413.770
596.863, 293.814
598.177, 218.961
599.491, 334.211
600.805, 211.459
602.119, 321.932
603.432, 542.490
604.746, 580.377
606.059, 303.199
607.372, 287.910
608.685, 438.885
609.997, 231.180
611.309, 274.484
612.621, 167.768
613.933, 286.352
615.245, 308.221
616.557, 259.799
617.868, 333.785
619.179, 218.557
620.490, 163.920
621.801, 345.955
623.111, 202.350
624.421, 341.287
625.731, 8.438
627.041, 497.047
628.351, 151.254
629.660, 258.795
630.970, 584.227
632.279, 119.162
633.588, 199.957
634.896, 79.697
636.205, 451.539
637.513, 18.482
638.821, 359.531
640.129, 184.680
641.437, 348.934
642.744, 119.295
644.051, 152.760
645.358, 338.332
646.665, 242.008
647.972, 310.793
649.278, 179.688
650.584, 131.689
651.890, 335.816
653.196, 186.055
654.502, 405.404
655.807, 76.879
657.113, 204.484
658.418, 426.225
659.722, 283.109
661.027, 210.143
662.331, 243.332
663.636, 320.652
664.940, 16.137
666.244, 251.773
667.547, 52.533
668.851, 257.430
670.154, 72.453
671.457, 152.600
672.760, 381.869
674.062, 56.258
675.365, 190.770
676.667, 202.398
677.969, 110.150
679.271, 196.045
680.572, 203.557
681.874, 287.209
683.175, 287.475
684.476, 256.863
685.777, 251.379
687.077, 41.018
688.378, 206.781
689.678, 200.674
690.978, 103.691
692.278, 269.162
693.577, 393.047
694.877, 24.619
696.176, 406.840
697.475, 51.438
698.774, 262.164
700.072, 161.020
701.371, 120.004
702.669, 158.879
703.967, 236.338
705.265, 331.688
706.562, 259.168
707.860, 324.217
709.157, 123.449
710.454, 25.748
711.751, 309.182
713.047, 65.752
714.344, 312.439
715.640, 103.236
716.936, 10.207
718.232, 224.787
719.527, 81.506
720.823, 108.363
722.118, 228.371
723.413, 14.518
724.708, 24.803
726.002, 197.225
727.297, 133.213
728.591, 264.461
729.885, 314.279
731.179, 137.232
732.472, 86.326
733.766, 286.562
735.059, 246.938
736.352, 470.455
737.645, 282.113
738.937, 436.912
740.230, 309.854
741.522, 325.936
742.814, 436.158
744.106, 328.525
745.397, 270.037
746.689, 76.689
747.980, 304.484
749.271, 124.424
750.562, 468.506
751.853, 81.734
753.143, 293.102
754.433, 233.613
755.723, 215.268
757.013, 391.070
758.303, 54.012
759.592, 255.102
760.881, 13.336
762.170, 317.715
763.459, 237.242
764.748, 32.070
766.036, 190.758
767.325, 63.727
768.613, 332.906
769.901, 421.227
771.188, 229.729
772.476, 500.393
773.763, 277.234
775.050, 474.223
776.337, 417.355
777.624, 505.660
778.910, 567.121
780.196, 522.719
781.482, 563.289
782.768, 569.260
784.054, 753.371
785.339, 991.664
786.625, 858.100
787.910, 1304.705
789.195, 1231.465
790.479, 1422.365
791.764, 1763.404
793.048, 1711.582
794.332, 2522.895
795.616, 2966.350
796.900, 3200.941
798.183, 3560.672
799.467, 4240.539
800.750, 4632.543
802.033, 4764.688
803.316, 5065.977
804.598, 4494.408
805.880, 4962.969
807.163, 5049.672
808.445, 5022.516
809.726, 5556.500
811.008, 6438.617
812.289, 7152.879
813.570, 9047.297
814.851, 11144.846
816.132, 12865.525
817.413, 14932.350
818.693, 15852.301
819.973, 15108.391
821.253, 13640.609
822.533, 12003.969
823.813, 10021.463
825.092, 8749.096
826.371, 7688.857
827.650, 7111.795
828.929, 6765.896
830.208, 6751.166
831.486, 6508.578
832.764, 7147.633
834.042, 7777.371
835.320, 9040.293
836.598, 10466.348
837.875, 12877.748
839.152, 14809.883
840.429, 18945.365
841.706, 22736.002
842.983, 26731.799
844.259, 29257.771
845.536, 28473.895
846.812, 25318.754
848.088, 20805.154
849.363, 17429.357
850.639, 14347.277
851.914, 11660.146
853.189, 10259.160
854.464, 8949.320
855.739, 8319.637
857.013, 6926.461
858.288, 6349.090
859.562, 5626.859
860.836, 5172.779
862.110, 4398.607
863.383, 4366.822
864.656, 3940.848
865.930, 3939.336
867.203, 3634.871
868.475, 3714.637
869.748, 3555.547
871.020, 3754.584
872.292, 4014.590
873.564, 4346.922
874.836, 4541.584
876.108, 5103.191
877.379, 6161.928
878.650, 7113.781
879.922, 8408.797
881.192, 10321.234
882.463, 13126.537
883.733, 16479.977
885.004, 20961.529
886.274, 26317.213
887.544, 31616.018
888.813, 34591.934
890.083, 34688.980
891.352, 31700.152
892.621, 26861.434
893.890, 21837.855
895.159, 17429.395
896.427, 14089.051
897.695, 11819.842
898.964, 9470.746
900.232, 8097.760
901.499, 6667.879
902.767, 6032.102
904.034, 4948.439
905.301, 4628.883
906.568, 4009.434
907.835, 3800.090
909.102, 3135.842
910.368, 2961.695
911.634, 2773.652
912.900, 2491.709
914.166, 2585.863
915.432, 2110.113
916.697, 1907.451
917.962, 1968.535
919.227, 1612.064
920.492, 1682.688
921.757, 1531.395
923.021, 1428.195
924.285, 1540.092
925.550, 1340.076
926.813, 1250.152
928.077, 1122.316
929.341, 1085.559
930.604, 1041.889
931.867, 869.312
933.130, 922.822
934.393, 924.414
935.655, 639.088
936.918, 1045.982
938.180, 606.814
939.442, 576.914
940.703, 643.896
941.965, 589.947
943.226, 452.068
944.488, 617.260
945.749, 639.520
947.009, 536.848
948.270, 342.244
949.530, 386.705
950.791, 422.232
952.051, 453.820
953.311, 360.473
954.570, 415.514
955.830, 441.289
957.089, 301.125
958.348, 225.020
959.607, 280.307
960.866, 277.646
962.124, 230.254
963.383, 281.920
964.641, 193.338
965.899, 206.568
967.156, 261.863
968.414, 125.512
969.671, 270.896
970.928, 78.631
972.185, 161.135
973.442, 24.137
974.699, 255.258
975.955, 232.287
977.211, 100.973
978.468, 97.404
979.723, 221.354
980.979, 80.871
982.234, 276.211
983.490, 203.625
984.745, 62.768
986.000, 58.678
987.254, 134.139
988.509, 212.955
989.763, 23.148
991.017, 121.297
992.271, 18.197
993.525, 165.932
994.779, 87.207
996.032, 38.998
997.285, 271.383
998.538, 49.004
999.791, 277.877
1001.044, 58.871
1002.296, 52.199
1003.548, 123.430
1004.800, 94.838
1006.052, 242.434
1007.304, 34.363
1008.555, 73.168
1009.807, 78.887
1011.058, 58.578
1012.309, 293.854
1013.559, 136.838
1014.810, 9.855
1016.060, 300.145
1017.310, 203.180
1018.560, 25.697
1019.810, 35.270
1021.060, 354.824
1022.309, 35.025
1023.558, 165.859
1024.807, 99.957
1026.056, 123.102
1027.305, 184.109
1028.553, 353.875
1029.801, 161.443
1031.049, 129.203
1032.297, 157.059
1033.545, 98.826
1034.793, 235.225
1036.040, 152.736
1037.287, 254.525
1038.534, 372.805
1039.781, 304.641
1041.027, 84.020
1042.274, 279.898
1043.520, 313.521
1044.766, 122.252
1046.012, 232.377
1047.257, 138.398
1048.503, 332.842
1049.748, 159.107
1050.993, 240.180
1052.238, 274.277
1053.483, 133.119
1054.727, 88.090
1055.971, 291.898
1057.216, 179.275
1058.459, 168.771
1059.703, 126.814
1060.947, 207.561
1062.190, 270.605
1063.433, 160.996
1064.676, 268.131
1065.919, 155.789
1067.162, 388.016
1068.404, 102.025
1069.646, 177.035
1070.888, 332.969
1072.130, 89.666
1073.372, 191.717
1074.613, 165.604
1075.855, 222.533
1077.096, 40.453
1078.337, 248.734
1079.578, 63.625
1080.818, 217.910
1082.059, 116.170
1083.299, 213.090
1084.539, 168.930
1085.779, 17.652
1087.018, 84.283
1088.258, 17.744
1089.497, 110.836
1090.736, 98.303
1091.975, 36.285
1093.213, 73.646
1094.452, 128.740
1095.690, 69.490
1096.928, 137.104
1098.166, 59.375
1099.404, 98.072
1100.642, 54.350
1101.879, 114.213
1103.116, 15.125
1104.353, 137.199
1105.590, 83.539
1106.827, 212.070
1108.063, 9.045
1109.299, 38.977
1110.536, 111.326
1111.771, 0.734
1113.007, 18.756
1114.243, 91.828
1115.478, 73.123
1116.713, 55.600
1117.948, 105.178
1119.183, 61.633
1120.418, 83.752
1121.652, 28.709
1122.886, 60.764
1124.120, 69.816
1125.354, 99.797
1126.588, 114.859
1127.821, 56.480
1129.055, 78.773
1130.288, 26.094
1131.521, 34.049
1132.753, 153.576
1133.986, 127.566
1135.218, 59.967
1136.450, 9.797
1137.682, 131.203
1138.914, 10.645
1140.146, 20.422
1141.377, 63.486
1142.609, 101.975
1143.840, 12.646
1145.071, 102.496
1146.301, 5.715
1147.532, 29.307
1148.762, 59.943
1149.992, 72.424
1151.222, 6.490
1152.452, 5.215
1153.682, 44.068
1154.911, 0.162
1156.140, 92.066
1157.369, 53.740
1158.598, 23.906
1159.827, 18.156
1161.055, 41.311
1162.284, 7.322
1163.512, 81.768
1164.740, 31.238
1165.967, 21.545
1167.195, 78.885
1168.422, 3.859
1169.650, 12.139
1170.877, 48.402
1172.103, 36.496
1173.330, 103.758
1174.557, 69.326
1175.783, 176.277
1177.009, 90.697
1178.235, 180.359
1179.461, 110.135
1180.686, 6.451
1181.912, 183.090
1183.137, 96.307
1184.362, 51.643
1185.587, 68.693
1186.811, 184.586
1188.036, 35.611
1189.260, 84.199
1190.484, 9.367
1191.708, 134.877
1192.932, 42.977
1194.155, 0.090
1195.378, 101.660
1196.602, 159.256
1197.825, 241.707
1199.047, 168.029
1200.270, 84.205
1201.492, 246.227
1202.715, 84.117
1203.937, 210.855
1205.159, 199.459
1206.380, 233.924
1207.602, 126.258
1208.823, 229.443
1210.044, 199.494
1211.265, 217.406
1212.486, 377.188
1213.707, 204.848
1214.927, 219.367
1216.147, 216.750
1217.367, 314.990
1218.587, 235.086
1219.807, 143.049
1221.027, 212.850
1222.246, 144.510
1223.465, 289.018
1224.684, 359.385
1225.903, 197.621
1227.121, 74.717
1228.340, 238.660
1229.558, 261.465
1230.776, 187.135
1231.994, 267.660
1233.212, 191.900
1234.429, 282.139
1235.646, 318.047
1236.864, 395.010
1238.081, 314.824
1239.297, 386.496
1240.514, 285.025
1241.730, 317.412
1242.947, 324.654
1244.163, 356.748
1245.378, 296.703
1246.594, 537.520
1247.810, 261.199
1249.025, 407.734
1250.240, 297.803
1251.455, 286.062
1252.670, 372.186
1253.885, 309.176
1255.099, 469.697
1256.313, 246.078
1257.527, 424.652
1258.741, 386.006
1259.955, 131.061
1261.168, 310.221
1262.382, 276.230
1263.595, 381.801
1264.808, 283.555
1266.021, 253.875
1267.233, 289.352
1268.446, 407.244
1269.658, 248.938
1270.870, 372.641
1272.082, 307.605
1273.294, 177.748
1274.505, 323.291
1275.716, 460.186
1276.928, 246.178
1278.139, 391.264
1279.349, 302.016
1280.560, 346.168
1281.770, 222.686
1282.981, 227.770
1284.191, 338.389
1285.401, 282.965
1286.610, 303.707
1287.820, 352.523
1289.029, 336.012
1290.239, 336.107
1291.448, 389.197
1292.656, 289.807
1293.865, 316.070
1295.073, 264.871
1296.282, 196.754
1297.490, 195.383
1298.698, 172.303
1299.906, 264.824
1301.113, 190.479
1302.320, 188.184
1303.528, 249.881
1304.735, 107.510
1305.942, 146.463
1307.148, 272.656
1308.355, 99.723
1309.561, 226.426
1310.767, 222.295
1311.973, 169.594
1313.179, 65.746
1314.384, 341.834
1315.590, 285.234
1316.795, 405.807
1318.000, 136.990
1319.205, 326.189
1320.410, 171.355
1321.614, 118.668
1322.819, 334.094
1324.023, 141.232
1325.227, 447.201
1326.431, 248.570
1327.634, 67.422
1328.838, 222.475
1330.041, 286.162
1331.244, 388.277
1332.447, 172.754
1333.650, 421.609
1334.852, 277.883
1336.055, 217.336
1337.257, 441.609
1338.459, 206.416
1339.661, 385.252
1340.862, 287.604
1342.064, 289.068
1343.265, 220.666
1344.466, 377.188
1345.667, 252.918
1346.868, 377.475
1348.068, 360.631
1349.269, 256.725
1350.469, 408.682
1351.669, 536.096
1352.869, 585.820
1354.069, 545.059
1355.268, 578.586
1356.468, 481.049
1357.667, 573.752
1358.866, 496.961
1360.065, 595.010
1361.263, 344.729
1362.462, 614.854
1363.660, 666.209
1364.858, 448.836
1366.056, 580.104
1367.254, 559.416
1368.451, 532.668
1369.649, 375.098
1370.846, 418.211
1372.043, 422.213
1373.240, 578.695
1374.436, 504.619
1375.633, 526.322
1376.829, 446.219
1378.025, 419.818
1379.221, 554.023
1380.417, 457.178
1381.613, 485.084
1382.808, 523.662
1384.003, 461.904
1385.199, 418.332
1386.393, 388.988
1387.588, 552.969
1388.783, 403.988
1389.977, 430.842
1391.171, 293.369
1392.365, 425.104
1393.559, 562.441
1394.753, 342.090
1395.946, 534.059
1397.140, 364.059
1398.333, 429.574
1399.526, 497.832
1400.719, 419.525
1401.911, 509.197
1403.104, 605.533
1404.296, 351.658
1405.488, 508.109
1406.680, 315.457
1407.872, 379.373
1409.063, 627.389
1410.255, 237.623
1411.446, 345.883
1412.637, 439.297
1413.828, 423.715
1415.018, 525.564
1416.209, 491.033
1417.399, 336.027
1418.589, 555.523
1419.779, 486.051
1420.969, 533.656
1422.159, 388.240
1423.348, 428.797
1424.537, 450.324
1425.726, 430.805
1426.915, 403.240
1428.104, 525.625
1429.293, 386.938
1430.481, 356.189
1431.669, 436.453
1432.857, 339.727
1434.045, 291.045
1435.233, 440.387
1436.420, 454.713
1437.608, 337.037
1438.795, 452.385
1439.982, 516.781
1441.169, 522.248
1442.355, 345.836
1443.542, 344.541
1444.728, 335.406
1445.914, 442.389
1447.100, 404.529
1448.286, 370.787
1449.472, 288.164
1450.657, 662.723
1451.842, 425.480
1453.027, 365.443
1454.212, 537.613
1455.397, 277.939
1456.581, 440.461
1457.766, 535.137
1458.950, 348.969
1460.134, 567.949
1461.318, 394.070
1462.501, 255.354
1463.685, 439.814
1464.868, 192.479
1466.051, 490.381
1467.234, 235.541
1468.417, 314.982
1469.600, 423.734
1470.782, 301.836
1471.965, 126.305
1473.147, 363.172
1474.329, 430.453
1475.510, 147.191
1476.692, 138.410
1477.873, 415.141
1479.055, 230.426
1480.236, 487.326
1481.416, 204.910
1482.597, 158.268
1483.778, 218.494
1484.958, 216.703
1486.138, 132.018
1487.318, 491.590
1488.498, 175.607
1489.678, 41.689
1490.857, 161.021
1492.037, 307.145
1493.216, 202.229
1494.395, 178.039
1495.574, 380.459
1496.752, 168.609
1497.931, 339.271
1499.109, 0.000
##END=



