##NAMES=Adamite
##RRUFFID=R050020
##IDEAL CHEMISTRY=Zn^2+^_2_As^5+^O_4_(OH)
##LOCALITY=Mina Ojuela, Mapimi, Durango, Mexico
##OWNER=RRUFF
##SOURCE=Eugene Schlepp
##DESCRIPTION=Light green prismatic crystal
##STATUS=The identification of this mineral has been confirmed by X-ray diffraction and chemical analysis
##URL=rruff.info/R050020
##MEASURED CHEMISTRY=(Zn_1.97_Cu_0.03_)_Σ=2_((As_0.98_P_0.02_)_Σ=1_O_4_)(OH)
##PIN_ID=L00404
##ORIENTATION=Laser parallel to -b* (0 -1 0). Fiducial mark perpendicular to laser is parallel to c [0 0 1]
116.256, 0.000
117.653, 9.266
119.050, 56.938
120.447, 640.026
121.843, 691.311
123.240, 1922.291
124.636, 1854.877
126.031, 3077.410
127.427, 3651.138
128.822, 4301.672
130.217, 6012.703
131.612, 6034.287
133.006, 8216.419
134.400, 8109.896
135.794, 10005.790
137.188, 10047.690
138.581, 9902.624
139.975, 9943.940
141.368, 7628.533
142.760, 7063.658
144.153, 4579.229
145.545, 3775.176
146.937, 2461.449
148.329, 1408.011
149.720, 1304.831
151.112, 261.879
152.503, 718.798
153.893, 64.897
155.284, 407.356
156.674, 161.685
158.064, 3.477
159.454, 422.439
160.843, 130.677
162.233, 567.920
163.622, 51.765
165.011, 518.955
166.399, 499.556
167.787, 720.057
169.175, 1340.473
170.563, 1220.813
171.951, 2341.095
173.338, 2081.339
174.725, 2651.561
176.112, 2111.783
177.499, 1462.007
178.885, 1512.234
180.271, 532.468
181.657, 912.708
183.043, 162.953
184.428, 293.205
185.813, 373.462
187.198, 96.277
188.583, 503.988
189.967, 295.742
191.351, 434.534
192.735, 95.180
194.119, 215.119
195.502, 265.437
196.885, 5.774
198.268, 788.455
199.651, 112.025
201.033, 897.871
202.415, 716.093
203.797, 1274.078
205.179, 1723.869
206.561, 1535.250
207.942, 2762.566
209.323, 2281.865
210.703, 2975.100
212.084, 2384.098
213.464, 2282.911
214.844, 2361.860
216.224, 1420.914
217.603, 2030.047
218.983, 1169.236
220.362, 1478.486
221.741, 1217.761
223.119, 1037.057
224.497, 1866.400
225.875, 1205.826
227.253, 2455.401
228.631, 2095.178
230.008, 2785.108
231.385, 2925.234
232.762, 2425.435
234.139, 2745.935
235.515, 1566.547
236.891, 1957.015
238.267, 1177.505
239.643, 1318.045
241.018, 1438.604
242.393, 1039.181
243.768, 1959.768
245.143, 1380.358
246.517, 2390.949
247.891, 2371.533
249.265, 2752.113
250.639, 3382.688
252.012, 2873.256
253.386, 3683.816
254.759, 2744.368
256.131, 3154.916
257.504, 2535.456
258.876, 2075.987
260.248, 2376.518
261.620, 1317.044
262.991, 2067.581
264.363, 1138.193
265.734, 1368.801
267.104, 1249.480
268.475, 790.226
269.845, 1090.973
271.215, 291.884
272.585, 832.782
273.955, 313.741
275.324, 414.777
276.693, 565.801
278.062, 6.960
279.431, 648.146
280.799, 0.708
282.167, 368.676
283.535, 178.340
284.903, 20.895
286.270, 460.475
287.638, 207.906
289.005, 617.324
290.371, 40.649
291.738, 231.491
293.104, 175.276
294.470, 242.451
295.836, 451.423
297.201, 296.252
298.567, 378.578
299.932, 139.120
301.296, 103.040
302.661, 539.180
304.025, 268.858
305.389, 626.050
306.753, 107.891
308.117, 589.753
309.480, 534.820
310.843, 486.744
312.206, 1081.914
313.569, 713.861
314.931, 1505.818
316.293, 1297.784
317.655, 1679.719
319.017, 2250.846
320.378, 2142.418
321.740, 3234.123
323.101, 2575.260
324.461, 3436.893
325.822, 3044.094
327.182, 2525.731
328.542, 2656.175
329.902, 1427.790
331.261, 1899.429
332.621, 862.656
333.980, 1164.271
335.339, 1072.982
336.697, 334.575
338.056, 936.177
339.414, 176.415
340.772, 647.990
342.129, 512.962
343.487, 384.511
344.844, 877.754
346.201, 251.434
347.557, 1032.960
348.914, 526.761
350.270, 748.256
351.626, 887.371
352.982, 608.833
354.337, 1264.266
355.693, 700.010
357.048, 1507.186
358.402, 1143.474
359.757, 1454.846
361.111, 1936.184
362.465, 1367.864
363.819, 2529.143
365.173, 2290.384
366.526, 3321.482
367.879, 3962.523
369.232, 4383.547
370.585, 6544.414
371.937, 6935.116
373.290, 9575.710
374.642, 10006.141
375.993, 10586.556
377.345, 10576.955
378.696, 7737.347
380.047, 7587.719
381.398, 4998.077
382.748, 4348.416
384.099, 3598.738
385.449, 2289.065
386.799, 2849.375
388.148, 1559.665
389.497, 2219.938
390.847, 1500.188
392.196, 1490.463
393.544, 2010.713
394.893, 1180.941
396.241, 2181.146
397.589, 1601.326
398.936, 2171.516
400.284, 2601.679
401.631, 2422.885
402.978, 3822.997
404.325, 3243.083
405.672, 4825.045
407.018, 4945.078
408.364, 4903.537
409.710, 6413.516
411.055, 5423.467
412.401, 6824.954
413.746, 6014.852
415.091, 6180.762
416.435, 6430.601
417.780, 5061.586
419.124, 5812.609
420.468, 4312.359
421.812, 4592.010
423.155, 4061.700
424.498, 2862.240
425.842, 3601.870
427.184, 1991.469
428.527, 2669.884
429.869, 1909.418
431.211, 1532.300
432.553, 1921.768
433.895, 891.200
435.236, 1799.053
436.577, 988.416
437.918, 934.193
439.259, 1293.485
440.599, 561.586
441.940, 1212.822
443.280, 370.359
444.619, 909.877
445.959, 769.000
447.298, 365.204
448.637, 984.411
449.976, 138.752
451.315, 856.925
452.653, 411.492
453.991, 230.346
455.329, 799.867
456.667, 48.598
458.004, 839.122
459.341, 156.740
460.678, 445.234
462.015, 609.167
463.352, 97.466
464.688, 811.616
466.024, 120.318
467.360, 618.534
468.695, 626.858
470.031, 114.990
471.366, 889.079
472.701, 117.096
474.035, 855.040
475.370, 452.940
476.704, 450.799
478.038, 1001.134
479.372, 148.904
480.705, 1036.624
482.038, 334.300
483.371, 461.933
484.704, 853.071
486.037, 170.623
487.369, 958.142
488.701, 215.617
490.033, 613.051
491.365, 597.964
492.696, 195.312
494.027, 842.603
495.358, 19.849
496.689, 746.986
498.019, 458.279
499.350, 4.669
500.680, 732.198
502.009, 240.914
503.339, 645.729
504.668, 186.812
505.997, 163.352
507.326, 699.828
508.655, 223.737
509.983, 662.461
511.311, 61.237
512.639, 374.790
513.967, 610.775
515.295, 76.787
516.622, 832.719
517.949, 58.660
519.276, 764.482
520.602, 840.263
521.929, 266.003
523.255, 1181.697
524.581, 479.493
525.906, 1085.105
527.232, 1010.679
528.557, 586.212
529.882, 1721.706
531.207, 890.196
532.531, 2045.613
533.855, 1610.994
535.179, 1836.339
536.503, 2511.646
537.827, 1777.927
539.150, 2763.164
540.473, 1848.366
541.796, 2123.533
543.119, 2468.664
544.441, 1358.973
545.764, 2094.035
547.086, 1149.064
548.407, 1374.057
549.729, 1479.017
551.050, 393.680
552.371, 1318.569
553.692, 373.426
555.013, 828.249
556.333, 783.038
557.653, 305.588
558.973, 1010.311
560.293, 165.000
561.612, 779.646
562.932, 514.260
564.251, 118.934
565.569, 983.463
566.888, 32.037
568.206, 802.354
569.524, 386.713
570.842, 121.160
572.160, 845.443
573.477, 160.305
574.795, 673.777
576.112, 127.830
577.428, 121.840
578.745, 655.811
580.061, 230.248
581.377, 563.490
582.693, 127.203
584.009, 220.877
585.324, 674.525
586.639, 221.852
587.954, 911.580
589.269, 34.986
590.583, 288.334
591.897, 641.656
593.212, 225.045
594.525, 848.068
595.839, 28.842
597.152, 464.164
598.465, 547.148
599.778, 50.121
601.091, 923.047
602.403, 104.121
603.716, 478.680
605.028, 511.463
606.339, 105.896
607.651, 886.771
608.962, 93.945
610.273, 458.666
611.584, 551.281
612.895, 62.316
614.205, 904.889
615.515, 104.107
616.825, 578.428
618.135, 608.480
619.444, 68.920
620.754, 1043.652
622.063, 57.785
623.372, 734.709
624.680, 384.186
625.989, 46.746
627.297, 959.291
628.605, 71.361
629.912, 761.109
631.220, 430.336
632.527, 122.791
633.834, 895.240
635.141, 192.314
636.447, 920.012
637.754, 429.725
639.060, 462.043
640.366, 884.244
641.671, 43.445
642.977, 928.828
644.282, 269.010
645.587, 271.281
646.892, 1062.338
648.196, 125.389
649.501, 946.814
650.805, 517.418
652.109, 269.625
653.412, 1094.727
654.716, 73.062
656.019, 1119.115
657.322, 232.648
658.625, 394.838
659.927, 833.625
661.230, 94.168
662.532, 846.316
663.834, 246.361
665.135, 408.559
666.437, 1018.479
667.738, 0.701
669.039, 930.949
670.340, 323.209
671.640, 265.486
672.940, 1003.465
674.241, 5.777
675.540, 1163.219
676.840, 365.576
678.139, 447.955
679.439, 999.990
680.738, 67.588
682.036, 964.848
683.335, 227.305
684.633, 449.787
685.931, 832.322
687.229, 95.117
688.527, 1207.441
689.824, 330.025
691.121, 552.639
692.418, 935.334
693.715, 41.939
695.012, 1000.805
696.308, 443.580
697.604, 366.383
698.900, 1029.219
700.195, 157.916
701.491, 1174.938
702.786, 287.824
704.081, 210.744
705.376, 763.701
706.670, 263.309
707.964, 809.633
709.259, 142.613
710.552, 65.631
711.846, 628.688
713.139, 228.219
714.433, 954.846
715.726, 167.949
717.018, 380.025
718.311, 943.209
719.603, 3.562
720.895, 927.801
722.187, 411.113
723.479, 376.016
724.770, 1049.416
726.061, 7.137
727.352, 1014.793
728.643, 358.334
729.934, 405.877
731.224, 969.514
732.514, 102.025
733.804, 1174.523
735.094, 518.314
736.383, 512.230
737.672, 1276.131
738.961, 119.207
740.250, 1223.215
741.539, 767.279
742.827, 472.559
744.115, 1486.746
745.403, 117.611
746.691, 1061.920
747.978, 686.289
749.265, 232.266
750.552, 1326.762
751.839, 84.871
753.126, 959.496
754.412, 754.186
755.698, 156.926
756.984, 1221.750
758.270, 56.279
759.555, 681.240
760.840, 726.271
762.125, 161.217
763.410, 996.391
764.695, 252.418
765.979, 807.756
767.263, 743.164
768.547, 347.932
769.831, 1283.498
771.114, 180.076
772.398, 915.846
773.681, 961.705
774.964, 30.924
776.246, 1196.938
777.529, 327.223
778.811, 863.412
780.093, 1189.693
781.375, 345.734
782.656, 1872.176
783.937, 932.686
785.219, 1329.307
786.499, 2086.025
787.780, 842.828
789.060, 2429.713
790.341, 1844.162
791.621, 2091.221
792.901, 3248.375
794.180, 2285.615
795.459, 4102.943
796.739, 3986.812
798.017, 4244.318
799.296, 6151.922
800.575, 5199.615
801.853, 7277.402
803.131, 6937.760
804.409, 6715.730
805.686, 7973.799
806.964, 6441.986
808.241, 8180.301
809.518, 8204.512
810.795, 8263.072
812.071, 11391.766
813.347, 10420.639
814.623, 14519.746
815.899, 16634.461
817.175, 17133.857
818.450, 20943.361
819.726, 18402.963
821.001, 19062.762
822.275, 17784.047
823.550, 13924.090
824.824, 14784.230
826.098, 11464.473
827.372, 11434.840
828.646, 11746.596
829.920, 9387.180
831.193, 11837.867
832.466, 10678.654
833.739, 12079.580
835.011, 14330.805
836.284, 13661.932
837.556, 18153.162
838.828, 19710.869
840.100, 22302.309
841.371, 28520.922
842.642, 28522.582
843.914, 35644.324
845.184, 35069.227
846.455, 33491.184
847.726, 34172.242
848.996, 26624.414
850.266, 26386.688
851.536, 22359.070
852.805, 17711.551
854.075, 18068.941
855.344, 13372.195
856.613, 13285.012
857.881, 12377.953
859.150, 9201.002
860.418, 10354.418
861.686, 7938.709
862.954, 7692.080
864.222, 7905.578
865.489, 5799.182
866.756, 7635.098
868.023, 6428.924
869.290, 6232.859
870.557, 7566.910
871.823, 6041.070
873.089, 7755.250
874.355, 8239.668
875.621, 8214.195
876.886, 10828.875
878.152, 10634.027
879.417, 13608.814
880.682, 16173.840
881.946, 18048.977
883.211, 25654.301
884.475, 27079.762
885.739, 35005.340
887.003, 40651.035
888.266, 39787.020
889.530, 45263.023
890.793, 38349.148
892.056, 34345.387
893.318, 31431.734
894.581, 22588.965
895.843, 21575.732
897.105, 16592.607
898.367, 13279.684
899.629, 13496.869
900.890, 9144.174
902.152, 9681.668
903.413, 8089.270
904.673, 5887.027
905.934, 7154.895
907.194, 4892.871
908.454, 5050.969
909.714, 4859.180
910.974, 3357.549
912.234, 4726.023
913.493, 3234.609
914.752, 3213.400
916.011, 3412.303
917.270, 2121.354
918.528, 3120.516
919.786, 2409.787
921.044, 1839.174
922.302, 3058.668
923.560, 1408.314
924.817, 2528.088
926.074, 2097.967
927.331, 1447.988
928.588, 2628.123
929.844, 1278.395
931.101, 1708.777
932.357, 2189.264
933.613, 579.861
934.868, 2260.574
936.124, 1101.422
937.379, 1162.375
938.634, 2083.438
939.889, 644.602
941.144, 1615.875
942.398, 1267.309
943.652, 878.850
944.906, 2260.506
946.160, 982.266
947.414, 2104.133
948.667, 1836.143
949.920, 1198.258
951.173, 2470.477
952.426, 1022.799
953.678, 1385.223
954.931, 1847.801
956.183, 410.477
957.435, 1809.244
958.686, 782.188
959.938, 645.230
961.189, 1501.684
962.440, 324.947
963.691, 997.240
964.941, 988.859
966.192, 262.414
967.442, 1267.084
968.692, 290.865
969.942, 734.740
971.191, 1208.709
972.441, 97.219
973.690, 1176.932
974.939, 481.180
976.187, 425.516
977.436, 1249.945
978.684, 85.514
979.932, 1059.105
981.180, 463.822
982.428, 168.645
983.675, 1051.240
984.922, 123.766
986.169, 651.303
987.416, 796.602
988.663, 248.111
989.909, 897.199
991.155, 7.404
992.401, 8.146
993.647, 703.777
994.893, 410.492
996.138, 695.211
997.383, 302.377
998.628, 108.270
999.873, 1304.242
1001.117, 80.295
1002.362, 616.445
1003.606, 795.391
1004.850, 38.281
1006.093, 1128.131
1007.337, 359.600
1008.580, 456.174
1009.823, 1102.822
1011.066, 60.416
1012.308, 1016.459
1013.551, 787.197
1014.793, 94.213
1016.035, 1481.311
1017.277, 309.262
1018.518, 936.547
1019.760, 1184.006
1021.001, 151.428
1022.242, 1518.986
1023.483, 653.391
1024.723, 381.078
1025.964, 1538.885
1027.204, 21.457
1028.444, 1046.477
1029.683, 954.635
1030.923, 52.707
1032.162, 1270.885
1033.401, 186.117
1034.640, 634.412
1035.879, 1142.828
1037.117, 7.941
1038.355, 1320.586
1039.593, 679.195
1040.831, 347.859
1042.069, 1426.590
1043.306, 28.266
1044.544, 1070.564
1045.781, 969.479
1047.017, 14.467
1048.254, 1423.477
1049.490, 433.092
1050.726, 502.215
1051.962, 1391.385
1053.198, 172.473
1054.434, 1151.729
1055.669, 611.031
1056.904, 140.373
1058.139, 1199.756
1059.374, 99.246
1060.608, 818.773
1061.843, 1018.340
1063.077, 318.309
1064.311, 1298.023
1065.544, 617.781
1066.778, 637.576
1068.011, 1647.402
1069.244, 247.273
1070.477, 1117.174
1071.710, 1017.107
1072.942, 380.568
1074.174, 1600.582
1075.406, 420.621
1076.638, 692.506
1077.870, 1202.605
1079.101, 42.734
1080.332, 1082.889
1081.563, 813.066
1082.794, 274.791
1084.025, 1485.090
1085.255, 405.410
1086.485, 905.879
1087.715, 1296.256
1088.945, 196.652
1090.175, 1517.068
1091.404, 857.502
1092.633, 500.762
1093.862, 1441.240
1095.091, 181.732
1096.319, 947.340
1097.548, 917.865
1098.776, 158.846
1100.004, 1269.396
1101.231, 489.961
1102.459, 493.816
1103.686, 1444.398
1104.913, 115.012
1106.140, 979.941
1107.367, 570.494
1108.593, 248.951
1109.819, 772.176
1111.046, 347.377
1112.271, 146.486
1113.497, 483.729
1114.722, 376.059
1115.948, 837.842
1117.173, 327.871
1118.398, 157.900
1119.622, 1321.008
1120.847, 99.494
1122.071, 951.662
1123.295, 991.676
1124.519, 81.682
1125.742, 1087.885
1126.966, 276.553
1128.189, 56.535
1129.412, 1053.273
1130.635, 116.764
1131.857, 633.285
1133.080, 730.822
1134.302, 50.682
1135.524, 1032.348
1136.746, 375.809
1137.967, 225.621
1139.188, 989.389
1140.410, 189.152
1141.631, 702.805
1142.851, 821.154
1144.072, 10.875
1145.292, 876.574
1146.512, 166.236
1147.732, 365.877
1148.952, 1060.352
1150.172, 10.053
1151.391, 800.000
1152.610, 772.145
1153.829, 48.365
1155.048, 1303.756
1156.266, 123.359
1157.484, 442.713
1158.702, 1061.803
1159.920, 18.908
1161.138, 830.660
1162.356, 722.691
1163.573, 51.846
1164.790, 994.014
1166.007, 83.482
1167.224, 362.514
1168.440, 987.270
1169.656, 53.777
1170.872, 845.072
1172.088, 576.385
1173.304, 45.152
1174.519, 1264.961
1175.735, 106.348
1176.950, 584.963
1178.165, 1224.789
1179.379, 36.688
1180.594, 911.727
1181.808, 614.520
1183.022, 102.836
1184.236, 1241.277
1185.449, 165.650
1186.663, 363.807
1187.876, 535.244
1189.089, 325.344
1190.302, 751.775
1191.515, 237.443
1192.727, 154.887
1193.939, 1322.590
1195.151, 145.158
1196.363, 462.514
1197.575, 949.818
1198.786, 107.666
1199.997, 1164.834
1201.208, 522.979
1202.419, 410.023
1203.630, 1457.010
1204.840, 310.053
1206.051, 716.918
1207.261, 1183.723
1208.470, 32.006
1209.680, 1114.578
1210.889, 773.684
1212.099, 320.625
1213.308, 1397.020
1214.516, 436.236
1215.725, 552.498
1216.933, 1288.695
1218.142, 120.311
1219.350, 1166.340
1220.557, 882.324
1221.765, 190.223
1222.972, 1506.055
1224.180, 392.559
1225.387, 498.258
1226.593, 1453.887
1227.800, 238.076
1229.006, 1373.547
1230.213, 948.941
1231.419, 388.646
1232.624, 1393.941
1233.830, 589.189
1235.035, 444.697
1236.241, 1359.807
1237.446, 198.467
1238.650, 853.457
1239.855, 918.379
1241.059, 124.623
1242.264, 1269.346
1243.468, 384.012
1244.671, 560.137
1245.875, 1444.672
1247.078, 199.150
1248.282, 1123.764
1249.485, 1268.090
1250.687, 52.768
1251.890, 1451.352
1253.092, 625.381
1254.295, 376.670
1255.497, 1350.516
1256.699, 375.371
1257.900, 891.383
1259.102, 944.941
1260.303, 137.951
1261.504, 1171.340
1262.705, 654.645
1263.905, 178.264
1265.106, 1251.393
1266.306, 234.467
1267.506, 747.506
1268.706, 1100.363
1269.905, 73.135
1271.105, 1046.371
1272.304, 958.895
1273.503, 61.264
1274.702, 1313.539
1275.900, 498.045
1277.099, 602.012
1278.297, 1303.912
1279.495, 34.410
1280.693, 977.742
1281.891, 809.334
1283.088, 69.201
1284.285, 1212.512
1285.482, 163.740
1286.679, 304.875
1287.876, 1295.979
1289.072, 85.629
1290.268, 767.068
1291.464, 907.680
1292.660, 128.197
1293.856, 1149.668
1295.051, 467.264
1296.247, 207.457
1297.442, 1268.150
1298.637, 233.174
1299.831, 543.088
1301.026, 1072.762
1302.220, 17.646
1303.414, 932.018
1304.608, 517.566
1305.802, 226.789
1306.995, 1316.291
1308.188, 214.566
1309.381, 513.471
1310.574, 1102.256
1311.767, 99.025
1312.960, 959.525
1314.152, 711.197
1315.344, 50.445
1316.536, 1077.760
1317.728, 344.080
1318.919, 232.086
1320.110, 1260.076
1321.301, 32.123
1322.492, 735.527
1323.683, 1016.443
1324.874, 86.096
1326.064, 981.186
1327.254, 527.611
1328.444, 64.701
1329.634, 1061.670
1330.823, 188.543
1332.013, 355.301
1333.202, 1296.285
1334.391, 2.850
1335.580, 729.281
1336.768, 940.904
1337.956, 67.168
1339.145, 1152.787
1340.333, 578.857
1341.520, 434.846
1342.708, 1348.879
1343.895, 354.709
1345.083, 920.455
1346.270, 1156.129
1347.456, 138.279
1348.643, 877.166
1349.829, 672.541
1351.016, 162.152
1352.202, 1272.727
1353.387, 187.812
1354.573, 452.826
1355.759, 1117.738
1356.944, 162.594
1358.129, 817.385
1359.314, 1162.129
1360.498, 36.828
1361.683, 1427.988
1362.867, 767.297
1364.051, 231.879
1365.235, 1364.635
1366.419, 390.176
1367.602, 614.758
1368.785, 988.691
1369.968, 187.781
1371.151, 763.791
1372.334, 1056.496
1373.517, 75.887
1374.699, 1355.256
1375.881, 654.514
1377.063, 490.729
1378.245, 1564.375
1379.426, 112.705
1380.608, 931.367
1381.789, 1216.393
1382.970, 279.227
1384.150, 1227.412
1385.331, 984.848
1386.511, 272.457
1387.691, 1616.428
1388.871, 764.688
1390.051, 509.312
1391.231, 1684.838
1392.410, 345.477
1393.589, 813.168
1394.768, 1482.705
1395.947, 409.979
1397.126, 1342.996
1398.304, 970.107
1399.483, 409.676
1400.661, 1549.449
1401.838, 398.395
1403.016, 724.768
1404.194, 1344.754
1405.371, 426.059
1406.548, 1038.486
1407.725, 1444.082
1408.901, 485.299
1410.078, 1276.516
1411.254, 1107.725
1412.430, 372.473
1413.606, 1485.387
1414.782, 512.432
1415.958, 684.963
1417.133, 1525.514
1418.308, 133.201
1419.483, 1135.709
1420.658, 1289.000
1421.832, 313.234
1423.007, 1339.426
1424.181, 850.521
1425.355, 324.049
1426.529, 1679.234
1427.702, 581.596
1428.876, 693.158
1430.049, 1496.350
1431.222, 231.752
1432.395, 893.795
1433.567, 1141.477
1434.740, 132.688
1435.912, 1409.395
1437.084, 951.023
1438.256, 192.572
1439.428, 1640.201
1440.599, 540.008
1441.770, 514.312
1442.942, 1454.744
1444.112, 226.004
1445.283, 995.035
1446.454, 1116.895
1447.624, 175.930
1448.794, 1341.773
1449.964, 1036.992
1451.134, 235.250
1452.303, 1472.693
1453.473, 608.297
1454.642, 534.242
1455.811, 1341.523
1456.980, 267.529
1458.148, 823.270
1459.317, 1139.086
1460.485, 155.646
1461.653, 1271.891
1462.821, 976.568
1463.989, 113.109
1465.156, 1469.561
1466.323, 730.566
1467.490, 405.754
1468.657, 1642.533
1469.824, 387.979
1470.991, 574.408
1472.157, 1458.705
1473.323, 16.131
1474.489, 1239.545
1475.655, 1014.604
1476.820, 28.318
1477.986, 1479.770
1479.151, 697.039
1480.316, 343.795
1481.481, 1322.271
1482.645, 390.473
1483.810, 539.182
1484.974, 1438.045
1486.138, 217.152
1487.302, 1035.141
1488.465, 1122.682
1489.629, 292.613
1490.792, 1363.090
1491.955, 864.021
1493.118, 210.629
1494.281, 1492.633
1495.443, 364.539
1496.606, 347.066
1497.768, 1260.207
1498.930, 313.992
1500.091, 818.561
1501.253, 1124.254
1502.414, 49.098
1503.575, 1269.240
1504.736, 980.723
1505.897, 64.609
1507.058, 1581.703
1508.218, 452.631
1509.379, 329.275
1510.539, 1018.541
1511.698, 0.000
##END=



