##NAMES=Adamite
##RRUFFID=R040130
##IDEAL CHEMISTRY=Zn^2+^_2_As^5+^O_4_(OH)
##LOCALITY=Mina Ojuela, Mapimi, Durango, Mexico
##OWNER=RRUFF
##SOURCE=Bob Downs
##DESCRIPTION=Pale yellow spherical aggregate of bladed crystals
##STATUS=The identification of this mineral has been confirmed by X-ray diffraction and chemical analysis
##URL=rruff.info/R040130
##MEASURED CHEMISTRY=Zn_1.97_(As_1.01_O_4_)(OH)
##PIN_ID=S00233
##ORIENTATION=Laser parallel to -a* (-1 0 0). Fiducial mark perpendicular to laser is parallel to b [0 1 0]
110.082, 0.000
111.473, 4.680
112.864, 1.422
114.254, 420.445
115.644, 342.861
117.034, 424.906
118.424, 401.590
119.813, 913.008
121.203, 821.801
122.592, 626.939
123.981, 1240.713
125.369, 1063.549
126.758, 1475.086
128.146, 1199.021
129.534, 1523.020
130.922, 1659.740
132.309, 1847.877
133.696, 1682.299
135.083, 2114.070
136.470, 1463.035
137.857, 1500.914
139.243, 1037.621
140.630, 1047.348
142.016, 709.264
143.401, 810.240
144.787, 678.004
146.172, 623.344
147.557, 500.088
148.942, 403.072
150.327, 242.162
151.711, 410.256
153.096, 441.283
154.480, 387.432
155.863, 306.158
157.247, 308.227
158.630, 373.689
160.013, 424.730
161.396, 373.443
162.779, 427.596
164.161, 452.219
165.544, 664.379
166.926, 502.191
168.308, 658.553
169.689, 674.688
171.070, 1009.051
172.452, 1274.953
173.833, 935.408
175.213, 892.379
176.594, 555.354
177.974, 487.297
179.354, 498.324
180.734, 315.711
182.114, 293.506
183.493, 532.443
184.872, 200.531
186.251, 483.811
187.630, 259.311
189.008, 269.068
190.387, 217.105
191.765, 121.459
193.143, 394.217
194.520, 239.588
195.898, 240.621
197.275, 125.723
198.652, 453.113
200.029, 504.309
201.405, 595.832
202.782, 468.512
204.158, 744.371
205.534, 970.348
206.909, 483.176
208.285, 990.508
209.660, 1146.947
211.035, 939.078
212.410, 730.832
213.784, 654.432
215.159, 729.883
216.533, 642.178
217.907, 373.322
219.281, 448.096
220.654, 243.395
222.027, 589.467
223.400, 831.521
224.773, 962.518
226.146, 1258.910
227.518, 1475.852
228.891, 1620.824
230.263, 1998.307
231.634, 2151.898
233.006, 2001.781
234.377, 1697.283
235.748, 1477.545
237.119, 1142.006
238.490, 1131.045
239.860, 1016.926
241.231, 1156.438
242.601, 1264.857
243.970, 1313.189
245.340, 1570.484
246.709, 1520.635
248.079, 1958.486
249.448, 1812.986
250.816, 1918.988
252.185, 1931.982
253.553, 1917.820
254.921, 1693.023
256.289, 1666.100
257.657, 1621.047
259.024, 1266.873
260.391, 1186.570
261.758, 991.150
263.125, 1075.609
264.492, 936.955
265.858, 964.184
267.224, 1042.297
268.590, 666.301
269.956, 1190.197
271.321, 1147.988
272.687, 1284.676
274.052, 1104.262
275.416, 1085.443
276.781, 1199.014
278.146, 892.578
279.510, 719.439
280.874, 618.510
282.237, 726.734
283.601, 343.070
284.964, 193.479
286.327, 466.922
287.690, 235.398
289.053, 120.873
290.416, 474.320
291.778, 322.754
293.140, 205.156
294.502, 138.492
295.863, 217.729
297.225, 154.883
298.586, 25.043
299.947, 106.914
301.308, 91.771
302.668, 34.475
304.029, 191.139
305.389, 181.654
306.749, 187.064
308.108, 339.359
309.468, 342.551
310.827, 372.639
312.186, 635.623
313.545, 856.504
314.903, 876.283
316.262, 927.959
317.620, 1222.533
318.978, 1178.002
320.336, 1317.365
321.693, 1183.617
323.051, 1195.748
324.408, 853.758
325.765, 1084.648
327.121, 392.422
328.478, 618.076
329.834, 346.617
331.190, 275.037
332.546, 80.678
333.902, 131.406
335.257, 96.678
336.612, 73.988
337.967, 152.518
339.322, 4.289
340.677, 27.746
342.031, 97.400
343.385, 150.760
344.739, 199.342
346.093, 218.156
347.446, 231.268
348.799, 180.488
350.153, 209.375
351.505, 191.590
352.858, 149.627
354.210, 170.750
355.563, 103.072
356.915, 101.572
358.267, 17.752
359.618, 128.064
360.969, 140.930
362.321, 80.230
363.672, 100.375
365.022, 186.848
366.373, 54.033
367.723, 480.031
369.073, 577.795
370.423, 610.320
371.773, 618.703
373.122, 692.969
374.471, 898.145
375.821, 602.246
377.169, 1004.299
378.518, 310.279
379.866, 488.199
381.215, 483.051
382.563, 196.834
383.910, 123.533
385.258, 105.029
386.605, 369.295
387.952, 35.699
389.299, 268.064
390.646, 45.543
391.992, 208.650
393.339, 139.438
394.685, 282.896
396.031, 401.082
397.376, 304.037
398.722, 511.814
400.067, 326.449
401.412, 239.039
402.757, 282.117
404.101, 704.090
405.446, 353.580
406.790, 594.045
408.134, 902.486
409.478, 822.906
410.821, 1240.275
412.165, 791.605
413.508, 1230.895
414.851, 1014.129
416.193, 867.336
417.536, 1227.525
418.878, 958.701
420.220, 1298.863
421.562, 506.014
422.904, 1042.152
424.245, 1144.281
425.586, 752.398
426.927, 1064.510
428.268, 565.611
429.609, 643.709
430.949, 743.803
432.289, 1118.889
433.629, 609.973
434.969, 980.055
436.309, 543.135
437.648, 804.184
438.987, 647.199
440.326, 626.182
441.665, 621.129
443.003, 822.041
444.342, 782.916
445.680, 752.494
447.018, 1089.123
448.355, 703.760
449.693, 820.268
451.030, 807.779
452.367, 1152.346
453.704, 621.400
455.041, 1057.082
456.377, 860.592
457.713, 878.514
459.049, 1000.768
460.385, 1066.229
461.721, 1412.918
463.056, 1128.057
464.391, 1180.773
465.726, 1548.867
467.061, 1358.699
468.395, 1525.652
469.730, 1739.770
471.064, 1408.904
472.398, 2019.393
473.731, 1635.656
475.065, 1973.906
476.398, 1995.141
477.731, 2145.359
479.064, 2028.572
480.397, 1985.770
481.729, 1916.957
483.062, 1769.135
484.394, 1847.307
485.725, 1560.471
487.057, 1786.629
488.389, 1654.262
489.720, 1558.416
491.051, 1646.574
492.382, 1688.715
493.712, 1611.176
495.043, 1665.525
496.373, 1611.010
497.703, 1605.051
499.032, 1554.119
500.362, 1501.969
501.691, 1467.883
503.020, 1369.232
504.349, 1299.957
505.678, 1194.369
507.007, 1198.676
508.335, 1038.238
509.663, 1031.082
510.991, 1172.227
512.319, 991.570
513.646, 1254.658
514.973, 985.535
516.300, 1420.783
517.627, 1259.252
518.954, 816.297
520.280, 1281.373
521.607, 1018.752
522.933, 1194.117
524.259, 1024.430
525.584, 1032.389
526.910, 1350.166
528.235, 1330.021
529.560, 1368.928
530.885, 1325.977
532.209, 1238.990
533.534, 1663.064
534.858, 1633.197
536.182, 1658.188
537.506, 1733.439
538.829, 1697.689
540.152, 1527.066
541.476, 1620.346
542.799, 1280.355
544.121, 1414.549
545.444, 1455.287
546.766, 954.600
548.088, 1261.953
549.410, 1135.740
550.732, 1259.881
552.053, 1159.561
553.375, 1059.469
554.696, 1035.633
556.017, 1232.887
557.337, 1078.535
558.658, 1114.963
559.978, 759.969
561.298, 1040.926
562.618, 997.621
563.938, 954.412
565.257, 1144.291
566.576, 740.268
567.895, 1101.336
569.214, 1181.771
570.533, 1020.031
571.851, 778.279
573.170, 1080.738
574.488, 879.293
575.805, 834.971
577.123, 859.725
578.440, 848.584
579.758, 883.393
581.075, 756.609
582.391, 903.779
583.708, 923.055
585.024, 778.436
586.341, 780.926
587.657, 1120.521
588.972, 1065.227
590.288, 1072.041
591.603, 769.219
592.918, 718.258
594.233, 989.408
595.548, 1003.670
596.863, 809.047
598.177, 914.541
599.491, 957.150
600.805, 787.877
602.119, 688.723
603.432, 805.838
604.746, 987.928
606.059, 557.158
607.372, 664.512
608.685, 928.000
609.997, 650.645
611.309, 675.414
612.621, 637.316
613.933, 820.363
615.245, 838.627
616.557, 708.035
617.868, 817.596
619.179, 636.348
620.490, 366.258
621.801, 857.336
623.111, 492.607
624.421, 849.031
625.731, 262.611
627.041, 825.352
628.351, 139.230
629.660, 497.256
630.970, 1020.426
632.279, 502.732
633.588, 540.182
634.896, 456.773
636.205, 809.508
637.513, 222.387
638.821, 649.410
640.129, 684.578
641.437, 607.895
642.744, 359.355
644.051, 341.967
645.358, 392.729
646.665, 530.643
647.972, 390.707
649.278, 421.928
650.584, 119.314
651.890, 563.926
653.196, 330.719
654.502, 480.744
655.807, 234.998
657.113, 395.500
658.418, 665.213
659.722, 337.129
661.027, 82.285
662.331, 137.688
663.636, 468.352
664.940, 26.293
666.244, 322.504
667.547, 3.973
668.851, 324.711
670.154, 290.715
671.457, 8.973
672.760, 500.488
674.062, 199.250
675.365, 221.250
676.667, 350.461
677.969, 337.922
679.271, 99.590
680.572, 29.496
681.874, 237.594
683.175, 405.898
684.476, 218.406
685.777, 203.086
687.077, 4.062
688.378, 308.961
689.678, 156.164
690.978, 391.543
692.278, 202.906
693.577, 910.781
694.877, 101.328
696.176, 445.723
697.475, 51.051
698.774, 167.352
700.072, 75.938
701.371, 126.719
702.669, 292.301
703.967, 221.797
705.265, 478.121
706.562, 166.629
707.860, 154.656
709.157, 247.215
710.454, 102.719
711.751, 294.512
713.047, 188.078
714.344, 221.484
715.640, 260.773
716.936, 189.898
718.232, 175.125
719.527, 82.328
720.823, 127.719
722.118, 66.297
723.413, 24.062
724.708, 19.984
726.002, 333.156
727.297, 304.520
728.591, 296.922
729.885, 322.555
731.179, 3.375
732.472, 87.383
733.766, 225.578
735.059, 158.961
736.352, 643.535
737.645, 600.297
738.937, 790.250
740.230, 348.391
741.522, 458.719
742.814, 447.238
744.106, 514.945
745.397, 550.844
746.689, 19.070
747.980, 401.207
749.271, 258.668
750.562, 553.324
751.853, 118.168
753.143, 348.203
754.433, 207.426
755.723, 44.840
757.013, 476.441
758.303, 11.766
759.592, 339.215
760.881, 544.387
762.170, 413.746
763.459, 195.297
764.748, 64.035
766.036, 534.961
767.325, 163.078
768.613, 266.387
769.901, 471.883
771.188, 173.566
772.476, 695.441
773.763, 70.496
775.050, 656.742
776.337, 729.176
777.624, 608.797
778.910, 720.605
780.196, 786.598
781.482, 765.777
782.768, 848.141
784.054, 1349.691
785.339, 1466.426
786.625, 1177.344
787.910, 1970.457
789.195, 1934.750
790.479, 2081.227
791.764, 2516.941
793.048, 2878.840
794.332, 3487.926
795.616, 4177.211
796.900, 5049.711
798.183, 5627.398
799.467, 6659.270
800.750, 7190.363
802.033, 7351.641
803.316, 7978.148
804.598, 7111.852
805.880, 7621.797
807.163, 7481.926
808.445, 7436.250
809.726, 8080.766
811.008, 9452.473
812.289, 10575.387
813.570, 13098.473
814.851, 15510.766
816.132, 17861.238
817.413, 19841.895
818.693, 21034.727
819.973, 19808.727
821.253, 17771.895
822.533, 15327.223
823.813, 12737.742
825.092, 10454.430
826.371, 8955.320
827.650, 8128.383
828.929, 7749.664
830.208, 7299.141
831.486, 6708.789
832.764, 7028.609
834.042, 7532.719
835.320, 8214.066
836.598, 9771.680
837.875, 10755.406
839.152, 12990.293
840.429, 16049.371
841.706, 18204.629
842.983, 21054.180
844.259, 22775.914
845.536, 21721.852
846.812, 19378.172
848.088, 15625.211
849.363, 12731.695
850.639, 10402.336
851.914, 8101.352
853.189, 6629.387
854.464, 5695.570
855.739, 5286.945
857.013, 3924.875
858.288, 3536.574
859.562, 3269.473
860.836, 2979.555
862.110, 2366.449
863.383, 2700.875
864.656, 2098.484
865.930, 2284.285
867.203, 2275.922
868.475, 2290.082
869.748, 1840.898
871.020, 2191.992
872.292, 2090.590
873.564, 2113.344
874.836, 2267.281
876.108, 2473.410
877.379, 3103.184
878.650, 3185.285
879.922, 3650.859
881.192, 4167.684
882.463, 5166.543
883.733, 6247.570
885.004, 7650.703
886.274, 9480.988
887.544, 11078.430
888.813, 11297.016
890.083, 11616.734
891.352, 10903.586
892.621, 8912.574
893.890, 7495.688
895.159, 5792.918
896.427, 4864.277
897.695, 4265.770
898.964, 3262.383
900.232, 2898.871
901.499, 2471.734
902.767, 2276.715
904.034, 1918.840
905.301, 1747.074
906.568, 1738.445
907.835, 1625.934
909.102, 1193.531
910.368, 1158.238
911.634, 1264.898
912.900, 1052.824
914.166, 1256.852
915.432, 912.980
916.697, 693.219
917.962, 1053.555
919.227, 790.992
920.492, 1016.543
921.757, 447.191
923.021, 847.938
924.285, 582.789
925.550, 482.734
926.813, 595.781
928.077, 526.000
929.341, 467.223
930.604, 820.539
931.867, 295.934
933.130, 594.414
934.393, 839.973
935.655, 296.613
936.918, 762.340
938.180, 238.141
939.442, 217.828
940.703, 449.789
941.965, 511.820
943.226, 570.484
944.488, 408.281
945.749, 572.535
947.009, 504.316
948.270, 305.559
949.530, 475.012
950.791, 385.031
952.051, 504.922
953.311, 526.250
954.570, 329.742
955.830, 535.289
957.089, 461.641
958.348, 338.309
959.607, 416.574
960.866, 298.840
962.124, 165.828
963.383, 229.984
964.641, 22.262
965.899, 387.727
967.156, 339.719
968.414, 184.828
969.671, 358.148
970.928, 160.699
972.185, 348.094
973.442, 342.238
974.699, 292.133
975.955, 250.730
977.211, 80.426
978.468, 353.707
979.723, 355.184
980.979, 182.617
982.234, 605.012
983.490, 145.000
984.745, 528.980
986.000, 308.328
987.254, 111.809
988.509, 366.062
989.763, 152.742
991.017, 133.137
992.271, 220.988
993.525, 442.938
994.779, 172.316
996.032, 271.980
997.285, 396.984
998.538, 166.121
999.791, 470.090
1001.044, 160.914
1002.296, 288.742
1003.548, 233.172
1004.800, 262.832
1006.052, 429.723
1007.304, 169.059
1008.555, 516.406
1009.807, 418.727
1011.058, 233.348
1012.309, 284.777
1013.559, 348.750
1014.810, 220.484
1016.060, 471.586
1017.310, 419.375
1018.560, 167.230
1019.810, 274.457
1021.060, 488.828
1022.309, 217.461
1023.558, 445.340
1024.807, 176.383
1026.056, 431.715
1027.305, 5.750
1028.553, 656.098
1029.801, 632.039
1031.049, 254.820
1032.297, 285.078
1033.545, 464.902
1034.793, 261.395
1036.040, 269.605
1037.287, 277.816
1038.534, 408.445
1039.781, 684.148
1041.027, 263.680
1042.274, 446.391
1043.520, 691.613
1044.766, 359.023
1046.012, 335.539
1047.257, 156.496
1048.503, 626.797
1049.748, 165.648
1050.993, 617.137
1052.238, 449.137
1053.483, 297.043
1054.727, 418.402
1055.971, 687.801
1057.216, 364.977
1058.459, 257.031
1059.703, 480.805
1060.947, 307.309
1062.190, 414.602
1063.433, 284.102
1064.676, 180.590
1065.919, 187.086
1067.162, 480.277
1068.404, 181.285
1069.646, 295.555
1070.888, 607.375
1072.130, 127.008
1073.372, 358.395
1074.613, 559.480
1075.855, 284.383
1077.096, 68.652
1078.337, 681.191
1079.578, 242.078
1080.818, 321.809
1082.059, 137.281
1083.299, 386.824
1084.539, 199.500
1085.779, 190.418
1087.018, 234.156
1088.258, 25.000
1089.497, 327.332
1090.736, 286.289
1091.975, 123.578
1093.213, 44.711
1094.452, 162.613
1095.690, 4.582
1096.928, 81.477
1098.166, 146.062
1099.404, 98.570
1100.642, 79.473
1101.879, 126.012
1103.116, 105.293
1104.353, 19.219
1105.590, 150.484
1106.827, 109.770
1108.063, 18.984
1109.299, 101.098
1110.536, 14.051
1111.771, 15.195
1113.007, 169.645
1114.243, 0.406
1115.478, 81.207
1116.713, 115.594
1117.948, 240.520
1119.183, 203.035
1120.418, 255.102
1121.652, 142.391
1122.886, 211.711
1124.120, 182.422
1125.354, 9.359
1126.588, 126.730
1127.821, 61.312
1129.055, 6.035
1130.288, 141.141
1131.521, 2.387
1132.753, 253.363
1133.986, 129.340
1135.218, 338.871
1136.450, 103.988
1137.682, 260.582
1138.914, 3.527
1140.146, 256.676
1141.377, 49.082
1142.609, 9.906
1143.840, 9.059
1145.071, 68.336
1146.301, 139.254
1147.532, 62.059
1148.762, 75.660
1149.992, 103.781
1151.222, 64.105
1152.452, 338.832
1153.682, 5.156
1154.911, 229.027
1156.140, 142.730
1157.369, 56.000
1158.598, 22.508
1159.827, 189.945
1161.055, 0.566
1162.284, 24.367
1163.512, 31.758
1164.740, 292.133
1165.967, 121.734
1167.195, 343.230
1168.422, 439.930
1169.650, 202.020
1170.877, 149.469
1172.103, 5.832
1173.330, 172.973
1174.557, 265.340
1175.783, 307.922
1177.009, 72.133
1178.235, 251.520
1179.461, 227.258
1180.686, 56.535
1181.912, 431.730
1183.137, 463.809
1184.362, 105.266
1185.587, 163.871
1186.811, 319.191
1188.036, 266.539
1189.260, 315.473
1190.484, 446.211
1191.708, 551.781
1192.932, 325.188
1194.155, 234.414
1195.378, 420.457
1196.602, 470.332
1197.825, 204.020
1199.047, 581.508
1200.270, 70.816
1201.492, 706.926
1202.715, 116.871
1203.937, 403.625
1205.159, 409.203
1206.380, 551.609
1207.602, 599.285
1208.823, 376.895
1210.044, 567.770
1211.265, 556.477
1212.486, 429.004
1213.707, 589.348
1214.927, 469.504
1216.147, 279.484
1217.367, 475.273
1218.587, 487.875
1219.807, 320.293
1221.027, 535.520
1222.246, 345.574
1223.465, 493.445
1224.684, 808.043
1225.903, 517.543
1227.121, 717.746
1228.340, 757.012
1229.558, 716.984
1230.776, 662.777
1231.994, 580.406
1233.212, 600.855
1234.429, 789.137
1235.646, 488.438
1236.864, 707.371
1238.081, 487.125
1239.297, 782.031
1240.514, 604.969
1241.730, 564.203
1242.947, 543.812
1244.163, 572.879
1245.378, 552.617
1246.594, 655.684
1247.810, 385.773
1249.025, 631.863
1250.240, 450.629
1251.455, 453.766
1252.670, 838.004
1253.885, 536.812
1255.099, 516.922
1256.313, 392.926
1257.527, 337.512
1258.741, 563.031
1259.955, 347.719
1261.168, 621.121
1262.382, 680.891
1263.595, 513.438
1264.808, 677.668
1266.021, 608.555
1267.233, 515.496
1268.446, 760.578
1269.658, 313.797
1270.870, 542.211
1272.082, 623.414
1273.294, 330.926
1274.505, 518.125
1275.716, 517.262
1276.928, 440.328
1278.139, 627.688
1279.349, 567.926
1280.560, 438.688
1281.770, 631.824
1282.981, 308.828
1284.191, 586.914
1285.401, 561.180
1286.610, 305.875
1287.820, 573.367
1289.029, 296.320
1290.239, 587.879
1291.448, 407.988
1292.656, 444.121
1293.865, 378.809
1295.073, 335.785
1296.282, 231.652
1297.490, 393.820
1298.698, 525.652
1299.906, 415.156
1301.113, 487.117
1302.320, 301.008
1303.528, 406.828
1304.735, 83.254
1305.942, 531.789
1307.148, 395.711
1308.355, 313.797
1309.561, 519.441
1310.767, 176.340
1311.973, 323.125
1313.179, 49.566
1314.384, 502.770
1315.590, 315.707
1316.795, 283.387
1318.000, 269.906
1319.205, 404.297
1320.410, 411.285
1321.614, 416.043
1322.819, 519.641
1324.023, 323.098
1325.227, 482.535
1326.431, 344.980
1327.634, 115.613
1328.838, 193.055
1330.041, 346.988
1331.244, 713.828
1332.447, 304.934
1333.650, 465.562
1334.852, 490.809
1336.055, 359.230
1337.257, 567.281
1338.459, 453.969
1339.661, 463.883
1340.862, 577.980
1342.064, 477.008
1343.265, 616.473
1344.466, 554.355
1345.667, 598.246
1346.868, 858.590
1348.068, 498.105
1349.269, 514.129
1350.469, 694.598
1351.669, 496.328
1352.869, 678.230
1354.069, 610.883
1355.268, 427.035
1356.468, 799.559
1357.667, 745.074
1358.866, 691.945
1360.065, 759.148
1361.263, 478.121
1362.462, 786.598
1363.660, 780.379
1364.858, 452.211
1366.056, 677.363
1367.254, 697.223
1368.451, 699.277
1369.649, 525.012
1370.846, 765.188
1372.043, 712.562
1373.240, 640.199
1374.436, 820.066
1375.633, 589.883
1376.829, 600.277
1378.025, 681.031
1379.221, 494.938
1380.417, 619.945
1381.613, 696.254
1382.808, 861.293
1384.003, 738.289
1385.199, 660.883
1386.393, 686.246
1387.588, 697.152
1388.783, 572.785
1389.977, 735.363
1391.171, 393.145
1392.365, 366.773
1393.559, 584.633
1394.753, 359.199
1395.946, 592.012
1397.140, 463.984
1398.333, 414.730
1399.526, 441.207
1400.719, 399.199
1401.911, 409.082
1403.104, 489.891
1404.296, 248.723
1405.488, 537.574
1406.680, 225.348
1407.872, 509.047
1409.063, 686.727
1410.255, 90.410
1411.446, 473.133
1412.637, 283.945
1413.828, 482.855
1415.018, 569.898
1416.209, 329.992
1417.399, 113.285
1418.589, 552.758
1419.779, 403.395
1420.969, 461.168
1422.159, 367.121
1423.348, 414.293
1424.537, 353.645
1425.726, 438.281
1426.915, 293.121
1428.104, 308.305
1429.293, 212.719
1430.481, 127.316
1431.669, 357.250
1432.857, 197.422
1434.045, 184.828
1435.233, 339.520
1436.420, 639.520
1437.608, 240.887
1438.795, 69.656
1439.982, 301.875
1441.169, 179.582
1442.355, 138.812
1443.542, 348.629
1444.728, 47.066
1445.914, 226.203
1447.100, 206.090
1448.286, 257.809
1449.472, 55.469
1450.657, 467.211
1451.842, 237.191
1453.027, 183.605
1454.212, 487.684
1455.397, 6.723
1456.581, 328.121
1457.766, 440.434
1458.950, 184.406
1460.134, 453.375
1461.318, 112.484
1462.501, 2.824
1463.685, 0.000
##END=



