##NAMES=Aegirine
##RRUFFID=R050074
##IDEAL CHEMISTRY=NaFe^3+^Si_2_O_6_
##LOCALITY=Mt. Malosa, Zomba, Chilwa, Alkaline Area, Malawi
##OWNER=RRUFF
##SOURCE=Rock Currier
##DESCRIPTION=Black prismatic single crystal
##STATUS=The identification of this mineral has been confirmed by X-ray diffraction and chemical analysis
##URL=rruff.info/R050074
##MEASURED CHEMISTRY=(Na_0.98_Ca_0.02_)_Σ=1_(Fe^3+^_0.96_Ti_0.01_Mn_0.03_)_Σ=1_Si_2.00_O_6_
##PIN_ID=L00435
##ORIENTATION=Laser parallel to a* (1 0 0). Fiducial mark perpendicular to laser is parallel to -b [0 -1 0]
151.324, 0.000
152.710, 55.942
154.096, 4.214
155.481, 17.746
156.866, 43.490
158.251, 36.802
159.636, 74.959
161.020, 117.944
162.405, 106.922
163.789, 119.655
165.172, 126.950
166.556, 79.405
167.939, 9.329
169.322, 3.748
170.705, 81.179
172.088, 88.967
173.470, 282.564
174.853, 422.037
176.234, 460.923
177.616, 668.926
178.998, 699.360
180.379, 670.719
181.760, 553.049
183.141, 361.486
184.521, 247.989
185.902, 114.585
187.282, 100.387
188.662, 214.509
190.042, 215.217
191.421, 318.809
192.800, 320.006
194.179, 431.214
195.558, 489.674
196.937, 580.630
198.315, 715.451
199.693, 804.502
201.071, 914.978
202.449, 1085.044
203.826, 1380.231
205.203, 1605.551
206.580, 1875.622
207.957, 2383.354
209.333, 2635.144
210.710, 3125.091
212.086, 3457.340
213.462, 3517.829
214.837, 3500.722
216.213, 3025.077
217.588, 2539.198
218.963, 1952.295
220.337, 1444.415
221.712, 1029.653
223.086, 824.043
224.460, 642.675
225.834, 442.421
227.207, 406.189
228.581, 278.925
229.954, 223.609
231.327, 200.229
232.699, 100.794
234.072, 117.351
235.444, 67.986
236.816, 29.677
238.188, 40.409
239.559, 6.833
240.931, 10.945
242.302, 10.276
243.673, 22.517
245.043, 64.754
246.414, 5.988
247.784, 23.222
249.154, 25.539
250.523, 35.292
251.893, 0.027
253.262, 13.253
254.631, 8.451
256.000, 56.137
257.369, 0.798
258.737, 98.428
260.105, 94.023
261.473, 102.582
262.841, 150.104
264.208, 159.590
265.576, 193.039
266.943, 182.489
268.310, 187.828
269.676, 163.170
271.042, 145.477
272.409, 166.750
273.775, 134.983
275.140, 142.166
276.506, 178.290
277.871, 232.337
279.236, 185.294
280.601, 267.125
281.965, 286.838
283.330, 283.479
284.694, 313.041
286.058, 301.859
287.421, 345.828
288.785, 478.051
290.148, 415.245
291.511, 596.383
292.874, 635.123
294.236, 706.953
295.599, 686.409
296.961, 679.530
298.323, 703.505
299.684, 617.755
301.046, 614.886
302.407, 606.006
303.768, 668.620
305.129, 625.214
306.489, 699.437
307.850, 724.658
309.210, 798.153
310.570, 822.085
311.929, 833.399
313.289, 860.781
314.648, 816.297
316.007, 805.532
317.366, 755.716
318.724, 753.459
320.083, 690.990
321.441, 667.165
322.799, 727.348
324.156, 747.118
325.514, 863.766
326.871, 927.342
328.228, 987.858
329.585, 1198.309
330.941, 1406.561
332.298, 1660.319
333.654, 1873.316
335.010, 2070.308
336.365, 2304.256
337.721, 2449.305
339.076, 2555.282
340.431, 2759.182
341.786, 2800.003
343.140, 2945.747
344.495, 3109.420
345.849, 3146.025
347.203, 3322.566
348.556, 3227.046
349.910, 3001.184
351.263, 2604.193
352.616, 2318.514
353.969, 2141.785
355.321, 1832.999
356.674, 1717.141
358.026, 1700.194
359.378, 1739.135
360.729, 1741.956
362.081, 1980.588
363.432, 2195.091
364.783, 2114.525
366.134, 2142.856
367.484, 2234.120
368.835, 2306.323
370.185, 2284.489
371.535, 2208.625
372.884, 2275.735
374.234, 2289.819
375.583, 2395.876
376.932, 2508.904
378.281, 2826.910
379.630, 3210.896
380.978, 3510.868
382.326, 3834.826
383.674, 4193.770
385.022, 4466.698
386.369, 4566.610
387.717, 4490.506
389.064, 4303.385
390.411, 3868.248
391.757, 3565.048
393.104, 3022.601
394.450, 2548.042
395.796, 2130.897
397.141, 1766.878
398.487, 1486.400
399.832, 1221.359
401.177, 1012.489
402.522, 891.045
403.867, 737.526
405.211, 656.857
406.555, 563.417
407.899, 496.320
409.243, 445.908
410.587, 441.409
411.930, 418.193
413.273, 373.770
414.616, 343.094
415.959, 298.190
417.301, 228.517
418.644, 213.689
419.986, 113.661
421.327, 81.203
422.669, 59.690
424.010, 83.229
425.351, 54.051
426.692, 16.110
428.033, 7.847
429.374, 37.263
430.714, 3.617
432.054, 5.630
433.394, 15.975
434.733, 35.259
436.073, 24.708
437.412, 52.157
438.751, 45.491
440.090, 15.633
441.428, 11.998
442.767, 6.898
444.105, 8.052
445.443, 0.083
446.780, 12.864
448.118, 31.972
449.455, 11.105
450.792, 27.258
452.129, 91.264
453.465, 166.388
454.802, 125.491
456.138, 127.540
457.474, 168.714
458.809, 159.781
460.145, 149.096
461.480, 179.528
462.815, 209.139
464.150, 214.555
465.485, 191.677
466.819, 225.871
468.153, 190.854
469.487, 156.506
470.821, 143.949
472.155, 133.818
473.488, 139.921
474.821, 100.085
476.154, 132.340
477.487, 101.226
478.819, 156.156
480.151, 168.148
481.483, 232.080
482.815, 197.862
484.147, 214.522
485.478, 247.367
486.809, 312.987
488.140, 330.464
489.471, 485.972
490.802, 560.287
492.132, 645.586
493.462, 854.881
494.792, 1000.199
496.122, 1151.379
497.451, 1217.548
498.780, 1227.820
500.109, 1066.932
501.438, 1012.025
502.767, 870.099
504.095, 746.147
505.423, 662.173
506.751, 640.174
508.079, 529.150
509.406, 502.102
510.734, 493.031
512.061, 569.937
513.388, 466.818
514.714, 509.676
516.041, 518.510
517.367, 543.320
518.693, 565.106
520.019, 634.236
521.344, 708.913
522.670, 813.331
523.995, 889.030
525.320, 1023.706
526.644, 1083.363
527.969, 1317.998
529.293, 1519.614
530.617, 1758.209
531.941, 2082.783
533.265, 2422.338
534.588, 2994.872
535.911, 3499.386
537.234, 4277.830
538.557, 5101.354
539.880, 5942.859
541.202, 6786.292
542.524, 7512.933
543.846, 7743.555
545.168, 7936.136
546.489, 7477.734
547.811, 7067.116
549.132, 6292.783
550.453, 5795.229
551.773, 5380.842
553.094, 4884.452
554.414, 4690.779
555.734, 4334.286
557.054, 4180.652
558.374, 4021.138
559.693, 3924.404
561.012, 3801.845
562.331, 3732.194
563.650, 3454.520
564.968, 3308.718
566.287, 2990.080
567.605, 2781.533
568.923, 2426.798
570.240, 2299.552
571.558, 2064.906
572.875, 1966.289
574.192, 1803.616
575.509, 1684.792
576.825, 1515.914
578.142, 1422.097
579.458, 1302.638
580.774, 1177.080
582.090, 1063.479
583.405, 1007.045
584.721, 894.257
586.036, 887.140
587.351, 811.846
588.665, 729.248
589.980, 630.804
591.294, 541.097
592.608, 493.322
593.922, 473.044
595.236, 416.021
596.549, 377.734
597.862, 328.924
599.175, 291.446
600.488, 248.189
601.801, 207.243
603.113, 150.215
604.425, 142.539
605.737, 97.039
607.049, 83.734
608.361, 71.528
609.672, 97.027
610.983, 58.297
612.294, 54.779
613.605, 57.473
614.915, 15.469
616.225, 34.145
617.536, 2.015
618.845, 52.500
620.155, 6.697
621.464, 1.472
622.774, 16.179
624.083, 7.136
625.391, 37.730
626.700, 3.815
628.008, 0.292
629.317, 5.732
630.625, 17.132
631.932, 10.745
633.240, 6.963
634.547, 49.385
635.854, 32.357
637.161, 23.255
638.468, 29.998
639.774, 56.400
641.081, 79.022
642.387, 38.569
643.693, 85.216
644.998, 118.497
646.304, 109.425
647.609, 148.594
648.914, 145.592
650.219, 140.661
651.523, 131.535
652.828, 171.589
654.132, 153.544
655.436, 122.900
656.740, 173.853
658.043, 212.042
659.346, 217.081
660.650, 211.821
661.952, 258.025
663.255, 275.727
664.558, 292.411
665.860, 341.076
667.162, 458.722
668.464, 522.350
669.766, 547.960
671.067, 711.551
672.368, 837.125
673.669, 903.188
674.970, 964.218
676.271, 994.737
677.571, 981.047
678.871, 922.723
680.171, 868.190
681.471, 723.639
682.771, 571.071
684.070, 503.486
685.369, 386.883
686.668, 353.263
687.967, 287.626
689.266, 237.972
690.564, 242.302
691.862, 221.614
693.160, 150.910
694.458, 152.189
695.755, 115.451
697.053, 128.697
698.350, 70.927
699.646, 70.137
700.943, 73.331
702.240, 63.506
703.536, 109.663
704.832, 34.804
706.128, 81.926
707.423, 36.031
708.719, 31.118
710.014, 93.186
711.309, 45.238
712.604, 73.272
713.898, 40.290
715.193, 88.290
716.487, 42.274
717.781, 61.240
719.075, 63.190
720.368, 91.124
721.662, 50.043
722.955, 28.945
724.248, 70.829
725.541, 11.698
726.833, 43.546
728.125, 32.377
729.418, 42.192
730.709, 75.990
732.001, 59.773
733.293, 26.542
734.584, 78.295
735.875, 65.035
737.166, 33.764
738.457, 28.481
739.747, 58.184
741.037, 4.123
742.327, 61.555
743.617, 44.225
744.907, 74.895
746.196, 59.559
747.486, 69.216
748.775, 70.870
750.063, 112.527
751.352, 94.185
752.640, 123.849
753.929, 162.519
755.217, 148.188
756.504, 200.853
757.792, 128.515
759.079, 134.173
760.367, 82.825
761.654, 62.288
762.940, 18.691
764.227, 55.041
765.513, 10.494
766.799, 21.777
768.085, 2.037
769.371, 3.704
770.657, 28.637
771.942, 16.528
773.227, 28.718
774.512, 34.074
775.797, 71.654
777.081, 15.093
778.365, 22.271
779.650, 3.444
780.933, 31.656
782.217, 29.462
783.501, 29.091
784.784, 29.178
786.067, 25.533
787.350, 22.520
788.633, 40.556
789.915, 19.813
791.197, 32.162
792.479, 45.623
793.761, 37.074
795.043, 9.422
796.324, 73.688
797.606, 27.194
798.887, 54.517
800.167, 49.746
801.448, 2.052
802.728, 1.800
804.009, 1.365
805.289, 18.554
806.568, 2.796
807.848, 0.933
809.128, 11.091
810.407, 23.386
811.686, 28.557
812.965, 26.643
814.243, 19.048
815.522, 12.162
816.800, 11.619
818.078, 27.395
819.355, 12.168
820.633, 54.938
821.910, 58.704
823.188, 17.467
824.465, 57.226
825.741, 57.983
827.018, 116.737
828.294, 68.489
829.570, 110.238
830.846, 138.984
832.122, 149.729
833.398, 197.472
834.673, 220.212
835.948, 215.951
837.223, 274.688
838.498, 301.424
839.772, 341.159
841.047, 389.893
842.321, 413.625
843.595, 458.357
844.868, 478.088
846.142, 550.818
847.415, 594.548
848.688, 676.278
849.961, 712.956
851.234, 835.686
852.507, 879.188
853.779, 954.403
855.051, 1021.213
856.323, 1097.698
857.595, 1167.383
858.866, 1251.761
860.137, 1337.340
861.409, 1457.735
862.679, 1529.116
863.950, 1607.763
865.221, 1725.218
866.491, 1759.801
867.761, 1812.257
869.031, 1774.923
870.301, 1679.404
871.570, 1621.972
872.839, 1574.556
874.109, 1441.272
875.377, 1322.826
876.646, 1253.300
877.915, 1160.968
879.183, 1174.153
880.451, 1086.729
881.719, 1073.269
882.987, 972.862
884.254, 949.608
885.521, 919.301
886.788, 899.869
888.055, 898.665
889.322, 871.419
890.588, 916.055
891.855, 830.685
893.121, 796.454
894.387, 825.052
895.652, 805.860
896.918, 786.609
898.183, 751.500
899.448, 756.344
900.713, 785.248
901.978, 720.181
903.242, 740.169
904.506, 795.177
905.771, 727.189
907.034, 786.208
908.298, 775.235
909.562, 791.269
910.825, 814.308
912.088, 768.364
913.351, 792.427
914.613, 810.478
915.876, 883.358
917.138, 894.408
918.400, 866.261
919.662, 863.208
920.924, 939.775
922.185, 941.044
923.447, 1049.809
924.708, 981.364
925.969, 1030.199
927.229, 1119.844
928.490, 1131.178
929.750, 1191.095
931.010, 1241.602
932.270, 1327.604
933.530, 1388.593
934.789, 1477.772
936.048, 1551.019
937.308, 1745.320
938.566, 1809.889
939.825, 1972.677
941.084, 2176.385
942.342, 2329.406
943.600, 2698.721
944.858, 2942.235
946.116, 3351.328
947.373, 3895.073
948.630, 4127.955
949.888, 4656.778
951.144, 4824.956
952.401, 4979.486
953.658, 4876.770
954.914, 4824.216
956.170, 4706.585
957.426, 4732.143
958.682, 4815.513
959.937, 5003.980
961.193, 5086.041
962.448, 5329.496
963.703, 5528.709
964.957, 5832.067
966.212, 6060.717
967.466, 6435.897
968.720, 6595.576
969.974, 7015.266
971.228, 7076.971
972.482, 7064.688
973.735, 7123.422
974.988, 6491.171
976.241, 5703.933
977.494, 4779.708
978.746, 4133.498
979.999, 3609.300
981.251, 3344.115
982.503, 3023.945
983.755, 2842.787
985.006, 2619.644
986.258, 2412.515
987.509, 2285.400
988.760, 2055.299
990.011, 1972.212
991.261, 1748.139
992.512, 1682.078
993.762, 1519.032
995.012, 1467.001
996.262, 1368.985
997.511, 1273.982
998.761, 1200.993
1000.010, 1102.018
1001.259, 1066.056
1002.508, 1062.109
1003.756, 993.177
1005.005, 969.259
1006.253, 928.356
1007.501, 932.470
1008.749, 904.598
1009.996, 869.742
1011.244, 893.901
1012.491, 942.226
1013.738, 920.414
1014.985, 928.804
1016.232, 970.116
1017.478, 950.053
1018.724, 999.730
1019.970, 1027.412
1021.216, 1092.291
1022.462, 1122.592
1023.707, 1171.721
1024.953, 1255.200
1026.198, 1251.559
1027.443, 1326.389
1028.687, 1448.390
1029.932, 1485.050
1031.176, 1653.924
1032.420, 1713.733
1033.664, 1846.755
1034.908, 2126.329
1036.152, 2310.692
1037.395, 2602.467
1038.638, 2849.761
1039.881, 3172.796
1041.124, 3746.661
1042.366, 4033.115
1043.609, 3710.766
1044.851, 3422.924
1046.093, 2942.054
1047.335, 2393.406
1048.576, 2048.473
1049.818, 1881.969
1051.059, 1685.052
1052.300, 1519.049
1053.541, 1444.699
1054.781, 1427.366
1056.022, 1249.069
1057.262, 1257.192
1058.502, 1112.889
1059.742, 1067.628
1060.981, 954.932
1062.221, 977.683
1063.460, 871.739
1064.699, 832.565
1065.938, 835.258
1067.177, 792.497
1068.415, 801.589
1069.653, 772.462
1070.891, 776.517
1072.129, 727.842
1073.367, 695.941
1074.604, 679.427
1075.842, 653.643
1077.079, 651.553
1078.316, 620.473
1079.553, 630.409
1080.789, 628.431
1082.025, 558.417
1083.262, 597.959
1084.498, 606.989
1085.733, 599.094
1086.969, 645.184
1088.204, 571.230
1089.439, 544.291
1090.674, 551.370
1091.909, 521.463
1093.144, 574.572
1094.378, 546.728
1095.612, 578.087
1096.846, 568.255
1098.080, 544.534
1099.314, 551.806
1100.547, 566.472
1101.781, 567.189
1103.014, 569.433
1104.247, 590.683
1105.479, 586.949
1106.712, 596.560
1107.944, 586.516
1109.176, 673.875
1110.408, 666.163
1111.640, 628.484
1112.871, 714.794
1114.102, 672.114
1115.334, 659.439
1116.565, 734.771
1117.795, 698.107
1119.026, 768.796
1120.256, 815.285
1121.486, 824.103
1122.716, 825.455
1123.946, 878.166
1125.176, 880.530
1126.405, 851.896
1127.634, 911.266
1128.863, 897.639
1130.092, 939.016
1131.321, 855.536
1132.549, 896.934
1133.778, 911.327
1135.006, 836.039
1136.233, 871.507
1137.461, 742.898
1138.689, 663.291
1139.916, 627.714
1141.143, 535.187
1142.370, 498.915
1143.597, 436.502
1144.823, 314.934
1146.050, 314.426
1147.276, 219.854
1148.502, 183.297
1149.727, 162.760
1150.953, 135.165
1152.178, 99.674
1153.404, 17.276
1154.629, 97.051
1155.853, 15.456
1157.078, 5.197
1158.302, 40.605
1159.527, 7.988
1160.751, 12.417
1161.975, 9.002
1163.198, 30.601
1164.422, 21.939
1165.645, 15.239
1166.868, 15.197
1168.091, 1.037
1169.314, 8.115
1170.536, 39.498
1171.759, 6.010
1172.981, 0.367
1174.203, 48.228
1175.424, 16.907
1176.646, 8.595
1177.867, 12.855
1179.089, 10.729
1180.310, 13.432
1181.530, 22.051
1182.751, 17.711
1183.971, 6.411
1185.192, 15.110
1186.412, 9.841
1187.632, 22.922
1188.851, 15.603
1190.071, 0.404
1191.290, 9.094
1192.509, 7.912
1193.728, 10.954
1194.947, 21.691
1196.165, 27.826
1197.384, 36.485
1198.602, 50.392
1199.820, 44.232
1201.037, 12.695
1202.255, 7.896
1203.472, 2.088
1204.690, 35.944
1205.907, 9.945
1207.124, 35.055
1208.340, 13.970
1209.557, 1.946
1210.773, 7.928
1211.989, 7.007
1213.205, 31.078
1214.421, 3.880
1215.636, 33.228
1216.851, 17.274
1218.067, 30.041
1219.281, 6.917
1220.496, 31.282
1221.711, 10.395
1222.925, 27.357
1224.139, 41.153
1225.353, 59.210
1226.567, 17.941
1227.781, 29.740
1228.994, 4.454
1230.207, 29.156
1231.421, 18.891
1232.633, 24.577
1233.846, 41.297
1235.059, 66.009
1236.271, 67.689
1237.483, 52.373
1238.695, 55.030
1239.907, 37.666
1241.118, 18.293
1242.330, 42.913
1243.541, 25.518
1244.752, 29.114
1245.963, 5.286
1247.173, 14.324
1248.384, 34.944
1249.594, 51.494
1250.804, 49.036
1252.014, 18.570
1253.223, 10.092
1254.433, 34.599
1255.642, 54.096
1256.851, 49.583
1258.060, 62.546
1259.269, 78.530
1260.478, 64.988
1261.686, 75.435
1262.894, 75.873
1264.102, 23.299
1265.310, 33.712
1266.518, 20.113
1267.725, 74.502
1268.932, 24.903
1270.139, 77.276
1271.346, 68.640
1272.553, 65.415
1273.759, 93.306
1274.966, 77.615
1276.172, 39.910
1277.378, 63.187
1278.583, 65.451
1279.789, 30.712
1280.994, 49.951
1282.200, 70.173
1283.405, 73.362
1284.609, 63.538
1285.814, 52.698
1287.018, 32.897
1288.223, 41.029
1289.427, 65.144
1290.631, 51.370
1291.834, 67.459
1293.038, 64.536
1294.241, 60.649
1295.444, 74.651
1296.647, 51.691
1297.850, 43.717
1299.053, 34.472
1300.255, 97.730
1301.457, 36.714
1302.659, 81.330
1303.861, 92.288
1305.063, 89.081
1306.264, 48.015
1307.466, 99.748
1308.667, 9.561
1309.868, 37.753
1311.068, 63.205
1312.269, 31.124
1313.469, 22.966
1314.669, 74.802
1315.869, 49.812
1317.069, 70.512
1318.269, 63.294
1319.468, 77.609
1320.668, 97.755
1321.867, 29.246
1323.066, 33.523
1324.264, 14.131
1325.463, 9.001
1326.661, 56.583
1327.859, 62.366
1329.057, 60.739
1330.255, 18.591
1331.452, 52.704
1332.650, 46.988
1333.847, 75.685
1335.044, 45.187
1336.241, 107.186
1337.438, 19.214
1338.634, 53.022
1339.830, 68.114
1341.027, 31.780
1342.222, 105.859
1343.418, 63.184
1344.614, 66.459
1345.809, 28.006
1347.004, 65.456
1348.199, 52.486
1349.394, 85.942
1350.589, 57.356
1351.783, 42.204
1352.978, 52.605
1354.172, 48.701
1355.365, 31.027
1356.559, 55.488
1357.753, 39.412
1358.946, 52.476
1360.139, 29.187
1361.332, 7.866
1362.525, 19.708
1363.718, 54.786
1364.910, 20.487
1366.102, 49.469
1367.294, 30.772
1368.486, 6.087
1369.678, 91.396
1370.869, 24.630
1372.061, 69.904
1373.252, 67.033
1374.443, 33.292
1375.634, 52.491
1376.824, 32.721
1378.015, 32.879
1379.205, 38.246
1380.395, 35.463
1381.585, 39.654
1382.775, 42.829
1383.964, 45.949
1385.153, 43.855
1386.343, 43.182
1387.531, 43.204
1388.720, 38.660
1389.909, 31.157
1391.097, 26.619
1392.285, 43.120
1393.473, 49.623
1394.661, 65.105
1395.849, 90.022
1397.037, 81.582
1398.224, 59.936
1399.411, 77.306
1400.598, 67.654
1401.785, 74.797
1402.971, 46.708
1404.158, 56.889
1405.344, 72.105
1406.530, 42.844
1407.716, 90.779
1408.901, 48.811
1410.087, 80.840
1411.272, 32.834
1412.457, 9.779
1413.642, 33.863
1414.827, 49.898
1416.012, 52.681
1417.196, 87.999
1418.380, 59.466
1419.564, 81.832
1420.748, 64.541
1421.932, 30.322
1423.115, 57.238
1424.299, 88.051
1425.482, 76.788
1426.665, 65.442
1427.847, 49.239
1429.030, 11.760
1430.212, 34.381
1431.395, 78.339
1432.577, 2.015
1433.759, 34.479
1434.940, 53.347
1436.122, 36.930
1437.303, 52.744
1438.484, 32.492
1439.665, 51.269
1440.846, 37.911
1442.026, 53.683
1443.207, 32.748
1444.387, 10.574
1445.567, 46.192
1446.747, 60.484
1447.927, 17.287
1449.106, 48.218
1450.286, 63.062
1451.465, 57.803
1452.644, 65.592
1453.822, 4.439
1455.001, 31.288
1456.179, 79.141
1457.358, 17.863
1458.536, 6.551
1459.714, 28.338
1460.891, 53.113
1462.069, 55.874
1463.246, 38.611
1464.423, 63.333
1465.600, 21.037
1466.777, 26.731
1467.954, 37.350
1469.130, 49.395
1470.306, 55.004
1471.483, 31.642
1472.658, 35.309
1473.834, 26.943
1475.010, 20.678
1476.185, 80.489
1477.360, 40.157
1478.535, 54.626
1479.710, 28.478
1480.885, 38.333
1482.059, 28.190
1483.234, 28.052
1484.408, 21.505
1485.582, 11.465
1486.755, 25.287
1487.929, 17.114
1489.102, 19.192
1490.275, 41.531
1491.449, 27.176
1492.621, 27.979
1493.794, 46.782
1494.967, 18.586
1496.139, 35.396
1497.311, 10.336
1498.483, 2.298
1499.655, 38.283
1500.826, 36.285
1501.998, 22.320
1503.169, 50.367
1504.340, 72.500
1505.511, 59.739
1506.682, 49.032
1507.852, 49.398
1509.023, 32.846
1510.193, 54.392
1511.363, 71.931
1512.532, 26.683
1513.702, 4.420
1514.872, 19.644
1516.041, 63.900
1517.210, 41.389
1518.379, 29.193
1519.548, 101.838
1520.716, 29.128
1521.885, 9.555
1523.053, 0.000
##END=



