##NAMES=Aenigmatite
##RRUFFID=R061088
##IDEAL CHEMISTRY=Na_4_(Fe^2+^_10_Ti^4+^_2_)O_4_[Si_12_O_36_]
##LOCALITY=Naujakasik, Greenland
##OWNER=RRUFF
##SOURCE=Michael Scott
##DESCRIPTION=Black prismatic crystals
##STATUS=The identification of this mineral has been confirmed by X-ray diffraction and chemical analysis
##URL=rruff.info/R061088
##MEASURED CHEMISTRY=(Na_1.72_Ca_0.28_)_Σ=2_(Fe^2+^_4.90_Mn_0.08_Mg_0.02_)_Σ=5_(Ti_0.85_Al_0.14_Fe^3+^_0.01_)_Σ=1_(Si_5.87_Al_0.13_)_Σ=6_O_20_
##PIN_ID=L00777
##ORIENTATION=Laser parallel to b* (0 1 0). Fiducial mark perpendicular to laser is parallel to c [0 0 1]
137.4400, 0.0000000E+00
138.6700, 226.5146
139.9000, 260.9233
141.1290, 178.7051
142.3590, 38.84180
143.5880, 8.528809
144.8170, 21.30713
146.0460, 89.84473
147.2750, 208.1421
148.5030, 139.9419
149.7320, 182.3164
150.9600, 358.4966
152.1880, 449.5674
153.4160, 414.5947
154.6440, 434.6318
155.8720, 333.3647
157.0990, 262.7412
158.3270, 318.7979
159.5540, 199.6885
160.7810, 377.7046
162.0080, 637.4355
163.2350, 610.0859
164.4610, 761.6982
165.6880, 781.5474
166.9140, 693.6465
168.1400, 646.7627
169.3660, 621.7930
170.5920, 536.8145
171.8180, 493.3359
173.0430, 429.6147
174.2690, 257.4360
175.4940, 184.2974
176.7190, 111.1699
177.9440, 194.0527
179.1680, 132.9463
180.3930, 82.85107
181.6170, 110.0581
182.8420, 26.30029
184.0660, 114.6611
185.2900, 158.6616
186.5140, 198.7021
187.7370, 111.8228
188.9610, 131.0410
190.1840, 223.4014
191.4070, 260.2837
192.6300, 304.4014
193.8530, 221.0059
195.0760, 243.0264
196.2980, 280.8516
197.5210, 252.2480
198.7430, 362.4844
199.9650, 429.6787
201.1870, 429.8794
202.4090, 446.0859
203.6310, 211.2964
204.8520, 149.5088
206.0730, 2.722656
207.2950, 29.06250
208.5160, 61.84668
209.7360, 30.36914
210.9570, 63.59424
212.1780, 151.8481
213.3980, 238.1104
214.6180, 253.3535
215.8380, 199.6050
217.0580, 197.8667
218.2780, 221.1392
219.4980, 265.4209
220.7170, 250.7129
221.9360, 260.0132
223.1560, 197.3198
224.3750, 296.6333
225.5930, 169.9590
226.8120, 211.3853
228.0310, 141.9316
229.2490, 186.5781
230.4670, 215.3892
231.6850, 107.2939
232.9030, 133.2578
234.1210, 142.2427
235.3380, 197.2305
236.5560, 128.5283
237.7730, 63.66748
238.9900, 145.9990
240.2070, 92.61426
241.4240, 108.1221
242.6410, 102.7876
243.8570, 60.72803
245.0730, 51.10059
246.2900, 28.20996
247.5060, 15.44434
248.7210, 53.08887
249.9370, 70.72412
251.1530, 26.64941
252.3680, 56.96826
253.5830, 24.17041
254.7980, 17.81055
256.0130, 50.91016
257.2280, 75.60498
258.4430, 66.74609
259.6570, 101.1792
260.8720, 118.2622
262.0860, 134.6089
263.3000, 175.1138
264.5130, 171.0576
265.7270, 211.1401
266.9410, 233.5898
268.1540, 293.1689
269.3670, 290.6128
270.5800, 376.0479
271.7930, 406.8662
273.0060, 456.8032
274.2190, 485.3096
275.4310, 560.7168
276.6430, 575.1167
277.8550, 612.5103
279.0670, 642.3623
280.2790, 585.2778
281.4910, 661.6528
282.7020, 646.0210
283.9140, 609.6177
285.1250, 631.9502
286.3360, 688.9888
287.5470, 728.6899
288.7570, 763.2134
289.9680, 796.6167
291.1780, 837.8198
292.3880, 853.5938
293.5990, 893.3730
294.8080, 931.1577
296.0180, 1111.939
297.2280, 1161.718
298.4370, 1260.495
299.6470, 1267.270
300.8560, 1461.042
302.0650, 1537.804
303.2740, 1493.558
304.4820, 1524.304
305.6910, 1728.045
306.8990, 1731.721
308.1070, 1715.395
309.3150, 1726.068
310.5230, 1682.842
311.7310, 1616.760
312.9390, 1563.651
314.1460, 1476.052
315.3530, 1328.456
316.5600, 1164.405
317.7670, 1140.238
318.9740, 1064.625
320.1810, 910.0400
321.3870, 757.2783
322.5930, 751.6934
323.8000, 714.5005
325.0060, 534.9438
326.2110, 423.3809
327.4170, 426.5249
328.6230, 378.1255
329.8280, 298.8062
331.0330, 142.5664
332.2380, 240.1372
333.4430, 181.8223
334.6480, 51.33691
335.8530, 74.88672
337.0570, 102.5317
338.2610, 24.00879
339.4650, 10.48047
340.6690, 26.92578
341.8730, 29.65381
343.0770, 48.75195
344.2800, 42.18359
345.4840, 19.41650
346.6870, 14.97119
347.8900, 5.359863
349.0930, 58.77441
350.2950, 14.28955
351.4980, 105.4346
352.7000, 156.1934
353.9030, 193.6006
355.1050, 253.7764
356.3070, 353.0928
357.5080, 456.4575
358.7100, 421.8203
359.9110, 431.1821
361.1130, 433.5430
362.3140, 530.9019
363.5150, 578.2593
364.7160, 637.6162
365.9160, 535.9712
367.1170, 608.3242
368.3170, 474.6768
369.5170, 535.0269
370.7170, 526.3750
371.9170, 580.7212
373.1170, 554.7617
374.3170, 553.8721
375.5160, 491.7417
376.7150, 518.0737
377.9140, 475.4014
379.1130, 449.7236
380.3120, 530.0410
381.5110, 473.3525
382.7090, 410.6475
383.9070, 486.9424
385.1060, 452.2114
386.3040, 361.4746
387.5010, 394.7153
388.6990, 387.8872
389.8970, 370.0122
391.0940, 381.3252
392.2910, 263.2954
393.4880, 297.4204
394.6850, 167.6162
395.8820, 247.0322
397.0780, 193.1650
398.2750, 244.7397
399.4710, 114.7036
400.6670, 199.8037
401.8630, 163.9897
403.0590, 247.1519
404.2540, 143.3315
405.4500, 163.5083
406.6450, 144.6816
407.8400, 162.8516
409.0350, 211.0190
410.2300, 262.1836
411.4250, 246.3447
412.6190, 321.5034
413.8140, 452.6587
415.0080, 469.8110
416.2020, 563.5239
417.3960, 632.1084
418.5900, 683.2534
419.7830, 752.9165
420.9770, 864.5342
422.1700, 867.6714
423.3630, 939.8047
424.5560, 1008.936
425.7490, 926.0645
426.9410, 876.1904
428.1340, 972.3091
429.3260, 890.4209
430.5180, 856.5273
431.7100, 882.6299
432.9020, 768.7295
434.0940, 748.8311
435.2850, 692.9302
436.4770, 664.0244
437.6680, 598.1147
438.8590, 576.2251
440.0500, 525.3066
441.2410, 453.3833
442.4310, 375.4551
443.6220, 284.5225
444.8120, 284.5854
446.0020, 233.6445
447.1920, 264.6978
448.3820, 271.7471
449.5710, 130.7920
450.7610, 144.8320
451.9500, 146.8687
453.1390, 53.89990
454.3280, 18.92676
455.5170, 23.94678
456.7060, 50.03955
457.8940, 82.06348
459.0830, 27.14209
460.2710, 89.24561
461.4590, 4.407715
462.6470, 100.5825
463.8350, 113.8213
465.0220, 37.12988
466.2100, 59.46826
467.3970, 53.84961
468.5840, 38.25586
469.7710, 1.692871
470.9580, 44.14014
472.1440, 26.60938
473.3310, 14.89893
474.5170, 59.40186
475.7030, 30.92578
476.8890, 115.4746
478.0750, 60.81689
479.2610, 36.28809
480.4460, 100.9014
481.6320, 107.1523
482.8170, 121.2236
484.0020, 132.5342
485.1870, 112.2563
486.3710, 57.74805
487.5560, 78.23242
488.7400, 79.65869
489.9250, 51.93799
491.1090, 102.2944
492.2930, 26.88867
493.4760, 17.20361
494.6600, 37.00635
495.8440, 10.79053
497.0270, 73.61426
498.2100, 98.44629
499.3930, 116.8833
500.5760, 115.1255
501.7580, 147.9683
502.9410, 66.80762
504.1230, 125.6450
505.3060, 109.4780
506.4880, 195.3081
507.6690, 132.1348
508.8510, 178.9570
510.0330, 231.7769
511.2140, 209.8188
512.3950, 316.4048
513.5760, 256.2134
514.7570, 270.0181
515.9380, 357.8188
517.1190, 401.6162
518.2990, 319.4097
519.4800, 367.1992
520.6600, 355.9854
521.8400, 385.7671
523.0190, 437.5449
524.1990, 446.3193
525.3790, 428.0898
526.5580, 396.8564
527.7370, 292.6191
528.9160, 419.3789
530.0950, 378.1343
531.2740, 375.8862
532.4520, 482.6357
533.6310, 393.3892
534.8090, 395.1406
535.9870, 440.8887
537.1650, 377.6328
538.3430, 345.3809
539.5200, 375.1265
540.6980, 330.8755
541.8750, 295.6216
543.0520, 279.3643
544.2290, 179.1035
545.4060, 271.8384
546.5820, 258.5698
547.7590, 194.2974
548.9350, 215.0210
550.1110, 210.4380
551.2870, 189.3125
552.4630, 225.1694
553.6390, 223.8779
554.8140, 186.5830
555.9900, 307.2832
557.1650, 221.9795
558.3400, 196.6724
559.5150, 141.3604
560.6900, 187.0454
561.8640, 333.7261
563.0390, 309.4028
564.2130, 320.0752
565.3870, 330.7437
566.5610, 351.4077
567.7350, 374.0684
568.9080, 345.9956
570.0820, 257.3765
571.2550, 279.0249
572.4280, 264.6689
573.6010, 218.3081
574.7740, 246.9438
575.9470, 259.5757
577.1190, 191.2031
578.2920, 151.8262
579.4640, 43.44531
580.6360, 92.05957
581.8080, 83.66992
582.9790, 54.27588
584.1510, 171.8774
585.3220, 148.4751
586.4940, 136.0688
587.6650, 111.6582
588.8360, 181.2432
590.0060, 195.8237
591.1770, 179.4004
592.3470, 279.9727
593.5180, 228.5405
594.6880, 274.0024
595.8580, 380.3140
597.0280, 295.6426
598.1970, 369.4551
599.3670, 415.2568
600.5360, 417.5054
601.7050, 547.8569
602.8740, 631.5356
604.0430, 491.1812
605.2120, 577.0010
606.3800, 640.6411
607.5490, 598.8872
608.7170, 582.2393
609.8850, 790.8350
611.0530, 663.8223
612.2210, 769.3931
613.3880, 806.9038
614.5560, 807.2993
615.7230, 978.5195
616.8900, 1014.805
618.0570, 980.1743
619.2240, 1154.265
620.3900, 1120.809
621.5570, 1275.487
622.7230, 1298.026
623.8890, 1363.377
625.0550, 1572.576
626.2210, 1595.654
627.3870, 1820.512
628.5520, 1937.122
629.7180, 2017.533
630.8830, 2340.280
632.0480, 2626.507
633.2130, 2951.499
634.3770, 3182.252
635.5420, 3483.135
636.7060, 3696.461
637.8710, 3965.377
639.0350, 4347.805
640.1990, 4725.172
641.3620, 4982.562
642.5260, 5451.015
643.6890, 5504.565
644.8530, 5813.002
646.0160, 5878.431
647.1790, 6209.854
648.3410, 6441.270
649.5040, 6358.677
650.6670, 6568.121
651.8290, 6685.515
652.9910, 6704.903
654.1530, 6750.283
655.3150, 6751.657
656.4770, 6800.024
657.6380, 6721.384
658.7990, 6676.737
659.9610, 6580.083
661.1220, 6423.425
662.2830, 6468.757
663.4430, 6319.084
664.6040, 6137.104
665.7640, 6180.555
666.9240, 6192.941
668.0850, 6175.911
669.2440, 6041.514
670.4040, 6058.698
671.5640, 6015.118
672.7230, 5969.060
673.8830, 6007.556
675.0420, 5890.205
676.2010, 5927.366
677.3590, 5902.874
678.5180, 5906.572
679.6770, 5849.135
680.8350, 5810.589
681.9930, 5732.388
683.1510, 5841.602
684.3090, 5731.806
685.4670, 5685.005
686.6240, 5750.197
687.7810, 5804.384
688.9390, 5608.563
690.0960, 5388.737
691.2530, 5344.903
692.4090, 4994.062
693.5660, 4722.217
694.7220, 4546.363
695.8790, 4206.504
697.0350, 3941.638
698.1910, 3606.767
699.3460, 3311.889
700.5020, 3015.003
701.6570, 2727.112
702.8130, 2594.216
703.9680, 2375.312
705.1230, 2288.403
706.2780, 1984.487
707.4320, 1875.565
708.5870, 1840.638
709.7410, 1618.704
710.8950, 1445.764
712.0490, 1348.818
713.2030, 1264.867
714.3570, 1144.909
715.5100, 1074.947
716.6640, 1025.978
717.8170, 867.0024
718.9700, 873.9980
720.1230, 910.0122
721.2760, 805.0215
722.4280, 711.0244
723.5810, 677.0229
724.7330, 597.0571
725.8850, 592.0039
727.0370, 553.9868
728.1890, 544.9648
729.3400, 658.9375
730.4920, 595.9053
731.6430, 594.8677
732.7940, 612.8257
733.9450, 576.7798
735.0960, 523.0513
736.2460, 476.6763
737.3970, 380.6343
738.5470, 336.6128
739.6970, 290.5986
740.8470, 233.6060
741.9970, 247.6138
743.1470, 122.6475
744.2970, 73.70947
745.4460, 79.78125
746.5950, 30.13232
747.7440, 88.94189
748.8930, 30.02588
750.0420, 9.107910
751.1900, 15.19580
752.3390, 21.28857
753.4870, 78.62256
754.6350, 97.58887
755.7830, 48.61816
756.9310, 108.6860
758.0780, 101.8237
759.2260, 86.02686
760.3730, 36.28760
761.5200, 81.33984
762.6670, 47.36328
763.8140, 109.3115
764.9610, 74.76465
766.1070, 16.73145
767.2530, 83.77734
768.4000, 58.34131
769.5460, 1.946289
770.6910, 80.56348
771.8370, 47.76758
772.9830, 76.90283
774.1280, 40.61328
775.2730, 31.35303
776.4180, 24.11865
777.5630, 7.778809
778.7080, 8.706543
779.8520, 30.48047
780.9970, 4.664063
782.1410, 70.84326
783.2850, 102.0195
784.4290, 116.1938
785.5730, 67.36670
786.7160, 87.53711
787.8600, 13.70557
789.0030, 29.87207
790.1460, 77.03711
791.2890, 72.19971
792.4320, 96.36182
793.5750, 76.52148
794.7170, 56.67969
795.8590, 114.8369
797.0020, 171.9932
798.1440, 62.14746
799.2850, 170.3013
800.4270, 174.4541
801.5690, 202.6050
802.7100, 190.7559
803.8510, 246.9062
804.9920, 262.0557
806.1330, 259.2041
807.2740, 266.3525
808.4140, 308.5000
809.5550, 250.6470
810.6950, 283.7944
811.8350, 272.9409
812.9750, 359.0869
814.1150, 345.2329
815.2540, 380.3794
816.3940, 348.5259
817.5330, 292.6729
818.6720, 307.8193
819.8110, 330.9697
820.9500, 328.1206
822.0880, 345.2729
823.2270, 349.4258
824.3650, 457.5786
825.5030, 383.7324
826.6410, 489.8877
827.7790, 422.0439
828.9170, 494.2017
830.0540, 434.3599
831.1920, 501.5200
832.3290, 545.6802
833.4660, 482.8418
834.6030, 537.0054
835.7390, 508.1694
836.8760, 686.3354
838.0120, 586.5024
839.1480, 670.6719
840.2840, 765.8423
841.4200, 674.0146
842.5560, 637.1885
843.6920, 674.3647
844.8270, 716.5439
845.9620, 853.7334
847.0970, 778.9375
848.2320, 787.1426
849.3670, 986.3511
850.5020, 901.5620
851.6360, 891.7886
852.7700, 964.0234
853.9040, 1048.260
855.0380, 1010.500
856.1720, 1047.762
857.3060, 1168.026
858.4390, 1130.307
859.5730, 1221.602
860.7060, 1264.932
861.8390, 1341.264
862.9720, 1393.501
864.1040, 1434.899
865.2370, 1482.279
866.3690, 1498.624
867.5010, 1517.971
868.6330, 1569.478
869.7650, 1594.724
870.8970, 1674.113
872.0290, 1740.949
873.1600, 1818.890
874.2910, 1916.312
875.4220, 1964.745
876.5530, 2029.184
877.6840, 2097.640
878.8140, 2122.104
879.9450, 2172.579
881.0750, 2191.068
882.2050, 2289.564
883.3350, 2421.328
884.4650, 2432.844
885.5950, 2458.275
886.7240, 2479.476
887.8530, 2439.719
888.9820, 2378.293
890.1110, 2356.104
891.2400, 2312.740
892.3690, 2295.482
893.4970, 2223.468
894.6260, 2182.735
895.7540, 2106.344
896.8820, 2041.930
898.0100, 1970.310
899.1370, 1899.644
900.2650, 1797.716
901.3920, 1743.996
902.5200, 1637.555
903.6470, 1664.326
904.7730, 1637.724
905.9000, 1509.700
907.0270, 1559.774
908.1530, 1503.490
909.2790, 1499.864
910.4050, 1448.552
911.5310, 1379.865
912.6570, 1339.669
913.7830, 1218.537
914.9080, 1209.385
916.0330, 1133.172
917.1580, 1130.865
918.2830, 1130.675
919.4080, 1073.494
920.5330, 1038.324
921.6570, 1033.164
922.7820, 954.0137
923.9060, 882.8315
925.0300, 989.7017
926.1540, 860.5820
927.2770, 839.4712
928.4010, 981.3716
929.5240, 872.2822
930.6470, 877.2031
931.7700, 897.1328
932.8930, 842.0742
934.0160, 870.0254
935.1380, 818.9858
936.2610, 884.9570
937.3830, 880.9385
938.5050, 949.9302
939.6270, 971.9316
940.7490, 861.9434
941.8700, 870.9658
942.9910, 922.9980
944.1130, 867.0410
945.2340, 981.0938
946.3550, 930.1562
947.4750, 867.2300
948.5960, 810.3130
949.7160, 866.4067
950.8370, 1010.510
951.9570, 1008.624
953.0770, 966.7485
954.1970, 992.5610
955.3160, 977.7056
956.4360, 926.9199
957.5550, 950.4478
958.6740, 938.7173
959.7930, 961.4487
960.9120, 958.7061
962.0310, 979.9126
963.1490, 996.1685
964.2670, 1002.395
965.3860, 977.3013
966.5040, 840.8784
967.6210, 938.1348
968.7390, 830.4023
969.8570, 873.6792
970.9740, 805.9663
972.0910, 848.2632
973.2080, 895.5703
974.3250, 788.8882
975.4420, 711.2148
976.5580, 682.5527
977.6750, 651.9004
978.7910, 713.4473
979.9070, 795.5122
981.0230, 677.5430
982.1390, 719.9297
983.2540, 639.3262
984.3700, 561.8276
985.4850, 505.1504
986.6000, 523.6934
987.7150, 566.1274
988.8300, 474.5713
989.9450, 601.3809
991.0590, 511.8428
992.1730, 519.3276
993.2880, 391.4019
994.4010, 539.0869
995.5150, 438.5830
996.6290, 361.0874
997.7420, 495.5996
998.8560, 398.1201
999.9690, 403.6484
1001.082, 365.2192
1002.195, 518.2983
1003.307, 524.2090
1004.420, 385.7764
1005.532, 424.3452
1006.645, 361.6675
1007.757, 389.2676
1008.868, 459.8643
1009.980, 384.6606
1011.092, 422.5039
1012.203, 435.8096
1013.314, 400.1562
1014.425, 577.2480
1015.536, 536.4775
1016.647, 585.0010
1017.758, 548.3828
1018.868, 534.0420
1019.978, 562.8052
1021.088, 560.7563
1022.198, 592.5664
1023.308, 630.8018
1024.418, 653.8057
1025.527, 668.5210
1026.637, 641.3789
1027.746, 654.0278
1028.855, 645.6670
1029.963, 632.9585
1031.072, 640.7251
1032.181, 600.3345
1033.289, 600.4902
1034.397, 582.2388
1035.505, 565.6040
1036.613, 527.8345
1037.721, 548.8232
1038.828, 551.1943
1039.935, 512.3247
1041.043, 497.5498
1042.150, 511.9482
1043.257, 559.0913
1044.363, 425.8057
1045.470, 493.9814
1046.576, 430.1704
1047.682, 480.3682
1048.788, 418.5742
1049.894, 486.7832
1051.000, 439.9717
1052.106, 362.2139
1053.211, 365.4341
1054.316, 294.6562
1055.421, 240.9653
1056.526, 231.1938
1057.631, 240.4253
1058.736, 263.6587
1059.840, 275.8955
1060.944, 199.1338
1062.049, 161.5000
1063.153, 199.7427
1064.256, 148.4199
1065.360, 165.1377
1066.463, 97.50879
1067.567, 165.7603
1068.670, 89.01416
1069.773, 57.26953
1070.876, 107.5269
1071.978, 47.78564
1073.081, 57.75000
1074.183, 113.3091
1075.285, 48.57324
1076.387, 64.83936
1077.489, 79.10693
1078.591, 52.25684
1079.692, 65.64600
1080.794, 39.91797
1081.895, 69.19092
1082.996, 65.46533
1084.097, 33.74121
1085.198, 38.01807
1086.298, 23.70410
1087.399, 83.56836
1088.499, 3.158691
1089.599, 37.11377
1090.699, 90.38770
1091.799, 2.772461
1092.898, 2.953125
1093.998, 75.32129
1095.097, 1.374512
1096.196, 57.90039
1097.295, 88.17480
1098.394, 91.45020
1099.492, 25.72510
1100.591, 55.00049
1101.689, 9.275879
1102.787, 51.55176
1103.885, 33.82715
1104.983, 24.10254
1106.081, 37.37793
1107.178, 51.65283
1108.275, 28.92773
1109.373, 29.26855
1110.470, 4.458008
1111.566, 32.18799
1112.663, 46.93408
1113.760, 7.294434
1114.856, 35.52246
1115.952, 0.2504880
1117.048, 49.02588
1118.144, 19.82861
1119.240, 64.35596
1120.335, 74.53906
1121.431, 70.27832
1122.526, 59.86426
1123.621, 47.99414
1124.716, 40.88184
1125.810, 113.7944
1126.905, 31.22998
1127.999, 62.25195
1129.094, 55.27246
1130.188, 55.29053
1131.282, 78.30762
1132.375, 17.32227
1133.469, 68.66602
1134.562, 17.69580
1135.656, 11.74072
1136.749, 29.20117
1137.842, 6.859375
1138.935, 27.06982
1140.027, 90.00391
1141.120, 3.868652
1142.212, 45.26611
1143.304, 4.431641
1144.396, 20.60742
1145.488, 32.08105
1146.579, 2.022949
1147.671, 22.25293
1148.762, 3.503906
1149.853, 64.23486
1150.944, 17.96973
1152.035, 43.29980
1153.126, 1.601563
1154.216, 48.91406
1155.307, 5.262207
1156.397, 64.62354
1157.487, 46.97119
1158.577, 23.56104
1159.667, 31.14551
1160.756, 36.23047
1161.846, 50.82178
1162.935, 48.33154
1164.024, 46.69385
1165.113, 33.88037
1166.201, 46.57227
1167.290, 92.85938
1168.378, 106.8140
1169.467, 8.383789
1170.555, 43.16895
1171.643, 27.88184
1172.730, 9.845215
1173.818, 84.85107
1174.905, 11.60889
1175.993, 61.89893
1177.080, 67.54443
1178.167, 104.2393
1179.254, 73.68213
1180.340, 63.88818
1181.427, 121.3589
1182.513, 141.5767
1183.599, 103.2534
1184.685, 141.8872
1185.771, 43.00928
1186.856, 64.78564
1187.942, 138.6206
1189.027, 103.6479
1190.112, 143.4790
1191.197, 154.8203
1192.282, 36.66992
1193.367, 143.7017
1194.451, 153.3398
1195.536, 62.98047
1196.620, 162.2798
1197.704, 85.69678
1198.788, 71.88916
1199.872, 105.3232
1200.955, 89.49854
1202.039, 151.3228
1203.122, 138.3379
1204.205, 118.6826
1205.288, 123.5688
1206.370, 115.9419
1207.453, 159.3091
1208.535, 162.6748
1209.618, 170.0347
1210.700, 136.3970
1211.782, 118.7705
1212.863, 137.1382
1213.945, 213.5024
1215.026, 99.85938
1216.108, 186.2100
1217.189, 90.87793
1218.270, 217.2314
1219.351, 114.5195
1220.431, 190.8628
1221.512, 55.19824
1222.592, 204.5244
1223.672, 155.7837
1224.752, 76.10010
1225.832, 186.3711
1226.911, 167.6753
1227.991, 175.9722
1229.070, 170.2651
1230.149, 224.5537
1231.228, 207.8481
1232.307, 214.1362
1233.386, 210.6382
1234.464, 199.1030
1235.543, 153.9609
1236.621, 175.2241
1237.699, 101.4800
1238.777, 74.72900
1239.855, 176.9697
1240.932, 234.0137
1242.009, 173.5435
1243.087, 200.1089
1244.164, 137.3208
1245.241, 124.5264
1246.317, 248.6284
1247.394, 203.9131
1248.470, 185.9810
1249.546, 233.1597
1250.623, 165.3301
1251.698, 208.1362
1252.774, 205.2915
1253.850, 157.4243
1254.925, 224.9678
1256.000, 129.9014
1257.076, 163.0244
1258.150, 228.1387
1259.225, 229.2456
1260.300, 215.3447
1261.374, 251.4355
1262.449, 219.4834
1263.523, 232.0215
1264.597, 254.7285
1265.670, 212.7773
1266.744, 251.8218
1267.818, 293.1123
1268.891, 319.1221
1269.964, 318.1333
1271.037, 293.9429
1272.110, 294.7031
1273.183, 321.9976
1274.255, 335.2485
1275.327, 350.7505
1276.400, 375.8687
1277.472, 389.1230
1278.543, 417.3931
1279.615, 423.3276
1280.687, 436.1582
1281.758, 444.7959
1282.829, 504.0244
1283.900, 542.2578
1284.971, 542.4287
1286.042, 498.6436
1287.112, 513.5078
1288.183, 493.2729
1289.253, 530.0864
1290.323, 513.0586
1291.393, 539.7896
1292.463, 723.1460
1293.532, 580.0801
1294.602, 733.0244
1295.671, 747.0093
1296.740, 743.5439
1297.809, 751.5508
1298.878, 745.1895
1299.946, 767.9780
1301.015, 788.0161
1302.083, 746.7144
1303.151, 806.3457
1304.219, 765.7471
1305.287, 805.8765
1306.354, 822.8721
1307.422, 801.9536
1308.489, 879.0981
1309.556, 864.1001
1310.623, 764.2983
1311.690, 805.2417
1312.757, 825.1016
1313.823, 877.3506
1314.890, 868.0913
1315.956, 872.2725
1317.022, 842.1763
1318.088, 844.9609
1319.153, 840.5913
1320.219, 828.6934
1321.284, 836.1245
1322.349, 861.2808
1323.414, 854.0728
1324.479, 909.6489
1325.544, 946.3857
1326.608, 923.0640
1327.673, 950.3877
1328.737, 1011.685
1329.801, 883.3623
1330.865, 943.6113
1331.929, 942.8623
1332.992, 856.7773
1334.056, 946.2085
1335.119, 1030.169
1336.182, 930.1260
1337.245, 984.1807
1338.308, 943.1938
1339.370, 952.0850
1340.433, 963.0967
1341.495, 957.7036
1342.557, 884.3984
1343.619, 900.4180
1344.681, 927.6133
1345.742, 858.8032
1346.804, 890.6445
1347.865, 892.0938
1348.926, 827.6768
1349.987, 887.4404
1351.048, 877.1719
1352.108, 846.4170
1353.169, 724.2896
1354.229, 809.3584
1355.289, 776.0190
1356.349, 874.4126
1357.409, 802.9312
1358.469, 796.5317
1359.528, 785.3354
1360.588, 733.2012
1361.647, 732.0508
1362.706, 765.0596
1363.765, 715.1401
1364.823, 763.7354
1365.882, 618.4990
1366.940, 689.9878
1367.998, 618.6548
1369.056, 659.4907
1370.114, 655.1045
1371.172, 626.6167
1372.229, 556.3555
1373.287, 546.9316
1374.344, 538.7729
1375.401, 482.5752
1376.458, 548.1978
1377.515, 548.6084
1378.571, 537.0889
1379.628, 544.3750
1380.684, 462.7827
1381.740, 486.0234
1382.796, 493.2461
1383.852, 418.5244
1384.907, 414.6577
1385.963, 365.9092
1387.018, 398.3120
1388.073, 360.3276
1389.128, 319.3223
1390.183, 286.3955
1391.237, 329.4507
1392.292, 293.3789
1393.346, 320.2280
1394.400, 297.0435
1395.454, 306.8237
1396.508, 306.5654
1397.562, 275.2979
1398.615, 221.9902
1399.668, 206.6611
1400.722, 280.2930
1401.775, 255.8794
1402.827, 165.4326
1403.880, 246.2563
1404.933, 141.7378
1405.985, 153.2935
1407.037, 120.6958
1408.089, 154.0513
1409.141, 218.3789
1410.193, 123.6660
1411.244, 68.93018
1412.295, 118.1597
1413.347, 127.3696
1414.398, 120.6704
1415.449, 113.8032
1416.499, 78.00732
1417.550, 41.14355
1418.600, 96.14062
1419.650, 88.09912
1420.700, 185.8428
1421.750, 70.72852
1422.800, 1.553223
1423.850, 65.38477
1424.899, 80.04883
1425.948, 100.4570
1426.997, 32.61768
1428.046, 62.54541
1429.095, 2.526367
1430.144, 69.40625
1431.192, 37.33350
1432.240, 60.25684
1433.288, 44.17773
1434.336, 37.13330
1435.384, 60.01074
1436.432, 31.91650
1437.479, 74.80908
1438.526, 94.93311
1439.574, 27.56982
1440.621, 104.4282
1441.667, 58.27393
1442.714, 51.07812
1443.760, 114.8252
1444.807, 14.47021
1445.853, 48.21045
1446.899, 18.83301
1447.945, 74.44189
1448.990, 43.04102
1450.036, 7.596191
1451.081, 2.138672
1452.126, 4.803223
1453.171, 27.20117
1454.216, 29.71533
1455.261, 6.211914
1456.305, 5.334961
1457.350, 52.89355
1458.394, 83.53369
1459.438, 87.04883
1460.482, 72.36279
1461.526, 0.7641600
1462.569, 59.15820
1463.612, 15.45605
1464.656, 45.08301
1465.699, 65.28564
1466.742, 14.65039
1467.784, 135.0161
1468.827, 65.38184
1469.869, 44.74854
1470.912, 31.88184
1471.954, 100.4932
1472.996, 26.87793
1474.037, 163.2744
1475.079, 92.68604
1476.120, 127.1143
1477.162, 44.56152
1478.203, 86.58545
1479.244, 64.68506
1480.284, 145.0283
1481.325, 35.57666
1482.365, 28.72900
1483.406, 17.67236
1484.446, 111.5635
1485.486, 96.39746
1486.526, 100.8369
1487.565, 75.68604
1488.605, 67.62549
1489.644, 159.4160
1490.683, 116.8662
1491.722, 166.3042
1492.761, 138.6792
1493.800, 97.82617
1494.838, 151.8950
1495.876, 177.9419
1496.915, 123.5005
1497.953, 161.9634
1498.990, 112.8911
1500.028, 89.88965
1501.066, 140.7510
1502.103, 206.7515
1503.140, 163.5151
1504.177, 229.6431
1505.214, 289.3804
1506.251, 189.3257
1507.287, 218.3833
1508.324, 113.9951
1509.360, 159.1226
1510.396, 107.6143
1511.432, 54.46387
1512.468, 164.2998
1513.503, 187.4487
1514.538, 102.5532
1515.574, 103.2563
1516.609, 153.2056
1517.644, 162.3628
1518.678, 184.3193
1519.713, 162.9873
1520.747, 172.9907
1521.782, 108.3071
1522.816, 145.4414
1523.850, 174.6411
1524.883, 131.2979
1525.917, 180.5522
1526.951, 124.9258
1527.984, 27.36670
1529.017, 124.6489
1530.050, 56.68506
1531.083, 143.5830
1532.115, 186.1519
1533.148, 158.7822
1534.180, 136.0845
1535.212, 144.5752
1536.244, 231.9756
1537.276, 147.2671
1538.308, 34.49707
1539.339, 136.0273
1540.370, 32.15527
1541.402, 36.14551
1542.433, 122.6235
1543.463, 161.2603
1544.494, 4.101074
1545.525, 81.73145
1546.555, 57.65967
1547.585, 46.03906
1548.615, 13.32520
1549.645, 28.32178
1550.675, 0.0000000E+00
##END=



