##NAMES=Aenigmatite
##RRUFFID=R061088
##IDEAL CHEMISTRY=Na_4_(Fe^2+^_10_Ti^4+^_2_)O_4_[Si_12_O_36_]
##LOCALITY=Naujakasik, Greenland
##OWNER=RRUFF
##SOURCE=Michael Scott
##DESCRIPTION=Black prismatic crystals
##STATUS=The identification of this mineral has been confirmed by X-ray diffraction and chemical analysis
##URL=rruff.info/R061088
##MEASURED CHEMISTRY=(Na_1.72_Ca_0.28_)_Σ=2_(Fe^2+^_4.90_Mn_0.08_Mg_0.02_)_Σ=5_(Ti_0.85_Al_0.14_Fe^3+^_0.01_)_Σ=1_(Si_5.87_Al_0.13_)_Σ=6_O_20_
##PIN_ID=L01545
##ORIENTATION=Laser parallel to (1 1 0). Fiducial mark perpendicular to laser is parallel to c [0 0 1]
150.1650, 0.0000000E+00
151.3980, 20.26221
152.6310, 56.21875
153.8640, 83.81787
155.0960, 100.0029
156.3280, 16.44922
157.5600, 0.1518550
158.7920, 48.70508
160.0240, 43.13135
161.2560, 159.1880
162.4870, 246.7344
163.7180, 305.6602
164.9490, 506.6489
166.1800, 451.4395
167.4110, 675.3828
168.6410, 637.0801
169.8720, 679.7061
171.1020, 571.7725
172.3320, 521.6895
173.5620, 270.9375
174.7910, 322.4170
176.0210, 184.8755
177.2500, 39.44873
178.4790, 84.24023
179.7080, 30.99756
180.9370, 53.06396
182.1650, 11.29688
183.3940, 10.16943
184.6220, 27.52588
185.8500, 168.6250
187.0780, 233.6304
188.3050, 199.5020
189.5330, 221.2534
190.7600, 152.1030
191.9870, 278.9717
193.2140, 137.5615
194.4410, 227.4282
195.6680, 224.2476
196.8940, 110.4639
198.1200, 281.0586
199.3470, 445.3071
200.5720, 457.0405
201.7980, 478.9512
203.0240, 356.2920
204.2490, 164.0732
205.4740, 105.1533
206.6990, 75.14160
207.9240, 40.47656
209.1490, 153.2871
210.3740, 164.4404
211.5980, 111.2422
212.8220, 168.8154
214.0460, 158.2310
215.2700, 285.7983
216.4930, 231.2383
217.7170, 244.6147
218.9400, 374.9292
220.1630, 320.1865
221.3860, 297.3877
222.6090, 306.5366
223.8320, 255.6509
225.0540, 263.7793
226.2760, 163.9189
227.4980, 196.0674
228.7200, 136.2207
229.9420, 117.3755
231.1630, 102.5303
232.3850, 93.06445
233.6060, 146.8306
234.8270, 104.0010
236.0480, 146.1602
237.2690, 148.5796
238.4890, 37.50098
239.7090, 74.66406
240.9290, 106.8335
242.1490, 14.97412
243.3690, 21.09961
244.5890, 100.3325
245.8080, 29.95801
247.0270, 29.74951
248.2470, 50.93262
249.4650, 165.4893
250.6840, 98.98291
251.9030, 67.76758
253.1210, 47.53906
254.3390, 94.75586
255.5570, 39.96729
256.7750, 65.17334
257.9930, 394.3760
259.2100, 316.3589
260.4280, 321.9863
261.6450, 360.9521
262.8620, 211.1357
264.0790, 106.3145
265.2950, 174.4868
266.5120, 250.6553
267.7280, 179.8169
268.9440, 100.9702
270.1600, 147.1064
271.3760, 224.1523
272.5920, 123.1831
273.8070, 198.2056
275.0220, 311.2104
276.2370, 343.3442
277.4520, 403.3110
278.6670, 533.5308
279.8820, 372.3042
281.0960, 426.2261
282.3100, 482.1445
283.5240, 458.0566
284.7380, 468.9658
285.9520, 609.8721
287.1650, 484.7754
288.3780, 515.6768
289.5920, 505.5752
290.8050, 640.4707
292.0170, 637.3647
293.2300, 736.2573
294.4430, 739.1484
295.6550, 767.0376
296.8670, 843.8359
298.0790, 825.6279
299.2910, 1005.392
300.5020, 991.1152
301.7140, 1120.799
302.9250, 1178.440
304.1360, 1334.999
305.3470, 1400.540
306.5580, 1482.026
307.7680, 1535.467
308.9780, 1576.868
310.1890, 1704.225
311.3990, 1654.536
312.6090, 1742.741
313.8180, 1615.178
315.0280, 1457.224
316.2370, 1373.256
317.4460, 1359.330
318.6550, 1282.338
319.8640, 1143.334
321.0730, 1131.312
322.2810, 1042.846
323.4890, 845.6514
324.6980, 807.0244
325.9060, 567.0469
327.1130, 563.9150
328.3210, 419.2632
329.5280, 383.5718
330.7360, 314.5371
331.9430, 158.6841
333.1500, 200.4868
334.3560, 124.2778
335.5630, 219.0576
336.7690, 20.82520
337.9760, 61.57764
339.1820, 18.31885
340.3870, 24.04150
341.5930, 14.25049
342.7990, 12.58398
344.0040, 88.04443
345.2090, 64.55713
346.4140, 0.8950200
347.6190, 32.31250
348.8240, 33.29736
350.0280, 67.93848
351.2330, 108.6870
352.4370, 42.39600
353.6410, 24.86768
354.8440, 68.38916
356.0480, 92.63916
357.2520, 151.8340
358.4550, 205.5161
359.6580, 237.0376
360.8610, 283.5444
362.0640, 294.7749
363.2660, 295.0024
364.4690, 283.2266
365.6710, 357.4492
366.8730, 240.6689
368.0750, 239.8872
369.2770, 271.1040
370.4780, 176.3188
371.6800, 226.5327
372.8810, 233.7446
374.0820, 294.9551
375.2830, 261.1641
376.4830, 283.0771
377.6840, 191.4243
378.8840, 275.6284
380.0840, 310.7861
381.2840, 294.9878
382.4840, 205.1880
383.6840, 243.9243
384.8830, 153.9624
386.0830, 266.1357
387.2820, 199.4243
388.4810, 162.8936
389.6800, 209.1826
390.8780, 178.8062
392.0770, 144.3115
393.2750, 118.8418
394.4730, 106.9282
395.6710, 108.6758
396.8690, 77.04736
398.0660, 56.99023
399.2640, 9.611816
400.4610, 45.25781
401.6580, 109.0322
402.8550, 114.3301
404.0520, 3.624023
405.2490, 14.56299
406.4450, 32.49463
407.6410, 1.559082
408.8370, 65.20703
410.0330, 68.14844
411.2290, 127.0938
412.4240, 157.0435
413.6200, 236.8232
414.8150, 344.7812
416.0100, 384.7437
417.2050, 466.4097
418.4000, 554.6182
419.5940, 582.5952
420.7880, 587.5762
421.9830, 621.5620
423.1770, 771.5518
424.3700, 775.5327
425.5640, 849.5195
426.7580, 880.5112
427.9510, 871.5088
429.1440, 949.5112
430.3370, 885.5205
431.5300, 832.5347
432.7220, 870.5542
433.9150, 868.5801
435.1070, 805.6108
436.2990, 737.6479
437.4910, 720.6909
438.6830, 708.7393
439.8750, 566.7939
441.0660, 670.8467
442.2570, 506.8970
443.4480, 500.9448
444.6390, 513.9917
445.8300, 369.0371
447.0210, 327.0806
448.2110, 294.1226
449.4010, 253.1646
450.5910, 218.2056
451.7810, 126.2461
452.9710, 44.28613
454.1610, 106.3262
455.3500, 119.3662
456.5390, 14.59326
457.7280, 16.28613
458.9170, 11.98242
460.1060, 49.47559
461.2940, 40.54688
462.4830, 38.57129
463.6710, 8.597168
464.8590, 21.37549
466.0470, 33.35986
467.2350, 18.33643
468.4220, 41.32324
469.6090, 7.321777
470.7970, 15.08594
471.9840, 87.30762
473.1700, 0.6718750
474.3570, 15.32666
475.5440, 13.67529
476.7300, 78.69336
477.9160, 59.73047
479.1020, 32.77197
480.2880, 59.07666
481.4740, 233.0068
482.6590, 262.3096
483.8440, 206.8643
485.0300, 270.4395
486.2140, 232.1606
487.3990, 274.1826
488.5840, 205.7441
489.7680, 217.4473
490.9530, 245.4434
492.1370, 211.1304
493.3210, 208.6934
494.5040, 28.72803
495.6880, 187.9634
496.8720, 54.34668
498.0550, 69.75391
499.2380, 190.2622
500.4210, 181.8037
501.6040, 199.3525
502.7860, 176.9419
503.9690, 267.5376
505.1510, 249.1602
506.3330, 231.7979
507.5150, 205.4419
508.6970, 368.0918
509.8780, 284.7485
511.0600, 457.4121
512.2410, 415.1021
513.4220, 327.7998
514.6030, 583.5029
515.7840, 543.2124
516.9640, 563.9282
518.1440, 617.6504
519.3250, 699.3794
520.5050, 656.1152
521.6850, 648.8564
522.8640, 783.6050
524.0440, 744.3589
525.2230, 677.1191
526.4020, 793.8872
527.5820, 831.6631
528.7600, 787.4443
529.9390, 811.2358
531.1180, 876.0366
532.2960, 719.8770
533.4740, 849.7266
534.6520, 755.5840
535.8300, 703.4512
537.0080, 590.3247
538.1850, 639.2061
539.3630, 701.0981
540.5400, 717.0000
541.7170, 732.7822
542.8940, 732.7056
544.0700, 670.6382
545.2470, 664.9771
546.4230, 604.3760
547.5990, 619.2510
548.7750, 675.0142
549.9510, 710.6670
551.1270, 719.6426
552.3020, 693.6250
553.4780, 667.6143
554.6530, 665.6113
555.8280, 599.6152
557.0030, 773.6260
558.1770, 588.6436
559.3520, 710.6685
560.5260, 662.6997
561.7000, 663.7378
562.8740, 731.7827
564.0480, 704.8335
565.2220, 789.8911
566.3950, 695.9551
567.5680, 758.0264
568.7420, 671.1030
569.9150, 635.1875
571.0870, 615.9331
572.2600, 571.2861
573.4320, 554.4771
574.6050, 534.5859
575.7770, 551.7012
576.9490, 554.8223
578.1210, 514.9497
579.2920, 274.0830
580.4640, 264.2227
581.6350, 272.3682
582.8060, 83.51953
583.9770, 86.67627
585.1480, 61.83936
586.3190, 56.00879
587.4890, 105.1836
588.6590, 56.36426
589.8290, 5.550293
590.9990, 137.7422
592.1690, 13.94043
593.3390, 87.14404
594.5080, 115.3535
595.6770, 18.56836
596.8470, 132.7896
598.0160, 84.63672
599.1840, 208.8691
600.3530, 247.1074
601.5210, 348.2983
602.6900, 394.5474
603.8580, 430.9302
605.0260, 483.0625
606.1930, 516.7544
607.3610, 450.9390
608.5280, 548.7603
609.6960, 480.5898
610.8630, 595.7393
612.0300, 638.7368
613.1970, 666.8774
614.3630, 650.9150
615.5300, 675.0107
616.6960, 745.1353
617.8620, 769.1426
619.0280, 740.6294
620.1940, 996.0361
621.3590, 1114.886
622.5250, 955.5020
623.6900, 993.0078
624.8550, 1197.601
626.0200, 1202.326
627.1850, 1172.573
628.3490, 1294.208
629.5140, 1524.169
630.6780, 1555.811
631.8420, 1689.294
633.0060, 1761.803
634.1700, 2061.305
635.3330, 2240.804
636.4970, 2557.386
637.6600, 2772.330
638.8230, 3058.257
639.9860, 3264.180
641.1490, 3614.828
642.3110, 3904.228
643.4740, 4118.774
644.6360, 4288.855
645.7980, 4588.212
646.9600, 5026.751
648.1220, 5128.289
649.2840, 5376.824
650.4450, 5426.380
651.6060, 5539.689
652.7670, 5771.245
653.9280, 5737.769
655.0890, 5939.291
656.2500, 5830.809
657.4100, 5865.323
658.5700, 5887.833
659.7300, 5925.341
660.8900, 5954.847
662.0500, 5719.348
663.2100, 5805.846
664.3690, 5706.342
665.5280, 5534.833
666.6880, 5628.321
667.8460, 5520.805
669.0050, 5282.286
670.1640, 5376.764
671.3220, 5232.236
672.4810, 5355.706
673.6390, 5377.171
674.7970, 5223.632
675.9540, 5240.090
677.1120, 5188.543
678.2690, 5124.992
679.4270, 5247.438
680.5840, 5092.879
681.7410, 5097.316
682.8980, 5021.748
684.0540, 5145.178
685.2110, 5162.600
686.3670, 4982.020
687.5230, 5096.436
688.6790, 4917.857
689.8350, 4766.277
690.9900, 4861.690
692.1460, 4727.100
693.3010, 4543.504
694.4560, 4322.904
695.6110, 4339.298
696.7660, 3877.688
697.9210, 3753.072
699.0750, 3403.453
700.2290, 3094.828
701.3840, 2894.197
702.5370, 2687.562
703.6910, 2621.922
704.8450, 2324.276
705.9980, 2224.626
707.1520, 1955.969
708.3050, 1837.309
709.4580, 1757.642
710.6110, 1578.970
711.7630, 1311.293
712.9160, 1247.610
714.0680, 1251.923
715.2200, 1031.229
716.3720, 1052.531
717.5240, 1033.827
718.6760, 872.1172
719.8270, 853.4028
720.9780, 787.6816
722.1300, 741.2881
723.2810, 598.2241
724.4310, 693.4868
725.5820, 572.7441
726.7330, 521.9956
727.8830, 525.2417
729.0330, 633.4819
730.1830, 591.7168
731.3330, 608.8203
732.4830, 577.1699
733.6320, 554.3882
734.7810, 518.7910
735.9310, 470.6963
737.0800, 419.0122
738.2290, 389.2109
739.3770, 337.4038
740.5260, 349.6011
741.6740, 301.6016
742.8220, 257.9785
743.9700, 250.1592
745.1180, 166.3364
746.2660, 159.5142
747.4130, 104.6885
748.5610, 152.8647
749.7080, 36.03613
750.8550, 43.20361
752.0020, 8.616699
753.1490, 26.54102
754.2950, 25.30762
755.4420, 39.18799
756.5880, 24.89209
757.7340, 93.03564
758.8800, 68.03125
760.0250, 96.08105
761.1710, 94.19971
762.3160, 127.3877
763.4620, 49.66113
764.6070, 25.97949
765.7520, 127.3301
766.8960, 4.766602
768.0410, 111.2251
769.1850, 124.7598
770.3300, 61.37891
771.4740, 92.95117
772.6180, 60.72510
773.7610, 32.54834
774.9050, 52.18408
776.0480, 5.037598
777.1920, 77.75635
778.3350, 23.39160
779.4780, 108.4683
780.6200, 57.59668
781.7630, 56.34326
782.9060, 13.33008
784.0480, 39.65869
785.1900, 53.64355
786.3320, 115.6216
787.4740, 28.59473
788.6150, 62.43750
789.7570, 25.48193
790.8980, 99.39600
792.0390, 55.30469
793.1800, 117.2080
794.3210, 107.1069
795.4620, 86.00098
796.6020, 84.88965
797.7420, 73.92578
798.8830, 99.65381
800.0230, 89.52881
801.1620, 121.4033
802.3020, 191.2739
803.4420, 236.1396
804.5810, 260.0010
805.7200, 231.8579
806.8590, 264.0059
807.9980, 269.1401
809.1370, 278.1631
810.2750, 291.1860
811.4140, 287.6382
812.5520, 298.9160
813.6900, 270.7461
814.8280, 260.5718
815.9650, 225.3936
817.1030, 314.2124
818.2400, 376.0273
819.3780, 363.8384
820.5150, 341.6470
821.6520, 370.2812
822.7880, 347.3423
823.9250, 407.0532
825.0610, 328.8486
826.1980, 395.6406
827.3340, 385.4302
828.4700, 321.2168
829.6050, 369.0005
830.7410, 428.7812
831.8760, 443.5596
833.0120, 485.3354
834.1470, 414.1084
835.2820, 465.8799
836.4160, 476.6489
837.5510, 502.4155
838.6860, 556.1807
839.8200, 591.9546
840.9540, 549.7266
842.0880, 654.5010
843.2220, 623.2739
844.3550, 586.0444
845.4890, 645.8135
846.6220, 657.5806
847.7550, 553.3467
848.8880, 704.1104
850.0210, 732.8730
851.1540, 742.6338
852.2860, 880.4014
853.4190, 854.1709
854.5510, 901.2104
855.6830, 927.7065
856.8150, 917.4727
857.9460, 922.2402
859.0780, 889.0073
860.2090, 982.7744
861.3410, 867.5405
862.4720, 977.3062
863.6020, 1148.107
864.7330, 1002.907
865.8640, 1178.710
866.9940, 1176.513
868.1240, 1257.345
869.2540, 1182.187
870.3840, 1325.029
871.5140, 1326.144
872.6440, 1448.714
873.7730, 1428.556
874.9020, 1364.412
876.0320, 1457.269
877.1600, 1456.281
878.2890, 1626.982
879.4180, 1587.840
880.5460, 1704.511
881.6750, 1841.577
882.8030, 1797.451
883.9310, 1846.339
885.0590, 1870.233
886.1860, 1957.086
887.3140, 1976.989
888.4410, 2008.307
889.5680, 1966.976
890.6950, 2013.097
891.8220, 2005.342
892.9490, 1927.114
894.0750, 1883.973
895.2020, 1856.407
896.3280, 1904.084
897.4540, 1746.881
898.5800, 1755.612
899.7050, 1572.229
900.8310, 1706.343
901.9560, 1664.113
903.0820, 1577.591
904.2070, 1484.409
905.3320, 1376.405
906.4560, 1555.399
907.5810, 1543.434
908.7050, 1502.523
909.8300, 1405.538
910.9540, 1387.211
912.0780, 1336.399
913.2010, 1247.396
914.3250, 1269.609
915.4480, 1111.856
916.5720, 1085.963
917.6950, 1080.542
918.8180, 1110.854
919.9410, 1082.988
921.0630, 1034.148
922.1860, 1128.319
923.3080, 984.4771
924.4300, 980.8916
925.5520, 925.0664
926.6740, 846.2798
927.7960, 992.5039
928.9170, 760.7383
930.0390, 872.9839
931.1600, 755.2402
932.2810, 795.5063
933.4020, 890.7827
934.5230, 803.0703
935.6430, 914.2144
936.7640, 862.5371
937.8840, 809.8701
939.0040, 912.2139
940.1240, 806.5688
941.2440, 932.9336
942.3630, 760.3096
943.4830, 875.7031
944.6020, 940.1001
945.7210, 849.5088
946.8400, 993.9287
947.9590, 956.3594
949.0770, 897.8008
950.1960, 1008.253
951.3140, 1007.717
952.4320, 943.1909
953.5500, 1001.677
954.6680, 1124.174
955.7860, 886.6826
956.9030, 954.2021
958.0210, 991.7329
959.1380, 808.2754
960.2550, 978.8291
961.3720, 1149.394
962.4890, 1036.971
963.6050, 1011.559
964.7220, 1016.158
965.8380, 983.7690
966.9540, 1050.392
968.0700, 888.0264
969.1860, 922.8145
970.3010, 789.4717
971.4170, 859.1406
972.5320, 832.8218
973.6470, 755.0352
974.7620, 888.7397
975.8770, 930.4097
976.9910, 812.1377
978.1060, 826.8774
979.2200, 796.6284
980.3340, 747.3906
981.4480, 696.1646
982.5620, 692.9795
983.6760, 699.7480
984.7890, 668.5571
985.9030, 730.0703
987.0160, 690.4829
988.1290, 557.3276
989.2420, 600.1836
990.3550, 501.0518
991.4670, 697.4321
992.5800, 586.3232
993.6920, 618.2847
994.8040, 483.1987
995.9160, 523.1250
997.0280, 474.4409
998.1390, 464.0889
999.2510, 441.3081
1000.362, 471.8447
1001.473, 418.4521
1002.584, 410.0088
1003.695, 480.0132
1004.805, 464.0283
1005.916, 469.0537
1007.026, 474.0898
1008.136, 476.2310
1009.246, 464.7378
1010.356, 493.3574
1011.466, 433.4365
1012.576, 466.5259
1013.685, 457.9961
1014.794, 478.1060
1015.903, 490.8735
1017.012, 494.6099
1018.121, 511.3398
1019.229, 504.4912
1020.338, 587.8320
1021.446, 596.7559
1022.554, 567.5039
1023.662, 582.7051
1024.770, 564.3618
1025.878, 592.1787
1026.985, 551.5029
1028.092, 560.1797
1029.200, 581.8291
1030.307, 706.2061
1031.413, 683.8789
1032.520, 719.3462
1033.627, 663.8521
1034.733, 632.9355
1035.839, 696.5044
1036.945, 585.8203
1038.051, 615.7676
1039.157, 567.4907
1040.262, 597.2119
1041.368, 631.1865
1042.473, 531.9355
1043.578, 623.6934
1044.683, 537.4800
1045.788, 569.2798
1046.893, 423.1147
1047.997, 485.9590
1049.101, 499.8457
1050.205, 448.7407
1051.309, 407.6646
1052.413, 409.6064
1053.517, 360.3687
1054.621, 427.3262
1055.724, 355.3301
1056.827, 219.8604
1057.930, 301.8633
1059.033, 247.8735
1060.136, 167.8916
1061.238, 198.9170
1062.341, 176.0957
1063.443, 197.1367
1064.545, 184.1851
1065.647, 218.2397
1066.749, 76.30225
1067.850, 37.62793
1068.952, 127.6982
1070.053, 85.77295
1071.154, 169.8555
1072.255, 47.94482
1073.356, 157.0405
1074.457, 147.1431
1075.557, 2.252441
1076.658, 43.36768
1077.758, 156.4897
1078.858, 3.618164
1079.958, 89.75293
1081.057, 21.89355
1082.157, 47.04102
1083.256, 101.1948
1084.356, 101.3545
1085.455, 18.52100
1086.554, 118.6924
1087.653, 29.87061
1088.751, 79.05420
1089.850, 89.24365
1090.948, 107.4390
1092.046, 95.41748
1093.144, 95.29004
1094.242, 82.05957
1095.340, 69.27734
1096.437, 141.5010
1097.534, 126.7295
1098.632, 81.96338
1099.729, 175.2026
1100.826, 7.552734
1101.922, 48.69482
1103.019, 85.94727
1104.115, 139.2051
1105.212, 58.53271
1106.308, 125.7119
1107.404, 28.03955
1108.499, 79.20410
1109.595, 9.452637
1110.691, 14.70557
1111.786, 91.96289
1112.881, 188.2236
1113.976, 57.48975
1115.071, 106.7593
1116.166, 121.0332
1117.260, 38.68848
1118.355, 16.42285
1119.449, 96.84082
1120.543, 103.1079
1121.637, 99.65771
1122.731, 13.34717
1123.824, 65.92529
1124.918, 0.7988280
1126.011, 24.47852
1127.104, 37.75977
1128.197, 140.9561
1129.290, 36.25977
1130.382, 11.52246
1131.475, 14.69287
1132.567, 111.0889
1133.659, 45.92529
1134.751, 80.21729
1135.843, 67.36279
1136.935, 27.51074
1138.027, 93.66113
1139.118, 52.18652
1140.209, 11.94043
1141.300, 16.07031
1142.391, 10.20117
1143.482, 84.33496
1144.573, 38.52979
1145.663, 9.585449
1146.754, 9.297363
1147.844, 52.18555
1148.934, 13.10156
1150.024, 36.97559
1151.113, 64.94727
1152.203, 25.90430
1153.292, 5.877441
1154.381, 126.1450
1155.470, 57.16943
1156.559, 22.19531
1157.648, 5.220703
1158.737, 17.75391
1159.825, 0.2583010
1160.913, 40.26709
1162.001, 30.71777
1163.089, 36.27734
1164.177, 9.273438
1165.265, 18.71289
1166.352, 65.28955
1167.440, 20.70947
1168.527, 29.72363
1169.614, 9.248047
1170.701, 11.21680
1171.788, 27.81641
1172.874, 20.12842
1173.961, 36.07178
1175.047, 103.0176
1176.133, 41.96436
1177.219, 56.90967
1178.305, 66.85254
1179.390, 151.8076
1180.476, 119.7617
1181.561, 106.7129
1182.646, 92.66309
1183.731, 49.38965
1184.816, 47.52148
1185.901, 15.43896
1186.985, 3.353516
1188.070, 127.2583
1189.154, 190.1753
1190.238, 130.0903
1191.322, 227.0024
1192.406, 13.91211
1193.489, 151.8164
1194.573, 119.7183
1195.656, 77.21338
1196.739, 243.5156
1197.822, 154.4160
1198.905, 37.52441
1199.988, 199.3491
1201.070, 236.2251
1202.153, 130.1108
1203.235, 177.9946
1204.317, 254.8784
1205.399, 264.7593
1206.481, 153.6304
1207.562, 279.5063
1208.644, 250.3804
1209.725, 96.25293
1210.806, 152.1250
1211.887, 169.9941
1212.968, 215.8604
1214.049, 231.5898
1215.129, 187.5859
1216.209, 242.4438
1217.290, 197.7017
1218.370, 165.1699
1219.450, 173.0376
1220.529, 161.9023
1221.609, 172.7627
1222.688, 206.6201
1223.768, 201.5835
1224.847, 176.3198
1225.926, 222.1641
1227.005, 209.0068
1228.083, 223.8462
1229.162, 156.6807
1230.240, 162.5112
1231.318, 221.1953
1232.396, 99.01611
1233.474, 247.8325
1234.552, 202.6450
1235.629, 122.9321
1236.707, 121.7339
1237.784, 99.17139
1238.861, 144.3691
1239.938, 115.1548
1241.015, 116.9360
1242.092, 146.7119
1243.168, 180.4829
1244.244, 64.24951
1245.321, 167.0098
1246.397, 214.7642
1247.473, 108.8213
1248.548, 60.98340
1249.624, 119.7188
1250.699, 122.4478
1251.775, 81.17529
1252.850, 64.39502
1253.925, 135.1167
1254.999, 209.7734
1256.074, 186.4810
1257.148, 126.1802
1258.223, 136.4941
1259.297, 114.1792
1260.371, 67.33447
1261.445, 89.00488
1262.519, 92.12500
1263.592, 86.00342
1264.666, 149.7886
1265.739, 162.4326
1266.812, 174.0684
1267.885, 201.3472
1268.958, 215.3052
1270.030, 211.8340
1271.103, 281.4375
1272.175, 272.0322
1273.247, 344.6187
1274.319, 282.8252
1275.391, 260.4214
1276.463, 410.3335
1277.535, 246.5781
1278.606, 344.2773
1279.677, 294.8071
1280.748, 340.1479
1281.819, 326.9062
1282.890, 426.8486
1283.961, 349.7236
1285.031, 371.2041
1286.102, 438.6738
1287.172, 412.0708
1288.242, 488.1538
1289.312, 499.4771
1290.381, 565.3652
1291.451, 497.6782
1292.520, 561.4897
1293.590, 597.2568
1294.659, 581.0771
1295.728, 749.5557
1296.797, 722.6479
1297.865, 599.5166
1298.934, 672.9053
1300.002, 761.4805
1301.070, 685.6548
1302.138, 746.1470
1303.206, 726.5190
1304.274, 860.7393
1305.341, 688.2583
1306.409, 751.7139
1307.476, 718.4458
1308.543, 806.0088
1309.610, 646.5449
1310.677, 821.3037
1311.744, 698.7109
1312.810, 867.4399
1313.877, 840.7896
1314.943, 856.3037
1316.009, 863.2944
1317.075, 811.0669
1318.140, 788.6758
1319.206, 776.1460
1320.272, 785.7656
1321.337, 904.0708
1322.402, 919.6431
1323.467, 903.3979
1324.532, 977.8599
1325.596, 796.7964
1326.661, 1079.299
1327.725, 997.4111
1328.790, 894.8657
1329.854, 796.6299
1330.918, 867.2305
1331.981, 979.5659
1333.045, 886.1445
1334.108, 974.5146
1335.172, 897.4678
1336.235, 985.2666
1337.298, 950.2637
1338.361, 931.2485
1339.423, 906.8682
1340.486, 892.0161
1341.548, 875.2588
1342.611, 846.8408
1343.673, 890.1973
1344.735, 820.9697
1345.796, 891.9409
1346.858, 920.6338
1347.919, 852.2051
1348.981, 885.6108
1350.042, 876.9321
1351.103, 857.2529
1352.164, 858.5718
1353.225, 828.8755
1354.285, 815.9673
1355.346, 741.6699
1356.406, 812.8979
1357.466, 687.2715
1358.526, 665.4937
1359.586, 686.7808
1360.645, 759.9888
1361.705, 727.5391
1362.764, 689.6943
1363.823, 645.8540
1364.882, 655.9873
1365.941, 708.0811
1367.000, 695.1670
1368.059, 710.2437
1369.117, 734.5605
1370.175, 697.0718
1371.233, 610.0293
1372.291, 559.6777
1373.349, 625.4434
1374.407, 658.0840
1375.464, 659.6553
1376.522, 537.0962
1377.579, 574.7681
1378.636, 549.3096
1379.693, 520.0820
1380.750, 582.1504
1381.806, 477.4712
1382.863, 536.0928
1383.919, 529.5029
1384.975, 552.7056
1386.031, 511.4150
1387.087, 489.9453
1388.143, 533.0811
1389.199, 540.3999
1390.254, 492.2866
1391.309, 517.3076
1392.364, 410.1621
1393.419, 418.9258
1394.474, 477.6729
1395.529, 431.8516
1396.583, 457.8691
1397.638, 343.8662
1398.692, 203.0371
1399.746, 229.1729
1400.800, 333.2666
1401.853, 98.33350
1402.907, 272.3198
1403.960, 410.2622
1405.014, 93.17090
1406.067, 143.0337
1407.120, 190.8525
1408.173, 259.6426
1409.225, 240.6499
1410.278, 31.12305
1411.330, 221.8179
1412.383, 108.4878
1413.435, 138.1528
1414.487, 206.6724
1415.538, 62.19336
1416.590, 7.274414
1417.641, 79.22168
1418.693, 36.72656
1419.744, 52.75635
1420.795, 1.771973
1421.846, 101.3057
1422.897, 36.82666
1423.947, 10.66797
1424.998, 145.8188
1426.048, 76.30176
1427.098, 162.8105
1428.148, 99.31250
1429.198, 4.782715
1430.247, 11.25049
1431.297, 93.71680
1432.346, 109.1772
1433.396, 33.38965
1434.445, 84.05957
1435.494, 90.46680
1436.542, 49.86084
1437.591, 169.2485
1438.639, 89.62305
1439.688, 10.01562
1440.736, 87.33740
1441.784, 88.68359
1442.832, 32.00293
1443.880, 74.27637
1444.927, 107.5498
1445.975, 71.81982
1447.022, 112.2993
1448.069, 83.33008
1449.116, 54.57568
1450.163, 109.8193
1451.209, 0.9423830
1452.256, 9.705566
1453.302, 172.5322
1454.348, 10.77051
1455.394, 28.99463
1456.440, 78.24121
1457.486, 16.48193
1458.532, 83.72949
1459.577, 133.9707
1460.623, 40.19678
1461.668, 54.43457
1462.713, 37.68701
1463.758, 39.18896
1464.802, 77.23535
1465.847, 93.52930
1466.891, 51.84473
1467.936, 85.18604
1468.980, 139.5562
1470.024, 61.96143
1471.067, 43.64746
1472.111, 72.74707
1473.155, 90.27979
1474.198, 130.8657
1475.241, 183.7480
1476.284, 168.7217
1477.327, 163.7778
1478.370, 165.2573
1479.413, 30.97949
1480.455, 60.34521
1481.497, 206.0928
1482.540, 109.0786
1483.582, 170.2441
1484.624, 124.4985
1485.665, 143.3872
1486.707, 63.21094
1487.748, 140.0396
1488.790, 178.6431
1489.831, 203.1631
1490.872, 180.6694
1491.912, 177.4043
1492.953, 212.0547
1493.994, 73.86865
1495.034, 75.44092
1496.074, 79.30762
1497.114, 215.6748
1498.154, 54.41602
1499.194, 143.9692
1500.234, 171.6982
1501.273, 199.3008
1502.313, 152.3062
1503.352, 4.067383
1504.391, 182.5493
1505.430, 16.52930
1506.468, 103.2407
1507.507, 134.9463
1508.545, 142.3618
1509.584, 128.2778
1510.622, 56.73975
1511.660, 98.12793
1512.698, 207.7661
1513.735, 141.0142
1514.773, 1.780762
1515.810, 105.1851
1516.848, 134.0078
1517.885, 83.52881
1518.922, 177.4092
1519.958, 64.84863
1520.995, 282.0054
1522.032, 26.71777
1523.068, 144.9473
1524.104, 78.87988
1525.140, 191.5200
1526.176, 151.7861
1527.212, 111.3604
1528.248, 227.7695
1529.283, 66.42285
1530.318, 93.96240
1531.353, 156.6064
1532.389, 66.63086
1533.423, 96.00391
1534.458, 62.12988
1535.493, 0.4726560
1536.527, 41.18066
1537.561, 0.0000000E+00
##END=



