##NAMES=Aenigmatite
##RRUFFID=R061088
##IDEAL CHEMISTRY=Na_4_(Fe^2+^_10_Ti^4+^_2_)O_4_[Si_12_O_36_]
##LOCALITY=Naujakasik, Greenland
##OWNER=RRUFF
##SOURCE=Michael Scott
##DESCRIPTION=Black prismatic crystals
##STATUS=The identification of this mineral has been confirmed by X-ray diffraction and chemical analysis
##URL=rruff.info/R061088
##MEASURED CHEMISTRY=(Na_1.72_Ca_0.28_)_Σ=2_(Fe^2+^_4.90_Mn_0.08_Mg_0.02_)_Σ=5_(Ti_0.85_Al_0.14_Fe^3+^_0.01_)_Σ=1_(Si_5.87_Al_0.13_)_Σ=6_O_20_
##PIN_ID=L01498
##ORIENTATION=Laser parallel to -c* (0 0 -1). Fiducial mark perpendicular to laser is parallel to a [1 0 0]
126.3640, 0.0000000E+00
127.5960, 32.91602
128.8270, 3.577148
130.0580, 167.4473
131.2880, 350.6582
132.5190, 297.9023
133.7500, 359.4883
134.9800, 306.0254
136.2100, 389.1836
137.4400, 683.9922
138.6700, 942.4502
139.9000, 973.7109
141.1290, 1023.227
142.3590, 1011.693
143.5880, 1032.215
144.8170, 1041.978
146.0460, 1325.796
147.2750, 1230.044
148.5030, 1363.190
149.7320, 1377.840
150.9600, 1689.706
152.1880, 1654.641
153.4160, 1695.834
154.6440, 1670.417
155.8720, 1568.381
157.0990, 1483.894
158.3270, 1465.915
159.5540, 1435.095
160.7810, 1420.510
162.0080, 1475.093
163.2350, 1475.424
164.4610, 1546.005
165.6880, 1430.312
166.9140, 1220.149
168.1400, 1117.595
169.3660, 1061.699
170.5920, 851.0381
171.8180, 957.1855
173.0430, 573.7129
174.2690, 512.2109
175.4940, 521.8223
176.7190, 490.7090
177.9440, 339.3359
179.1680, 399.0684
180.3930, 337.6641
181.6170, 243.9365
182.8420, 310.7061
184.0660, 310.1064
185.2900, 407.9814
186.5140, 408.2812
187.7370, 480.0762
188.9610, 544.7090
190.1840, 579.0430
191.4070, 513.7773
192.6300, 592.5703
193.8530, 615.5254
195.0760, 643.7373
196.2980, 738.3848
197.5210, 697.6045
198.7430, 792.1689
199.9650, 829.9248
201.1870, 873.3286
202.4090, 845.5151
203.6310, 826.9409
204.8520, 860.6289
206.0730, 863.1055
207.2950, 816.9844
208.5160, 834.1816
209.7360, 736.0557
210.9570, 737.9170
212.1780, 782.7495
213.3980, 736.9072
214.6180, 752.5952
215.8380, 745.0645
217.0580, 629.0591
218.2780, 700.2114
219.4980, 690.3628
220.7170, 617.2397
221.9360, 548.9434
223.1560, 533.4746
224.3750, 539.9463
225.5930, 449.7085
226.8120, 441.1792
228.0310, 393.3652
229.2490, 359.6802
230.4670, 300.0229
231.6850, 249.9409
232.9030, 177.2158
234.1210, 282.8262
235.3380, 197.6973
236.5560, 213.1328
237.7730, 71.96924
238.9900, 203.6963
240.2070, 197.0718
241.4240, 132.4097
242.6410, 131.6104
243.8570, 100.6729
245.0730, 31.84326
246.2900, 115.8062
247.5060, 142.4277
248.7210, 52.84619
249.9370, 63.88184
251.1530, 92.40430
252.3680, 32.81982
253.5830, 2.117676
254.7980, 1.098145
256.0130, 102.6270
257.2280, 68.91797
258.4430, 89.96777
259.6570, 113.2700
260.8720, 59.36426
262.0860, 149.1401
263.3000, 97.40967
264.5130, 102.0044
265.7270, 81.80811
266.9410, 117.7554
268.1540, 136.3599
269.3670, 99.11670
270.5800, 130.3120
271.7930, 168.3633
273.0060, 73.85742
274.2190, 46.87744
275.4310, 43.01123
276.6430, 102.3281
277.8550, 20.14355
279.0670, 72.07324
280.2790, 97.52686
281.4910, 157.9434
282.7020, 217.2295
283.9140, 190.5649
285.1250, 202.6226
286.3360, 182.7817
287.5470, 231.7124
288.7570, 191.5659
289.9680, 292.3306
291.1780, 329.9971
292.3880, 334.9316
293.5990, 323.0972
294.8080, 357.4248
296.0180, 364.6870
297.2280, 352.9307
298.4370, 376.8911
299.6470, 418.8110
300.8560, 384.5239
302.0650, 493.1084
303.2740, 426.5815
304.4820, 400.9102
305.6910, 488.0898
306.8990, 531.1577
308.1070, 480.0371
309.3150, 461.7998
310.5230, 480.3867
311.7310, 506.2129
312.9390, 496.8003
314.1460, 490.4238
315.3530, 445.9497
316.5600, 443.7490
317.7670, 395.2007
318.9740, 360.8247
320.1810, 325.1445
321.3870, 272.7524
322.5930, 248.7778
323.8000, 290.1650
325.0060, 173.0737
326.2110, 88.15918
327.4170, 210.0771
328.6230, 127.4336
329.8280, 124.0093
331.0330, 32.95996
332.2380, 62.05957
333.4430, 57.29053
334.6480, 81.82764
335.8530, 97.23730
337.0570, 105.9189
338.2610, 87.49902
339.4650, 103.0830
340.6690, 104.8130
341.8730, 105.3643
343.0770, 124.8926
344.2800, 108.5957
345.4840, 127.2471
346.6870, 131.6367
347.8900, 120.0552
349.0930, 176.3418
350.2950, 136.5488
351.4980, 119.6777
352.7000, 208.7266
353.9030, 249.7021
355.1050, 159.6108
356.3070, 251.4497
357.5080, 278.2227
358.7100, 238.9321
359.9110, 281.5796
361.1130, 290.7354
362.3140, 367.6895
363.5150, 340.1553
364.7160, 326.5630
365.9160, 352.9121
367.1170, 349.2002
368.3170, 365.7217
369.5170, 345.5776
370.7170, 395.6626
371.9170, 361.6636
373.1170, 361.4390
374.3170, 313.9546
375.5160, 259.0991
376.7150, 331.9316
377.9140, 385.2236
379.1130, 283.0044
380.3120, 450.2881
381.5110, 324.6055
382.7090, 313.1548
383.9070, 389.2559
385.1060, 397.2324
386.3040, 449.5981
387.5010, 380.9023
388.6990, 284.7549
389.8970, 248.5664
391.0940, 364.5205
392.2910, 267.7129
393.4880, 286.2798
394.6850, 423.1592
395.8820, 403.2842
397.0780, 300.1230
398.2750, 313.8638
399.4710, 324.7847
400.6670, 224.1748
401.8630, 292.6621
403.0590, 363.8081
404.2540, 250.4746
405.4500, 413.5054
406.6450, 247.8931
407.8400, 242.5181
409.0350, 177.8486
410.2300, 185.4478
411.4250, 193.7979
412.6190, 59.99268
413.8140, 114.5400
415.0080, 51.14990
416.2020, 27.60352
417.3960, 79.48486
418.5900, 167.1992
419.7830, 141.0801
420.9770, 114.8872
422.1700, 202.0234
423.3630, 155.2354
424.5560, 166.7314
425.7490, 194.7168
426.9410, 175.0078
428.1340, 325.1025
429.3260, 189.1826
430.5180, 256.0508
431.7100, 301.1045
432.9020, 236.8862
434.0940, 293.0479
435.2850, 278.2949
436.4770, 192.4902
437.6680, 314.5645
438.8590, 197.7119
440.0500, 170.8198
441.2410, 284.8916
442.4310, 185.0864
443.6220, 213.9727
444.8120, 251.8892
446.0020, 195.5835
447.1920, 216.9473
448.3820, 238.8862
449.5710, 187.6382
450.7610, 190.7593
451.9500, 178.8794
453.1390, 152.6694
454.3280, 99.47461
455.5170, 91.32617
456.7060, 47.07666
457.8940, 21.73877
459.0830, 162.1523
460.2710, 162.5010
461.4590, 202.5913
462.6470, 168.4844
463.8350, 65.17529
465.0220, 178.5908
466.2100, 48.85596
467.3970, 126.2393
468.5840, 44.83447
469.7710, 44.28174
470.9580, 136.0806
472.1440, 44.05566
473.3310, 188.9448
474.5170, 65.34473
475.7030, 65.85059
476.8890, 52.83350
478.0750, 123.1187
479.2610, 61.38428
480.4460, 65.78711
481.6320, 228.8447
482.8170, 45.21289
484.0020, 188.6147
485.1870, 211.0215
486.3710, 223.7007
487.5560, 168.1519
488.7400, 256.8374
489.9250, 210.5752
491.1090, 230.2007
492.2930, 318.3809
493.4760, 368.2446
494.6600, 315.8975
495.8440, 274.3774
497.0270, 354.0737
498.2100, 245.1475
499.3930, 320.8301
500.5760, 422.6250
501.7580, 324.2593
502.9410, 289.0576
504.1230, 387.8896
505.3060, 377.0278
506.4880, 369.0435
507.6690, 314.9888
508.8510, 315.0474
510.0330, 285.0854
511.2140, 367.1968
512.3950, 477.2437
513.5760, 404.4932
514.7570, 524.5977
515.9380, 433.6895
517.1190, 396.5723
518.2990, 471.2168
519.4800, 444.1592
520.6600, 511.3252
521.8400, 669.0586
523.0190, 674.4863
524.1990, 692.3828
525.3790, 707.2388
526.5580, 805.4082
527.7370, 688.6123
528.9160, 719.0396
530.0950, 817.1797
531.2740, 771.9214
532.4520, 771.5308
533.6310, 740.6284
534.8090, 797.3208
535.9870, 699.1045
537.1650, 758.4702
538.3430, 726.8340
539.5200, 690.8174
540.6980, 787.8936
541.8750, 790.0488
543.0520, 764.3154
544.2290, 782.5088
545.4060, 707.5996
546.5820, 701.7710
547.7590, 689.5620
548.9350, 681.1353
550.1110, 676.9902
551.2870, 706.5010
552.4630, 678.8169
553.6390, 692.2612
554.8140, 715.2480
555.9900, 687.5459
557.1650, 644.6768
558.3400, 587.9067
559.5150, 609.3438
560.6900, 594.2046
561.8640, 662.0107
563.0390, 622.7134
564.2130, 495.8247
565.3870, 524.7505
566.5610, 561.7324
567.7350, 446.8354
568.9080, 498.8584
570.0820, 370.1108
571.2550, 391.2002
572.4280, 338.4448
573.6010, 216.6841
574.7740, 133.9199
575.9470, 149.1509
577.1190, 142.3760
578.2920, 225.5000
579.4640, 174.7148
580.6360, 117.8672
581.8080, 3.088379
582.9790, 9.890625
584.1510, 36.78271
585.3220, 21.39551
586.4940, 21.43066
587.6650, 88.28467
588.8360, 63.85059
590.0060, 65.01855
591.1770, 8.052246
592.3470, 78.86035
593.5180, 93.15430
594.6880, 41.06348
595.8580, 6.754395
597.0280, 29.41553
598.1970, 23.89600
599.3670, 94.27588
600.5360, 10.25391
601.7050, 98.44775
602.8740, 158.3828
604.0430, 191.4858
605.2120, 117.0776
606.3800, 181.3823
607.5490, 189.7930
608.7170, 196.2441
609.8850, 279.6294
611.0530, 221.0322
612.2210, 303.5059
613.3880, 398.2085
614.5560, 357.0610
615.7230, 276.0586
616.8900, 400.2041
618.0570, 454.5977
619.2240, 476.0933
620.3900, 568.1216
621.5570, 591.8306
622.7230, 556.5269
623.8890, 615.2393
625.0550, 736.3301
626.2210, 799.6787
627.3870, 924.9019
628.5520, 827.3896
629.7180, 1027.697
630.8830, 1118.352
632.0480, 1142.114
633.2130, 1409.348
634.3770, 1422.817
635.5420, 1726.571
636.7060, 1974.393
637.8710, 1944.039
639.0350, 2101.738
640.1990, 2235.676
641.3620, 2449.573
642.5260, 2569.095
643.6890, 2577.711
644.8530, 2735.057
646.0160, 2845.712
647.1790, 2963.255
648.3410, 3070.528
649.5040, 3210.692
650.6670, 3248.122
651.8290, 3164.882
652.9910, 3279.501
654.1530, 3279.715
655.3150, 3196.191
656.4770, 3339.489
657.6380, 3380.720
658.7990, 3344.128
659.9610, 3460.518
661.1220, 3446.049
662.2830, 3456.214
663.4430, 3502.226
664.6040, 3576.527
665.7640, 3526.728
666.9240, 3637.620
668.0850, 3626.664
669.2440, 3642.798
670.4040, 3660.056
671.5640, 3669.387
672.7230, 3722.234
673.8830, 3647.349
675.0420, 3613.793
676.2010, 3556.939
677.3590, 3455.667
678.5180, 3365.760
679.6770, 3277.848
680.8350, 3122.930
681.9930, 3115.006
683.1510, 3029.078
684.3090, 2785.955
685.4670, 2760.004
686.6240, 2705.794
687.7810, 2624.774
688.9390, 2436.578
690.0960, 2386.737
691.2530, 2281.473
692.4090, 2174.007
693.5660, 2143.608
694.7220, 1971.111
695.8790, 1939.470
697.0350, 1851.647
698.1910, 1789.566
699.3460, 1671.796
700.5020, 1571.162
701.6570, 1526.375
702.8130, 1419.214
703.9680, 1339.152
705.1230, 1275.080
706.2780, 1221.997
707.4320, 1206.904
708.5870, 1273.800
709.7410, 1171.684
710.8950, 1296.558
712.0490, 1142.420
713.2030, 1071.270
714.3570, 1183.109
715.5100, 1105.936
716.6640, 1167.751
717.8170, 874.5552
718.9700, 1116.348
720.1230, 795.1289
721.2760, 864.8154
722.4280, 771.3984
723.5810, 784.3867
724.7330, 685.1226
725.8850, 640.4570
727.0370, 612.6152
728.1890, 674.3179
729.3400, 606.3452
730.4920, 573.0264
731.6430, 619.5034
732.7940, 466.1626
733.9450, 477.8115
735.0960, 433.4517
736.2460, 391.0825
737.3970, 283.7051
738.5470, 303.3193
739.6970, 395.9243
740.8470, 266.5181
741.9970, 316.1016
743.1470, 306.6743
744.2970, 166.2378
745.4460, 134.7915
746.5950, 107.3359
747.7440, 82.29639
748.8930, 42.30225
750.0420, 114.9087
751.1900, 7.588379
752.3390, 8.888672
753.4870, 50.34668
754.6350, 33.20703
755.7830, 79.19873
756.9310, 27.39893
758.0780, 84.03564
759.2260, 103.7402
760.3730, 114.9497
761.5200, 88.38916
762.6670, 25.32568
763.8140, 29.30078
764.9610, 98.68457
766.1070, 36.65723
767.2530, 3.617188
768.4000, 129.4463
769.5460, 19.60205
770.6910, 106.7930
771.8370, 0.9360350
772.9830, 67.35986
774.1280, 36.71436
775.2730, 18.11328
776.4180, 17.45508
777.5630, 38.99365
778.7080, 54.48633
779.8520, 27.96973
780.9970, 18.58887
782.1410, 67.82031
783.2850, 3.783203
784.4290, 21.58887
785.5730, 46.05371
786.7160, 12.74268
787.8600, 48.46143
789.0030, 103.2275
790.1460, 5.070801
791.2890, 14.93848
792.4320, 21.16455
793.5750, 61.25391
794.7170, 75.33203
795.8590, 31.39941
797.0020, 3.545410
798.1440, 14.48682
799.2850, 109.5054
800.4270, 118.5146
801.5690, 132.5132
802.7100, 68.50195
803.8510, 2.480957
804.9920, 0.5585940
806.1330, 170.3828
807.2740, 60.31494
808.4140, 163.2363
809.5550, 153.1484
810.6950, 128.0518
811.8350, 235.9453
812.9750, 169.8296
814.1150, 141.7051
815.2540, 195.5713
816.3940, 240.4287
817.5330, 152.2764
818.6720, 266.1162
819.8110, 292.9468
820.9500, 391.7686
822.0880, 304.5820
823.2270, 292.3872
824.3650, 252.1836
825.5030, 353.9712
826.6410, 351.7505
827.7790, 413.5220
828.9170, 473.2847
830.0540, 465.0396
831.1920, 472.7866
832.3290, 520.5254
833.4660, 495.2568
834.6030, 559.9800
835.7390, 641.6953
836.8760, 610.4028
838.0120, 571.1050
839.1480, 554.8003
840.2840, 592.4878
841.4200, 625.1685
842.5560, 540.8418
843.6920, 674.5078
844.8270, 629.1670
845.9620, 573.8184
847.0970, 644.4639
848.2320, 700.1021
849.3670, 763.7334
850.5020, 848.3594
851.6360, 752.9790
852.7700, 835.5923
853.9040, 759.1992
855.0380, 852.8013
856.1720, 878.4150
857.3060, 931.0239
858.4390, 902.6421
859.5730, 889.2617
860.7060, 901.8799
861.8390, 916.5015
862.9720, 994.1201
864.1040, 884.7451
865.2370, 964.3647
866.3690, 938.9873
867.5010, 925.6323
868.6330, 987.2822
869.7650, 1029.928
870.8970, 1021.454
872.0290, 1003.205
873.1600, 1033.840
874.2910, 1017.472
875.4220, 1046.116
876.5530, 1054.757
877.6840, 1179.393
878.8140, 1199.025
879.9450, 1227.652
881.0750, 1240.276
882.2050, 1238.896
883.3350, 1225.513
884.4650, 1344.021
885.5950, 1291.358
886.7240, 1309.963
887.8530, 1238.853
888.9820, 1322.681
890.1110, 1290.037
891.2400, 1299.274
892.3690, 1274.747
893.4970, 1222.322
894.6260, 1178.348
895.7540, 1141.127
896.8820, 1099.195
898.0100, 1074.920
899.1370, 1045.094
900.2650, 1032.123
901.3920, 1013.719
902.5200, 979.0620
903.6470, 994.6030
904.7730, 921.8237
905.9000, 995.9536
907.0270, 934.6328
908.1530, 1027.092
909.2790, 1027.291
910.4050, 862.4248
911.5310, 851.7388
912.6570, 841.0215
913.7830, 883.0767
914.9080, 863.1743
916.0330, 863.2104
917.1580, 837.0352
918.2830, 812.1631
919.4080, 742.0508
920.5330, 749.5176
921.6570, 726.2568
922.7820, 700.1074
923.9060, 777.7368
925.0300, 860.9521
926.1540, 767.3535
927.2770, 823.1611
928.4010, 743.7075
929.5240, 725.4351
930.6470, 837.2319
931.7700, 780.8564
932.8930, 714.5098
934.0160, 672.0234
935.1380, 732.9067
936.2610, 759.7974
937.3830, 723.6943
938.5050, 781.3657
939.6270, 780.3647
940.7490, 786.7314
941.8700, 789.6597
942.9910, 761.9497
944.1130, 630.4761
945.2340, 707.4292
946.3550, 623.3906
947.4750, 608.3608
948.5960, 726.3384
949.7160, 659.3247
950.8370, 825.3184
951.9570, 699.3208
953.0770, 665.3306
954.1970, 738.3501
955.3160, 693.3770
956.4360, 856.4126
957.5550, 649.4561
958.6740, 597.5093
959.7930, 783.5703
960.9120, 811.6401
962.0310, 740.7188
963.1490, 751.8057
964.2670, 873.9023
965.3860, 870.0073
966.5040, 1035.121
967.6210, 1028.244
968.7390, 1075.194
969.8570, 992.5229
970.9740, 1100.673
972.0910, 1133.197
973.2080, 1095.365
974.3250, 1177.542
975.4420, 1125.729
976.5580, 1215.924
977.6750, 1255.130
978.7910, 1405.344
979.9070, 1285.568
981.0230, 1249.803
982.1390, 1474.046
983.2540, 1521.302
984.3700, 1372.695
985.4850, 1394.982
986.6000, 1465.279
987.7150, 1432.586
988.8300, 1435.879
989.9450, 1354.409
991.0590, 1379.745
992.1730, 1326.659
993.2880, 1284.136
994.4010, 1289.500
995.5150, 1227.992
996.6290, 1178.374
997.7420, 1354.766
998.8560, 1306.168
999.9690, 1265.586
1001.082, 1257.379
1002.195, 1208.826
1003.307, 1200.281
1004.420, 1219.745
1005.532, 1324.218
1006.645, 1267.448
1007.757, 1299.947
1008.868, 1256.336
1009.980, 1235.845
1011.092, 1221.362
1012.203, 1231.436
1013.314, 1366.423
1014.425, 1304.968
1015.536, 1355.520
1016.647, 1444.081
1017.758, 1370.651
1018.868, 1434.229
1019.978, 1402.818
1021.088, 1413.416
1022.198, 1491.031
1023.308, 1533.659
1024.418, 1300.671
1025.527, 1338.155
1026.637, 1347.297
1027.746, 1333.290
1028.855, 1208.640
1029.963, 1222.321
1031.072, 1184.918
1032.181, 1142.524
1033.289, 1175.777
1034.397, 1067.108
1035.505, 1100.106
1036.613, 1078.178
1037.721, 1084.781
1038.828, 1046.203
1039.935, 1112.000
1041.043, 930.0293
1042.150, 988.3423
1043.257, 932.4565
1044.363, 900.5664
1045.470, 900.9277
1046.576, 843.4248
1047.682, 881.6396
1048.788, 830.8213
1049.894, 888.0757
1051.000, 772.0811
1052.106, 720.3027
1053.211, 699.6074
1054.316, 571.8477
1055.421, 588.1113
1056.526, 523.3750
1057.631, 629.6953
1058.736, 463.0381
1059.840, 474.4492
1060.944, 486.8203
1062.049, 401.1987
1063.153, 488.5825
1064.256, 418.9727
1065.360, 504.2021
1066.463, 409.6104
1067.567, 434.0259
1068.670, 310.4458
1069.773, 321.8716
1070.876, 355.3022
1071.978, 298.7388
1073.081, 245.1831
1074.183, 243.7461
1075.285, 255.2061
1076.387, 253.1724
1077.489, 210.6416
1078.591, 206.1147
1079.692, 249.5923
1080.794, 53.07520
1081.895, 50.56201
1082.996, 101.0679
1084.097, 167.5630
1085.198, 99.06201
1086.298, 158.5186
1087.399, 38.07178
1088.499, 171.5830
1089.599, 135.0977
1090.699, 105.6162
1091.799, 58.13818
1092.898, 80.66357
1093.998, 55.34668
1095.097, 59.36377
1096.196, 52.26172
1097.295, 79.80078
1098.394, 85.34375
1099.492, 107.8892
1100.591, 41.43799
1101.689, 1.989746
1102.787, 81.54395
1103.885, 17.89893
1104.983, 142.6572
1106.081, 91.21533
1107.178, 130.7764
1108.275, 96.33984
1109.373, 103.9053
1110.470, 55.47705
1111.566, 97.07520
1112.663, 7.749512
1113.760, 111.3374
1114.856, 15.34570
1115.952, 7.031250
1117.048, 27.32129
1118.144, 57.06201
1119.240, 19.64355
1120.335, 7.732422
1121.431, 76.14990
1122.526, 85.39844
1123.621, 68.05273
1124.716, 27.52490
1125.810, 45.98389
1126.905, 43.46094
1127.999, 76.02979
1129.094, 7.520996
1130.188, 65.04883
1131.282, 11.45020
1132.375, 108.0562
1133.469, 59.63281
1134.562, 116.0718
1135.656, 59.92773
1136.749, 22.97070
1137.842, 14.58936
1138.935, 1.970703
1140.027, 64.59863
1141.120, 48.79785
1142.212, 31.31152
1143.304, 50.70752
1144.396, 31.10352
1145.488, 32.49854
1146.579, 7.893555
1147.671, 19.28809
1148.762, 49.68262
1149.853, 129.0762
1150.944, 58.46924
1152.035, 93.02490
1153.126, 86.02441
1154.216, 75.64600
1155.307, 56.03662
1156.397, 53.42578
1157.487, 17.81348
1158.577, 52.79443
1159.667, 14.56299
1160.756, 88.91846
1161.846, 62.72803
1162.935, 18.40723
1164.024, 35.89648
1165.113, 4.214355
1166.201, 7.473633
1167.290, 28.17383
1168.378, 71.89746
1169.467, 26.66797
1170.555, 51.46143
1171.643, 22.29199
1172.730, 58.14404
1173.818, 22.96289
1174.905, 37.06543
1175.993, 56.83594
1177.080, 10.77783
1178.167, 19.26318
1179.254, 25.29883
1180.340, 28.33105
1181.427, 0.6420900
1182.513, 34.37207
1183.599, 18.38184
1184.685, 98.38623
1185.771, 113.3853
1186.856, 45.37988
1187.942, 127.3696
1189.027, 64.35449
1190.112, 26.33398
1191.197, 99.30762
1192.282, 48.27588
1193.367, 76.23877
1194.451, 86.19580
1195.536, 13.85205
1196.620, 53.07715
1197.704, 96.00098
1198.788, 54.91895
1199.872, 48.83105
1200.955, 139.7378
1202.039, 69.63867
1203.122, 72.53369
1204.205, 24.42236
1205.288, 57.30469
1206.370, 11.18018
1207.453, 85.04395
1208.535, 131.9028
1209.618, 134.7549
1210.700, 130.6011
1211.782, 133.8740
1212.863, 48.27490
1213.945, 93.10205
1215.026, 100.9233
1216.108, 54.73828
1217.189, 161.5464
1218.270, 93.34863
1219.351, 145.1445
1220.431, 138.9331
1221.512, 157.7163
1222.592, 115.4927
1223.672, 176.2622
1224.752, 155.5278
1225.832, 170.3364
1226.911, 176.6504
1227.991, 174.8457
1229.070, 144.8608
1230.149, 148.0327
1231.228, 135.9370
1232.307, 121.8540
1233.386, 125.6528
1234.464, 92.14258
1235.543, 92.81104
1236.621, 78.01465
1237.699, 90.28711
1238.777, 106.9614
1239.855, 62.62891
1240.932, 57.28906
1242.009, 39.94189
1243.087, 61.59033
1244.164, 22.23047
1245.241, 54.86084
1246.317, 20.64502
1247.394, 34.94629
1248.470, 77.52881
1249.546, 57.10352
1250.623, 104.5049
1251.698, 86.05176
1252.774, 126.6055
1253.850, 58.58252
1254.925, 89.06348
1256.000, 49.59717
1257.076, 84.00439
1258.150, 60.54053
1259.225, 51.07129
1260.300, 11.40527
1261.374, 95.09473
1262.449, 19.77490
1263.523, 129.6938
1264.597, 163.1572
1265.670, 50.61377
1266.744, 125.0640
1267.818, 25.76074
1268.891, 113.1890
1269.964, 65.73047
1271.037, 24.28857
1272.110, 114.7061
1273.183, 88.11768
1274.255, 73.52295
1275.327, 122.9233
1276.400, 176.3174
1277.472, 151.9077
1278.543, 143.2891
1279.615, 156.8018
1280.687, 154.2710
1281.758, 166.6333
1282.829, 174.1460
1283.900, 216.4956
1284.971, 257.8862
1286.042, 199.2373
1287.112, 248.6035
1288.183, 246.3188
1289.253, 237.1157
1290.323, 237.9629
1291.393, 262.4893
1292.463, 295.3745
1293.532, 368.4238
1294.602, 284.5679
1295.671, 318.9658
1296.740, 349.9697
1297.809, 310.2002
1298.878, 364.2422
1299.946, 292.7012
1301.015, 355.9663
1302.083, 355.9561
1303.151, 387.1724
1304.219, 355.4121
1305.287, 369.4146
1306.354, 413.2861
1307.422, 370.4600
1308.489, 246.6523
1309.556, 263.8511
1310.623, 282.2749
1311.690, 421.4858
1312.757, 314.6240
1313.823, 275.8311
1314.890, 366.0347
1315.956, 321.2354
1317.022, 357.4321
1318.088, 371.6260
1319.153, 340.7612
1320.219, 370.9492
1321.284, 337.1333
1322.349, 415.3145
1323.414, 311.4927
1324.479, 379.8345
1325.544, 352.0073
1326.608, 254.1763
1327.673, 419.3428
1328.737, 450.5068
1329.801, 423.6675
1330.865, 341.8257
1331.929, 303.9814
1332.992, 388.0259
1334.056, 325.1763
1335.119, 336.8223
1336.182, 419.9678
1337.245, 326.1113
1338.308, 323.2534
1339.370, 309.3921
1340.433, 459.5293
1341.495, 359.6494
1342.557, 409.7822
1343.619, 293.9131
1344.681, 371.0425
1345.742, 372.1699
1346.804, 354.2959
1347.865, 262.4194
1348.926, 341.5415
1349.987, 360.6626
1351.048, 254.7798
1352.108, 347.8945
1353.169, 366.0068
1354.229, 247.1172
1355.289, 307.2178
1356.349, 299.3174
1357.409, 385.4019
1358.469, 234.4526
1359.528, 337.5010
1360.588, 209.5479
1361.647, 269.5933
1362.706, 284.6392
1363.765, 198.6836
1364.823, 279.7275
1365.882, 306.7695
1366.940, 238.8682
1367.998, 191.9043
1369.056, 179.9204
1370.114, 197.5947
1371.172, 209.5239
1372.229, 213.3408
1373.287, 276.3311
1374.344, 93.59229
1375.401, 92.46680
1376.458, 253.5000
1377.515, 87.51416
1378.571, 280.5630
1379.628, 182.6128
1380.684, 189.6631
1381.740, 17.77783
1382.796, 178.8481
1383.852, 105.8716
1384.907, 136.8901
1385.963, 118.9814
1387.018, 202.0239
1388.073, 148.3940
1389.128, 69.47119
1390.183, 161.5884
1391.237, 113.6948
1392.292, 81.80273
1393.346, 131.8926
1394.400, 40.00488
1395.454, 79.99316
1396.508, 171.0972
1397.562, 3.217285
1398.615, 88.22119
1399.668, 35.34473
1400.722, 73.46875
1401.775, 37.59619
1402.827, 93.72363
1403.880, 1.259766
1404.933, 105.7520
1405.985, 3.751953
1407.037, 11.84717
1408.089, 42.90527
1409.141, 1.871582
1410.193, 39.82812
1411.244, 24.77148
1412.295, 32.78906
1413.347, 16.38623
1414.398, 41.05420
1415.449, 55.94922
1416.499, 29.83496
1417.550, 24.11084
1418.600, 4.689453
1419.650, 59.53857
1420.700, 16.29688
1421.750, 21.65430
1422.800, 47.72119
1423.850, 45.84717
1424.899, 47.02295
1425.948, 99.24414
1426.997, 113.4819
1428.046, 136.2314
1429.095, 159.4795
1430.144, 186.2974
1431.192, 173.5757
1432.240, 229.2944
1433.288, 254.1704
1434.336, 271.9639
1435.384, 283.0566
1436.432, 267.3857
1437.479, 286.2876
1438.526, 291.3345
1439.574, 295.8247
1440.621, 319.5952
1441.667, 307.8203
1442.714, 331.2954
1443.760, 305.0439
1444.807, 314.4365
1445.853, 316.7559
1446.899, 312.3745
1447.945, 281.2256
1448.990, 284.6523
1450.036, 274.2227
1451.081, 263.2339
1452.126, 271.5361
1453.171, 244.2988
1454.216, 252.3032
1455.261, 246.2461
1456.305, 246.6372
1457.350, 233.0889
1458.394, 223.8545
1459.438, 228.5645
1460.482, 225.5620
1461.526, 210.4702
1462.569, 211.3467
1463.612, 183.7256
1464.656, 181.0264
1465.699, 189.2227
1466.742, 174.8213
1467.784, 175.9526
1468.827, 171.2036
1469.869, 139.6411
1470.912, 154.7607
1471.954, 217.0601
1472.996, 130.3223
1474.037, 116.8169
1475.079, 161.3188
1476.120, 165.4722
1477.162, 143.5620
1478.203, 235.8008
1479.244, 109.2466
1480.284, 223.8169
1481.325, 222.3423
1482.365, 166.8496
1483.406, 175.6611
1484.446, 97.76221
1485.486, 81.17480
1486.526, 77.59375
1487.565, 132.0156
1488.605, 113.4390
1489.644, 89.86475
1490.683, 93.29199
1491.722, 40.72119
1492.761, 113.1523
1493.800, 54.58447
1494.838, 3.981934
1495.876, 59.46582
1496.915, 29.22510
1497.953, 118.3242
1498.990, 68.76074
1500.028, 66.19775
1501.066, 89.63525
1502.103, 55.07275
1503.140, 57.50781
1504.177, 112.9414
1505.214, 105.3701
1506.251, 48.79590
1507.287, 69.21777
1508.324, 98.63184
1509.360, 50.96338
1510.396, 62.43604
1511.432, 158.8291
1512.468, 26.23145
1513.503, 156.6597
1514.538, 21.15967
1515.574, 71.97852
1516.609, 76.82275
1517.644, 114.6895
1518.678, 158.5811
1519.713, 151.3691
1520.747, 74.53711
1521.782, 152.7505
1522.816, 99.56006
1523.850, 107.3921
1524.883, 213.0303
1525.917, 133.9844
1526.951, 105.4331
1527.984, 91.45947
1529.017, 57.71191
1530.050, 157.3438
1531.083, 29.04199
1532.115, 35.42627
1533.148, 168.3896
1534.180, 111.1846
1535.212, 104.3945
1536.244, 109.8174
1537.276, 69.77686
1538.308, 2.126465
1539.339, 88.59570
1540.370, 108.2031
1541.402, 12.88086
1542.433, 115.2920
1543.463, 116.6201
1544.494, 9.9120997E-02
1545.525, 0.0000000E+00
##END=



