##NAMES=Afmite
##RRUFFID=R130082
##IDEAL CHEMISTRY=Al_3_(OH)_4_(H_2_O)_3_(PO_4_)(PO_3_OH)&#183;H_2_O
##LOCALITY=Fumade (hamlet), Castelnau-de-Brassac (village), Tarn, France
##OWNER=Anthony R. Kampf
##SOURCE=Anthony R. Kampf and George R. Rossman
##DESCRIPTION=Dull white to cream to yellowish surface. Data from Kampf et al (2011)
##STATUS=The identification of this mineral has been confirmed by X-ray diffraction and chemical analysis
##URL=rruff.info/R130082
99.49100, 0.0000000E+00
101.2590, 1.472656
103.0260, 21.76758
104.7930, 447.2559
106.5590, 188.1328
108.3250, 8.693359
110.0910, 67.40625
111.8570, 248.8477
113.6220, 610.0996
115.3870, 878.1895
117.1510, 1198.045
118.9150, 842.6211
120.6790, 1000.141
122.4430, 1253.287
124.2060, 1352.975
125.9690, 1150.570
127.7310, 1679.016
129.4930, 2050.570
131.2550, 2839.525
133.0160, 3613.725
134.7770, 4059.318
136.5380, 4376.014
138.2980, 4643.025
140.0580, 4439.973
141.8180, 4218.080
143.5770, 3586.578
145.3360, 3204.809
147.0950, 3196.521
148.8530, 3288.766
150.6110, 3308.098
152.3690, 3486.271
154.1260, 2972.436
155.8830, 2422.314
157.6390, 1578.059
159.3960, 781.1309
161.1520, 334.8926
162.9070, 3.232422
164.6620, 268.1816
166.4170, 197.0840
168.1720, 406.0918
169.9260, 433.0625
171.6800, 229.5625
173.4330, 643.8926
175.1870, 1279.941
176.9390, 1735.701
178.6920, 1445.857
180.4440, 1535.902
182.1960, 1620.928
183.9470, 2100.428
185.6980, 2848.986
187.4490, 2957.092
189.2000, 2744.244
190.9500, 2504.537
192.7000, 2251.057
194.4490, 2459.396
196.1980, 2449.650
197.9470, 2261.510
199.6950, 2338.270
201.4430, 2080.717
203.1910, 1594.555
204.9380, 1290.305
206.6850, 1031.709
208.4320, 1249.924
210.1790, 1741.770
211.9250, 2357.174
213.6700, 2695.055
215.4160, 2927.320
217.1610, 2684.088
218.9050, 1922.168
220.6500, 1077.074
222.3940, 694.8984
224.1370, 251.3633
225.8810, 152.4023
227.6240, 112.0078
229.3660, 123.4570
231.1090, 298.8535
232.8500, 622.2930
234.5920, 1208.980
236.3330, 1768.814
238.0740, 2475.426
239.8150, 3367.652
241.5550, 2891.135
243.2950, 2785.473
245.0350, 2235.961
246.7740, 2021.396
248.5130, 1877.480
250.2520, 1909.209
251.9900, 1683.682
253.7280, 1616.594
255.4650, 1323.742
257.2030, 1701.828
258.9390, 2199.742
260.6760, 2450.389
262.4120, 2692.760
264.1480, 2473.053
265.8840, 1929.273
267.6190, 1374.004
269.3540, 583.8574
271.0880, 536.0215
272.8230, 179.7969
274.5570, 511.4785
276.2900, 912.7656
278.0230, 1040.357
279.7560, 1266.250
281.4890, 1797.043
283.2210, 2175.127
284.9530, 2500.209
286.6840, 2236.381
288.4150, 2059.242
290.1460, 2214.588
291.8770, 1795.018
293.6070, 1722.328
295.3370, 1704.816
297.0660, 1872.377
298.7960, 1813.314
300.5240, 1671.824
302.2530, 1796.713
303.9810, 2128.682
305.7090, 2588.434
307.4370, 3387.387
309.1640, 3682.459
310.8910, 4272.514
312.6170, 4210.230
314.3430, 4659.758
316.0690, 4956.342
317.7950, 4615.727
319.5200, 4077.000
321.2450, 3642.859
322.9690, 3010.195
324.6930, 2367.625
326.4170, 1807.742
328.1410, 1480.010
329.8640, 1364.299
331.5870, 1121.238
333.3090, 978.5645
335.0320, 1001.633
336.7530, 759.1875
338.4750, 816.3086
340.1960, 725.5352
341.9170, 601.2227
343.6370, 424.4531
345.3580, 181.1484
347.0780, 0.9492190
348.7970, 40.22070
350.5160, 181.0762
352.2350, 149.5547
353.9540, 269.6719
355.6720, 702.9082
357.3900, 721.7441
359.1070, 413.0742
360.8240, 302.6113
362.5410, 291.3262
364.2580, 175.3223
365.9740, 210.9902
367.6900, 124.3281
369.4060, 431.4297
371.1210, 636.5723
372.8360, 1023.809
374.5500, 928.6934
376.2640, 1395.363
377.9780, 1967.729
379.6920, 2345.041
381.4050, 2627.693
383.1180, 3152.977
384.8310, 3315.000
386.5430, 4058.455
388.2550, 4428.438
389.9660, 5017.752
391.6780, 4868.090
393.3890, 4993.250
395.0990, 4554.334
396.8090, 4020.334
398.5190, 3619.350
400.2290, 3614.578
401.9380, 3670.020
403.6470, 3549.869
405.3560, 3767.924
407.0640, 3684.688
408.7720, 3819.551
410.4800, 3689.617
412.1870, 3266.682
413.8940, 3088.445
415.6010, 2907.209
417.3070, 2519.467
419.0130, 2342.725
420.7190, 1994.379
422.4240, 1679.824
424.1290, 1533.865
425.8340, 1571.197
427.5380, 1294.820
429.2420, 1432.133
430.9460, 1490.334
432.6490, 1494.318
434.3520, 1734.891
436.0550, 1761.047
437.7570, 2435.191
439.4600, 2232.518
441.1610, 2172.426
442.8630, 2169.715
444.5640, 2149.488
446.2650, 1754.346
447.9650, 1441.480
449.6650, 1212.498
451.3650, 1031.996
453.0640, 533.6719
454.7630, 871.1406
456.4620, 793.6816
458.1610, 863.5059
459.8590, 814.1953
461.5570, 1130.168
463.2540, 1193.008
464.9510, 1278.014
466.6480, 1305.590
468.3450, 925.0273
470.0410, 1194.424
471.7370, 704.6855
473.4320, 654.3047
475.1280, 929.8828
476.8220, 1066.924
478.5170, 1230.713
480.2110, 1460.961
481.9050, 1833.160
483.5990, 2181.809
485.2920, 2527.709
486.9850, 2854.658
488.6780, 3104.855
490.3700, 3508.902
492.0620, 4177.697
493.7540, 4654.633
495.4450, 5016.414
497.1360, 5440.285
498.8270, 5474.150
500.5170, 5575.352
502.2070, 5491.670
503.8970, 5544.949
505.5860, 5215.666
507.2750, 4875.762
508.9640, 4586.629
510.6520, 4492.852
512.3400, 3822.178
514.0280, 3698.738
515.7160, 3205.119
517.4030, 2973.572
519.0890, 2670.699
520.7760, 2936.742
522.4620, 3213.887
524.1480, 3246.756
525.8330, 3532.039
527.5190, 3793.072
529.2030, 4568.234
530.8880, 5224.330
532.5720, 5762.262
534.2560, 6372.604
535.9400, 6482.109
537.6230, 6620.293
539.3060, 6270.539
540.9880, 6406.340
542.6710, 5929.797
544.3530, 5601.445
546.0340, 5544.350
547.7160, 5736.930
549.3970, 5663.371
551.0770, 5555.338
552.7580, 5787.035
554.4380, 5724.188
556.1170, 6442.721
557.7970, 6073.689
559.4760, 6431.844
561.1550, 6683.152
562.8330, 6667.080
564.5110, 6784.949
566.1890, 6942.746
567.8660, 7130.363
569.5440, 7207.422
571.2200, 7330.459
572.8970, 7726.418
574.5730, 8112.297
576.2490, 8400.664
577.9240, 8421.492
579.6000, 8768.500
581.2750, 8697.348
582.9490, 8514.840
584.6230, 8242.760
586.2970, 8077.795
587.9710, 7581.367
589.6440, 7071.043
591.3170, 6629.912
592.9900, 6384.170
594.6620, 6128.850
596.3340, 5832.059
598.0060, 5401.473
599.6780, 4988.773
601.3490, 4538.316
603.0190, 4440.816
604.6900, 4195.086
606.3600, 3676.709
608.0300, 3601.395
609.6990, 3445.141
611.3680, 3095.443
613.0370, 2735.102
614.7060, 2918.670
616.3740, 2809.840
618.0420, 2906.363
619.7090, 2923.342
621.3770, 2797.873
623.0440, 2862.756
624.7100, 2858.688
626.3770, 2878.471
628.0430, 2980.891
629.7080, 3383.371
631.3740, 3392.699
633.0390, 4074.672
634.7030, 4315.342
636.3680, 4839.906
638.0320, 5535.127
639.6960, 5489.691
641.3590, 5297.818
643.0220, 5074.430
644.6850, 4941.826
646.3480, 4504.109
648.0100, 3979.527
649.6720, 3563.973
651.3330, 3376.898
652.9940, 3040.447
654.6550, 2797.584
656.3160, 2822.135
657.9760, 2386.727
659.6360, 2124.691
661.2960, 2177.879
662.9550, 2095.121
664.6140, 1750.951
666.2730, 1610.811
667.9310, 1685.469
669.5890, 1542.629
671.2470, 1406.479
672.9050, 1630.455
674.5620, 1133.227
676.2190, 1115.660
677.8750, 1070.096
679.5310, 948.5020
681.1870, 841.3379
682.8430, 568.9082
684.4980, 543.3145
686.1530, 692.3457
687.8080, 582.2383
689.4620, 425.2012
691.1160, 470.1973
692.7700, 550.8574
694.4230, 436.3301
696.0760, 112.8730
697.7290, 396.0566
699.3810, 215.5234
701.0330, 252.9727
702.6850, 86.02344
704.3370, 7.009766
705.9880, 118.2207
707.6390, 163.9785
709.2890, 192.1270
710.9390, 83.74023
712.5890, 24.79883
714.2390, 119.2715
715.8880, 43.74805
717.5370, 72.50586
719.1860, 196.4551
720.8340, 180.5684
722.4820, 158.9316
724.1300, 207.2285
725.7770, 312.0918
727.4250, 201.6738
729.0710, 94.52148
730.7180, 309.4785
732.3640, 442.8594
734.0100, 171.0352
735.6550, 388.6621
737.3010, 187.2598
738.9460, 489.2207
740.5900, 299.1094
742.2340, 199.0195
743.8780, 281.6055
745.5220, 396.5059
747.1660, 183.1875
748.8090, 298.7344
750.4510, 96.50781
752.0940, 162.5059
753.7360, 20.05664
755.3780, 49.10742
757.0190, 127.3262
758.6600, 112.5176
760.3010, 48.78320
761.9420, 170.9023
763.5820, 195.3008
765.2220, 205.8867
766.8620, 236.1523
768.5010, 286.2109
770.1400, 304.0586
771.7790, 607.1992
773.4170, 402.1426
775.0550, 534.2773
776.6930, 361.0137
778.3300, 442.5391
779.9680, 618.7617
781.6050, 585.5840
783.2410, 734.2090
784.8770, 586.2344
786.5130, 814.1602
788.1490, 480.9863
789.7840, 549.7090
791.4190, 676.5273
793.0540, 524.8496
794.6880, 795.3672
796.3220, 632.6875
797.9560, 861.8066
799.5890, 812.2305
801.2230, 978.4551
802.8550, 798.4805
804.4880, 874.2090
806.1200, 864.0391
807.7520, 797.0703
809.3840, 992.1035
811.0150, 661.3379
812.6460, 857.6758
814.2770, 698.3145
815.9070, 784.1543
817.5370, 909.7969
819.1670, 882.0391
820.7960, 832.5859
822.4250, 901.2344
824.0540, 659.7852
825.6830, 854.1367
827.3110, 741.3906
828.9390, 809.6484
830.5670, 647.5059
832.1940, 737.0645
833.8210, 513.1270
835.4480, 490.3867
837.0740, 628.9395
838.7000, 572.1973
840.3260, 416.8535
841.9510, 335.2070
843.5760, 550.3574
845.2010, 314.7051
846.8260, 328.0449
848.4500, 379.8789
850.0740, 65.11523
851.6970, 372.3184
853.3210, 219.0156
854.9440, 407.5176
856.5670, 142.9180
858.1890, 357.5645
859.8110, 485.8125
861.4330, 342.6738
863.0540, 469.4160
864.6750, 571.3809
866.2960, 364.7598
867.9170, 437.2891
869.5370, 420.3184
871.1570, 435.6094
872.7770, 608.4688
874.3960, 358.1387
876.0150, 476.7070
877.6340, 616.8770
879.2520, 398.7109
880.8700, 565.0703
882.4880, 340.3770
884.1060, 352.1211
885.7230, 445.7695
887.3400, 553.2695
888.9570, 244.7090
890.5730, 249.9453
892.1890, 558.7422
893.8050, 142.8887
895.4200, 309.6387
897.0350, 312.2949
898.6500, 307.9805
900.2640, 648.2676
901.8780, 939.6562
903.4920, 445.9141
905.1060, 1099.555
906.7190, 1235.719
908.3320, 1344.867
909.9450, 1847.885
911.5570, 2563.504
913.1690, 3204.639
914.7810, 3961.932
916.3920, 4541.795
918.0040, 5343.492
919.6140, 5502.650
921.2250, 5430.016
922.8350, 4792.621
924.4450, 4062.158
926.0550, 3325.416
927.6640, 2914.025
929.2730, 2230.332
930.8820, 1956.816
932.4900, 2020.688
934.0980, 1835.404
935.7060, 1419.314
937.3140, 1611.092
938.9210, 1357.469
940.5280, 1563.223
942.1340, 1214.293
943.7410, 1116.328
945.3470, 1262.977
946.9530, 1308.904
948.5580, 1183.010
950.1630, 1473.830
951.7680, 1251.412
953.3720, 1176.584
954.9770, 1202.383
956.5800, 1413.777
958.1840, 1346.281
959.7870, 1328.719
961.3900, 1454.842
962.9930, 1688.924
964.5960, 1551.729
966.1980, 1495.416
967.7990, 1700.398
969.4010, 1912.182
971.0020, 1782.891
972.6030, 1969.287
974.2040, 2281.471
975.8040, 2520.168
977.4040, 2440.273
979.0040, 2738.369
980.6030, 2852.391
982.2020, 2627.846
983.8010, 2936.838
985.3990, 3474.635
986.9980, 3387.930
988.5960, 3517.541
990.1930, 3509.291
991.7910, 3977.123
993.3880, 4130.354
994.9840, 4056.549
996.5810, 4700.105
998.1770, 5063.324
999.7730, 5505.100
1001.370, 6178.936
1002.960, 7211.832
1004.560, 8627.643
1006.150, 9816.660
1007.750, 11762.04
1009.340, 13744.18
1010.930, 15273.48
1012.530, 16440.95
1014.120, 17170.87
1015.710, 16954.46
1017.310, 15696.93
1018.900, 14350.95
1020.490, 12561.52
1022.080, 11101.26
1023.670, 10316.02
1025.270, 9491.191
1026.860, 8953.012
1028.450, 8699.102
1030.040, 8900.125
1031.630, 9071.512
1033.220, 9396.953
1034.810, 9895.035
1036.390, 11061.09
1037.980, 12295.33
1039.570, 13820.82
1041.160, 15338.28
1042.750, 17918.38
1044.330, 19224.95
1045.920, 20127.85
1047.510, 20635.22
1049.100, 20780.14
1050.680, 20429.07
1052.270, 19535.96
1053.850, 19156.18
1055.440, 18490.17
1057.020, 17440.96
1058.610, 16596.67
1060.190, 15226.34
1061.780, 14555.84
1063.360, 13473.24
1064.950, 12160.49
1066.530, 11624.87
1068.110, 11419.55
1069.690, 11355.85
1071.280, 11183.49
1072.860, 11764.02
1074.440, 12165.24
1076.020, 12584.14
1077.600, 12823.63
1079.180, 13233.39
1080.770, 13250.00
1082.350, 12380.85
1083.930, 11863.84
1085.510, 11359.73
1087.090, 10696.88
1088.660, 10429.92
1090.240, 9895.975
1091.820, 9626.986
1093.400, 9764.020
1094.980, 9499.100
1096.560, 9987.402
1098.130, 10001.26
1099.710, 10103.30
1101.290, 10214.12
1102.860, 10828.14
1104.440, 10972.32
1106.020, 10967.59
1107.590, 11106.95
1109.170, 10903.30
1110.740, 10436.85
1112.320, 10263.29
1113.890, 9548.754
1115.470, 8574.922
1117.040, 8492.137
1118.610, 7947.953
1120.190, 7516.576
1121.760, 7252.084
1123.330, 6943.328
1124.910, 6733.166
1126.480, 6560.535
1128.050, 6348.152
1129.620, 6475.152
1131.190, 6296.041
1132.760, 6085.352
1134.330, 5973.057
1135.900, 5841.969
1137.470, 5888.914
1139.040, 5730.586
1140.610, 5548.025
1142.180, 5304.111
1143.750, 5251.703
1145.320, 5314.918
1146.890, 5217.494
1148.460, 4892.684
1150.030, 4836.211
1151.590, 4875.844
1153.160, 4692.127
1154.730, 4683.654
1156.290, 4859.936
1157.860, 4724.303
1159.430, 4743.188
1160.990, 4479.096
1162.560, 4157.727
1164.120, 4112.564
1165.690, 3831.822
1167.250, 3803.436
1168.820, 3762.643
1170.380, 3651.381
1171.940, 3483.775
1173.510, 3690.818
1175.070, 3347.133
1176.630, 2937.645
1178.200, 2830.637
1179.760, 2744.129
1181.320, 2592.793
1182.880, 2368.840
1184.440, 2156.244
1186.000, 1872.553
1187.570, 2173.227
1189.130, 1743.457
1190.690, 1597.047
1192.250, 1673.602
1193.810, 1459.703
1195.370, 1659.361
1196.920, 1618.576
1198.480, 1510.709
1200.040, 1302.977
1201.600, 1294.434
1203.160, 1226.074
1204.720, 1099.871
1206.270, 935.0234
1207.830, 1126.633
1209.390, 989.5039
1210.940, 638.1289
1212.500, 622.5762
1214.060, 606.7109
1215.610, 412.5000
1217.170, 333.8496
1218.720, 255.1699
1220.280, 102.4297
1221.830, 171.5742
1223.390, 216.6816
1224.940, 449.9023
1226.490, 92.48242
1228.050, 3.816406
1229.600, 66.29102
1231.150, 193.4395
1232.700, 38.76367
1234.260, 118.7559
1235.810, 216.8711
1237.360, 22.63477
1238.910, 44.11328
1240.460, 273.7188
1242.010, 53.75586
1243.560, 27.38672
1245.110, 144.5996
1246.660, 89.65039
1248.210, 205.2539
1249.760, 230.9277
1251.310, 124.1113
1252.860, 82.09570
1254.410, 111.1289
1255.960, 163.5859
1257.510, 57.26367
1259.050, 133.6348
1260.600, 108.2480
1262.150, 43.01562
1263.690, 138.7754
1265.240, 97.50781
1266.790, 71.33594
1268.330, 46.03125
1269.880, 69.27344
1271.420, 131.3594
1272.970, 274.2949
1274.510, 151.0586
1276.060, 218.2227
1277.600, 99.03711
1279.150, 279.9746
1280.690, 45.03906
1282.230, 272.5566
1283.780, 110.8711
1285.320, 47.48047
1286.860, 178.3691
1288.400, 18.39648
1289.950, 206.4531
1291.490, 168.5488
1293.030, 262.6699
1294.570, 320.3633
1296.110, 141.1055
1297.650, 42.89453
1299.190, 188.1211
1300.730, 239.0879
1302.270, 197.6055
1303.810, 55.26562
1305.350, 327.0605
1306.890, 329.2090
1308.430, 99.29688
1309.960, 243.6406
1311.500, 76.44336
1313.040, 66.87891
1314.580, 273.6543
1316.110, 33.72852
1317.650, 13.48242
1319.190, 98.00977
1320.720, 58.87109
1322.260, 19.57031
1323.800, 72.98633
1325.330, 97.13867
1326.870, 282.2148
1328.400, 177.5430
1329.940, 377.5137
1331.470, 262.9297
1333.000, 97.79492
1334.540, 338.5000
1336.070, 222.0469
1337.600, 224.6367
1339.140, 196.9297
1340.670, 53.47070
1342.200, 124.2402
1343.730, 155.8535
1345.270, 259.2031
1346.800, 146.9980
1348.330, 157.2383
1349.860, 309.5234
1351.390, 535.3574
1352.920, 200.7383
1354.450, 228.7656
1355.980, 312.3340
1357.510, 157.1523
1359.040, 482.7207
1360.570, 283.3320
1362.100, 227.6934
1363.620, 291.5000
1365.150, 104.5430
1366.680, 178.3711
1368.210, 127.3301
1369.730, 233.4355
1371.260, 439.4863
1372.790, 340.8887
1374.310, 391.2402
1375.840, 218.8398
1377.370, 465.7910
1378.890, 266.8906
1380.420, 425.3398
1381.940, 172.2422
1383.470, 245.3906
1384.990, 164.2930
1386.520, 266.8418
1388.040, 438.4395
1389.560, 335.7930
1391.090, 323.4980
1392.610, 94.35547
1394.130, 535.1562
1395.650, 192.6113
1397.180, 327.8203
1398.700, 430.2812
1400.220, 470.2949
1401.740, 219.2656
1403.260, 345.8535
1404.780, 208.7539
1406.300, 203.3926
1407.820, 500.8730
1409.340, 382.7070
1410.860, 339.1680
1412.380, 505.3926
1413.900, 148.8379
1415.420, 235.4746
1416.940, 257.9805
1418.460, 453.0059
1419.980, 269.7988
1421.490, 423.0078
1423.010, 154.7188
1424.530, 245.9219
1426.050, 440.0273
1427.560, 414.7852
1429.080, 419.9844
1430.590, 375.7539
1432.110, 258.2578
1433.630, 277.5586
1435.140, 434.6641
1436.660, 241.7266
1438.170, 327.9043
1439.680, 456.7832
1441.200, 420.6504
1442.710, 544.8457
1444.230, 366.5566
1445.740, 432.3613
1447.250, 552.7090
1448.770, 340.1816
1450.280, 478.8379
1451.790, 480.1465
1453.300, 587.5254
1454.810, 493.3672
1456.320, 280.8145
1457.840, 334.0332
1459.350, 329.5664
1460.860, 377.6406
1462.370, 207.8887
1463.880, 445.7402
1465.390, 237.7695
1466.900, 198.9004
1468.410, 365.6621
1469.910, 186.9648
1471.420, 72.65039
1472.930, 313.4375
1474.440, 147.2500
1475.950, 418.7676
1477.450, 306.8145
1478.960, 308.4961
1480.470, 194.8477
1481.980, 188.4980
1483.480, 266.9512
1484.990, 468.1172
1486.490, 419.3789
1488.000, 325.4629
1489.500, 309.7422
1491.010, 59.78125
1492.510, 337.7012
1494.020, 107.9199
1495.520, 265.3711
1497.030, 398.9980
1498.530, 390.7227
1500.030, 480.1660
1501.540, 353.5801
1503.040, 170.0020
1504.540, 416.2207
1506.040, 146.2070
1507.550, 65.40234
1509.050, 135.0020
1510.550, 478.2695
1512.050, 309.2832
1513.550, 247.9355
1515.050, 117.7988
1516.550, 218.6152
1518.050, 307.4824
1519.550, 137.9629
1521.050, 14.24805
1522.550, 165.2383
1524.050, 358.9219
1525.550, 312.4414
1527.050, 124.6426
1528.550, 176.6738
1530.040, 280.2852
1531.540, 389.8047
1533.040, 130.3184
1534.540, 618.5957
1536.030, 275.2949
1537.530, 57.40039
1539.020, 496.3945
1540.520, 340.2910
1542.020, 465.0469
1543.510, 459.1777
1545.010, 155.9688
1546.500, 163.2402
1548.000, 607.2891
1549.490, 674.7344
1550.980, 530.0352
1552.480, 481.0254
1553.970, 765.1191
1555.470, 819.9102
1556.960, 690.3691
1558.450, 477.1641
1559.940, 609.0605
1561.440, 697.4629
1562.930, 554.2051
1564.420, 917.6152
1565.910, 454.1523
1567.400, 383.3672
1568.890, 574.0879
1570.380, 530.1133
1571.870, 467.6406
1573.360, 495.2715
1574.850, 968.2109
1576.340, 418.8848
1577.830, 745.9375
1579.320, 728.8945
1580.810, 656.4746
1582.300, 914.9512
1583.790, 892.9492
1585.270, 953.2227
1586.760, 1077.590
1588.250, 2044.225
1589.740, 1896.363
1591.220, 1637.516
1592.710, 1805.789
1594.190, 1760.367
1595.680, 2150.867
1597.170, 1939.094
1598.650, 1272.734
1600.140, 1288.152
1601.620, 1508.992
1603.110, 1519.066
1604.590, 1378.031
1606.070, 1508.133
1607.560, 1544.062
1609.040, 1497.453
1610.520, 1684.938
1612.010, 1743.023
1613.490, 1619.000
1614.970, 1825.715
1616.460, 1524.676
1617.940, 1739.852
1619.420, 1541.797
1620.900, 2052.582
1622.380, 1489.934
1623.860, 1609.340
1625.340, 1309.969
1626.820, 1566.352
1628.300, 1417.402
1629.780, 1494.770
1631.260, 1119.262
1632.740, 1250.895
1634.220, 1240.453
1635.700, 990.1094
1637.180, 868.2383
1638.660, 1272.391
1640.130, 1065.992
1641.610, 785.1172
1643.090, 1055.965
1644.570, 1093.422
1646.040, 975.3438
1647.520, 680.7461
1648.990, 972.3047
1650.470, 913.3984
1651.950, 1022.219
1653.420, 835.6758
1654.900, 1049.629
1656.370, 841.6055
1657.850, 833.5000
1659.320, 469.4180
1660.800, 692.0625
1662.270, 1004.723
1663.740, 742.3086
1665.220, 763.3164
1666.690, 548.3438
1668.160, 621.8906
1669.630, 344.5391
1671.110, 606.7891
1672.580, 580.2383
1674.050, 363.6602
1675.520, 429.0000
1676.990, 395.8867
1678.460, 309.7578
1679.930, 528.3125
1681.400, 369.4883
1682.870, 671.5039
1684.340, 572.2383
1685.810, 206.1133
1687.280, 525.4961
1688.750, 463.6992
1690.220, 62.87109
1691.690, 127.2617
1693.160, 429.4219
1694.630, 205.8047
1696.090, 460.9062
1697.560, 280.0977
1699.030, 639.2578
1700.500, 262.3086
1701.960, 340.4805
1703.430, 119.0859
1704.890, 234.8086
1706.360, 57.05078
1707.830, 345.3984
1709.290, 200.2695
1710.760, 401.5625
1712.220, 321.2734
1713.690, 381.0078
1715.150, 33.92969
1716.610, 135.1406
1718.080, 256.5391
1719.540, 63.55078
1721.000, 248.0898
1722.470, 51.74609
1723.930, 260.4766
1725.390, 117.1250
1726.860, 467.8984
1728.320, 422.0938
1729.780, 121.3164
1731.240, 171.3594
1732.700, 4.574219
1734.160, 310.7148
1735.620, 280.4258
1737.080, 145.7070
1738.540, 115.3594
1740.000, 9.167969
1741.460, 85.62891
1742.920, 96.96094
1744.380, 315.2148
1745.840, 350.1914
1747.300, 460.5898
1748.760, 151.0117
1750.210, 144.9570
1751.670, 372.1289
1753.130, 266.6211
1754.590, 83.83203
1756.040, 297.5352
1757.500, 106.2969
1758.960, 67.67188
1760.410, 621.5781
1761.870, 4.296875
1763.320, 221.7461
1764.780, 392.9805
1766.230, 84.76953
1767.690, 378.0859
1769.140, 322.5234
1770.600, 58.87891
1772.050, 247.5625
1773.510, 68.16016
1774.960, 10.89062
1776.410, 259.9375
1777.870, 70.89844
1779.320, 276.3672
1780.770, 272.5508
1782.220, 330.7578
1783.670, 11.88281
1785.130, 34.96875
1786.580, 26.78906
1788.030, 469.3672
1789.480, 248.8164
1790.930, 69.67578
1792.380, 235.0117
1793.830, 193.4688
1795.280, 205.4453
1796.730, 48.33594
1798.180, 182.8555
1799.630, 139.6836
1801.080, 34.66016
1802.530, 398.5977
1803.970, 225.9688
1805.420, 222.5547
1806.870, 340.3203
1808.320, 387.0469
1809.760, 328.4961
1811.210, 306.1562
1812.660, 107.6406
1814.100, 233.9375
1815.550, 510.8555
1817.000, 149.6914
1818.440, 122.3398
1819.890, 187.0938
1821.330, 116.0000
1822.780, 34.75781
1824.220, 178.6250
1825.670, 144.2109
1827.110, 127.1172
1828.560, 87.55859
1830.000, 302.7266
1831.440, 178.4023
1832.890, 45.30859
1834.330, 537.9336
1835.770, 404.9727
1837.210, 174.8281
1838.650, 303.7031
1840.100, 255.5977
1841.540, 344.6055
1842.980, 249.2188
1844.420, 114.4688
1845.860, 171.2656
1847.300, 435.5742
1848.740, 224.3867
1850.180, 414.2148
1851.620, 5.976563
1853.060, 191.1016
1854.500, 440.1602
1855.940, 154.1328
1857.380, 415.5234
1858.820, 501.4570
1860.250, 446.6797
1861.690, 308.3242
1863.130, 422.1758
1864.570, 82.51172
1866.000, 97.60156
1867.440, 353.8438
1868.880, 333.8086
1870.310, 29.98438
1871.750, 350.5625
1873.190, 71.73438
1874.620, 216.5391
1876.060, 172.8711
1877.490, 362.8438
1878.930, 229.4688
1880.360, 495.5781
1881.800, 320.4297
1883.230, 91.23438
1884.660, 72.94922
1886.100, 152.3789
1887.530, 458.7266
1888.960, 211.3047
1890.400, 421.7773
1891.830, 304.1641
1893.260, 336.6758
1894.690, 220.7930
1896.130, 255.1250
1897.560, 301.6758
1898.990, 231.2383
1900.420, 482.3164
1901.850, 269.8047
1903.280, 218.6133
1904.710, 494.3359
1906.140, 371.5000
1907.570, 229.3516
1909.000, 48.81641
1910.430, 533.0000
1911.860, 110.8906
1913.290, 190.8594
1914.710, 25.98047
1916.140, 191.2773
1917.570, 469.4219
1919.000, 283.4805
1920.430, 279.7539
1921.850, 262.0391
1923.280, 347.6406
1924.710, 478.9531
1926.130, 676.8828
1927.560, 33.36719
1928.980, 310.1562
1930.410, 462.5977
1931.840, 267.7539
1933.260, 178.2266
1934.690, 121.8203
1936.110, 55.01953
1937.530, 704.5273
1938.960, 267.3516
1940.380, 297.1953
1941.810, 142.6484
1943.230, 279.7148
1944.650, 244.5938
1946.070, 427.4883
1947.500, 293.9961
1948.920, 169.3203
1950.340, 333.4297
1951.760, 361.1758
1953.190, 388.9492
1954.610, 416.6328
1956.030, 284.9336
1957.450, 502.0742
1958.870, 298.1992
1960.290, 69.45703
1961.710, 69.25000
1963.130, 112.3242
1964.550, 378.5117
1965.970, 170.9102
1967.390, 528.8281
1968.810, 185.5586
1970.220, 83.60156
1971.640, 267.2578
1973.060, 555.0391
1974.480, 453.2266
1975.900, 155.5273
1977.310, 68.05859
1978.730, 479.3242
1980.150, 460.3242
1981.560, 441.4297
1982.980, 422.4531
1984.390, 377.0977
1985.810, 305.2500
1987.230, 289.8203
1988.640, 242.6992
1990.060, 421.7930
1991.470, 339.4922
1992.890, 550.9570
1994.300, 420.8945
1995.710, 647.8477
1997.130, 425.8164
1998.540, 433.6094
1999.950, 278.6094
2001.370, 263.4219
2002.780, 252.8164
2004.190, 244.7617
2005.600, 165.9258
2007.020, 365.1055
2008.430, 255.1836
2009.840, 265.0117
2011.250, 51.45312
2012.660, 60.19922
2014.070, 330.5391
2015.480, 381.1953
2016.890, 55.20312
2018.300, 222.3477
2019.710, 365.2109
2021.120, 1.011719
2022.530, 30.53125
2023.940, 386.4336
2025.350, 211.8672
2026.760, 473.9219
2028.170, 38.28516
2029.570, 295.0703
2030.980, 322.9102
2032.390, 128.7695
2033.800, 209.9375
2035.200, 705.2461
2036.610, 243.4688
2038.020, 365.6992
2039.420, 500.3516
2040.830, 3.445313
2042.230, 343.0312
2043.640, 348.2227
2045.040, 488.4297
2046.450, 343.9414
2047.850, 268.8789
2049.260, 211.6367
2050.660, 410.8164
2052.070, 388.0273
2053.470, 222.1445
2054.870, 368.0820
2056.280, 392.9297
2057.680, 225.2500
2059.080, 522.8945
2060.480, 75.50781
2061.890, 731.7383
2063.290, 630.1836
2064.690, 166.5469
2066.090, 271.9297
2067.490, 254.2539
2068.890, 422.1953
2070.290, 9.546875
2071.690, 304.9180
2073.090, 426.5977
2074.490, 664.3984
2075.890, 282.5117
2077.290, 520.4453
2078.690, 327.7461
2080.090, 135.1172
2081.490, 417.9023
2082.890, 92.90234
2084.290, 43.08594
2085.690, 261.3320
2087.080, 607.0742
2088.480, 283.8398
2089.880, 350.5117
2091.270, 376.1133
2092.670, 324.8242
2094.070, 542.0547
2095.460, 492.6055
2096.860, 72.40625
2098.260, 243.2891
2099.650, 414.0898
2101.050, 767.9141
2102.440, 263.2461
2103.840, 758.8047
2105.230, 582.1172
2106.630, 380.3086
2108.020, 354.2344
2109.410, 419.6758
2110.810, 363.2383
2112.200, 480.8164
2113.590, 171.2109
2114.990, 586.8438
2116.380, 600.4883
2117.770, 615.9531
2119.160, 712.2461
2120.550, 311.7539
2121.950, 490.7812
2123.340, 348.2266
2124.730, 352.9961
2126.120, 226.5977
2127.510, 565.8125
2128.900, 507.7031
2130.290, 372.2109
2131.680, 91.08594
2133.070, 394.6836
2134.460, 327.5977
2135.850, 428.0352
2137.240, 173.7812
2138.620, 387.6523
2140.010, 470.1367
2141.400, 107.7500
2142.790, 215.4844
2144.180, 344.9492
2145.560, 530.3789
2146.950, 402.2812
2148.340, 513.8047
2149.720, 198.1523
2151.110, 102.4062
2152.500, 248.3828
2153.880, 544.0742
2155.270, 267.9922
2156.650, 74.82422
2158.040, 318.4805
2159.420, 132.4922
2160.810, 701.4570
2162.190, 446.9414
2163.580, 159.8438
2164.960, 161.8594
2166.350, 239.6953
2167.730, 501.9570
2169.110, 50.96484
2170.490, 144.5039
2171.880, 698.0898
2173.260, 539.2969
2174.640, 12.07422
2176.020, 338.5156
2177.410, 407.6719
2178.790, 7.605469
2180.170, 227.1094
2181.550, 227.5156
2182.930, 463.3438
2184.310, 151.8828
2185.690, 407.8984
2187.070, 163.8242
2188.450, 170.5078
2189.830, 459.1562
2191.210, 499.0625
2192.590, 267.6836
2193.970, 179.5117
2195.350, 343.4297
2196.720, 194.1289
2198.100, 575.8203
2199.480, 119.4297
2200.860, 570.5508
2202.240, 139.4062
2203.610, 548.8008
2204.990, 271.9219
2206.370, 505.3555
2207.740, 205.4180
2209.120, 111.8906
2210.490, 280.1055
2211.870, 373.8359
2213.250, 607.7305
2214.620, 159.7422
2216.000, 688.2734
2217.370, 138.0781
2218.740, 607.1211
2220.120, 248.0430
2221.490, 167.3789
2222.870, 521.6797
2224.240, 315.3555
2225.610, 554.7266
2226.990, 590.6406
2228.360, 528.2656
2229.730, 615.2109
2231.100, 545.5742
2232.480, 432.4844
2233.850, 432.0820
2235.220, 367.8906
2236.590, 176.7227
2237.960, 358.6641
2239.330, 174.1211
2240.700, 416.3984
2242.070, 483.6914
2243.440, 266.1992
2244.810, 311.5234
2246.180, 840.7656
2247.550, 537.5234
2248.920, 548.7773
2250.290, 602.4062
2251.660, 558.4219
2253.030, 511.6484
2254.400, 464.9883
2255.760, 418.3516
2257.130, 371.8086
2258.500, 325.0977
2259.870, 155.0078
2261.230, 270.2305
2262.600, 482.4883
2263.970, 347.1562
2265.330, 442.4453
2266.700, 629.2461
2268.060, 442.6641
2269.430, 356.7031
2270.790, 89.55078
2272.160, 345.8984
2273.520, 360.7812
2274.890, 562.5859
2276.250, 273.2969
2277.620, 476.9336
2278.980, 605.1523
2280.340, 343.2148
2281.710, 486.5938
2283.070, 224.6875
2284.430, 8.496094
2285.800, 445.6172
2287.160, 33.05078
2288.520, 254.6758
2289.880, 269.3828
2291.250, 367.1641
2292.610, 439.2539
2293.970, 336.8945
2295.330, 197.8672
2296.690, 395.9766
2298.050, 234.8789
2299.410, 439.5000
2300.770, 351.9336
2302.130, 128.2852
2303.490, 274.2539
2304.850, 438.6289
2306.210, 592.0312
2307.570, 430.3242
2308.930, 46.44922
2310.280, 360.1133
2311.640, 499.0000
2313.000, 529.3984
2314.360, 220.8125
2315.710, 181.1328
2317.070, 283.3984
2318.430, 153.4531
2319.790, 331.3281
2321.140, 186.6250
2322.500, 449.4297
2323.850, 376.7031
2325.210, 377.7422
2326.570, 939.5977
2327.920, 852.2656
2329.280, 759.2500
2330.630, 873.0508
2331.990, 499.6094
2333.340, 348.4805
2334.690, 355.1289
2336.050, 147.5898
2337.400, 516.3633
2338.750, 43.01953
2340.110, 155.8633
2341.460, 33.33984
2342.810, 362.0469
2344.170, 74.96875
2345.520, 351.7148
2346.870, 156.9766
2348.220, 445.0742
2349.570, 241.7500
2350.920, 192.1758
2352.270, 308.3242
2353.630, 80.91016
2354.980, 431.5273
2356.330, 262.5859
2357.680, 26.95703
2359.030, 166.0586
2360.380, 150.1602
2361.730, 386.9961
2363.070, 28.55078
2364.420, 118.9883
2365.770, 372.5547
2367.120, 77.42969
2368.470, 577.8359
2369.820, 89.64844
2371.160, 107.8867
2372.510, 142.8359
2373.860, 203.8008
2375.210, 110.7930
2376.550, 182.9883
2377.900, 69.51172
2379.250, 167.7422
2380.590, 549.9883
2381.940, 111.4453
2383.280, 492.2305
2384.630, 230.7656
2385.970, 77.53516
2387.320, 222.9336
2388.660, 37.10156
2390.010, 438.5469
2391.350, 244.9102
2392.700, 356.4297
2394.040, 114.4727
2395.380, 194.1836
2396.730, 67.35938
2398.070, 432.1484
2399.410, 91.26562
2400.750, 445.0039
2402.100, 366.7500
2403.440, 68.61328
2404.780, 301.3984
2406.120, 163.4961
2407.460, 62.80859
2408.800, 361.1367
2410.150, 2.523438
2411.490, 307.1289
2412.830, 60.25391
2414.170, 34.92578
2415.510, 146.9102
2416.850, 184.4141
2418.190, 9.035156
2419.520, 263.0664
2420.860, 388.3203
2422.200, 175.6836
2423.540, 409.3672
2424.880, 168.5625
2426.220, 297.7812
2427.560, 228.9023
2428.890, 191.7500
2430.230, 33.20703
2431.570, 413.0781
2432.900, 85.93359
2434.240, 288.4453
2435.580, 178.4453
2436.910, 302.3672
2438.250, 366.4023
2439.590, 82.44141
2440.920, 236.2070
2442.260, 94.38281
2443.590, 345.8672
2444.930, 323.8711
2446.260, 108.1094
2447.600, 191.1562
2448.930, 29.58203
2450.260, 44.01172
2451.600, 258.3516
2452.930, 255.2305
2454.260, 98.23438
2455.600, 63.25391
2456.930, 33.71094
2458.260, 109.5430
2459.590, 418.1094
2460.930, 77.20703
2462.260, 372.7266
2463.590, 399.7734
2464.920, 201.5312
2466.250, 427.8008
2467.580, 93.59766
2468.910, 123.2852
2470.240, 142.8867
2471.570, 495.3164
2472.900, 295.1836
2474.230, 181.4102
2475.560, 479.6680
2476.890, 2.953125
2478.220, 274.9609
2479.550, 387.0938
2480.880, 62.65625
2482.210, 95.83203
2483.540, 0.8710940
2484.860, 295.9453
2486.190, 351.8789
2487.520, 336.1250
2488.850, 450.4883
2490.170, 421.6719
2491.500, 0.9023440
2492.830, 269.9414
2494.150, 67.70312
2495.480, 314.3164
2496.800, 310.1562
2498.130, 358.8203
2499.450, 423.4492
2500.780, 232.5547
2502.100, 55.16797
2503.430, 6.425781
2504.750, 172.6406
2506.080, 300.8281
2507.400, 57.07031
2508.730, 37.52344
2510.050, 43.30859
2511.370, 270.2305
2512.700, 32.08203
2514.020, 588.6797
2515.340, 265.5039
2516.660, 675.8633
2517.990, 449.0547
2519.310, 324.2422
2520.630, 299.9180
2521.950, 90.12500
2523.270, 80.14844
2524.590, 196.3672
2525.910, 177.6914
2527.230, 64.33984
2528.550, 280.5039
2529.870, 350.9922
2531.190, 285.0820
2532.510, 236.1836
2533.830, 81.09375
2535.150, 564.8125
2536.470, 404.1367
2537.790, 23.89453
2539.110, 342.8359
2540.430, 612.7148
2541.740, 351.8008
2543.060, 103.7031
2544.380, 152.3516
2545.700, 61.64062
2547.010, 249.2891
2548.330, 568.8086
2549.650, 487.7305
2550.960, 3.636719
2552.280, 128.0078
2553.600, 441.9297
2554.910, 199.2930
2556.230, 254.9609
2557.540, 485.2031
2558.860, 529.5859
2560.170, 412.3750
2561.490, 192.3672
2562.800, 290.0703
2564.120, 93.16406
2565.430, 405.8828
2566.740, 301.9062
2568.060, 129.3359
2569.370, 253.2852
2570.680, 4.605469
2572.000, 202.8398
2573.310, 287.7695
2574.620, 343.8203
2575.930, 453.1719
2577.240, 240.5781
2578.560, 390.8086
2579.870, 401.0742
2581.180, 778.2930
2582.490, 588.4727
2583.800, 265.0508
2585.110, 492.8281
2586.420, 531.8125
2587.730, 280.7031
2589.040, 549.2266
2590.350, 193.3242
2591.660, 437.3711
2592.970, 389.3945
2594.280, 341.3984
2595.590, 292.4883
2596.890, 246.2109
2598.200, 196.6836
2599.510, 149.5273
2600.820, 269.0469
2602.130, 250.0117
2603.430, 354.6367
2604.740, 481.0273
2606.050, 678.9141
2607.350, 579.8906
2608.660, 271.1250
2609.970, 547.7031
2611.270, 134.9453
2612.580, 261.2500
2613.880, 439.2227
2615.190, 453.4258
2616.490, 546.4922
2617.800, 506.2227
2619.100, 368.1094
2620.410, 429.8672
2621.710, 496.8047
2623.020, 344.3203
2624.320, 383.1445
2625.620, 449.9727
2626.930, 767.3906
2628.230, 289.5547
2629.530, 389.5078
2630.840, 275.4297
2632.140, 244.9453
2633.440, 608.3477
2634.740, 146.5859
2636.040, 770.3867
2637.350, 132.4297
2638.650, 734.5117
2639.950, 475.0352
2641.250, 507.5625
2642.550, 742.5547
2643.850, 599.5195
2645.150, 425.5547
2646.450, 236.1719
2647.750, 279.9219
2649.050, 345.7305
2650.350, 630.7109
2651.650, 471.8555
2652.950, 602.0898
2654.240, 317.1953
2655.540, 329.8711
2656.840, 446.3320
2658.140, 414.5195
2659.440, 481.7070
2660.730, 486.4844
2662.030, 429.9219
2663.330, 574.4570
2664.620, 903.5625
2665.920, 375.7266
2667.220, 707.1523
2668.510, 763.6719
2669.810, 619.3125
2671.110, 823.6211
2672.400, 779.7773
2673.700, 514.3633
2674.990, 485.3203
2676.290, 899.3438
2677.580, 541.5977
2678.870, 554.3086
2680.170, 736.9375
2681.460, 388.1992
2682.760, 464.3008
2684.050, 353.3359
2685.340, 753.0117
2686.640, 684.3750
2687.930, 893.8555
2689.220, 632.1250
2690.510, 572.6875
2691.810, 315.8008
2693.100, 198.3047
2694.390, 909.2578
2695.680, 375.5156
2696.970, 217.2188
2698.260, 577.9609
2699.550, 276.3164
2700.840, 1104.195
2702.130, 759.0195
2703.420, 759.6758
2704.710, 894.0117
2706.000, 683.3281
2707.290, 403.1289
2708.580, 841.9688
2709.870, 520.4023
2711.160, 573.2812
2712.450, 117.6484
2713.740, 940.8828
2715.030, 525.8945
2716.310, 534.0781
2717.600, 504.2461
2718.890, 321.9727
2720.180, 590.2422
2721.460, 475.7617
2722.750, 495.3164
2724.040, 841.3711
2725.320, 322.5977
2726.610, 412.0352
2727.890, 328.4180
2729.180, 575.4375
2730.470, 484.0273
2731.750, 379.4258
2733.040, 274.2422
2734.320, 797.5977
2735.600, 285.5195
2736.890, 618.1914
2738.170, 555.6172
2739.460, 526.1211
2740.740, 514.6445
2742.020, 640.8203
2743.310, 369.5312
2744.590, 404.1914
2745.870, 144.5352
2747.160, 303.8477
2748.440, 322.9219
2749.720, 587.5117
2751.000, 126.5234
2752.280, 141.4492
2753.570, 240.2852
2754.850, 459.9258
2756.130, 306.8047
2757.410, 173.1328
2758.690, 312.6641
2759.970, 551.8242
2761.250, 421.6953
2762.530, 656.8906
2763.810, 604.8086
2765.090, 255.6445
2766.370, 360.5586
2767.650, 380.3984
2768.930, 159.9727
2770.210, 510.1172
2771.480, 17.39453
2772.760, 173.8555
2774.040, 328.4141
2775.320, 405.1445
2776.600, 557.6992
2777.870, 146.4531
2779.150, 729.5859
2780.430, 288.6445
2781.700, 201.9922
2782.980, 51.28125
2784.260, 149.7266
2785.530, 184.3828
2786.810, 164.2734
2788.080, 116.1836
2789.360, 250.0977
2790.630, 226.6328
2791.910, 352.6562
2793.180, 226.2734
2794.460, 440.3672
2795.730, 383.3594
2797.010, 530.9258
2798.280, 322.9492
2799.550, 315.5391
2800.830, 7.078125
2802.100, 401.3789
2803.370, 434.6680
2804.650, 34.61719
2805.920, 161.9180
2807.190, 253.4375
2808.460, 330.1328
2809.730, 360.0898
2811.010, 197.4844
2812.280, 622.7539
2813.550, 76.97656
2814.820, 569.0156
2816.090, 83.00000
2817.360, 134.2891
2818.630, 597.6562
2819.900, 129.6953
2821.170, 443.7930
2822.440, 36.16016
2823.710, 338.9531
2824.980, 139.0586
2826.250, 254.2773
2827.520, 198.5820
2828.790, 72.20703
2830.060, 116.6875
2831.320, 644.9492
2832.590, 768.3125
2833.860, 716.5547
2835.130, 511.5352
2836.390, 300.5352
2837.660, 667.9844
2838.930, 718.9297
2840.190, 892.8633
2841.460, 703.5469
2842.730, 881.9102
2843.990, 1005.914
2845.260, 964.8281
2846.520, 1203.473
2847.790, 1194.453
2849.060, 1426.277
2850.320, 1450.816
2851.580, 1453.098
2852.850, 1370.746
2854.110, 1174.660
2855.380, 1306.266
2856.640, 1704.355
2857.910, 1534.574
2859.170, 593.6602
2860.430, 1367.398
2861.700, 1091.871
2862.960, 1403.809
2864.220, 1023.734
2865.480, 1392.102
2866.740, 1234.703
2868.010, 1396.859
2869.270, 805.6445
2870.530, 1205.492
2871.790, 1055.129
2873.050, 993.4297
2874.310, 1314.348
2875.570, 1664.773
2876.830, 1610.652
2878.090, 1487.367
2879.350, 1233.906
2880.610, 1302.242
2881.870, 1605.426
2883.130, 674.3555
2884.390, 1137.062
2885.650, 1186.707
2886.910, 1103.539
2888.170, 1172.594
2889.430, 1314.508
2890.680, 1508.453
2891.940, 921.4023
2893.200, 1767.492
2894.460, 1406.801
2895.710, 1300.887
2896.970, 1574.992
2898.230, 1496.977
2899.490, 1774.629
2900.740, 1216.949
2902.000, 1565.332
2903.250, 1642.969
2904.510, 1593.512
2905.760, 1258.988
2907.020, 1554.098
2908.280, 1466.672
2909.530, 1490.266
2910.780, 1142.508
2912.040, 1446.555
2913.290, 1530.164
2914.550, 1449.152
2915.800, 1512.508
2917.050, 888.6875
2918.310, 1490.316
2919.560, 1065.613
2920.810, 1162.352
2922.070, 1348.684
2923.320, 1389.461
2924.570, 1172.086
2925.820, 968.6367
2927.080, 1123.047
2928.330, 1163.641
2929.580, 1518.109
2930.830, 1234.793
2932.080, 1144.035
2933.330, 1117.281
2934.580, 1025.480
2935.830, 1297.379
2937.080, 969.7930
2938.330, 1045.625
2939.580, 1428.812
2940.830, 841.9062
2942.080, 1152.016
2943.330, 915.8398
2944.580, 1152.129
2945.830, 793.8672
2947.080, 993.7617
2948.330, 743.0625
2949.570, 912.4336
2950.820, 1123.242
2952.070, 583.0586
2953.320, 933.2578
2954.560, 672.3242
2955.810, 859.7383
2957.060, 1002.449
2958.300, 424.0820
2959.550, 755.0195
2960.800, 732.8789
2962.040, 449.8047
2963.290, 668.0391
2964.530, 711.6562
2965.780, 485.7930
2967.020, 548.3125
2968.270, 420.5586
2969.510, 768.3516
2970.760, 697.0352
2972.000, 567.0312
2973.250, 662.3867
2974.490, 637.3984
2975.730, 301.8438
2976.980, 56.02734
2978.220, 563.8164
2979.460, 519.1758
2980.710, 386.8438
2981.950, 156.1758
2983.190, 385.5820
2984.430, 443.9844
2985.680, 425.9297
2986.920, 644.8203
2988.160, 432.3633
2989.400, 105.3047
2990.640, 217.3789
2991.880, 266.2227
2993.120, 623.8516
2994.360, 195.7930
2995.600, 554.4688
2996.840, 159.5664
2998.080, 629.4258
2999.320, 66.46094
3000.560, 54.01953
3001.800, 331.7383
3003.040, 647.7656
3004.280, 226.9492
3005.520, 314.6250
3006.760, 167.9180
3007.990, 442.9883
3009.230, 299.4336
3010.470, 297.6406
3011.710, 396.5898
3012.940, 186.2812
3014.180, 135.3711
3015.420, 140.8516
3016.660, 233.1211
3017.890, 315.1133
3019.130, 54.20703
3020.360, 425.2539
3021.600, 334.9102
3022.840, 458.0469
3024.070, 1.507813
3025.310, 113.9258
3026.540, 273.8633
3027.780, 2.625000
3029.010, 403.1172
3030.250, 92.73828
3031.480, 539.7656
3032.710, 15.16797
3033.950, 210.1484
3035.180, 157.5508
3036.410, 148.0938
3037.650, 186.9531
3038.880, 30.85156
3040.110, 230.0664
3041.350, 418.3477
3042.580, 412.1992
3043.810, 297.6836
3045.040, 23.26172
3046.270, 87.67188
3047.500, 40.22266
3048.740, 495.8008
3049.970, 459.3828
3051.200, 178.1758
3052.430, 377.8516
3053.660, 606.0781
3054.890, 209.5195
3056.120, 136.6914
3057.350, 297.6602
3058.580, 280.7695
3059.810, 495.1016
3061.040, 348.5977
3062.270, 564.0898
3063.490, 358.4023
3064.720, 512.4883
3065.950, 682.2539
3067.180, 252.2305
3068.410, 754.5820
3069.640, 182.7656
3070.860, 283.9570
3072.090, 240.3320
3073.320, 351.5078
3074.540, 343.7930
3075.770, 183.1055
3077.000, 282.3438
3078.220, 499.1328
3079.450, 303.9609
3080.680, 584.0234
3081.900, 35.85547
3083.130, 419.5273
3084.350, 595.5547
3085.580, 509.8281
3086.800, 497.9141
3088.030, 56.94922
3089.250, 350.3398
3090.480, 246.4922
3091.700, 115.3906
3092.920, 248.3398
3094.150, 228.5469
3095.370, 588.1250
3096.590, 128.4102
3097.820, 142.1641
3099.040, 626.9180
3100.260, 175.2461
3101.480, 424.4414
3102.710, 5.726563
3103.930, 159.1875
3105.150, 421.1641
3106.370, 285.3281
3107.590, 285.8906
3108.810, 574.9883
3110.040, 456.5742
3111.260, 786.0938
3112.480, 217.0625
3113.700, 710.1641
3114.920, 360.3750
3116.140, 381.4805
3117.360, 276.3867
3118.580, 882.2031
3119.800, 463.3594
3121.010, 359.5977
3122.230, 809.4297
3123.450, 482.1289
3124.670, 140.1211
3125.890, 183.2891
3127.110, 306.0273
3128.320, 603.0742
3129.540, 663.8203
3130.760, 560.8125
3131.980, 835.1719
3133.190, 564.9141
3134.410, 758.4023
3135.630, 350.8164
3136.840, 709.4648
3138.060, 621.8750
3139.280, 661.1250
3140.490, 538.7656
3141.710, 494.8164
3142.920, 361.6367
3144.140, 888.2852
3145.350, 548.6328
3146.570, 1038.383
3147.780, 796.2461
3149.000, 678.4766
3150.210, 493.7773
3151.430, 322.1406
3152.640, 493.0625
3153.850, 1061.906
3155.070, 906.4297
3156.280, 82.44531
3157.490, 418.9766
3158.700, 966.4023
3159.920, 525.2930
3161.130, 340.5352
3162.340, 446.9805
3163.550, 432.9219
3164.770, 409.0117
3165.980, 56.80859
3167.190, 115.8945
3168.400, 4.574219
3169.610, 5.695313
3170.820, 614.8984
3172.030, 179.9180
3173.240, 130.0820
3174.450, 192.3867
3175.660, 165.5820
3176.870, 75.38672
3178.080, 150.3672
3179.290, 431.6758
3180.500, 149.4180
3181.710, 100.3867
3182.920, 172.9648
3184.130, 39.57031
3185.330, 251.6055
3186.540, 119.3281
3187.750, 74.22656
3188.960, 593.7734
3190.170, 348.5781
3191.370, 30.69531
3192.580, 391.5039
3193.790, 265.1016
3194.990, 122.7695
3196.200, 437.7734
3197.410, 29.28906
3198.610, 165.1055
3199.820, 270.7461
3201.020, 422.7812
3202.230, 368.1484
3203.430, 142.1016
3204.640, 395.5352
3205.840, 192.6211
3207.050, 397.7930
3208.250, 216.5156
3209.460, 171.1797
3210.660, 50.77344
3211.870, 46.99219
3213.070, 145.9141
3214.270, 229.6016
3215.480, 177.3906
3216.680, 47.43750
3217.880, 89.53906
3219.080, 38.52344
3220.290, 218.6289
3221.490, 51.15625
3222.690, 320.3672
3223.890, 75.56641
3225.090, 391.8672
3226.300, 682.4062
3227.500, 666.3906
3228.700, 959.7969
3229.900, 676.6719
3231.100, 612.5391
3232.300, 1246.398
3233.500, 1384.695
3234.700, 1398.539
3235.900, 1986.930
3237.100, 1949.117
3238.300, 2088.305
3239.500, 1977.328
3240.700, 2049.297
3241.900, 2007.430
3243.090, 2821.859
3244.290, 2857.375
3245.490, 3479.922
3246.690, 3084.211
3247.890, 3492.805
3249.080, 4150.055
3250.280, 4256.523
3251.480, 4258.867
3252.680, 4856.953
3253.870, 5016.883
3255.070, 4953.586
3256.270, 5275.242
3257.460, 5799.961
3258.660, 6298.242
3259.850, 6117.391
3261.050, 6035.312
3262.250, 6585.109
3263.440, 6788.266
3264.640, 6973.094
3265.830, 7306.898
3267.020, 7632.883
3268.220, 7659.961
3269.410, 8166.250
3270.610, 7811.023
3271.800, 8006.922
3272.990, 7805.320
3274.190, 7981.336
3275.380, 8243.656
3276.570, 7733.172
3277.770, 8614.797
3278.960, 7847.117
3280.150, 7849.250
3281.340, 7451.117
3282.540, 7821.133
3283.730, 7302.062
3284.920, 7677.219
3286.110, 7431.781
3287.300, 7136.258
3288.490, 6530.492
3289.680, 6976.828
3290.880, 6241.461
3292.070, 6201.562
3293.260, 5935.312
3294.450, 6028.562
3295.640, 5367.969
3296.830, 5144.711
3298.010, 5476.812
3299.200, 5075.734
3300.390, 5065.938
3301.580, 5054.648
3302.770, 4168.703
3303.960, 3792.023
3305.150, 4255.312
3306.340, 3711.164
3307.520, 3377.766
3308.710, 2589.922
3309.900, 3387.711
3311.090, 3047.094
3312.270, 2909.812
3313.460, 2686.422
3314.650, 2184.594
3315.830, 2633.539
3317.020, 1998.727
3318.210, 1714.336
3319.390, 2042.594
3320.580, 1599.547
3321.760, 1520.406
3322.950, 1201.758
3324.130, 1115.352
3325.320, 1849.312
3326.500, 1364.367
3327.690, 768.0078
3328.870, 745.8281
3330.060, 717.7344
3331.240, 711.0938
3332.420, 760.2500
3333.610, 614.8203
3334.790, 656.3750
3335.970, 312.0391
3337.160, 482.0000
3338.340, 66.07812
3339.520, 475.4375
3340.700, 531.2734
3341.890, 573.6641
3343.070, 95.14062
3344.250, 411.8359
3345.430, 352.1797
3346.610, 420.7734
3347.790, 471.5156
3348.970, 224.6719
3350.150, 302.3281
3351.340, 266.0547
3352.520, 425.5938
3353.700, 46.21875
3354.880, 132.8438
3356.060, 799.9922
3357.240, 911.5469
3358.410, 1160.188
3359.590, 722.4062
3360.770, 779.2422
3361.950, 1004.055
3363.130, 1085.258
3364.310, 1152.117
3365.490, 1128.281
3366.670, 1312.922
3367.840, 1950.250
3369.020, 1594.750
3370.200, 1594.359
3371.380, 1732.500
3372.550, 1815.969
3373.730, 1910.695
3374.910, 2184.547
3376.080, 1732.078
3377.260, 2417.312
3378.430, 2291.188
3379.610, 2743.953
3380.790, 2893.477
3381.960, 2703.234
3383.140, 2936.938
3384.310, 2545.609
3385.490, 2946.523
3386.660, 3788.719
3387.840, 3252.344
3389.010, 3621.234
3390.180, 3854.445
3391.360, 3485.672
3392.530, 4331.508
3393.710, 3818.734
3394.880, 4137.570
3396.050, 4318.625
3397.230, 4171.867
3398.400, 4296.539
3399.570, 4502.836
3400.740, 4822.781
3401.920, 5051.672
3403.090, 4419.211
3404.260, 4689.852
3405.430, 5099.875
3406.600, 5053.797
3407.770, 5104.344
3408.940, 5424.555
3410.110, 5348.062
3411.290, 5564.695
3412.460, 5651.500
3413.630, 5779.469
3414.800, 5728.484
3415.970, 6062.641
3417.140, 6288.539
3418.310, 6615.531
3419.470, 7141.984
3420.640, 7346.141
3421.810, 7187.234
3422.980, 7246.875
3424.150, 8175.797
3425.320, 8322.297
3426.490, 8479.953
3427.650, 8997.859
3428.820, 9445.672
3429.990, 9301.023
3431.160, 9915.070
3432.320, 9977.008
3433.490, 10500.11
3434.660, 10818.18
3435.820, 11248.09
3436.990, 12002.45
3438.160, 12182.77
3439.320, 11705.21
3440.490, 12088.10
3441.650, 13031.35
3442.820, 13245.94
3443.980, 12969.59
3445.150, 13324.49
3446.310, 13006.01
3447.480, 13868.64
3448.640, 13860.09
3449.810, 12784.57
3450.970, 13678.91
3452.140, 13233.27
3453.300, 12856.74
3454.460, 12740.41
3455.630, 13187.70
3456.790, 12893.77
3457.950, 12213.20
3459.110, 11790.84
3460.280, 12334.39
3461.440, 11400.76
3462.600, 11218.08
3463.760, 11199.36
3464.930, 11030.34
3466.090, 10659.24
3467.250, 10348.75
3468.410, 9976.133
3469.570, 10075.41
3470.730, 9630.062
3471.890, 9738.570
3473.050, 9048.156
3474.210, 8551.859
3475.370, 8956.805
3476.530, 8590.438
3477.690, 8131.578
3478.850, 8317.281
3480.010, 8499.586
3481.170, 8265.945
3482.330, 8213.766
3483.490, 7928.844
3484.650, 8636.992
3485.800, 9002.508
3486.960, 9722.578
3488.120, 9812.715
3489.280, 9970.094
3490.430, 10212.10
3491.590, 10957.91
3492.750, 10779.36
3493.910, 10844.98
3495.060, 10900.43
3496.220, 10253.47
3497.380, 9256.434
3498.530, 9597.895
3499.690, 7820.477
3500.840, 7576.109
3502.000, 6347.430
3503.160, 5371.824
3504.310, 5235.895
3505.470, 4520.023
3506.620, 4367.137
3507.780, 4157.066
3508.930, 3797.812
3510.080, 3584.695
3511.240, 3121.273
3512.390, 3284.000
3513.550, 2826.750
3514.700, 2918.590
3515.850, 2973.297
3517.010, 2891.367
3518.160, 3036.879
3519.310, 3371.664
3520.460, 3548.207
3521.620, 3369.770
3522.770, 3496.297
3523.920, 3648.293
3525.070, 3938.465
3526.220, 3992.020
3527.380, 4235.047
3528.530, 4840.027
3529.680, 4672.746
3530.830, 4656.867
3531.980, 5087.391
3533.130, 5167.898
3534.280, 5852.398
3535.430, 6099.492
3536.580, 6556.375
3537.730, 7259.273
3538.880, 7784.449
3540.030, 8356.527
3541.180, 8734.094
3542.330, 10067.10
3543.480, 10353.12
3544.620, 11102.83
3545.770, 12046.70
3546.920, 13221.20
3548.070, 14118.76
3549.220, 14601.90
3550.360, 15552.03
3551.510, 16498.95
3552.660, 16746.15
3553.810, 16461.55
3554.950, 17043.53
3556.100, 17030.34
3557.250, 16622.35
3558.390, 15479.11
3559.540, 15772.53
3560.680, 14912.67
3561.830, 14466.54
3562.980, 13671.38
3564.120, 13260.45
3565.270, 12533.45
3566.410, 12397.99
3567.560, 11570.52
3568.700, 11862.53
3569.850, 11580.76
3570.990, 11466.11
3572.130, 11835.95
3573.280, 11139.43
3574.420, 11448.87
3575.570, 10969.30
3576.710, 10648.91
3577.850, 10892.68
3578.990, 10501.22
3580.140, 10077.71
3581.280, 9978.211
3582.420, 9273.336
3583.560, 8703.688
3584.710, 8399.891
3585.850, 7919.297
3586.990, 7503.445
3588.130, 6824.969
3589.270, 6231.145
3590.410, 5456.562
3591.550, 5584.070
3592.700, 4397.273
3593.840, 3948.078
3594.980, 3652.500
3596.120, 3422.191
3597.260, 3613.789
3598.400, 3354.680
3599.540, 2738.633
3600.680, 2784.301
3601.810, 2295.000
3602.950, 2207.664
3604.090, 2270.461
3605.230, 1568.859
3606.370, 1908.633
3607.510, 1992.324
3608.650, 1766.164
3609.780, 1394.145
3610.920, 1505.547
3612.060, 1640.094
3613.200, 1516.863
3614.330, 1289.293
3615.470, 1295.996
3616.610, 1141.316
3617.740, 1018.059
3618.880, 1006.535
3620.020, 1048.906
3621.150, 1063.227
3622.290, 615.6250
3623.420, 732.7031
3624.560, 279.8555
3625.690, 625.5312
3626.830, 572.5039
3627.960, 742.6484
3629.100, 716.3242
3630.230, 724.5234
3631.370, 386.0117
3632.500, 28.03125
3633.640, 267.5781
3634.770, 319.3984
3635.900, 52.20312
3637.040, 263.9883
3638.170, 124.4258
3639.300, 236.2305
3640.440, 512.4883
3641.570, 146.1953
3642.700, 187.5078
3643.830, 374.3203
3644.970, 254.3242
3646.100, 188.1562
3647.230, 117.8359
3648.360, 180.2930
3649.490, 164.1211
3650.620, 14.43750
3651.750, 399.6641
3652.890, 171.1250
3654.020, 155.7539
3655.150, 602.7305
3656.280, 451.0195
3657.410, 106.1602
3658.540, 111.1523
3659.670, 435.3125
3660.800, 270.3711
3661.930, 360.6523
3663.050, 81.59766
3664.180, 98.16406
3665.310, 265.4219
3666.440, 34.44531
3667.570, 212.9961
3668.700, 266.4297
3669.830, 355.2578
3670.950, 286.7266
3672.080, 339.1406
3673.210, 363.6484
3674.340, 15.08594
3675.460, 57.32812
3676.590, 4.089844
3677.720, 574.5352
3678.840, 209.9453
3679.970, 201.9375
3681.100, 95.14062
3682.220, 73.58594
3683.350, 201.6484
3684.470, 126.9102
3685.600, 498.1016
3686.720, 472.1055
3687.850, 10.34375
3688.970, 57.46875
3690.100, 27.66016
3691.220, 159.1406
3692.350, 682.4141
3693.470, 166.6953
3694.600, 50.74609
3695.720, 733.0234
3696.840, 336.3945
3697.970, 421.7695
3699.090, 10.48047
3700.210, 494.6914
3701.340, 211.4883
3702.460, 25.55078
3703.580, 184.7383
3704.700, 445.8242
3705.830, 336.5234
3706.950, 445.1016
3708.070, 792.1055
3709.190, 529.9492
3710.310, 523.8125
3711.430, 795.8906
3712.560, 675.2773
3713.680, 516.4336
3714.800, 579.9961
3715.920, 402.2734
3717.040, 645.8164
3718.160, 799.7773
3719.280, 888.5781
3720.400, 1021.820
3721.520, 643.3242
3722.640, 371.4375
3723.760, 948.3789
3724.880, 852.1758
3725.990, 1082.707
3727.110, 1019.320
3728.230, 907.1367
3729.350, 762.6758
3730.470, 938.0273
3731.590, 1047.574
3732.700, 586.2578
3733.820, 560.9570
3734.940, 962.2852
3736.060, 1099.344
3737.170, 564.5469
3738.290, 1003.016
3739.410, 1535.285
3740.520, 1402.520
3741.640, 1317.086
3742.760, 1095.836
3743.870, 836.1406
3744.990, 1156.270
3746.100, 1548.941
3747.220, 1669.043
3748.330, 993.4297
3749.450, 1581.422
3750.560, 962.6172
3751.680, 1267.434
3752.790, 1623.574
3753.910, 1440.883
3755.020, 1686.523
3756.140, 1597.289
3757.250, 1180.004
3758.360, 1676.684
3759.480, 887.9648
3760.590, 1203.652
3761.700, 1350.578
3762.820, 1699.328
3763.930, 1829.934
3765.040, 1261.246
3766.150, 1782.129
3767.270, 1743.066
3768.380, 1438.777
3769.490, 1707.004
3770.600, 1428.145
3771.710, 1572.078
3772.820, 1571.660
3773.940, 1719.395
3775.050, 1738.586
3776.160, 1887.934
3777.270, 1879.445
3778.380, 1489.762
3779.490, 1534.164
3780.600, 1973.371
3781.710, 1913.512
3782.820, 2236.773
3783.930, 1746.578
3785.040, 1658.523
3786.150, 1718.070
3787.250, 1828.910
3788.360, 1739.012
3789.470, 1726.770
3790.580, 1425.441
3791.690, 1999.316
3792.800, 2064.445
3793.900, 1751.586
3795.010, 1312.766
3796.120, 1722.840
3797.230, 1519.633
3798.330, 1646.910
3799.440, 1731.605
3800.550, 1666.148
3801.650, 1743.070
3802.760, 1566.688
3803.870, 1587.184
3804.970, 1432.855
3806.080, 1909.910
3807.180, 1366.809
3808.290, 1374.020
3809.390, 1377.559
3810.500, 1513.172
3811.610, 1238.402
3812.710, 1436.922
3813.810, 1188.453
3814.920, 1701.977
3816.020, 1385.531
3817.130, 1091.422
3818.230, 1122.109
3819.330, 1631.766
3820.440, 1429.168
3821.540, 1282.637
3822.640, 1461.719
3823.750, 1185.984
3824.850, 1223.145
3825.950, 1612.859
3827.060, 1417.852
3828.160, 1348.328
3829.260, 1197.953
3830.360, 1773.836
3831.460, 955.9648
3832.570, 1456.789
3833.670, 1252.207
3834.770, 1563.309
3835.870, 1154.320
3836.970, 1147.668
3838.070, 1255.621
3839.170, 1457.664
3840.270, 1113.219
3841.370, 1862.660
3842.470, 1591.336
3843.570, 1205.555
3844.670, 1145.121
3845.770, 1129.766
3846.870, 1258.484
3847.970, 1133.457
3849.070, 1151.410
3850.170, 1579.953
3851.260, 652.1055
3852.360, 1197.672
3853.460, 1318.840
3854.560, 1322.469
3855.660, 975.0234
3856.750, 1335.816
3857.850, 863.6719
3858.950, 1165.211
3860.050, 865.2891
3861.140, 980.6836
3862.240, 874.7734
3863.340, 1797.219
3864.430, 1530.801
3865.530, 947.7812
3866.630, 1168.852
3867.720, 1086.684
3868.820, 1179.258
3869.910, 1070.242
3871.010, 935.5312
3872.100, 885.4844
3873.200, 716.0352
3874.290, 1138.422
3875.390, 929.7305
3876.480, 1079.750
3877.580, 654.5898
3878.670, 1093.441
3879.760, 783.3438
3880.860, 1062.863
3881.950, 1250.656
3883.050, 1132.480
3884.140, 1365.492
3885.230, 1180.473
3886.320, 1159.078
3887.420, 991.7227
3888.510, 848.7188
3889.600, 603.8906
3890.690, 1322.754
3891.790, 952.8672
3892.880, 1185.297
3893.970, 798.7266
3895.060, 827.5391
3896.150, 693.6172
3897.240, 1139.297
3898.330, 814.7617
3899.430, 571.9805
3900.520, 763.6289
3901.610, 1021.047
3902.700, 849.5508
3903.790, 789.5820
3904.880, 874.8867
3905.970, 750.3477
3907.060, 1012.016
3908.140, 844.9336
3909.230, 858.9219
3910.320, 556.8984
3911.410, 573.1953
3912.500, 616.3203
3913.590, 513.8086
3914.680, 622.3789
3915.770, 622.3320
3916.850, 508.1016
3917.940, 669.5000
3919.030, 759.5352
3920.120, 424.4180
3921.200, 378.8984
3922.290, 487.9883
3923.380, 640.6406
3924.460, 1041.668
3925.550, 665.3086
3926.640, 503.7969
3927.720, 642.6875
3928.810, 329.6289
3929.890, 234.6133
3930.980, 662.1328
3932.070, 294.7109
3933.150, 629.3086
3934.240, 1214.770
3935.320, 501.0312
3936.410, 289.6562
3937.490, 684.3633
3938.570, 316.1055
3939.660, 588.9766
3940.740, 800.8555
3941.830, 600.8359
3942.910, 112.5938
3943.990, 535.8164
3945.080, 363.8320
3946.160, 294.0469
3947.240, 34.65234
3948.330, 364.0234
3949.410, 924.5352
3950.490, 632.0742
3951.570, 70.28906
3952.660, 195.3125
3953.740, 428.9023
3954.820, 914.7031
3955.900, 621.5625
3956.980, 624.5781
3958.060, 673.6211
3959.150, 147.2461
3960.230, 351.9180
3961.310, 427.0312
3962.390, 284.8750
3963.470, 749.2578
3964.550, 646.8789
3965.630, 371.0117
3966.710, 329.4570
3967.790, 862.0977
3968.870, 633.7461
3969.950, 58.75781
3971.030, 458.0391
3972.110, 276.4531
3973.180, 555.8047
3974.260, 147.1992
3975.340, 626.2930
3976.420, 556.0547
3977.500, 397.6719
3978.580, 515.1914
3979.650, 352.3516
3980.730, 177.4297
3981.810, 483.6406
3982.890, 630.0039
3983.960, 259.3477
3985.040, 543.7734
3986.120, 532.1914
3987.190, 206.3945
3988.270, 77.14453
3989.350, 440.8359
3990.420, 681.1328
3991.500, 525.8359
3992.570, 371.0977
3993.650, 501.9141
3994.730, 395.9609
3995.800, 681.4609
3996.880, 401.3594
3997.950, 244.5508
3999.030, 1.054688
4000.100, 0.0000000E+00
##END=



