##NAMES=Akermanite
##RRUFFID=R061100
##IDEAL CHEMISTRY=Ca_2_MgSi_2_O_7_
##LOCALITY=Lago de Vico, Viterbo, Italy
##OWNER=Michael Scott
##SOURCE=Michael Scott
##DESCRIPTION=Colorless to white short prismatic crystals
##STATUS=The identification of this mineral has been confirmed by X-ray diffraction and chemical analysis
##URL=rruff.info/R061100
##MEASURED CHEMISTRY=(Ca_1.80_Na_0.20_)_Σ=2_(Mg_0.58_Al_0.38_Fe_0.04_)_Σ=1_(Si_1.82_Al_0.18_)_Σ=2_O_7_
##PIN_ID=M00238
##ORIENTATION=Laser parallel to a* (1 0 0). Fiducial mark perpendicular to laser is parallel to -c [0 0 -1]
196.8660, 0.0000000E+00
198.0960, 171.7773
199.3250, 25.58008
200.5540, 4.901367
201.7830, 147.8955
203.0120, 62.55762
204.2400, 18.87402
205.4690, 108.0674
206.6970, 266.9707
207.9250, 163.4971
209.1530, 169.3828
210.3800, 255.4521
211.6080, 324.5811
212.8350, 414.6621
214.0620, 368.5820
215.2880, 501.2168
216.5150, 409.4541
217.7410, 502.2070
218.9680, 707.4150
220.1940, 919.0400
221.4190, 932.0908
222.6450, 1021.615
223.8700, 1032.580
225.0960, 1126.051
226.3210, 1312.779
227.5450, 1310.953
228.7700, 1383.424
229.9940, 1483.114
231.2190, 1277.957
232.4430, 1462.898
233.6660, 1321.894
234.8900, 1274.911
236.1140, 1457.977
237.3370, 1447.104
238.5600, 1217.261
239.7830, 1441.622
241.0050, 1167.025
242.2280, 911.5430
243.4500, 995.3584
244.6720, 972.5078
245.8940, 974.3750
247.1160, 1037.826
248.3370, 914.3086
249.5580, 701.9209
250.7790, 682.7822
252.0000, 743.9404
253.2210, 612.2686
254.4410, 701.6211
255.6620, 735.1348
256.8820, 679.8262
258.1020, 576.3330
259.3210, 689.5156
260.5410, 567.3818
261.7600, 528.9434
262.9790, 493.2051
264.1980, 361.1719
265.4170, 511.8594
266.6360, 455.2754
267.8540, 483.4336
269.0720, 339.3457
270.2900, 363.0371
271.5080, 461.5938
272.7260, 367.0117
273.9430, 347.8613
275.1600, 357.4668
276.3770, 282.8848
277.5940, 497.4824
278.8100, 424.0410
280.0270, 365.5996
281.2430, 436.8887
282.4590, 312.6113
283.6750, 375.8770
284.8910, 388.5020
286.1060, 529.5625
287.3210, 394.0352
288.5360, 360.7598
289.7510, 556.9297
290.9660, 681.4668
292.1800, 685.9727
293.3950, 706.6602
294.6090, 836.3691
295.8230, 872.6602
297.0360, 1036.871
298.2500, 972.8008
299.4630, 979.8301
300.6760, 930.6855
301.8890, 1164.514
303.1020, 1292.688
304.3150, 1516.996
305.5270, 1604.246
306.7390, 1712.883
307.9510, 1710.809
309.1630, 1795.189
310.3750, 1739.016
311.5860, 1625.107
312.7970, 1601.844
314.0080, 1615.762
315.2190, 1753.803
316.4300, 1692.658
317.6400, 1583.729
318.8510, 1458.904
320.0610, 1302.172
321.2710, 1242.668
322.4800, 1344.979
323.6900, 1120.025
324.8990, 856.1270
326.1080, 1072.338
327.3170, 798.0098
328.5260, 918.6426
329.7340, 714.2246
330.9430, 728.7656
332.1510, 615.2598
333.3590, 553.7109
334.5670, 791.1152
335.7740, 223.4785
336.9820, 586.8008
338.1890, 357.0820
339.3960, 436.3203
340.6030, 354.5215
341.8100, 286.6816
343.0160, 353.5918
344.2220, 270.4590
345.4280, 375.4238
346.6340, 231.0859
347.8400, 265.0859
349.0460, 304.1504
350.2510, 127.8301
351.4560, 56.98828
352.6610, 223.1738
353.8660, 163.3828
355.0700, 76.61133
356.2750, 111.8457
357.4790, 227.0859
358.6830, 103.3281
359.8870, 255.5664
361.0910, 49.80273
362.2940, 164.0254
363.4970, 179.2363
364.7000, 22.56445
365.9030, 261.6055
367.1060, 62.75977
368.3080, 236.8926
369.5110, 34.00781
370.7130, 28.09180
371.9150, 165.1523
373.1170, 54.18359
374.3180, 50.18750
375.5200, 3.158203
376.7210, 33.09375
377.9220, 86.99414
379.1230, 51.13672
380.3230, 32.67969
381.5240, 44.45898
382.7240, 9.792969
383.9240, 61.91016
385.1240, 156.4238
386.3240, 155.1621
387.5230, 162.2871
388.7230, 45.17383
389.9220, 0.5996090
391.1210, 14.02734
392.3200, 85.71289
393.5180, 69.42969
394.7170, 2.298828
395.9150, 44.18555
397.1130, 36.86133
398.3110, 70.85547
399.5080, 15.80078
400.7060, 37.94727
401.9030, 95.99414
403.1000, 76.76172
404.2970, 45.53125
405.4940, 103.1094
406.6910, 52.29492
407.8870, 31.23438
409.0830, 131.2812
410.2790, 49.38281
411.4750, 173.7402
412.6710, 108.3301
413.8660, 67.08984
415.0610, 27.08398
416.2560, 116.7812
417.4510, 87.27539
418.6460, 21.70508
419.8410, 122.2578
421.0350, 6.177734
422.2290, 53.94727
423.4230, 9.130859
424.6170, 24.63281
425.8100, 49.32617
427.0040, 90.01953
428.1970, 16.56055
429.3900, 177.9043
430.5830, 68.47070
431.7760, 76.87891
432.9680, 135.8438
434.1610, 79.34180
435.3530, 44.47266
436.5450, 377.4902
437.7360, 79.39453
438.9280, 87.23047
440.1190, 161.9531
441.3110, 164.5977
442.5020, 160.3691
443.6930, 104.7793
444.8830, 129.2734
446.0740, 158.7109
447.2640, 160.0879
448.4540, 166.3750
449.6440, 114.5918
450.8340, 285.7402
452.0240, 118.8125
453.2130, 139.8438
454.4020, 418.8145
455.5910, 177.7422
456.7800, 499.6074
457.9690, 545.3789
459.1570, 242.0977
460.3460, 331.7461
461.5340, 369.3789
462.7220, 658.9941
463.9090, 484.5957
465.0970, 683.1836
466.2840, 730.7578
467.4720, 798.3184
468.6590, 828.8672
469.8460, 888.7539
471.0320, 963.9316
472.2190, 1002.037
473.4050, 1023.953
474.5910, 1098.449
475.7770, 1177.936
476.9630, 1356.410
478.1490, 1417.879
479.3340, 1488.336
480.5190, 1508.746
481.7040, 1449.225
482.8890, 1504.656
484.0740, 1491.080
485.2580, 1568.496
486.4430, 1449.891
487.6270, 1290.270
488.8110, 1312.627
489.9950, 1019.965
491.1780, 996.2852
492.3620, 1086.602
493.5450, 1054.609
494.7280, 846.1562
495.9110, 782.5469
497.0940, 860.8496
498.2760, 658.7441
499.4590, 728.8965
500.6410, 645.4785
501.8230, 640.6816
503.0050, 350.3730
504.1860, 463.2656
505.3680, 281.9375
506.5490, 509.7402
507.7300, 379.8828
508.9110, 398.8750
510.0920, 418.1484
511.2730, 176.2656
512.4530, 375.2598
513.6330, 340.1543
514.8130, 460.1230
515.9930, 442.4219
517.1730, 305.7305
518.3520, 509.7324
519.5320, 503.7637
520.7110, 429.3789
521.8900, 496.9297
523.0690, 255.8809
524.2470, 355.0020
525.4260, 492.0723
526.6040, 265.3652
527.7820, 157.1875
528.9600, 198.9941
530.1380, 121.4043
531.3150, 150.4004
532.4930, 198.9961
533.6700, 160.5547
534.8470, 168.9551
536.0240, 143.9414
537.2000, 129.2852
538.3770, 134.9883
539.5530, 111.7324
540.7290, 75.87109
541.9050, 12.88086
543.0810, 11.16406
544.2570, 174.2031
545.4320, 131.3184
546.6080, 60.84180
547.7830, 180.1387
548.9580, 118.2227
550.1320, 39.75195
551.3070, 117.1289
552.4810, 41.55664
553.6550, 36.97266
554.8300, 196.3496
556.0030, 136.2617
557.1770, 151.5352
558.3510, 304.3340
559.5240, 236.3203
560.6970, 216.0957
561.8700, 194.2637
563.0430, 218.2480
564.2160, 230.5664
565.3880, 336.1582
566.5600, 361.3770
567.7320, 493.9766
568.9040, 431.5215
570.0760, 638.5586
571.2480, 536.6094
572.4190, 618.5449
573.5900, 580.3926
574.7610, 532.1348
575.9320, 695.0020
577.1030, 649.5508
578.2740, 776.9688
579.4440, 894.8418
580.6140, 1169.777
581.7840, 1159.023
582.9540, 1195.281
584.1240, 1372.525
585.2930, 1409.535
586.4630, 1833.648
587.6320, 1636.887
588.8010, 1994.133
589.9700, 2004.406
591.1380, 2296.469
592.3070, 2636.824
593.4750, 3005.914
594.6430, 3268.094
595.8110, 3709.441
596.9790, 4040.785
598.1460, 4630.127
599.3140, 4913.469
600.4810, 5566.809
601.6480, 6002.143
602.8150, 6787.479
603.9820, 7312.812
605.1480, 8227.148
606.3150, 8736.480
607.4810, 9643.811
608.6470, 10432.14
609.8130, 11064.47
610.9790, 11743.80
612.1440, 12472.12
613.3100, 13042.97
614.4750, 13724.78
615.6400, 14243.10
616.8050, 15037.43
617.9690, 15693.75
619.1340, 16450.07
620.2980, 16848.39
621.4620, 17430.72
622.6260, 17754.04
623.7900, 17793.36
624.9540, 18079.68
626.1170, 17890.00
627.2810, 17538.32
628.4440, 17201.64
629.6070, 16386.96
630.7690, 15951.37
631.9320, 15047.56
633.0950, 14261.89
634.2570, 13631.28
635.4190, 13084.68
636.5810, 12330.89
637.7430, 11464.99
638.9040, 11232.61
640.0660, 10640.28
641.2270, 10422.21
642.3880, 10223.29
643.5490, 10018.60
644.7100, 10090.31
645.8700, 10423.14
647.0310, 10960.16
648.1910, 11689.81
649.3510, 12702.23
650.5110, 14113.08
651.6710, 15744.50
652.8300, 17815.85
653.9900, 19997.64
655.1490, 22253.47
656.3080, 24421.66
657.4670, 26431.86
658.6250, 28323.93
659.7840, 29702.12
660.9420, 31033.29
662.1010, 31604.47
663.2590, 31885.65
664.4170, 31799.90
665.5740, 31333.06
666.7320, 29841.21
667.8890, 29020.40
669.0460, 27468.58
670.2030, 25479.79
671.3600, 23561.00
672.5170, 21595.20
673.6740, 19692.41
674.8300, 17735.63
675.9860, 16000.87
677.1420, 14224.11
678.2980, 13040.36
679.4540, 11507.60
680.6090, 10506.83
681.7650, 9151.797
682.9200, 8084.797
684.0750, 7292.039
685.2300, 6474.270
686.3840, 5644.512
687.5390, 5327.744
688.6930, 4704.988
689.8470, 4243.227
691.0010, 3652.230
692.1550, 3408.498
693.3090, 3153.137
694.4620, 2960.422
695.6160, 2655.727
696.7690, 2394.027
697.9220, 2171.359
699.0750, 2132.684
700.2280, 2155.014
701.3800, 1886.338
702.5320, 1524.662
703.6850, 1545.002
704.8370, 1459.346
705.9880, 1397.689
707.1400, 1201.023
708.2920, 1192.387
709.4430, 1080.750
710.5940, 1042.160
711.7450, 937.5898
712.8960, 905.1250
714.0470, 834.4844
715.1970, 849.9434
716.3480, 810.4023
717.4980, 799.8535
718.6480, 754.3008
719.7980, 768.9336
720.9470, 649.1797
722.0970, 741.6113
723.2460, 648.0371
724.3960, 504.4590
725.5450, 425.8750
726.6940, 523.2871
727.8420, 529.6934
728.9910, 380.0938
730.1390, 297.4922
731.2870, 558.8848
732.4350, 495.2734
733.5830, 560.6582
734.7310, 519.0410
735.8790, 527.4180
737.0260, 468.7910
738.1730, 326.1621
739.3200, 500.5312
740.4670, 545.8965
741.6140, 303.2637
742.7610, 383.6250
743.9070, 370.9863
745.0530, 241.3496
746.1990, 209.7090
747.3450, 232.0684
748.4910, 214.4277
749.6370, 147.7852
750.7820, 200.1445
751.9270, 154.5039
753.0720, 151.8633
754.2170, 233.2246
755.3620, 240.5859
756.5070, 237.9512
757.6510, 257.3145
758.7950, 259.4395
759.9400, 293.0488
761.0840, 254.4180
762.2270, 273.7871
763.3710, 229.1602
764.5140, 176.3672
765.6580, 61.91406
766.8010, 45.29492
767.9440, 35.67578
769.0870, 21.94336
770.2290, 66.40430
771.3720, 122.2441
772.5140, 313.9727
773.6560, 263.8828
774.7990, 214.9492
775.9400, 144.1445
777.0820, 273.4277
778.2240, 166.8711
779.3650, 345.4180
780.5060, 366.1582
781.6470, 278.1055
782.7880, 313.2070
783.9290, 94.48828
785.0690, 344.8242
786.2100, 167.3516
787.3500, 414.9785
788.4900, 122.8281
789.6300, 107.7500
790.7700, 50.73242
791.9090, 134.7461
793.0490, 285.8340
794.1880, 89.92773
795.3270, 96.30469
796.4660, 90.41406
797.6050, 82.14453
798.7440, 63.88086
799.8820, 189.6289
801.0200, 9.384766
802.1590, 142.1484
803.2970, 156.9219
804.4340, 346.7031
805.5720, 483.4980
806.7100, 448.3027
807.8470, 317.1191
808.9840, 464.9492
810.1210, 481.7910
811.2580, 669.6426
812.3950, 726.0156
813.5310, 661.3848
814.6680, 807.2734
815.8040, 772.1797
816.9400, 630.0957
818.0760, 642.0273
819.2120, 760.9746
820.3470, 783.9375
821.4830, 797.9160
822.6180, 805.8262
823.7530, 851.1641
824.8880, 783.9336
826.0230, 865.9688
827.1580, 943.0195
828.2920, 796.1094
829.4270, 759.2148
830.5610, 946.3398
831.6950, 1019.479
832.8290, 978.6367
833.9620, 926.8105
835.0960, 1118.002
836.2290, 1120.221
837.3620, 1166.461
838.4950, 1119.730
839.6280, 1432.018
840.7610, 1310.361
841.8940, 1129.727
843.0260, 1766.129
844.1580, 1461.572
845.2910, 1578.037
846.4230, 1743.523
847.5540, 1667.074
848.6860, 1702.693
849.8170, 2072.332
850.9490, 2132.990
852.0800, 2131.668
853.2110, 2020.365
854.3420, 2380.084
855.4730, 2260.822
856.6030, 2777.582
857.7340, 2837.361
858.8640, 2897.164
859.9940, 3281.984
861.1240, 3287.828
862.2540, 3459.691
863.3830, 3615.578
864.5130, 3696.488
865.6420, 3772.420
866.7710, 3768.375
867.9000, 3710.426
869.0290, 3412.580
870.1570, 3507.773
871.2860, 2922.053
872.4140, 3236.418
873.5430, 2871.824
874.6710, 2808.289
875.7980, 2820.840
876.9260, 3059.473
878.0540, 2980.215
879.1810, 3094.986
880.3080, 3531.781
881.4360, 3840.631
882.5630, 4474.508
883.6890, 4770.408
884.8160, 5287.369
885.9420, 6157.412
887.0690, 7016.504
888.1950, 7417.635
889.3210, 7857.793
890.4470, 8123.975
891.5730, 8667.188
892.6980, 9015.426
893.8240, 8734.693
894.9490, 9295.992
896.0740, 9537.328
897.1990, 9884.693
898.3240, 10370.11
899.4480, 11143.56
900.5730, 11904.04
901.6970, 13083.54
902.8210, 14522.09
903.9450, 15921.63
905.0690, 17475.41
906.1930, 19195.09
907.3160, 21784.72
908.4400, 24035.38
909.5630, 26240.29
910.6860, 28076.35
911.8090, 30176.94
912.9320, 31239.52
914.0550, 32147.87
915.1770, 32591.13
916.2990, 32657.18
917.4210, 32745.87
918.5440, 32577.98
919.6650, 32206.50
920.7870, 31736.75
921.9090, 31050.87
923.0300, 30116.59
924.1510, 29307.78
925.2720, 28231.06
926.3930, 26645.95
927.5140, 24652.83
928.6350, 23199.39
929.7550, 21461.97
930.8760, 19680.74
931.9960, 17820.42
933.1160, 16232.15
934.2360, 14819.93
935.3550, 13367.75
936.4750, 12402.54
937.5940, 11360.46
938.7140, 10504.43
939.8330, 9643.453
940.9520, 8858.521
942.0710, 8294.529
943.1890, 7874.809
944.3080, 7381.025
945.4260, 7086.316
946.5440, 6831.654
947.6620, 6409.041
948.7800, 6532.479
949.8980, 6511.961
951.0160, 6480.496
952.1330, 6376.076
953.2500, 6581.707
954.3680, 6626.387
955.4850, 6504.113
956.6010, 6620.891
957.7180, 6464.713
958.8350, 6523.586
959.9510, 6627.508
961.0670, 6506.482
962.1830, 6466.754
963.2990, 6301.570
964.4150, 6163.684
965.5310, 5972.848
966.6460, 5829.258
967.7620, 5658.355
968.8770, 5509.621
969.9920, 5353.570
971.1070, 5265.367
972.2210, 5086.637
973.3360, 5135.127
974.4500, 5122.787
975.5650, 5108.881
976.6790, 4919.867
977.7930, 5099.219
978.9070, 5012.160
980.0200, 4967.062
981.1340, 5092.098
982.2470, 5263.912
983.3610, 5455.805
984.4740, 5728.740
985.5870, 5908.719
986.6990, 6219.168
987.8120, 6444.801
988.9250, 6828.908
990.0370, 7208.053
991.1490, 7506.242
992.2610, 7781.471
993.3730, 8251.742
994.4850, 8655.049
995.5960, 8951.400
996.7080, 9265.496
997.8190, 9742.326
998.9300, 9736.803
1000.041, 9808.316
1001.152, 10023.03
1002.263, 9844.113
1003.373, 9830.424
1004.484, 9521.020
1005.594, 9229.051
1006.704, 8704.660
1007.814, 8201.859
1008.924, 8051.641
1010.034, 7532.877
1011.143, 7140.584
1012.253, 7049.033
1013.362, 6480.010
1014.471, 6098.197
1015.580, 5958.217
1016.689, 5636.459
1017.797, 5321.145
1018.906, 4714.688
1020.014, 4797.105
1021.122, 4274.723
1022.230, 4374.920
1023.338, 4261.176
1024.446, 3861.723
1025.554, 3693.031
1026.661, 3723.715
1027.768, 3491.738
1028.875, 3097.359
1029.983, 3021.766
1031.089, 2923.129
1032.196, 2880.074
1033.303, 2688.869
1034.409, 2661.357
1035.515, 2559.184
1036.622, 2538.061
1037.728, 2379.641
1038.833, 2266.254
1039.939, 2122.891
1041.045, 1916.791
1042.150, 2033.670
1043.255, 1999.000
1044.360, 1589.879
1045.465, 1715.004
1046.570, 1594.676
1047.675, 1590.914
1048.779, 1546.639
1049.884, 1622.248
1050.988, 1352.820
1052.092, 1535.502
1053.196, 1123.230
1054.300, 1136.314
1055.404, 1266.232
1056.507, 1177.273
1057.610, 945.5000
1058.714, 1223.643
1059.817, 1125.941
1060.920, 956.7734
1062.022, 992.0977
1063.125, 779.4336
1064.228, 1068.812
1065.330, 1050.266
1066.432, 910.6660
1067.534, 813.2070
1068.636, 897.8535
1069.738, 552.2871
1070.840, 804.8242
1071.941, 785.2773
1073.042, 761.1074
1074.144, 481.8887
1075.245, 865.3652
1076.346, 661.2715
1077.446, 913.6367
1078.547, 900.1465
1079.647, 889.8887
1080.748, 865.8184
1081.848, 765.3340
1082.948, 616.0801
1084.048, 757.6074
1085.148, 783.1348
1086.247, 641.9961
1087.347, 759.5312
1088.446, 701.0703
1089.545, 509.6094
1090.644, 315.6230
1091.743, 437.2188
1092.842, 498.7617
1093.940, 112.3047
1095.039, 362.8477
1096.137, 326.3926
1097.235, 164.1152
1098.333, 108.7988
1099.431, 44.61719
1100.529, 76.87500
1101.627, 60.59180
1102.724, 37.08203
1103.822, 76.16602
1104.919, 46.30078
1106.016, 166.2344
1107.113, 18.85352
1108.209, 87.48438
1109.306, 105.0176
1110.402, 8.742188
1111.499, 3.476563
1112.595, 187.2207
1113.691, 196.9434
1114.787, 12.24414
1115.883, 49.73047
1116.978, 199.2578
1118.074, 253.2812
1119.169, 320.6152
1120.264, 558.2988
1121.359, 377.2930
1122.454, 504.2754
1123.549, 406.2480
1124.644, 351.2090
1125.738, 146.1582
1126.832, 187.0957
1127.927, 63.85547
1129.021, 11.76953
1130.115, 276.6621
1131.208, 161.5449
1132.302, 246.1309
1133.396, 281.3965
1134.489, 43.55664
1135.582, 205.0664
1136.675, 209.7207
1137.768, 25.51562
1138.861, 112.3574
1139.954, 183.2930
1141.046, 204.3438
1142.138, 273.5410
1143.231, 21.56836
1144.323, 89.88867
1145.415, 67.52148
1146.507, 136.4688
1147.598, 60.95117
1148.690, 85.58594
1149.781, 161.1875
1150.872, 45.90625
1151.964, 0.3886720
1153.054, 156.0957
1154.145, 250.5215
1155.236, 74.72656
1156.327, 349.8340
1157.417, 69.89844
1158.507, 54.95312
1159.597, 16.97656
1160.687, 193.9609
1161.777, 40.07617
1162.867, 72.80859
1163.956, 90.66602
1165.046, 191.7793
1166.135, 2.412109
1167.224, 94.37305
1168.313, 356.2617
1169.402, 193.8711
1170.491, 269.4551
1171.580, 137.0137
1172.668, 46.45508
1173.756, 56.98438
1174.845, 77.38672
1175.933, 27.25195
1177.020, 102.0254
1178.108, 47.27148
1179.196, 120.4668
1180.283, 173.6309
1181.371, 283.7617
1182.458, 332.8613
1183.545, 275.9297
1184.632, 157.9688
1185.719, 216.8789
1186.805, 245.2676
1187.892, 192.2031
1188.978, 320.1035
1190.065, 198.9707
1191.151, 121.7988
1192.237, 257.5879
1193.323, 261.3418
1194.408, 305.0781
1195.494, 223.7832
1196.579, 431.4531
1197.664, 213.0859
1198.750, 192.6816
1199.835, 320.2383
1200.919, 227.7598
1202.004, 298.2402
1203.089, 167.6875
1204.173, 182.0898
1205.258, 327.4570
1206.342, 166.8926
1207.426, 18.52539
1208.510, 262.7285
1209.594, 209.8965
1210.677, 174.0215
1211.761, 278.1035
1212.844, 218.1504
1213.927, 362.1738
1215.010, 349.7598
1216.093, 199.1035
1217.176, 332.0098
1218.259, 493.8770
1219.341, 397.7031
1220.424, 181.4922
1221.506, 136.2363
1222.588, 368.9316
1223.670, 325.5879
1224.752, 347.2051
1225.834, 401.7832
1226.915, 249.3242
1227.997, 260.8203
1229.078, 442.2773
1230.159, 366.6953
1231.240, 299.0723
1232.321, 303.8105
1233.402, 201.2871
1234.483, 458.1387
1235.563, 379.3555
1236.644, 295.5117
1237.724, 432.2402
1238.804, 258.8789
1239.884, 418.3887
1240.964, 347.1816
1242.044, 416.0195
1243.123, 252.7305
1244.203, 238.9688
1245.282, 171.5312
1246.361, 166.3555
1247.440, 328.1348
1248.519, 356.8770
1249.598, 420.5820
1250.676, 514.2500
1251.755, 288.8809
1252.833, 584.4727
1253.911, 348.0254
1254.989, 452.5430
1256.067, 436.0215
1257.145, 139.4629
1258.223, 414.8574
1259.300, 333.1211
1260.378, 294.4395
1261.455, 105.7246
1262.532, 266.8047
1263.609, 182.5156
1264.686, 251.0020
1265.763, 329.2227
1266.840, 347.3477
1267.916, 393.1797
1268.992, 458.7832
1270.069, 350.9141
1271.145, 299.4883
1272.221, 74.58984
1273.296, 3.052734
1274.372, 177.8223
1275.448, 16.47266
1276.523, 313.2422
1277.598, 332.7891
1278.673, 170.8301
1279.749, 157.0742
1280.823, 132.4453
1281.898, 3.613281
1282.973, 103.8047
1284.047, 131.6836
1285.122, 149.1133
1286.196, 219.1133
1287.270, 325.5156
1288.344, 248.6250
1289.418, 232.7812
1290.491, 164.6055
1291.565, 180.1562
1292.638, 295.9688
1293.712, 8.039063
1294.785, 167.2383
1295.858, 79.54297
1296.931, 328.0859
1298.003, 205.2109
1299.076, 369.3047
1300.149, 178.3789
1301.221, 347.2266
1302.293, 309.2227
1303.365, 343.8047
1304.437, 257.9023
1305.509, 203.7891
1306.581, 141.2031
1307.652, 434.1016
1308.724, 177.6094
1309.795, 196.3281
1310.866, 469.1602
1311.937, 335.9727
1313.008, 175.7695
1314.079, 46.29297
1315.150, 154.0273
1316.220, 398.7461
1317.291, 440.3125
1318.361, 528.9961
1319.431, 376.5312
1320.501, 544.5703
1321.571, 571.1836
1322.641, 117.7812
1323.710, 326.9570
1324.780, 340.4453
1325.849, 201.9805
1326.918, 478.3672
1327.987, 403.6367
1329.056, 219.1172
1330.125, 329.4766
1331.194, 434.9141
1332.263, 370.9688
1333.331, 171.0586
1334.399, 95.44141
1335.467, 38.38281
1336.535, 406.8594
1337.603, 299.1797
1338.671, 322.2539
1339.739, 490.1289
1340.806, 500.1211
1341.874, 533.9414
1342.941, 672.8945
1344.008, 492.1172
1345.075, 461.0039
1346.142, 337.1992
1347.209, 438.3750
1348.275, 458.5391
1349.342, 295.2148
1350.408, 336.2969
1351.475, 303.4180
1352.541, 484.5195
1353.607, 492.6133
1354.673, 362.6914
1355.738, 177.5742
1356.804, 409.4648
1357.869, 354.5156
1358.935, 197.5195
1360.000, 485.5469
1361.065, 186.5234
1362.130, 243.3438
1363.195, 142.3008
1364.259, 77.93359
1365.324, 402.1602
1366.388, 141.0664
1367.453, 68.84766
1368.517, 314.7695
1369.581, 129.6875
1370.645, 569.5898
1371.709, 296.6719
1372.772, 475.5117
1373.836, 209.0391
1374.899, 280.5039
1375.963, 188.4570
1377.026, 350.4023
1378.089, 313.3320
1379.152, 309.5430
1380.214, 341.1797
1381.277, 280.0898
1382.340, 264.9883
1383.402, 245.8281
1384.464, 269.4766
1385.526, 149.8359
1386.588, 383.6484
1387.650, 352.4570
1388.712, 469.2539
1389.774, 206.5938
1390.835, 213.4297
1391.896, 311.0039
1392.958, 79.89062
1394.019, 229.8359
1395.080, 122.8359
1396.141, 413.5859
1397.201, 54.37891
1398.262, 387.5820
1399.323, 226.7109
1400.383, 141.4297
1401.443, 66.14844
1402.503, 68.32422
1403.563, 242.4609
1404.623, 302.6680
1405.683, 68.59375
1406.742, 295.7891
1407.802, 155.0273
1408.861, 458.7617
1409.920, 260.4883
1410.980, 167.4688
1412.039, 11.64844
1413.097, 33.58984
1414.156, 63.03125
1415.215, 4.492188
1416.273, 22.97266
1417.331, 8.339844
1418.390, 24.24609
1419.448, 61.12500
1420.506, 34.36719
1421.564, 170.3164
1422.621, 95.54297
1423.679, 39.47266
1424.736, 151.8203
1425.794, 348.0664
1426.851, 281.3047
1427.908, 408.6719
1428.965, 58.89062
1430.022, 416.1406
1431.079, 112.3789
1432.135, 295.6211
1433.192, 343.8789
1434.248, 289.1445
1435.304, 153.4180
1436.360, 398.9609
1437.416, 257.2539
1438.472, 250.5703
1439.528, 247.3203
1440.583, 382.0898
1441.639, 340.3477
1442.694, 313.9258
1443.749, 441.4961
1444.804, 178.0781
1445.859, 514.6016
1446.914, 229.1172
1447.969, 221.6328
1449.024, 324.1406
1450.078, 97.35156
1451.132, 421.0352
1452.187, 413.1875
1453.241, 374.7422
1454.295, 236.3008
1455.349, 374.8242
1456.402, 389.3477
1457.456, 298.8750
1458.509, 129.4062
1459.563, 319.9531
1460.616, 267.5039
1461.669, 224.0625
1462.722, 473.6289
1463.775, 319.2031
1464.828, 230.7891
1465.880, 266.2422
1466.933, 99.41406
1467.985, 69.71484
1469.037, 21.90234
1470.090, 76.52734
1471.142, 352.1719
1472.193, 289.8320
1473.245, 185.5000
1474.297, 391.1836
1475.348, 205.8828
1476.400, 130.5938
1477.451, 389.3320
1478.502, 125.0977
1479.553, 412.8867
1480.604, 122.6719
1481.655, 231.4922
1482.706, 285.6406
1483.756, 68.41406
1484.807, 177.0742
1485.857, 70.92188
1486.907, 70.53906
1487.957, 6.308594
1489.007, 147.1719
1490.057, 398.1211
1491.106, 478.7500
1492.156, 240.9336
1493.205, 375.3398
1494.255, 184.8945
1495.304, 253.5000
1496.353, 128.3281
1497.402, 10.16797
1498.451, 88.94531
1499.500, 106.8047
1500.548, 114.6758
1501.597, 191.5547
1502.645, 125.4453
1503.693, 215.3320
1504.741, 82.24609
1505.789, 78.15625
1506.837, 352.0742
1507.885, 115.9961
1508.932, 293.6641
1509.980, 25.38281
1511.027, 81.09766
1512.075, 255.8047
1513.122, 216.5156
1514.169, 389.2227
1515.216, 369.6758
1516.262, 223.6250
1517.309, 377.0547
1518.356, 124.9375
1519.402, 193.3711
1520.448, 234.7812
1521.495, 16.83203
1522.541, 235.5312
1523.587, 20.14453
1524.632, 178.2070
1525.678, 122.4727
1526.724, 11.75391
1527.769, 95.30469
1528.814, 5.761719
1529.860, 159.6680
1530.905, 9.566406
1531.950, 30.23047
1532.995, 223.9219
1534.039, 9.406250
1535.084, 120.2305
1536.128, 248.8320
1537.173, 229.3867
1538.217, 359.5391
1539.261, 55.49609
1540.305, 166.4531
1541.349, 17.41406
1542.393, 214.8711
1543.436, 344.4062
1544.480, 8.691406
1545.523, 283.7500
1546.567, 140.5039
1547.610, 411.0000
1548.653, 444.3281
1549.696, 70.97266
1550.739, 334.3359
1551.781, 255.9727
1552.824, 65.58594
1553.867, 341.1328
1554.909, 195.0117
1555.951, 253.1484
1556.993, 486.2305
1558.035, 245.3789
1559.077, 213.2695
1560.119, 145.7070
1561.161, 67.41797
1562.202, 265.3750
1563.243, 262.0664
1564.285, 0.9257810
1565.326, 0.0000000E+00
##END=



