##NAMES=Akermanite
##RRUFFID=R061085
##IDEAL CHEMISTRY=Ca_2_MgSi_2_O_7_
##LOCALITY=Kovdor, Kola Peninsula, Russia
##OWNER=Michael Scott
##SOURCE=Michael Scott
##DESCRIPTION=Dark blue coarsely crystalline massive associated with green diopside
##STATUS=The identification of this mineral has been confirmed by X-ray diffraction and chemical analysis
##URL=rruff.info/R061085
##MEASURED CHEMISTRY=(Ca_1.78_Na_0.22_)_Σ=2_(Mg_0.70_Al_0.22_Fe^2+^_0.08_)_Σ=1_Si_2.00_O_7_
##PIN_ID=M00203
##ORIENTATION=Laser parallel to a* (1 0 0). Fiducial mark perpendicular to laser is parallel to c [0 0 1]
148.9510, 0.0000000E+00
150.1770, 22.00464
151.4020, 68.83545
152.6270, 99.04492
153.8520, 71.47705
155.0760, 56.37695
156.3010, 117.4531
157.5250, 42.81372
158.7500, 58.46509
159.9740, 13.03931
161.1980, 4.788818
162.4220, 42.13208
163.6450, 22.64673
164.8690, 12.30981
166.0920, 22.22437
167.3160, 32.22119
168.5390, 32.64648
169.7620, 21.46143
170.9850, 26.62842
172.2080, 87.11133
173.4300, 73.87769
174.6530, 93.89868
175.8750, 107.1479
177.0970, 89.60278
178.3190, 129.2434
179.5410, 168.0669
180.7630, 146.0984
181.9850, 253.3647
183.2060, 336.8679
184.4270, 436.5854
185.6490, 451.4924
186.8700, 460.5618
188.0910, 556.7703
189.3110, 551.0967
190.5320, 694.5239
191.7530, 723.0393
192.9730, 692.6318
194.1930, 799.2917
195.4130, 765.0112
196.6330, 930.7830
197.8530, 968.6011
199.0730, 1031.460
200.2920, 1094.355
201.5120, 1152.282
202.7310, 1175.236
203.9500, 1318.216
205.1690, 1257.217
206.3880, 1421.239
207.6070, 1390.301
208.8250, 1487.502
210.0440, 1635.977
211.2620, 1731.775
212.4800, 1819.868
213.6980, 1871.334
214.9160, 1988.010
216.1340, 2116.793
217.3510, 2222.607
218.5690, 2319.360
219.7860, 2307.116
221.0030, 2332.821
222.2200, 2393.443
223.4370, 2402.002
224.6540, 2446.499
225.8700, 2309.935
227.0870, 2345.308
228.3030, 2306.603
229.5190, 2131.844
230.7350, 2128.033
231.9510, 2015.181
233.1670, 1980.290
234.3820, 1885.364
235.5980, 1704.403
236.8130, 1621.412
238.0280, 1498.390
239.2430, 1366.340
240.4580, 1358.263
241.6730, 1222.159
242.8880, 1165.030
244.1020, 1025.876
245.3160, 1021.699
246.5300, 989.4988
247.7450, 949.2759
248.9580, 872.0310
250.1720, 879.7649
251.3860, 824.1970
252.5990, 733.1689
253.8130, 776.8403
255.0260, 782.4912
256.2390, 805.1221
257.4520, 788.7327
258.6640, 824.3228
259.8770, 902.8926
261.0890, 903.4421
262.3020, 837.9717
263.5140, 791.7976
264.7260, 833.8306
265.9380, 880.0981
267.1500, 881.5469
268.3610, 948.0164
269.5730, 966.0308
270.7840, 993.4941
271.9950, 1005.749
273.2060, 1081.336
274.4170, 1238.140
275.6280, 1297.256
276.8390, 1380.555
278.0490, 1435.612
279.2590, 1478.925
280.4690, 1601.406
281.6800, 1675.225
282.8890, 1864.682
284.0990, 1952.346
285.3090, 2073.784
286.5180, 2148.856
287.7280, 2344.736
288.9370, 2565.102
290.1460, 2581.799
291.3550, 2682.717
292.5630, 2952.106
293.7720, 3047.173
294.9800, 3325.094
296.1890, 3530.015
297.3970, 3562.911
298.6050, 3830.750
299.8130, 3986.572
301.0200, 4230.222
302.2280, 4375.915
303.4360, 4540.612
304.6430, 4693.350
305.8500, 4876.837
307.0570, 5000.106
308.2640, 4968.938
309.4710, 4806.795
310.6770, 4949.258
311.8840, 4737.159
313.0900, 4682.074
314.2960, 4541.007
315.5020, 4281.954
316.7080, 4060.911
317.9140, 3921.879
319.1190, 3585.855
320.3250, 3336.839
321.5300, 3067.829
322.7350, 2930.823
323.9400, 2677.822
325.1450, 2454.823
326.3500, 2266.828
327.5540, 2045.832
328.7580, 1839.837
329.9630, 1702.840
331.1670, 1512.841
332.3710, 1409.839
333.5750, 1348.833
334.7780, 1206.823
335.9820, 1126.808
337.1850, 1036.787
338.3880, 987.7607
339.5920, 910.7280
340.7950, 863.6890
341.9970, 821.6433
343.2000, 792.5903
344.4030, 743.5308
345.6050, 711.4634
346.8070, 697.3887
348.0090, 730.3062
349.2110, 650.2161
350.4130, 675.1182
351.6150, 627.0122
352.8160, 595.8982
354.0170, 614.7754
355.2190, 634.6423
356.4200, 593.4976
357.6210, 565.3401
358.8210, 581.1680
360.0220, 597.9807
361.2220, 533.7773
362.4230, 497.5579
363.6230, 514.3228
364.8230, 467.0713
366.0230, 397.8042
367.2230, 364.5222
368.4220, 337.2246
369.6220, 304.9126
370.8210, 311.5857
372.0200, 211.2449
373.2190, 175.8899
374.4180, 131.5215
375.6170, 141.1394
376.8150, 62.74365
378.0140, 96.33374
379.2120, 45.91016
380.4100, 38.47241
381.6080, 62.01978
382.8060, 37.44678
384.0040, 18.05835
385.2010, 40.54810
386.3980, 24.02393
387.5960, 7.515381
388.7930, 70.07495
389.9900, 5.671387
391.1870, 53.28784
392.3830, 63.93604
393.5800, 34.61987
394.7760, 25.33057
395.9720, 12.06641
397.1680, 61.82373
398.3640, 7.614990
399.5600, 88.42676
400.7560, 29.27979
401.9510, 45.15894
403.1460, 50.06738
404.3420, 87.00732
405.5370, 64.25806
406.7320, 10.00366
407.9260, 34.04102
409.1210, 11.10791
410.3150, 8.198975
411.5100, 66.33203
412.7040, 30.49512
413.8980, 15.72974
415.0920, 13.99219
416.2850, 38.34424
417.4790, 33.26758
418.6720, 7.832764
419.8650, 50.33545
421.0590, 61.71777
422.2510, 24.16821
423.4440, 61.51416
424.6370, 41.83228
425.8290, 1.112793
427.0220, 14.63354
428.2140, 6.143311
429.4060, 1.066895
430.5980, 18.96558
431.7900, 65.13574
432.9810, 61.28345
434.1730, 110.4104
435.3640, 115.5276
436.5550, 212.6370
437.7460, 276.7402
438.9370, 355.8340
440.1280, 468.9189
441.3190, 552.9944
442.5090, 647.0608
443.6990, 803.1184
444.8890, 861.1677
446.0790, 936.2080
447.2690, 954.2402
448.4590, 1048.264
449.6480, 1100.284
450.8380, 1153.297
452.0270, 1078.623
453.2160, 872.2952
454.4050, 876.2822
455.5940, 790.2593
456.7820, 704.2271
457.9710, 635.1846
459.1590, 564.1326
460.3470, 562.0720
461.5350, 543.0015
462.7230, 606.9211
463.9110, 605.8306
465.0990, 649.7305
466.2860, 680.6257
467.4730, 683.5112
468.6600, 721.3918
469.8470, 756.2625
471.0340, 721.1318
472.2210, 780.9968
473.4070, 796.8611
474.5940, 884.7156
475.7800, 967.5710
476.9660, 949.2974
478.1520, 972.2419
479.3380, 950.0920
480.5230, 925.9211
481.7090, 967.7461
482.8940, 952.5735
484.0790, 903.4016
485.2650, 931.2358
486.4490, 882.0671
487.6340, 820.9028
488.8190, 791.7476
490.0030, 764.5894
491.1870, 710.4341
492.3720, 685.2803
493.5550, 685.1257
494.7390, 673.9844
495.9230, 603.8442
497.1060, 593.6958
498.2900, 597.5498
499.4730, 679.4177
500.6560, 621.2866
501.8390, 577.1628
503.0220, 629.0483
504.2040, 543.9238
505.3870, 716.7893
506.5690, 718.6528
507.7510, 669.5212
508.9330, 670.3936
510.1150, 664.2800
511.2970, 671.1577
512.4780, 670.1069
513.6600, 668.4253
514.8410, 677.7637
516.0220, 661.6157
517.2030, 671.4604
518.3840, 660.2981
519.5650, 640.8799
520.7450, 598.5969
521.9250, 643.0928
523.1060, 557.5134
524.2860, 531.0527
525.4660, 481.3459
526.6450, 540.5352
527.8250, 469.9243
529.0040, 487.1611
530.1840, 423.2668
531.3630, 353.4292
532.5420, 371.6177
533.7200, 243.8018
534.8990, 324.3020
536.0780, 224.6282
537.2560, 243.5234
538.4340, 189.2378
539.6120, 205.8162
540.7900, 186.7844
541.9680, 133.6689
543.1460, 132.2549
544.3230, 98.36743
545.5000, 122.0942
546.6770, 74.02759
547.8540, 79.38110
549.0310, 129.1321
550.2080, 120.3677
551.3840, 70.03662
552.5610, 76.88184
553.7370, 56.03418
554.9130, 72.14746
556.0890, 62.50732
557.2650, 32.37646
558.4400, 70.31470
559.6160, 30.39087
560.7910, 63.13062
561.9660, 73.33447
563.1410, 100.5815
564.3160, 99.56885
565.4910, 110.8076
566.6650, 155.9387
567.8400, 91.38940
569.0140, 105.8601
570.1880, 114.8723
571.3620, 176.3457
572.5360, 184.2695
573.7090, 175.5039
574.8830, 230.7195
576.0560, 200.1387
577.2290, 186.5769
578.4020, 281.0576
579.5750, 235.5342
580.7480, 335.0068
581.9200, 303.4756
583.0930, 360.9404
584.2650, 389.4009
585.4370, 480.8574
586.6090, 513.3103
587.7810, 470.7590
588.9520, 572.2036
590.1240, 643.6445
591.2950, 627.0811
592.4660, 803.5137
593.6370, 813.9421
594.8080, 961.3665
595.9790, 1100.797
597.1500, 1239.231
598.3200, 1317.665
599.4900, 1535.143
600.6600, 1729.795
601.8300, 1830.288
603.0000, 2041.726
604.1700, 2207.121
605.3390, 2387.699
606.5080, 2639.240
607.6770, 2813.759
608.8460, 3082.241
610.0150, 3327.996
611.1840, 3627.177
612.3520, 3894.726
613.5210, 4197.343
614.6890, 4559.849
615.8570, 4876.727
617.0250, 5318.792
618.1930, 5548.738
619.3600, 5773.187
620.5280, 5973.340
621.6950, 5893.062
622.8620, 5736.235
624.0290, 5730.106
625.1960, 5546.181
626.3630, 5344.133
627.5290, 5092.794
628.6960, 4876.599
629.8620, 4709.532
631.0280, 4376.801
632.1940, 4061.835
633.3600, 3811.198
634.5250, 3651.906
635.6910, 3348.875
636.8560, 3148.418
638.0210, 2888.557
639.1860, 2760.481
640.3510, 2707.229
641.5150, 2652.509
642.6800, 2709.320
643.8440, 2751.595
645.0080, 2983.888
646.1720, 3220.024
647.3360, 3694.571
648.5000, 4145.024
649.6640, 4782.706
650.8270, 5548.117
651.9900, 6608.914
653.1530, 7593.866
654.3160, 8822.429
655.4790, 10400.63
656.6420, 11754.38
657.8040, 13282.98
658.9660, 14458.93
660.1290, 15562.48
661.2910, 16525.02
662.4520, 16784.13
663.6140, 16731.19
664.7760, 16408.24
665.9370, 15332.07
667.0980, 14267.12
668.2590, 12769.16
669.4200, 11615.19
670.5810, 10269.22
671.7420, 8862.275
672.9020, 7801.322
674.0620, 6890.381
675.2220, 6000.870
676.3820, 5289.225
677.5420, 4677.613
678.7020, 4103.695
679.8610, 3603.791
681.0210, 3174.886
682.1800, 2748.002
683.3390, 2448.122
684.4980, 2210.252
685.6560, 1889.393
686.8150, 1745.553
687.9730, 1590.728
689.1320, 1379.903
690.2900, 1227.085
691.4480, 1149.267
692.6050, 1016.449
693.7630, 938.6455
694.9200, 853.8359
696.0780, 781.0278
697.2350, 790.2148
698.3920, 673.4092
699.5490, 647.5977
700.7050, 556.7817
701.8620, 507.9585
703.0180, 509.1289
704.1740, 501.2930
705.3300, 441.4504
706.4860, 395.6016
707.6420, 328.7500
708.7970, 411.8994
709.9530, 336.0481
711.1080, 277.1938
712.2630, 281.3345
713.4180, 187.4680
714.5730, 230.5945
715.7280, 280.7131
716.8820, 229.8242
718.0360, 191.9270
719.1900, 242.0220
720.3440, 187.1091
721.4980, 148.1882
722.6520, 167.2590
723.8050, 125.3223
724.9590, 111.3774
726.1120, 73.42480
727.2650, 156.4641
728.4180, 109.4958
729.5700, 77.51953
730.7230, 114.5359
731.8750, 63.54468
733.0280, 80.54565
734.1800, 56.53931
735.3320, 54.52563
736.4830, 53.50391
737.6350, 41.47485
738.7860, 9.437744
739.9380, 35.38989
741.0890, 47.33423
742.2400, 56.27124
743.3910, 12.20093
744.5410, 6.878906
745.6920, 23.02246
746.8420, 7.083740
747.9920, 20.79102
749.1420, 20.34204
750.2920, 7.500732
751.4420, 24.67798
752.5910, 18.11719
753.7410, 29.09570
754.8900, 0.3381350
756.0390, 1.404785
757.1880, 25.13428
758.3370, 18.14355
759.4850, 11.44507
760.6340, 34.76660
761.7820, 30.12061
762.9300, 49.50391
764.0780, 15.92651
765.2260, 43.37109
766.3730, 61.85229
767.5210, 16.37891
768.6680, 37.92700
769.8150, 34.50806
770.9620, 24.11987
772.1090, 77.75635
773.2560, 34.44653
774.4020, 3.833008
775.5490, 37.89722
776.6950, 82.65869
777.8410, 32.47534
778.9870, 57.31982
780.1330, 66.20581
781.2780, 20.86304
782.4230, 13.92627
783.5690, 25.01587
784.7140, 47.98096
785.8590, 46.98120
787.0030, 83.01538
788.1480, 0.8977050
789.2920, 22.19775
790.4370, 9.313232
791.5810, 3.442139
792.7250, 7.419678
793.8690, 7.723633
795.0120, 5.877686
796.1560, 12.04224
797.2990, 22.21973
798.4420, 6.415283
799.5850, 11.38013
800.7280, 31.17163
801.8710, 58.95996
803.0130, 13.25464
804.1550, 35.51904
805.2980, 27.28955
806.4400, 56.05737
807.5810, 52.82275
808.7230, 61.58521
809.8650, 68.79688
811.0060, 64.10229
812.1470, 77.85693
813.2880, 65.54321
814.4290, 78.35889
815.5700, 69.10620
816.7110, 82.85059
817.8510, 112.5928
818.9910, 142.3325
820.1310, 138.0701
821.2710, 157.8054
822.4110, 118.5381
823.5510, 100.2686
824.6900, 171.9968
825.8290, 180.7229
826.9680, 232.4465
828.1070, 186.1677
829.2460, 170.8870
830.3850, 181.6040
831.5230, 249.3188
832.6620, 238.0337
833.8000, 331.7473
834.9380, 309.4675
836.0760, 392.1943
837.2130, 369.9309
838.3510, 348.6658
839.4880, 389.4045
840.6250, 472.1418
841.7620, 451.8779
842.8990, 487.6123
844.0360, 454.3455
845.1720, 592.0774
846.3090, 652.8081
847.4450, 709.5378
848.5810, 789.2666
849.7170, 851.9941
850.8530, 920.7212
851.9880, 1058.447
853.1240, 1087.172
854.2590, 1197.897
855.3940, 1352.621
856.5290, 1498.345
857.6640, 1571.069
858.7980, 1661.792
859.9330, 1759.516
861.0670, 1844.239
862.2010, 1998.962
863.3350, 2018.697
864.4690, 1988.432
865.6030, 1935.177
866.7360, 1837.941
867.8690, 1631.711
869.0020, 1591.484
870.1350, 1388.267
871.2680, 1219.046
872.4010, 1121.826
873.5330, 1060.616
874.6660, 972.2751
875.7980, 941.1946
876.9300, 920.6824
878.0620, 917.4766
879.1930, 999.3203
880.3250, 1052.979
881.4560, 1131.689
882.5870, 1161.420
883.7180, 1206.131
884.8490, 1270.865
885.9800, 1444.756
887.1100, 1645.468
888.2410, 1821.109
889.3710, 1937.875
890.5010, 2208.263
891.6310, 2385.468
892.7610, 2699.791
893.8900, 3119.608
895.0200, 3492.720
896.1490, 4029.271
897.2780, 4535.367
898.4070, 5321.784
899.5360, 6206.992
900.6640, 7338.330
901.7920, 8534.960
902.9210, 9966.447
904.0490, 11696.81
905.1770, 13590.84
906.3040, 15690.12
907.4320, 17570.07
908.5600, 19603.68
909.6870, 20923.03
910.8140, 22063.79
911.9410, 22425.98
913.0680, 22430.38
914.1940, 22271.97
915.3210, 21659.03
916.4470, 21114.56
917.5730, 20163.62
918.6990, 19208.67
919.8250, 18037.87
920.9500, 16593.66
922.0760, 15035.55
923.2010, 13661.21
924.3260, 12100.14
925.4510, 10592.69
926.5760, 9369.082
927.7010, 8189.869
928.8250, 7356.013
929.9500, 6440.616
931.0740, 5797.359
932.1980, 5093.768
933.3220, 4631.577
934.4450, 4289.389
935.5690, 3847.649
936.6920, 3544.960
937.8150, 3321.281
938.9380, 3075.842
940.0610, 2928.192
941.1840, 2653.553
942.3060, 2551.924
943.4290, 2458.307
944.5510, 2466.701
945.6730, 2434.107
946.7950, 2315.524
947.9160, 2417.951
949.0380, 2396.395
950.1590, 2520.850
951.2800, 2517.321
952.4010, 2575.802
953.5220, 2571.294
954.6430, 2538.800
955.7630, 2532.315
956.8840, 2485.843
958.0040, 2551.382
959.1240, 2497.932
960.2440, 2465.494
961.3640, 2403.067
962.4830, 2314.653
963.6030, 2280.250
964.7220, 2217.858
965.8410, 2201.479
966.9600, 2008.466
968.0780, 2064.193
969.1970, 1926.586
970.3150, 1797.078
971.4340, 1820.239
972.5520, 1730.993
973.6700, 1742.758
974.7870, 1713.470
975.9050, 1664.194
977.0220, 1719.929
978.1390, 1653.675
979.2560, 1670.433
980.3730, 1755.203
981.4900, 1701.983
982.6070, 1746.775
983.7230, 1824.578
984.8390, 1847.393
985.9550, 1892.219
987.0710, 2032.056
988.1870, 2163.905
989.3030, 2225.765
990.4180, 2359.637
991.5330, 2368.520
992.6480, 2550.414
993.7630, 2617.321
994.8780, 2684.238
995.9930, 2609.167
997.1070, 2801.547
998.2210, 2678.499
999.3350, 2651.468
1000.449, 2623.867
1001.563, 2574.861
1002.677, 2454.206
1003.790, 2299.171
1004.903, 2228.366
1006.016, 1990.050
1007.129, 1933.722
1008.242, 1815.770
1009.355, 1732.606
1010.467, 1553.354
1011.579, 1544.435
1012.691, 1374.538
1013.803, 1337.639
1014.915, 1267.537
1016.027, 1243.685
1017.138, 1154.007
1018.249, 1108.166
1019.360, 1040.031
1020.471, 958.2754
1021.582, 872.6985
1022.693, 914.5635
1023.803, 867.7952
1024.913, 815.5811
1026.023, 763.8459
1027.133, 790.1235
1028.243, 700.4106
1029.353, 721.4900
1030.462, 715.8096
1031.571, 687.8362
1032.680, 681.1973
1033.789, 622.5366
1034.898, 566.1165
1036.007, 665.5886
1037.115, 541.2954
1038.223, 583.0110
1039.331, 559.0786
1040.439, 510.5891
1041.547, 502.1169
1042.655, 490.6758
1043.762, 447.8875
1044.869, 503.0371
1045.976, 429.6453
1047.083, 440.1414
1048.190, 351.8003
1049.297, 350.4834
1050.403, 382.1938
1051.509, 415.9111
1052.615, 294.6353
1053.721, 291.3755
1054.827, 313.1765
1055.933, 308.9592
1057.038, 289.7725
1058.143, 319.6367
1059.248, 253.4722
1060.353, 208.4688
1061.458, 225.3235
1062.563, 236.1846
1063.667, 203.0652
1064.771, 239.2869
1065.875, 207.8267
1066.979, 210.7290
1068.083, 181.7322
1069.186, 210.6487
1070.290, 183.5698
1071.393, 245.4998
1072.496, 250.6448
1073.599, 273.5854
1074.702, 174.5308
1075.804, 141.4807
1076.907, 180.4351
1078.009, 126.4419
1079.111, 141.4050
1080.213, 168.3726
1081.315, 180.2734
1082.416, 156.2493
1083.517, 198.9963
1084.619, 168.0112
1085.720, 224.9988
1086.821, 114.9897
1087.921, 146.9841
1089.022, 156.9822
1090.122, 154.9832
1091.222, 61.98804
1092.322, 106.9956
1093.422, 63.00610
1094.522, 78.02002
1095.622, 75.03638
1096.721, 14.05591
1097.820, 4.078125
1098.919, 15.90210
1100.018, 4.874512
1101.117, 44.85034
1102.215, 45.84058
1103.314, 55.80298
1104.412, 33.12744
1105.510, 31.89697
1106.608, 54.06934
1107.705, 68.03784
1108.803, 75.00830
1109.900, 41.98047
1110.997, 96.95386
1112.094, 35.92871
1113.191, 52.90552
1114.288, 48.88330
1115.384, 99.86255
1116.481, 45.84277
1117.577, 102.8245
1118.673, 54.80713
1119.769, 71.79077
1120.864, 135.7749
1121.960, 124.7600
1123.055, 82.74561
1124.150, 117.7319
1125.245, 88.71899
1126.340, 88.70630
1127.434, 105.6943
1128.529, 43.31763
1129.623, 16.64795
1130.717, 35.38599
1131.811, 73.43872
1132.905, 18.53052
1133.999, 6.632324
1135.092, 32.73877
1136.185, 19.86401
1137.279, 27.00122
1138.371, 42.15479
1139.464, 8.667480
1140.557, 59.51074
1141.649, 9.723145
1142.742, 6.056396
1143.834, 30.16553
1144.926, 24.59351
1146.017, 57.64868
1147.109, 4.527588
1148.200, 14.75195
1149.292, 12.95605
1150.383, 6.337891
1151.474, 27.64062
1152.564, 2.060059
1153.655, 36.26807
1154.745, 30.37769
1155.835, 1.978516
1156.925, 16.65771
1158.015, 70.30151
1159.105, 37.93311
1160.195, 20.43799
1161.284, 74.17236
1162.373, 50.21997
1163.462, 25.35327
1164.551, 6.076660
1165.640, 7.481201
1166.728, 6.966553
1167.817, 6.572510
1168.905, 7.104736
1169.993, 62.34644
1171.081, 36.13623
1172.168, 35.61499
1173.256, 117.0906
1174.343, 1.562256
1175.430, 12.97510
1176.517, 44.46948
1177.604, 33.09058
1178.691, 58.32324
1179.777, 54.73242
1180.864, 45.13672
1181.950, 85.53662
1183.036, 46.93164
1184.121, 69.77441
1185.207, 20.70679
1186.293, 75.08618
1187.378, 45.46069
1188.463, 21.82959
1189.548, 51.19287
1190.633, 17.55029
1191.717, 56.90039
1192.802, 35.24487
1193.886, 30.58398
1194.970, 12.91699
1196.054, 6.240723
1197.138, 58.55200
1198.221, 22.85742
1199.305, 59.15576
1200.388, 49.44824
1201.471, 35.73462
1202.554, 1.985107
1203.637, 45.27759
1204.719, 58.53442
1205.801, 130.7847
1206.884, 107.0828
1207.966, 29.26685
1209.048, 63.49756
1210.129, 42.72241
1211.211, 3.940674
1212.292, 85.14355
1213.373, 7.340332
1214.454, 34.52344
1215.535, 93.69922
1216.616, 118.8687
1217.696, 60.03198
1218.777, 105.1885
1219.857, 66.33862
1220.937, 44.48218
1222.017, 82.61890
1223.096, 116.7488
1224.176, 94.87280
1225.255, 87.99023
1226.334, 133.1011
1227.413, 78.20532
1228.492, 92.30273
1229.570, 76.03760
1230.649, 80.03760
1231.727, 108.3779
1232.805, 65.62427
1233.883, 74.20605
1234.961, 104.2639
1236.038, 111.1873
1237.116, 114.8958
1238.193, 109.2803
1239.270, 94.31714
1240.347, 107.3477
1241.424, 60.37183
1242.500, 129.3896
1243.577, 98.40137
1244.653, 167.4062
1245.729, 159.1797
1246.805, 116.3972
1247.880, 126.3828
1248.956, 153.3625
1250.031, 76.33594
1251.106, 112.3042
1252.181, 123.2661
1253.256, 82.23511
1254.331, 167.1975
1255.405, 157.1541
1256.480, 139.1040
1257.554, 143.0479
1258.628, 135.5449
1259.701, 101.4773
1260.775, 186.3975
1261.849, 69.89258
1262.922, 118.7991
1263.995, 150.3584
1265.068, 63.30347
1266.141, 80.02246
1267.213, 80.25952
1268.286, 110.5129
1269.358, 151.3950
1270.430, 66.49512
1271.502, 102.6892
1272.573, 46.55566
1273.645, 111.4060
1274.716, 92.26270
1275.788, 18.67065
1276.859, 47.14990
1277.929, 92.80298
1279.000, 52.62939
1280.071, 35.75488
1281.141, 14.51636
1282.211, 79.10913
1283.281, 29.27563
1284.351, 65.08008
1285.421, 44.34888
1286.490, 15.14600
1287.559, 88.93921
1288.628, 18.72778
1289.697, 46.74487
1290.766, 82.53320
1291.835, 125.6323
1292.903, 42.41309
1293.972, 39.23633
1295.040, 26.83154
1296.108, 51.55396
1297.175, 35.06592
1298.243, 5.581299
1299.310, 48.76245
1300.377, 33.03027
1301.444, 61.27051
1302.511, 54.01880
1303.578, 60.54614
1304.645, 70.72485
1305.711, 90.46191
1306.777, 57.95776
1307.843, 42.68677
1308.909, 88.41162
1309.975, 56.13208
1311.040, 96.84839
1312.105, 104.5603
1313.171, 76.26758
1314.235, 106.9307
1315.300, 94.63062
1316.365, 114.3281
1317.429, 56.98022
1318.494, 105.6726
1319.558, 65.21216
1320.622, 71.89990
1321.685, 52.58521
1322.749, 109.2583
1323.812, 164.5969
1324.876, 121.6255
1325.939, 85.30200
1327.001, 61.88452
1328.064, 107.5571
1329.127, 98.22803
1330.189, 128.8940
1331.251, 95.35205
1332.313, 98.01782
1333.375, 159.6826
1334.437, 99.34521
1335.498, 105.0063
1336.560, 128.6191
1337.621, 63.27759
1338.682, 82.93481
1339.742, 103.6619
1340.803, 58.31689
1341.863, 99.20386
1342.924, 142.8254
1343.984, 75.47729
1345.044, 82.12793
1346.104, 123.7783
1347.163, 124.4277
1348.222, 158.0762
1349.282, 93.72412
1350.341, 79.37109
1351.400, 75.15259
1352.458, 61.85010
1353.517, 117.4954
1354.575, 125.1401
1355.633, 84.78442
1356.691, 154.4280
1357.749, 147.1377
1358.807, 100.7837
1359.864, 109.4546
1360.922, 75.11743
1361.979, 45.79175
1363.036, 141.5127
1364.092, 130.1616
1365.149, 127.8418
1366.205, 92.52173
1367.262, 53.20166
1368.318, 50.88208
1369.374, 66.56274
1370.429, 78.24341
1371.485, 61.92480
1372.540, 50.60303
1373.596, 103.2812
1374.651, 80.95483
1375.705, 110.6289
1376.760, 131.4465
1377.815, 84.40552
1378.869, 80.14624
1379.923, 134.0117
1380.977, 106.6899
1382.031, 122.4092
1383.085, 147.1265
1384.138, 68.87183
1385.191, 107.6951
1386.244, 81.55151
1387.297, 48.24829
1388.350, 82.00879
1389.403, 79.01831
1390.455, 28.75342
1391.507, 62.49243
1392.559, 79.24219
1393.611, 121.9995
1394.663, 75.56470
1395.714, 83.40674
1396.766, 84.99829
1397.817, 57.16626
1398.868, 75.97095
1399.919, 99.77710
1400.969, 86.59448
1402.020, 48.51733
1403.070, 73.01880
1404.120, 48.84521
1405.170, 33.67969
1406.220, 60.51611
1407.270, 100.3586
1408.319, 86.18896
1409.368, 85.04199
1410.417, 28.84985
1411.466, 123.9812
1412.515, 44.79004
1413.563, 109.5828
1414.612, 63.40869
1415.660, 63.07031
1416.708, 94.87158
1417.756, 86.76318
1418.803, 50.57568
1419.851, 81.38574
1420.898, 38.19727
1421.945, 34.03882
1422.992, 78.90698
1424.039, 11.82690
1425.086, 53.60034
1426.132, 63.62842
1427.178, 67.42676
1428.225, 52.13843
1429.270, 12.16553
1430.316, 54.51758
1431.362, 13.18970
1432.407, 15.17065
1433.452, 28.49438
1434.497, 38.07324
1435.542, 35.62573
1436.587, 78.16919
1437.631, 87.66431
1438.676, 96.11499
1439.720, 123.5286
1440.764, 16.43384
1441.807, 84.34131
1442.851, 41.25195
1443.895, 60.16602
1444.938, 112.0845
1445.981, 121.0142
1447.024, 102.9480
1448.066, 82.88525
1449.109, 50.83789
1450.151, 80.79419
1451.194, 124.7546
1452.236, 57.71997
1453.277, 95.69922
1454.319, 19.69141
1455.361, 31.07104
1456.402, 82.69141
1457.443, 61.69946
1458.484, 58.71265
1459.525, 135.7305
1460.565, 52.75415
1461.606, 59.78394
1462.646, 87.81934
1463.686, 105.8608
1464.726, 50.90308
1465.766, 81.94580
1466.805, 73.99463
1467.845, 100.0500
1468.884, 91.11182
1469.923, 42.18091
1470.962, 55.25610
1472.000, 42.33447
1473.039, 65.38306
1474.077, 64.43823
1475.115, 73.49878
1476.153, 1.563477
1477.191, 14.63281
1478.229, 101.7068
1479.266, 151.7869
1480.303, 82.87280
1481.340, 50.96436
1482.377, 14.06128
1483.414, 108.1628
1484.451, 26.28784
1485.487, 73.41797
1486.523, 86.55444
1487.559, 20.69678
1488.595, 12.15845
1489.631, 64.99365
1490.666, 41.12671
1491.701, 77.26562
1492.736, 86.41162
1493.771, 66.56445
1494.806, 66.72290
1495.841, 56.88672
1496.875, 42.29102
1497.909, 80.46533
1498.943, 77.47070
1499.977, 57.65723
1501.011, 10.86182
1502.045, 2.144287
1503.078, 23.32886
1504.111, 44.42285
1505.144, 44.83423
1506.177, 31.09985
1507.209, 32.37402
1508.242, 26.65674
1509.274, 15.94775
1510.306, 14.46704
1511.338, 51.55396
1512.370, 31.86963
1513.402, 8.193115
1514.433, 74.52441
1515.464, 50.86475
1516.495, 71.21362
1517.526, 101.5710
1518.557, 90.93799
1519.587, 40.31445
1520.617, 93.16406
1521.648, 55.54932
1522.678, 60.94507
1523.707, 100.1531
1524.737, 115.5105
1525.766, 31.77661
1526.796, 26.93994
1527.825, 64.28101
1528.854, 71.62817
1529.882, 86.98071
1530.911, 72.36621
1531.939, 102.8010
1532.967, 56.51855
1533.995, 76.27148
1535.023, 7.996582
1536.051, 96.39746
1537.078, 111.7781
1538.106, 41.20532
1539.133, 18.61035
1540.160, 104.8647
1541.186, 27.24805
1542.213, 127.3086
1543.239, 90.47705
1544.266, 96.51147
1545.292, 37.88550
1546.318, 31.68091
1547.343, 24.06763
1548.369, 77.61914
1549.394, 14.91382
1550.419, 99.81958
1551.444, 85.05688
1552.469, 69.96680
1553.494, 116.3286
1554.518, 101.5813
1555.542, 52.66260
1556.566, 4.129395
1557.590, 48.07642
1558.614, 24.46973
1559.638, 1.017090
1560.661, 0.9106450
1561.684, 1.674561
1562.707, 0.0000000E+00
##END=



