##NAMES=Akermanite
##RRUFFID=R061100
##IDEAL CHEMISTRY=Ca_2_MgSi_2_O_7_
##LOCALITY=Lago de Vico, Viterbo, Italy
##OWNER=Michael Scott
##SOURCE=Michael Scott
##DESCRIPTION=Colorless to white short prismatic crystals
##STATUS=The identification of this mineral has been confirmed by X-ray diffraction and chemical analysis
##URL=rruff.info/R061100
##MEASURED CHEMISTRY=(Ca_1.80_Na_0.20_)_Σ=2_(Mg_0.58_Al_0.38_Fe_0.04_)_Σ=1_(Si_1.82_Al_0.18_)_Σ=2_O_7_
##PIN_ID=M00238
##ORIENTATION=Laser parallel to a* (1 0 0). Fiducial mark perpendicular to laser is parallel to -c [0 0 -1]
206.6970, 0.0000000E+00
207.9250, 7.332031
209.1530, 327.2734
210.3800, 368.2344
211.6080, 178.8789
212.8350, 645.8418
214.0620, 668.9043
215.2880, 728.9238
216.5150, 1016.412
217.7410, 1128.344
218.9680, 1454.998
220.1940, 1492.812
221.4190, 1630.256
222.6450, 2016.836
223.8700, 2153.297
225.0960, 2243.375
226.3210, 2505.914
227.5450, 2444.889
228.7700, 2267.180
229.9940, 2382.723
231.2190, 2353.391
232.4430, 1925.012
233.6660, 2015.373
234.8900, 1888.232
236.1140, 1930.389
237.3370, 1551.680
238.5600, 1504.180
239.7830, 1279.777
241.0050, 1160.084
242.2280, 1048.293
243.4500, 1033.803
244.6720, 884.8750
245.8940, 849.9785
247.1160, 616.1953
248.3370, 578.6641
249.5580, 512.6719
250.7790, 441.0469
252.0000, 537.4473
253.2210, 291.1211
254.4410, 476.9160
255.6620, 352.6074
256.8820, 368.2129
258.1020, 243.4863
259.3210, 638.1172
260.5410, 690.9004
261.7600, 374.8145
262.9790, 201.8750
264.1980, 131.1250
265.4170, 230.6113
266.6360, 174.3730
267.8540, 49.44922
269.0720, 143.2695
270.2900, 164.1016
271.5080, 131.3535
272.7260, 18.13281
273.9430, 3.398438
275.1600, 94.08398
276.3770, 9.371094
277.5940, 121.3652
278.8100, 140.1992
280.0270, 176.7227
281.2430, 220.0391
282.4590, 47.83203
283.6750, 63.46875
284.8910, 126.1250
286.1060, 113.7480
287.3210, 207.4336
288.5360, 217.6035
289.7510, 336.7520
290.9660, 432.6895
292.1800, 386.9980
293.3950, 492.3438
294.6090, 489.8516
295.8230, 680.9785
297.0360, 880.3008
298.2500, 909.4473
299.4630, 787.5273
300.6760, 863.0898
301.8890, 1064.846
303.1020, 882.6348
304.3150, 1112.658
305.5270, 1116.080
306.7390, 1110.592
307.9510, 1132.596
309.1630, 1150.598
310.3750, 1370.727
311.5860, 1204.598
312.7970, 1177.242
314.0080, 1217.471
315.2190, 1015.852
316.4300, 862.1582
317.6400, 899.6641
318.8510, 931.1328
320.0610, 956.5527
321.2710, 935.5566
322.4800, 835.2422
323.6900, 829.4980
324.8990, 675.6895
326.1080, 521.8105
327.3170, 473.8613
328.5260, 439.8340
329.7340, 280.7285
330.9430, 235.5469
332.1510, 285.2871
333.3590, 248.9453
334.5670, 131.5293
335.7740, 136.1094
336.9820, 171.4746
338.1890, 24.83594
339.3960, 137.1270
340.6030, 66.34961
341.8100, 205.4902
343.0160, 85.55469
344.2220, 190.5312
345.4280, 102.4121
346.6340, 155.1992
347.8400, 161.0977
349.0460, 94.52930
350.2510, 17.97656
351.4560, 103.3711
352.6610, 89.63672
353.8660, 50.95703
355.0700, 100.4668
356.2750, 85.28125
357.4790, 31.31250
358.6830, 2.503906
359.8870, 113.2188
361.0910, 44.89453
362.2940, 112.5430
363.4970, 209.1992
364.7000, 138.0898
365.9030, 26.62109
367.1060, 18.63281
368.3080, 73.14844
369.5110, 37.99023
370.7130, 44.90039
371.9150, 217.8828
373.1170, 58.99219
374.3180, 10.81055
375.5200, 51.46680
376.7210, 139.1602
377.9220, 3.292969
379.1230, 103.8398
380.3230, 151.5117
381.5240, 93.68164
382.7240, 101.2168
383.9240, 152.2402
385.1240, 64.41211
386.3240, 190.7051
387.5230, 59.16016
388.7230, 91.25781
389.9220, 84.42578
391.1210, 52.25000
392.3200, 56.21094
393.5180, 58.68945
394.7170, 17.52930
395.9150, 169.8809
397.1130, 146.5898
398.3110, 149.9375
399.5080, 290.8359
400.7060, 69.18164
401.9030, 15.07031
403.1000, 36.27734
404.2970, 5.449219
405.4940, 10.94141
406.6910, 66.68750
407.8870, 6.548828
409.0830, 30.33203
410.2790, 117.6660
411.4750, 4.566406
412.6710, 60.35938
413.8660, 205.0469
415.0610, 140.6309
416.2560, 169.1074
417.4510, 191.2910
418.6460, 374.4941
419.8410, 217.6426
421.0350, 518.5527
422.2290, 293.4082
423.4230, 436.1387
424.6170, 296.7188
425.8100, 608.2109
427.0040, 544.5020
428.1970, 641.5840
429.3900, 640.6172
430.5830, 882.2910
431.7760, 879.5391
432.9680, 1012.588
434.1610, 997.9258
435.3530, 1031.141
436.5450, 1110.250
437.7360, 1290.207
438.9280, 1365.021
440.1190, 1259.629
441.3110, 1454.035
442.5020, 1425.342
443.6930, 1565.500
444.8830, 1471.561
446.0740, 1790.463
447.2640, 1784.320
448.4540, 1740.996
449.6440, 2169.582
450.8340, 2031.098
452.0240, 2370.514
453.2130, 2305.859
454.4020, 2551.148
455.5910, 2323.400
456.7800, 2323.619
457.9690, 2267.814
459.1570, 2173.871
460.3460, 2189.127
461.5340, 2135.254
462.7220, 2232.361
463.9090, 2359.447
465.0970, 2207.516
466.2840, 2413.566
467.4720, 2208.598
468.6590, 2362.611
469.8460, 2580.607
471.0320, 2687.586
472.2190, 2742.547
473.4050, 2963.848
474.5910, 3057.955
475.7770, 3220.262
476.9630, 3322.410
478.1490, 3518.908
479.3340, 3720.447
480.5190, 3732.275
481.7040, 3679.045
482.8890, 3831.656
484.0740, 3679.592
485.2580, 3582.602
486.4430, 3695.803
487.6270, 3470.742
488.8110, 3419.104
489.9950, 3384.902
491.1780, 3053.787
492.3620, 2731.189
493.5450, 2951.234
494.7280, 2711.793
495.9110, 2589.480
497.0940, 2488.592
498.2760, 2254.162
499.4590, 2368.568
500.6410, 2087.287
501.8230, 2171.441
503.0050, 1874.604
504.1860, 1827.027
505.3680, 1845.197
506.5490, 2005.279
507.7300, 1912.877
508.9110, 1699.602
510.0920, 1884.844
511.2730, 1763.438
512.4530, 1818.906
513.6330, 1604.586
514.8130, 1750.078
515.9930, 1586.574
517.1730, 1647.412
518.3520, 1684.309
519.5320, 1512.121
520.7110, 1351.006
521.8900, 1576.527
523.0690, 1745.006
524.2470, 1322.287
525.4260, 1343.824
526.6040, 1232.115
527.7820, 1333.875
528.9600, 1257.672
530.1380, 1116.684
531.3150, 1106.730
532.4930, 916.0898
533.6700, 761.4375
534.8470, 720.5098
536.0240, 921.0781
537.2000, 756.5273
538.3770, 888.3887
539.5530, 889.7129
540.7290, 781.0430
541.9050, 817.2676
543.0810, 770.8379
544.2570, 644.1777
545.4320, 585.3574
546.6080, 745.1543
547.7830, 579.2734
548.9580, 380.5410
550.1320, 339.4102
551.3070, 545.9707
552.4810, 466.8867
553.6550, 327.6543
554.8300, 555.0078
556.0030, 395.3926
557.1770, 534.4688
558.3510, 392.6855
559.5240, 353.9863
560.6970, 408.0469
561.8700, 335.4453
563.0430, 489.7539
564.2160, 420.4551
565.3880, 594.7480
566.5600, 466.4590
567.7320, 408.7344
568.9040, 545.0059
570.0760, 411.2695
571.2480, 540.5293
572.4190, 600.7832
573.5900, 597.0332
574.7610, 601.2832
575.9320, 645.5293
577.1030, 837.7734
578.2740, 835.0156
579.4440, 881.2598
580.6140, 780.5020
581.7840, 908.7441
582.9540, 1131.990
584.1240, 1143.238
585.2930, 1268.486
586.4630, 1602.742
587.6320, 1612.000
588.8010, 1616.262
589.9700, 1896.529
591.1380, 1942.801
592.3070, 2274.078
593.4750, 2725.363
594.6430, 2861.654
595.8110, 3357.951
596.9790, 3661.824
598.1460, 3949.566
599.3140, 4387.885
600.4810, 4809.211
601.6480, 5219.543
602.8150, 5719.883
603.9820, 6213.699
605.1480, 6750.482
606.3150, 7276.943
607.4810, 7907.312
608.6470, 8436.688
609.8130, 9052.074
610.9790, 9527.465
612.1440, 10123.86
613.3100, 10860.14
614.4750, 11549.69
615.6400, 12368.12
616.8050, 12851.92
617.9690, 13528.02
619.1340, 14009.49
620.2980, 14871.07
621.4620, 15280.57
622.6260, 15602.82
623.7900, 15829.64
624.9540, 15838.18
626.1170, 15940.73
627.2810, 15401.48
628.4440, 15060.06
629.6070, 14607.77
630.7690, 14161.73
631.9320, 13396.85
633.0950, 12879.48
634.2570, 12271.84
635.4190, 11656.85
636.5810, 11268.98
637.7430, 10850.55
638.9040, 10102.59
640.0660, 9764.176
641.2270, 9797.914
642.3880, 9643.844
643.5490, 9823.127
644.7100, 10030.47
645.8700, 10441.75
647.0310, 11381.88
648.1910, 12645.89
649.3510, 13810.51
650.5110, 15528.34
651.6710, 17617.27
652.8300, 19564.75
653.9900, 21704.69
655.1490, 23892.86
656.3080, 25656.93
657.4670, 27773.42
658.6250, 29053.30
659.7840, 29923.74
660.9420, 30603.28
662.1010, 30696.39
663.2590, 30458.10
664.4170, 29904.54
665.5740, 29180.02
666.7320, 27931.55
667.8890, 26429.12
669.0460, 24701.76
670.2030, 22990.42
671.3600, 21082.19
672.5170, 19136.90
673.6740, 17304.63
674.8300, 15633.40
675.9860, 14108.28
677.1420, 12884.07
678.2980, 11053.93
679.4540, 10266.79
680.6090, 9022.656
681.7650, 8132.609
682.9200, 7347.574
684.0750, 6599.547
685.2300, 5843.551
686.3840, 5115.566
687.5390, 4734.596
688.6930, 4245.660
689.8470, 4077.736
691.0010, 3602.840
692.1550, 3164.947
693.3090, 3051.068
694.4620, 2629.197
695.6160, 2700.326
696.7690, 2709.461
697.9220, 2461.596
699.0750, 2091.736
700.2280, 2077.871
701.3800, 2146.012
702.5320, 1802.148
703.6850, 1853.285
704.8370, 1639.422
705.9880, 1662.555
707.1400, 1538.691
708.2920, 1573.822
709.4430, 1349.953
710.5940, 1275.082
711.7450, 1125.205
712.8960, 1106.330
714.0470, 1049.451
715.1970, 898.5703
716.3480, 839.6875
717.4980, 973.8027
718.6480, 715.9160
719.7980, 1006.027
720.9470, 793.1367
722.0970, 972.2422
723.2460, 662.3477
724.3960, 576.4492
725.5450, 694.5488
726.6940, 456.6484
727.8420, 325.7441
728.9910, 697.8398
730.1390, 429.9316
731.2870, 300.0234
732.4350, 625.1113
733.5830, 320.1973
734.7310, 497.2812
735.8790, 276.3633
737.0260, 394.4434
738.1730, 187.5215
739.3200, 259.5977
740.4670, 169.6699
741.6140, 177.7441
742.7610, 190.8125
743.9070, 211.8789
745.0530, 319.9434
746.1990, 306.0059
747.3450, 203.0664
748.4910, 108.1211
749.6370, 282.1797
750.7820, 201.2305
751.9270, 286.2812
753.0720, 248.3301
754.2170, 8.373047
755.3620, 50.59180
756.5070, 143.4023
757.6510, 5.607422
758.7950, 169.3691
759.9400, 144.6602
761.0840, 24.78320
762.2270, 121.0684
763.3710, 187.9160
764.5140, 50.75977
765.6580, 194.5977
766.8010, 18.56641
767.9440, 149.7598
769.0870, 71.04883
770.2290, 62.39453
771.3720, 120.7930
772.5140, 146.2715
773.6560, 226.8477
774.7990, 8.433594
775.9400, 40.70312
777.0820, 25.03711
778.2240, 58.81250
779.3650, 4.359375
780.5060, 81.48633
781.6470, 145.3965
782.7880, 111.4043
783.9290, 330.4941
785.0690, 25.78125
786.2100, 194.1074
787.3500, 117.5566
788.4900, 198.0898
789.6300, 142.7520
790.7700, 197.5117
791.9090, 295.4004
793.0490, 118.4688
794.1880, 50.37891
795.3270, 226.7812
796.4660, 4.912109
797.6050, 46.58789
798.7440, 186.2539
799.8820, 245.7031
801.0200, 233.7480
802.1590, 260.2148
803.2970, 207.8555
804.4340, 90.49023
805.5720, 135.1152
806.7100, 112.6758
807.8470, 65.34961
808.9840, 138.9551
810.1210, 220.5527
811.2580, 175.1406
812.3950, 58.72461
813.5310, 142.2988
814.6680, 129.8652
815.8040, 276.4238
816.9400, 328.9727
818.0760, 106.5195
819.2120, 187.0547
820.3470, 201.5801
821.4830, 203.1016
822.6180, 409.6133
823.7530, 142.1152
824.8880, 418.6133
826.0230, 375.1113
827.1580, 202.5996
828.2920, 447.0859
829.4270, 414.5625
830.5610, 334.0469
831.6950, 553.5195
832.8290, 709.9863
833.9620, 724.4629
835.0960, 641.9434
836.2290, 688.4160
837.3620, 709.8828
838.4950, 841.3516
839.6280, 774.8145
840.7610, 814.2695
841.8940, 897.7207
843.0260, 1152.168
844.1580, 1069.605
845.2910, 1247.068
846.4230, 1617.523
847.5540, 1534.973
848.6860, 1604.416
849.8170, 1619.852
850.9490, 1790.281
852.0800, 2019.729
853.2110, 2048.186
854.3420, 2426.639
855.4730, 2585.088
856.6030, 2818.531
857.7340, 3029.969
858.8640, 3162.418
859.9940, 3350.859
861.1240, 3359.342
862.2540, 3586.830
863.3830, 3560.320
864.5130, 3780.844
865.6420, 3921.355
866.7710, 3905.865
867.9000, 3462.365
869.0290, 3455.904
870.1570, 3050.438
871.2860, 3074.965
872.4140, 3012.514
873.5430, 2781.057
874.6710, 2880.596
875.7980, 3027.164
876.9260, 3026.732
878.0540, 3183.297
879.1810, 3437.859
880.3080, 3703.436
881.4360, 4102.184
882.5630, 4639.580
883.6890, 5052.146
884.8160, 5619.721
885.9420, 6195.289
887.0690, 6690.852
888.1950, 7242.412
889.3210, 7634.971
890.4470, 7873.160
891.5730, 7957.053
892.6980, 8411.596
893.8240, 8630.023
894.9490, 8963.557
896.0740, 9258.348
897.1990, 9738.588
898.3240, 10434.12
899.4480, 11372.65
900.5730, 12481.00
901.6970, 13750.52
902.8210, 14970.92
903.9450, 16785.08
905.0690, 18535.14
906.1930, 19854.70
907.3160, 22067.56
908.4400, 24150.82
909.5630, 25753.99
910.6860, 27218.73
911.8090, 28721.02
912.9320, 29362.78
914.0550, 29635.40
915.1770, 30180.85
916.2990, 29864.00
917.4210, 29819.11
918.5440, 29366.35
919.6650, 29236.81
920.7870, 28418.43
921.9090, 28052.48
923.0300, 27239.36
924.1510, 26081.19
925.2720, 25132.50
926.3930, 23538.38
927.5140, 21848.12
928.6350, 20207.00
929.7550, 18662.47
930.8760, 17091.81
931.9960, 15488.21
933.1160, 14228.73
934.2360, 12828.48
935.3550, 11702.23
936.4750, 10621.00
937.5940, 9819.773
938.7140, 9063.580
939.8330, 8474.398
940.9520, 7642.230
942.0710, 7319.074
943.1890, 6517.838
944.3080, 6223.701
945.4260, 6047.578
946.5440, 5542.465
947.6620, 5274.262
948.7800, 5324.172
949.8980, 5004.094
951.0160, 4790.025
952.1330, 4664.969
953.2500, 4438.926
954.3680, 4466.893
955.4850, 4280.912
956.6010, 4328.945
957.7180, 4074.984
958.8350, 4056.096
959.9510, 3967.879
961.0670, 3713.967
962.1830, 3695.729
963.2990, 3452.842
964.4150, 3289.574
965.5310, 3034.715
966.6460, 2926.867
967.7620, 2673.773
968.8770, 2569.051
969.9920, 2682.373
971.1070, 2433.570
972.2210, 2435.570
973.3360, 2507.789
974.4500, 1941.020
975.5650, 2130.074
976.6790, 1949.379
977.7930, 1891.725
978.9070, 1954.275
980.0200, 1664.621
981.1340, 1860.979
982.2470, 1843.363
983.3610, 1803.027
984.4740, 1740.477
985.5870, 1814.785
986.6990, 1736.203
987.8120, 1905.645
988.9250, 1563.098
990.0370, 1685.557
991.1490, 1560.188
992.2610, 1844.812
993.3730, 1795.521
994.4850, 1772.037
995.5960, 1589.766
996.7080, 1462.387
997.8190, 1510.529
998.9300, 1558.057
1000.041, 1447.592
1001.152, 1831.135
1002.263, 1612.527
1003.373, 1732.086
1004.484, 1302.047
1005.594, 1630.479
1006.704, 1382.350
1007.814, 1331.930
1008.924, 1287.590
1010.034, 1213.424
1011.143, 1404.256
1012.253, 1241.252
1013.362, 1261.088
1014.471, 1293.016
1015.580, 1184.982
1016.689, 1195.604
1017.797, 1068.420
1018.906, 1080.051
1020.014, 1143.684
1021.122, 1080.830
1022.230, 962.9316
1023.338, 982.7207
1024.446, 833.0195
1025.554, 698.2695
1026.661, 720.9570
1027.768, 823.6504
1028.875, 1065.684
1029.983, 828.0137
1031.089, 718.9219
1032.196, 681.6914
1033.303, 476.5488
1034.409, 557.2949
1035.515, 625.1016
1036.622, 661.8965
1037.728, 658.7402
1038.833, 683.6113
1039.939, 504.6133
1041.045, 666.3418
1042.150, 514.1484
1043.255, 478.6680
1044.360, 619.7344
1045.465, 644.8066
1046.570, 329.8926
1047.675, 267.0039
1048.779, 418.1250
1049.884, 320.2773
1050.988, 368.4766
1052.092, 404.7227
1053.196, 556.0293
1054.300, 484.3828
1055.404, 443.7988
1056.507, 290.4668
1057.610, 317.9805
1058.714, 501.5391
1059.817, 176.1562
1060.920, 173.0449
1062.022, 232.7891
1063.125, 21.53125
1064.228, 207.5781
1065.330, 130.3926
1066.432, 346.2090
1067.534, 429.4941
1068.636, 134.3027
1069.738, 239.1094
1070.840, 309.6211
1071.941, 40.42383
1073.042, 390.5234
1074.144, 358.5371
1075.245, 63.32812
1076.346, 174.1152
1077.446, 405.9004
1078.547, 290.6777
1079.647, 176.4531
1080.748, 358.2246
1081.848, 274.3613
1082.948, 195.1250
1084.048, 217.8828
1085.148, 97.63281
1086.247, 79.38086
1087.347, 160.9590
1088.446, 154.6953
1089.545, 136.4219
1090.644, 7.292969
1091.743, 45.99219
1092.842, 172.0898
1093.940, 19.91016
1095.039, 237.5391
1096.137, 58.80469
1097.235, 165.9141
1098.333, 166.5625
1099.431, 74.64844
1100.529, 46.64844
1101.627, 12.10547
1102.724, 155.6289
1103.822, 55.85547
1104.919, 124.6211
1106.016, 128.7070
1107.113, 16.83594
1108.209, 105.4062
1109.306, 65.81250
1110.402, 115.7656
1111.499, 365.3281
1112.595, 151.6602
1113.691, 433.8672
1114.787, 21.26562
1115.883, 81.94141
1116.978, 71.77734
1118.074, 56.54688
1119.169, 116.6484
1120.264, 7.136719
1121.359, 223.2109
1122.454, 63.35547
1123.549, 39.07422
1124.644, 54.01172
1125.738, 162.9180
1126.832, 21.95703
1127.927, 19.39453
1129.021, 106.5039
1130.115, 192.5898
1131.208, 299.3984
1132.302, 295.1914
1133.396, 139.0273
1134.489, 150.1250
1135.582, 29.79297
1136.675, 73.55859
1137.768, 57.02344
1138.861, 147.5938
1139.954, 106.8516
1141.046, 2.625000
1142.138, 79.07812
1143.231, 42.51562
1144.323, 59.07031
1145.415, 63.28125
1146.507, 57.61719
1147.598, 185.4414
1148.690, 24.18359
1149.781, 272.5508
1150.872, 259.7930
1151.964, 31.82422
1153.054, 42.02734
1154.145, 119.5547
1155.236, 103.7188
1156.327, 296.8672
1157.417, 223.9922
1158.507, 242.1055
1159.597, 80.71484
1160.687, 8.210938
1161.777, 129.0195
1162.867, 226.0352
1163.956, 145.0352
1165.046, 191.0117
1166.135, 209.2344
1167.224, 197.2578
1168.313, 211.3477
1169.402, 225.2539
1170.491, 150.2812
1171.580, 69.85547
1172.668, 35.92969
1173.756, 68.68750
1174.845, 258.4219
1175.933, 261.5391
1177.020, 295.8320
1178.108, 338.5078
1179.196, 232.1602
1180.283, 281.7930
1181.371, 409.4023
1182.458, 186.9922
1183.545, 67.44141
1184.632, 294.4180
1185.719, 67.12109
1186.805, 142.2578
1187.892, 360.6094
1188.978, 259.9375
1190.065, 281.2461
1191.151, 153.5312
1192.237, 476.7852
1193.323, 235.0195
1194.408, 35.77344
1195.494, 238.3633
1196.579, 401.4727
1197.664, 91.55859
1198.750, 222.6172
1199.835, 259.6484
1200.919, 25.34766
1202.004, 472.5938
1203.089, 137.5039
1204.173, 157.3906
1205.258, 335.2461
1206.342, 506.0820
1207.426, 475.5508
1208.510, 488.6680
1209.594, 432.4297
1210.677, 228.1562
1211.761, 126.8594
1212.844, 228.5391
1213.927, 224.1875
1215.010, 602.8164
1216.093, 412.4141
1217.176, 103.0117
1218.259, 365.4531
1219.341, 229.8906
1220.424, 185.3008
1221.506, 281.6289
1222.588, 17.27344
1223.670, 145.5859
1224.752, 70.21094
1225.834, 226.4609
1226.915, 52.08203
1227.997, 213.2695
1229.078, 179.4336
1230.159, 114.8281
1231.240, 165.8359
1232.321, 335.7773
1233.402, 425.8281
1234.483, 353.0664
1235.563, 81.06641
1236.644, 277.0469
1237.724, 154.8203
1238.804, 52.98828
1239.884, 374.9375
1240.964, 21.48047
1242.044, 411.1914
1243.123, 15.88281
1244.203, 192.7734
1245.282, 8.484375
1246.361, 247.0469
1247.440, 386.7266
1248.519, 226.2734
1249.598, 199.8047
1250.676, 163.3125
1251.755, 250.8242
1252.833, 103.1445
1253.911, 395.4570
1254.989, 270.6719
1256.067, 210.0703
1257.145, 57.24609
1258.223, 214.9062
1259.300, 121.0000
1260.378, 235.6562
1261.455, 272.2109
1262.532, 285.1211
1263.609, 67.44531
1264.686, 312.6797
1265.763, 274.9102
1266.840, 199.5039
1267.916, 359.3750
1268.992, 293.5312
1270.069, 308.7383
1271.145, 239.6055
1272.221, 288.4375
1273.296, 336.3594
1274.372, 281.1758
1275.448, 262.8867
1276.523, 44.60938
1277.598, 147.5977
1278.673, 49.37500
1279.749, 374.3555
1280.823, 11.28516
1281.898, 213.6836
1282.973, 79.10938
1284.047, 302.8359
1285.122, 231.4648
1286.196, 315.7070
1287.270, 273.5117
1288.344, 40.28906
1289.418, 206.7188
1290.491, 112.8789
1291.565, 260.5742
1292.638, 385.2773
1293.712, 483.8711
1294.785, 361.5312
1295.858, 78.17188
1296.931, 118.7930
1298.003, 381.5234
1299.076, 126.1094
1300.149, 476.5703
1301.221, 316.3281
1302.293, 359.0352
1303.365, 278.0820
1304.437, 237.5703
1305.509, 243.0391
1306.581, 222.9688
1307.652, 228.7305
1308.724, 256.3438
1309.795, 214.7500
1310.866, 243.1406
1311.937, 157.5039
1313.008, 55.88672
1314.079, 377.2148
1315.150, 169.5195
1316.220, 342.6055
1317.291, 250.8867
1318.361, 284.1562
1319.431, 381.4102
1320.501, 282.4648
1321.571, 579.6914
1322.641, 450.9023
1323.710, 493.8672
1324.780, 177.0508
1325.849, 454.2539
1326.918, 474.9414
1327.987, 503.0859
1329.056, 331.2188
1330.125, 394.6328
1331.194, 453.7383
1332.263, 274.5312
1333.331, 335.3945
1334.399, 544.4609
1335.467, 327.5234
1336.535, 359.5742
1337.603, 357.6133
1338.671, 253.6406
1339.739, 282.8555
1340.806, 387.4922
1341.874, 177.4844
1342.941, 410.4727
1344.008, 428.4453
1345.075, 358.4102
1346.142, 471.5039
1347.209, 251.4297
1348.275, 385.3555
1349.342, 440.7188
1350.408, 394.6172
1351.475, 456.6133
1352.541, 401.3281
1353.607, 419.7578
1354.673, 354.6172
1355.738, 245.3867
1356.804, 328.1836
1357.869, 380.8320
1358.935, 438.2305
1360.000, 169.8477
1361.065, 148.6758
1362.130, 220.4961
1363.195, 436.3242
1364.259, 305.5312
1365.324, 402.3438
1366.388, 423.3594
1367.453, 47.18359
1368.517, 213.9766
1369.581, 294.0547
1370.645, 47.92578
1371.709, 127.8555
1372.772, 12.30469
1373.836, 149.7930
1374.899, 358.5938
1375.963, 59.10938
1377.026, 349.7070
1378.089, 151.4766
1379.152, 193.3398
1380.214, 148.1523
1381.277, 145.5195
1382.340, 261.4609
1383.402, 171.1602
1384.464, 132.3242
1385.526, 3.566406
1386.588, 10.47656
1387.650, 29.41016
1388.712, 40.09375
1389.774, 3.003906
1390.835, 82.88672
1391.896, 195.3555
1392.958, 1.292969
1394.019, 36.22656
1395.080, 108.1875
1396.141, 399.1406
1397.201, 58.90625
1398.262, 277.0664
1399.323, 46.05469
1400.383, 248.0391
1401.443, 271.1289
1402.503, 117.1445
1403.563, 87.16797
1404.623, 283.6797
1405.683, 329.6328
1406.742, 93.10938
1407.802, 221.0312
1408.861, 141.1094
1409.920, 150.0977
1410.980, 338.4062
1412.039, 293.1758
1413.097, 1.890625
1414.156, 187.6992
1415.215, 143.3945
1416.273, 188.5742
1417.331, 333.2539
1418.390, 72.73828
1419.448, 99.41016
1420.506, 210.1367
1421.564, 159.7812
1422.621, 109.4102
1423.679, 368.6758
1424.736, 69.09375
1425.794, 200.6719
1426.851, 158.2500
1427.908, 353.8047
1428.965, 247.3984
1430.022, 183.9844
1431.079, 341.5664
1432.135, 337.1484
1433.192, 306.7344
1434.248, 237.3164
1435.304, 200.6055
1436.360, 201.0781
1437.416, 201.7188
1438.472, 211.8594
1439.528, 262.9883
1440.583, 258.8906
1441.639, 288.8867
1442.694, 328.9102
1443.749, 457.9297
1444.804, 418.9414
1445.859, 485.9688
1446.914, 561.0195
1447.969, 479.0664
1449.024, 414.1328
1450.078, 239.2305
1451.132, 526.3164
1452.187, 97.40625
1453.241, 231.4961
1454.295, 304.5781
1455.349, 649.6641
1456.402, 268.7539
1457.456, 463.9375
1458.509, 435.1211
1459.563, 191.3164
1460.616, 489.5430
1461.669, 412.7812
1462.722, 531.0312
1463.775, 454.3008
1464.828, 151.5703
1465.880, 62.85156
1466.933, 131.2148
1467.985, 293.4180
1469.037, 270.5977
1470.090, 267.6094
1471.142, 245.0898
1472.193, 399.5781
1473.245, 200.9727
1474.297, 273.3516
1475.348, 2.277344
1476.400, 175.5352
1477.451, 362.5078
1478.502, 254.8438
1479.553, 218.1016
1480.604, 440.4727
1481.655, 228.8320
1482.706, 118.4609
1483.756, 253.4375
1484.807, 186.7422
1485.857, 392.9766
1486.907, 321.2188
1487.957, 420.6055
1489.007, 275.9648
1490.057, 230.6523
1491.106, 276.0352
1492.156, 119.4375
1493.205, 125.6523
1494.255, 156.0859
1495.304, 158.5469
1496.353, 89.20703
1497.402, 422.2969
1498.451, 19.17578
1499.500, 111.3711
1500.548, 393.9414
1501.597, 29.48828
1502.645, 248.1055
1503.693, 199.7461
1504.741, 87.58594
1505.789, 474.1055
1506.837, 304.8086
1507.885, 108.5312
1508.932, 15.73047
1509.980, 67.96484
1511.027, 151.7422
1512.075, 360.5430
1513.122, 116.3555
1514.169, 359.1797
1515.216, 218.0273
1516.262, 455.3945
1517.309, 358.5938
1518.356, 467.1602
1519.402, 261.1133
1520.448, 202.1367
1521.495, 282.4883
1522.541, 213.6016
1523.587, 394.7695
1524.632, 516.0469
1525.678, 376.4375
1526.724, 139.8789
1527.769, 290.3633
1528.814, 187.9219
1529.860, 252.5234
1530.905, 226.0586
1531.950, 383.6680
1532.995, 210.9570
1534.039, 146.1367
1535.084, 350.7109
1536.128, 338.1094
1537.173, 290.1758
1538.217, 351.0625
1539.261, 101.7266
1540.305, 346.9453
1541.349, 249.4883
1542.393, 267.8125
1543.436, 512.8594
1544.480, 362.6719
1545.523, 108.1094
1546.567, 361.4414
1547.610, 369.8281
1548.653, 595.5352
1549.696, 237.1484
1550.739, 318.0039
1551.781, 83.36328
1552.824, 257.4375
1553.867, 378.3789
1554.909, 440.3750
1555.951, 458.1680
1556.993, 553.3008
1558.035, 312.6914
1559.077, 235.2031
1560.119, 8.269531
1561.161, 176.1016
1562.202, 165.5781
1563.243, 4.816406
1564.285, 243.7109
1565.326, 0.0000000E+00
##END=



