##NAMES=Akermanite
##RRUFFID=R061085
##IDEAL CHEMISTRY=Ca_2_MgSi_2_O_7_
##LOCALITY=Kovdor, Kola Peninsula, Russia
##OWNER=Michael Scott
##SOURCE=Michael Scott
##DESCRIPTION=Dark blue coarsely crystalline massive associated with green diopside
##STATUS=The identification of this mineral has been confirmed by X-ray diffraction and chemical analysis
##URL=rruff.info/R061085
##MEASURED CHEMISTRY=(Ca_1.78_Na_0.22_)_Σ=2_(Mg_0.70_Al_0.22_Fe^2+^_0.08_)_Σ=1_Si_2.00_O_7_
##PIN_ID=M00490
##ORIENTATION=Laser parallel to -c* (0 0 -1). Fiducial mark perpendicular to laser is parallel to a [1 0 0]
153.8520, 0.0000000E+00
155.0760, 21.04639
156.3010, 64.00293
157.5250, 217.1758
158.7500, 107.1919
159.9740, 122.0688
161.1980, 11.48340
162.4220, 79.20752
163.6450, 194.5957
164.8690, 50.90332
166.0920, 235.6714
167.3160, 63.01172
168.5390, 20.00537
169.7620, 9.580078
170.9850, 77.68555
172.2080, 31.28906
173.4300, 9.363281
174.6530, 49.87109
175.8750, 37.77051
177.0970, 32.97656
178.3190, 122.5913
179.5410, 55.43994
180.7630, 302.5386
181.9850, 80.86084
183.2060, 218.3896
184.4270, 249.1235
185.6490, 236.0596
186.8700, 419.2173
188.0910, 387.6069
189.3110, 404.2500
190.5320, 505.1387
191.7530, 465.2378
192.9730, 655.5142
194.1930, 606.9395
195.4130, 772.4907
196.6330, 816.1475
197.8530, 859.8936
199.0730, 890.7148
200.2920, 957.5996
201.5120, 1065.540
202.7310, 1051.523
203.9500, 1026.544
205.1690, 1170.596
206.3880, 1200.671
207.6070, 1259.767
208.8250, 1347.875
210.0440, 1447.020
211.2620, 1511.236
212.4800, 1609.612
213.6980, 1810.088
214.9160, 1969.655
216.1340, 1959.371
217.3510, 2021.285
218.5690, 2241.554
219.7860, 2454.997
221.0030, 2446.645
222.2200, 2511.618
223.4370, 2626.907
224.6540, 2605.458
225.8700, 2599.992
227.0870, 2570.423
228.3030, 2514.487
229.5190, 2519.028
230.7350, 2376.164
231.9510, 2261.189
233.1670, 2174.124
234.3820, 2124.973
235.5980, 2016.808
236.8130, 1856.425
238.0280, 1858.042
239.2430, 1665.573
240.4580, 1612.041
241.6730, 1469.450
242.8880, 1391.802
244.1020, 1326.099
245.3160, 1228.342
246.5300, 1236.534
247.7450, 1138.675
248.9580, 1191.767
250.1720, 1060.811
251.3860, 1078.809
252.5990, 1070.760
253.8130, 1063.667
255.0260, 1069.529
256.2390, 1110.349
257.4520, 1097.125
258.6640, 1181.859
259.8770, 1280.553
261.0890, 1314.205
262.3020, 1229.815
263.5140, 1185.386
264.7260, 1128.415
265.9380, 1108.210
267.1500, 1154.256
268.3610, 1152.425
269.5730, 1186.298
270.7840, 1170.604
271.9950, 1148.090
273.2060, 1232.310
274.4170, 1277.921
275.6280, 1353.488
276.8390, 1379.459
278.0490, 1367.221
279.2590, 1506.850
280.4690, 1540.099
281.6800, 1588.412
282.8890, 1736.037
284.0990, 1799.646
285.3090, 1856.155
286.5180, 1934.718
287.7280, 1988.958
288.9370, 2226.237
290.1460, 2386.870
291.3550, 2556.324
292.5630, 2647.265
293.7720, 2885.947
294.9800, 3084.625
296.1890, 3263.701
297.3970, 3577.356
298.6050, 3727.464
299.8130, 4072.421
301.0200, 4214.638
302.2280, 4546.555
303.4360, 4764.057
304.6430, 4966.454
305.8500, 5270.940
307.0570, 5494.145
308.2640, 5429.500
309.4710, 5518.966
310.6770, 5690.290
311.8840, 5541.725
313.0900, 5496.088
314.2960, 5222.276
315.5020, 5010.447
316.7080, 4811.951
317.9140, 4577.342
319.1190, 4262.671
320.3250, 4015.193
321.5300, 3621.687
322.7350, 3415.936
323.9400, 3225.470
325.1450, 2855.006
326.3500, 2698.539
327.5540, 2398.068
328.7580, 2219.592
329.9630, 2053.113
331.1670, 1809.625
332.3710, 1697.131
333.5750, 1578.628
334.7780, 1427.115
335.9820, 1353.591
337.1850, 1221.056
338.3880, 1149.237
339.5920, 1139.943
340.7950, 1005.366
341.9970, 944.7739
343.2000, 854.1665
344.4030, 868.5435
345.6050, 717.9048
346.8070, 753.2500
348.0090, 697.5786
349.2110, 659.8906
350.4130, 757.1865
351.6150, 779.4653
352.8160, 633.7271
354.0170, 560.9722
355.2190, 564.1992
356.4200, 606.4092
357.6210, 687.6006
358.8210, 652.7734
360.0220, 575.9277
361.2220, 569.0620
362.4230, 532.8564
363.6230, 499.2661
364.8230, 497.3340
366.0230, 451.3774
367.2230, 437.3945
368.4220, 291.3857
369.6220, 339.3481
370.8210, 389.2817
372.0200, 280.1885
373.2190, 169.0674
374.4180, 166.9189
375.6170, 104.7427
376.8150, 81.58350
378.0140, 119.3071
379.2120, 40.04785
380.4100, 90.76074
381.6080, 36.44629
382.8060, 65.10303
384.0040, 33.26611
385.2010, 67.32275
386.3980, 23.88574
387.5960, 42.41992
388.7930, 23.92773
389.9900, 20.59180
391.1870, 124.8516
392.3830, 83.27051
393.5800, 54.66504
394.7760, 10.96729
395.9720, 73.36768
397.1680, 41.32275
398.3640, 46.94580
399.5600, 43.18848
400.7560, 48.40576
401.9510, 0.4018550
403.1460, 11.23975
404.3420, 51.11133
405.5370, 54.42334
406.7320, 41.92480
407.9260, 53.92480
409.1210, 32.96436
410.3150, 28.05420
411.5100, 27.34326
412.7040, 7.634766
413.8980, 32.59521
415.0920, 2.871094
416.2850, 28.18604
417.4790, 39.55566
418.6720, 12.02881
419.8650, 59.42773
421.0590, 41.04492
422.2510, 127.5132
423.4440, 119.1548
424.6370, 78.90674
425.8290, 88.75293
427.0220, 51.68506
428.2140, 1.681152
429.4060, 28.73242
430.5980, 68.85303
431.7900, 99.04736
432.9810, 70.34131
434.1730, 40.74902
435.3640, 16.75342
436.5550, 35.21191
437.7460, 45.74512
438.9370, 39.90869
440.1280, 66.20166
441.3190, 87.47412
442.5090, 145.7275
443.6990, 248.9565
444.8890, 233.1655
446.0790, 331.3545
447.2690, 363.3589
448.4590, 501.6807
449.6480, 429.8169
450.8380, 461.9463
452.0270, 463.0581
453.2160, 568.1523
454.4050, 568.2285
455.5940, 474.2876
456.7820, 595.3291
457.9710, 622.3540
459.1590, 671.3623
460.3470, 753.3525
461.5350, 682.3242
462.7230, 853.2788
463.9110, 813.2163
465.0990, 991.1357
466.2860, 973.0435
467.4730, 1021.942
468.6600, 1113.822
469.8470, 1082.690
471.0340, 1156.538
472.2210, 1197.573
473.4070, 1358.231
474.5940, 1341.054
475.7800, 1358.880
476.9660, 1529.697
478.1520, 1490.502
479.3380, 1574.296
480.5230, 1526.092
481.7090, 1542.874
482.8940, 1497.661
484.0790, 1453.444
485.2650, 1407.844
486.4490, 1359.046
487.6340, 1283.859
488.8190, 1264.683
490.0030, 1223.506
491.1870, 1189.320
492.3720, 1002.131
493.5550, 1071.922
494.7390, 897.7095
495.9230, 889.5171
497.1060, 841.3374
498.2900, 814.1655
499.4730, 835.0000
500.6560, 746.8252
501.8390, 822.6372
503.0220, 775.4434
504.2040, 764.2456
505.3870, 829.0444
506.5690, 813.8501
507.7510, 819.6484
508.9330, 799.4531
510.1150, 873.2534
511.2970, 829.0376
512.4780, 758.8174
513.6600, 952.6157
514.8410, 852.4219
516.0220, 826.0391
517.2030, 837.6387
518.3840, 798.9600
519.5650, 831.1636
520.7450, 794.9478
521.9250, 717.3677
523.1060, 724.5527
524.2860, 697.3467
525.4660, 625.3667
526.6450, 548.2690
527.8250, 499.2969
529.0040, 441.9170
530.1840, 483.7168
531.3630, 382.3135
532.5420, 285.9302
533.7200, 344.1470
534.8990, 291.1807
536.0780, 335.0015
537.2560, 241.1567
538.4340, 267.1045
539.6120, 162.3159
540.7900, 166.0098
541.9680, 227.6558
543.1460, 194.3281
544.3230, 196.0317
545.5000, 197.0371
546.6770, 198.5215
547.8540, 105.7808
549.0310, 200.8076
550.2080, 110.0649
551.3840, 254.6226
552.5610, 186.4746
553.7370, 232.3569
554.9130, 262.3721
556.0890, 330.8994
557.2650, 234.2798
558.4400, 194.0591
559.6160, 250.1147
560.7910, 238.1621
561.9660, 344.9502
563.1410, 282.3174
564.3160, 330.8159
565.4910, 347.8335
566.6650, 478.3730
567.8400, 388.2939
569.0140, 458.5420
570.1880, 418.9297
571.3620, 482.6226
572.5360, 482.8018
573.7090, 584.0923
574.8830, 635.1919
576.0560, 801.1602
577.2290, 821.1255
578.4020, 857.4463
579.5750, 882.7749
580.7480, 938.0547
581.9200, 930.5444
583.0930, 1039.120
584.2650, 1147.937
585.4370, 1300.007
586.6090, 1347.072
587.7810, 1508.128
588.9520, 1641.178
590.1240, 1786.222
591.2950, 2007.258
592.4660, 2223.288
593.6370, 2477.310
594.8080, 2988.326
595.9790, 3289.335
597.1500, 3778.337
598.3200, 4067.333
599.4900, 4519.321
600.6600, 5073.304
601.8300, 5503.279
603.0000, 6054.247
604.1700, 6499.327
605.3390, 6982.376
606.5080, 7443.345
607.6770, 7854.266
608.8460, 8461.201
610.0150, 9008.045
611.1840, 9670.966
612.3520, 10445.63
613.5210, 11343.05
614.6890, 12220.95
615.8570, 13019.89
617.0250, 13889.47
618.1930, 14830.63
619.3600, 15696.83
620.5280, 15981.02
621.6950, 16302.66
622.8620, 16321.79
624.0290, 16297.89
625.1960, 15948.29
626.3630, 15507.81
627.5290, 14904.41
628.6960, 13974.61
629.8620, 13333.23
631.0280, 12409.94
632.1940, 11655.58
633.3600, 10775.35
634.5250, 9892.960
635.6910, 9331.585
636.8560, 8524.372
638.0210, 8076.708
639.1860, 7580.909
640.3510, 7240.214
641.5150, 6987.884
642.6800, 6917.990
643.8440, 6951.719
645.0080, 7246.888
646.1720, 7775.798
647.3360, 8429.213
648.5000, 9552.129
649.6640, 10844.64
650.8270, 12495.25
651.9900, 14612.72
653.1530, 16871.41
654.3160, 19890.58
655.4790, 22911.37
656.6420, 26349.91
657.8040, 29904.42
658.9660, 33083.93
660.1290, 36133.42
661.2910, 38400.89
662.4520, 40051.37
663.6140, 40878.05
664.7760, 40723.33
665.9370, 39315.32
667.0980, 37396.75
668.2590, 34548.73
669.4200, 31484.90
670.5810, 28389.31
671.7420, 25005.80
672.9020, 22106.20
674.0620, 19288.17
675.2220, 16925.55
676.3820, 14729.31
677.5420, 12870.67
678.7020, 11492.06
679.8610, 10072.42
681.0210, 8874.769
682.1800, 7854.108
683.3390, 6950.438
684.4980, 6108.762
685.6560, 5428.085
686.8150, 4816.417
687.9730, 4191.701
689.1320, 3871.048
690.2900, 3395.400
691.4480, 3047.764
692.6050, 2756.130
693.7630, 2623.500
694.9200, 2341.863
696.0780, 2153.231
697.2350, 1982.598
698.3920, 1792.967
699.5490, 1677.344
700.7050, 1536.714
701.8620, 1486.096
703.0180, 1378.471
704.1740, 1258.875
705.3300, 1191.229
706.4860, 1071.760
707.6420, 1042.231
708.7970, 997.7134
709.9530, 975.9873
711.1080, 892.6777
712.2630, 919.1777
713.4180, 792.7007
714.5730, 780.2397
715.7280, 668.7871
716.8820, 550.3276
718.0360, 649.8613
719.1900, 490.3882
720.3440, 529.9077
721.4980, 445.4199
722.6520, 478.9238
723.8050, 413.4189
724.9590, 399.9043
726.1120, 298.3784
727.2650, 370.8442
728.4180, 335.2998
729.5700, 298.7466
730.7230, 286.1826
731.8750, 252.6104
733.0280, 270.0288
734.1800, 215.4380
735.3320, 238.8389
736.4830, 175.2310
737.6350, 189.6143
738.7860, 148.9888
739.9380, 100.3560
741.0890, 127.7148
742.2400, 28.06592
743.3910, 31.40625
744.5410, 48.73828
745.6920, 10.93750
746.8420, 131.3584
747.9920, 5.646973
749.1420, 55.91797
750.2920, 55.81836
751.4420, 4.604980
752.5910, 74.58545
753.7410, 61.23145
754.8900, 8.099609
756.0390, 1.992676
757.1880, 2.906250
758.3370, 50.84033
759.4850, 5.178711
760.6340, 66.81787
761.7820, 34.86816
762.9300, 87.95508
764.0780, 90.43506
765.2260, 76.32275
766.3730, 86.59668
767.5210, 45.93262
768.6680, 16.30908
769.8150, 31.71045
770.9620, 27.85547
772.1090, 32.58154
773.2560, 129.0513
774.4020, 100.6030
775.5490, 78.22168
776.6950, 76.89453
777.8410, 15.62109
778.9870, 6.368652
780.1330, 30.13135
781.2780, 40.92139
782.4230, 39.89941
783.5690, 81.59766
784.7140, 27.50439
785.8590, 79.43506
787.0030, 42.09961
788.1480, 6.572266
789.2920, 43.44336
790.4370, 127.4902
791.5810, 88.60889
792.7250, 51.78076
793.8690, 32.98535
795.0120, 23.78906
796.1560, 23.59961
797.2990, 31.24121
798.4420, 26.10986
799.5850, 14.88428
800.7280, 3.341797
801.8710, 17.57129
803.0130, 80.81152
804.1550, 22.09277
805.2980, 13.38477
806.4400, 54.68408
807.5810, 47.99072
808.7230, 1.332031
809.8650, 29.34424
811.0060, 37.97754
812.1470, 42.68506
813.2880, 35.64844
814.4290, 53.00391
815.5700, 1.660156
816.7110, 93.31738
817.8510, 109.9780
818.9910, 161.6416
820.1310, 98.30957
821.2710, 168.9810
822.4110, 89.65674
823.5510, 132.3354
824.6900, 196.0190
825.8290, 227.7075
826.9680, 182.4004
828.1070, 139.0986
829.2460, 226.8008
830.3850, 267.5073
831.5230, 350.2251
832.6620, 301.9473
833.8000, 274.6753
834.9380, 381.4082
836.0760, 409.1470
837.2130, 481.8911
838.3510, 564.6582
839.4880, 603.4326
840.6250, 722.2300
841.7620, 688.0342
842.8990, 731.8467
844.0360, 907.6655
845.1720, 924.4912
846.3090, 1088.322
847.4450, 1157.161
848.5810, 1408.005
849.7170, 1543.857
850.8530, 1697.715
851.9880, 1966.581
853.1240, 1956.453
854.2590, 2259.335
855.3940, 2430.240
856.5290, 2687.165
857.6640, 2969.104
858.7980, 3258.052
859.9330, 3433.011
861.0670, 3567.981
862.2010, 3851.992
863.3350, 3933.013
864.4690, 3983.052
865.6030, 4017.136
866.7360, 3778.230
867.8690, 3610.340
869.0020, 3425.476
870.1350, 3220.621
871.2680, 2837.776
872.4010, 2448.969
873.5330, 2257.192
874.6660, 2136.446
875.7980, 2129.744
876.9300, 2154.069
878.0620, 2000.429
879.1930, 2078.688
880.3250, 2117.980
881.4560, 2208.360
882.5870, 2363.802
883.7180, 2532.938
884.8490, 2791.825
885.9800, 3010.334
887.1100, 3266.118
888.2410, 3585.145
889.3710, 4051.723
890.5010, 4616.274
891.6310, 5170.190
892.7610, 5775.521
893.8900, 6581.853
895.0200, 7397.210
896.1490, 8506.120
897.2780, 9855.550
898.4070, 11221.02
899.5360, 13090.20
900.6640, 15365.28
901.7920, 17939.29
902.9210, 21083.71
904.0490, 24720.76
905.1770, 28976.71
906.3040, 33137.75
907.4320, 38189.67
908.5600, 42374.77
909.6870, 46780.86
910.8140, 49894.80
911.9410, 52450.18
913.0680, 53856.72
914.1940, 54474.17
915.3210, 53664.27
916.4470, 53107.95
917.5730, 51429.02
918.6990, 49328.22
919.8250, 46896.86
920.9500, 44449.98
922.0760, 41219.90
923.2010, 37707.25
924.3260, 33862.50
925.4510, 30323.91
926.5760, 26938.13
927.7010, 23731.87
928.8250, 20867.00
929.9500, 18459.39
931.0740, 16136.83
932.1980, 14598.30
933.3220, 13132.79
934.4450, 11985.31
935.5690, 10799.82
936.6920, 9834.208
937.8150, 8943.975
938.9380, 8238.040
940.0610, 7680.705
941.1840, 7045.854
942.3060, 6583.672
943.4290, 6166.581
944.5510, 5822.263
945.6730, 5554.548
946.7950, 5364.480
947.9160, 5215.215
949.0380, 5165.725
950.1590, 5176.655
951.2800, 5163.577
952.4010, 5133.569
953.5220, 5166.589
954.6430, 5163.638
955.7630, 5235.716
956.8840, 5373.822
958.0040, 5372.958
959.1240, 5483.125
960.2440, 5457.315
961.3640, 5557.540
962.4830, 5520.790
963.6030, 5549.302
964.7220, 5511.381
965.8410, 5487.670
966.9600, 5484.038
968.0780, 5271.436
969.1970, 5479.861
970.3150, 5218.316
971.4340, 5228.799
972.5520, 5076.735
973.6700, 5071.448
974.7870, 5067.789
975.9050, 5092.389
977.0220, 4955.330
978.1390, 5168.986
979.2560, 5119.671
980.3730, 5208.384
981.4900, 5476.127
982.6070, 5591.899
983.7230, 5800.698
984.8390, 6284.526
985.9550, 6575.383
987.0710, 6889.268
988.1870, 7352.545
989.3030, 7802.116
990.4180, 8375.061
991.5330, 8895.470
992.6480, 9499.495
993.7630, 10131.99
994.8780, 10523.69
995.9930, 11001.91
997.1070, 11157.77
998.2210, 11366.45
999.3350, 11205.57
1000.449, 11194.83
1001.563, 10965.11
1002.677, 10306.98
1003.790, 9997.276
1004.903, 9634.597
1006.016, 8831.882
1007.129, 8408.044
1008.242, 7764.657
1009.355, 7479.468
1010.467, 6840.855
1011.579, 6467.373
1012.691, 6170.616
1013.803, 5554.132
1014.915, 5291.673
1016.027, 4860.555
1017.138, 4722.657
1018.249, 4368.094
1019.360, 4009.853
1020.471, 3939.851
1021.582, 3695.566
1022.693, 3593.397
1023.803, 3488.164
1024.913, 3294.975
1026.023, 3116.818
1027.133, 2884.594
1028.243, 2738.497
1029.353, 2552.029
1030.462, 2530.263
1031.571, 2434.277
1032.680, 2351.335
1033.789, 2285.267
1034.898, 2223.436
1036.007, 2090.353
1037.115, 1956.955
1038.223, 1851.258
1039.331, 1786.590
1040.439, 1741.960
1041.547, 1648.249
1042.655, 1689.758
1043.762, 1508.230
1044.869, 1489.236
1045.976, 1452.565
1047.083, 1322.925
1048.190, 1386.779
1049.297, 1311.437
1050.403, 1113.563
1051.509, 1135.282
1052.615, 999.0308
1053.721, 1021.822
1054.827, 976.6401
1055.933, 888.8203
1057.038, 845.7090
1058.143, 832.6157
1059.248, 857.2441
1060.353, 716.8096
1061.458, 827.2041
1062.563, 768.2632
1063.667, 743.3467
1064.771, 645.4912
1065.875, 644.6035
1066.979, 709.7295
1068.083, 569.8779
1069.186, 747.0767
1070.290, 547.4492
1071.393, 585.6372
1072.496, 548.2876
1073.599, 646.9521
1074.702, 688.7812
1075.804, 574.0654
1076.907, 541.3613
1078.009, 573.8447
1079.111, 569.1650
1080.213, 611.5049
1081.315, 523.9888
1082.416, 558.3594
1083.517, 445.7407
1084.619, 540.8398
1085.720, 738.2422
1086.821, 698.6543
1087.921, 577.0757
1089.022, 516.5068
1090.122, 456.9473
1091.222, 458.3975
1092.322, 482.8560
1093.422, 398.3228
1094.522, 238.7979
1095.622, 279.2808
1096.721, 136.7720
1097.820, 39.71533
1098.919, 156.7944
1100.018, 208.3105
1101.117, 64.83496
1102.215, 11.36475
1103.314, 27.90186
1104.412, 86.50732
1105.510, 8.991211
1106.608, 90.47168
1107.705, 38.01807
1108.803, 14.48682
1109.900, 19.02441
1110.997, 44.52441
1112.094, 56.03662
1113.191, 50.79541
1114.288, 34.31543
1115.384, 32.84033
1116.481, 103.3687
1117.577, 15.89990
1118.673, 24.43506
1119.769, 12.02637
1120.864, 67.48926
1121.960, 51.98145
1123.055, 33.47803
1124.150, 45.99609
1125.245, 11.52783
1126.340, 15.05566
1127.434, 122.5903
1128.529, 18.81396
1129.623, 42.78027
1130.717, 132.3960
1131.811, 2.918457
1132.905, 18.76807
1133.999, 60.46631
1135.092, 53.80225
1136.185, 38.07031
1137.279, 94.66162
1138.371, 75.44678
1139.464, 65.27686
1140.557, 114.9028
1141.649, 59.08838
1142.742, 75.81152
1143.834, 5.832031
1144.926, 42.13672
1146.017, 28.11621
1147.109, 28.90625
1148.200, 46.95410
1149.292, 82.99121
1150.383, 23.12402
1151.474, 9.782227
1152.564, 69.04395
1153.655, 68.13281
1154.745, 79.64062
1155.835, 77.41113
1156.925, 97.33936
1158.015, 77.96289
1159.105, 36.74268
1160.195, 8.443848
1161.284, 16.14551
1162.373, 61.82471
1163.462, 31.81396
1164.551, 24.12988
1165.640, 5.505371
1166.728, 19.36377
1167.817, 44.77783
1168.905, 101.7617
1169.993, 63.29395
1171.081, 10.83838
1172.168, 93.42480
1173.256, 57.92383
1174.343, 112.4146
1175.430, 63.89746
1176.517, 100.3716
1177.604, 174.8374
1178.691, 4.706055
1179.777, 153.7202
1180.864, 32.13623
1181.950, 99.53809
1183.036, 226.9297
1184.121, 101.3115
1185.207, 146.6826
1186.293, 15.04346
1187.378, 153.3804
1188.463, 210.7061
1189.548, 32.02100
1190.633, 36.31738
1191.717, 44.59619
1192.802, 185.8584
1193.886, 93.10889
1194.970, 65.34717
1196.054, 79.57227
1197.138, 131.7852
1198.221, 75.98486
1199.305, 70.17285
1200.388, 60.34570
1201.471, 100.5044
1202.554, 51.64990
1203.637, 23.77686
1204.719, 47.87744
1205.801, 151.9585
1206.884, 153.0264
1207.966, 11.08008
1209.048, 147.0991
1210.129, 126.1050
1211.211, 75.10449
1212.292, 149.1699
1213.373, 266.1309
1214.454, 50.12109
1215.535, 169.0459
1216.616, 285.9561
1217.696, 150.8516
1218.777, 148.7314
1219.857, 185.5967
1220.937, 153.4463
1222.017, 161.2812
1223.096, 106.1006
1224.176, 256.9053
1225.255, 234.6943
1226.334, 166.4668
1227.413, 277.4229
1228.492, 261.2134
1229.570, 118.9399
1230.649, 167.6504
1231.727, 223.3457
1232.805, 299.0244
1233.883, 106.6865
1234.961, 303.9097
1236.038, 195.3696
1237.116, 164.2109
1238.193, 203.8086
1239.270, 111.0771
1240.347, 193.6465
1241.424, 229.5688
1242.500, 85.10596
1243.577, 164.6270
1244.653, 189.1309
1245.729, 216.6191
1246.805, 251.0903
1247.880, 165.5454
1248.956, 254.9868
1250.031, 263.0493
1251.106, 274.2290
1252.181, 115.2466
1253.256, 285.2124
1254.331, 349.5737
1255.405, 123.4893
1256.480, 197.3306
1257.554, 208.5464
1258.628, 235.8560
1259.701, 140.9048
1260.775, 278.2568
1261.849, 213.4727
1262.922, 221.6816
1263.995, 247.3110
1265.068, 206.5298
1266.141, 227.7344
1267.213, 126.9849
1268.286, 240.3657
1269.358, 55.31104
1270.430, 116.0674
1271.502, 111.2939
1272.573, 188.3647
1273.645, 83.71973
1274.716, 504.5957
1275.788, 286.2046
1276.859, 412.4263
1277.929, 65.85498
1279.000, 140.0796
1280.071, 19.99902
1281.141, 126.6880
1282.211, 121.6904
1283.281, 136.5947
1284.351, 163.5737
1285.421, 35.54053
1286.490, 3.494141
1287.559, 81.64014
1288.628, 151.5615
1289.697, 56.88330
1290.766, 181.5190
1291.835, 11.59326
1292.903, 64.26660
1293.972, 173.2910
1295.040, 41.88184
1296.108, 196.2153
1297.175, 154.6641
1298.243, 143.4434
1299.310, 47.21094
1300.377, 31.96338
1301.444, 97.71045
1302.511, 85.54199
1303.578, 87.26807
1304.645, 81.98486
1305.711, 114.6914
1306.777, 166.3877
1307.843, 102.8535
1308.909, 166.5293
1309.975, 185.7549
1311.040, 177.4111
1312.105, 90.05811
1313.171, 135.6953
1314.235, 163.3203
1315.300, 245.6143
1316.365, 180.2207
1317.429, 241.8184
1318.494, 202.7139
1319.558, 129.7158
1320.622, 234.9189
1321.685, 303.4810
1322.749, 214.0347
1323.812, 181.5347
1324.876, 251.0713
1325.939, 165.5996
1327.001, 176.1123
1328.064, 144.5791
1329.127, 231.8809
1330.189, 180.3760
1331.251, 176.4360
1332.313, 69.49365
1333.375, 150.3950
1334.437, 89.85986
1335.498, 141.3013
1336.560, 127.5605
1337.621, 165.9868
1338.682, 41.40625
1339.742, 21.68604
1340.803, 143.0908
1341.863, 32.47998
1342.924, 85.15576
1343.984, 124.5317
1345.044, 153.9014
1346.104, 195.2637
1347.163, 152.6196
1348.222, 108.9697
1349.282, 288.3125
1350.341, 115.6484
1351.400, 210.1079
1352.458, 99.43164
1353.517, 109.7500
1354.575, 47.93848
1355.633, 100.3535
1356.691, 187.7090
1357.749, 252.9946
1358.807, 196.2563
1359.864, 240.5059
1360.922, 123.7500
1361.979, 108.9409
1363.036, 157.1904
1364.092, 74.43604
1365.149, 243.6934
1366.205, 239.9458
1367.262, 175.0205
1368.318, 20.73486
1369.374, 126.4990
1370.429, 58.80029
1371.485, 124.0259
1372.540, 183.2461
1373.596, 130.4619
1374.651, 178.6738
1375.705, 141.4609
1376.760, 116.6646
1377.815, 36.86719
1378.869, 186.0820
1379.923, 100.3794
1380.977, 77.73682
1382.031, 230.6514
1383.085, 9.944336
1384.138, 127.1680
1385.191, 37.41992
1386.244, 90.66895
1387.297, 141.9258
1388.350, 132.2354
1389.403, 181.5234
1390.455, 143.8145
1391.507, 181.1304
1392.559, 157.4346
1393.611, 164.7588
1394.663, 71.08496
1395.714, 47.43164
1396.766, 136.5518
1397.817, 26.94531
1398.868, 51.35547
1399.919, 64.84961
1400.969, 45.71436
1402.020, 94.70898
1403.070, 79.13184
1404.120, 15.44629
1405.170, 54.94580
1406.220, 119.3994
1407.270, 122.3652
1408.319, 82.88379
1409.368, 96.34424
1410.417, 51.85449
1411.466, 54.28467
1412.515, 60.54932
1413.563, 8.039063
1414.612, 87.48730
1415.660, 91.94043
1416.708, 72.43359
1417.756, 119.8809
1418.803, 70.62207
1419.851, 90.13477
1420.898, 103.5156
1421.945, 118.4561
1422.992, 132.9189
1424.039, 205.2354
1425.086, 57.70996
1426.132, 184.3247
1427.178, 139.7217
1428.225, 10.19824
1429.270, 114.6724
1430.316, 76.14697
1431.362, 152.6221
1432.407, 89.04248
1433.452, 156.4453
1434.497, 251.8481
1435.542, 205.5254
1436.587, 107.9014
1437.631, 258.6250
1438.676, 152.8877
1439.720, 208.6870
1440.764, 86.26416
1441.807, 138.8433
1442.851, 261.4302
1443.895, 209.0210
1444.938, 172.6094
1445.981, 187.1963
1447.024, 160.7817
1448.066, 171.3687
1449.109, 316.9663
1450.151, 268.5767
1451.194, 274.1978
1452.236, 232.8208
1453.277, 247.3560
1454.319, 243.9458
1455.361, 257.5923
1456.402, 273.2412
1457.443, 295.2891
1458.484, 285.5464
1459.525, 309.2041
1460.565, 256.0254
1461.606, 159.6528
1462.646, 237.2852
1463.686, 182.9238
1464.726, 161.5679
1465.766, 229.2178
1466.805, 154.1147
1467.845, 261.7480
1468.884, 122.3882
1469.923, 119.0347
1470.962, 192.6821
1472.000, 126.3354
1473.039, 95.99609
1474.077, 157.4639
1475.115, 85.10400
1476.153, 5.749512
1477.191, 111.4004
1478.229, 185.0586
1479.266, 70.72070
1480.303, 56.38867
1481.340, 23.00879
1482.377, 69.68848
1483.414, 84.08008
1484.451, 160.3398
1485.487, 48.95312
1486.523, 109.5752
1487.559, 141.1973
1488.595, 199.8223
1489.631, 36.27441
1490.666, 121.9150
1491.701, 15.42773
1492.736, 158.2451
1493.771, 137.9746
1494.806, 5.303711
1495.841, 46.41895
1496.875, 40.97070
1497.909, 112.6982
1498.943, 92.43262
1499.977, 9.830078
1501.011, 43.90918
1502.045, 173.6592
1503.078, 60.41797
1504.111, 19.17871
1505.144, 9.939453
1506.177, 42.29688
1507.209, 25.46777
1508.242, 56.23242
1509.274, 106.0000
1510.306, 92.76855
1511.338, 100.5361
1512.370, 39.34277
1513.402, 59.19336
1514.433, 61.04688
1515.464, 43.36230
1516.495, 77.82715
1517.526, 41.73633
1518.557, 55.65039
1519.587, 61.57520
1520.617, 113.1357
1521.648, 75.06543
1522.678, 94.81250
1523.707, 35.80957
1524.737, 144.9199
1525.766, 159.0498
1526.796, 111.2041
1527.825, 192.4727
1528.854, 113.5859
1529.882, 74.55859
1530.911, 129.6729
1531.939, 39.53418
1532.967, 182.6035
1533.995, 48.30664
1535.023, 83.12500
1536.051, 162.4443
1537.078, 81.04297
1538.106, 51.51367
1539.133, 46.04688
1540.160, 34.33594
1541.186, 63.06055
1542.213, 84.16211
1543.239, 114.4766
1544.266, 175.2979
1545.292, 146.3779
1546.318, 126.4941
1547.343, 8.459961
1548.369, 87.11133
1549.394, 15.18457
1550.419, 88.91504
1551.444, 130.5791
1552.469, 179.6729
1553.494, 229.4072
1554.518, 229.2656
1555.542, 92.93848
1556.566, 169.2129
1557.590, 143.3525
1558.614, 1.354492
1559.638, 56.89941
1560.661, 0.2285160
1561.684, 145.9609
1562.707, 0.0000000E+00
##END=



