##NAMES=Akermanite
##RRUFFID=R061100
##IDEAL CHEMISTRY=Ca_2_MgSi_2_O_7_
##LOCALITY=Lago de Vico, Viterbo, Italy
##OWNER=Michael Scott
##SOURCE=Michael Scott
##DESCRIPTION=Colorless to white short prismatic crystals
##STATUS=The identification of this mineral has been confirmed by X-ray diffraction and chemical analysis
##URL=rruff.info/R061100
##MEASURED CHEMISTRY=(Ca_1.80_Na_0.20_)_Σ=2_(Mg_0.58_Al_0.38_Fe_0.04_)_Σ=1_(Si_1.82_Al_0.18_)_Σ=2_O_7_
##PIN_ID=M00347
##ORIENTATION=Laser parallel to c* (0 0 1). Fiducial mark perpendicular to laser is parallel to a [1 0 0]
206.6970, 0.0000000E+00
207.9250, 84.09180
209.1530, 5.455078
210.3800, 193.1777
211.6080, 174.0820
212.8350, 547.1973
214.0620, 458.9961
215.2880, 435.2227
216.5150, 722.0547
217.7410, 790.5957
218.9680, 752.2578
220.1940, 1046.666
221.4190, 1201.941
222.6450, 1161.271
223.8700, 1436.525
225.0960, 1377.686
226.3210, 1784.766
227.5450, 1731.461
228.7700, 1567.686
229.9940, 1730.430
231.2190, 1618.885
232.4430, 1533.357
233.6660, 1559.795
234.8900, 1473.771
236.1140, 1356.199
237.3370, 1318.617
238.5600, 1250.271
239.7830, 1148.320
241.0050, 1050.994
242.2280, 949.7891
243.4500, 778.7910
244.6720, 612.0352
245.8940, 727.6211
247.1160, 501.4492
248.3370, 571.2207
249.5580, 426.3457
250.7790, 585.4609
252.0000, 468.3418
253.2210, 410.1855
254.4410, 164.7129
255.6620, 403.1074
256.8820, 200.2148
258.1020, 289.0645
259.3210, 372.3516
260.5410, 289.4668
261.7600, 467.9375
262.9790, 210.0840
264.1980, 91.53125
265.4170, 84.53516
266.6360, 27.84180
267.8540, 125.7344
269.0720, 155.2539
270.2900, 93.21094
271.5080, 222.5176
272.7260, 108.3926
273.9430, 7.353516
275.1600, 143.7305
276.3770, 123.2988
277.5940, 6.611328
278.8100, 268.6777
280.0270, 251.1562
281.2430, 24.30859
282.4590, 38.52539
283.6750, 76.71680
284.8910, 130.0176
286.1060, 171.7949
287.3210, 156.3477
288.5360, 224.5762
289.7510, 249.9492
290.9660, 320.0645
292.1800, 342.7598
293.3950, 442.6895
294.6090, 521.0957
295.8230, 578.1758
297.0360, 699.6914
298.2500, 794.9883
299.4630, 884.1211
300.6760, 928.4844
301.8890, 1064.357
303.1020, 1044.697
304.3150, 1065.084
305.5270, 1133.543
306.7390, 1168.572
307.9510, 1207.070
309.1630, 1231.301
310.3750, 1250.625
311.5860, 1139.750
312.7970, 1115.582
314.0080, 1028.523
315.2190, 1062.377
316.4300, 940.8301
317.6400, 1146.031
318.8510, 1001.168
320.0610, 814.2461
321.2710, 779.2637
322.4800, 453.2207
323.6900, 630.1152
324.8990, 473.9473
326.1080, 521.7109
327.3170, 616.4082
328.5260, 313.0371
329.7340, 487.5977
330.9430, 551.0820
332.1510, 352.4961
333.3590, 299.8398
334.5670, 304.1133
335.7740, 246.3184
336.9820, 138.4590
338.1890, 137.5273
339.3960, 135.5254
340.6030, 193.4590
341.8100, 161.3223
343.0160, 327.1133
344.2220, 261.7109
345.4280, 35.45703
346.6340, 202.9980
347.8400, 86.46289
349.0460, 36.84766
350.2510, 1.849609
351.4560, 10.34766
352.6610, 64.99023
353.8660, 35.50000
355.0700, 286.5742
356.2750, 410.7617
357.4790, 630.9434
358.6830, 971.1016
359.8870, 279.2129
361.0910, 26.73828
362.2940, 50.20508
363.4970, 146.0547
364.7000, 0.8085940
365.9030, 28.55078
367.1060, 19.96094
368.3080, 3.660156
369.5110, 89.57812
370.7130, 39.31445
371.9150, 186.3574
373.1170, 2.585938
374.3180, 194.9570
375.5200, 259.5137
376.7210, 7.722656
377.9220, 91.17188
379.1230, 66.77930
380.3230, 51.39648
381.5240, 81.86133
382.7240, 132.5039
383.9240, 153.9297
385.1240, 26.56055
386.3240, 148.8281
387.5230, 2.714844
388.7230, 22.14453
389.9220, 50.42188
391.1210, 27.42773
392.3200, 38.41406
393.5180, 65.46680
394.7170, 65.23047
395.9150, 80.88281
397.1130, 131.4258
398.3110, 46.14453
399.5080, 113.0371
400.7060, 70.35547
401.9030, 90.02734
403.1000, 19.93555
404.2970, 21.73633
405.4940, 105.4297
406.6910, 65.97461
407.8870, 31.29688
409.0830, 149.9551
410.2790, 100.2227
411.4750, 166.7285
412.6710, 16.16016
413.8660, 188.6074
415.0610, 188.2539
416.2560, 237.7598
417.4510, 326.6621
418.6460, 233.6699
419.8410, 285.5039
421.0350, 494.1270
422.2290, 384.7695
423.4230, 444.7324
424.6170, 787.4844
425.8100, 475.8887
427.0040, 677.3613
428.1970, 759.0859
429.3900, 717.9434
430.5830, 1025.855
431.7760, 1070.539
432.9680, 1240.381
434.1610, 1354.984
435.3530, 1593.568
436.5450, 1379.893
437.7360, 1849.457
438.9280, 1623.975
440.1190, 1766.273
441.3110, 1821.408
442.5020, 2043.463
443.6930, 2151.432
444.8830, 2229.318
446.0740, 2525.143
447.2640, 2580.889
448.4540, 2758.486
449.6440, 2939.027
450.8340, 2992.516
452.0240, 3232.918
453.2130, 3295.279
454.4020, 3688.494
455.5910, 3469.721
456.7800, 3539.916
457.9690, 3612.084
459.1570, 3009.227
460.3460, 3015.352
461.5340, 2995.459
462.7220, 2572.543
463.9090, 2486.609
465.0970, 2531.656
466.2840, 2443.217
467.4720, 2422.230
468.6590, 2283.887
469.8460, 2328.738
471.0320, 2302.264
472.2190, 2336.707
473.4050, 2363.414
474.5910, 2488.391
475.7770, 2591.549
476.9630, 2664.484
478.1490, 2725.434
479.3340, 2886.141
480.5190, 2736.074
481.7040, 2994.021
482.8890, 3112.961
484.0740, 2923.393
485.2580, 3057.566
486.4430, 2984.605
487.6270, 2829.400
488.8110, 2926.025
489.9950, 2739.598
491.1780, 2471.197
492.3620, 2106.025
493.5450, 2266.168
494.7280, 2317.150
495.9110, 2270.531
497.0940, 1939.416
498.2760, 1671.320
499.4590, 1805.721
500.6410, 1706.547
501.8230, 1636.338
503.0050, 1596.145
504.1860, 1495.342
505.3680, 1504.053
506.5490, 1381.104
507.7300, 1219.521
508.9110, 1245.090
510.0920, 1102.508
511.2730, 1379.699
512.4530, 1376.201
513.6330, 1222.111
514.8130, 1106.783
515.9930, 1154.979
517.1730, 1167.129
518.3520, 1131.293
519.5320, 1262.205
520.7110, 1182.932
521.8900, 1128.111
523.0690, 1234.340
524.2470, 1184.664
525.4260, 1081.807
526.6040, 1091.662
527.7820, 993.5293
528.9600, 891.7285
530.1380, 696.4512
531.3150, 934.9434
532.4930, 903.8477
533.6700, 763.7285
534.8470, 689.9336
536.0240, 510.0215
537.2000, 645.0938
538.3770, 669.2832
539.5530, 495.8809
540.7290, 646.6855
541.9050, 665.3086
543.0810, 545.6348
544.2570, 491.8379
545.4320, 566.2676
546.6080, 487.7305
547.7830, 701.0332
548.9580, 479.7617
550.1320, 431.3477
551.3070, 570.9609
552.4810, 273.8105
553.6550, 471.5215
554.8300, 351.0137
556.0030, 416.8027
557.1770, 279.6289
558.3510, 411.6562
559.5240, 352.0469
560.6970, 322.0488
561.8700, 441.2598
563.0430, 418.2871
564.2160, 446.9082
565.3880, 553.7754
566.5600, 267.7695
567.7320, 514.7559
568.9040, 330.7363
570.0760, 424.7090
571.2480, 381.6758
572.4190, 461.6309
573.5900, 433.5801
574.7610, 493.5176
575.9320, 516.4785
577.1030, 529.8828
578.2740, 549.2871
579.4440, 605.1973
580.6140, 583.0977
581.7840, 678.9902
582.9540, 831.8789
584.1240, 750.7617
585.2930, 892.6387
586.4630, 858.5098
587.6320, 967.8770
588.8010, 1115.236
589.9700, 1216.092
591.1380, 1347.945
592.3070, 1514.793
593.4750, 1908.637
594.6430, 1845.477
595.8110, 2241.451
596.9790, 2350.283
598.1460, 2475.348
599.3140, 2855.176
600.4810, 3293.488
601.6480, 3483.377
602.8150, 3951.197
603.9820, 4567.014
605.1480, 4582.156
606.3150, 5248.361
607.4810, 5555.350
608.6470, 6151.391
609.8130, 6214.193
610.9790, 7015.660
612.1440, 7503.559
613.3100, 8007.992
614.4750, 8644.523
615.6400, 8840.742
616.8050, 9241.404
617.9690, 9565.910
619.1340, 10289.48
620.2980, 10608.65
621.4620, 11167.49
622.6260, 11654.91
623.7900, 11898.37
624.9540, 12172.52
626.1170, 12092.32
627.2810, 12238.79
628.4440, 11722.77
629.6070, 11437.96
630.7690, 10903.56
631.9320, 10753.68
633.0950, 10130.60
634.2570, 9929.898
635.4190, 9283.738
636.5810, 8697.496
637.7430, 8318.379
638.9040, 7859.969
640.0660, 7803.055
641.2270, 7702.418
642.3880, 7161.900
643.5490, 7048.582
644.7100, 7292.164
645.8700, 7550.600
647.0310, 7638.650
648.1910, 8405.953
649.3510, 8872.258
650.5110, 10084.63
651.6710, 11516.50
652.8300, 13024.13
653.9900, 14420.92
655.1490, 16261.34
656.3080, 17951.40
657.4670, 19389.52
658.6250, 21160.91
659.7840, 22299.74
660.9420, 23317.27
662.1010, 24177.52
663.2590, 24308.75
664.4170, 24400.13
665.5740, 24098.19
666.7320, 23280.81
667.8890, 22461.45
669.0460, 21075.36
670.2030, 19910.67
671.3600, 18421.16
672.5170, 16829.69
673.6740, 15210.99
674.8300, 14060.53
675.9860, 12543.84
677.1420, 11358.66
678.2980, 10406.96
679.4540, 8991.256
680.6090, 8220.570
681.7650, 7157.158
682.9200, 6509.865
684.0750, 5747.215
685.2300, 5181.562
686.3840, 4577.908
687.5390, 4059.732
688.6930, 3564.086
689.8470, 3598.438
691.0010, 3089.781
692.1550, 2781.342
693.3090, 2629.701
694.4620, 2251.055
695.6160, 2158.398
696.7690, 1886.791
697.9220, 1915.113
699.0750, 2072.424
700.2280, 1638.721
701.3800, 1361.006
702.5320, 1563.273
703.6850, 1392.531
704.8370, 1146.770
705.9880, 1168.996
707.1400, 1159.205
708.2920, 1168.396
709.4430, 1074.572
710.5940, 960.7324
711.7450, 1006.877
712.8960, 684.0059
714.0470, 835.1191
715.1970, 583.2129
716.3480, 711.2930
717.4980, 564.3574
718.6480, 517.4023
719.7980, 582.4336
720.9470, 576.4492
722.0970, 550.4453
723.2460, 465.4258
724.3960, 397.3887
725.5450, 431.3379
726.6940, 331.0566
727.8420, 191.1816
728.9910, 229.0781
730.1390, 235.9590
731.2870, 233.3711
732.4350, 225.6680
733.5830, 156.4980
734.7310, 216.3105
735.8790, 134.1074
737.0260, 256.8809
738.1730, 74.64062
739.3200, 175.3789
740.4670, 239.0996
741.6140, 191.8027
742.7610, 114.4902
743.9070, 97.15820
745.0530, 150.8066
746.1990, 86.56445
747.3450, 202.9902
748.4910, 35.52930
749.6370, 50.95508
750.7820, 43.50586
751.9270, 44.05859
753.0720, 22.67383
754.2170, 5.669922
755.3620, 24.98438
756.5070, 10.54688
757.6510, 105.5430
758.7950, 30.20703
759.9400, 49.99219
761.0840, 40.16797
762.2270, 112.3242
763.3710, 367.4609
764.5140, 85.42188
765.6580, 77.37891
766.8010, 108.5918
767.9440, 22.46094
769.0870, 124.4434
770.2290, 174.3242
771.3720, 95.80859
772.5140, 207.9727
773.6560, 86.26367
774.7990, 151.5762
775.9400, 51.00586
777.0820, 186.2656
778.2240, 0.8808590
779.3650, 112.7754
780.5060, 195.5273
781.6470, 19.58203
782.7880, 54.66797
783.9290, 145.7324
785.0690, 61.22461
786.2100, 204.2461
787.3500, 189.4141
788.4900, 247.2852
789.6300, 18.03320
790.7700, 36.39258
791.9090, 13.81250
793.0490, 167.2715
794.1880, 294.8535
795.3270, 118.3730
796.4660, 66.42188
797.6050, 93.71094
798.7440, 89.17578
799.8820, 9.146484
801.0200, 134.8438
802.1590, 197.1875
803.2970, 14.35742
804.4340, 88.43164
805.5720, 34.19531
806.7100, 330.9375
807.8470, 128.6621
808.9840, 61.63672
810.1210, 326.0020
811.2580, 14.37695
812.3950, 249.1992
813.5310, 48.75781
814.6680, 266.2969
815.8040, 198.8164
816.9400, 281.3145
818.0760, 104.7969
819.2120, 80.25586
820.3470, 192.6973
821.4830, 333.1172
822.6180, 208.5195
823.7530, 41.90430
824.8880, 165.2656
826.0230, 169.6094
827.1580, 164.9355
828.2920, 105.2402
829.4270, 159.5273
830.5610, 292.7969
831.6950, 244.0469
832.8290, 132.2773
833.9620, 350.4980
835.0960, 299.6992
836.2290, 543.8809
837.3620, 549.0469
838.4950, 358.1953
839.6280, 561.3262
840.7610, 694.4395
841.8940, 736.5352
843.0260, 699.6133
844.1580, 827.6758
845.2910, 780.7207
846.4230, 872.5391
847.5540, 1068.781
848.6860, 1017.801
849.8170, 1215.803
850.9490, 1277.787
852.0800, 1409.756
853.2110, 1470.711
854.3420, 1528.646
855.4730, 1785.564
856.6030, 1953.471
857.7340, 2126.359
858.8640, 2173.232
859.9940, 2356.092
861.1240, 2356.932
862.2540, 2737.762
863.3830, 2801.574
864.5130, 2792.371
865.6420, 3069.154
866.7710, 3080.934
867.9000, 2951.740
869.0290, 2772.551
870.1570, 2690.240
871.2860, 2527.053
872.4140, 2570.613
873.5430, 2459.398
874.6710, 2267.738
875.7980, 2335.508
876.9260, 2420.330
878.0540, 2283.139
879.1810, 2455.609
880.3080, 2811.992
881.4360, 2837.584
882.5630, 3063.121
883.6890, 3563.893
884.8160, 4153.008
885.9420, 4532.701
887.0690, 4860.904
888.1950, 5225.998
889.3210, 5568.393
890.4470, 5858.334
891.5730, 6084.555
892.6980, 6391.496
893.8240, 6477.938
894.9490, 6752.730
896.0740, 7013.951
897.1990, 7275.117
898.3240, 7801.584
899.4480, 8321.398
900.5730, 8977.543
901.6970, 9703.156
902.8210, 10849.57
903.9450, 12059.60
905.0690, 13123.11
906.1930, 14613.81
907.3160, 16103.18
908.4400, 17990.01
909.5630, 19765.92
910.6860, 20549.70
911.8090, 22339.78
912.9320, 23250.34
914.0550, 24157.61
915.1770, 24457.78
916.2990, 24552.75
917.4210, 24374.83
918.5440, 24200.07
919.6650, 23968.12
920.7870, 23463.04
921.9090, 23193.43
923.0300, 22444.75
924.1510, 21842.57
925.2720, 21111.64
926.3930, 19664.57
927.5140, 19249.91
928.6350, 17422.63
929.7550, 15841.36
930.8760, 14665.89
931.9960, 13750.98
933.1160, 11910.42
934.2360, 10861.12
935.3550, 10223.88
936.4750, 9147.523
937.5940, 8456.529
938.7140, 7941.031
939.8330, 6845.535
940.9520, 6670.838
942.0710, 6057.750
943.1890, 5535.908
944.3080, 5271.609
945.4260, 5031.541
946.5440, 4778.260
947.6620, 4503.211
948.7800, 4181.652
949.8980, 4072.611
951.0160, 3894.580
952.1330, 3737.551
953.2500, 3724.277
954.3680, 3675.916
955.4850, 3417.912
956.6010, 3425.914
957.7180, 3329.926
958.8350, 3076.455
959.9510, 2949.479
961.0670, 2823.510
962.1830, 2875.545
963.2990, 2733.395
964.4150, 2757.445
965.5310, 2644.061
966.6460, 2456.572
967.7620, 2428.367
968.8770, 2112.449
969.9920, 2007.648
971.1070, 1910.746
972.2210, 1766.850
973.3360, 1510.965
974.4500, 1664.086
975.5650, 1455.215
976.6790, 1606.352
977.7930, 1610.498
978.9070, 1262.652
980.0200, 1634.898
981.1340, 1179.945
982.2470, 1312.295
983.3610, 1405.535
984.4740, 1345.730
985.5870, 1272.934
986.6990, 1297.781
987.8120, 1164.373
988.9250, 1193.605
990.0370, 1324.844
991.1490, 1149.092
992.2610, 1469.348
993.3730, 1231.607
994.4850, 1336.145
995.5960, 1306.420
996.7080, 1227.705
997.8190, 1079.002
998.9300, 1006.309
1000.041, 948.2637
1001.152, 854.8730
1002.263, 935.7070
1003.373, 1007.410
1004.484, 1138.760
1005.594, 738.1172
1006.704, 1033.674
1007.814, 1016.803
1008.924, 762.8965
1010.034, 827.3418
1011.143, 759.7324
1012.253, 976.4707
1013.362, 794.8750
1014.471, 722.4023
1015.580, 899.5508
1016.689, 756.3574
1017.797, 876.7988
1018.906, 910.6133
1020.014, 905.3301
1021.122, 945.4961
1022.230, 883.0176
1023.338, 769.1836
1024.446, 788.0156
1025.554, 474.6660
1026.661, 883.4453
1027.768, 500.0039
1028.875, 835.8730
1029.983, 614.6641
1031.089, 803.8809
1032.196, 630.5684
1033.303, 724.8574
1034.409, 546.5801
1035.515, 764.3320
1036.622, 584.1719
1037.728, 582.0547
1038.833, 574.9688
1039.939, 495.5469
1041.045, 440.7188
1042.150, 457.5312
1043.255, 420.7383
1044.360, 429.6309
1045.465, 415.1172
1046.570, 524.0938
1047.675, 509.5508
1048.779, 712.1992
1049.884, 513.6133
1050.988, 300.9023
1052.092, 396.1230
1053.196, 262.2148
1054.300, 287.7090
1055.404, 333.5078
1056.507, 406.0508
1057.610, 311.3770
1058.714, 463.6230
1059.817, 527.8887
1060.920, 333.9219
1062.022, 300.2520
1063.125, 178.6660
1064.228, 303.4062
1065.330, 559.8438
1066.432, 287.3965
1067.534, 274.0449
1068.636, 581.8027
1069.738, 391.1582
1070.840, 222.9805
1071.941, 339.5391
1073.042, 190.0859
1074.144, 459.6309
1075.245, 22.83008
1076.346, 187.7031
1077.446, 334.7090
1078.547, 390.2578
1079.647, 505.0664
1080.748, 514.3691
1081.848, 580.7910
1082.948, 423.3359
1084.048, 370.0469
1085.148, 147.6875
1086.247, 209.2188
1087.347, 254.5508
1088.446, 368.0781
1089.545, 434.7891
1090.644, 232.3047
1091.743, 261.8203
1092.842, 173.5195
1093.940, 286.0195
1095.039, 438.8672
1096.137, 264.3594
1097.235, 376.8477
1098.333, 94.98438
1099.431, 22.36328
1100.529, 77.09375
1101.627, 15.55469
1102.724, 43.99609
1103.822, 167.4336
1104.919, 205.6133
1106.016, 162.0352
1107.113, 332.4492
1108.209, 252.8555
1109.306, 92.83594
1110.402, 112.2812
1111.499, 38.76562
1112.595, 87.37500
1113.691, 21.25781
1114.787, 50.86328
1115.883, 109.1836
1116.978, 264.9453
1118.074, 269.9492
1119.169, 324.5469
1120.264, 330.8672
1121.359, 239.1758
1122.454, 81.47656
1123.549, 191.7656
1124.644, 83.04297
1125.738, 18.31641
1126.832, 104.8633
1127.927, 128.8203
1129.021, 151.0039
1130.115, 92.52344
1131.208, 30.93359
1132.302, 148.1094
1133.396, 49.78125
1134.489, 110.7344
1135.582, 190.7266
1136.675, 202.3242
1137.768, 56.26953
1138.861, 193.7969
1139.954, 80.98828
1141.046, 92.76172
1142.138, 256.6641
1143.231, 29.39062
1144.323, 195.1016
1145.415, 85.80078
1146.507, 45.51562
1147.598, 4.878906
1148.690, 64.26172
1149.781, 97.70703
1150.872, 182.2266
1151.964, 10.73047
1153.054, 151.4609
1154.145, 23.71484
1155.236, 25.74609
1156.327, 38.17969
1157.417, 114.2578
1158.507, 97.19531
1159.597, 100.8906
1160.687, 121.9688
1161.777, 34.03125
1162.867, 197.0703
1163.956, 6.109375
1165.046, 162.3828
1166.135, 171.3711
1167.224, 112.6562
1168.313, 130.2188
1169.402, 125.2695
1170.491, 96.85938
1171.580, 170.1484
1172.668, 392.8906
1173.756, 204.6133
1174.845, 25.32422
1175.933, 174.0039
1177.020, 240.6641
1178.108, 67.68750
1179.196, 6.117188
1180.283, 89.41016
1181.371, 119.9102
1182.458, 138.3984
1183.545, 353.8672
1184.632, 215.3086
1185.719, 408.7383
1186.805, 99.14062
1187.892, 152.5312
1188.978, 403.8984
1190.065, 176.2422
1191.151, 36.56641
1192.237, 327.8594
1193.323, 276.1367
1194.408, 100.3906
1195.494, 327.6250
1196.579, 152.8359
1197.664, 5.023438
1198.750, 115.1680
1199.835, 34.29297
1200.919, 114.3789
1202.004, 7.554688
1203.089, 7.218750
1204.173, 191.7461
1205.258, 301.7578
1206.342, 205.2422
1207.426, 79.14062
1208.510, 211.0195
1209.594, 39.87109
1210.677, 235.6953
1211.761, 164.0703
1212.844, 193.8008
1213.927, 151.2148
1215.010, 167.9492
1216.093, 240.6523
1217.176, 39.33594
1218.259, 396.9922
1219.341, 148.6289
1220.424, 235.3203
1221.506, 357.3164
1222.588, 149.8828
1223.670, 270.6328
1224.752, 114.1484
1225.834, 284.6367
1226.915, 299.1016
1227.997, 46.54688
1229.078, 154.9570
1230.159, 267.5703
1231.240, 197.1172
1232.321, 413.5312
1233.402, 239.8555
1234.483, 41.16016
1235.563, 338.4258
1236.644, 416.6758
1237.724, 225.8984
1238.804, 63.25781
1239.884, 190.4375
1240.964, 61.76172
1242.044, 563.6680
1243.123, 124.9219
1244.203, 130.8516
1245.282, 350.1211
1246.361, 98.17969
1247.440, 53.58203
1248.519, 147.5977
1249.598, 323.5820
1250.676, 374.5430
1251.755, 354.4883
1252.833, 349.4570
1253.911, 233.3516
1254.989, 358.4453
1256.067, 324.1797
1257.145, 404.0117
1258.223, 37.82031
1259.300, 146.7109
1260.378, 137.4648
1261.455, 61.95703
1262.532, 149.0430
1263.609, 299.2227
1264.686, 78.51953
1265.763, 45.43750
1266.840, 493.0508
1267.916, 465.4492
1268.992, 300.2656
1270.069, 299.0977
1271.145, 141.5703
1272.221, 404.2969
1273.296, 250.4531
1274.372, 357.9258
1275.448, 400.2734
1276.523, 513.9844
1277.598, 285.7344
1278.673, 188.1875
1279.749, 253.4531
1280.823, 16.36328
1281.898, 64.04297
1282.973, 40.36719
1284.047, 241.9570
1285.122, 11.98047
1286.196, 58.91406
1287.270, 62.04688
1288.344, 273.2148
1289.418, 302.0391
1290.491, 277.9688
1291.565, 222.4648
1292.638, 206.8906
1293.712, 83.29297
1294.785, 235.2852
1295.858, 348.2617
1296.931, 164.8828
1298.003, 95.72266
1299.076, 132.5234
1300.149, 72.28516
1301.221, 240.8203
1302.293, 284.1680
1303.365, 392.1680
1304.437, 374.1211
1305.509, 239.9922
1306.581, 371.2891
1307.652, 199.6836
1308.724, 172.9023
1309.795, 300.4062
1310.866, 321.0391
1311.937, 247.7344
1313.008, 381.5586
1314.079, 323.3203
1315.150, 231.0703
1316.220, 237.5039
1317.291, 305.1406
1318.361, 313.8594
1319.431, 387.0469
1320.501, 386.5039
1321.571, 485.1875
1322.641, 230.8633
1323.710, 154.1953
1324.780, 213.8516
1325.849, 324.3789
1326.918, 219.8320
1327.987, 207.1758
1329.056, 431.9102
1330.125, 493.2305
1331.194, 48.81250
1332.263, 457.3984
1333.331, 105.9727
1334.399, 442.5430
1335.467, 527.1055
1336.535, 171.2188
1337.603, 468.7656
1338.671, 216.5391
1339.739, 392.0664
1340.806, 78.48047
1341.874, 447.0000
1342.941, 262.3398
1344.008, 305.7148
1345.075, 338.1367
1346.142, 131.7539
1347.209, 128.1680
1348.275, 103.4570
1349.342, 25.94922
1350.408, 142.3203
1351.475, 73.51172
1352.541, 196.8828
1353.607, 177.1719
1354.673, 394.2617
1355.738, 228.6172
1356.804, 183.3086
1357.869, 331.4609
1358.935, 83.80078
1360.000, 82.12109
1361.065, 340.5547
1362.130, 217.8750
1363.195, 480.4375
1364.259, 222.7500
1365.324, 379.1562
1366.388, 89.44531
1367.453, 214.1836
1368.517, 350.5898
1369.581, 132.0273
1370.645, 476.5156
1371.709, 282.4688
1372.772, 118.4648
1373.836, 262.4102
1374.899, 154.6016
1375.963, 225.8711
1377.026, 147.7969
1378.089, 323.9961
1379.152, 208.1914
1380.214, 121.3945
1381.277, 482.5859
1382.340, 81.78516
1383.402, 99.98438
1384.464, 520.6953
1385.526, 206.8945
1386.588, 108.3477
1387.650, 197.5391
1388.712, 119.4141
1389.774, 176.3711
1390.835, 316.3945
1391.896, 263.6758
1392.958, 70.49219
1394.019, 406.1055
1395.080, 275.4258
1396.141, 240.7539
1397.201, 346.1406
1398.262, 145.5625
1399.323, 26.18359
1400.383, 286.4727
1401.443, 650.5547
1402.503, 429.2656
1403.563, 247.7227
1404.623, 3.585938
1405.683, 140.0000
1406.742, 256.4375
1407.802, 156.8984
1408.861, 248.7930
1409.920, 408.2031
1410.980, 329.2227
1412.039, 146.3047
1413.097, 233.6680
1414.156, 211.5664
1415.215, 262.7930
1416.273, 82.57422
1417.331, 249.7070
1418.390, 243.3281
1419.448, 68.03125
1420.506, 297.7812
1421.564, 151.0820
1422.621, 402.8320
1423.679, 7.515625
1424.736, 266.8711
1425.794, 332.8477
1426.851, 177.8633
1427.908, 8.132813
1428.965, 50.61719
1430.022, 133.7266
1431.079, 204.9609
1432.135, 274.7031
1433.192, 60.16016
1434.248, 163.5781
1435.304, 431.4336
1436.360, 186.7188
1437.416, 345.6719
1438.472, 409.8125
1439.528, 181.1719
1440.583, 215.3867
1441.639, 313.2422
1442.694, 529.1016
1443.749, 395.9609
1444.804, 417.8281
1445.859, 365.7031
1446.914, 326.5820
1447.969, 425.4883
1449.024, 341.2383
1450.078, 379.0430
1451.132, 281.9648
1452.187, 291.9648
1453.241, 287.9766
1454.295, 430.7969
1455.349, 473.8320
1456.402, 474.8789
1457.456, 539.9531
1458.509, 319.4531
1459.563, 325.2930
1460.616, 322.3984
1461.669, 389.5234
1462.722, 206.6641
1463.775, 313.3867
1464.828, 261.5547
1465.880, 347.7578
1466.933, 356.7695
1467.985, 345.9844
1469.037, 447.1836
1470.090, 445.5547
1471.142, 462.9648
1472.193, 298.0352
1473.245, 459.1133
1474.297, 287.1406
1475.348, 176.7461
1476.400, 386.8750
1477.451, 342.8711
1478.502, 436.9492
1479.553, 403.1562
1480.604, 257.9727
1481.655, 338.2148
1482.706, 232.4805
1483.756, 509.9258
1484.807, 441.1992
1485.857, 340.4102
1486.907, 209.6562
1487.957, 254.7578
1489.007, 266.3086
1490.057, 339.8945
1491.106, 222.5547
1492.156, 250.2148
1493.205, 231.6914
1494.255, 109.7344
1495.304, 63.53906
1496.353, 13.88281
1497.402, 447.5781
1498.451, 234.1328
1499.500, 108.6992
1500.548, 213.4023
1501.597, 44.04688
1502.645, 446.4492
1503.693, 317.0273
1504.741, 285.7383
1505.789, 274.4688
1506.837, 355.2266
1507.885, 436.0117
1508.932, 336.8281
1509.980, 163.6758
1511.027, 294.5469
1512.075, 244.4531
1513.122, 226.3945
1514.169, 416.3711
1515.216, 209.3398
1516.262, 461.3828
1517.309, 309.4531
1518.356, 530.6367
1519.402, 90.17188
1520.448, 431.7656
1521.495, 380.9648
1522.541, 428.6914
1523.587, 378.4883
1524.632, 404.3633
1525.678, 284.3594
1526.724, 187.1094
1527.769, 283.2930
1528.814, 417.2344
1529.860, 305.5977
1530.905, 310.5898
1531.950, 417.4023
1532.995, 419.9961
1534.039, 445.0273
1535.084, 295.2344
1536.128, 459.5312
1537.173, 322.9258
1538.217, 287.1250
1539.261, 317.7148
1540.305, 152.9023
1541.349, 537.5898
1542.393, 253.2383
1543.436, 606.7656
1544.480, 571.3281
1545.523, 150.9297
1546.567, 214.9453
1547.610, 420.4766
1548.653, 474.4609
1549.696, 299.9492
1550.739, 366.7148
1551.781, 407.9531
1552.824, 313.7383
1553.867, 329.5938
1554.909, 429.1484
1555.951, 405.0430
1556.993, 527.1953
1558.035, 367.2188
1559.077, 383.7500
1560.119, 265.9023
1561.161, 399.1250
1562.202, 7.910156
1563.243, 546.0781
1564.285, 1.492188
1565.326, 0.0000000E+00
##END=



