##NAMES=Akermanite
##RRUFFID=R061085
##IDEAL CHEMISTRY=Ca_2_MgSi_2_O_7_
##LOCALITY=Kovdor, Kola Peninsula, Russia
##OWNER=Michael Scott
##SOURCE=Michael Scott
##DESCRIPTION=Dark blue coarsely crystalline massive associated with green diopside
##STATUS=The identification of this mineral has been confirmed by X-ray diffraction and chemical analysis
##URL=rruff.info/R061085
##MEASURED CHEMISTRY=(Ca_1.78_Na_0.22_)_Σ=2_(Mg_0.70_Al_0.22_Fe^2+^_0.08_)_Σ=1_Si_2.00_O_7_
##PIN_ID=M00203
##ORIENTATION=Laser parallel to a* (1 0 0). Fiducial mark perpendicular to laser is parallel to c [0 0 1]
148.9510, 0.0000000E+00
150.1770, 21.95312
151.4020, 57.87598
152.6270, 15.84644
153.8520, 44.85327
155.0760, 98.45117
156.3010, 79.18628
157.5250, 62.58887
158.7500, 76.15137
159.9740, 89.40625
161.1980, 72.44043
162.4220, 58.72461
163.6450, 99.01489
164.8690, 68.60571
166.0920, 27.47070
167.3160, 46.59546
168.5390, 8.971924
169.7620, 8.583496
170.9850, 16.59058
172.2080, 36.57251
173.4300, 7.615723
174.6530, 20.28955
175.8750, 47.42261
177.0970, 79.00562
178.3190, 57.69263
179.5410, 26.48706
180.7630, 52.39233
181.9850, 72.41040
183.2060, 159.5486
184.4270, 190.8286
185.6490, 241.2612
186.8700, 224.8286
188.0910, 327.5100
189.3110, 272.2854
190.5320, 359.1382
191.7530, 404.0530
192.9730, 416.0154
194.1930, 421.0151
195.4130, 507.0442
196.6330, 499.0952
197.8530, 587.1614
199.0730, 600.2368
200.2920, 552.3174
201.5120, 624.3979
202.7310, 669.4746
203.9500, 719.5447
205.1690, 657.6143
206.3880, 835.7134
207.6070, 812.8838
208.8250, 929.1785
210.0440, 1023.579
211.2620, 1084.054
212.4800, 1190.604
213.6980, 1330.250
214.9160, 1397.949
216.1340, 1496.738
217.3510, 1516.967
218.5690, 1608.322
219.7860, 1684.929
221.0030, 1644.682
222.2200, 1737.408
223.4370, 1776.079
224.6540, 1733.683
225.8700, 1741.216
227.0870, 1756.677
228.3030, 1637.064
229.5190, 1634.379
230.7350, 1532.623
231.9510, 1422.799
233.1670, 1428.897
234.3820, 1331.888
235.5980, 1311.819
236.8130, 1220.695
238.0280, 1128.517
239.2430, 1010.285
240.4580, 989.0020
241.6730, 965.6694
242.8880, 912.2874
244.1020, 863.8574
245.3160, 771.3804
246.5300, 858.8572
247.7450, 795.2886
248.9580, 732.6755
250.1720, 799.0183
251.3860, 742.3179
252.5990, 777.5747
253.8130, 744.7898
255.0260, 763.9629
256.2390, 738.0950
257.4520, 753.1858
258.6640, 860.2363
259.8770, 930.4370
261.0890, 779.9023
262.3020, 686.8062
263.5140, 764.2402
264.7260, 743.6458
265.9380, 808.0347
267.1500, 764.4160
268.3610, 781.0237
269.5730, 741.6560
270.7840, 755.6992
271.9950, 796.0994
273.2060, 761.5396
274.4170, 792.3809
275.6280, 877.8330
276.8390, 843.8843
278.0490, 853.6660
279.2590, 919.1538
280.4690, 858.6843
281.6800, 978.5237
282.8890, 1026.337
284.0990, 1049.962
285.3090, 1160.103
286.5180, 1196.752
287.7280, 1342.041
288.9370, 1378.548
290.1460, 1521.037
291.3550, 1571.446
292.5630, 1661.141
293.7720, 1850.573
294.9800, 1900.894
296.1890, 2063.202
297.3970, 2293.228
298.6050, 2410.040
299.8130, 2567.742
301.0200, 2701.288
302.2280, 2848.796
303.4360, 2978.404
304.6430, 3170.654
305.8500, 3210.966
307.0570, 3309.144
308.2640, 3380.323
309.4710, 3401.503
310.6770, 3282.682
311.8840, 3307.805
313.0900, 3105.979
314.2960, 3042.004
315.5020, 2857.042
316.7080, 2809.884
317.9140, 2585.544
319.1190, 2380.597
320.3250, 2187.699
321.5300, 1994.821
322.7350, 1832.544
323.9400, 1758.031
325.1450, 1580.119
326.3500, 1396.194
327.5540, 1388.256
328.7580, 1241.304
329.9630, 1127.338
331.1670, 1052.356
332.3710, 946.9415
333.5750, 841.3445
334.7780, 804.3135
335.9820, 781.2649
337.1850, 747.1985
338.3880, 685.1143
339.5920, 643.0120
340.7950, 613.8914
341.9970, 554.7518
343.2000, 541.5940
344.4030, 539.4177
345.6050, 470.2227
346.8070, 488.0088
348.0090, 401.7762
349.2110, 461.5253
350.4130, 416.2554
351.6150, 389.9666
352.8160, 388.6589
354.0170, 411.3313
355.2190, 365.9836
356.4200, 412.6156
357.6210, 344.2267
358.8210, 376.8165
360.0220, 374.3850
361.2220, 360.9312
362.4230, 309.4539
363.6230, 316.9524
364.8230, 258.4257
366.0230, 295.8728
367.2230, 293.2943
368.4220, 185.6903
369.6220, 159.0608
370.8210, 126.4060
372.0200, 161.7256
373.2190, 81.02063
374.4180, 116.2898
375.6170, 60.53418
376.8150, 52.75305
378.0140, 77.94617
379.2120, 35.11511
380.4100, 33.25854
381.6080, 7.623169
382.8060, 15.46387
384.0040, 10.52466
385.2010, 22.44092
386.3980, 13.55920
387.5960, 35.53357
388.7930, 21.48376
389.9900, 19.59082
391.1870, 17.30151
392.3830, 16.16895
393.5800, 49.01196
394.7760, 40.36401
395.9720, 5.370972
397.1680, 15.39734
398.3640, 7.141479
399.5600, 17.13965
400.7560, 12.54822
401.9510, 28.78821
403.1460, 17.84143
404.3420, 59.44678
405.5370, 20.02869
406.7320, 13.41650
407.9260, 37.10217
409.1210, 14.40759
410.3150, 28.03687
411.5100, 22.55212
412.7040, 46.19409
413.8980, 7.881958
415.0920, 63.61682
416.2850, 29.40088
417.4790, 72.23059
418.6720, 8.114380
419.8650, 45.04272
421.0590, 28.02759
422.2510, 66.04980
423.4440, 62.12744
424.6370, 60.69263
425.8290, 65.37292
427.0220, 49.74451
428.2140, 58.10168
429.4060, 45.52417
430.5980, 57.01892
431.7900, 49.59583
432.9810, 17.75037
434.1730, 10.96045
435.3640, 10.26697
436.5550, 23.53381
437.7460, 38.62622
438.9370, 39.76208
440.1280, 87.87402
441.3190, 129.9641
442.5090, 147.0343
443.6990, 170.0852
444.8890, 167.1178
446.0790, 211.1322
447.2690, 210.1289
448.4590, 253.1080
449.6480, 268.0697
450.8380, 370.0146
452.0270, 377.9431
453.2160, 409.8545
454.4050, 385.7493
455.5940, 489.6273
456.7820, 487.4885
457.9710, 548.3335
459.1590, 605.1621
460.3470, 699.9797
461.5350, 701.7910
462.7230, 720.5859
463.9110, 748.3638
465.0990, 836.1252
466.2860, 884.8696
467.4730, 915.5972
468.6600, 984.3086
469.8470, 1014.468
471.0340, 1118.681
472.2210, 1082.344
473.4070, 1175.992
474.5940, 1196.626
475.7800, 1286.248
476.9660, 1233.860
478.1520, 1302.461
479.3380, 1307.056
480.5230, 1300.648
481.7090, 1311.238
482.8940, 1284.915
484.0790, 1208.419
485.2650, 1201.999
486.4490, 1131.571
487.6340, 1021.134
488.8190, 1004.692
490.0030, 988.2537
491.1870, 895.8110
492.3720, 922.3683
493.5550, 858.9338
494.7390, 718.4890
495.9230, 719.0461
497.1060, 695.6136
498.2900, 631.1855
499.4730, 649.7578
500.6560, 607.3414
501.8390, 535.9338
503.0220, 542.5178
504.2040, 575.1156
505.3870, 585.7087
506.5690, 589.3264
507.7510, 560.9564
508.9330, 614.5913
510.1150, 578.2329
511.2970, 587.8584
512.4780, 569.3751
513.6600, 565.9966
514.8410, 553.3037
516.0220, 566.5063
517.2030, 552.8577
518.3840, 552.9489
519.5650, 504.9753
520.7450, 485.8746
521.9250, 462.4160
523.1060, 420.8988
524.2860, 393.4446
525.4660, 372.0426
526.6450, 303.5337
527.8250, 347.1273
529.0040, 325.6572
530.1840, 237.4612
531.3630, 223.0879
532.5420, 247.8264
533.7200, 217.3723
534.8990, 219.8879
536.0780, 212.7406
537.2560, 244.5082
538.4340, 183.0991
539.6120, 181.5571
540.7900, 216.8416
541.9680, 125.6718
543.1460, 171.0502
544.3230, 179.1356
545.5000, 212.5774
546.6770, 165.4081
547.8540, 165.8561
549.0310, 177.8816
550.2080, 185.4916
551.3840, 155.4436
552.5610, 227.9518
553.7370, 173.3827
554.9130, 262.3260
556.0890, 201.6704
557.2650, 283.5142
558.4400, 218.5034
559.6160, 245.8035
560.7910, 321.1272
561.9660, 280.1334
563.1410, 302.2091
564.3160, 342.8999
565.4910, 322.8401
566.6650, 410.8739
567.8400, 373.6195
569.0140, 420.3533
570.1880, 484.5714
571.3620, 455.5892
572.5360, 526.8975
573.7090, 581.6857
574.8830, 587.9775
576.0560, 657.2231
577.2290, 708.4270
578.4020, 737.9197
579.5750, 832.4059
580.7480, 894.9026
581.9200, 1010.656
583.0930, 1096.583
584.2650, 1182.579
585.4370, 1235.670
586.6090, 1408.746
587.7810, 1596.842
588.9520, 1691.932
590.1240, 1909.017
591.2950, 2206.096
592.4660, 2431.169
593.6370, 2853.238
594.8080, 3143.299
595.9790, 3500.356
597.1500, 4037.407
598.3200, 4449.452
599.4900, 4945.491
600.6600, 5513.527
601.8300, 5932.556
603.0000, 6408.580
604.1700, 6810.598
605.3390, 7306.610
606.5080, 7675.619
607.6770, 8272.621
608.8460, 8632.667
610.0150, 9474.661
611.1840, 10062.65
612.3520, 10789.82
613.5210, 11635.87
614.6890, 12389.15
615.8570, 13328.85
617.0250, 13973.01
618.1930, 14468.69
619.3600, 14816.77
620.5280, 15159.69
621.6950, 15212.20
622.8620, 14949.61
624.0290, 14690.71
625.1960, 14013.27
626.3630, 13516.61
627.5290, 12752.78
628.6960, 12070.92
629.8620, 11272.90
631.0280, 10578.22
632.1940, 9918.450
633.3600, 9193.713
634.5250, 8616.365
635.6910, 7874.996
636.8560, 7447.669
638.0210, 6917.806
639.1860, 6657.101
640.3510, 6247.879
641.5150, 6310.004
642.6800, 6374.086
643.8440, 6601.356
645.0080, 6975.274
646.1720, 7698.136
647.3360, 8665.029
648.5000, 9833.146
649.6640, 11321.56
650.8270, 13195.64
651.9900, 15435.34
653.1530, 17880.53
654.3160, 20919.95
655.4790, 24101.16
656.6420, 27386.19
657.8040, 30488.47
658.9660, 33335.16
660.1290, 35942.12
661.2910, 37650.32
662.4520, 38807.25
663.6140, 38383.12
664.7760, 37203.59
665.9370, 35384.21
667.0980, 32842.89
668.2590, 30080.51
669.4200, 26892.11
670.5810, 23952.72
671.7420, 20974.36
672.9020, 18501.95
674.0620, 16373.53
675.2220, 14186.11
676.3820, 12516.67
677.5420, 10785.23
678.7020, 9664.784
679.8610, 8475.330
681.0210, 7448.874
682.1800, 6634.414
683.3390, 5884.948
684.4980, 5205.485
685.6560, 4602.016
686.8150, 4097.537
687.9730, 3606.051
689.1320, 3291.565
690.2900, 3028.071
691.4480, 2698.576
692.6050, 2559.074
693.7630, 2160.574
694.9200, 1912.083
696.0780, 1893.589
697.2350, 1769.109
698.3920, 1639.633
699.5490, 1488.173
700.7050, 1396.711
701.8620, 1279.257
703.0180, 1229.808
704.1740, 1102.372
705.3300, 1042.950
706.4860, 996.5403
707.6420, 930.1443
708.7970, 882.8550
709.9530, 826.3838
711.1080, 779.0183
712.2630, 714.6647
713.4180, 655.3208
714.5730, 617.9709
715.7280, 578.6207
716.8820, 535.0220
718.0360, 534.9122
719.1900, 468.5530
720.3440, 411.1871
721.4980, 395.8137
722.6520, 409.4321
723.8050, 452.0419
724.9590, 363.6427
726.1120, 349.2351
727.2650, 239.8184
728.4180, 240.3931
729.5700, 242.9591
730.7230, 240.5168
731.8750, 241.0662
733.0280, 199.6073
734.1800, 251.1404
735.3320, 204.6655
736.4830, 236.1827
737.6350, 140.6926
738.7860, 140.1947
739.9380, 118.6895
741.0890, 123.1769
742.2400, 78.65735
743.3910, 59.13098
744.5410, 68.59790
745.6920, 82.05811
746.8420, 26.51184
747.9920, 41.95801
749.1420, 45.39795
750.2920, 17.83191
751.4420, 22.25610
752.5910, 13.79126
753.7410, 5.077393
754.8900, 2.532715
756.0390, 4.838135
757.1880, 17.80591
758.3370, 31.47656
759.4850, 25.47559
760.6340, 55.91467
761.7820, 19.69446
762.9300, 11.50049
764.0780, 8.328491
765.2260, 6.176270
766.3730, 22.04236
767.5210, 51.93481
768.6680, 25.86902
769.8150, 40.83093
770.9620, 73.82788
772.1090, 0.8769530
773.2560, 48.93933
774.4020, 82.03992
775.5490, 58.19568
776.6950, 45.39368
777.8410, 85.62671
778.9870, 75.91577
780.1330, 12.25500
781.2780, 95.61060
782.4230, 27.02612
783.5690, 138.4647
784.7140, 91.98462
785.8590, 64.56116
787.0030, 70.17920
788.1480, 49.84106
789.2920, 60.53564
790.4370, 85.26807
791.5810, 58.05078
792.7250, 55.86865
793.8690, 53.72021
795.0120, 106.6038
796.1560, 50.54639
797.2990, 3.517578
798.4420, 76.49390
799.5850, 57.51147
800.7280, 3.559570
801.8710, 17.61133
803.0130, 35.32764
804.1550, 1.268555
805.2980, 13.20874
806.4400, 30.15088
807.5810, 19.09497
808.7230, 1.041504
809.8650, 31.98853
811.0060, 39.93823
812.1470, 12.89062
813.2880, 17.84595
814.4290, 48.80444
815.5700, 26.76636
816.7110, 12.73169
817.8510, 97.70068
818.9910, 54.67358
820.1310, 41.65039
821.2710, 121.6316
822.4110, 82.61670
823.5510, 146.6064
824.6900, 89.60083
825.8290, 137.6003
826.9680, 170.6045
828.1070, 223.6138
829.2460, 234.6284
830.3850, 260.6489
831.5230, 199.6746
832.6620, 275.7061
833.8000, 234.7432
834.9380, 356.7871
836.0760, 311.8374
837.2130, 330.8938
838.3510, 431.9609
839.4880, 457.0449
840.6250, 470.1353
841.7620, 591.2319
842.8990, 677.3354
844.0360, 703.4468
845.1720, 840.5649
846.3090, 969.6904
847.4450, 1058.822
848.5810, 1145.962
849.7170, 1372.109
850.8530, 1573.263
851.9880, 1681.424
853.1240, 1914.593
854.2590, 2118.769
855.3940, 2303.955
856.5290, 2609.147
857.6640, 2743.349
858.7980, 2977.559
859.9330, 3133.777
861.0670, 3346.005
862.2010, 3417.242
863.3350, 3565.497
864.4690, 3567.767
865.6030, 3402.049
866.7360, 3187.357
867.8690, 2967.686
869.0020, 2805.037
870.1350, 2563.410
871.2680, 2323.804
872.4010, 2121.219
873.5330, 1982.656
874.6660, 1911.117
875.7980, 1909.602
876.9300, 1861.382
878.0620, 1918.653
879.1930, 1932.222
880.3250, 2033.821
881.4560, 2216.451
882.5870, 2348.108
883.7180, 2598.743
884.8490, 2712.453
885.9800, 3044.182
887.1100, 3371.742
888.2410, 3670.438
889.3710, 4091.915
890.5010, 4585.980
891.6310, 5110.611
892.7610, 5894.734
893.8900, 6682.486
895.0200, 7756.416
896.1490, 8895.767
897.2780, 10237.25
898.4070, 11953.05
899.5360, 13984.40
900.6640, 16467.00
901.7920, 19502.79
902.9210, 22864.62
904.0490, 27208.63
905.1770, 31150.32
906.3040, 36017.13
907.4320, 40075.93
908.5600, 44430.37
909.6870, 47483.85
910.8140, 50074.31
911.9410, 51874.34
913.0680, 51728.21
914.1940, 51613.61
915.3210, 50367.68
916.4470, 49000.81
917.5730, 47117.75
918.6990, 44622.08
919.8250, 41982.45
920.9500, 38764.83
922.0760, 35195.98
923.2010, 31536.84
924.3260, 28159.06
925.4510, 25134.67
926.5760, 22059.80
927.7010, 19263.71
928.8250, 17136.85
929.9500, 15094.20
931.0740, 13500.31
932.1980, 12119.02
933.3220, 10971.49
934.4450, 9850.744
935.5690, 8992.275
936.6920, 8219.891
937.8150, 7561.919
938.9380, 6897.827
940.0610, 6366.703
941.1840, 5965.668
942.3060, 5604.661
943.4290, 5280.142
944.5510, 5020.679
945.6730, 4842.759
946.7950, 4704.865
947.9160, 4658.997
949.0380, 4609.158
950.1590, 4593.349
951.2800, 4583.567
952.4010, 4604.812
953.5220, 4694.084
954.6430, 4757.383
955.7630, 4783.710
956.8840, 4777.065
958.0040, 4894.448
959.1240, 4995.857
960.2440, 4975.294
961.3640, 4986.759
962.4830, 5064.252
963.6030, 5155.773
964.7220, 5130.321
965.8410, 4974.896
966.9600, 4949.500
968.0780, 4978.130
969.1970, 4982.812
970.3150, 4931.562
971.4340, 4940.276
972.5520, 4848.781
973.6700, 4864.644
974.7870, 4864.439
975.9050, 4836.263
977.0220, 4920.114
978.1390, 5063.080
979.2560, 5076.986
980.3730, 5169.918
981.4900, 5430.879
982.6070, 5884.867
983.7230, 6127.882
984.8390, 6465.925
985.9550, 6903.995
987.0710, 7358.091
988.1870, 8025.215
989.3030, 8391.364
990.4180, 9005.545
991.5330, 9749.750
992.6480, 10309.98
993.7630, 10863.24
994.8780, 11354.61
995.9930, 11725.92
997.1070, 11864.92
998.2210, 11927.45
999.3350, 11754.08
1000.449, 11540.37
1001.563, 11106.67
1002.677, 10455.77
1003.790, 10000.62
1004.903, 9372.164
1006.016, 8776.151
1007.129, 8248.049
1008.242, 7579.225
1009.355, 7127.659
1010.467, 6567.474
1011.579, 6175.861
1012.691, 5770.629
1013.803, 5520.280
1014.915, 5006.102
1016.027, 4713.341
1017.138, 4489.517
1018.249, 4175.953
1019.360, 3987.083
1020.471, 3707.039
1021.582, 3641.756
1022.693, 3344.652
1023.803, 3225.341
1024.913, 3116.804
1026.023, 2904.778
1027.133, 2851.413
1028.243, 2662.935
1029.353, 2595.996
1030.462, 2445.583
1031.571, 2319.452
1032.680, 2322.916
1033.789, 2194.344
1034.898, 2087.623
1036.007, 2010.420
1037.115, 1943.186
1038.223, 1756.103
1039.331, 1688.516
1040.439, 1618.279
1041.547, 1621.530
1042.655, 1573.501
1043.762, 1498.840
1044.869, 1343.174
1045.976, 1340.090
1047.083, 1295.830
1048.190, 1210.554
1049.297, 1194.220
1050.403, 1195.909
1051.509, 1048.643
1052.615, 1064.401
1053.721, 946.2144
1054.827, 865.0703
1055.933, 893.9604
1057.038, 887.8862
1058.143, 795.9971
1059.248, 854.9854
1060.353, 787.0911
1061.458, 697.3684
1062.563, 719.6482
1063.667, 632.2424
1064.771, 627.7383
1065.875, 641.4136
1066.979, 626.7703
1068.083, 631.9980
1069.186, 561.2612
1070.290, 596.5378
1071.393, 580.8315
1072.496, 610.1689
1073.599, 571.3264
1074.702, 511.8328
1075.804, 603.2061
1076.907, 454.5549
1078.009, 586.7139
1079.111, 476.0835
1080.213, 490.4631
1081.315, 595.2236
1082.416, 504.6218
1083.517, 474.0288
1084.619, 480.4448
1085.720, 505.8691
1086.821, 537.3020
1087.921, 467.7429
1089.022, 479.1914
1090.122, 412.6938
1091.222, 319.1582
1092.322, 245.6294
1093.422, 268.1077
1094.522, 223.5928
1095.622, 173.0847
1096.721, 115.5830
1097.820, 80.21045
1098.919, 74.59790
1100.018, 16.11426
1101.117, 0.6357420
1102.215, 3.837646
1103.314, 21.69263
1104.412, 34.77246
1105.510, 65.99414
1106.608, 25.21509
1107.705, 81.42676
1108.803, 104.4358
1109.900, 5.091553
1110.997, 56.50098
1112.094, 49.56934
1113.191, 39.78027
1114.288, 125.5295
1115.384, 25.71265
1116.481, 58.31860
1117.577, 19.86548
1118.673, 49.41455
1119.769, 130.9658
1120.864, 128.5186
1121.960, 121.0732
1123.055, 150.6287
1124.150, 105.1855
1125.245, 63.74341
1126.340, 2.698242
1127.434, 52.85840
1128.529, 37.58447
1129.623, 31.04346
1130.717, 7.516113
1131.811, 71.99316
1132.905, 38.50610
1133.999, 50.03882
1135.092, 44.59790
1136.185, 38.18115
1137.279, 43.78564
1138.371, 41.00073
1139.464, 43.99805
1140.557, 46.75073
1141.649, 51.46069
1142.742, 59.20239
1143.834, 63.98120
1144.926, 60.79956
1146.017, 62.23169
1147.109, 51.70654
1148.200, 49.48706
1149.292, 36.45483
1150.383, 14.45117
1151.474, 26.46484
1152.564, 5.503418
1153.655, 18.44434
1154.745, 18.61255
1155.835, 45.69141
1156.925, 41.19263
1158.015, 61.92822
1159.105, 4.904053
1160.195, 34.27588
1161.284, 25.48901
1162.373, 3.268555
1163.462, 4.988770
1164.551, 3.265869
1165.640, 47.55469
1166.728, 6.886719
1167.817, 5.241211
1168.905, 10.38208
1169.993, 45.00879
1171.081, 33.44336
1172.168, 39.91650
1173.256, 50.43237
1174.343, 37.00366
1175.430, 3.569580
1176.517, 1.832520
1177.604, 31.21167
1178.691, 7.579834
1179.777, 69.92725
1180.864, 69.26514
1181.950, 88.59326
1183.036, 76.91113
1184.121, 98.21875
1185.207, 57.51611
1186.293, 71.80225
1187.378, 77.07739
1188.463, 42.34155
1189.548, 81.59229
1190.633, 49.83130
1191.717, 42.05737
1192.802, 14.26904
1193.886, 33.45679
1194.970, 39.62744
1196.054, 34.78174
1197.138, 50.91821
1198.221, 22.03979
1199.305, 101.1389
1200.388, 23.22437
1201.471, 79.28711
1202.554, 69.33594
1203.637, 29.37109
1204.719, 56.38403
1205.801, 72.38110
1206.884, 88.36426
1207.966, 33.33301
1209.048, 87.28003
1210.129, 123.2131
1211.211, 51.13159
1212.292, 88.03247
1213.373, 135.9185
1214.454, 95.79004
1215.535, 105.6470
1216.616, 140.4893
1217.696, 102.3167
1218.777, 126.1292
1219.857, 83.92651
1220.937, 122.7085
1222.017, 157.4761
1223.096, 152.2278
1224.176, 144.9644
1225.255, 164.6860
1226.334, 179.3921
1227.413, 121.0828
1228.492, 148.7578
1229.570, 188.4175
1230.649, 138.0613
1231.727, 141.6650
1232.805, 194.2161
1233.883, 192.8198
1234.961, 156.6465
1236.038, 138.1292
1237.116, 91.69165
1238.193, 103.3669
1239.270, 151.7737
1240.347, 135.2063
1241.424, 97.71191
1242.500, 133.2014
1243.577, 95.67505
1244.653, 151.1323
1245.729, 97.57471
1246.805, 165.0002
1247.880, 151.4104
1248.956, 206.8047
1250.031, 207.1831
1251.106, 175.5461
1252.181, 163.8933
1253.256, 207.2246
1254.331, 185.5399
1255.405, 232.8391
1256.480, 156.0363
1257.554, 156.3038
1258.628, 180.9922
1259.701, 241.9712
1260.775, 210.9497
1261.849, 160.2766
1262.922, 233.6216
1263.995, 167.1653
1265.068, 199.9692
1266.141, 225.0959
1267.213, 184.7913
1268.286, 190.5823
1269.358, 232.1079
1270.430, 128.3833
1271.502, 190.2878
1272.573, 101.6321
1273.645, 180.6035
1274.716, 165.7034
1275.788, 205.6431
1276.859, 151.1907
1277.929, 97.79297
1279.000, 186.1465
1280.071, 144.8147
1281.141, 187.6643
1282.211, 136.7651
1283.281, 146.6958
1284.351, 127.8462
1285.421, 122.2344
1286.490, 114.1282
1287.559, 130.3740
1288.628, 179.7510
1289.697, 124.6125
1290.766, 101.9673
1291.835, 142.0688
1292.903, 107.5972
1293.972, 184.9180
1295.040, 127.6619
1296.108, 135.9031
1297.175, 165.1931
1298.243, 151.3579
1299.310, 171.1052
1300.377, 147.4666
1301.444, 118.3713
1302.511, 120.5664
1303.578, 150.2673
1304.645, 147.3081
1305.711, 133.6409
1306.777, 111.1731
1307.843, 152.7532
1308.909, 150.4204
1309.975, 148.0779
1311.040, 152.7273
1312.105, 181.3662
1313.171, 159.9951
1314.235, 184.6128
1315.300, 180.2219
1316.365, 183.8223
1317.429, 183.2598
1318.494, 211.8438
1319.558, 174.3408
1320.622, 194.6892
1321.685, 235.0566
1322.749, 202.1316
1323.812, 146.3391
1324.876, 227.3872
1325.939, 92.76123
1327.001, 156.2903
1328.064, 185.8042
1329.127, 111.3120
1330.189, 176.8118
1331.251, 176.6462
1332.313, 183.1543
1333.375, 215.2188
1334.437, 209.6567
1335.498, 199.1226
1336.560, 171.7830
1337.621, 162.2363
1338.682, 158.7507
1339.742, 149.8188
1340.803, 180.2532
1341.863, 130.6814
1342.924, 147.1033
1343.984, 179.5190
1345.044, 201.9294
1346.104, 172.3340
1347.163, 170.7327
1348.222, 118.1335
1349.282, 150.5215
1350.341, 188.9041
1351.400, 136.2812
1352.458, 162.6533
1353.517, 170.0208
1354.575, 149.3833
1355.633, 181.7407
1356.691, 144.0935
1357.749, 172.4419
1358.807, 129.7852
1359.864, 166.3379
1360.922, 133.0303
1361.979, 160.1743
1363.036, 100.5576
1364.092, 118.2991
1365.149, 120.6479
1366.205, 129.1709
1367.262, 138.5415
1368.318, 145.1741
1369.374, 135.5332
1370.429, 165.8369
1371.485, 165.1626
1372.540, 124.6382
1373.596, 154.8801
1374.651, 139.3076
1375.705, 170.6348
1376.760, 140.9736
1377.815, 167.4473
1378.869, 167.8357
1379.923, 133.1858
1380.977, 155.5281
1382.031, 215.8020
1383.085, 117.2515
1384.138, 94.52271
1385.191, 136.7917
1386.244, 169.0735
1387.297, 64.35425
1388.350, 180.6353
1389.403, 99.01685
1390.455, 85.60693
1391.507, 148.0525
1392.559, 86.65894
1393.611, 103.9968
1394.663, 74.38135
1395.714, 83.80835
1396.766, 93.17749
1397.817, 101.7073
1398.868, 106.2559
1399.919, 38.68530
1400.969, 80.35205
1402.020, 106.7673
1403.070, 17.19312
1404.120, 75.61548
1405.170, 58.07617
1406.220, 163.5159
1407.270, 61.99878
1408.319, 84.44678
1409.368, 96.89453
1410.417, 64.33813
1411.466, 64.78613
1412.515, 105.3159
1413.563, 82.77197
1414.612, 33.24609
1415.660, 29.69116
1416.708, 88.13647
1417.756, 42.58716
1418.803, 67.50073
1419.851, 34.05957
1420.898, 47.45605
1421.945, 62.89111
1422.992, 87.32910
1424.039, 164.7639
1425.086, 7.194824
1426.132, 94.80664
1427.178, 41.25171
1428.225, 38.70508
1429.270, 66.17114
1430.316, 29.60498
1431.362, 87.03247
1432.407, 41.45605
1433.452, 56.91699
1434.497, 78.30786
1435.542, 41.68286
1436.587, 65.45190
1437.631, 82.78857
1438.676, 96.96997
1439.720, 33.00049
1440.764, 79.64258
1441.807, 50.28345
1442.851, 47.69580
1443.895, 60.99438
1444.938, 60.23096
1445.981, 76.89771
1447.024, 112.5757
1448.066, 143.2639
1449.109, 148.9578
1450.151, 161.6594
1451.194, 132.3674
1452.236, 143.2292
1453.277, 104.8018
1454.319, 119.5251
1455.361, 156.2522
1456.402, 107.9827
1457.443, 171.7175
1458.484, 86.45703
1459.525, 90.20142
1460.565, 97.95142
1461.606, 152.7070
1462.646, 156.4680
1463.686, 11.21533
1464.726, 72.96143
1465.766, 113.7058
1466.805, 73.44775
1467.845, 150.1943
1468.884, 72.94775
1469.923, 96.70825
1470.962, 72.47559
1472.000, 36.24902
1473.039, 17.02979
1474.077, 40.81860
1475.115, 74.61694
1476.153, 68.42529
1477.191, 48.24365
1478.229, 64.05542
1479.266, 49.87231
1480.303, 89.69824
1481.340, 71.85938
1482.377, 46.37061
1483.414, 52.21533
1484.451, 1.958740
1485.487, 22.09790
1486.523, 13.22925
1487.559, 22.64819
1488.595, 7.465576
1489.631, 35.42871
1490.666, 18.66699
1491.701, 26.24365
1492.736, 4.876709
1493.771, 11.00610
1494.806, 50.79077
1495.841, 14.69043
1496.875, 1.600098
1497.909, 34.52100
1498.943, 7.454102
1499.977, 28.40063
1501.011, 25.35547
1502.045, 2.332520
1503.078, 13.32202
1504.111, 22.32007
1505.144, 24.32617
1506.177, 63.33960
1507.209, 6.360840
1508.242, 54.38892
1509.274, 88.42480
1510.306, 41.46802
1511.338, 47.51880
1512.370, 44.57739
1513.402, 24.64380
1514.433, 15.45239
1515.464, 16.62793
1516.495, 2.324219
1517.526, 46.81812
1518.557, 38.78101
1519.587, 31.89673
1520.617, 89.02173
1521.648, 18.15601
1522.678, 18.29980
1523.707, 47.45288
1524.737, 5.616699
1525.766, 46.82617
1526.796, 99.17383
1527.825, 49.74707
1528.854, 36.11035
1529.882, 66.59790
1530.911, 34.67505
1531.939, 56.73486
1532.967, 50.44531
1533.995, 45.32544
1535.023, 52.99097
1536.051, 29.32568
1537.078, 69.73291
1538.106, 77.10547
1539.133, 114.4534
1540.160, 60.20630
1541.186, 43.68896
1542.213, 3.174316
1543.239, 56.33350
1544.266, 18.75024
1545.292, 86.95947
1546.318, 40.09546
1547.343, 99.01782
1548.369, 66.11255
1549.394, 9.053711
1550.419, 47.13110
1551.444, 76.83765
1552.469, 53.84009
1553.494, 44.99585
1554.518, 60.27905
1555.542, 55.46167
1556.566, 22.24976
1557.590, 49.36841
1558.614, 90.28149
1559.638, 0.6271970
1560.661, 40.09961
1561.684, 35.81152
1562.707, 0.0000000E+00
##END=



