##NAMES=Akermanite
##RRUFFID=R061085
##IDEAL CHEMISTRY=Ca_2_MgSi_2_O_7_
##LOCALITY=Kovdor, Kola Peninsula, Russia
##OWNER=Michael Scott
##SOURCE=Michael Scott
##DESCRIPTION=Dark blue coarsely crystalline massive associated with green diopside
##STATUS=The identification of this mineral has been confirmed by X-ray diffraction and chemical analysis
##URL=rruff.info/R061085
##MEASURED CHEMISTRY=(Ca_1.78_Na_0.22_)_Σ=2_(Mg_0.70_Al_0.22_Fe^2+^_0.08_)_Σ=1_Si_2.00_O_7_
##PIN_ID=M00490
##ORIENTATION=Laser parallel to -c* (0 0 -1). Fiducial mark perpendicular to laser is parallel to a [1 0 0]
168.5390, 0.0000000E+00
169.7620, 34.62988
170.9850, 95.29932
172.2080, 109.1396
173.4300, 21.54736
174.6530, 94.34961
175.8750, 13.34180
177.0970, 45.30322
178.3190, 77.40332
179.5410, 50.00977
180.7630, 83.60303
181.9850, 115.8062
183.2060, 157.7124
184.4270, 223.4595
185.6490, 279.5386
186.8700, 386.2158
188.0910, 445.3369
189.3110, 530.7476
190.5320, 624.0376
191.7530, 581.8872
192.9730, 763.3804
194.1930, 817.6870
195.4130, 791.7271
196.6330, 819.4819
197.8530, 969.9160
199.0730, 994.9727
200.2920, 1110.638
201.5120, 1213.953
202.7310, 1244.939
203.9500, 1331.539
205.1690, 1314.659
206.3880, 1450.222
207.6070, 1528.481
208.8250, 1626.425
210.0440, 1784.973
211.2620, 1952.771
212.4800, 2154.789
213.6980, 2334.000
214.9160, 2575.387
216.1340, 2630.927
217.3510, 2793.605
218.5690, 2875.406
219.7860, 2899.318
221.0030, 3024.333
222.2200, 3131.608
223.4370, 3149.487
224.6540, 3222.729
225.8700, 3140.752
227.0870, 3124.593
228.3030, 2921.194
229.5190, 2868.023
230.7350, 2739.244
231.9510, 2690.143
233.1670, 2529.815
234.3820, 2333.204
235.5980, 2176.182
236.8130, 2051.421
238.0280, 1957.313
239.2430, 1831.054
240.4580, 1715.558
241.6730, 1620.841
242.8880, 1588.916
244.1020, 1533.786
245.3160, 1500.479
246.5300, 1358.027
247.7450, 1485.447
248.9580, 1406.754
250.1720, 1470.957
251.3860, 1404.064
252.5990, 1402.085
253.8130, 1375.023
255.0260, 1402.887
256.2390, 1406.679
257.4520, 1502.402
258.6640, 1605.062
259.8770, 1695.661
261.0890, 1582.200
262.3020, 1530.682
263.5140, 1585.107
264.7260, 1436.480
265.9380, 1610.799
267.1500, 1524.065
268.3610, 1510.283
269.5730, 1538.449
270.7840, 1622.566
271.9950, 1713.696
273.2060, 1818.132
274.4170, 1763.788
275.6280, 1794.574
276.8390, 1777.499
278.0490, 2025.048
279.2590, 2174.721
280.4690, 2187.325
281.6800, 2413.039
282.8890, 2371.558
284.0990, 2688.778
285.3090, 2908.453
286.5180, 2886.286
287.7280, 3124.981
288.9370, 3354.590
290.1460, 3665.759
291.3550, 4040.838
292.5630, 4359.529
293.7720, 4615.172
294.9800, 5196.819
296.1890, 5469.184
297.3970, 6065.951
298.6050, 6304.444
299.8130, 6811.388
301.0200, 7383.597
302.2280, 7692.293
303.4360, 8048.835
304.6430, 8465.393
305.8500, 8690.938
307.0570, 8761.741
308.2640, 8885.717
309.4710, 8785.646
310.6770, 8730.559
311.8840, 8634.365
313.0900, 8367.154
314.2960, 8031.110
315.5020, 7666.357
316.7080, 7176.568
317.9140, 6714.135
319.1190, 6205.407
320.3250, 5826.434
321.5300, 5286.642
322.7350, 4790.007
323.9400, 4364.508
325.1450, 4135.131
326.3500, 3607.856
327.5540, 3505.674
328.7580, 3144.573
329.9630, 2824.545
331.1670, 2600.580
332.3710, 2393.669
333.5750, 2193.807
334.7780, 1961.986
335.9820, 1824.202
337.1850, 1649.449
338.3880, 1581.723
339.5920, 1499.018
340.7950, 1288.333
341.9970, 1296.664
343.2000, 1200.005
344.4030, 1055.356
345.6050, 1091.714
346.8070, 1079.073
348.0090, 979.4321
349.2110, 1001.788
350.4130, 943.1377
351.6150, 978.4790
352.8160, 883.8105
354.0170, 955.1309
355.2190, 912.4385
356.4200, 964.7319
357.6210, 841.0103
358.8210, 863.2725
360.0220, 946.5181
361.2220, 645.7456
362.4230, 770.9551
363.6230, 764.1465
364.8230, 617.3174
366.0230, 557.4683
367.2230, 510.5977
368.4220, 436.7021
369.6220, 440.7812
370.8210, 253.8335
372.0200, 313.8579
373.2190, 269.9707
374.4180, 191.2993
375.6170, 239.7563
376.8150, 134.6577
378.0140, 37.51953
379.2120, 108.3364
380.4100, 66.89209
381.6080, 5.190918
382.8060, 67.54346
384.0040, 5.965332
385.2010, 128.4404
386.3980, 37.00146
387.5960, 72.39746
388.7930, 14.24854
389.9900, 65.05225
391.1870, 36.68945
392.3830, 29.51074
393.5800, 53.66895
394.7760, 46.78516
395.9720, 50.85986
397.1680, 35.89258
398.3640, 93.88379
399.5600, 78.92188
400.7560, 103.7461
401.9510, 70.61816
403.1460, 89.45020
404.3420, 44.24268
405.5370, 60.00635
406.7320, 42.68066
407.9260, 19.67334
409.1210, 27.91895
410.3150, 22.46875
411.5100, 46.97461
412.7040, 94.55957
413.8980, 75.16846
415.0920, 60.84521
416.2850, 87.58838
417.4790, 36.40479
418.6720, 151.2881
419.8650, 142.3071
421.0590, 109.4614
422.2510, 115.7539
423.4440, 36.14600
424.6370, 128.6240
425.8290, 90.19434
427.0220, 174.8467
428.2140, 105.6016
429.4060, 128.4385
430.5980, 125.3652
431.7900, 103.4111
432.9810, 98.55859
434.1730, 39.79492
435.3640, 74.13867
436.5550, 8.378906
437.7460, 36.78467
438.9370, 12.03369
440.1280, 116.1436
441.3190, 151.1416
442.5090, 195.0015
443.6990, 218.7344
444.8890, 341.3438
446.0790, 424.8584
447.2690, 510.2998
448.4590, 524.6987
449.6480, 621.0703
450.8380, 707.4180
452.0270, 672.7456
453.2160, 765.0527
454.4050, 798.3398
455.5940, 770.6064
456.7820, 854.8535
457.9710, 941.0776
459.1590, 825.2817
460.3470, 898.4658
461.5350, 980.6328
462.7230, 1050.783
463.9110, 1042.910
465.0990, 1159.011
466.2860, 1135.086
467.4730, 1271.134
468.6600, 1204.156
469.8470, 1334.157
471.0340, 1403.130
472.2210, 1440.097
473.4070, 1559.054
474.5940, 1505.008
475.7800, 1569.938
476.9660, 1745.852
478.1520, 1713.754
479.3380, 1729.630
480.5230, 1729.477
481.7090, 1701.293
482.8940, 1627.101
484.0790, 1672.894
485.2650, 1478.709
486.4490, 1496.502
487.6340, 1460.275
488.8190, 1349.052
490.0030, 1221.811
491.1870, 1186.578
492.3720, 1194.347
493.5550, 1150.121
494.7390, 1067.879
495.9230, 1039.649
497.1060, 1149.418
498.2900, 1034.200
499.4730, 1019.996
500.6560, 987.7871
501.8390, 922.5859
503.0220, 1038.359
504.2040, 1120.145
505.3870, 1075.921
506.5690, 1021.674
507.7510, 1186.418
508.9330, 1153.162
510.1150, 1130.900
511.2970, 1230.613
512.4780, 1179.314
513.6600, 1263.994
514.8410, 1134.648
516.0220, 1259.298
517.2030, 1251.892
518.3840, 1141.515
519.5650, 1105.803
520.7450, 1002.589
521.9250, 973.7119
523.1060, 920.6646
524.2860, 847.4238
525.4660, 807.1821
526.6450, 688.7188
527.8250, 691.4824
529.0040, 627.9297
530.1840, 603.6255
531.3630, 489.3062
532.5420, 421.8423
533.7200, 520.9512
534.8990, 418.0757
536.0780, 385.3730
537.2560, 307.5669
538.4340, 293.4336
539.6120, 383.7402
540.7900, 310.1602
541.9680, 309.4360
543.1460, 375.8174
544.3230, 336.9316
545.5000, 297.1577
546.6770, 318.9453
547.8540, 319.6523
549.0310, 305.3193
550.2080, 388.4087
551.3840, 317.7666
552.5610, 332.9648
553.7370, 282.4897
554.9130, 411.5884
556.0890, 390.8340
557.2650, 445.9102
558.4400, 369.2402
559.6160, 349.7153
560.7910, 423.9155
561.9660, 452.6182
563.1410, 442.3237
564.3160, 465.5801
565.4910, 455.7798
566.6650, 566.1245
567.8400, 591.8325
569.0140, 597.1802
570.1880, 655.8281
571.3620, 634.0000
572.5360, 645.3237
573.7090, 675.9873
574.8830, 823.9189
576.0560, 821.5049
577.2290, 929.9023
578.4020, 1016.447
579.5750, 1060.973
580.7480, 1211.669
581.9200, 1325.040
583.0930, 1290.574
584.2650, 1347.274
585.4370, 1515.058
586.6090, 1641.149
587.7810, 1818.225
588.9520, 1943.286
590.1240, 2242.332
591.2950, 2361.363
592.4660, 2531.380
593.6370, 2954.382
594.8080, 3388.371
595.9790, 3825.343
597.1500, 4213.300
598.3200, 4672.004
599.4900, 5108.875
600.6600, 5573.450
601.8300, 6011.883
603.0000, 6489.964
604.1700, 6935.884
605.3390, 7433.938
606.5080, 7953.780
607.6770, 8317.788
608.8460, 9100.707
610.0150, 9733.886
611.1840, 10413.84
612.3520, 11303.37
613.5210, 12130.39
614.6890, 13062.09
615.8570, 14010.94
617.0250, 14952.11
618.1930, 15626.20
619.3600, 16218.40
620.5280, 16501.31
621.6950, 16772.13
622.8620, 16502.77
624.0290, 16308.21
625.1960, 15868.99
626.3630, 15106.43
627.5290, 14482.68
628.6960, 13798.01
629.8620, 12798.65
631.0280, 12021.57
632.1940, 11153.74
633.3600, 10394.62
634.5250, 9703.610
635.6910, 8820.273
636.8560, 8328.690
638.0210, 7760.645
639.1860, 7421.685
640.3510, 7267.422
641.5150, 7072.760
642.6800, 7107.411
643.8440, 7365.195
645.0080, 7956.615
646.1720, 8697.680
647.3360, 9651.110
648.5000, 10916.65
649.6640, 12689.54
650.8270, 14630.54
651.9900, 17198.32
653.1530, 19977.70
654.3160, 23133.16
655.4790, 26562.46
656.6420, 30202.98
657.8040, 33028.18
658.9660, 36446.19
660.1290, 39128.62
661.2910, 40849.59
662.4520, 41564.53
663.6140, 41437.14
664.7760, 40372.07
665.9370, 38028.00
667.0980, 35469.92
668.2590, 32328.86
669.4200, 29106.79
670.5810, 26063.68
671.7420, 22975.57
672.9020, 20097.44
674.0620, 17624.31
675.2220, 15491.16
676.3820, 13615.00
677.5420, 11982.81
678.7020, 10520.61
679.8610, 9415.393
681.0210, 8265.155
682.1800, 7253.900
683.3390, 6426.625
684.4980, 5724.335
685.6560, 4948.025
686.8150, 4479.702
687.9730, 3979.385
689.1320, 3472.053
690.2900, 3133.719
691.4480, 2871.371
692.6050, 2765.011
693.7630, 2409.637
694.9200, 2278.281
696.0780, 2092.939
697.2350, 2007.608
698.3920, 1698.295
699.5490, 1664.986
700.7050, 1513.712
701.8620, 1418.472
703.0180, 1418.258
704.1740, 1259.069
705.3300, 1199.887
706.4860, 1103.735
707.6420, 984.6055
708.7970, 961.5186
709.9530, 893.4575
711.1080, 822.7275
712.2630, 736.4302
713.4180, 689.4585
714.5730, 689.5107
715.7280, 605.5732
716.8820, 717.6538
718.0360, 568.7319
719.1900, 532.8018
720.3440, 579.8687
721.4980, 417.9233
722.6520, 518.9648
723.8050, 387.9932
724.9590, 341.0073
726.1120, 356.0073
727.2650, 246.9917
728.4180, 327.9624
729.5700, 234.9185
730.7230, 253.8604
731.8750, 198.7886
733.0280, 169.7026
734.1800, 243.6030
735.3320, 120.4902
736.4830, 61.36377
737.6350, 163.2231
738.7860, 49.06934
739.9380, 23.90234
741.0890, 47.71436
742.2400, 81.51270
743.3910, 44.29785
744.5410, 143.0703
745.6920, 45.83203
746.8420, 62.58057
747.9920, 4.316406
749.1420, 44.02490
750.2920, 50.27832
751.4420, 42.63672
752.5910, 70.04590
753.7410, 6.479492
754.8900, 15.01953
756.0390, 46.55322
757.1880, 15.86182
758.3370, 23.25879
759.4850, 29.64160
760.6340, 57.98633
761.7820, 39.67041
762.9300, 173.3989
764.0780, 9.244141
765.2260, 23.11670
766.3730, 105.0249
767.5210, 31.01074
768.6680, 132.0356
769.8150, 105.1509
770.9620, 117.3423
772.1090, 40.61572
773.2560, 147.9312
774.4020, 97.34229
775.5490, 154.8242
776.6950, 157.4048
777.8410, 90.08594
778.9870, 132.8296
780.1330, 11.66016
781.2780, 158.5117
782.4230, 74.46045
783.5690, 22.46191
784.7140, 77.48779
785.8590, 112.5669
787.0030, 93.71582
788.1480, 20.92383
789.2920, 73.15283
790.4370, 36.42773
791.5810, 22.73096
792.7250, 102.0518
793.8690, 75.43262
795.0120, 71.85742
796.1560, 53.67578
797.2990, 126.7920
798.4420, 13.67285
799.5850, 61.13623
800.7280, 86.39893
801.8710, 192.0200
803.0130, 41.44092
804.1550, 57.86230
805.2980, 203.2861
806.4400, 267.7109
807.5810, 216.1382
808.7230, 317.5674
809.8650, 308.9985
811.0060, 426.4331
812.1470, 561.8706
813.2880, 673.3110
814.4290, 742.9741
815.5700, 687.2026
816.7110, 847.6543
817.8510, 756.1099
818.9910, 769.5708
820.1310, 785.0361
821.2710, 748.5073
822.4110, 818.9834
823.5510, 627.4648
824.6900, 622.9521
825.8290, 536.4458
826.9680, 587.9453
828.1070, 414.4521
829.2460, 503.9653
830.3850, 505.4854
831.5230, 553.0132
832.6620, 491.5483
833.8000, 588.0913
834.9380, 561.6436
836.0760, 591.2075
837.2130, 759.7812
838.3510, 707.3667
839.4880, 933.9614
840.6250, 916.5762
841.7620, 1111.199
842.8990, 1216.846
844.0360, 1412.502
845.1720, 1630.169
846.3090, 1777.845
847.4450, 1957.960
848.5810, 2132.234
849.7170, 2287.949
850.8530, 2488.673
851.9880, 2692.405
853.1240, 2787.146
854.2590, 3007.902
855.3940, 3227.679
856.5290, 3373.464
857.6640, 3625.268
858.7980, 3859.083
859.9330, 3938.918
861.0670, 4193.767
862.2010, 4239.633
863.3350, 4334.537
864.4690, 4221.452
865.6030, 4206.399
866.7360, 3964.382
867.8690, 3664.384
869.0020, 3414.402
870.1350, 3011.434
871.2680, 2661.501
872.4010, 2443.603
873.5330, 2409.585
874.6660, 2217.759
875.7980, 2252.785
876.9300, 2076.504
878.0620, 2253.607
879.1930, 2316.886
880.3250, 2482.046
881.4560, 2584.433
882.5870, 2756.666
883.7180, 3007.004
884.8490, 3192.122
885.9800, 3653.486
887.1100, 3927.296
888.2410, 4349.649
889.3710, 4868.333
890.5010, 5450.890
891.6310, 5974.139
892.7610, 6638.462
893.8900, 7597.695
895.0200, 8558.247
896.1490, 10041.90
897.2780, 11338.74
898.4070, 13347.77
899.5360, 15403.49
900.6640, 17958.57
901.7920, 21194.86
902.9210, 24786.06
904.0490, 29217.97
905.1770, 33842.61
906.3040, 38629.01
907.4320, 43485.70
908.5600, 47766.29
909.6870, 51577.21
910.8140, 53853.39
911.9410, 55597.04
913.0680, 55994.61
914.1940, 56190.50
915.3210, 54960.79
916.4470, 54014.79
917.5730, 52008.64
918.6990, 49614.89
919.8250, 47208.49
920.9500, 44240.74
922.0760, 40374.89
923.2010, 36568.32
924.3260, 33036.41
925.4510, 29278.34
926.5760, 25836.70
927.7010, 23058.97
928.8250, 20438.43
929.9500, 18174.67
931.0740, 16241.25
932.1980, 14463.03
933.3220, 13005.39
934.4450, 12029.25
935.5690, 10934.15
936.6920, 9903.414
937.8150, 9041.383
938.9380, 8489.390
940.0610, 7796.431
941.1840, 7207.518
942.3060, 6921.648
943.4290, 6531.818
944.5510, 6117.025
945.6730, 5847.271
946.7950, 5718.556
947.9160, 5543.876
949.0380, 5511.234
950.1590, 5608.630
951.2800, 5340.062
952.4010, 5492.530
953.5220, 5384.036
954.6430, 5487.578
955.7630, 5525.159
956.8840, 5755.780
958.0040, 5663.434
959.1240, 5742.127
960.2440, 5766.857
961.3640, 5881.625
962.4830, 5790.430
963.6030, 5817.273
964.7220, 5881.151
965.8410, 5686.067
966.9600, 5687.021
968.0780, 5595.024
969.1970, 5656.281
970.3150, 5592.963
971.4340, 5688.310
972.5520, 5410.050
973.6700, 5511.396
974.7870, 5513.827
975.9050, 5379.076
977.0220, 5457.767
978.1390, 5540.088
979.2560, 5667.908
980.3730, 5811.299
981.4900, 5946.728
982.6070, 6175.676
983.7230, 6571.178
984.8390, 6906.716
985.9550, 7428.289
987.0710, 7880.898
988.1870, 8296.827
989.3030, 9086.416
990.4180, 9531.130
991.5330, 10288.36
992.6480, 10497.41
993.7630, 11288.79
994.8780, 11614.17
995.9930, 11999.51
997.1070, 12249.11
998.2210, 12360.16
999.3350, 12265.16
1000.449, 11872.00
1001.563, 11523.04
1002.677, 11118.72
1003.790, 10512.86
1004.903, 9966.145
1006.016, 9419.827
1007.129, 8890.785
1008.242, 8260.508
1009.355, 7541.155
1010.467, 7266.108
1011.579, 6673.052
1012.691, 6227.759
1013.803, 5956.746
1014.915, 5615.885
1016.027, 5361.615
1017.138, 5023.233
1018.249, 4695.993
1019.360, 4409.214
1020.471, 4234.849
1021.582, 4020.856
1022.693, 3812.722
1023.803, 3613.230
1024.913, 3395.009
1026.023, 3279.420
1027.133, 3051.139
1028.243, 3018.348
1029.353, 2717.966
1030.462, 2658.912
1031.571, 2711.905
1032.680, 2511.209
1033.789, 2295.323
1034.898, 2312.651
1036.007, 2087.537
1037.115, 2199.780
1038.223, 2081.354
1039.331, 2043.669
1040.439, 1828.114
1041.547, 1816.678
1042.655, 1770.181
1043.762, 1681.776
1044.869, 1619.399
1045.976, 1570.472
1047.083, 1487.042
1048.190, 1467.451
1049.297, 1349.322
1050.403, 1273.223
1051.509, 1228.973
1052.615, 1130.984
1053.721, 1094.025
1054.827, 1041.964
1055.933, 1006.248
1057.038, 940.4336
1058.143, 870.6465
1059.248, 776.8994
1060.353, 902.0879
1061.458, 742.3984
1062.563, 681.7559
1063.667, 831.1514
1064.771, 626.5850
1065.875, 672.0347
1066.979, 666.1606
1068.083, 648.6777
1069.186, 671.5259
1070.290, 661.1279
1071.393, 576.9189
1072.496, 624.5195
1073.599, 651.9966
1074.702, 557.3525
1075.804, 618.2935
1076.907, 468.9507
1078.009, 552.7095
1079.111, 595.3921
1080.213, 603.0884
1081.315, 647.7964
1082.416, 589.5952
1083.517, 647.3267
1084.619, 630.0693
1085.720, 608.7622
1086.821, 605.5889
1087.921, 547.8540
1089.022, 513.6812
1090.122, 437.6841
1091.222, 421.3057
1092.322, 366.1206
1093.422, 247.9443
1094.522, 258.7773
1095.622, 160.8296
1096.721, 150.6787
1097.820, 50.53613
1098.919, 23.40088
1100.018, 5.273438
1101.117, 13.84814
1102.215, 29.96680
1103.314, 14.08643
1104.412, 28.20361
1105.510, 9.322754
1106.608, 67.43896
1107.705, 48.42773
1108.803, 87.70068
1109.900, 67.14258
1110.997, 20.00977
1112.094, 30.83545
1113.191, 18.68506
1114.288, 64.33203
1115.384, 39.49902
1116.481, 114.4414
1117.577, 25.27881
1118.673, 36.11914
1119.769, 35.03857
1120.864, 46.20947
1121.960, 13.60254
1123.055, 35.58496
1124.150, 6.787109
1125.245, 34.99316
1126.340, 12.21582
1127.434, 30.44580
1128.529, 98.69141
1129.623, 2.010742
1130.717, 69.29004
1131.811, 96.63086
1132.905, 15.98242
1133.999, 7.385742
1135.092, 7.201172
1136.185, 80.21680
1137.279, 68.68359
1138.371, 103.1953
1139.464, 49.76904
1140.557, 142.3789
1141.649, 18.07422
1142.742, 111.7900
1143.834, 42.57715
1144.926, 45.39990
1146.017, 30.26025
1147.109, 22.15088
1148.200, 34.69727
1149.292, 131.0210
1150.383, 57.06006
1151.474, 62.14502
1152.564, 66.28223
1153.655, 14.47363
1154.745, 70.69238
1155.835, 37.05225
1156.925, 14.78955
1158.015, 21.48682
1159.105, 43.79932
1160.195, 1.157715
1161.284, 125.4580
1162.373, 155.0659
1163.462, 55.33398
1164.551, 60.21094
1165.640, 36.25391
1166.728, 23.23486
1167.817, 51.71338
1168.905, 37.18262
1169.993, 20.64502
1171.081, 51.08691
1172.168, 49.51758
1173.256, 102.9360
1174.343, 57.34277
1175.430, 97.73633
1176.517, 128.1177
1177.604, 11.48682
1178.691, 147.8252
1179.777, 154.1509
1180.864, 172.4629
1181.950, 37.76074
1183.036, 119.0371
1184.121, 117.2979
1185.207, 103.5444
1186.293, 135.7764
1187.378, 207.9927
1188.463, 233.1934
1189.548, 214.0200
1190.633, 43.54736
1191.717, 157.6909
1192.802, 108.8184
1193.886, 107.9292
1194.970, 123.0229
1196.054, 175.0996
1197.138, 31.15918
1198.221, 116.1851
1199.305, 75.19336
1200.388, 99.18115
1201.471, 84.14941
1202.554, 167.0977
1203.637, 31.02783
1204.719, 34.92188
1205.801, 83.78174
1206.884, 135.6680
1207.966, 54.48682
1209.048, 181.2764
1210.129, 124.0474
1211.211, 178.7993
1212.292, 107.5312
1213.373, 210.2432
1214.454, 150.9355
1215.535, 158.6089
1216.616, 218.2622
1217.696, 85.89551
1218.777, 122.5049
1219.857, 128.0938
1220.937, 195.6621
1222.017, 145.2104
1223.096, 289.7388
1224.176, 202.2466
1225.255, 109.7339
1226.334, 160.1992
1227.413, 209.6440
1228.492, 279.0684
1229.570, 209.4712
1230.649, 203.8423
1231.727, 186.9736
1232.805, 165.6968
1233.883, 332.7710
1234.961, 246.4692
1236.038, 276.5762
1237.116, 203.6138
1238.193, 155.8525
1239.270, 324.6636
1240.347, 246.8628
1241.424, 221.5791
1242.500, 223.7368
1243.577, 124.8740
1244.653, 215.5190
1245.729, 126.6255
1246.805, 246.7100
1247.880, 196.7803
1248.956, 246.8472
1250.031, 166.5845
1251.106, 248.6797
1252.181, 229.6597
1253.256, 227.1440
1254.331, 178.8154
1255.405, 186.1709
1256.480, 187.5508
1257.554, 265.9819
1258.628, 223.1743
1259.701, 247.9258
1260.775, 190.7349
1261.849, 127.7197
1262.922, 236.2876
1263.995, 186.4644
1265.068, 145.2021
1266.141, 232.8003
1267.213, 195.0200
1268.286, 200.0078
1269.358, 199.2134
1270.430, 155.5117
1271.502, 191.5684
1272.573, 221.5981
1273.645, 224.8804
1274.716, 300.9951
1275.788, 144.8721
1276.859, 212.1714
1277.929, 169.6807
1279.000, 227.9766
1280.071, 121.9863
1281.141, 153.4614
1282.211, 79.59766
1283.281, 126.9092
1284.351, 95.73535
1285.421, 144.1953
1286.490, 165.0459
1287.559, 158.6206
1288.628, 138.7227
1289.697, 101.4482
1290.766, 138.8398
1291.835, 156.5747
1292.903, 140.7021
1293.972, 244.8589
1295.040, 128.0186
1296.108, 170.3760
1297.175, 150.7925
1298.243, 64.66211
1299.310, 238.9824
1300.377, 144.5151
1301.444, 132.6772
1302.511, 90.92627
1303.578, 90.13623
1304.645, 73.97900
1305.711, 155.5679
1306.777, 76.97510
1307.843, 73.15771
1308.909, 119.3262
1309.975, 223.4814
1311.040, 207.8403
1312.105, 267.9702
1313.171, 207.0869
1314.235, 187.1890
1315.300, 150.2803
1316.365, 174.3604
1317.429, 223.4302
1318.494, 217.4893
1319.558, 294.6343
1320.622, 187.6729
1321.685, 260.7012
1322.749, 131.7192
1323.812, 246.7280
1324.876, 171.7266
1325.939, 131.0898
1327.001, 203.0693
1328.064, 200.7246
1329.127, 138.6548
1330.189, 166.4014
1331.251, 120.1255
1332.313, 175.4180
1333.375, 94.61719
1334.437, 41.23779
1335.498, 114.1475
1336.560, 92.66992
1337.621, 115.6787
1338.682, 169.7393
1339.742, 143.6172
1340.803, 174.4097
1341.863, 145.2734
1342.924, 241.1299
1343.984, 141.9790
1345.044, 161.8218
1346.104, 138.1685
1347.163, 231.9561
1348.222, 123.7549
1349.282, 113.5713
1350.341, 217.3813
1351.400, 171.1860
1352.458, 230.9785
1353.517, 94.55566
1354.575, 147.3374
1355.633, 163.1138
1356.691, 73.88379
1357.749, 53.64990
1358.807, 107.4102
1359.864, 208.1665
1360.922, 265.9219
1361.979, 113.6738
1363.036, 90.38916
1364.092, 122.1016
1365.149, 183.3569
1366.205, 76.07080
1367.262, 153.1094
1368.318, 185.8296
1369.374, 51.57471
1370.429, 129.2598
1371.485, 158.7837
1372.540, 103.4697
1373.596, 109.0439
1374.651, 45.72559
1375.705, 41.39941
1376.760, 74.06982
1377.815, 213.7437
1378.869, 50.42383
1379.923, 101.2139
1380.977, 164.9473
1382.031, 97.62891
1383.085, 52.36377
1384.138, 226.2100
1385.191, 42.90381
1386.244, 161.6201
1387.297, 167.4595
1388.350, 154.2749
1389.403, 14.01123
1390.455, 125.1455
1391.507, 50.90430
1392.559, 94.66260
1393.611, 82.44238
1394.663, 36.24121
1395.714, 173.0688
1396.766, 53.28857
1397.817, 32.16992
1398.868, 98.12793
1399.919, 60.04980
1400.969, 21.02783
1402.020, 122.9795
1403.070, 125.0391
1404.120, 25.00244
1405.170, 106.2773
1406.220, 16.60059
1407.270, 158.5923
1408.319, 53.60693
1409.368, 89.64502
1410.417, 81.88330
1411.466, 218.2451
1412.515, 74.29102
1413.563, 111.3398
1414.612, 82.39795
1415.660, 46.44482
1416.708, 72.49756
1417.756, 85.54883
1418.803, 11.65723
1419.851, 92.71436
1420.898, 148.8975
1421.945, 27.03760
1422.992, 28.13477
1424.039, 28.92236
1425.086, 174.9629
1426.132, 1.819824
1427.178, 187.6577
1428.225, 168.4775
1429.270, 137.2754
1430.316, 68.04541
1431.362, 66.77783
1432.407, 174.4707
1433.452, 150.1489
1434.497, 181.8047
1435.542, 149.4355
1436.587, 211.1143
1437.631, 113.9785
1438.676, 275.6914
1439.720, 237.8198
1440.764, 175.0059
1441.807, 297.1899
1442.851, 308.3774
1443.895, 307.5684
1444.938, 249.7593
1445.981, 232.9585
1447.024, 367.1689
1448.066, 343.3838
1449.109, 325.6104
1450.151, 337.8164
1451.194, 323.0845
1452.236, 414.3623
1453.277, 330.6460
1454.319, 379.9355
1455.361, 391.2305
1456.402, 343.5381
1457.443, 431.8521
1458.484, 298.1738
1459.525, 288.5049
1460.565, 312.8457
1461.606, 272.1958
1462.646, 279.2935
1463.686, 396.9253
1464.726, 258.3066
1465.766, 279.6938
1466.805, 260.0889
1467.845, 373.4966
1468.884, 184.8857
1469.923, 161.2808
1470.962, 292.6670
1472.000, 222.0991
1473.039, 137.5444
1474.077, 148.0039
1475.115, 260.4653
1476.153, 154.9531
1477.191, 197.3604
1478.229, 232.8467
1479.266, 104.3496
1480.303, 210.8130
1481.340, 164.2593
1482.377, 164.7944
1483.414, 156.1885
1484.451, 166.6147
1485.487, 149.8076
1486.523, 181.4458
1487.559, 89.64502
1488.595, 78.05420
1489.631, 0.5307620
1490.666, 110.8608
1491.701, 13.95996
1492.736, 146.3882
1493.771, 58.57568
1494.806, 73.62500
1495.841, 40.56494
1496.875, 110.7930
1497.909, 89.16455
1498.943, 67.55322
1499.977, 138.9614
1501.011, 87.38672
1502.045, 101.8340
1503.078, 149.2949
1504.111, 44.76025
1505.144, 60.23047
1506.177, 152.7051
1507.209, 62.18408
1508.242, 36.66602
1509.274, 138.1509
1510.306, 125.6372
1511.338, 47.12451
1512.370, 57.61230
1513.402, 103.1001
1514.433, 9.414063
1515.464, 140.0708
1516.495, 126.5522
1517.526, 95.03125
1518.557, 142.5054
1519.587, 99.97363
1520.617, 21.44922
1521.648, 144.9316
1522.678, 68.40771
1523.707, 98.87500
1524.737, 76.33740
1525.766, 158.9077
1526.796, 62.78906
1527.825, 133.3491
1528.854, 33.87646
1529.882, 54.21436
1530.911, 157.3169
1531.939, 140.8320
1532.967, 131.3579
1533.995, 20.40479
1535.023, 66.67773
1536.051, 92.21924
1537.078, 104.6445
1538.106, 94.04541
1539.133, 251.2686
1540.160, 111.2661
1541.186, 163.2031
1542.213, 68.86963
1543.239, 180.1206
1544.266, 55.39307
1545.292, 90.13574
1546.318, 57.33936
1547.343, 49.54199
1548.369, 106.8433
1549.394, 112.2212
1550.419, 195.1709
1551.444, 171.5366
1552.469, 183.0396
1553.494, 148.0327
1554.518, 149.0645
1555.542, 159.8330
1556.566, 138.3662
1557.590, 147.5776
1558.614, 58.47217
1559.638, 16.51318
1560.661, 0.5864260
1561.684, 7.304688
1562.707, 0.0000000E+00
##END=



