##NAMES=Akermanite
##RRUFFID=R061100
##IDEAL CHEMISTRY=Ca_2_MgSi_2_O_7_
##LOCALITY=Lago de Vico, Viterbo, Italy
##OWNER=Michael Scott
##SOURCE=Michael Scott
##DESCRIPTION=Colorless to white short prismatic crystals
##STATUS=The identification of this mineral has been confirmed by X-ray diffraction and chemical analysis
##URL=rruff.info/R061100
##MEASURED CHEMISTRY=(Ca_1.80_Na_0.20_)_Σ=2_(Mg_0.58_Al_0.38_Fe_0.04_)_Σ=1_(Si_1.82_Al_0.18_)_Σ=2_O_7_
##PIN_ID=M00238
##ORIENTATION=Laser parallel to a* (1 0 0). Fiducial mark perpendicular to laser is parallel to -c [0 0 -1]
206.6970, 0.0000000E+00
207.9250, 121.1875
209.1530, 12.23438
210.3800, 21.92773
211.6080, 177.9160
212.8350, 415.6680
214.0620, 377.4785
215.2880, 433.5508
216.5150, 657.4980
217.7410, 770.1973
218.9680, 808.8613
220.1940, 1037.041
221.4190, 1107.385
222.6450, 1499.492
223.8700, 1621.934
225.0960, 1698.312
226.3210, 1798.271
227.5450, 1773.537
228.7700, 2043.971
229.9940, 1992.717
231.2190, 2108.951
232.4430, 2677.701
233.6660, 2529.926
234.8900, 2723.451
236.1140, 2587.994
237.3370, 2511.283
238.5600, 2156.084
239.7830, 1901.211
241.0050, 1623.518
242.2280, 1754.875
243.4500, 1497.207
244.6720, 1459.467
245.8940, 1301.600
247.1160, 983.6602
248.3370, 1041.746
249.5580, 795.1348
250.7790, 896.9707
252.0000, 923.5508
253.2210, 693.0020
254.4410, 621.2578
255.6620, 596.6797
256.8820, 538.2656
258.1020, 811.6777
259.3210, 674.7754
260.5410, 853.5078
261.7600, 812.8809
262.9790, 385.5547
264.1980, 416.3594
265.4170, 406.2109
266.6360, 722.1016
267.8540, 395.0352
269.0720, 627.0254
270.2900, 638.1172
271.5080, 625.3535
272.7260, 638.7695
273.9430, 673.4004
275.1600, 740.2754
276.3770, 709.4277
277.5940, 918.8848
278.8100, 1044.674
280.0270, 1033.639
281.2430, 1142.992
282.4590, 1301.473
283.6750, 1513.709
284.8910, 1722.182
286.1060, 1915.234
287.3210, 2151.520
288.5360, 2202.016
289.7510, 2467.266
290.9660, 3185.502
292.1800, 3262.195
293.3950, 3774.945
294.6090, 4101.322
295.8230, 4551.754
297.0360, 5005.760
298.2500, 5612.508
299.4630, 6040.434
300.6760, 6596.504
301.8890, 7335.916
303.1020, 7627.629
304.3150, 8407.789
305.5270, 8889.250
306.7390, 9405.465
307.9510, 9785.113
309.1630, 10215.46
310.3750, 10321.61
311.5860, 10395.77
312.7970, 10241.50
314.0080, 10098.86
315.2190, 9510.502
316.4300, 9339.211
317.6400, 8804.852
318.8510, 8058.576
320.0610, 7657.053
321.2710, 7057.184
322.4800, 6552.521
323.6900, 6139.699
324.8990, 5541.920
326.1080, 5159.293
327.3170, 4597.473
328.5260, 4208.803
329.7340, 3816.594
330.9430, 3420.818
332.1510, 3107.051
333.3590, 2773.871
334.5670, 2468.551
335.7740, 2218.842
336.9820, 1973.496
338.1890, 1907.760
339.3960, 1730.889
340.6030, 1692.883
341.8100, 1529.238
343.0160, 1369.480
344.2220, 1285.082
345.4280, 1173.557
346.6340, 1163.908
347.8400, 883.1348
349.0460, 850.2383
350.2510, 973.2246
351.4560, 643.0957
352.6610, 836.3320
353.8660, 899.7949
355.0700, 675.5195
356.2750, 806.7246
357.4790, 773.1680
358.6830, 742.7910
359.8870, 796.5488
361.0910, 888.4023
362.2940, 688.3301
363.4970, 644.3027
364.7000, 705.3008
365.9030, 769.3086
367.1060, 528.3125
368.3080, 639.2930
369.5110, 608.2402
370.7130, 261.1465
371.9150, 358.9961
373.1170, 266.7832
374.3180, 313.5020
375.5200, 308.1426
376.7210, 33.70312
377.9220, 126.8438
379.1230, 68.54102
380.3230, 28.61719
381.5240, 0.6484380
382.7240, 119.4531
383.9240, 58.72656
385.1240, 188.1582
386.3240, 93.78125
387.5230, 49.57227
388.7230, 130.5215
389.9220, 148.6504
391.1210, 92.96289
392.3200, 125.4473
393.5180, 159.1113
394.7170, 134.9668
395.9150, 81.01367
397.1130, 78.24414
398.3110, 76.66797
399.5080, 137.2949
400.7060, 20.14453
401.9030, 125.1934
403.1000, 22.47266
404.2970, 224.9590
405.4940, 159.7051
406.6910, 9.300781
407.8870, 23.89062
409.0830, 107.2832
410.2790, 157.6328
411.4750, 92.47852
412.6710, 45.53711
413.8660, 97.78711
415.0610, 38.13477
416.2560, 90.77539
417.4510, 96.19727
418.6460, 167.6348
419.8410, 77.87109
421.0350, 121.7109
422.2290, 265.1465
423.4230, 184.4492
424.6170, 129.6152
425.8100, 97.64062
427.0040, 145.5312
428.1970, 205.2871
429.3900, 296.9121
430.5830, 316.4062
431.7760, 380.7695
432.9680, 454.0020
434.1610, 599.0859
435.3530, 732.0234
436.5450, 442.7949
437.7360, 718.2637
438.9280, 651.5352
440.1190, 816.5215
441.3110, 712.1836
442.5020, 671.5703
443.6930, 798.6582
444.8830, 765.4336
446.0740, 996.9336
447.2640, 1022.186
448.4540, 1197.189
449.6440, 1026.959
450.8340, 1190.402
452.0240, 1235.664
453.2130, 1500.654
454.4020, 1331.424
455.5910, 1520.980
456.7800, 1368.305
457.9690, 1648.381
459.1570, 1362.354
460.3460, 1374.221
461.5340, 1435.977
462.7220, 1530.637
463.9090, 1463.213
465.0970, 1556.715
466.2840, 1558.146
467.4720, 1679.512
468.6590, 1578.812
469.8460, 1641.053
471.0320, 1656.232
472.2190, 1930.359
473.4050, 1845.432
474.5910, 1745.449
475.7770, 1990.416
476.9630, 1907.336
478.1490, 1956.205
479.3340, 2095.021
480.5190, 2147.801
481.7040, 1969.537
482.8890, 2171.227
484.0740, 1973.867
485.2580, 2289.459
486.4430, 2338.002
487.6270, 1933.502
488.8110, 1998.980
489.9950, 1990.420
491.1780, 1886.877
492.3620, 2030.293
493.5450, 1835.686
494.7280, 1598.705
495.9110, 1814.053
497.0940, 1704.418
498.2760, 1635.473
499.4590, 1546.822
500.6410, 1620.145
501.8230, 1508.354
503.0050, 1498.580
504.1860, 1458.811
505.3680, 1344.721
506.5490, 1503.434
507.7300, 1575.422
508.9110, 1443.637
510.0920, 1458.818
511.2730, 1402.377
512.4530, 1466.471
513.6330, 1565.400
514.8130, 1608.576
515.9930, 1694.072
517.1730, 1676.867
518.3520, 1795.514
519.5320, 1778.576
520.7110, 1682.975
521.8900, 1767.475
523.0690, 1767.424
524.2470, 1779.150
525.4260, 1853.832
526.6040, 1717.361
527.7820, 1592.625
528.9600, 1592.676
530.1380, 1586.365
531.3150, 1385.840
532.4930, 1340.041
533.6700, 1016.609
534.8470, 1074.016
536.0240, 964.1816
537.2000, 846.7441
538.3770, 810.5723
539.5530, 738.6426
540.7290, 780.3379
541.9050, 675.3008
543.0810, 674.7969
544.2570, 692.0195
545.4320, 580.8789
546.6080, 542.9355
547.7830, 471.9961
548.9580, 861.5781
550.1320, 851.9922
551.3070, 345.0918
552.4810, 817.9531
553.6550, 518.0508
554.8300, 722.5859
556.0030, 330.9922
557.1770, 500.0820
558.3510, 336.8066
559.5240, 537.1328
560.6970, 562.9199
561.8700, 562.2910
563.0430, 386.8789
564.2160, 397.8984
565.3880, 367.1758
566.5600, 393.7188
567.7320, 467.7559
568.9040, 404.4062
570.0760, 624.6895
571.2480, 578.6934
572.4190, 654.8164
573.5900, 646.3750
574.7610, 575.1973
575.9320, 539.5840
577.1030, 798.4863
578.2740, 810.1387
579.4440, 960.9062
580.6140, 989.3574
581.7840, 1112.463
582.9540, 1288.100
584.1240, 1315.535
585.2930, 1241.475
586.4630, 1447.248
587.6320, 1471.600
588.8010, 1730.924
589.9700, 1863.221
591.1380, 2141.488
592.3070, 2197.730
593.4750, 2372.949
594.6430, 2517.143
595.8110, 3070.312
596.9790, 3372.465
598.1460, 3682.590
599.3140, 4009.701
600.4810, 4334.070
601.6480, 4900.139
602.8150, 5321.289
603.9820, 5897.320
605.1480, 6039.338
606.3150, 6747.338
607.4810, 7113.473
608.6470, 7611.438
609.8130, 8144.383
610.9790, 8754.316
612.1440, 9433.234
613.3100, 9760.133
614.4750, 10272.27
615.6400, 10862.13
616.8050, 11148.13
617.9690, 11587.20
619.1340, 12179.03
620.2980, 12609.15
621.4620, 12956.32
622.6260, 13196.39
623.7900, 13216.27
624.9540, 13272.21
626.1170, 13335.22
627.2810, 12823.95
628.4440, 12790.66
629.6070, 12232.57
630.7690, 11961.70
631.9320, 11373.96
633.0950, 10782.75
634.2570, 10251.50
635.4190, 9746.992
636.5810, 9163.053
637.7430, 8874.074
638.9040, 8561.996
640.0660, 8181.822
641.2270, 8100.365
642.3880, 8164.949
643.5490, 7864.205
644.7100, 8028.910
645.8700, 8216.490
647.0310, 8700.201
648.1910, 9511.656
649.3510, 10488.70
650.5110, 11623.11
651.6710, 13359.58
652.8300, 14748.38
653.9900, 16496.27
655.1490, 18300.60
656.3080, 19508.15
657.4670, 21152.11
658.6250, 22776.00
659.7840, 23476.30
660.9420, 24228.63
662.1010, 24670.00
663.2590, 24729.38
664.4170, 24364.76
665.5740, 23998.19
666.7320, 22570.64
667.8890, 22062.16
669.0460, 20565.72
670.2030, 19135.30
671.3600, 17921.94
672.5170, 16257.62
673.6740, 14808.35
674.8300, 13448.14
675.9860, 12065.98
677.1420, 10954.88
678.2980, 9722.811
679.4540, 8559.783
680.6090, 7620.797
681.7650, 7000.871
682.9200, 6198.969
684.0750, 5499.121
685.2300, 4844.299
686.3840, 4427.561
687.5390, 3766.887
688.6930, 3517.234
689.8470, 3059.611
691.0010, 2815.773
692.1550, 2556.270
693.3090, 2356.816
694.4620, 2261.398
695.6160, 2122.926
696.7690, 1965.596
697.9220, 1861.312
699.0750, 1723.045
700.2280, 1475.924
701.3800, 1440.812
702.5320, 1339.711
703.6850, 1120.611
704.8370, 1265.523
705.9880, 964.4453
707.1400, 942.3848
708.2920, 876.3320
709.4430, 981.2871
710.5940, 796.2500
711.7450, 883.2168
712.8960, 668.1875
714.0470, 738.1602
715.1970, 587.1348
716.3480, 696.1035
717.4980, 615.0781
718.6480, 410.0488
719.7980, 556.0234
720.9470, 434.9941
722.0970, 516.9648
723.2460, 434.9355
724.3960, 389.9043
725.5450, 518.8750
726.6940, 511.8398
727.8420, 268.8047
728.9910, 369.7656
730.1390, 368.7246
731.2870, 449.6816
732.4350, 316.6387
733.5830, 291.5938
734.7310, 193.5469
735.8790, 282.4980
737.0260, 233.4473
738.1730, 49.39844
739.3200, 381.3477
740.4670, 90.29297
741.6140, 332.2422
742.7610, 256.1855
743.9070, 110.1328
745.0530, 71.07812
746.1990, 129.0254
747.3450, 215.9727
748.4910, 160.9219
749.6370, 264.8711
750.7820, 154.8223
751.9270, 40.77539
753.0720, 300.7305
754.2170, 2.314453
755.3620, 39.62695
756.5070, 165.5703
757.6510, 24.48633
758.7950, 6.566406
759.9400, 24.33984
761.0840, 61.24414
762.2270, 43.14844
763.3710, 20.05469
764.5140, 96.95898
765.6580, 88.13672
766.8010, 2.283203
767.9440, 222.4434
769.0870, 10.27344
770.2290, 56.01953
771.3720, 169.3496
772.5140, 101.7754
773.6560, 318.2617
774.7990, 110.9258
775.9400, 380.6504
777.0820, 172.5840
778.2240, 100.3828
779.3650, 249.6406
780.5060, 308.8027
781.6470, 237.1328
782.7880, 331.5918
783.9290, 430.2285
785.0690, 220.0938
786.2100, 278.3398
787.3500, 41.21484
788.4900, 128.3711
789.6300, 166.5996
790.7700, 34.91406
791.9090, 31.75195
793.0490, 67.57422
794.1880, 6.4452998E-02
795.3270, 20.29883
796.4660, 88.32422
797.6050, 201.9609
798.7440, 379.6055
799.8820, 409.8477
801.0200, 300.9199
802.1590, 467.5938
803.2970, 348.2754
804.4340, 293.9668
805.5720, 584.6680
806.7100, 359.3789
807.8470, 452.1016
808.9840, 291.8301
810.1210, 484.5684
811.2580, 651.3164
812.3950, 653.0762
813.5310, 683.8047
814.6680, 518.6211
815.8040, 631.4082
816.9400, 487.2012
818.0760, 582.0059
819.2120, 592.8184
820.3470, 614.6406
821.4830, 617.4707
822.6180, 547.3125
823.7530, 518.1602
824.8880, 735.0176
826.0230, 355.8848
827.1580, 543.7617
828.2920, 726.6465
829.4270, 681.5391
830.5610, 566.4395
831.6950, 863.3516
832.8290, 857.2715
833.9620, 867.1992
835.0960, 935.1367
836.2290, 776.1094
837.3620, 893.0898
838.4950, 877.0762
839.6280, 1116.072
840.7610, 1196.135
841.8940, 1269.223
843.0260, 1395.348
844.1580, 1372.516
845.2910, 1418.701
846.4230, 1469.902
847.5540, 1565.264
848.6860, 1606.355
849.8170, 1900.617
850.9490, 1910.893
852.0800, 2245.193
853.2110, 2223.504
854.3420, 2382.842
855.4730, 2429.219
856.6030, 2608.373
857.7340, 2761.000
858.8640, 2959.422
859.9940, 3249.887
861.1240, 3327.396
862.2540, 3487.938
863.3830, 3612.496
864.5130, 3484.064
865.6420, 3459.691
866.7710, 3793.355
867.9000, 3603.035
869.0290, 3346.742
870.1570, 3640.457
871.2860, 3271.188
872.4140, 3080.932
873.5430, 3044.686
874.6710, 2892.178
875.7980, 2871.988
876.9260, 2961.781
878.0540, 2843.711
879.1810, 3074.662
880.3080, 3272.629
881.4360, 3618.471
882.5630, 3791.496
883.6890, 4260.547
884.8160, 4745.611
885.9420, 5456.689
887.0690, 5949.779
888.1950, 6261.639
889.3210, 6733.760
890.4470, 6989.766
891.5730, 7243.740
892.6980, 7386.961
893.8240, 7606.887
894.9490, 7885.752
896.0740, 8397.742
897.1990, 8445.904
898.3240, 9099.018
899.4480, 9586.088
900.5730, 10533.46
901.6970, 11240.85
902.8210, 12677.05
903.9450, 13935.02
905.0690, 15135.87
906.1930, 16908.21
907.3160, 18837.59
908.4400, 20661.23
909.5630, 22266.31
910.6860, 23916.44
911.8090, 24926.66
912.9320, 25894.99
914.0550, 26734.61
915.1770, 27039.19
916.2990, 27008.11
917.4210, 26940.58
918.5440, 26637.18
919.6650, 26200.67
920.7870, 25827.43
921.9090, 25643.59
923.0300, 24821.41
924.1510, 23990.23
925.2720, 23069.74
926.3930, 21683.18
927.5140, 20515.19
928.6350, 18862.00
929.7550, 17444.43
930.8760, 15879.93
931.9960, 14466.07
933.1160, 13278.25
934.2360, 12421.45
935.3550, 11076.68
936.4750, 10191.95
937.5940, 9686.250
938.7140, 8812.594
939.8330, 8015.965
940.9520, 7735.367
942.0710, 6999.807
943.1890, 6723.275
944.3080, 6529.775
945.4260, 6267.309
946.5440, 6001.873
947.6620, 6019.469
948.7800, 5731.098
949.8980, 5592.764
951.0160, 5792.461
952.1330, 5750.191
953.2500, 5918.949
954.3680, 6040.740
955.4850, 5820.562
956.6010, 5751.414
957.7180, 5859.299
958.8350, 5749.215
959.9510, 5890.162
961.0670, 5743.137
962.1830, 5864.143
963.2990, 5662.750
964.4150, 5242.254
965.5310, 5186.361
966.6460, 5055.502
967.7620, 4681.670
968.8770, 4663.867
969.9920, 4387.801
971.1070, 3948.057
972.2210, 3869.344
973.3360, 4262.662
974.4500, 4047.932
975.5650, 3869.297
976.6790, 3818.205
977.7930, 3769.742
978.9070, 3653.746
980.0200, 3888.533
981.1340, 3859.045
982.2470, 3856.150
983.3610, 3850.242
984.4740, 3901.891
985.5870, 4127.389
986.6990, 4337.189
987.8120, 4250.240
988.9250, 4286.832
990.0370, 4706.570
991.1490, 4795.490
992.2610, 5180.455
993.3730, 5429.033
994.4850, 5399.352
995.5960, 5530.566
996.7080, 5905.010
997.8190, 5906.908
998.9300, 6178.297
1000.041, 6168.340
1001.152, 6327.729
1002.263, 6223.297
1003.373, 6046.398
1004.484, 5737.863
1005.594, 5511.906
1006.704, 5506.029
1007.814, 4860.039
1008.924, 5108.627
1010.034, 4702.484
1011.143, 4429.807
1012.253, 4061.098
1013.362, 3716.285
1014.471, 3667.975
1015.580, 3600.170
1016.689, 3315.877
1017.797, 3248.291
1018.906, 2995.697
1020.014, 2938.123
1021.122, 2680.859
1022.230, 2794.646
1023.338, 2419.873
1024.446, 2401.654
1025.554, 2466.189
1026.661, 2138.574
1027.768, 2186.766
1028.875, 1823.480
1029.983, 1887.098
1031.089, 1851.068
1032.196, 1747.422
1033.303, 1900.475
1034.409, 1765.465
1035.515, 1742.270
1036.622, 1762.828
1037.728, 1698.547
1038.833, 1655.395
1039.939, 1557.070
1041.045, 1361.684
1042.150, 1294.539
1043.255, 1315.635
1044.360, 1173.564
1045.465, 1199.775
1046.570, 1215.043
1047.675, 1021.691
1048.779, 1116.195
1049.884, 944.0840
1050.988, 935.7695
1052.092, 953.2324
1053.196, 737.9727
1054.300, 706.7695
1055.404, 643.1328
1056.507, 707.8320
1057.610, 556.9375
1058.714, 845.7969
1059.817, 843.6777
1060.920, 950.5664
1062.022, 731.4766
1063.125, 603.5547
1064.228, 453.9922
1065.330, 490.9297
1066.432, 725.8691
1067.534, 637.9141
1068.636, 733.9785
1069.738, 501.9238
1070.840, 599.6875
1071.941, 768.6367
1073.042, 438.5840
1074.144, 463.9375
1075.245, 277.8848
1076.346, 566.8359
1077.446, 479.4277
1078.547, 723.3750
1079.647, 649.3750
1080.748, 466.3203
1081.848, 688.9707
1082.948, 668.4961
1084.048, 695.4336
1085.148, 627.5977
1086.247, 555.3203
1087.347, 336.2500
1088.446, 498.1758
1089.545, 339.4219
1090.644, 451.3398
1091.743, 321.2539
1092.842, 224.1660
1093.940, 200.0703
1095.039, 213.9707
1096.137, 83.60742
1097.235, 136.3652
1098.333, 274.4160
1099.431, 62.28906
1100.529, 104.1973
1101.627, 115.9434
1102.724, 181.8555
1103.822, 82.83008
1104.919, 144.6133
1106.016, 240.6133
1107.113, 46.95117
1108.209, 135.2754
1109.306, 127.4805
1110.402, 35.01953
1111.499, 29.25586
1112.595, 27.15234
1113.691, 81.31055
1114.787, 46.96875
1115.883, 13.33594
1116.978, 66.19336
1118.074, 4.132813
1119.169, 53.57812
1120.264, 92.37695
1121.359, 83.73828
1122.454, 13.63086
1123.549, 45.28516
1124.644, 101.2461
1125.738, 127.2812
1126.832, 44.40625
1127.927, 14.58008
1129.021, 94.21289
1130.115, 154.0098
1131.208, 83.33398
1132.302, 9.269531
1133.396, 25.05859
1134.489, 60.48047
1135.582, 13.00781
1136.675, 198.5039
1137.768, 76.98242
1138.861, 6.880859
1139.954, 64.55273
1141.046, 226.8477
1142.138, 73.63477
1143.231, 7.468750
1144.323, 131.6289
1145.415, 42.75977
1146.507, 17.74219
1147.598, 8.771484
1148.690, 81.15625
1149.781, 89.06250
1150.872, 90.86914
1151.964, 38.94922
1153.054, 39.09180
1154.145, 26.09375
1155.236, 113.3359
1156.327, 95.32031
1157.417, 157.1543
1158.507, 34.82031
1159.597, 73.45703
1160.687, 103.0703
1161.777, 83.66016
1162.867, 86.77344
1163.956, 2.720703
1165.046, 56.15820
1166.135, 91.56836
1167.224, 332.9551
1168.313, 14.31836
1169.402, 113.6367
1170.491, 3.931641
1171.580, 145.1758
1172.668, 149.4062
1173.756, 117.6113
1174.845, 204.7891
1175.933, 131.9395
1177.020, 134.8535
1178.108, 72.16211
1179.196, 103.2305
1180.283, 71.26562
1181.371, 104.2734
1182.458, 299.2441
1183.545, 148.1934
1184.632, 153.1113
1185.719, 77.99609
1186.805, 163.1523
1187.892, 120.7188
1188.978, 328.3867
1190.065, 367.0254
1191.151, 238.6328
1192.237, 474.2109
1193.323, 161.7578
1194.408, 95.27148
1195.494, 314.7480
1196.579, 363.1973
1197.664, 180.6113
1198.750, 177.9961
1199.835, 303.3477
1200.919, 23.66602
1202.004, 424.9277
1203.089, 290.1582
1204.173, 117.3574
1205.258, 501.5195
1206.342, 521.6484
1207.426, 98.74805
1208.510, 425.8066
1209.594, 207.6250
1210.677, 244.8320
1211.761, 56.79297
1212.844, 108.0781
1213.927, 300.5859
1215.010, 221.4297
1216.093, 256.2422
1217.176, 319.2871
1218.259, 259.0312
1219.341, 152.7480
1220.424, 344.4277
1221.506, 353.2891
1222.588, 273.3457
1223.670, 377.9277
1224.752, 265.4746
1225.834, 62.98828
1226.915, 99.45703
1227.997, 196.8828
1229.078, 282.2734
1230.159, 229.6328
1231.240, 433.9609
1232.321, 385.7188
1233.402, 191.9805
1234.483, 238.5645
1235.563, 352.7617
1236.644, 221.0039
1237.724, 209.1426
1238.804, 155.7402
1239.884, 389.8438
1240.964, 132.3320
1242.044, 308.2148
1243.123, 178.1855
1244.203, 411.5898
1245.282, 229.9707
1246.361, 234.7949
1247.440, 140.7617
1248.519, 26.58008
1249.598, 196.8008
1250.676, 209.6348
1251.755, 63.31836
1252.833, 251.8086
1253.911, 214.2559
1254.989, 360.0781
1256.067, 218.1602
1257.145, 272.3398
1258.223, 412.2852
1259.300, 323.7656
1260.378, 181.6484
1261.455, 256.9746
1262.532, 142.9473
1263.609, 215.7363
1264.686, 161.9883
1265.763, 221.8672
1266.840, 238.1641
1267.916, 61.37500
1268.992, 131.6875
1270.069, 77.42188
1271.145, 251.8770
1272.221, 13.14062
1273.296, 312.8574
1274.372, 6.046875
1275.448, 185.5312
1276.523, 194.5977
1277.598, 153.1465
1278.673, 138.9785
1279.749, 105.8301
1280.823, 120.8613
1281.898, 57.11133
1282.973, 143.5449
1284.047, 194.5449
1285.122, 163.9902
1286.196, 84.83203
1287.270, 366.8672
1288.344, 460.8926
1289.418, 205.5312
1290.491, 162.2090
1291.565, 464.6914
1292.638, 115.2852
1293.712, 294.3301
1294.785, 205.5273
1295.858, 289.9316
1296.931, 447.5781
1298.003, 358.1250
1299.076, 177.5410
1300.149, 328.3477
1301.221, 342.7617
1302.293, 470.2441
1303.365, 117.5664
1304.437, 140.0801
1305.509, 129.4102
1306.581, 323.7246
1307.652, 263.7305
1308.724, 186.8965
1309.795, 393.7246
1310.866, 447.8145
1311.937, 360.2109
1313.008, 347.4336
1314.079, 495.6445
1315.150, 480.3711
1316.220, 59.74414
1317.291, 108.7500
1318.361, 357.0332
1319.431, 551.3047
1320.501, 104.5586
1321.571, 382.7988
1322.641, 292.8633
1323.710, 415.5664
1324.780, 406.7617
1325.849, 180.9414
1326.918, 262.0020
1327.987, 323.0312
1329.056, 434.1699
1330.125, 271.4766
1331.194, 186.5859
1332.263, 118.6797
1333.331, 136.2949
1334.399, 164.4238
1335.467, 247.4766
1336.535, 474.8750
1337.603, 515.5449
1338.671, 565.1367
1339.739, 446.8691
1340.806, 535.1543
1341.874, 311.5527
1342.941, 191.5195
1344.008, 147.4531
1345.075, 23.40234
1346.142, 306.3359
1347.209, 249.2617
1348.275, 270.8516
1349.342, 32.75781
1350.408, 4.347656
1351.475, 431.5352
1352.541, 371.4023
1353.607, 461.2617
1354.673, 242.3711
1355.738, 242.3477
1356.804, 335.0156
1357.869, 309.1719
1358.935, 166.9531
1360.000, 37.76953
1361.065, 172.6016
1362.130, 0.8906250
1363.195, 265.9336
1364.259, 145.6914
1365.324, 370.4531
1366.388, 368.1719
1367.453, 40.72656
1368.517, 241.5391
1369.581, 31.02734
1370.645, 168.8398
1371.709, 65.49609
1372.772, 173.5781
1373.836, 100.3984
1374.899, 121.2031
1375.963, 263.8867
1377.026, 76.64453
1378.089, 196.4492
1379.152, 233.3320
1380.214, 69.38281
1381.277, 129.5117
1382.340, 102.3672
1383.402, 359.5312
1384.464, 134.4492
1385.526, 364.3750
1386.588, 277.3047
1387.650, 25.76953
1388.712, 75.19922
1389.774, 258.1875
1390.835, 346.0859
1391.896, 161.1953
1392.958, 152.1875
1394.019, 332.1914
1395.080, 406.1836
1396.141, 191.7422
1397.201, 166.6094
1398.262, 263.3945
1399.323, 154.4766
1400.383, 247.5625
1401.443, 68.67578
1402.503, 322.2500
1403.563, 114.3711
1404.623, 271.5117
1405.683, 155.6602
1406.742, 346.8164
1407.802, 276.8672
1408.861, 63.26172
1409.920, 388.7031
1410.980, 85.40625
1412.039, 252.5859
1413.097, 148.1953
1414.156, 85.17188
1415.215, 192.0000
1416.273, 30.18359
1417.331, 43.36719
1418.390, 257.5586
1419.448, 71.75781
1420.506, 64.02344
1421.564, 187.9727
1422.621, 97.23047
1423.679, 211.4922
1424.736, 142.7695
1425.794, 215.0312
1426.851, 202.2109
1427.908, 47.59375
1428.965, 251.6016
1430.022, 136.7930
1431.079, 295.9844
1432.135, 138.1328
1433.192, 198.2695
1434.248, 48.40625
1435.304, 59.53906
1436.360, 145.9023
1437.416, 377.5234
1438.472, 261.9961
1439.528, 348.0391
1440.583, 205.3477
1441.639, 244.5742
1442.694, 349.7461
1443.749, 516.0938
1444.804, 330.4375
1445.859, 490.7812
1446.914, 356.1328
1447.969, 426.4805
1449.024, 202.8477
1450.078, 381.2227
1451.132, 494.6094
1452.187, 339.0039
1453.241, 293.4023
1454.295, 535.8203
1455.349, 365.2539
1456.402, 433.3906
1457.456, 363.8398
1458.509, 481.0430
1459.563, 578.9844
1460.616, 449.4531
1461.669, 429.9531
1462.722, 467.4648
1463.775, 511.7852
1464.828, 556.8828
1465.880, 507.0352
1466.933, 486.9648
1467.985, 390.3477
1469.037, 288.6953
1470.090, 230.2500
1471.142, 481.8555
1472.193, 251.5078
1473.245, 367.2031
1474.297, 485.9219
1475.348, 327.6641
1476.400, 398.4102
1477.451, 223.9141
1478.502, 159.6797
1479.553, 267.4609
1480.604, 117.2617
1481.655, 198.0742
1482.706, 317.9141
1483.756, 11.78125
1484.807, 277.6953
1485.857, 258.6367
1486.907, 185.5938
1487.957, 14.43359
1489.007, 114.5312
1490.057, 218.0469
1491.106, 96.80859
1492.156, 388.1406
1493.205, 157.8516
1494.255, 135.5000
1495.304, 157.1445
1496.353, 116.7930
1497.402, 222.9336
1498.451, 11.54297
1499.500, 258.1641
1500.548, 156.6328
1501.597, 50.17969
1502.645, 179.7930
1503.693, 217.4219
1504.741, 74.08594
1505.789, 362.7422
1506.837, 15.41406
1507.885, 88.08594
1508.932, 15.76172
1509.980, 221.4453
1511.027, 122.1289
1512.075, 263.8281
1513.122, 317.5352
1514.169, 515.2461
1515.216, 108.9688
1516.262, 384.6992
1517.309, 66.42578
1518.356, 270.1680
1519.402, 202.9023
1520.448, 146.6250
1521.495, 183.3438
1522.541, 141.1523
1523.587, 72.80859
1524.632, 173.5156
1525.678, 256.2031
1526.724, 358.8477
1527.769, 286.6211
1528.814, 340.6602
1529.860, 295.4844
1530.905, 314.0000
1531.950, 174.3672
1532.995, 131.7812
1534.039, 42.77734
1535.084, 1.722656
1536.128, 39.30859
1537.173, 228.0469
1538.217, 148.3398
1539.261, 343.9297
1540.305, 277.5781
1541.349, 274.2812
1542.393, 347.7734
1543.436, 274.3008
1544.480, 314.1953
1545.523, 223.5508
1546.567, 5.667969
1547.610, 452.0938
1548.653, 231.6367
1549.696, 480.3242
1550.739, 643.0703
1551.781, 308.1562
1552.824, 498.1562
1553.867, 521.9766
1554.909, 182.5938
1555.951, 269.8789
1556.993, 256.0391
1558.035, 194.5000
1559.077, 265.0703
1560.119, 309.5156
1561.161, 2.828125
1562.202, 342.1055
1563.243, 97.32812
1564.285, 23.69531
1565.326, 0.0000000E+00
##END=



