##NAMES=Akermanite
##RRUFFID=R061085
##IDEAL CHEMISTRY=Ca_2_MgSi_2_O_7_
##LOCALITY=Kovdor, Kola Peninsula, Russia
##OWNER=Michael Scott
##SOURCE=Michael Scott
##DESCRIPTION=Dark blue coarsely crystalline massive associated with green diopside
##STATUS=The identification of this mineral has been confirmed by X-ray diffraction and chemical analysis
##URL=rruff.info/R061085
##MEASURED CHEMISTRY=(Ca_1.78_Na_0.22_)_Σ=2_(Mg_0.70_Al_0.22_Fe^2+^_0.08_)_Σ=1_Si_2.00_O_7_
##PIN_ID=M00490
##ORIENTATION=Laser parallel to -c* (0 0 -1). Fiducial mark perpendicular to laser is parallel to a [1 0 0]
148.9510, 0.0000000E+00
150.1770, 1.207520
151.4020, 49.15234
152.6270, 89.36621
153.8520, 0.6640630
155.0760, 83.21973
156.3010, 127.6753
157.5250, 145.6094
158.7500, 58.29297
159.9740, 96.24268
161.1980, 65.96631
162.4220, 32.79932
163.6450, 95.73730
164.8690, 26.67334
166.0920, 7.090332
167.3160, 58.63965
168.5390, 50.15674
169.7620, 15.48584
170.9850, 55.52686
172.2080, 12.92529
173.4300, 130.6416
174.6530, 37.64014
175.8750, 96.88721
177.0970, 187.3535
178.3190, 181.0171
179.5410, 186.8784
180.7630, 221.9502
181.9850, 205.2505
183.2060, 250.8081
184.4270, 421.6538
185.6490, 377.7686
186.8700, 404.1104
188.0910, 539.6431
189.3110, 520.3335
190.5320, 611.1543
191.7530, 589.0815
192.9730, 644.0962
194.1930, 822.1816
195.4130, 862.3252
196.6330, 930.5142
197.8530, 1037.739
199.0730, 1028.992
200.2920, 1134.263
201.5120, 1231.546
202.7310, 1307.836
203.9500, 1507.126
205.1690, 1619.420
206.3880, 1763.738
207.6070, 1998.147
208.8250, 2112.724
210.0440, 2378.567
211.2620, 2601.562
212.4800, 2732.726
213.6980, 2961.226
214.9160, 3147.047
216.1340, 3367.222
217.3510, 3513.868
218.5690, 3647.929
219.7860, 3762.068
221.0030, 3866.171
222.2200, 3980.186
223.4370, 4016.043
224.6540, 4035.051
225.8700, 4046.385
227.0870, 3937.878
228.3030, 3836.254
229.5190, 3686.519
230.7350, 3483.674
231.9510, 3318.703
233.1670, 3175.617
234.3820, 3067.442
235.5980, 2903.185
236.8130, 2828.845
238.0280, 2567.427
239.2430, 2385.935
240.4580, 2321.368
241.6730, 2211.731
242.8880, 1969.023
244.1020, 1871.249
245.3160, 1948.406
246.5300, 1744.499
247.7450, 1660.528
248.9580, 1715.494
250.1720, 1542.398
251.3860, 1578.241
252.5990, 1592.024
253.8130, 1569.748
255.0260, 1436.414
256.2390, 1522.021
257.4520, 1438.572
258.6640, 1584.064
259.8770, 1726.499
261.0890, 1517.638
262.3020, 1363.510
263.5140, 1338.960
264.7260, 1258.479
265.9380, 1269.578
267.1500, 1187.512
268.3610, 1221.407
269.5730, 1163.138
270.7840, 1286.868
271.9950, 1221.134
273.2060, 1281.108
274.4170, 1309.424
275.6280, 1458.033
276.8390, 1377.814
278.0490, 1514.812
279.2590, 1574.419
280.4690, 1480.759
281.6800, 1553.294
282.8890, 1695.226
284.0990, 1698.143
285.3090, 1903.331
286.5180, 1819.199
287.7280, 1918.864
288.9370, 2035.524
290.1460, 2018.482
291.3550, 2035.676
292.5630, 2133.249
293.7720, 2388.537
294.9800, 2587.631
296.1890, 2702.147
297.3970, 2803.666
298.6050, 2912.145
299.8130, 3129.110
301.0200, 3280.466
302.2280, 3505.788
303.4360, 3562.042
304.6430, 3655.988
305.8500, 3773.077
307.0570, 3928.154
308.2640, 3753.136
309.4710, 3680.264
310.6770, 3789.292
311.8840, 3689.788
313.0900, 3660.934
314.2960, 3439.089
315.5020, 3320.155
316.7080, 3139.297
317.9140, 2996.371
319.1190, 2762.501
320.3250, 2574.623
321.5300, 2417.734
322.7350, 2186.836
323.9400, 2041.924
325.1450, 1856.000
326.3500, 1681.062
327.5540, 1579.109
328.7580, 1423.140
329.9630, 1306.151
331.1670, 1187.320
332.3710, 1168.116
333.5750, 965.0664
334.7780, 963.9941
335.9820, 890.8994
337.1850, 777.7817
338.3880, 779.6392
339.5920, 684.4727
340.7950, 645.2812
341.9970, 557.0649
343.2000, 610.8242
344.4030, 589.5576
345.6050, 570.2651
346.8070, 497.9473
348.0090, 468.6040
349.2110, 435.2349
350.4130, 482.8398
351.6150, 411.4194
352.8160, 488.9722
354.0170, 491.4980
355.2190, 449.9951
356.4200, 477.1011
357.6210, 455.0903
358.8210, 465.3101
360.0220, 430.6841
361.2220, 445.0239
362.4230, 420.3281
363.6230, 472.5933
364.8230, 403.8203
366.0230, 400.6943
367.2230, 301.1577
368.4220, 327.2695
369.6220, 305.3457
370.8210, 237.3838
372.0200, 215.3853
373.2190, 224.3506
374.4180, 266.2788
375.6170, 137.1719
376.8150, 233.0283
378.0140, 92.85010
379.2120, 88.63428
380.4100, 43.38184
381.6080, 12.09033
382.8060, 81.75830
384.0040, 42.38965
385.2010, 8.982910
386.3980, 33.46533
387.5960, 33.54443
388.7930, 62.48242
389.9900, 28.10547
391.1870, 20.25635
392.3830, 26.57959
393.5800, 0.8657230
394.7760, 68.10986
395.9720, 11.31934
397.1680, 6.489258
398.3640, 18.62012
399.5600, 3.286621
400.7560, 70.23535
401.9510, 6.243652
403.1460, 37.29395
404.3420, 81.60449
405.5370, 143.5322
406.7320, 29.75000
407.9260, 33.02148
409.1210, 60.35059
410.3150, 16.75342
411.5100, 22.21289
412.7040, 61.75293
413.8980, 105.3789
415.0920, 77.10156
416.2850, 54.90332
417.4790, 103.7725
418.6720, 98.72607
419.8650, 99.79102
421.0590, 96.95654
422.2510, 88.24316
423.4440, 57.50586
424.6370, 70.11523
425.8290, 11.69971
427.0220, 1.604004
428.2140, 41.19238
429.4060, 10.89209
430.5980, 8.125000
431.7900, 34.23047
432.9810, 76.60303
434.1730, 24.38525
435.3640, 246.1123
436.5550, 286.8130
437.7460, 335.4971
438.9370, 466.1533
440.1280, 526.7837
441.3190, 646.3882
442.5090, 776.1318
443.6990, 992.5234
444.8890, 1063.054
446.0790, 1238.560
447.2690, 1413.041
448.4590, 1457.499
449.6480, 1568.933
450.8380, 1573.343
452.0270, 1586.729
453.2160, 1696.089
454.4050, 1561.427
455.5940, 1548.744
456.7820, 1467.036
457.9710, 1440.316
459.1590, 1407.573
460.3470, 1448.805
461.5350, 1500.013
462.7230, 1567.198
463.9110, 1573.369
465.0990, 1646.520
466.2860, 1810.658
467.4730, 1880.776
468.6600, 1893.879
469.8470, 2137.958
471.0340, 2105.013
472.2210, 2327.053
473.4070, 2524.086
474.5940, 2521.108
475.7800, 2695.117
476.9660, 2818.120
478.1520, 2827.104
479.3380, 2860.088
480.5230, 2896.060
481.7090, 2937.024
482.8940, 2904.966
484.0790, 2888.910
485.2650, 2771.862
486.4490, 2673.792
487.6340, 2694.721
488.8190, 2502.648
490.0030, 2430.562
491.1870, 2320.478
492.3720, 2289.384
493.5550, 2288.289
494.7390, 2084.201
495.9230, 1985.111
497.1060, 1993.022
498.2900, 1925.942
499.4730, 1866.848
500.6560, 1750.748
501.8390, 1786.658
503.0220, 1677.591
504.2040, 1776.529
505.3870, 1658.449
506.5690, 1679.372
507.7510, 1674.288
508.9330, 1668.194
510.1150, 1695.090
511.2970, 1702.977
512.4780, 1683.854
513.6600, 1589.476
514.8410, 1582.011
516.0220, 1587.580
517.2030, 1492.301
518.3840, 1473.478
519.5650, 1500.032
520.7450, 1480.925
521.9250, 1462.760
523.1060, 1356.169
524.2860, 1374.046
525.4660, 1272.766
526.6450, 1265.107
527.8250, 1125.824
529.0040, 1248.905
530.1840, 1149.963
531.3630, 1145.415
532.5420, 993.7793
533.7200, 1007.688
534.8990, 919.6826
536.0780, 854.8154
537.2560, 882.2168
538.4340, 847.8555
539.6120, 833.2861
540.7900, 747.0581
541.9680, 673.8540
543.1460, 691.4336
544.3230, 695.0166
545.5000, 626.6372
546.6770, 617.0088
547.8540, 617.9380
549.0310, 601.9990
550.2080, 561.8447
551.3840, 555.5776
552.5610, 529.5396
553.7370, 510.3213
554.9130, 492.3359
556.0890, 449.6089
557.2650, 436.6543
558.4400, 412.0928
559.6160, 409.9214
560.7910, 397.5972
561.9660, 425.7817
563.1410, 392.5942
564.3160, 413.9624
565.4910, 428.2710
566.6650, 237.8013
567.8400, 501.0142
569.0140, 335.0801
570.1880, 381.4800
571.3620, 420.9307
572.5360, 405.4541
573.7090, 354.3647
574.8830, 434.5161
576.0560, 416.1924
577.2290, 496.1089
578.4020, 508.1953
579.5750, 479.2798
580.7480, 566.3584
581.9200, 605.4316
583.0930, 505.4985
584.2650, 616.5605
585.4370, 693.6162
586.6090, 807.6660
587.7810, 786.7104
588.9520, 818.7500
590.1240, 1055.784
591.2950, 1034.812
592.4660, 1203.835
593.6370, 1443.854
594.8080, 1500.867
595.9790, 1704.021
597.1500, 2011.025
598.3200, 2162.022
599.4900, 2436.112
600.6600, 2744.100
601.8300, 2993.082
603.0000, 3430.317
604.1700, 3759.186
605.3390, 4148.877
606.5080, 4582.181
607.6770, 5025.607
608.8460, 5432.408
610.0150, 6174.510
611.1840, 6713.539
612.3520, 7427.451
613.5210, 8267.826
614.6890, 9080.403
615.8570, 9873.814
617.0250, 10615.25
618.1930, 11106.39
619.3600, 11947.00
620.5280, 12425.62
621.6950, 12780.97
622.8620, 13040.85
624.0290, 13064.01
625.1960, 13045.70
626.3630, 12563.69
627.5290, 12401.31
628.6960, 11708.28
629.8620, 11153.20
631.0280, 10703.92
632.1940, 10100.92
633.3600, 9614.649
634.5250, 8881.056
635.6910, 8446.363
636.8560, 7969.595
638.0210, 7523.440
639.1860, 7058.679
640.3510, 6813.038
641.5150, 6933.084
642.6800, 6833.316
643.8440, 7185.209
645.0080, 7592.309
646.1720, 8195.682
647.3360, 9114.535
648.5000, 10264.63
649.6640, 11802.78
650.8270, 13498.62
651.9900, 15835.20
653.1530, 18271.09
654.3160, 20867.93
655.4790, 23874.08
656.6420, 26693.70
657.8040, 29174.10
658.9660, 31897.70
660.1290, 33725.28
661.2910, 35044.86
662.4520, 35791.44
663.6140, 35782.57
664.7760, 35390.40
665.9370, 33985.95
667.0980, 32296.50
668.2590, 29842.05
669.4200, 26989.60
670.5810, 24484.17
671.7420, 21617.73
672.9020, 19099.30
674.0620, 16842.85
675.2220, 14753.42
676.3820, 12960.97
677.5420, 11306.52
678.7020, 9973.072
679.8610, 8647.623
681.0210, 7702.168
682.1800, 6812.716
683.3390, 6012.283
684.4980, 5299.852
685.6560, 4799.432
686.8150, 4169.007
687.9730, 3736.620
689.1320, 3427.243
690.2900, 3016.875
691.4480, 2737.525
692.6050, 2463.181
693.7630, 2242.342
694.9200, 2125.525
696.0780, 1935.235
697.2350, 1848.967
698.3920, 1763.716
699.5490, 1606.493
700.7050, 1437.297
701.8620, 1338.130
703.0180, 1270.991
704.1740, 1210.875
705.3300, 1113.777
706.4860, 983.6992
707.6420, 1035.625
708.7970, 859.5532
709.9530, 878.4932
711.1080, 797.4316
712.2630, 854.3750
713.4180, 769.3271
714.5730, 746.2754
715.7280, 611.2212
716.8820, 675.1587
718.0360, 568.0884
719.1900, 586.0088
720.3440, 426.9214
721.4980, 435.8252
722.6520, 382.7207
723.8050, 397.6079
724.9590, 345.4868
726.1120, 268.3574
727.2650, 251.2202
728.4180, 254.0747
729.5700, 187.9204
730.7230, 220.7593
731.8750, 174.5903
733.0280, 110.4136
734.1800, 30.22852
735.3320, 95.03467
736.4830, 106.8335
737.6350, 40.62500
738.7860, 123.4082
739.9380, 70.18359
741.0890, 11.95215
742.2400, 16.29150
743.3910, 2.437988
744.5410, 23.36133
745.6920, 6.831543
746.8420, 15.50098
747.9920, 21.14014
749.1420, 36.77246
750.2920, 17.60254
751.4420, 41.00439
752.5910, 28.44580
753.7410, 25.91943
754.8900, 42.42432
756.0390, 5.968750
757.1880, 61.53320
758.3370, 30.14648
759.4850, 41.79248
760.6340, 55.52393
761.7820, 87.16553
762.9300, 95.91602
764.0780, 16.26660
765.2260, 63.55811
766.3730, 69.43115
767.5210, 21.35645
768.6680, 66.30762
769.8150, 39.30811
770.9620, 67.34375
772.1090, 94.42871
773.2560, 61.57764
774.4020, 76.77246
775.5490, 103.0205
776.6950, 14.33545
777.8410, 48.67041
778.9870, 108.0435
780.1330, 159.4854
781.2780, 91.02148
782.4230, 2.381836
783.5690, 84.22412
784.7140, 44.88379
785.8590, 33.57715
787.0030, 35.29834
788.1480, 31.04688
789.2920, 43.81885
790.4370, 33.62305
791.5810, 97.45215
792.7250, 71.33887
793.8690, 22.73047
795.0120, 61.20117
796.1560, 10.82910
797.2990, 25.85791
798.4420, 42.88525
799.5850, 100.9121
800.7280, 15.93896
801.8710, 34.03516
803.0130, 28.97119
804.1550, 28.97754
805.2980, 109.9834
806.4400, 195.9897
807.5810, 62.99609
808.7230, 181.0024
809.8650, 212.0093
811.0060, 250.0166
812.1470, 372.0249
813.2880, 335.0337
814.4290, 400.0430
815.5700, 479.0542
816.7110, 561.0659
817.8510, 633.0796
818.9910, 717.0938
820.1310, 643.1104
821.2710, 737.1279
822.4110, 661.1479
823.5510, 657.1694
824.6900, 613.1929
825.8290, 611.2178
826.9680, 609.8374
828.1070, 581.2734
829.2460, 641.3042
830.3850, 654.3379
831.5230, 711.3730
832.6620, 628.4111
833.8000, 806.4512
834.9380, 739.4937
836.0760, 855.5669
837.2130, 918.6426
838.3510, 969.7212
839.4880, 1098.804
840.6250, 1168.888
841.7620, 1292.882
842.8990, 1401.073
844.0360, 1591.173
845.1720, 1806.279
846.3090, 2055.388
847.4450, 2302.515
848.5810, 2479.646
849.7170, 2731.792
850.8530, 3026.963
851.9880, 3260.136
853.1240, 3277.312
854.2590, 3317.492
855.3940, 3455.676
856.5290, 3571.871
857.6640, 3700.069
858.7980, 3832.272
859.9330, 3930.495
861.0670, 3908.725
862.2010, 4052.958
863.3350, 4075.196
864.4690, 4078.439
865.6030, 3822.698
866.7360, 3752.985
867.8690, 3484.286
869.0020, 3293.591
870.1350, 3030.921
871.2680, 2817.108
872.4010, 2611.457
873.5330, 2401.824
874.6660, 2352.113
875.7980, 2263.517
876.9300, 2172.931
878.0620, 2253.097
879.1930, 2301.631
880.3250, 2382.345
881.4560, 2529.750
882.5870, 2682.427
883.7180, 2883.124
884.8490, 3124.475
885.9800, 3368.903
887.1100, 3696.466
888.2410, 4106.571
889.3710, 4569.497
890.5010, 5035.619
891.6310, 5513.723
892.7610, 6244.169
893.8900, 7048.166
895.0200, 7769.167
896.1490, 8957.469
897.2780, 10342.23
898.4070, 11684.73
899.5360, 13647.70
900.6640, 15869.38
901.7920, 18343.44
902.9210, 21477.17
904.0490, 24887.95
905.1770, 28252.93
906.3040, 31889.64
907.4320, 35401.63
908.5600, 38535.94
909.6870, 41318.38
910.8140, 43545.88
911.9410, 45074.79
913.0680, 45657.30
914.1940, 46063.70
915.3210, 45451.42
916.4470, 44342.96
917.5730, 42833.85
918.6990, 41069.54
919.8250, 38620.96
920.9500, 36127.92
922.0760, 33168.63
923.2010, 30362.31
924.3260, 27539.31
925.4510, 24535.56
926.5760, 22004.52
927.7010, 19289.55
928.8250, 17151.27
929.9500, 15157.54
931.0740, 13490.05
932.1980, 11990.38
933.3220, 10807.73
934.4450, 9842.114
935.5690, 8924.524
936.6920, 8077.951
937.8150, 7412.570
938.9380, 6937.048
940.0610, 6376.549
941.1840, 5941.072
942.3060, 5571.619
943.4290, 5234.198
944.5510, 4883.802
945.6730, 4761.427
946.7950, 4520.076
947.9160, 4263.750
949.0380, 4216.450
950.1590, 3950.173
951.2800, 3989.918
952.4010, 3947.694
953.5220, 3826.494
954.6430, 3806.316
955.7630, 3724.163
956.8840, 3772.031
958.0040, 3543.926
959.1240, 3550.843
960.2440, 3424.784
961.3640, 3452.747
962.4830, 3412.733
963.6030, 3327.744
964.7220, 3196.777
965.8410, 3164.835
966.9600, 3010.953
968.0780, 2949.059
969.1970, 2828.187
970.3150, 2765.668
971.4340, 2784.845
972.5520, 2652.146
973.6700, 2408.511
974.7870, 2394.756
975.9050, 2248.024
977.0220, 2208.005
978.1390, 2259.320
979.2560, 2295.283
980.3730, 2130.645
981.4900, 2178.417
982.6070, 2110.847
983.7230, 2223.969
984.8390, 2263.113
985.9550, 2193.588
987.0710, 2289.084
988.1870, 2236.603
989.3030, 2358.143
990.4180, 2264.321
991.5330, 2294.907
992.6480, 2275.513
993.7630, 2260.574
994.8780, 2317.630
995.9930, 2260.303
997.1070, 2286.997
998.2210, 2291.712
999.3350, 2315.544
1000.449, 2308.741
1001.563, 2341.104
1002.677, 2301.906
1003.790, 2359.908
1004.903, 2330.751
1006.016, 2102.201
1007.129, 2083.508
1008.242, 1968.423
1009.355, 1894.565
1010.467, 1831.512
1011.579, 1743.407
1012.691, 1680.656
1013.803, 1619.674
1014.915, 1542.747
1016.027, 1522.303
1017.138, 1473.289
1018.249, 1472.413
1019.360, 1415.559
1020.471, 1360.321
1021.582, 1342.498
1022.693, 1190.186
1023.803, 1230.196
1024.913, 1239.498
1026.023, 1066.262
1027.133, 1108.332
1028.243, 1016.396
1029.353, 1070.775
1030.462, 1072.226
1031.571, 915.6929
1032.680, 1016.204
1033.789, 929.7622
1034.898, 864.5249
1036.007, 868.1924
1037.115, 936.0151
1038.223, 786.7041
1039.331, 845.4307
1040.439, 710.3809
1041.547, 790.1758
1042.655, 777.0146
1043.762, 639.8896
1044.869, 669.8047
1045.976, 668.7661
1047.083, 669.7495
1048.190, 638.4395
1049.297, 493.8262
1050.403, 570.9478
1051.509, 480.1113
1052.615, 489.2920
1053.721, 435.5127
1054.827, 358.7617
1055.933, 321.0361
1057.038, 313.1387
1058.143, 267.9761
1059.248, 293.0137
1060.353, 278.4121
1061.458, 190.8296
1062.563, 308.7480
1063.667, 229.3794
1064.771, 224.8716
1065.875, 286.4346
1066.979, 162.7656
1068.083, 246.2930
1069.186, 177.8311
1070.290, 343.1255
1071.393, 268.3325
1072.496, 239.2754
1073.599, 205.8652
1074.702, 191.6846
1075.804, 202.5913
1076.907, 213.3794
1078.009, 258.8408
1079.111, 260.4795
1080.213, 275.0859
1081.315, 274.7427
1082.416, 248.4082
1083.517, 366.1021
1084.619, 429.6558
1085.720, 431.3462
1086.821, 562.0439
1087.921, 566.7495
1089.022, 627.4624
1090.122, 615.4858
1091.222, 393.2139
1092.322, 209.9482
1093.422, 83.68945
1094.522, 145.4375
1095.622, 147.1919
1096.721, 45.95215
1097.820, 53.83594
1098.919, 0.3916020
1100.018, 22.47559
1101.117, 89.25830
1102.215, 130.9536
1103.314, 59.10059
1104.412, 5.158691
1105.510, 7.415039
1106.608, 62.33057
1107.705, 60.08105
1108.803, 47.16406
1109.900, 58.57764
1110.997, 22.48340
1112.094, 83.25781
1113.191, 73.99658
1114.288, 1.719727
1115.384, 60.56152
1116.481, 91.86621
1117.577, 52.80518
1118.673, 32.47803
1119.769, 88.15430
1120.864, 97.18994
1121.960, 36.48730
1123.055, 42.17920
1124.150, 21.84668
1125.245, 63.48389
1126.340, 10.84473
1127.434, 122.7900
1128.529, 67.43457
1129.623, 18.08008
1130.717, 38.27393
1131.811, 90.64795
1132.905, 28.06982
1133.999, 47.49268
1135.092, 67.94531
1136.185, 126.5786
1137.279, 24.89795
1138.371, 37.39062
1139.464, 45.90723
1140.557, 32.45312
1141.649, 12.02100
1142.742, 3.399414
1143.834, 24.81445
1144.926, 23.22852
1146.017, 57.35889
1147.109, 15.98486
1148.200, 37.62793
1149.292, 74.70020
1150.383, 16.02588
1151.474, 46.65137
1152.564, 14.63525
1153.655, 58.01953
1154.745, 78.77930
1155.835, 2.592773
1156.925, 120.2329
1158.015, 60.34863
1159.105, 43.08789
1160.195, 31.07617
1161.284, 71.90479
1162.373, 77.97021
1163.462, 61.94238
1164.551, 74.94238
1165.640, 30.54688
1166.728, 28.38037
1167.817, 24.31396
1168.905, 110.2261
1169.993, 68.13574
1171.081, 26.04492
1172.168, 93.94482
1173.256, 82.83887
1174.343, 107.7256
1175.430, 50.60547
1176.517, 189.4775
1177.604, 75.34229
1178.691, 110.1997
1179.777, 93.04883
1180.864, 56.89014
1181.950, 212.7227
1183.036, 121.8687
1184.121, 151.4863
1185.207, 58.16846
1186.293, 136.9653
1187.378, 119.7534
1188.463, 139.5312
1189.548, 86.29932
1190.633, 53.05762
1191.717, 57.80518
1192.802, 10.54248
1193.886, 16.74561
1194.970, 119.9277
1196.054, 55.59082
1197.138, 9.758789
1198.221, 109.8550
1199.305, 85.45801
1200.388, 31.05029
1201.471, 76.62354
1202.554, 94.18506
1203.637, 166.7354
1204.719, 53.27441
1205.801, 1.799316
1206.884, 119.2915
1207.966, 95.77246
1209.048, 109.2407
1210.129, 30.69775
1211.211, 111.1328
1212.292, 179.5566
1213.373, 73.96826
1214.454, 12.36670
1215.535, 144.7363
1216.616, 151.0933
1217.696, 213.4380
1218.777, 116.7700
1219.857, 59.08984
1220.937, 191.3940
1222.017, 195.6851
1223.096, 172.9634
1224.176, 171.2290
1225.255, 150.4814
1226.334, 126.7212
1227.413, 74.94727
1228.492, 215.1597
1229.570, 78.32080
1230.649, 218.5054
1231.727, 212.6772
1232.805, 59.50488
1233.883, 180.6470
1234.961, 240.6743
1236.038, 123.6479
1237.116, 121.7510
1238.193, 91.84082
1239.270, 140.2285
1240.347, 68.29248
1241.424, 131.7168
1242.500, 96.75342
1243.577, 113.3882
1244.653, 145.3770
1245.729, 126.6958
1246.805, 159.5229
1247.880, 179.5093
1248.956, 177.4829
1250.031, 189.4438
1251.106, 205.3921
1252.181, 165.7114
1253.256, 115.6353
1254.331, 161.5464
1255.405, 184.0586
1256.480, 136.4951
1257.554, 183.4268
1258.628, 219.2954
1259.701, 181.1523
1260.775, 140.9023
1261.849, 179.2959
1262.922, 174.5322
1263.995, 201.3403
1265.068, 161.9561
1266.141, 207.7402
1267.213, 173.9277
1268.286, 252.2656
1269.358, 149.0063
1270.430, 261.5298
1271.502, 174.3506
1272.573, 136.8818
1273.645, 164.5957
1274.716, 154.2988
1275.788, 144.9604
1276.859, 138.1592
1277.929, 101.9409
1279.000, 153.6016
1280.071, 125.2593
1281.141, 94.30811
1282.211, 48.90869
1283.281, 146.1357
1284.351, 159.0049
1285.421, 28.60303
1286.490, 158.7632
1287.559, 162.6831
1288.628, 184.5879
1289.697, 95.19873
1290.766, 19.76270
1291.835, 69.31738
1292.903, 26.86328
1293.972, 31.59961
1295.040, 133.7300
1296.108, 29.18311
1297.175, 84.51270
1298.243, 158.6230
1299.310, 53.40576
1300.377, 97.67578
1301.444, 90.12891
1302.511, 127.5737
1303.578, 93.00977
1304.645, 144.4365
1305.711, 147.8550
1306.777, 94.26367
1307.843, 170.7007
1308.909, 239.0913
1309.975, 46.47314
1311.040, 115.8457
1312.105, 128.2100
1313.171, 166.5654
1314.235, 193.9126
1315.300, 94.25195
1316.365, 163.5845
1317.429, 181.9097
1318.494, 183.2275
1319.558, 231.5161
1320.622, 242.8203
1321.685, 215.6494
1322.749, 237.0005
1323.812, 229.7383
1324.876, 227.2764
1325.939, 230.7339
1327.001, 204.9995
1328.064, 207.2603
1329.127, 172.4209
1330.189, 183.0186
1331.251, 115.2617
1332.313, 119.4995
1333.375, 123.5132
1334.437, 149.4448
1335.498, 84.66748
1336.560, 168.8848
1337.621, 108.0972
1338.682, 64.34668
1339.742, 163.5498
1340.803, 194.7480
1341.863, 65.92236
1342.924, 139.2402
1343.984, 179.4258
1345.044, 143.5874
1346.104, 142.7441
1347.163, 217.8975
1348.222, 166.7432
1349.282, 110.8882
1350.341, 195.0166
1351.400, 110.1406
1352.458, 108.2612
1353.517, 145.3770
1354.575, 135.4897
1355.633, 192.4814
1356.691, 54.58594
1357.749, 33.59668
1358.807, 69.69482
1359.864, 109.7896
1360.922, 113.5903
1361.979, 147.7070
1363.036, 120.8208
1364.092, 87.93311
1365.149, 82.04150
1366.205, 63.14746
1367.262, 113.2588
1368.318, 134.2407
1369.374, 84.35059
1370.429, 45.44238
1371.485, 16.91211
1372.540, 113.9282
1373.596, 56.95850
1374.651, 161.1582
1375.705, 176.2729
1376.760, 113.3853
1377.815, 80.49609
1378.869, 63.75977
1379.923, 91.84717
1380.977, 58.96191
1382.031, 42.35889
1383.085, 141.4854
1384.138, 33.84082
1385.191, 204.2773
1386.244, 117.4907
1387.297, 137.6064
1388.350, 148.7314
1389.403, 149.8794
1390.455, 120.0352
1391.507, 113.1895
1392.559, 36.36182
1393.611, 129.5347
1394.663, 65.80420
1395.714, 179.0093
1396.766, 79.37695
1397.817, 1.616699
1398.868, 98.83984
1399.919, 151.7651
1400.969, 37.99170
1402.020, 160.2192
1403.070, 101.4810
1404.120, 177.7358
1405.170, 229.0054
1406.220, 59.81836
1407.270, 157.0386
1408.319, 120.3223
1409.368, 142.4980
1410.417, 85.75439
1411.466, 121.0303
1412.515, 106.5557
1413.563, 8.380859
1414.612, 93.68701
1415.660, 144.0083
1416.708, 119.3433
1417.756, 34.58447
1418.803, 118.9097
1419.851, 46.17188
1420.898, 83.89551
1421.945, 75.17529
1422.992, 49.43652
1424.039, 11.34521
1425.086, 22.17627
1426.132, 65.97363
1427.178, 196.1133
1428.225, 144.2388
1429.270, 157.3472
1430.316, 103.4385
1431.362, 161.5122
1432.407, 81.56934
1433.452, 9.616211
1434.497, 175.6553
1435.542, 167.6885
1436.587, 157.7236
1437.631, 144.7676
1438.676, 247.8408
1439.720, 230.9585
1440.764, 291.3403
1441.807, 214.7212
1442.851, 319.1001
1443.895, 356.4854
1444.938, 282.9072
1445.981, 283.3428
1447.024, 288.7920
1448.066, 353.2500
1449.109, 351.7095
1450.151, 393.1855
1451.194, 412.3330
1452.236, 342.1709
1453.277, 440.6753
1454.319, 395.1938
1455.361, 397.7261
1456.402, 307.2632
1457.443, 366.8086
1458.484, 324.3604
1459.525, 337.9185
1460.565, 330.4834
1461.606, 231.0576
1462.646, 352.6396
1463.686, 228.2334
1464.726, 234.8345
1465.766, 208.4438
1466.805, 166.0625
1467.845, 204.6909
1468.884, 136.3076
1469.923, 159.3003
1470.962, 101.8330
1472.000, 179.4067
1473.039, 166.9873
1474.077, 159.5723
1475.115, 143.2822
1476.153, 85.83008
1477.191, 178.3862
1478.229, 153.9497
1479.266, 103.5200
1480.303, 199.0967
1481.340, 196.5356
1482.377, 89.10254
1483.414, 111.6704
1484.451, 169.2441
1485.487, 184.8130
1486.523, 100.3696
1487.559, 113.9253
1488.595, 27.48828
1489.631, 150.9702
1490.666, 73.54150
1491.701, 136.1177
1492.736, 10.71924
1493.771, 66.34717
1494.806, 24.49463
1495.841, 3.910156
1496.875, 44.30371
1497.909, 47.31543
1498.943, 42.87842
1499.977, 87.52637
1501.011, 96.19092
1502.045, 53.87061
1503.078, 5.559082
1504.111, 103.2544
1505.144, 26.95459
1506.177, 0.3393550
1507.209, 48.37158
1508.242, 19.91357
1509.274, 54.80420
1510.306, 11.52539
1511.338, 96.24756
1512.370, 109.9727
1513.402, 46.69873
1514.433, 40.42529
1515.464, 57.15186
1516.495, 80.87695
1517.526, 36.70996
1518.557, 16.54980
1519.587, 31.43115
1520.617, 11.05029
1521.648, 7.702637
1522.678, 45.25098
1523.707, 1.780273
1524.737, 82.20410
1525.766, 191.2051
1526.796, 36.22461
1527.825, 64.26465
1528.854, 62.08154
1529.882, 13.07520
1530.911, 66.04492
1531.939, 9.114746
1532.967, 100.7295
1533.995, 83.04492
1535.023, 124.6299
1536.051, 146.4419
1537.078, 57.48779
1538.106, 110.9414
1539.133, 73.35938
1540.160, 59.73828
1541.186, 99.56934
1542.213, 37.78662
1543.239, 104.6143
1544.266, 33.73975
1545.292, 57.85498
1546.318, 112.8291
1547.343, 154.0381
1548.369, 61.85156
1549.394, 87.37012
1550.419, 127.0054
1551.444, 338.1421
1552.469, 177.6553
1553.494, 209.8369
1554.518, 109.1250
1555.542, 82.45703
1556.566, 199.4385
1557.590, 77.55273
1558.614, 77.28516
1559.638, 113.3071
1560.661, 39.97705
1561.684, 0.4687500
1562.707, 0.0000000E+00
##END=



