##NAMES=Akermanite
##RRUFFID=R061100
##IDEAL CHEMISTRY=Ca_2_MgSi_2_O_7_
##LOCALITY=Lago de Vico, Viterbo, Italy
##OWNER=Michael Scott
##SOURCE=Michael Scott
##DESCRIPTION=Colorless to white short prismatic crystals
##STATUS=The identification of this mineral has been confirmed by X-ray diffraction and chemical analysis
##URL=rruff.info/R061100
##MEASURED CHEMISTRY=(Ca_1.80_Na_0.20_)_Σ=2_(Mg_0.58_Al_0.38_Fe_0.04_)_Σ=1_(Si_1.82_Al_0.18_)_Σ=2_O_7_
##PIN_ID=M00347
##ORIENTATION=Laser parallel to c* (0 0 1). Fiducial mark perpendicular to laser is parallel to a [1 0 0]
206.6970, 0.0000000E+00
207.9250, 219.7188
209.1530, 7.533203
210.3800, 273.4668
211.6080, 8.068359
212.8350, 104.8340
214.0620, 489.1445
215.2880, 545.9043
216.5150, 729.2617
217.7410, 669.5410
218.9680, 868.3008
220.1940, 1076.246
221.4190, 1170.143
222.6450, 1344.730
223.8700, 1382.742
225.0960, 1447.939
226.3210, 1662.125
227.5450, 1594.160
228.7700, 1702.057
229.9940, 1970.850
231.2190, 1554.541
232.4430, 1728.145
233.6660, 1646.633
234.8900, 1473.885
236.1140, 1601.721
237.3370, 1411.973
238.5600, 1027.512
239.7830, 1299.236
241.0050, 1177.078
242.2280, 1279.012
243.4500, 981.9473
244.6720, 866.9180
245.8940, 892.9688
247.1160, 681.1719
248.3370, 570.6504
249.5580, 780.1699
250.7790, 510.4375
252.0000, 553.3750
253.2210, 575.1699
254.4410, 358.2969
255.6620, 561.2832
256.8820, 510.8848
258.1020, 819.0195
259.3210, 747.4844
260.5410, 693.3105
261.7600, 651.2598
262.9790, 510.3066
264.1980, 358.7500
265.4170, 394.5957
266.6360, 292.8594
267.8540, 292.5742
269.0720, 486.7695
270.2900, 386.4648
271.5080, 426.6914
272.7260, 156.4668
273.9430, 251.8125
275.1600, 358.6523
276.3770, 483.9512
277.5940, 391.0645
278.8100, 373.5645
280.0270, 272.0254
281.2430, 338.9219
282.4590, 502.3223
283.6750, 152.0488
284.8910, 449.1250
286.1060, 273.4277
287.3210, 284.9199
288.5360, 579.3184
289.7510, 431.4883
290.9660, 868.0488
292.1800, 700.5332
293.3950, 625.4082
294.6090, 1037.756
295.8230, 946.3066
297.0360, 1287.658
298.2500, 1424.879
299.4630, 1404.371
300.6760, 1546.854
301.8890, 1688.439
303.1020, 1692.352
304.3150, 2194.424
305.5270, 2072.865
306.7390, 2444.439
307.9510, 2536.695
309.1630, 2323.850
310.3750, 2401.986
311.5860, 2567.045
312.7970, 2548.713
314.0080, 2582.842
315.2190, 2447.250
316.4300, 2325.232
317.6400, 2242.111
318.8510, 2266.217
320.0610, 1960.062
321.2710, 1857.834
322.4800, 1464.582
323.6900, 1464.547
324.8990, 1379.475
326.1080, 1225.361
327.3170, 1373.201
328.5260, 817.9883
329.7340, 967.7246
330.9430, 1071.404
332.1510, 683.0215
333.3590, 779.5762
334.5670, 767.0664
335.7740, 526.4922
336.9820, 600.8555
338.1890, 546.1523
339.3960, 440.3906
340.6030, 562.5684
341.8100, 318.6895
343.0160, 523.7500
344.2220, 534.7578
345.4280, 328.7090
346.6340, 355.6055
347.8400, 393.4434
349.0460, 474.2305
350.2510, 481.9609
351.4560, 291.6387
352.6610, 435.9727
353.8660, 468.7051
355.0700, 209.8418
356.2750, 361.9746
357.4790, 296.0547
358.6830, 264.4668
359.8870, 330.9727
361.0910, 38.55078
362.2940, 230.1777
363.4970, 282.8438
364.7000, 100.5371
365.9030, 128.2441
367.1060, 177.9570
368.3080, 53.66992
369.5110, 193.3672
370.7130, 36.94922
371.9150, 158.6934
373.1170, 92.31445
374.3180, 63.09766
375.5200, 102.5703
376.7210, 139.1172
377.9220, 55.75586
379.1230, 146.5352
380.3230, 178.7754
381.5240, 78.54297
382.7240, 93.49609
383.9240, 138.8320
385.1240, 108.8652
386.3240, 26.00391
387.5230, 91.19336
388.7230, 1.486328
389.9220, 133.8516
391.1210, 7.326172
392.3200, 99.12500
393.5180, 36.50977
394.7170, 129.1777
395.9150, 128.0156
397.1130, 157.8652
398.3110, 53.12305
399.5080, 66.97461
400.7060, 188.1855
401.9030, 44.54492
403.1000, 50.01953
404.2970, 71.61328
405.4940, 93.66992
406.6910, 71.14062
407.8870, 76.07422
409.0830, 189.3789
410.2790, 222.7598
411.4750, 178.9492
412.6710, 172.4238
413.8660, 283.9297
415.0610, 213.4004
416.2560, 97.26562
417.4510, 154.8809
418.6460, 154.9570
419.8410, 84.03711
421.0350, 194.8613
422.2290, 101.6914
423.4230, 13.45898
424.6170, 242.1504
425.8100, 144.7754
427.0040, 162.3320
428.1970, 444.8203
429.3900, 341.2344
430.5830, 287.5742
431.7760, 465.8438
432.9680, 356.0371
434.1610, 531.1230
435.3530, 451.0918
436.5450, 440.8438
437.7360, 894.4883
438.9280, 628.0664
440.1190, 750.5000
441.3110, 623.7969
442.5020, 508.9570
443.6930, 799.9648
444.8830, 839.9004
446.0740, 780.7129
447.2640, 936.3789
448.4540, 920.8555
449.6440, 1029.207
450.8340, 1280.463
452.0240, 944.5762
453.2130, 1246.545
454.4020, 1288.393
455.5910, 989.0781
456.7800, 1269.670
457.9690, 1240.176
459.1570, 1114.641
460.3460, 1530.057
461.5340, 1182.436
462.7220, 1330.787
463.9090, 1445.115
465.0970, 1301.420
466.2840, 1401.703
467.4720, 1650.969
468.6590, 1575.215
469.8460, 1679.471
471.0320, 1603.711
472.2190, 1508.928
473.4050, 1830.131
474.5910, 1860.311
475.7770, 1933.473
476.9630, 1876.652
478.1490, 2090.820
479.3340, 2209.973
480.5190, 2326.107
481.7040, 2346.223
482.8890, 2399.018
484.0740, 2419.508
485.2580, 2444.031
486.4430, 2385.080
487.6270, 2464.117
488.8110, 2377.764
489.9950, 2466.510
491.1780, 2275.461
492.3620, 2112.492
493.5450, 2228.518
494.7280, 1856.023
495.9110, 1882.998
497.0940, 1923.998
498.2760, 1633.133
499.4590, 1879.865
500.6410, 1528.326
501.8230, 1956.615
503.0050, 2276.141
504.1860, 1410.938
505.3680, 1545.051
506.5490, 1507.338
507.7300, 1188.717
508.9110, 1329.299
510.0920, 1453.121
511.2730, 1082.078
512.4530, 1408.008
513.6330, 977.0762
514.8130, 1270.881
515.9930, 1440.135
517.1730, 1112.479
518.3520, 1198.902
519.5320, 1504.785
520.7110, 909.4375
521.8900, 1237.998
523.0690, 1145.666
524.2470, 1061.562
525.4260, 1232.541
526.6040, 1149.664
527.7820, 1141.656
528.9600, 1324.658
530.1380, 746.6406
531.3150, 971.2344
532.4930, 897.4648
533.6700, 666.5801
534.8470, 859.3340
536.0240, 704.2949
537.2000, 663.6152
538.3770, 793.5059
539.5530, 742.9258
540.7290, 591.9941
541.9050, 745.0176
543.0810, 483.3906
544.2570, 480.7520
545.4320, 584.7676
546.6080, 317.3887
547.7830, 513.7461
548.9580, 375.3242
550.1320, 98.55859
551.3070, 284.5078
552.4810, 337.4727
553.6550, 218.3145
554.8300, 650.4082
556.0030, 340.4785
557.1770, 149.4062
558.3510, 498.1543
559.5240, 205.7520
560.6970, 350.3262
561.8700, 252.8594
563.0430, 189.5840
564.2160, 361.6465
565.3880, 283.2129
566.5600, 390.0645
567.7320, 495.4238
568.9040, 240.8965
570.0760, 508.5312
571.2480, 577.7070
572.4190, 404.6367
573.5900, 411.2969
574.7610, 494.4727
575.9320, 206.1699
577.1030, 569.7031
578.2740, 531.1758
579.4440, 406.8125
580.6140, 651.4316
581.7840, 546.0312
582.9540, 590.6133
584.1240, 501.1777
585.2930, 800.7246
586.4630, 847.2539
587.6320, 1046.766
588.8010, 1141.104
589.9700, 1230.168
591.1380, 1288.771
592.3070, 1457.225
593.4750, 1543.389
594.6430, 1830.912
595.8110, 1745.324
596.9790, 2149.908
598.1460, 2326.771
599.3140, 2471.146
600.4810, 3016.625
601.6480, 3029.201
602.8150, 3276.703
603.9820, 3851.391
605.1480, 4021.609
606.3150, 4668.215
607.4810, 4997.242
608.6470, 5173.133
609.8130, 6239.137
610.9790, 6109.988
612.1440, 6201.449
613.3100, 6955.723
614.4750, 7054.391
615.6400, 7637.592
616.8050, 7903.357
617.9690, 8343.881
619.1340, 9087.041
620.2980, 9232.141
621.4620, 9528.275
622.6260, 9951.400
623.7900, 10162.56
624.9540, 9961.895
626.1170, 10294.95
627.2810, 10181.59
628.4440, 10105.19
629.6070, 10192.09
630.7690, 9373.678
631.9320, 8828.188
633.0950, 8829.090
634.2570, 8230.109
635.4190, 7796.965
636.5810, 7682.904
637.7430, 7110.811
638.9040, 6884.730
640.0660, 6740.123
641.2270, 6170.602
642.3880, 6534.346
643.5490, 6280.307
644.7100, 6029.328
645.8700, 6617.434
647.0310, 6738.180
648.1910, 7058.910
649.3510, 8103.494
650.5110, 8760.289
651.6710, 10082.34
652.8300, 11301.05
653.9900, 12596.16
655.1490, 13991.80
656.3080, 15533.34
657.4670, 16606.90
658.6250, 18220.12
659.7840, 18894.34
660.9420, 19718.77
662.1010, 20333.72
663.2590, 20637.44
664.4170, 20642.70
665.5740, 20375.42
666.7320, 19660.68
667.8890, 19174.27
669.0460, 18120.36
670.2030, 17318.10
671.3600, 15665.25
672.5170, 14339.06
673.6740, 13018.28
674.8300, 11941.46
675.9860, 10528.63
677.1420, 9677.227
678.2980, 8655.004
679.4540, 7583.814
680.6090, 6864.613
681.7650, 6289.422
682.9200, 5266.832
684.0750, 4953.531
685.2300, 4529.398
686.3840, 3764.590
687.5390, 4111.451
688.6930, 4127.324
689.8470, 2858.707
691.0010, 2997.576
692.1550, 2487.496
693.3090, 2220.062
694.4620, 2282.000
695.6160, 1723.008
696.7690, 1618.256
697.9220, 1730.262
699.0750, 1494.246
700.2280, 1348.213
701.3800, 1473.193
702.5320, 1100.156
703.6850, 1296.100
704.8370, 1235.033
705.9880, 909.9473
707.1400, 1212.840
708.2920, 1195.711
709.4430, 688.5586
710.5940, 951.3809
711.7450, 872.1855
712.8960, 644.9590
714.0470, 866.7129
715.1970, 574.4395
716.3480, 558.1406
717.4980, 874.8184
718.6480, 883.4707
719.7980, 623.0938
720.9470, 528.6914
722.0970, 614.2656
723.2460, 428.8125
724.3960, 407.3320
725.5450, 314.8281
726.6940, 668.2969
727.8420, 177.7383
728.9910, 246.1504
730.1390, 551.5352
731.2870, 105.8945
732.4350, 17.22070
733.5830, 364.5137
734.7310, 235.7773
735.8790, 166.0137
737.0260, 338.2188
738.1730, 252.9805
739.3200, 226.5566
740.4670, 241.6816
741.6140, 194.7812
742.7610, 64.85156
743.9070, 208.8848
745.0530, 105.8926
746.1990, 134.8691
747.3450, 93.18750
748.4910, 138.6602
749.6370, 230.4785
750.7820, 31.26953
751.9270, 174.0254
753.0720, 346.7539
754.2170, 104.5469
755.3620, 4.947266
756.5070, 398.6016
757.6510, 55.12305
758.7950, 342.6152
759.9400, 354.0801
761.0840, 28.52148
762.2270, 224.9258
763.3710, 49.30664
764.5140, 9.650391
765.6580, 149.9531
766.8010, 75.22461
767.9440, 180.5352
769.0870, 162.5625
770.2290, 10.36914
771.3720, 31.64258
772.5140, 68.62305
773.6560, 170.4297
774.7990, 26.61914
775.9400, 331.1270
777.0820, 130.1504
778.2240, 138.4531
779.3650, 70.03125
780.5060, 203.4258
781.6470, 77.03516
782.7880, 212.2617
783.9290, 232.4668
785.0690, 25.36719
786.2100, 39.32617
787.3500, 441.3555
788.4900, 0.3339840
789.6300, 154.0234
790.7700, 192.5117
791.9090, 51.85156
793.0490, 152.8164
794.1880, 89.61133
795.3270, 152.5000
796.4660, 4.417969
797.6050, 107.6152
798.7440, 215.6211
799.8820, 29.59766
801.0200, 130.5469
802.1590, 278.4648
803.2970, 151.6426
804.4340, 56.12891
805.5720, 172.8672
806.7100, 112.4199
807.8470, 156.1914
808.9840, 290.7734
810.1210, 143.3340
811.2580, 146.8652
812.3950, 26.62891
813.5310, 47.82031
814.6680, 346.2363
815.8040, 298.6309
816.9400, 310.0000
818.0760, 338.3477
819.2120, 32.33008
820.3470, 117.0645
821.4830, 522.0977
822.6180, 150.2344
823.7530, 288.3457
824.8880, 310.4336
826.0230, 252.4980
827.1580, 398.5430
828.2920, 270.5605
829.4270, 55.44336
830.5610, 444.5000
831.6950, 244.4199
832.8290, 128.3164
833.9620, 386.1855
835.0960, 501.0312
836.2290, 464.8516
837.3620, 555.6484
838.4950, 549.4219
839.6280, 421.1758
840.7610, 746.9023
841.8940, 481.6055
843.0260, 647.2852
844.1580, 787.9453
845.2910, 616.5840
846.4230, 552.1973
847.5540, 1100.789
848.6860, 1054.361
849.8170, 993.9082
850.9490, 1185.434
852.0800, 907.9395
853.2110, 1324.424
854.3420, 1545.885
855.4730, 1473.322
856.6030, 1777.740
857.7340, 1881.139
858.8640, 1996.518
859.9940, 2360.875
861.1240, 2074.209
862.2540, 2335.525
863.3830, 2680.820
864.5130, 2660.689
865.6420, 2445.820
866.7710, 2610.070
867.9000, 2401.596
869.0290, 2388.725
870.1570, 2394.938
871.2860, 2112.953
872.4140, 1969.656
873.5430, 2554.846
874.6710, 1960.924
875.7980, 2011.867
876.9260, 2164.867
878.0540, 1826.684
879.1810, 2502.936
880.3080, 2475.822
881.4360, 2270.258
882.5630, 2984.799
883.6890, 2971.199
884.8160, 3398.750
885.9420, 4125.666
887.0690, 4206.783
888.1950, 4513.516
889.3210, 4998.689
890.4470, 5352.309
891.5730, 5260.148
892.6980, 5848.316
893.8240, 5757.523
894.9490, 5958.666
896.0740, 6386.797
897.1990, 6289.867
898.3240, 6796.799
899.4480, 7333.980
900.5730, 7644.547
901.6970, 8539.158
902.8210, 9881.443
903.9450, 10504.02
905.0690, 11510.66
906.1930, 13130.86
907.3160, 14290.93
908.4400, 16097.18
909.5630, 18034.31
910.6860, 18646.45
911.8090, 19689.56
912.9320, 20513.17
914.0550, 20917.68
915.1770, 21474.89
916.2990, 21354.86
917.4210, 21281.77
918.5440, 21271.56
919.6650, 20772.69
920.7870, 20481.84
921.9090, 20286.13
923.0300, 19666.18
924.1510, 18984.98
925.2720, 18460.09
926.3930, 17262.81
927.5140, 16336.99
928.6350, 15270.26
929.7550, 13760.52
930.8760, 12979.15
931.9960, 11985.82
933.1160, 10375.29
934.2360, 9775.230
935.3550, 8969.402
936.4750, 7900.004
937.5940, 7657.146
938.7140, 7118.777
939.8330, 6505.102
940.9520, 6107.926
942.0710, 5508.121
943.1890, 5144.902
944.3080, 4939.066
945.4260, 4456.812
946.5440, 3957.586
947.6620, 4256.357
948.7800, 4095.744
949.8980, 3877.936
951.0160, 3649.137
952.1330, 3448.344
953.2500, 3327.133
954.3680, 3320.215
955.4850, 3141.600
956.6010, 3094.834
957.7180, 3073.762
958.8350, 2803.012
959.9510, 2645.268
961.0670, 2736.533
962.1830, 2536.805
963.2990, 2463.088
964.4150, 2351.000
965.5310, 2124.049
966.6460, 2042.355
967.7620, 2014.336
968.8770, 1849.670
969.9920, 1786.822
971.1070, 1864.363
972.2210, 1627.727
973.3360, 1592.096
974.4500, 1605.477
975.5650, 1437.865
976.6790, 1585.264
977.7930, 1278.811
978.9070, 1039.398
980.0200, 1360.863
981.1340, 1432.355
982.2470, 1174.811
983.3610, 1391.275
984.4740, 1203.748
985.5870, 1063.236
986.6990, 1562.732
987.8120, 1389.238
988.9250, 1317.758
990.0370, 1411.287
991.1490, 1109.828
992.2610, 908.3828
993.3730, 1231.947
994.4850, 1647.520
995.5960, 1131.105
996.7080, 1144.703
997.8190, 816.1758
998.9300, 1123.797
1000.041, 1081.609
1001.152, 1139.184
1002.263, 1028.844
1003.373, 1248.516
1004.484, 1021.797
1005.594, 1060.492
1006.704, 1113.031
1007.814, 824.7578
1008.924, 750.4844
1010.034, 1132.918
1011.143, 885.7695
1012.253, 792.6055
1013.362, 847.0078
1014.471, 690.8242
1015.580, 655.6250
1016.689, 728.6094
1017.797, 630.0156
1018.906, 619.8789
1020.014, 799.7891
1021.122, 423.6680
1022.230, 768.1406
1023.338, 789.3398
1024.446, 179.6250
1025.554, 610.7695
1026.661, 705.1055
1027.768, 582.2656
1028.875, 645.4336
1029.983, 620.7617
1031.089, 529.9688
1032.196, 800.1602
1033.303, 635.7695
1034.409, 404.4531
1035.515, 649.6797
1036.622, 573.2227
1037.728, 140.5273
1038.833, 682.8320
1039.939, 567.7344
1041.045, 449.6758
1042.150, 563.0195
1043.255, 463.6719
1044.360, 435.1055
1045.465, 593.5586
1046.570, 262.4453
1047.675, 546.1328
1048.779, 611.6523
1049.884, 320.2383
1050.988, 282.8672
1052.092, 639.4922
1053.196, 151.6992
1054.300, 348.1836
1055.404, 387.5742
1056.507, 203.9492
1057.610, 217.8945
1058.714, 848.8594
1059.817, 580.6484
1060.920, 240.4180
1062.022, 597.5078
1063.125, 179.8789
1064.228, 248.4336
1065.330, 337.5859
1066.432, 316.4805
1067.534, 302.5977
1068.636, 652.2031
1069.738, 292.8867
1070.840, 377.4609
1071.941, 630.6836
1073.042, 134.9141
1074.144, 291.4961
1075.245, 413.7734
1076.346, 192.0898
1077.446, 282.3711
1078.547, 780.6562
1079.647, 84.94141
1080.748, 468.7930
1081.848, 127.1016
1082.948, 117.4102
1084.048, 494.9414
1085.148, 439.2539
1086.247, 159.0547
1087.347, 530.9492
1088.446, 385.3164
1089.545, 234.6797
1090.644, 176.0430
1091.743, 456.4102
1092.842, 118.7773
1093.940, 409.8867
1095.039, 271.2500
1096.137, 87.35938
1097.235, 84.84766
1098.333, 672.7539
1099.431, 31.10938
1100.529, 272.6055
1101.627, 208.9609
1102.724, 57.66016
1103.822, 103.3633
1104.919, 71.88672
1106.016, 83.04688
1107.113, 105.3945
1108.209, 35.73047
1109.306, 7.8125000E-02
1110.402, 1.109375
1111.499, 20.21875
1112.595, 17.98438
1113.691, 88.33984
1114.787, 108.4961
1115.883, 226.8086
1116.978, 396.7461
1118.074, 447.0508
1119.169, 278.6953
1120.264, 538.6758
1121.359, 708.9609
1122.454, 356.3750
1123.549, 534.6523
1124.644, 399.9258
1125.738, 117.1914
1126.832, 446.8008
1127.927, 63.31641
1129.021, 59.86719
1130.115, 193.5898
1131.208, 23.80469
1132.302, 76.00000
1133.396, 307.7617
1134.489, 194.9141
1135.582, 30.94141
1136.675, 330.1836
1137.768, 101.6992
1138.861, 71.64453
1139.954, 302.8359
1141.046, 29.16016
1142.138, 118.1836
1143.231, 72.62891
1144.323, 172.4727
1145.415, 86.32031
1146.507, 304.1133
1147.598, 55.89062
1148.690, 88.33984
1149.781, 114.3711
1150.872, 189.9336
1151.964, 108.8320
1153.054, 19.37891
1154.145, 122.8047
1155.236, 65.42969
1156.327, 431.0312
1157.417, 105.4062
1158.507, 256.1055
1159.597, 510.4609
1160.687, 25.19922
1161.777, 149.9023
1162.867, 501.2891
1163.956, 63.50781
1165.046, 75.28906
1166.135, 323.8750
1167.224, 91.02734
1168.313, 180.1562
1169.402, 168.2695
1170.491, 32.37500
1171.580, 89.54688
1172.668, 284.4531
1173.756, 117.4375
1174.845, 407.4062
1175.933, 429.7109
1177.020, 88.64844
1178.108, 139.5664
1179.196, 341.4688
1180.283, 196.3594
1181.371, 288.2266
1182.458, 340.0781
1183.545, 17.08984
1184.632, 11.69141
1185.719, 42.43750
1186.805, 79.16406
1187.892, 185.8633
1188.978, 350.5430
1190.065, 13.66797
1191.151, 307.9414
1192.237, 429.5352
1193.323, 8.101563
1194.408, 103.6289
1195.494, 405.1289
1196.579, 14.38672
1197.664, 114.0430
1198.750, 369.4922
1199.835, 88.87500
1200.919, 117.2305
1202.004, 453.5664
1203.089, 321.8750
1204.173, 134.1719
1205.258, 502.4375
1206.342, 209.6758
1207.426, 714.9023
1208.510, 675.0977
1209.594, 286.2734
1210.677, 92.43359
1211.761, 384.5586
1212.844, 308.6680
1213.927, 174.7461
1215.010, 646.8047
1216.093, 112.8438
1217.176, 95.85547
1218.259, 434.8359
1219.341, 318.7969
1220.424, 303.8984
1221.506, 581.8164
1222.588, 266.7070
1223.670, 71.58203
1224.752, 266.4219
1225.834, 234.3867
1226.915, 143.1484
1227.997, 788.9141
1229.078, 288.3242
1230.159, 26.04688
1231.240, 510.7227
1232.321, 161.3750
1233.402, 162.0000
1234.483, 450.6758
1235.563, 422.3203
1236.644, 320.9492
1237.724, 518.5625
1238.804, 74.15625
1239.884, 43.57812
1240.964, 389.9414
1242.044, 432.4062
1243.123, 177.1641
1244.203, 443.6172
1245.282, 341.0391
1246.361, 107.4414
1247.440, 505.8164
1248.519, 178.1641
1249.598, 100.4883
1250.676, 347.7773
1251.755, 69.03906
1252.833, 368.3555
1253.911, 556.5625
1254.989, 386.7422
1256.067, 185.8945
1257.145, 208.0273
1258.223, 134.1289
1259.300, 211.3438
1260.378, 498.3906
1261.455, 453.2344
1262.532, 124.4766
1263.609, 681.4414
1264.686, 406.3867
1265.763, 367.7227
1266.840, 627.6172
1267.916, 290.6562
1268.992, 151.0430
1270.069, 574.8672
1271.145, 408.9727
1272.221, 73.64453
1273.296, 335.3164
1274.372, 516.4180
1275.448, 548.0859
1276.523, 501.7578
1277.598, 644.2422
1278.673, 454.6680
1279.749, 339.9258
1280.823, 115.4766
1281.898, 47.14844
1282.973, 135.8945
1284.047, 71.73047
1285.122, 316.6562
1286.196, 278.4609
1287.270, 148.3789
1288.344, 435.5938
1289.418, 363.6484
1290.491, 262.5273
1291.565, 307.5156
1292.638, 443.8672
1293.712, 642.4297
1294.785, 214.1250
1295.858, 499.2031
1296.931, 309.8008
1298.003, 311.6836
1299.076, 398.5469
1300.149, 524.8164
1301.221, 278.0391
1302.293, 318.8633
1303.365, 394.4219
1304.437, 4.792969
1305.509, 425.7266
1306.581, 429.0586
1307.652, 249.5820
1308.724, 855.5586
1309.795, 507.2109
1310.866, 424.8438
1311.937, 449.4531
1313.008, 351.6133
1314.079, 627.3516
1315.150, 273.2656
1316.220, 565.3047
1317.291, 247.7734
1318.361, 193.2656
1319.431, 659.2500
1320.501, 361.7148
1321.571, 662.1602
1322.641, 660.3516
1323.710, 264.3438
1324.780, 461.8359
1325.849, 366.4844
1326.918, 207.4570
1327.987, 366.8125
1329.056, 590.6406
1330.125, 633.5625
1331.194, 637.3555
1332.263, 627.1719
1333.331, 542.1055
1334.399, 385.3711
1335.467, 424.5898
1336.535, 314.8203
1337.603, 327.4219
1338.671, 412.2539
1339.739, 346.8945
1340.806, 337.0703
1341.874, 304.2344
1342.941, 761.1602
1344.008, 251.2891
1345.075, 389.9219
1346.142, 611.5820
1347.209, 355.6719
1348.275, 180.7539
1349.342, 504.6250
1350.408, 237.6758
1351.475, 455.7148
1352.541, 417.9961
1353.607, 185.0117
1354.673, 373.9805
1355.738, 656.5703
1356.804, 64.55078
1357.869, 543.5195
1358.935, 410.3320
1360.000, 352.2734
1361.065, 431.8555
1362.130, 383.5781
1363.195, 500.9297
1364.259, 322.8281
1365.324, 455.8086
1366.388, 266.6797
1367.453, 310.6055
1368.517, 559.9375
1369.581, 300.6523
1370.645, 157.3555
1371.709, 713.3359
1372.772, 296.0156
1373.836, 321.6836
1374.899, 513.7031
1375.963, 322.3516
1377.026, 280.6367
1378.089, 720.5742
1379.152, 458.1953
1380.214, 217.6758
1381.277, 608.2773
1382.340, 278.0586
1383.402, 322.6406
1384.464, 379.8711
1385.526, 584.6602
1386.588, 466.6562
1387.650, 410.9766
1388.712, 540.6445
1389.774, 196.1953
1390.835, 384.1562
1391.896, 538.7148
1392.958, 234.2656
1394.019, 360.8164
1395.080, 569.3672
1396.141, 106.3555
1397.201, 304.4531
1398.262, 660.0156
1399.323, 266.5781
1400.383, 516.2734
1401.443, 613.0820
1402.503, 426.9805
1403.563, 348.3047
1404.623, 249.1289
1405.683, 513.4336
1406.742, 292.7266
1407.802, 480.0039
1408.861, 211.9961
1409.920, 249.4023
1410.980, 573.6562
1412.039, 266.1836
1413.097, 483.3984
1414.156, 396.7227
1415.215, 4.703125
1416.273, 345.0000
1417.331, 646.2812
1418.390, 389.5625
1419.448, 149.1367
1420.506, 571.1016
1421.564, 151.3906
1422.621, 97.69531
1423.679, 464.4688
1424.736, 247.7070
1425.794, 241.8516
1426.851, 475.9961
1427.908, 474.3398
1428.965, 228.4805
1430.022, 601.6406
1431.079, 723.8008
1432.135, 42.55859
1433.192, 408.6719
1434.248, 438.7891
1435.304, 133.4336
1436.360, 348.9805
1437.416, 494.3789
1438.472, 217.9609
1439.528, 424.6680
1440.583, 487.7109
1441.639, 209.6562
1442.694, 649.5977
1443.749, 756.4141
1444.804, 766.3633
1445.859, 330.3203
1446.914, 739.2930
1447.969, 513.2266
1449.024, 274.2070
1450.078, 880.1836
1451.132, 189.1562
1452.187, 446.1172
1453.241, 600.0664
1454.295, 559.0195
1455.349, 323.9688
1456.402, 874.9141
1457.456, 813.8633
1458.509, 585.6016
1459.563, 869.5273
1460.616, 582.2773
1461.669, 499.2031
1462.722, 617.3164
1463.775, 379.2539
1464.828, 466.0977
1465.880, 433.8477
1466.933, 511.5508
1467.985, 525.5586
1469.037, 433.5703
1470.090, 560.2734
1471.142, 219.9805
1472.193, 192.6953
1473.245, 749.4141
1474.297, 282.0352
1475.348, 60.76562
1476.400, 628.4961
1477.451, 501.2383
1478.502, 225.7344
1479.553, 379.4844
1480.604, 534.2148
1481.655, 280.1484
1482.706, 724.8906
1483.756, 435.6367
1484.807, 230.3789
1485.857, 585.1250
1486.907, 683.8750
1487.957, 246.5352
1489.007, 214.3203
1490.057, 611.5156
1491.106, 15.01172
1492.156, 457.3672
1493.205, 286.9453
1494.255, 174.7461
1495.304, 542.2617
1496.353, 529.2695
1497.402, 1.296875
1498.451, 270.2656
1499.500, 234.7930
1500.548, 552.8164
1501.597, 338.2734
1502.645, 316.3633
1503.693, 337.5000
1504.741, 242.7422
1505.789, 324.8281
1506.837, 229.9922
1507.885, 180.1602
1508.932, 247.1328
1509.980, 471.2930
1511.027, 115.4609
1512.075, 541.6211
1513.122, 290.7891
1514.169, 207.9648
1515.216, 501.1523
1516.262, 239.3516
1517.309, 406.5586
1518.356, 470.7852
1519.402, 832.6875
1520.448, 703.1250
1521.495, 138.9336
1522.541, 546.1523
1523.587, 340.3906
1524.632, 255.6602
1525.678, 667.9414
1526.724, 197.2422
1527.769, 81.93750
1528.814, 503.2109
1529.860, 77.80078
1530.905, 206.0547
1531.950, 467.1484
1532.995, 296.9609
1534.039, 148.6953
1535.084, 504.3359
1536.128, 416.8438
1537.173, 407.3906
1538.217, 176.5703
1539.261, 535.3438
1540.305, 226.5430
1541.349, 408.9805
1542.393, 635.1367
1543.436, 304.9805
1544.480, 475.0625
1545.523, 574.1016
1546.567, 173.2188
1547.610, 55.24219
1548.653, 513.1875
1549.696, 177.9062
1550.739, 346.0078
1551.781, 553.5234
1552.824, 153.3984
1553.867, 40.85547
1554.909, 487.0977
1555.951, 249.7031
1556.993, 257.9336
1558.035, 429.8359
1559.077, 480.1914
1560.119, 362.7812
1561.161, 314.1289
1562.202, 274.8633
1563.243, 29.92188
1564.285, 0.3867190
1565.326, 0.0000000E+00
##END=



