##NAMES=Albite
##RRUFFID=R040068
##IDEAL CHEMISTRY=NaAlSi_3_O_8_
##LOCALITY=Harding Pegmatite, Dixon, New Mexico, USA
##OWNER=RRUFF
##SOURCE=University of Arizona Mineral Museum
##DESCRIPTION=Tan colored crystal fragment
##STATUS=The identification of this mineral has been confirmed by X-ray diffraction and chemical analysis
##URL=rruff.info/R040068
##MEASURED CHEMISTRY=(Na_0.99_Ca_0.01_)Al_1.00_(Si_0.99_Al_0.01_)_3_O_8_
##PIN_ID=M00277
##ORIENTATION=Laser parallel to (-1 0 -1). Fiducial mark perpendicular to laser is parallel to b [0 1 0]
121.897, 0.000
123.286, 1.505
124.675, 29.236
126.063, 7.905
127.452, 19.774
128.840, 150.935
130.228, 107.926
131.615, 201.030
133.003, 248.988
134.390, 220.865
135.777, 335.963
137.164, 333.921
138.550, 514.373
139.937, 706.912
141.323, 861.227
142.709, 1107.062
144.094, 1244.211
145.480, 1662.500
146.865, 1881.786
148.250, 2121.948
149.635, 2322.956
151.019, 2355.700
152.403, 2229.576
153.788, 2233.912
155.171, 2158.687
156.555, 2333.895
157.939, 2779.499
159.322, 3345.452
160.705, 3621.720
162.088, 3698.283
163.470, 3395.111
164.853, 2892.168
166.235, 2509.428
167.617, 2396.873
168.998, 2234.484
170.380, 1982.251
171.761, 1910.165
173.142, 1718.215
174.523, 1866.395
175.904, 2014.696
177.284, 2055.422
178.664, 2246.494
180.044, 2698.824
181.424, 3162.357
182.803, 3262.174
184.183, 3641.104
185.562, 3570.474
186.940, 3380.168
188.319, 3050.248
189.698, 2390.553
191.076, 2020.917
192.454, 1781.268
193.831, 1471.605
195.209, 1301.932
196.586, 1272.248
197.963, 1222.558
199.340, 1213.053
200.717, 1333.546
202.093, 1574.028
203.470, 1914.496
204.846, 2474.931
206.221, 2775.270
207.597, 3215.549
208.972, 3105.797
210.347, 2726.027
211.722, 2236.251
213.097, 1566.479
214.472, 1166.713
215.846, 846.962
217.220, 597.228
218.594, 277.510
219.967, 307.813
221.341, 128.140
222.714, 128.487
224.087, 48.859
225.460, 29.253
226.832, 19.671
228.204, 80.110
229.577, 100.573
230.948, 38.939
232.320, 2.696
233.692, 75.750
235.063, 85.228
236.434, 44.688
237.805, 124.095
239.175, 23.520
240.545, 60.153
241.916, 186.698
243.286, 24.756
244.655, 142.290
246.025, 285.820
247.394, 232.310
248.763, 379.201
250.132, 504.449
251.501, 473.088
252.869, 453.832
254.237, 266.808
255.605, 245.387
256.973, 225.293
258.340, 278.308
259.708, 348.218
261.075, 368.114
262.442, 447.988
263.808, 707.849
265.175, 857.720
266.541, 977.604
267.907, 1137.504
269.273, 1207.420
270.639, 877.346
272.004, 887.283
273.369, 667.365
274.734, 776.858
276.099, 707.741
277.463, 637.624
278.828, 907.875
280.192, 997.772
281.556, 1417.686
282.919, 1797.610
284.283, 2547.547
285.646, 3537.492
287.009, 4425.041
288.372, 5302.676
289.734, 5631.002
291.097, 5249.605
292.459, 4318.605
293.821, 3337.857
295.183, 2617.318
296.544, 1886.955
297.905, 1446.766
299.266, 1046.712
300.627, 756.779
301.988, 576.956
303.348, 577.227
304.709, 387.584
306.069, 418.019
307.428, 428.521
308.788, 419.086
310.147, 309.709
311.507, 410.383
312.865, 171.105
314.224, 261.871
315.583, 232.672
316.941, 243.504
318.299, 224.364
319.657, 345.250
321.015, 496.159
322.372, 611.630
323.729, 588.039
325.086, 919.008
326.443, 1069.993
327.800, 1140.993
329.156, 912.007
330.512, 763.035
331.868, 534.075
333.224, 415.126
334.579, 316.188
335.935, 187.287
337.290, 308.395
338.645, 159.512
339.999, 150.638
341.354, 1.759
342.708, 132.825
344.062, 3.860
345.416, 54.874
346.769, 215.898
348.123, 146.938
349.476, 157.979
350.829, 59.023
352.182, 30.067
353.534, 101.112
354.887, 82.155
356.239, 3.207
357.591, 45.748
358.942, 14.720
360.294, 76.299
361.645, 82.683
362.996, 48.312
364.347, 9.303
365.698, 49.712
367.048, 48.748
368.398, 77.805
369.748, 33.128
371.098, 55.922
372.448, 65.007
373.797, 64.069
375.146, 43.145
376.495, 97.757
377.844, 81.341
379.192, 29.528
380.540, 89.575
381.889, 1.287
383.236, 7.859
384.584, 32.979
385.932, 26.186
387.279, 35.368
388.626, 105.428
389.973, 106.221
391.319, 12.986
392.666, 157.793
394.012, 187.796
395.358, 278.556
396.704, 177.317
398.049, 365.705
399.394, 305.482
400.740, 382.215
402.084, 532.542
403.429, 721.707
404.774, 932.385
406.118, 1162.517
407.462, 1093.118
408.806, 783.657
410.150, 744.161
411.493, 674.637
412.836, 755.085
414.179, 885.492
415.522, 715.848
416.865, 636.185
418.207, 416.483
419.549, 306.778
420.891, 197.059
422.233, 47.338
423.575, 32.388
424.916, 52.053
426.257, 168.097
427.598, 18.322
428.939, 78.648
430.279, 228.861
431.619, 139.071
432.959, 39.276
434.299, 119.613
435.639, 249.809
436.978, 140.212
438.318, 91.346
439.657, 301.605
440.996, 411.908
442.334, 312.205
443.673, 272.431
445.011, 252.743
446.349, 363.202
447.687, 753.823
449.024, 594.688
450.361, 1035.210
451.699, 1206.108
453.036, 1517.782
454.372, 1748.524
455.709, 1808.736
457.045, 1738.852
458.381, 1422.726
459.717, 1252.832
461.053, 1202.935
462.388, 1163.246
463.724, 1323.520
465.059, 1133.865
466.394, 1403.972
467.728, 1704.120
469.063, 2134.176
470.397, 2764.223
471.731, 3824.260
473.065, 5024.287
474.398, 7004.304
475.732, 9134.311
477.065, 11144.309
478.398, 11404.529
479.731, 10104.502
481.063, 8194.465
482.396, 5824.416
483.728, 4264.354
485.060, 3674.283
486.391, 2634.199
487.723, 1964.103
489.054, 1943.994
490.385, 1533.874
491.716, 1643.741
493.047, 1703.594
494.377, 1793.435
495.708, 2119.738
497.038, 2779.554
498.368, 3329.355
499.697, 4429.271
501.027, 6189.352
502.356, 8468.371
503.685, 11244.028
505.014, 13823.054
506.342, 14885.158
507.671, 13347.370
508.999, 11067.133
510.327, 8297.442
511.655, 6397.104
512.982, 4737.606
514.310, 3417.349
515.637, 2849.613
516.964, 2148.691
518.291, 1825.062
519.617, 1493.354
520.944, 1493.506
522.270, 1108.090
523.596, 1008.421
524.921, 1047.306
526.247, 892.971
527.572, 748.611
528.897, 596.860
530.222, 600.944
531.547, 615.924
532.871, 635.604
534.196, 610.771
535.520, 461.171
536.844, 511.020
538.167, 464.012
539.491, 320.611
540.814, 413.021
542.137, 371.360
543.460, 238.658
544.783, 338.159
546.105, 164.609
547.427, 177.895
548.749, 260.035
550.071, 170.146
551.393, 167.713
552.714, 216.969
554.035, 316.754
555.356, 275.984
556.677, 175.352
557.998, 334.898
559.318, 254.109
560.638, 333.340
561.958, 272.561
563.278, 201.977
564.597, 341.182
565.917, 200.639
567.236, 169.818
568.555, 229.002
569.874, 139.059
571.192, 388.436
572.511, 307.686
573.829, 357.059
575.147, 606.168
576.464, 436.211
577.782, 725.297
579.099, 534.887
580.416, 654.844
581.733, 413.766
583.050, 288.973
584.366, 263.211
585.683, 172.213
586.999, 80.270
588.315, 109.256
589.630, 298.229
590.946, 207.422
592.261, 76.068
593.576, 205.043
594.891, 54.002
596.206, 12.945
597.520, 81.863
598.834, 70.771
600.148, 71.879
601.462, 88.529
602.776, 67.387
604.089, 46.225
605.402, 34.457
606.715, 22.309
608.028, 42.625
609.341, 21.387
610.653, 0.141
611.965, 28.865
613.277, 97.568
614.589, 256.254
615.901, 35.068
617.212, 173.559
618.523, 142.168
619.834, 70.764
621.145, 79.342
622.456, 61.094
623.766, 116.447
625.076, 104.975
626.386, 143.484
627.696, 241.979
629.006, 220.457
630.315, 328.920
631.624, 277.369
632.933, 195.801
634.242, 164.217
635.551, 72.615
636.859, 200.996
638.167, 249.363
639.475, 207.711
640.783, 136.045
642.090, 354.361
643.398, 332.662
644.705, 270.947
646.012, 379.217
647.318, 377.471
648.625, 235.705
649.931, 143.926
651.237, 352.129
652.543, 79.682
653.849, 228.436
655.155, 196.533
656.460, 104.619
657.765, 62.686
659.070, 130.734
660.375, 71.232
661.679, 146.738
662.984, 15.307
664.288, 17.389
665.592, 120.490
666.895, 28.354
668.199, 246.197
669.502, 14.021
670.805, 111.822
672.108, 20.393
673.411, 47.352
674.713, 45.086
676.016, 22.812
677.318, 30.527
678.620, 8.221
679.921, 16.020
681.223, 93.691
682.524, 71.350
683.825, 79.039
685.126, 53.301
686.427, 55.672
687.727, 101.908
689.028, 79.484
690.328, 72.955
691.628, 124.561
692.927, 42.488
694.227, 369.986
695.526, 100.951
696.825, 175.475
698.124, 42.920
699.423, 140.354
700.721, 47.797
702.020, 65.207
703.318, 113.127
704.616, 50.998
705.913, 18.473
707.211, 16.027
708.508, 294.385
709.805, 41.906
711.102, 339.219
712.399, 116.516
713.695, 74.389
714.992, 351.648
716.288, 263.375
717.584, 420.604
718.879, 109.705
720.175, 316.898
721.470, 94.875
722.765, 202.035
724.060, 193.445
725.355, 20.574
726.649, 107.678
727.944, 135.039
729.238, 102.525
730.532, 259.594
731.825, 16.629
733.119, 273.779
734.412, 51.475
735.705, 18.545
736.998, 245.975
738.291, 232.906
739.584, 89.910
740.876, 206.852
742.168, 217.193
743.460, 203.998
744.752, 361.037
746.043, 129.096
747.334, 315.959
748.626, 462.668
749.916, 339.717
751.207, 646.277
752.498, 492.459
753.788, 609.115
755.078, 845.709
756.368, 1002.285
757.658, 1388.914
758.947, 1675.436
760.237, 2301.789
761.526, 2597.969
762.815, 2743.889
764.104, 2430.352
765.392, 2199.848
766.680, 1674.922
767.969, 1190.910
769.257, 1267.414
770.544, 1045.160
771.832, 867.967
773.119, 954.516
774.406, 701.051
775.693, 837.523
776.980, 563.846
778.267, 600.068
779.553, 346.510
780.839, 422.885
782.125, 489.330
783.411, 456.049
784.697, 412.463
785.982, 358.980
787.267, 395.367
788.552, 311.740
789.837, 308.096
791.122, 274.205
792.406, 170.582
793.690, 296.895
794.974, 173.195
796.258, 359.480
797.542, 285.750
798.825, 332.010
800.108, 448.252
801.391, 204.480
802.674, 590.695
803.957, 416.896
805.239, 623.084
806.522, 699.260
807.804, 778.943
809.085, 1275.092
810.367, 1641.225
811.649, 2167.217
812.930, 2633.020
814.211, 2579.094
815.492, 2599.266
816.772, 2385.336
818.053, 1759.006
819.333, 1212.545
820.613, 958.504
821.893, 643.895
823.173, 569.902
824.452, 415.021
825.732, 440.898
827.011, 314.227
828.290, 419.760
829.568, 365.262
830.847, 210.504
832.125, 315.840
833.403, 120.777
834.681, 235.883
835.959, 211.586
837.236, 137.205
838.514, 202.838
839.791, 164.086
841.068, 135.182
842.345, 190.879
843.621, 146.473
844.898, 306.475
846.174, 32.236
847.450, 237.584
848.726, 16.611
850.001, 138.422
851.277, 197.273
852.552, 122.424
853.827, 118.059
855.102, 123.232
856.376, 8.533
857.651, 14.020
858.925, 99.186
860.199, 73.975
861.473, 11.289
862.746, 74.301
864.020, 249.340
865.293, 124.912
866.566, 0.332
867.839, 295.557
869.112, 68.902
870.384, 216.594
871.656, 27.918
872.928, 177.346
874.200, 7.152
875.472, 278.074
876.744, 66.447
878.015, 138.992
879.286, 293.535
880.557, 48.734
881.828, 14.043
883.098, 109.205
884.369, 224.605
885.639, 79.055
886.909, 5.561
888.178, 89.293
889.448, 3.760
890.717, 159.113
891.987, 94.463
893.256, 169.504
894.524, 55.158
895.793, 180.145
897.061, 75.441
898.330, 179.266
899.598, 135.738
900.865, 210.926
902.133, 56.129
903.401, 241.324
904.668, 16.514
905.935, 171.699
907.202, 216.879
908.468, 272.064
909.735, 267.246
911.001, 132.420
912.267, 157.594
913.533, 102.760
914.799, 237.926
916.064, 53.088
917.330, 61.758
918.595, 143.367
919.860, 238.492
921.124, 223.615
922.389, 21.268
923.653, 363.830
924.918, 108.938
926.182, 294.035
927.445, 59.127
928.709, 224.211
929.972, 119.287
931.236, 254.355
932.499, 349.414
933.761, 204.465
935.024, 29.506
936.286, 304.537
937.549, 69.562
938.811, 244.580
940.073, 279.596
941.334, 244.607
942.596, 149.615
943.857, 84.621
945.118, 379.621
946.379, 424.619
947.640, 289.611
948.900, 344.600
950.161, 169.588
951.421, 274.570
952.681, 219.551
953.940, 234.529
955.200, 269.506
956.459, 374.477
957.719, 99.447
958.978, 324.414
960.236, 239.406
961.495, 414.396
962.753, 439.383
964.012, 534.367
965.270, 369.352
966.527, 574.332
967.785, 359.338
969.043, 104.340
970.300, 499.352
971.557, 414.373
972.814, 459.395
974.071, 404.418
975.327, 549.439
976.583, 474.463
977.840, 569.486
979.095, 544.521
980.351, 369.561
981.607, 574.598
982.862, 199.637
984.117, 544.678
985.372, 299.738
986.627, 154.787
987.882, 583.201
989.136, 298.223
990.390, 273.275
991.644, 348.348
992.898, 143.438
994.152, 528.676
995.405, 313.773
996.659, 468.998
997.912, 373.711
999.165, 348.840
1000.417, 462.418
1001.670, 648.588
1002.922, 623.752
1004.174, 708.920
1005.426, 754.074
1006.678, 539.252
1007.930, 833.914
1009.181, 618.631
1010.432, 613.729
1011.683, 698.734
1012.934, 662.930
1014.185, 644.246
1015.435, 616.270
1016.685, 548.541
1017.935, 503.176
1019.185, 448.562
1020.435, 409.318
1021.684, 384.842
1022.934, 388.201
1024.183, 534.578
1025.432, 389.418
1026.680, 344.688
1027.929, 586.658
1029.177, 291.939
1030.425, 477.234
1031.673, 492.859
1032.921, 487.752
1034.169, 443.051
1035.416, 388.379
1036.663, 243.576
1037.911, 588.180
1039.157, 273.490
1040.404, 668.336
1041.650, 613.809
1042.897, 859.080
1044.143, 674.533
1045.389, 387.213
1046.634, 852.584
1047.880, 667.822
1049.125, 1073.018
1050.371, 818.420
1051.615, 698.018
1052.860, 563.225
1054.105, 828.689
1055.349, 463.521
1056.593, 1218.729
1057.837, 824.781
1059.081, 571.723
1060.325, 606.895
1061.568, 312.445
1062.812, 567.609
1064.055, 442.758
1065.298, 477.906
1066.540, 462.812
1067.783, 344.945
1069.025, 509.840
1070.267, 534.695
1071.509, 329.643
1072.751, 473.150
1073.993, 457.764
1075.234, 532.322
1076.475, 646.812
1077.716, 391.006
1078.957, 675.287
1080.198, 719.498
1081.438, 573.633
1082.679, 757.707
1083.919, 711.826
1085.159, 665.422
1086.398, 1070.586
1087.638, 1015.869
1088.877, 1281.160
1090.116, 1446.404
1091.355, 1491.703
1092.594, 2317.006
1093.833, 2442.318
1095.071, 2917.633
1096.309, 3172.957
1097.547, 3308.283
1098.785, 3353.037
1100.023, 3268.955
1101.260, 3024.303
1102.498, 2769.656
1103.735, 2315.014
1104.972, 2410.379
1106.208, 2275.750
1107.445, 1761.125
1108.681, 1796.510
1109.918, 1581.898
1111.154, 1607.273
1112.389, 1822.639
1113.625, 1438.008
1114.860, 1683.383
1116.096, 1618.760
1117.331, 1434.154
1118.566, 1599.664
1119.800, 1005.178
1121.035, 1310.701
1122.269, 1596.238
1123.503, 951.795
1124.737, 767.361
1125.971, 632.938
1127.205, 628.549
1128.438, 464.205
1129.671, 509.754
1130.904, 445.330
1132.137, 270.930
1133.370, 76.533
1134.602, 412.146
1135.834, 52.230
1137.066, 343.408
1138.298, 289.055
1139.530, 274.723
1140.762, 290.416
1141.993, 76.258
1143.224, 372.045
1144.455, 87.848
1145.686, 483.646
1146.917, 339.439
1148.147, 245.240
1149.377, 311.059
1150.607, 416.918
1151.837, 412.826
1153.067, 413.451
1154.296, 423.932
1155.526, 300.801
1156.755, 286.891
1157.984, 163.035
1159.213, 131.908
1160.441, 142.424
1161.670, 91.791
1162.898, 188.109
1164.126, 254.459
1165.354, 270.844
1166.581, 97.262
1167.809, 243.717
1169.036, 70.209
1170.263, 216.738
1171.490, 156.688
1172.717, 59.928
1173.943, 256.588
1175.170, 13.299
1176.396, 170.057
1177.622, 206.863
1178.848, 43.719
1180.073, 190.625
1181.299, 237.586
1182.524, 184.605
1183.749, 341.336
1184.974, 228.033
1186.199, 134.957
1187.423, 411.473
1188.648, 128.148
1189.872, 395.217
1191.096, 142.346
1192.320, 49.535
1193.543, 416.791
1194.767, 224.107
1195.990, 41.488
1197.213, 488.279
1198.436, 24.244
1199.659, 292.588
1200.881, 178.832
1202.104, 442.158
1203.326, 295.564
1204.548, 14.475
1205.770, 106.852
1206.991, 241.086
1208.213, 65.004
1209.434, 238.531
1210.655, 211.334
1211.876, 353.869
1213.096, 320.820
1214.317, 34.297
1215.537, 317.312
1216.757, 412.873
1217.977, 71.662
1219.197, 219.928
1220.417, 329.010
1221.636, 69.949
1222.855, 447.984
1224.074, 73.428
1225.293, 136.752
1226.512, 363.990
1227.731, 59.391
1228.949, 38.078
1230.167, 0.896
1231.385, 0.000
##END=



