##NAMES=Albite
##RRUFFID=R040129
##IDEAL CHEMISTRY=NaAlSi_3_O_8_
##LOCALITY=LaChance Quarry, Brunswick, Cumberland County, Maine, USA
##OWNER=RRUFF
##SOURCE=Bob Downs
##DESCRIPTION=Colorless fragment of a tabular single crystal
##STATUS=The identification of this mineral has been confirmed by X-ray diffraction and chemical analysis
##URL=rruff.info/R040129
##MEASURED CHEMISTRY=(Na_0.99_K_0.01_)Al_1.00_Si_3.00_O_8_
##PIN_ID=L00331
##ORIENTATION=Laser parallel to (1 0 1). Fiducial mark perpendicular to laser is parallel to -b [0 -1 0]
118.956, 0.000
120.347, 3.521
121.738, 18.614
123.129, 83.167
124.519, 87.834
125.910, 143.738
127.300, 41.179
128.690, 146.606
130.080, 118.991
131.469, 22.589
132.858, 168.155
134.248, 185.736
135.636, 163.925
137.025, 395.328
138.413, 546.626
139.801, 733.555
141.189, 929.892
142.577, 1281.450
143.964, 1920.073
145.352, 2179.624
146.739, 2759.992
148.125, 2901.090
149.512, 3604.174
150.898, 3668.211
152.284, 3482.707
153.670, 3007.713
155.056, 2593.195
156.441, 2899.081
157.827, 3325.311
159.212, 4471.861
160.596, 5338.703
161.981, 6155.793
163.365, 5983.088
164.749, 4800.566
166.133, 4158.199
167.517, 3545.975
168.900, 3623.875
170.283, 3731.886
171.666, 3399.999
173.049, 3368.202
174.431, 2746.486
175.813, 3054.853
177.195, 3103.410
178.577, 3478.820
179.959, 3959.211
181.340, 4497.631
182.721, 5446.475
184.102, 5706.186
185.483, 6446.793
186.863, 5947.848
188.244, 5709.133
189.624, 4910.393
191.003, 3791.505
192.383, 3132.473
193.762, 2543.304
195.141, 2224.005
196.520, 1974.646
197.899, 1735.526
199.277, 1646.514
200.656, 1697.425
202.034, 1968.196
203.411, 2108.801
204.789, 2959.280
206.166, 3839.660
207.543, 5009.957
208.920, 5540.182
210.297, 5170.348
211.673, 4600.462
213.049, 3090.533
214.425, 2250.563
215.801, 1650.557
217.176, 1130.518
218.552, 910.446
219.927, 550.346
221.302, 450.217
222.676, 350.062
224.051, 229.879
225.425, 189.670
226.799, 119.436
228.173, 189.176
229.546, 88.891
230.919, 148.659
232.292, 28.635
233.665, 18.261
235.038, 2.141
236.410, 162.260
237.782, 42.146
239.154, 121.824
240.526, 144.069
241.898, 69.985
243.269, 107.587
244.640, 52.700
246.011, 133.940
247.381, 389.617
248.752, 540.985
250.122, 846.491
251.492, 966.339
252.861, 891.792
254.231, 853.947
255.600, 535.692
256.969, 504.819
258.338, 432.415
259.707, 429.745
261.075, 577.055
262.443, 524.288
263.811, 871.483
265.179, 1018.662
266.546, 1385.821
267.914, 1642.956
269.281, 1920.064
270.647, 1927.143
272.014, 1444.656
273.380, 1337.911
274.747, 1185.569
276.113, 884.903
277.478, 906.390
278.844, 897.555
280.209, 1185.504
281.574, 1302.512
282.939, 1969.274
284.304, 2425.560
285.668, 3691.029
287.032, 5007.633
288.396, 7074.572
289.760, 8661.786
291.123, 8729.201
292.487, 8556.813
293.850, 6164.589
295.212, 4812.504
296.575, 3350.325
297.937, 2348.465
299.300, 1746.693
300.662, 1385.000
302.023, 1033.373
303.385, 881.803
304.746, 690.283
306.107, 638.806
307.468, 477.365
308.829, 615.956
310.189, 654.574
311.549, 563.213
312.909, 521.872
314.269, 260.540
315.629, 389.213
316.988, 217.888
318.347, 286.562
319.706, 345.235
321.065, 303.903
322.423, 462.564
323.781, 561.219
325.139, 949.861
326.497, 1288.493
327.855, 1967.112
329.212, 2185.718
330.569, 1754.311
331.926, 1352.887
333.283, 791.448
334.639, 619.993
335.995, 398.521
337.351, 277.030
338.707, 395.522
340.063, 123.994
341.418, 202.446
342.773, 90.801
344.128, 199.036
345.483, 217.286
346.837, 175.516
348.192, 313.716
349.546, 191.889
350.899, 330.028
352.253, 108.136
353.606, 126.207
354.960, 104.245
356.313, 92.249
357.665, 110.221
359.018, 1.841
360.370, 6.051
361.722, 113.896
363.074, 118.294
364.426, 9.437
365.777, 2.873
367.128, 4.767
368.479, 42.364
369.830, 29.925
371.181, 62.556
372.531, 135.101
373.881, 62.272
375.231, 90.392
376.581, 203.126
377.930, 94.037
379.280, 148.788
380.629, 81.703
381.977, 74.686
383.326, 2.264
384.674, 29.164
386.023, 43.977
387.370, 17.177
388.718, 19.569
390.066, 116.272
391.413, 112.941
392.760, 80.387
394.107, 196.215
395.454, 205.897
396.800, 312.437
398.146, 518.901
399.492, 645.319
400.838, 551.024
402.184, 393.974
403.529, 705.743
404.874, 682.057
406.219, 1338.440
407.564, 1714.629
408.908, 1570.734
410.252, 1226.740
411.596, 832.577
412.940, 788.314
414.284, 873.935
415.627, 1069.495
416.970, 1194.969
418.313, 810.401
419.656, 585.805
420.999, 311.185
422.341, 146.543
423.683, 201.879
425.025, 22.806
426.367, 52.462
427.708, 62.299
429.049, 77.116
430.390, 28.005
431.731, 3.094
433.072, 138.144
434.412, 129.229
435.752, 8.144
437.092, 163.031
438.432, 97.845
439.772, 142.612
441.111, 287.339
442.450, 382.041
443.789, 176.722
445.127, 431.592
446.466, 376.236
447.804, 470.868
449.142, 775.483
450.480, 949.928
451.817, 1234.654
453.155, 1609.208
454.492, 2043.738
455.829, 2458.247
457.166, 2552.730
458.502, 2427.189
459.838, 1771.624
461.175, 1546.034
462.510, 1300.417
463.846, 1114.772
465.181, 1160.002
466.517, 1123.403
467.852, 1487.679
469.186, 1661.926
470.521, 2116.145
471.855, 2830.335
473.190, 3704.498
474.523, 5448.633
475.857, 7612.740
477.191, 10816.818
478.524, 12640.868
479.857, 12404.888
481.190, 10898.879
482.523, 7692.845
483.855, 5866.779
485.187, 4020.686
486.519, 3354.563
487.851, 2598.412
489.183, 1942.234
490.514, 2066.028
491.845, 1679.793
493.176, 1693.528
494.507, 1957.236
495.837, 1930.916
497.168, 2534.568
498.498, 2928.192
499.828, 3901.787
501.157, 5095.301
502.487, 7048.840
503.816, 10572.135
505.145, 13973.508
506.474, 18856.967
507.802, 19000.395
509.131, 16783.799
510.459, 13557.177
511.787, 9280.527
513.115, 7143.626
514.442, 5276.765
515.770, 3719.772
517.097, 3332.670
518.424, 2445.630
519.750, 2135.528
521.077, 1785.841
522.403, 1658.708
523.729, 1301.069
525.055, 1082.209
526.381, 1281.668
527.706, 912.168
529.031, 883.690
530.356, 854.687
531.681, 650.119
533.006, 760.930
534.330, 712.755
535.654, 346.242
536.978, 632.591
538.302, 384.624
539.625, 494.262
540.949, 388.058
542.272, 432.238
543.595, 501.193
544.917, 431.501
546.240, 417.445
547.562, 399.882
548.884, 504.773
550.206, 326.945
551.527, 277.056
552.849, 210.484
554.170, 26.978
555.491, 225.540
556.812, 288.143
558.132, 54.533
559.453, 468.021
560.773, 110.562
562.093, 323.101
563.412, 215.644
564.732, 88.201
566.051, 340.737
567.370, 213.261
568.689, 365.766
570.008, 338.258
571.326, 150.734
572.644, 493.197
573.963, 285.646
575.280, 778.084
576.598, 720.508
577.915, 602.654
579.233, 1005.051
580.550, 697.436
581.866, 809.393
583.183, 521.598
584.499, 438.258
585.815, 448.623
587.131, 182.760
588.447, 275.979
589.763, 235.461
591.078, 173.674
592.393, 105.463
593.708, 97.162
595.022, 121.898
596.337, 197.566
597.651, 208.812
598.965, 200.576
600.279, 172.840
601.593, 134.555
602.906, 17.041
604.219, 79.273
605.532, 101.500
606.845, 203.717
608.158, 275.926
609.470, 233.205
610.782, 310.318
612.094, 252.508
613.406, 248.180
614.718, 276.865
616.029, 199.031
617.340, 251.189
618.651, 233.344
619.962, 195.488
621.272, 357.625
622.582, 79.764
623.892, 261.898
625.202, 304.027
626.512, 276.154
627.821, 328.271
629.131, 351.354
630.440, 482.488
631.749, 464.586
633.057, 456.682
634.366, 598.771
635.674, 330.855
636.982, 382.932
638.290, 435.008
639.597, 357.074
640.905, 539.139
642.212, 251.197
643.519, 763.252
644.825, 545.305
646.132, 717.375
647.438, 739.441
648.744, 541.506
650.050, 753.564
651.356, 305.619
652.662, 467.674
653.967, 349.723
655.272, 271.770
656.577, 343.814
657.882, 215.859
659.186, 117.900
660.490, 429.938
661.794, 128.025
663.098, 453.939
664.402, 35.904
665.705, 107.867
667.009, 279.830
668.312, 201.791
669.614, 323.750
670.917, 85.711
672.219, 157.672
673.522, 179.635
674.824, 251.598
676.125, 223.561
677.427, 95.543
678.728, 77.535
680.030, 379.529
681.331, 18.428
682.631, 223.617
683.932, 14.316
685.232, 67.754
686.532, 199.840
687.832, 21.934
689.132, 304.064
690.432, 296.248
691.731, 18.438
693.030, 260.680
694.329, 167.006
695.628, 295.230
696.926, 29.318
698.224, 181.656
699.522, 264.033
700.820, 46.434
702.118, 98.848
703.415, 156.334
704.713, 168.805
706.010, 121.295
707.307, 136.209
708.603, 206.223
709.900, 190.025
711.196, 80.143
712.492, 372.627
713.788, 242.670
715.083, 374.473
716.379, 326.842
717.674, 69.156
718.969, 471.537
720.264, 31.100
721.558, 433.350
722.853, 135.742
724.147, 298.145
725.441, 370.547
726.735, 103.570
728.028, 405.988
729.322, 148.410
730.615, 120.840
731.908, 623.271
733.201, 164.289
734.493, 608.074
735.785, 180.443
737.078, 186.896
738.370, 519.275
739.661, 271.666
740.953, 274.086
742.244, 356.523
743.535, 285.316
744.826, 517.842
746.117, 190.387
747.407, 512.959
748.698, 345.539
749.988, 598.127
751.278, 750.740
752.567, 583.363
753.857, 896.000
755.146, 878.643
756.435, 1081.295
757.724, 1823.953
759.013, 1716.414
760.301, 2769.092
761.590, 3231.777
762.878, 3864.469
764.165, 4107.170
765.453, 2979.881
766.741, 2883.754
768.028, 2016.480
769.315, 1369.217
770.602, 1761.961
771.888, 1004.715
773.175, 1027.475
774.461, 1170.246
775.747, 833.029
777.033, 1177.670
778.319, 600.469
779.604, 783.959
780.889, 656.775
782.174, 319.602
783.459, 822.438
784.744, 375.281
786.028, 648.135
787.312, 531.000
788.596, 353.873
789.880, 626.756
791.164, 409.650
792.447, 502.551
793.730, 625.465
795.013, 278.387
796.296, 451.320
797.579, 454.266
798.861, 397.219
800.143, 455.195
801.425, 478.168
802.707, 721.152
803.989, 814.146
805.270, 837.152
806.551, 1180.168
807.832, 953.191
809.113, 1686.227
810.394, 2069.275
811.674, 2762.332
812.954, 3695.398
814.234, 4088.479
815.514, 4481.566
816.794, 3936.781
818.073, 3259.893
819.352, 2843.016
820.631, 1516.150
821.910, 1589.297
823.189, 1132.453
824.467, 705.621
825.745, 998.803
827.023, 531.996
828.301, 645.199
829.578, 778.414
830.856, 301.645
832.133, 704.883
833.410, 178.133
834.687, 411.398
835.963, 593.820
837.240, 187.109
838.516, 529.805
839.792, 303.580
841.068, 356.932
842.343, 410.293
843.618, 193.666
844.894, 387.096
846.169, 272.135
847.443, 135.588
848.718, 579.238
849.992, 37.287
851.266, 86.182
852.540, 399.664
853.814, 43.154
855.088, 716.654
856.361, 99.832
857.634, 253.646
858.907, 297.135
860.180, 210.633
861.453, 506.145
862.725, 30.330
863.997, 16.809
865.269, 456.748
866.541, 49.684
867.812, 239.145
869.084, 232.740
870.355, 136.346
871.626, 589.984
872.897, 146.369
874.167, 557.229
875.438, 90.965
876.708, 154.713
877.978, 378.473
879.248, 17.754
880.517, 526.021
881.787, 289.811
883.056, 13.615
884.325, 367.432
885.594, 181.281
886.862, 155.404
888.130, 419.277
889.399, 96.840
890.667, 367.023
891.934, 90.896
893.202, 254.783
894.469, 318.682
895.737, 137.408
897.004, 446.457
898.270, 170.336
899.537, 34.227
900.803, 468.129
902.070, 132.043
903.336, 285.967
904.601, 449.906
905.867, 13.928
907.132, 457.961
908.398, 82.008
909.663, 366.064
910.928, 490.135
912.192, 104.221
913.457, 418.314
914.721, 162.422
915.985, 376.572
917.249, 230.732
918.512, 35.096
919.776, 549.078
921.039, 183.264
922.302, 297.459
923.565, 301.668
924.827, 35.887
926.090, 420.117
927.352, 254.357
928.614, 51.389
929.876, 612.859
931.138, 22.885
932.399, 211.377
933.660, 245.648
934.922, 19.934
936.182, 334.240
937.443, 258.559
938.704, 22.889
939.964, 487.229
941.224, 91.582
942.484, 345.947
943.744, 170.320
945.003, 54.709
946.262, 429.107
947.521, 163.518
948.780, 507.938
950.039, 502.369
951.298, 113.188
952.556, 661.223
953.814, 225.643
955.072, 450.072
956.330, 394.514
957.587, 238.967
958.845, 643.432
960.102, 287.906
961.359, 272.391
962.615, 1226.885
963.872, 261.391
965.128, 565.906
966.384, 130.432
967.640, 134.967
968.896, 719.547
970.152, 34.145
971.407, 508.748
972.662, 763.361
973.917, 447.984
975.172, 922.617
976.427, 647.262
977.681, 1021.914
978.935, 1176.578
980.189, 621.248
981.443, 905.928
982.697, 810.617
983.950, 185.314
985.203, 900.311
986.456, 125.027
987.709, 379.758
988.962, 400.893
990.214, 14.357
991.467, 650.395
992.719, 215.152
993.971, 229.918
995.222, 535.299
996.474, 39.924
997.725, 614.846
998.976, 119.621
1000.227, 274.447
1001.478, 947.590
1002.728, 552.426
1003.978, 967.271
1005.229, 792.123
1006.479, 536.979
1007.728, 786.803
1008.978, 461.674
1010.227, 576.551
1011.476, 1002.230
1012.725, 387.152
1013.974, 1020.758
1015.223, 759.203
1016.471, 674.146
1017.719, 847.025
1018.967, 432.467
1020.215, 687.510
1021.462, 686.523
1022.710, 231.576
1023.957, 899.461
1025.204, 654.598
1026.451, 579.672
1027.697, 854.750
1028.944, 499.834
1030.190, 994.309
1031.436, 919.910
1032.682, 695.488
1033.928, 1070.586
1035.173, 460.434
1036.418, 635.537
1037.663, 600.703
1038.908, 326.012
1040.153, 687.100
1041.398, 592.271
1042.642, 337.443
1043.886, 992.631
1045.130, 307.820
1046.374, 676.695
1047.617, 651.887
1048.860, 427.078
1050.104, 812.270
1051.347, 407.736
1052.589, 673.066
1053.832, 598.242
1055.074, 320.738
1056.316, 745.932
1057.558, 671.131
1058.800, 86.797
1060.042, 672.014
1061.283, 197.586
1062.524, 612.820
1063.765, 468.061
1065.006, 250.568
1066.247, 965.824
1067.487, 441.090
1068.728, 505.383
1069.968, 730.664
1071.208, 515.951
1072.447, 841.246
1073.687, 696.549
1074.926, 301.861
1076.165, 1037.180
1077.404, 392.506
1078.643, 695.986
1079.881, 1011.330
1081.120, 465.994
1082.358, 961.352
1083.596, 766.719
1084.834, 714.607
1086.071, 1159.990
1087.309, 805.377
1088.546, 1300.775
1089.783, 1416.180
1091.020, 1121.723
1092.256, 2087.143
1093.493, 2082.570
1094.729, 2418.008
1095.965, 3013.408
1097.201, 3028.818
1098.436, 3984.291
1099.672, 3799.648
1100.907, 2760.002
1102.142, 3155.375
1103.377, 2170.754
1104.612, 2336.141
1105.846, 2201.535
1107.081, 1726.932
1108.315, 1862.332
1109.549, 1397.713
1110.782, 1103.094
1112.016, 1508.453
1113.249, 1283.818
1114.483, 1338.988
1115.716, 1374.146
1116.948, 879.305
1118.181, 1276.117
1119.413, 1041.242
1120.646, 946.365
1121.878, 1221.494
1123.110, 666.623
1124.341, 952.100
1125.573, 957.234
1126.804, 232.371
1128.035, 1027.941
1129.266, 222.928
1130.497, 317.910
1131.727, 522.891
1132.957, 67.867
1134.188, 523.498
1135.418, 468.398
1136.647, 76.701
1137.877, 798.543
1139.106, 172.969
1140.335, 357.826
1141.564, 552.676
1142.793, 142.479
1144.022, 812.285
1145.250, 185.447
1146.479, 380.193
1147.707, 794.930
1148.934, 129.656
1150.162, 514.381
1151.390, 789.332
1152.617, 304.039
1153.844, 708.826
1155.071, 273.508
1156.298, 468.203
1157.524, 672.883
1158.751, 27.555
1159.977, 182.191
1161.203, 777.756
1162.428, 37.617
1163.654, 736.982
1164.879, 146.342
1166.105, 80.926
1167.330, 545.502
1168.555, 29.939
1169.779, 354.590
1171.004, 680.596
1172.228, 444.854
1173.452, 549.564
1174.676, 634.732
1175.900, 629.145
1177.123, 683.551
1178.346, 77.955
1179.570, 82.355
1180.793, 566.756
1182.015, 38.871
1183.238, 455.314
1184.460, 362.545
1185.683, 166.713
1186.905, 520.801
1188.126, 334.857
1189.348, 398.889
1190.569, 446.137
1191.791, 342.629
1193.012, 623.801
1194.233, 327.648
1195.453, 321.232
1196.674, 494.475
1197.894, 147.189
1199.114, 179.465
1200.334, 501.363
1201.554, 232.832
1202.774, 622.908
1203.993, 488.648
1205.212, 114.393
1206.431, 370.497
1207.650, 145.807
1208.869, 231.514
1210.087, 587.227
1211.305, 67.059
1212.524, 928.664
1213.741, 484.410
1214.959, 200.170
1216.177, 875.920
1217.394, 431.662
1218.611, 607.406
1219.828, 1223.152
1221.045, 498.902
1222.261, 794.652
1223.478, 750.408
1224.694, 566.225
1225.910, 722.041
1227.126, 377.865
1228.342, 603.695
1229.557, 799.529
1230.772, 25.369
1231.987, 1161.221
1233.202, 867.062
1234.417, 332.918
1235.631, 1098.781
1236.846, 254.660
1238.060, 1020.545
1239.274, 776.441
1240.488, 481.953
1241.701, 898.930
1242.915, 704.764
1244.128, 280.619
1245.341, 991.131
1246.554, 446.865
1247.767, 742.465
1248.979, 898.230
1250.191, 484.021
1251.403, 809.830
1252.615, 804.414
1253.827, 470.250
1255.039, 949.273
1256.250, 434.137
1257.461, 933.334
1258.672, 1078.996
1259.883, 253.699
1261.094, 1068.656
1262.304, 912.732
1263.514, 36.838
1264.724, 1163.270
1265.934, 647.799
1267.144, 362.602
1268.354, 807.389
1269.563, 182.170
1270.772, 866.971
1271.981, 921.260
1273.190, 165.869
1274.398, 1045.398
1275.607, 408.686
1276.815, 602.115
1278.023, 816.197
1279.231, 84.291
1280.439, 857.535
1281.646, 901.074
1282.853, 144.516
1284.060, 697.848
1285.267, 461.072
1286.474, 394.176
1287.681, 777.150
1288.887, 233.512
1290.093, 406.057
1291.299, 868.086
1292.505, 250.279
1293.711, 632.402
1294.916, 514.283
1296.121, 176.502
1297.327, 968.523
1298.531, 210.334
1299.736, 321.943
1300.941, 813.508
1302.145, 275.031
1303.349, 847.758
1304.553, 404.508
1305.757, 57.105
1306.961, 869.541
1308.164, 410.445
1309.367, 49.293
1310.570, 1283.742
1311.773, 366.709
1312.976, 576.936
1314.178, 958.498
1315.381, 21.725
1316.583, 1014.930
1317.785, 918.434
1318.987, 92.023
1320.188, 1135.715
1321.390, 468.074
1322.591, 561.371
1323.792, 1025.445
1324.993, 329.842
1326.193, 757.398
1327.394, 912.688
1328.594, 15.293
1329.794, 826.748
1330.994, 663.121
1332.194, 334.420
1333.394, 1122.465
1334.593, 10.930
1335.792, 683.811
1336.991, 855.990
1338.190, 153.811
1339.389, 799.357
1340.587, 56.926
1341.786, 80.789
1342.984, 729.195
1344.182, 0.000
##END=



