##NAMES=Albite
##RRUFFID=R040129
##IDEAL CHEMISTRY=NaAlSi_3_O_8_
##LOCALITY=LaChance Quarry, Brunswick, Cumberland County, Maine, USA
##OWNER=RRUFF
##SOURCE=Bob Downs
##DESCRIPTION=Colorless fragment of a tabular single crystal
##STATUS=The identification of this mineral has been confirmed by X-ray diffraction and chemical analysis
##URL=rruff.info/R040129
##MEASURED CHEMISTRY=(Na_0.99_K_0.01_)Al_1.00_Si_3.00_O_8_
##PIN_ID=M00199
##ORIENTATION=Laser parallel to (0 -1 -1). Fiducial mark perpendicular to laser is parallel to a [1 0 0]
106.312, 0.000
107.711, 235.134
109.109, 719.780
110.507, 1446.428
111.905, 2294.492
113.303, 2613.064
114.700, 2796.643
116.097, 2215.396
117.494, 1710.011
118.891, 1118.725
120.287, 659.729
121.683, 276.125
123.079, 191.312
124.475, 25.898
125.870, 21.583
127.265, 113.530
128.660, 30.714
130.055, 73.863
131.449, 173.676
132.843, 296.951
134.237, 415.518
135.631, 476.232
137.024, 695.985
138.417, 973.041
139.810, 1441.868
141.203, 1870.821
142.596, 2455.550
143.988, 3197.981
145.380, 3619.027
146.771, 4490.614
148.163, 4905.672
149.554, 4951.144
150.945, 4636.975
152.336, 4143.126
153.726, 3227.569
155.117, 2351.275
156.507, 1661.223
157.896, 1213.394
159.286, 1132.772
160.675, 1181.346
162.064, 1383.099
163.453, 1725.021
164.842, 2009.103
166.230, 2522.346
167.618, 3204.934
169.006, 3679.518
170.393, 4353.200
171.781, 4474.492
173.168, 4505.621
174.555, 4057.990
175.941, 3779.531
177.328, 3771.462
178.714, 3963.567
180.100, 4155.576
181.485, 4637.482
182.871, 5169.289
184.256, 5531.000
185.641, 5732.624
187.025, 5724.160
188.410, 5355.617
189.794, 4896.959
191.178, 4108.134
192.562, 3459.198
193.945, 3020.187
195.328, 2428.117
196.711, 2126.006
198.094, 1960.864
199.476, 1949.701
200.859, 2107.483
202.241, 2332.264
203.623, 2967.043
205.004, 3686.827
206.385, 4617.619
207.766, 5268.418
209.147, 5849.229
210.528, 5760.048
211.908, 5240.878
213.288, 4231.721
214.668, 3207.574
216.048, 2386.437
217.427, 1700.312
218.806, 1145.197
220.185, 714.091
221.564, 590.994
222.942, 329.902
224.320, 269.813
225.698, 167.532
227.076, 64.277
228.453, 0.259
229.830, 67.184
231.207, 18.271
232.584, 55.551
233.960, 8.828
235.337, 87.974
236.713, 49.162
238.088, 62.664
239.464, 60.582
240.839, 14.763
242.214, 23.476
243.589, 114.887
244.964, 201.635
246.338, 333.681
247.712, 471.476
249.086, 692.278
250.459, 777.997
251.833, 1017.974
253.206, 978.944
254.579, 1053.882
255.951, 847.783
257.324, 752.669
258.696, 780.553
260.068, 889.434
261.439, 1172.310
262.811, 1428.179
264.182, 1947.043
265.553, 2628.901
266.924, 3213.752
268.294, 3742.597
269.665, 4211.434
271.035, 4320.263
272.404, 3885.457
273.774, 3421.927
275.143, 2817.173
276.512, 2348.966
277.881, 1959.162
279.250, 1711.682
280.618, 1829.481
281.986, 1937.500
283.354, 2428.575
284.721, 3059.856
286.089, 4179.319
287.456, 5648.942
288.823, 7018.709
290.190, 8338.603
291.556, 9028.316
292.922, 8925.888
294.288, 7816.082
295.654, 6486.356
297.019, 4976.702
298.385, 3747.113
299.750, 2837.585
301.114, 2086.110
302.479, 1509.685
303.843, 1241.301
305.207, 969.952
306.571, 842.631
307.935, 575.336
309.298, 582.061
310.661, 470.805
312.024, 398.565
313.387, 452.338
314.749, 310.123
316.111, 250.917
317.473, 208.720
318.835, 209.528
320.196, 130.342
321.558, 151.160
322.919, 252.980
324.279, 214.802
325.640, 307.626
327.000, 433.449
328.360, 637.270
329.720, 652.090
331.080, 552.907
332.439, 607.718
333.798, 376.501
335.157, 336.253
336.516, 233.942
337.874, 114.567
339.232, 135.168
340.590, 92.750
341.948, 73.313
343.305, 41.854
344.662, 35.198
346.019, 46.861
347.376, 33.330
348.733, 25.773
350.089, 28.189
351.445, 97.579
352.801, 87.950
354.156, 1.302
355.512, 34.638
356.867, 61.049
358.222, 22.225
359.576, 83.528
360.931, 99.332
362.285, 5.181
363.639, 120.063
364.992, 47.009
366.346, 44.979
367.699, 12.991
369.052, 0.039
370.405, 9.314
371.757, 79.218
373.110, 44.361
374.462, 57.527
375.814, 100.742
377.165, 89.016
378.516, 65.348
379.868, 29.714
381.218, 2.881
382.569, 58.539
383.920, 57.000
385.270, 18.459
386.620, 7.956
387.969, 4.488
389.319, 66.937
390.668, 100.326
392.017, 131.640
393.366, 162.119
394.714, 239.416
396.063, 260.118
397.411, 427.048
398.759, 507.203
400.106, 598.556
401.454, 536.244
402.801, 652.908
404.148, 958.012
405.495, 1162.644
406.841, 1555.171
408.187, 1769.632
409.533, 1918.033
410.879, 1775.368
412.224, 1736.660
413.570, 1866.935
414.915, 2095.199
416.260, 2563.451
417.604, 2461.691
418.949, 2379.920
420.293, 1827.137
421.637, 1372.344
422.980, 926.538
424.324, 763.720
425.667, 531.892
427.010, 446.052
428.353, 475.199
429.695, 435.335
431.037, 414.459
432.379, 274.571
433.721, 330.673
435.063, 333.779
436.404, 330.887
437.745, 547.989
439.086, 538.086
440.427, 623.149
441.767, 633.251
443.108, 767.317
444.448, 792.371
445.787, 923.412
447.127, 1065.438
448.466, 1491.530
449.805, 1996.649
451.144, 2534.630
452.482, 3522.593
453.821, 4790.568
455.159, 6068.508
456.497, 7066.430
457.834, 7664.332
459.172, 7362.393
460.509, 6300.256
461.846, 5298.137
463.183, 4395.959
464.519, 3733.760
465.856, 3511.541
467.192, 3389.490
468.527, 3647.228
469.863, 4224.943
471.198, 5152.638
472.534, 6800.311
473.868, 9097.961
475.203, 12425.591
476.538, 17213.195
477.872, 21800.777
479.206, 25778.344
480.540, 26425.881
481.873, 24253.396
483.206, 20060.895
484.539, 15508.365
485.872, 11275.814
487.205, 8873.236
488.537, 6720.643
489.869, 5348.023
491.201, 4565.382
492.533, 3942.717
493.864, 3780.029
495.196, 3867.317
496.527, 3934.584
497.857, 4461.828
499.188, 5319.051
500.518, 6756.250
501.848, 8853.429
503.178, 12120.583
504.508, 16737.135
505.837, 21833.658
507.166, 26770.221
508.495, 28746.316
509.824, 27962.041
511.153, 24237.785
512.481, 19214.807
513.809, 14741.786
515.137, 11169.379
516.464, 8555.644
517.792, 6617.258
519.119, 5142.294
520.446, 4151.537
521.772, 3551.883
523.099, 3105.332
524.425, 2531.406
525.751, 2276.809
527.077, 2078.279
528.402, 1780.820
529.728, 1575.933
531.053, 1389.165
532.377, 1381.548
533.702, 1237.555
535.027, 1196.926
536.351, 984.252
537.675, 1121.848
538.998, 934.759
540.322, 936.953
541.645, 764.520
542.968, 825.908
544.291, 757.545
545.613, 639.946
546.936, 622.584
548.258, 498.166
549.580, 630.304
550.902, 586.194
552.223, 502.550
553.544, 464.726
554.865, 336.136
556.186, 484.536
557.507, 422.924
558.827, 362.730
560.147, 448.611
561.467, 354.993
562.786, 324.369
564.106, 348.736
565.425, 359.091
566.744, 325.461
568.063, 436.793
569.381, 433.111
570.700, 449.421
572.018, 435.720
573.335, 622.006
574.653, 648.290
575.970, 844.561
577.288, 1120.827
578.604, 1087.083
579.921, 1273.324
581.238, 1159.555
582.554, 1055.773
583.870, 921.978
585.186, 718.171
586.501, 634.352
587.817, 480.520
589.132, 346.691
590.447, 302.851
591.761, 228.998
593.076, 245.146
594.390, 261.283
595.704, 207.408
597.018, 173.521
598.331, 169.621
599.645, 185.726
600.958, 201.817
602.271, 217.896
603.583, 173.966
604.896, 120.022
606.208, 86.067
607.520, 82.099
608.832, 108.117
610.143, 154.124
611.455, 90.118
612.766, 196.102
614.077, 142.074
615.387, 138.034
616.698, 73.983
618.008, 119.919
619.318, 85.842
620.628, 101.755
621.937, 157.655
623.247, 193.561
624.556, 69.454
625.865, 185.338
627.173, 181.226
628.482, 147.104
629.790, 232.971
631.098, 198.826
632.405, 324.672
633.713, 280.511
635.020, 216.340
636.327, 332.158
637.634, 367.967
638.941, 413.766
640.247, 449.555
641.553, 475.333
642.859, 471.103
644.165, 591.922
645.471, 882.612
646.776, 818.354
648.081, 874.084
649.386, 959.806
650.691, 775.518
651.995, 551.221
653.299, 566.914
654.603, 372.600
655.907, 408.275
657.210, 213.941
658.514, 309.600
659.817, 205.251
661.120, 210.893
662.422, 46.527
663.725, 112.157
665.027, 127.782
666.329, 93.404
667.630, 99.025
668.932, 64.644
670.233, 160.255
671.534, 34.141
672.835, 21.437
674.136, 2.991
675.436, 102.588
676.737, 18.170
678.036, 26.225
679.336, 49.388
680.636, 75.009
681.935, 59.330
683.234, 6.310
684.533, 61.963
685.832, 12.374
687.130, 13.284
688.428, 51.053
689.726, 75.396
691.024, 50.231
692.322, 5.886
693.619, 21.570
694.916, 52.714
696.213, 7.007
697.510, 61.295
698.806, 25.612
700.102, 89.925
701.398, 4.294
702.694, 1.345
703.990, 6.989
705.285, 62.643
706.580, 88.298
707.875, 101.670
709.170, 30.400
710.464, 135.543
711.758, 91.157
713.052, 116.771
714.346, 57.625
715.640, 10.059
716.933, 195.606
718.226, 61.150
719.519, 326.690
720.812, 132.925
722.105, 38.455
723.397, 164.643
724.689, 180.163
725.981, 226.303
727.272, 162.236
728.564, 217.742
729.855, 205.315
731.146, 191.583
732.437, 278.323
733.727, 153.812
735.017, 199.296
736.308, 134.776
737.597, 180.253
738.887, 325.725
740.176, 291.193
741.466, 276.656
742.755, 342.117
744.043, 341.057
745.332, 506.511
746.620, 591.959
747.908, 600.525
749.196, 775.967
750.484, 901.404
751.771, 1006.838
753.059, 1302.269
754.346, 1591.409
755.633, 2006.832
756.919, 2472.252
758.206, 3457.736
759.492, 4833.148
760.778, 6348.559
762.063, 8253.886
763.349, 9959.167
764.634, 10364.567
765.919, 9509.963
767.204, 7865.682
768.489, 6231.073
769.773, 4636.465
771.057, 3671.853
772.341, 2957.059
773.625, 2232.440
774.909, 1967.781
776.192, 1573.160
777.475, 1432.061
778.758, 1297.434
780.041, 1053.066
781.323, 942.087
782.605, 817.455
783.887, 782.819
785.169, 698.182
786.451, 663.544
787.732, 519.901
789.013, 635.259
790.294, 430.614
791.575, 495.969
792.856, 591.321
794.136, 506.672
795.416, 542.242
796.696, 587.590
797.976, 642.937
799.255, 728.283
800.534, 683.628
801.813, 948.972
803.092, 854.314
804.371, 1309.656
805.649, 1384.999
806.927, 1740.340
808.205, 2185.680
809.483, 2931.020
810.760, 4216.359
812.037, 5361.699
813.315, 6947.039
814.591, 8472.378
815.868, 8927.716
817.144, 8982.822
818.421, 7628.160
819.697, 5923.498
820.972, 4308.836
822.248, 3244.178
823.523, 2549.502
824.798, 1984.842
826.073, 1526.807
827.348, 1331.562
828.623, 1005.518
829.897, 960.861
831.171, 805.593
832.445, 698.143
833.718, 623.409
834.992, 438.755
836.265, 406.122
837.538, 523.767
838.811, 339.115
840.083, 342.626
841.356, 397.353
842.628, 278.465
843.900, 178.062
845.171, 283.390
846.443, 237.977
847.714, 182.956
848.985, 174.034
850.256, 27.995
851.527, 48.562
852.797, 211.382
854.067, 30.179
855.337, 94.368
856.607, 88.913
857.876, 23.667
859.146, 99.050
860.415, 24.438
861.684, 79.826
862.953, 7.531
864.221, 47.863
865.489, 3.650
866.757, 48.661
868.025, 50.355
869.293, 44.542
870.560, 69.938
871.828, 155.341
873.095, 19.243
874.361, 16.172
875.628, 18.438
876.894, 86.982
878.160, 17.594
879.426, 12.166
880.692, 113.261
881.958, 51.306
883.223, 114.117
884.488, 50.454
885.753, 24.963
887.018, 10.386
888.282, 85.815
889.546, 84.121
890.810, 77.492
892.074, 102.142
893.338, 7.598
894.601, 33.061
895.864, 81.470
897.127, 33.975
898.390, 79.428
899.652, 75.112
900.915, 180.326
902.177, 15.771
903.439, 21.225
904.700, 36.685
905.962, 87.847
907.223, 27.596
908.484, 83.046
909.745, 1.495
911.006, 33.970
912.266, 29.443
913.526, 154.924
914.786, 80.413
916.046, 115.910
917.306, 71.417
918.565, 13.070
919.824, 82.447
921.083, 197.973
922.342, 173.508
923.600, 195.680
924.859, 164.602
926.117, 80.161
927.375, 65.730
928.632, 88.692
929.890, 96.861
931.147, 17.575
932.404, 92.007
933.661, 103.538
934.918, 79.091
936.174, 54.651
937.430, 70.223
938.686, 34.198
939.942, 61.380
941.198, 96.968
942.453, 52.564
943.708, 8.170
944.963, 103.786
946.218, 10.589
947.472, 185.044
948.727, 60.685
949.981, 196.336
951.235, 111.995
952.488, 167.664
953.742, 113.344
954.995, 139.032
956.248, 84.729
957.501, 160.438
958.754, 126.156
960.006, 191.884
961.258, 67.620
962.510, 143.367
963.762, 59.123
965.014, 114.888
966.265, 40.663
967.516, 146.447
968.767, 192.243
970.018, 138.049
971.269, 263.866
972.519, 249.692
973.769, 365.529
975.019, 176.856
976.269, 245.662
977.518, 288.304
978.767, 306.208
980.017, 225.259
981.265, 271.980
982.514, 267.565
983.762, 261.041
985.011, 325.798
986.259, 259.266
987.507, 322.915
988.754, 366.707
990.002, 332.739
991.249, 328.792
992.496, 354.859
993.743, 200.961
994.989, 317.109
996.236, 323.282
997.482, 419.500
998.728, 485.766
999.974, 462.086
1001.219, 708.448
1002.464, 794.849
1003.710, 841.272
1004.954, 1017.739
1006.199, 1084.222
1007.444, 1160.727
1008.688, 1067.252
1009.932, 1123.787
1011.176, 1240.335
1012.420, 1266.895
1013.663, 1413.153
1014.906, 1439.797
1016.149, 1436.443
1017.392, 1083.180
1018.635, 1097.820
1019.877, 774.896
1021.120, 701.726
1022.362, 630.379
1023.603, 566.534
1024.845, 633.523
1026.086, 419.832
1027.328, 436.735
1028.569, 653.403
1029.809, 429.926
1031.050, 656.887
1032.290, 562.321
1033.530, 669.302
1034.770, 534.285
1036.010, 451.292
1037.250, 478.312
1038.489, 495.340
1039.728, 486.407
1040.967, 619.430
1042.206, 536.750
1043.444, 653.821
1044.683, 710.904
1045.921, 714.653
1047.159, 760.323
1048.396, 788.864
1049.634, 762.864
1050.871, 730.010
1052.108, 717.163
1053.345, 564.327
1054.582, 441.759
1055.818, 355.227
1057.054, 612.419
1058.290, 239.945
1059.526, 477.104
1060.762, 424.350
1061.997, 251.622
1063.232, 478.874
1064.467, 406.132
1065.702, 463.400
1066.937, 330.675
1068.171, 347.641
1069.405, 394.966
1070.639, 482.299
1071.873, 419.639
1073.107, 496.985
1074.340, 444.339
1075.573, 521.699
1076.806, 509.066
1078.039, 572.918
1079.272, 640.303
1080.504, 717.245
1081.736, 810.994
1082.968, 768.403
1084.200, 805.819
1085.431, 1033.243
1086.663, 1350.674
1087.894, 1497.116
1089.125, 1764.567
1090.355, 2032.025
1091.586, 2479.492
1092.816, 3247.366
1094.046, 3604.850
1095.276, 4522.115
1096.506, 5119.604
1097.735, 5687.099
1098.965, 5824.684
1100.194, 5452.189
1101.423, 5199.701
1102.651, 4487.217
1103.880, 3834.737
1105.108, 3302.662
1106.336, 2880.190
1107.564, 2317.726
1108.792, 2325.265
1110.019, 1902.807
1111.246, 1630.397
1112.473, 1697.947
1113.700, 1305.499
1114.927, 1273.056
1116.153, 1210.615
1117.380, 1168.618
1118.606, 1116.186
1119.831, 853.752
1121.057, 961.409
1122.283, 1039.130
1123.508, 776.703
1124.733, 634.276
1125.958, 451.852
1127.182, 399.538
1128.407, 327.288
1129.631, 224.861
1130.855, 212.435
1132.079, 170.009
1133.302, 117.582
1134.526, 185.154
1135.749, 172.785
1136.972, 180.480
1138.195, 228.531
1139.417, 156.734
1140.640, 125.287
1141.862, 165.507
1143.084, 386.668
1144.305, 131.288
1145.527, 287.364
1146.748, 360.793
1147.970, 194.501
1149.191, 383.436
1150.411, 351.741
1151.632, 390.174
1152.852, 318.125
1154.072, 327.426
1155.292, 246.563
1156.512, 194.149
1157.732, 242.290
1158.951, 30.387
1160.170, 269.057
1161.389, 127.729
1162.608, 45.233
1163.826, 230.250
1165.045, 177.688
1166.263, 4.583
1167.481, 142.756
1168.699, 39.833
1169.916, 239.602
1171.134, 37.967
1172.351, 45.327
1173.568, 166.427
1174.784, 0.211
1176.001, 217.205
1177.217, 305.860
1178.433, 6.736
1179.649, 181.153
1180.865, 120.860
1182.081, 158.132
1183.296, 165.985
1184.511, 153.555
1185.726, 150.782
1186.941, 209.676
1188.155, 37.367
1189.370, 304.986
1190.584, 182.916
1191.798, 70.645
1193.011, 247.791
1194.225, 135.350
1195.438, 112.920
1196.651, 254.180
1197.864, 161.621
1199.077, 198.697
1200.290, 56.766
1201.502, 154.033
1202.714, 301.457
1203.926, 53.398
1205.138, 240.402
1206.349, 127.609
1207.561, 125.252
1208.772, 172.201
1209.983, 299.135
1211.194, 266.600
1212.404, 293.500
1213.614, 321.010
1214.825, 265.844
1216.034, 303.238
1217.244, 200.434
1218.454, 167.256
1219.663, 324.150
1220.872, 231.355
1222.081, 388.154
1223.290, 225.678
1224.498, 203.342
1225.707, 250.711
1226.915, 358.125
1228.123, 284.916
1229.331, 212.061
1230.538, 259.389
1231.746, 336.227
1232.953, 253.947
1234.160, 262.031
1235.366, 248.764
1236.573, 236.441
1237.779, 83.156
1238.986, 179.855
1240.192, 236.723
1241.397, 343.400
1242.603, 210.133
1243.808, 166.787
1245.013, 293.432
1246.218, 190.291
1247.423, 296.908
1248.628, 443.516
1249.832, 100.111
1251.036, 346.686
1252.240, 273.225
1253.444, 270.154
1254.648, 386.523
1255.851, 192.834
1257.054, 289.119
1258.257, 295.375
1259.460, 212.006
1260.663, 378.211
1261.865, 104.326
1263.067, 240.891
1264.269, 306.857
1265.471, 192.742
1266.673, 179.311
1267.874, 275.107
1269.075, 221.047
1270.276, 316.779
1271.477, 192.443
1272.678, 178.082
1273.878, 233.787
1275.078, 249.363
1276.278, 259.422
1277.478, 264.012
1278.678, 276.420
1279.877, 212.182
1281.077, 197.582
1282.276, 112.951
1283.475, 84.439
1284.673, 47.383
1285.872, 0.906
1287.070, 15.705
1288.268, 70.619
1289.466, 93.703
1290.664, 51.387
1291.861, 55.736
1293.058, 29.094
1294.255, 73.877
1295.452, 58.949
1296.649, 133.654
1297.846, 18.303
1299.042, 22.898
1300.238, 217.451
1301.434, 91.967
1302.630, 96.762
1303.825, 41.193
1305.020, 134.420
1306.216, 230.148
1307.411, 235.598
1308.605, 258.539
1309.800, 172.643
1310.994, 113.602
1312.188, 280.367
1313.382, 12.486
1314.576, 56.365
1315.770, 290.082
1316.963, 16.209
1318.156, 52.461
1319.349, 220.865
1320.542, 34.508
1321.735, 218.107
1322.927, 101.127
1324.119, 4.646
1325.311, 358.121
1326.503, 101.562
1327.695, 164.969
1328.886, 388.332
1330.077, 21.664
1331.268, 124.957
1332.459, 137.949
1333.650, 81.162
1334.840, 104.340
1336.030, 277.344
1337.220, 140.459
1338.410, 133.545
1339.600, 23.398
1340.789, 159.613
1341.979, 252.602
1343.168, 55.566
1344.357, 188.248
1345.545, 151.166
1346.734, 35.936
1347.922, 256.621
1349.110, 189.475
1350.298, 92.311
1351.486, 275.123
1352.674, 247.961
1353.861, 110.809
1355.048, 404.461
1356.235, 92.656
1357.422, 220.227
1358.608, 113.965
1359.795, 155.340
1360.981, 320.766
1362.167, 226.166
1363.353, 151.533
1364.538, 356.859
1365.724, 92.154
1366.909, 77.410
1368.094, 112.631
1369.279, 107.805
1370.463, 252.504
1371.648, 167.596
1372.832, 122.662
1374.016, 237.598
1375.200, 72.594
1376.384, 47.105
1377.567, 342.031
1378.750, 76.920
1379.933, 361.730
1381.116, 446.553
1382.299, 220.820
1383.481, 415.576
1384.664, 250.014
1385.846, 304.707
1387.028, 419.234
1388.210, 213.654
1389.391, 298.270
1390.572, 492.859
1391.754, 377.184
1392.935, 320.262
1394.115, 279.949
1395.296, 150.135
1396.476, 274.932
1397.656, 328.609
1398.837, 330.148
1400.016, 330.855
1401.196, 142.174
1402.375, 244.066
1403.555, 439.762
1404.734, 67.352
1405.912, 309.996
1407.091, 248.141
1408.270, 36.371
1409.448, 223.365
1410.626, 126.486
1411.804, 166.723
1412.982, 214.330
1414.159, 175.732
1415.336, 147.521
1416.514, 226.176
1417.690, 66.338
1418.867, 147.490
1420.044, 208.047
1421.220, 82.143
1422.396, 342.229
1423.572, 212.953
1424.748, 155.623
1425.924, 75.539
1427.099, 147.070
1428.274, 267.477
1429.449, 311.900
1430.624, 171.125
1431.799, 291.857
1432.973, 251.766
1434.147, 138.932
1435.322, 226.645
1436.495, 45.930
1437.669, 224.395
1438.843, 468.803
1440.016, 235.939
1441.189, 235.029
1442.362, 413.451
1443.535, 31.896
1444.707, 279.664
1445.880, 397.721
1447.052, 35.506
1448.224, 462.037
1449.396, 130.230
1450.567, 168.367
1451.739, 415.199
1452.910, 191.959
1454.081, 150.666
1455.252, 467.305
1456.422, 235.566
1457.593, 344.523
1458.763, 263.053
1459.933, 200.068
1461.103, 427.580
1462.273, 326.215
1463.442, 213.809
1464.611, 382.363
1465.781, 191.389
1466.949, 260.324
1468.118, 409.324
1469.287, 286.873
1470.455, 386.051
1471.623, 405.279
1472.791, 222.951
1473.959, 190.863
1475.127, 370.320
1476.294, 79.926
1477.461, 429.752
1478.628, 199.807
1479.795, 219.994
1480.962, 390.479
1482.128, 91.240
1483.295, 282.289
1484.461, 393.602
1485.627, 155.340
1486.792, 317.523
1487.958, 290.385
1489.123, 193.828
1490.288, 267.951
1491.453, 102.889
1492.618, 178.812
1493.783, 455.963
1494.947, 5.393
1496.111, 345.154
1497.275, 348.209
1498.439, 1.412
1499.603, 0.000
##END=



