##NAMES=Albite
##RRUFFID=R040068
##IDEAL CHEMISTRY=NaAlSi_3_O_8_
##LOCALITY=Harding Pegmatite, Dixon, New Mexico, USA
##OWNER=RRUFF
##SOURCE=University of Arizona Mineral Museum
##DESCRIPTION=Tan colored crystal fragment
##STATUS=The identification of this mineral has been confirmed by X-ray diffraction and chemical analysis
##URL=rruff.info/R040068
##MEASURED CHEMISTRY=(Na_0.99_Ca_0.01_)Al_1.00_(Si_0.99_Al_0.01_)_3_O_8_
##PIN_ID=M00277
##ORIENTATION=Laser parallel to (-1 0 -1). Fiducial mark perpendicular to laser is parallel to b [0 1 0]
119.119, 0.000
120.508, 7.438
121.897, 25.143
123.286, 72.434
124.675, 42.313
126.063, 154.569
127.452, 85.649
128.840, 312.382
130.228, 336.409
131.615, 386.354
133.003, 461.183
134.390, 590.192
135.777, 732.838
137.164, 888.600
138.550, 1244.566
139.937, 1557.852
141.323, 2090.688
142.709, 2585.311
144.094, 3151.504
145.480, 3949.092
146.865, 4548.012
148.250, 5198.450
149.635, 5250.377
151.019, 5063.363
152.403, 4027.215
153.788, 3041.893
155.171, 2137.322
156.555, 1593.418
157.939, 1370.112
159.322, 1377.349
160.705, 1365.076
162.088, 1453.237
163.470, 1421.777
164.853, 1483.444
166.235, 1609.867
167.617, 1599.363
168.998, 1710.817
170.380, 1819.173
171.761, 1969.447
173.142, 1969.948
174.523, 2213.803
175.904, 2566.561
177.284, 2696.234
178.664, 3189.721
180.044, 3568.985
181.424, 4291.234
182.803, 4724.037
184.183, 5057.594
185.562, 4951.506
186.940, 4755.701
188.319, 4320.094
189.698, 3594.479
191.076, 2888.853
192.454, 2583.217
193.831, 2037.572
195.209, 1831.924
196.586, 1556.272
197.963, 1500.715
199.340, 1655.168
200.717, 1829.616
202.093, 2094.021
203.470, 2398.276
204.846, 3122.445
206.221, 3476.562
207.597, 4080.648
208.972, 3924.725
210.347, 3638.804
211.722, 2842.895
213.097, 2057.007
214.472, 1541.145
215.846, 1095.314
217.220, 729.519
218.594, 423.925
219.967, 368.199
221.341, 152.513
222.714, 186.867
224.087, 141.260
225.460, 55.691
226.832, 70.162
228.204, 4.671
229.577, 70.782
230.948, 22.975
232.320, 34.207
233.692, 88.407
235.063, 83.827
236.434, 36.244
237.805, 31.622
239.175, 112.137
240.545, 39.519
241.916, 235.654
243.286, 136.643
244.655, 526.417
246.025, 532.107
247.394, 798.067
248.763, 1038.267
250.132, 1276.536
251.501, 1154.097
252.869, 1105.950
254.237, 924.416
255.605, 705.093
256.973, 669.051
258.340, 662.835
259.708, 696.626
261.075, 820.435
262.442, 1054.244
263.808, 1448.080
265.175, 1641.942
266.541, 2115.826
267.907, 2359.731
269.273, 2323.653
270.639, 1927.592
272.004, 1571.544
273.369, 1405.514
274.734, 1174.703
276.099, 968.654
277.463, 793.388
278.828, 917.365
280.192, 1071.355
281.556, 1415.389
282.919, 1789.447
284.283, 2319.399
285.646, 3149.155
287.009, 4040.214
288.372, 4761.834
289.734, 5103.906
291.097, 5136.366
292.459, 4279.146
293.821, 3352.232
295.183, 2465.571
296.544, 1909.122
297.905, 1412.872
299.266, 986.795
300.627, 610.869
301.988, 565.082
303.348, 439.416
304.709, 293.865
306.069, 328.421
307.428, 113.076
308.788, 327.865
310.147, 182.731
311.507, 177.672
312.865, 12.677
314.224, 77.741
315.583, 2.857
316.941, 88.022
318.299, 73.230
319.657, 158.480
321.015, 423.767
322.372, 359.088
323.729, 644.441
325.086, 889.824
326.443, 1255.235
327.800, 1290.673
329.156, 1186.132
330.512, 1111.613
331.868, 767.117
333.224, 612.641
334.579, 358.184
335.935, 143.745
337.290, 89.323
338.645, 144.901
339.999, 90.484
341.354, 33.959
342.708, 38.410
344.062, 7.103
345.416, 112.620
346.769, 1.855
348.123, 73.665
349.476, 89.189
350.829, 25.288
352.182, 50.222
353.534, 85.756
354.887, 31.289
356.239, 76.824
357.591, 47.643
358.942, 62.130
360.294, 6.635
361.645, 151.148
362.996, 85.707
364.347, 29.729
365.698, 64.838
367.048, 49.426
368.398, 35.969
369.748, 78.637
371.098, 163.258
372.448, 27.930
373.797, 82.619
375.146, 107.312
376.495, 62.043
377.844, 3.203
379.192, 1.561
380.540, 18.420
381.889, 1.109
383.236, 25.885
384.584, 20.680
385.932, 32.561
387.279, 69.678
388.626, 5.162
389.973, 20.018
391.319, 55.104
392.666, 249.191
394.012, 264.092
395.358, 458.803
396.704, 532.334
398.049, 571.195
399.394, 430.648
400.740, 645.365
402.084, 708.100
403.429, 752.592
404.774, 967.566
406.118, 1042.439
407.462, 1257.301
408.806, 1192.062
410.150, 1086.764
411.493, 1471.389
412.836, 1665.990
414.179, 2130.562
415.522, 2105.098
416.865, 1929.607
418.207, 1364.082
419.549, 898.549
420.891, 633.010
422.233, 327.467
423.575, 251.918
424.916, 156.363
426.257, 110.803
427.598, 34.768
428.939, 99.637
430.279, 134.270
431.619, 158.934
432.959, 53.375
434.299, 247.926
435.639, 332.285
436.978, 306.828
438.318, 171.320
439.657, 308.465
440.996, 453.633
442.334, 538.760
443.673, 684.266
445.011, 628.812
446.349, 983.848
447.687, 1448.133
449.024, 1702.566
450.361, 2316.873
451.699, 3032.918
453.036, 4137.207
454.372, 4608.662
455.709, 4915.648
457.045, 4669.918
458.381, 3726.324
459.717, 2981.584
461.053, 2466.066
462.388, 1980.576
463.724, 1824.793
465.059, 1839.428
466.394, 2004.891
467.728, 2250.312
469.063, 2855.586
470.397, 3709.730
471.731, 5113.857
473.065, 6678.225
474.398, 9412.316
475.732, 12176.438
477.065, 14570.395
478.398, 14964.430
479.731, 13578.449
481.063, 10922.445
482.396, 8196.426
483.728, 5700.387
485.060, 4754.324
486.391, 3578.244
487.723, 2772.141
489.054, 2736.016
490.385, 2339.871
491.716, 2403.705
493.047, 2547.914
494.377, 2511.703
495.708, 3056.451
497.038, 3760.197
498.368, 4754.018
499.697, 6207.898
501.027, 8712.250
502.356, 11894.051
503.685, 15445.703
505.014, 19159.199
506.342, 20203.213
507.671, 19056.400
508.999, 15710.807
510.327, 11834.582
511.655, 8896.121
512.982, 6606.244
514.310, 5100.158
515.637, 3865.432
516.964, 3068.828
518.291, 2518.703
519.617, 2039.182
520.944, 2121.680
522.270, 1386.207
523.596, 1329.465
524.921, 1343.229
526.247, 1113.092
527.572, 972.779
528.897, 837.547
530.222, 897.578
531.547, 750.246
532.871, 860.389
534.196, 543.664
535.520, 739.412
536.844, 358.371
538.167, 710.164
539.491, 403.824
540.814, 606.006
542.137, 521.408
543.460, 571.295
544.783, 579.648
546.105, 321.707
547.427, 474.615
548.749, 365.613
550.071, 186.008
551.393, 196.719
552.714, 209.494
554.035, 262.689
555.356, 285.422
556.677, 276.402
557.998, 311.277
559.318, 212.236
560.638, 296.719
561.958, 239.371
563.278, 142.000
564.597, 334.602
565.917, 341.467
567.236, 235.055
568.555, 297.582
569.874, 210.555
571.192, 473.334
572.511, 435.801
573.829, 589.273
575.147, 881.680
576.464, 735.117
577.782, 1137.480
579.099, 850.098
580.416, 863.203
581.733, 675.537
583.050, 517.879
584.366, 510.455
585.683, 422.713
586.999, 240.002
588.315, 122.213
589.630, 114.398
590.946, 166.557
592.261, 137.949
593.576, 250.053
594.891, 132.146
596.206, 144.213
597.520, 6.256
598.834, 68.250
600.148, 70.209
601.462, 52.139
602.776, 124.027
604.089, 75.889
605.402, 227.719
606.715, 159.520
608.028, 191.291
609.341, 33.039
610.653, 204.762
611.965, 63.541
613.277, 8.064
614.589, 229.621
615.901, 21.168
617.212, 62.670
618.523, 144.135
619.834, 135.570
621.145, 206.977
622.456, 108.357
623.766, 49.705
625.076, 51.016
626.386, 127.713
627.696, 223.438
629.006, 234.561
630.315, 145.652
631.624, 236.719
632.933, 197.758
634.242, 258.770
635.551, 219.754
636.859, 390.711
638.167, 301.643
639.475, 232.545
640.783, 283.441
642.090, 454.289
643.398, 535.109
644.705, 475.912
646.012, 496.689
647.318, 517.438
648.625, 528.160
649.931, 118.855
651.237, 309.520
652.543, 60.154
653.849, 300.754
655.155, 191.328
656.460, 171.875
657.765, 82.391
659.070, 132.875
660.375, 103.340
661.679, 143.783
662.984, 114.199
664.288, 104.586
665.592, 64.945
666.895, 155.271
668.199, 175.568
669.502, 64.150
670.805, 106.043
672.108, 16.207
673.411, 286.328
674.713, 206.422
676.016, 26.506
677.318, 76.568
678.620, 66.607
679.921, 53.346
681.223, 76.650
682.524, 26.613
683.825, 96.561
685.126, 16.496
686.427, 3.609
687.727, 136.260
689.028, 186.148
690.328, 63.977
691.628, 125.846
692.927, 46.094
694.227, 125.910
695.526, 4.297
696.825, 165.877
698.124, 34.393
699.423, 135.283
700.721, 15.400
702.020, 227.326
703.318, 207.518
704.616, 87.611
705.913, 57.195
707.211, 92.932
708.508, 310.746
709.805, 120.650
711.102, 260.068
712.399, 96.393
713.695, 183.146
714.992, 282.412
716.288, 11.963
717.584, 371.162
718.879, 230.334
720.175, 249.422
721.470, 31.182
722.765, 46.246
724.060, 246.914
725.355, 116.848
726.649, 155.818
727.944, 225.021
729.238, 43.939
730.532, 322.822
731.825, 41.684
733.119, 401.914
734.412, 160.715
735.705, 80.447
736.998, 469.328
738.291, 228.074
739.584, 166.969
740.876, 415.893
742.168, 344.812
743.460, 543.693
744.752, 552.404
746.043, 610.896
747.334, 759.506
748.626, 697.869
749.916, 749.580
751.207, 1057.859
752.498, 1007.572
753.788, 1403.518
755.078, 1761.125
756.368, 2418.688
757.658, 3295.838
758.947, 4113.914
760.237, 5521.492
761.526, 6719.801
762.815, 6737.943
764.104, 6206.545
765.392, 5246.816
766.680, 3945.035
767.969, 2946.062
769.257, 2391.766
770.544, 1973.910
771.832, 1449.896
773.119, 1307.188
774.406, 975.035
775.693, 912.822
776.980, 630.865
778.267, 698.461
779.553, 685.230
780.839, 372.066
782.125, 598.916
783.411, 596.936
784.697, 354.857
785.982, 512.691
787.267, 540.570
788.552, 398.387
789.837, 686.293
791.122, 354.113
792.406, 632.135
793.690, 389.916
794.974, 197.680
796.258, 795.422
797.542, 553.148
798.825, 572.877
800.108, 930.562
801.391, 638.230
802.674, 1155.881
803.957, 1023.512
805.239, 1490.727
806.522, 1728.322
807.804, 1954.916
809.085, 2912.473
810.367, 3539.914
811.649, 4887.258
812.930, 6244.088
814.211, 6031.227
815.492, 6198.199
816.772, 5355.346
818.053, 4102.352
819.333, 2829.283
820.613, 2095.814
821.893, 1782.938
823.173, 1260.129
824.452, 970.826
825.732, 957.689
827.011, 683.148
828.290, 810.449
829.568, 447.688
830.847, 493.432
832.125, 359.979
833.403, 316.404
834.681, 397.814
835.959, 264.342
837.236, 210.104
838.514, 306.783
839.791, 223.395
841.068, 246.814
842.345, 253.639
843.621, 200.660
844.898, 291.418
846.174, 58.154
847.450, 214.229
848.726, 230.936
850.001, 55.430
851.277, 222.273
852.552, 224.875
853.827, 41.562
855.102, 33.043
856.376, 13.947
857.651, 30.859
858.925, 197.213
860.199, 73.277
861.473, 67.891
862.746, 28.990
864.020, 395.412
865.293, 67.732
866.566, 70.586
867.839, 387.186
869.112, 53.971
870.384, 638.926
871.656, 155.703
872.928, 192.469
874.200, 59.234
875.472, 231.699
876.744, 117.408
878.015, 15.822
879.286, 270.459
880.557, 56.898
881.828, 143.625
883.098, 119.311
884.369, 286.027
885.639, 28.316
886.909, 258.377
888.178, 185.213
889.448, 80.629
890.717, 107.207
891.987, 63.748
893.256, 50.023
894.524, 45.031
895.793, 53.127
897.061, 29.664
898.330, 66.195
899.598, 82.721
900.865, 289.236
902.133, 64.227
903.401, 342.275
904.668, 31.229
905.935, 25.248
907.202, 91.730
908.468, 118.213
909.735, 204.695
911.001, 209.670
912.267, 247.656
913.533, 174.137
914.799, 160.607
916.064, 17.074
917.330, 76.463
918.595, 139.967
919.860, 276.391
921.124, 42.844
922.389, 80.701
923.653, 305.711
924.918, 52.133
926.182, 268.549
927.445, 104.961
928.709, 331.371
929.972, 177.773
931.236, 84.172
932.499, 70.572
933.761, 316.971
935.024, 73.412
936.286, 299.846
937.549, 46.271
938.811, 322.695
940.073, 339.107
941.334, 75.516
942.596, 171.920
943.857, 38.316
945.118, 134.705
946.379, 391.090
947.640, 137.445
948.900, 443.816
950.161, 49.818
951.421, 306.523
952.681, 422.867
953.940, 199.207
955.200, 295.533
956.459, 291.857
957.719, 128.180
958.978, 354.500
960.236, 240.822
961.495, 627.145
962.753, 673.463
964.012, 809.783
965.270, 716.104
966.527, 642.424
967.785, 608.746
969.043, 539.432
970.300, 581.395
971.557, 457.719
972.814, 524.049
974.071, 520.377
975.327, 886.707
976.583, 943.064
977.840, 879.434
979.095, 895.801
980.351, 632.168
981.607, 778.535
982.862, 144.908
984.117, 461.287
985.372, 402.809
986.627, 249.217
987.882, 538.666
989.136, 265.084
990.390, 421.508
991.644, 557.939
992.898, 234.385
994.152, 430.832
995.405, 397.283
996.659, 563.760
997.912, 259.818
999.165, 406.309
1000.417, 462.799
1001.670, 748.885
1002.922, 925.393
1004.174, 891.924
1005.426, 938.002
1006.678, 762.262
1007.930, 1068.246
1009.181, 804.305
1010.432, 780.861
1011.683, 897.117
1012.934, 789.514
1014.185, 915.686
1015.435, 902.297
1016.685, 544.762
1017.935, 871.168
1019.185, 478.301
1020.435, 504.656
1021.684, 534.812
1022.934, 491.496
1024.183, 560.164
1025.432, 346.848
1026.680, 383.568
1027.929, 527.846
1029.177, 343.648
1030.425, 560.396
1031.673, 478.125
1032.921, 524.887
1034.169, 451.705
1035.416, 349.395
1036.663, 404.785
1037.911, 681.932
1039.157, 338.707
1040.404, 805.393
1041.650, 592.387
1042.897, 669.025
1044.143, 855.963
1045.389, 682.496
1046.634, 899.037
1047.880, 756.029
1049.125, 642.824
1050.371, 939.525
1051.615, 872.271
1052.860, 615.912
1054.105, 702.748
1055.349, 628.182
1056.593, 914.701
1057.837, 778.166
1059.081, 729.646
1060.325, 776.533
1061.568, 573.861
1062.812, 840.766
1064.055, 537.648
1065.298, 614.477
1066.540, 520.836
1067.783, 414.648
1069.025, 551.348
1070.267, 578.027
1071.509, 384.469
1072.751, 567.133
1073.993, 473.789
1075.234, 520.242
1076.475, 586.871
1077.716, 523.500
1078.957, 600.312
1080.198, 416.773
1081.438, 543.141
1082.679, 749.434
1083.919, 525.785
1085.159, 692.066
1086.398, 1078.363
1087.638, 1084.426
1088.877, 1110.660
1090.116, 1266.867
1091.355, 1432.977
1092.594, 1680.797
1093.833, 2005.074
1095.071, 2251.176
1096.309, 2687.258
1097.547, 2893.367
1098.785, 2989.484
1100.023, 2663.539
1101.260, 2571.387
1102.498, 2117.883
1103.735, 1761.852
1104.972, 1818.781
1106.208, 1585.719
1107.445, 1212.668
1108.681, 1239.625
1109.918, 1076.598
1111.154, 943.578
1112.389, 883.191
1113.625, 800.836
1114.860, 744.594
1116.096, 721.617
1117.331, 788.652
1118.566, 755.707
1119.800, 482.715
1121.035, 759.711
1122.269, 1186.707
1123.503, 493.723
1124.737, 600.742
1125.971, 117.777
1127.205, 574.824
1128.438, 461.883
1129.671, 408.965
1130.904, 396.078
1132.137, 213.207
1133.370, 89.602
1134.602, 367.625
1135.834, 55.117
1137.066, 392.133
1138.298, 169.363
1139.530, 326.590
1140.762, 283.750
1141.993, 170.914
1143.224, 458.074
1144.455, 215.242
1145.686, 522.480
1146.917, 349.789
1148.147, 357.109
1149.377, 474.441
1150.607, 651.781
1151.837, 429.090
1153.067, 286.422
1154.296, 303.777
1155.526, 341.133
1156.755, 398.492
1157.984, 345.859
1159.213, 317.133
1160.441, 311.652
1161.670, 148.133
1162.898, 295.668
1164.126, 183.227
1165.354, 250.805
1166.581, 48.406
1167.809, 236.047
1169.036, 46.281
1170.263, 391.438
1171.490, 20.812
1172.717, 106.988
1173.943, 494.844
1175.170, 107.258
1176.396, 300.715
1177.622, 348.742
1178.848, 3.176
1180.073, 454.938
1181.299, 173.094
1182.524, 11.281
1183.749, 309.504
1184.974, 107.766
1186.199, 16.070
1187.423, 524.418
1188.648, 152.777
1189.872, 491.219
1191.096, 119.707
1192.320, 195.309
1193.543, 435.809
1194.767, 63.980
1195.990, 152.180
1197.213, 410.418
1198.436, 71.301
1199.659, 267.016
1200.881, 235.367
1202.104, 293.762
1203.326, 582.195
1204.548, 10.672
1205.770, 479.195
1206.991, 517.664
1208.213, 116.270
1209.434, 543.227
1210.655, 209.082
1211.876, 328.855
1213.096, 467.238
1214.317, 24.211
1215.537, 425.926
1216.757, 698.367
1217.977, 193.078
1219.197, 484.770
1220.417, 499.488
1221.636, 223.328
1222.855, 716.375
1224.074, 370.906
1225.293, 91.488
1226.512, 604.496
1227.731, 388.754
1228.949, 419.910
1230.167, 247.043
1231.385, 156.973
1232.603, 159.180
1233.820, 191.715
1235.038, 181.727
1236.255, 341.047
1237.472, 439.461
1238.689, 145.934
1239.906, 436.727
1241.122, 467.422
1242.338, 439.309
1243.555, 162.008
1244.771, 164.848
1245.986, 520.969
1247.202, 2.094
1248.417, 116.137
1249.633, 0.000
##END=



