##NAMES=Albite
##RRUFFID=R040129
##IDEAL CHEMISTRY=NaAlSi_3_O_8_
##LOCALITY=LaChance Quarry, Brunswick, Cumberland County, Maine, USA
##OWNER=RRUFF
##SOURCE=Bob Downs
##DESCRIPTION=Colorless fragment of a tabular single crystal
##STATUS=The identification of this mineral has been confirmed by X-ray diffraction and chemical analysis
##URL=rruff.info/R040129
##MEASURED CHEMISTRY=(Na_0.99_K_0.01_)Al_1.00_Si_3.00_O_8_
##PIN_ID=L00331
##ORIENTATION=Laser parallel to (1 0 1). Fiducial mark perpendicular to laser is parallel to -b [0 -1 0]
124.519, 0.000
125.910, 0.159
127.300, 55.867
128.690, 20.718
130.080, 110.776
131.469, 32.743
132.858, 61.610
134.248, 37.890
135.636, 50.134
137.025, 265.490
138.413, 341.292
139.801, 571.378
141.189, 731.981
142.577, 1055.617
143.964, 1476.745
145.352, 1562.975
146.739, 1761.029
148.125, 1901.706
149.512, 2484.860
150.898, 3228.383
152.284, 4249.193
153.670, 5520.597
155.056, 6949.298
156.441, 9280.044
157.827, 11870.727
159.212, 15481.314
160.596, 17371.371
161.981, 17960.955
163.365, 16760.111
164.749, 13338.906
166.133, 10587.361
167.517, 8525.510
168.900, 7633.378
170.283, 7320.994
171.666, 6878.384
173.049, 6925.571
174.431, 6462.576
175.813, 6849.418
177.195, 7286.110
178.577, 8162.670
179.959, 9109.106
181.340, 10367.289
182.721, 11792.130
184.102, 11972.943
185.483, 12668.961
186.863, 11430.340
188.244, 10115.573
189.624, 8452.571
191.003, 6758.177
192.383, 5571.424
193.762, 4745.474
195.141, 4090.103
196.520, 3548.711
197.899, 3383.291
199.277, 3318.863
200.656, 3596.649
202.034, 4119.457
203.411, 4881.246
204.789, 6545.012
206.166, 8168.737
207.543, 9752.433
208.920, 10426.133
210.297, 9479.817
211.673, 7973.492
213.049, 5717.186
214.425, 4216.908
215.801, 3028.659
217.176, 2132.443
218.552, 1627.259
219.927, 1113.107
221.302, 953.987
222.676, 697.897
224.051, 538.834
225.425, 442.797
226.799, 298.781
228.173, 288.786
229.546, 121.808
230.919, 269.847
232.292, 70.899
233.665, 99.966
235.038, 85.044
236.410, 48.869
237.782, 2.219
239.154, 61.701
240.526, 83.630
241.898, 70.569
243.269, 118.042
244.640, 96.556
246.011, 130.627
247.381, 91.047
248.752, 56.016
250.122, 29.002
251.492, 12.843
252.861, 9.458
254.231, 8.187
255.600, 13.790
256.969, 45.490
258.338, 39.989
259.707, 94.964
261.075, 121.661
262.443, 58.365
263.811, 185.668
265.179, 219.891
266.546, 329.995
267.914, 334.952
269.281, 404.788
270.647, 499.570
272.014, 554.378
273.380, 730.228
274.747, 837.704
276.113, 1138.543
277.478, 1451.658
278.844, 1979.606
280.209, 2730.589
281.574, 3686.637
282.939, 5376.222
284.304, 7459.054
285.668, 10911.646
287.032, 14894.244
288.396, 19276.844
289.760, 22390.826
291.123, 21724.719
292.487, 19438.580
293.850, 14541.945
295.212, 10795.940
296.575, 7648.635
297.937, 5502.933
299.300, 4163.344
300.662, 3060.846
302.023, 2457.424
303.385, 2060.065
304.746, 1678.758
306.107, 1669.488
307.468, 1491.246
308.829, 1671.025
310.189, 1518.819
311.549, 1475.623
312.909, 1365.434
314.269, 1047.248
315.629, 1015.064
316.988, 723.880
318.347, 814.688
319.706, 592.475
321.065, 644.227
322.423, 741.947
323.781, 709.634
325.139, 1059.290
326.497, 1338.917
327.855, 1720.517
329.212, 1584.091
330.569, 1381.640
331.926, 1154.167
333.283, 704.672
334.639, 599.156
335.995, 439.619
337.351, 306.062
338.707, 300.488
340.063, 248.896
341.418, 323.285
342.773, 232.658
344.128, 231.014
345.483, 195.301
346.837, 324.444
348.192, 266.418
349.546, 246.202
350.899, 196.858
352.253, 206.453
353.606, 191.023
354.960, 243.589
356.313, 172.106
357.665, 199.617
359.018, 67.123
360.370, 113.622
361.722, 156.125
363.074, 12.376
364.426, 106.105
365.777, 32.580
367.128, 45.045
368.479, 22.515
369.830, 15.024
371.181, 15.361
372.531, 34.043
373.881, 22.723
375.231, 41.312
376.581, 2.073
377.930, 19.445
379.280, 27.179
380.629, 9.174
381.977, 56.476
383.326, 17.844
384.674, 20.162
386.023, 49.531
387.370, 12.747
388.718, 6.031
390.066, 50.302
391.413, 14.568
392.760, 57.856
394.107, 37.133
395.454, 4.409
396.800, 110.680
398.146, 84.943
399.492, 214.561
400.838, 259.385
402.184, 404.197
403.529, 805.644
404.874, 1268.910
406.219, 1785.207
407.564, 1928.774
408.908, 1790.200
410.252, 1110.098
411.596, 568.032
412.940, 372.453
414.284, 113.708
415.627, 140.200
416.970, 73.441
418.313, 1.901
419.656, 22.328
420.999, 54.945
422.341, 73.333
423.683, 47.423
425.025, 29.704
426.367, 25.176
427.708, 13.961
429.049, 60.919
430.390, 14.786
431.731, 23.648
433.072, 43.508
434.412, 20.636
435.752, 46.201
437.092, 84.997
438.432, 94.767
439.772, 21.532
441.111, 153.293
442.450, 216.051
443.789, 142.801
445.127, 241.548
446.466, 262.293
447.804, 263.036
449.142, 437.778
450.480, 416.518
451.817, 754.250
453.155, 759.978
454.492, 1212.699
455.829, 1240.415
457.166, 1377.125
458.502, 1507.834
459.838, 1344.534
461.175, 1512.224
462.510, 1526.905
463.846, 1605.575
465.181, 2086.234
466.517, 2190.883
467.852, 3064.520
469.186, 3808.145
470.521, 5160.758
471.855, 6973.358
473.190, 9615.948
474.523, 14098.524
475.857, 19201.094
477.191, 25443.646
478.524, 28126.182
479.857, 26428.713
481.190, 22171.236
482.523, 15913.733
483.855, 11806.227
485.187, 8308.705
486.519, 6601.175
487.851, 5223.633
489.183, 4136.077
490.514, 4008.512
491.845, 3610.935
493.176, 3693.346
494.507, 4025.745
495.837, 4228.134
497.168, 5370.511
498.498, 6442.877
499.828, 8805.232
501.157, 11807.574
502.487, 16919.912
503.816, 24642.230
505.145, 31415.742
506.474, 38588.043
507.802, 38370.340
509.131, 32992.625
510.459, 26304.898
511.787, 18457.406
513.115, 14039.662
514.442, 10184.474
515.770, 7746.715
517.097, 6348.950
518.424, 4831.176
519.750, 4193.126
521.077, 3367.287
522.403, 3057.591
523.729, 2616.271
525.055, 2246.352
526.381, 2173.944
527.706, 1768.488
529.031, 1752.889
530.356, 1522.373
531.681, 1354.896
533.006, 1329.178
534.330, 1069.828
535.654, 1083.802
536.978, 1070.338
538.302, 886.664
539.625, 967.354
540.949, 776.260
542.272, 782.109
543.595, 734.356
544.917, 743.636
546.240, 798.962
547.562, 560.172
548.884, 734.987
550.206, 684.896
551.527, 533.672
552.849, 547.391
554.170, 408.724
555.491, 627.892
556.812, 444.830
558.132, 376.744
559.453, 529.793
560.773, 281.878
562.093, 457.571
563.412, 374.661
564.732, 362.536
566.051, 454.675
567.370, 359.901
568.689, 506.092
570.008, 472.303
571.326, 445.961
572.644, 755.189
573.963, 715.419
575.280, 1060.646
576.598, 1141.832
577.915, 1293.309
579.233, 1297.030
580.550, 1076.810
581.866, 1108.434
583.183, 786.680
584.499, 698.569
585.815, 642.546
587.131, 463.469
588.447, 425.590
589.763, 217.511
591.078, 301.464
592.393, 243.493
593.708, 190.399
595.022, 339.427
596.337, 302.580
597.651, 220.727
598.965, 128.633
600.279, 205.767
601.593, 258.895
602.906, 154.016
604.219, 237.131
605.532, 153.240
606.845, 195.341
608.158, 185.437
609.470, 64.526
610.782, 256.609
612.094, 72.701
613.406, 181.785
614.718, 303.865
616.029, 190.938
617.340, 254.006
618.651, 205.066
619.962, 294.121
621.272, 374.168
622.582, 275.209
623.892, 335.245
625.202, 370.273
626.512, 406.296
627.821, 411.312
629.131, 424.323
630.440, 611.327
631.749, 482.324
633.057, 573.315
634.366, 512.301
635.674, 478.280
636.982, 528.254
638.290, 480.231
639.597, 578.201
640.905, 633.167
642.212, 538.125
643.519, 902.079
644.825, 749.027
646.132, 946.969
647.438, 906.904
648.744, 817.835
650.050, 810.760
651.356, 461.680
652.662, 558.594
653.967, 419.501
655.272, 360.404
656.577, 386.301
657.882, 196.193
659.186, 261.090
660.490, 272.981
661.794, 9.133
663.098, 250.737
664.402, 51.600
665.705, 196.467
667.009, 161.329
668.312, 10.186
669.614, 161.035
670.917, 30.122
672.219, 166.693
673.522, 71.503
674.824, 83.308
676.125, 79.108
677.427, 21.095
678.728, 28.678
680.030, 49.451
681.331, 55.230
682.631, 86.006
683.932, 33.221
685.232, 154.524
686.532, 116.286
687.832, 52.945
689.132, 105.796
690.432, 30.450
691.731, 15.289
693.030, 120.042
694.329, 36.203
695.628, 69.524
696.926, 18.464
698.224, 73.258
699.522, 19.003
700.820, 50.718
702.118, 36.438
703.415, 51.439
704.713, 36.262
706.010, 5.036
707.307, 107.350
708.603, 110.271
709.900, 14.111
711.196, 25.512
712.492, 169.067
713.788, 96.195
715.083, 99.314
716.379, 40.820
717.674, 23.567
718.969, 167.905
720.264, 24.779
721.558, 125.659
722.853, 37.091
724.147, 137.518
725.441, 148.940
726.735, 67.642
728.028, 206.722
729.322, 81.104
730.615, 109.459
731.908, 208.808
733.201, 39.849
734.493, 247.460
735.785, 87.771
737.078, 50.544
738.370, 219.880
739.661, 11.225
740.953, 164.568
742.244, 116.907
743.535, 149.806
744.826, 266.137
746.117, 103.464
747.407, 265.788
748.698, 243.108
749.988, 271.429
751.278, 352.746
752.567, 338.059
753.857, 512.366
755.146, 412.672
756.435, 532.972
757.724, 860.269
759.013, 813.561
760.301, 1355.849
761.590, 1523.132
762.878, 1828.411
764.165, 1859.687
765.453, 1444.959
766.741, 1527.571
768.028, 1154.835
769.315, 1012.398
770.602, 1288.654
771.888, 1194.906
773.175, 1498.155
774.461, 1633.398
775.747, 1474.640
777.033, 1495.877
778.319, 1013.110
779.604, 981.340
780.889, 672.567
782.174, 410.790
783.459, 585.010
784.744, 314.226
786.028, 364.438
787.312, 367.649
788.596, 368.855
789.880, 369.097
791.164, 357.006
792.447, 348.515
793.730, 331.710
795.013, 342.762
796.296, 336.090
797.579, 357.276
798.861, 280.460
800.143, 273.641
801.425, 373.818
802.707, 473.993
803.989, 441.166
805.270, 556.337
806.551, 687.505
807.832, 716.671
809.113, 1252.834
810.394, 1468.996
811.674, 1950.154
812.954, 2533.528
814.234, 2804.684
815.514, 2845.836
816.794, 2475.787
818.073, 2026.936
819.352, 1649.950
820.631, 916.095
821.910, 955.238
823.189, 643.138
824.467, 600.277
825.745, 685.854
827.023, 323.992
828.301, 351.127
829.578, 359.262
830.856, 260.396
832.133, 424.505
833.410, 180.715
834.687, 267.835
835.963, 494.966
837.240, 149.095
838.516, 385.410
839.792, 169.521
841.068, 266.649
842.343, 304.710
843.618, 156.835
844.894, 280.298
846.169, 204.266
847.443, 140.391
848.718, 291.477
849.992, 11.398
851.266, 223.738
852.540, 136.852
853.814, 144.946
855.088, 263.059
856.361, 32.879
857.634, 181.067
858.907, 216.102
860.180, 158.955
861.453, 244.386
862.725, 118.482
863.997, 107.765
865.269, 194.331
866.541, 54.568
867.812, 274.431
869.084, 107.508
870.355, 57.452
871.626, 164.980
872.897, 35.962
874.167, 273.319
875.438, 28.406
876.708, 131.430
877.978, 90.522
879.248, 4.619
880.517, 246.285
881.787, 2.389
883.056, 94.494
884.325, 205.605
885.594, 102.720
886.862, 103.175
888.130, 120.298
889.399, 11.573
890.667, 250.556
891.934, 95.688
893.202, 209.291
894.469, 118.434
895.737, 37.418
897.004, 258.720
898.270, 44.862
899.537, 129.011
900.803, 193.164
902.070, 72.324
903.336, 165.489
904.601, 205.658
905.867, 79.863
907.132, 237.073
908.398, 38.288
909.663, 199.510
910.928, 185.736
912.192, 76.974
913.457, 254.215
914.721, 82.463
915.985, 171.718
917.249, 109.979
918.512, 75.755
919.776, 287.488
921.039, 10.263
922.302, 168.990
923.565, 140.248
924.827, 21.514
926.090, 148.784
927.352, 115.063
928.614, 23.348
929.876, 191.639
931.138, 28.938
932.399, 76.243
933.660, 136.556
934.922, 12.874
936.182, 110.201
937.443, 109.534
938.704, 69.875
939.964, 175.224
941.224, 54.579
942.484, 161.942
943.744, 54.688
945.003, 64.671
946.262, 153.037
947.521, 13.411
948.780, 140.793
950.039, 245.183
951.298, 9.580
952.556, 277.985
953.814, 21.397
955.072, 240.818
956.330, 170.247
957.587, 50.683
958.845, 275.128
960.102, 95.580
961.359, 198.041
962.615, 269.509
963.872, 61.014
965.128, 222.451
966.384, 14.923
967.640, 91.404
968.896, 246.900
970.152, 54.573
971.407, 279.944
972.662, 121.472
973.917, 133.008
975.172, 314.553
976.427, 116.111
977.681, 227.689
978.935, 329.277
980.189, 40.876
981.443, 302.484
982.697, 144.101
983.950, 40.264
985.203, 407.369
986.456, 39.016
987.709, 270.672
988.962, 192.336
990.214, 99.975
991.467, 265.688
992.719, 67.361
993.971, 99.060
995.222, 200.769
996.474, 12.516
997.725, 304.273
998.976, 116.042
1000.227, 227.832
1001.478, 498.360
1002.728, 290.181
1003.978, 492.016
1005.229, 373.870
1006.479, 345.737
1007.728, 635.230
1008.978, 347.139
1010.227, 479.062
1011.476, 721.000
1012.725, 572.980
1013.974, 924.973
1015.223, 706.982
1016.471, 729.015
1017.719, 667.951
1018.967, 420.093
1020.215, 592.244
1021.462, 411.293
1022.710, 263.476
1023.957, 533.841
1025.204, 305.305
1026.451, 387.550
1027.697, 539.807
1028.944, 402.072
1030.190, 584.348
1031.436, 476.657
1032.682, 428.953
1033.928, 621.301
1035.173, 323.657
1036.418, 486.023
1037.663, 368.430
1038.908, 210.846
1040.153, 372.818
1041.398, 315.254
1042.642, 297.699
1043.886, 340.182
1045.130, 142.766
1046.374, 333.703
1047.617, 236.229
1048.860, 248.762
1050.104, 401.309
1051.347, 194.002
1052.589, 386.572
1053.832, 329.153
1055.074, 178.356
1056.316, 390.957
1057.558, 333.566
1058.800, 86.187
1060.042, 418.814
1061.283, 162.150
1062.524, 444.798
1063.765, 327.456
1065.006, 340.163
1066.247, 652.838
1067.487, 265.522
1068.728, 474.890
1069.968, 667.592
1071.208, 450.088
1072.447, 752.810
1073.687, 575.540
1074.926, 498.276
1076.165, 831.022
1077.404, 623.774
1078.643, 856.535
1079.881, 929.303
1081.120, 842.209
1082.358, 1285.014
1083.596, 1007.823
1084.834, 1280.739
1086.071, 1613.577
1087.309, 1486.421
1088.546, 2239.273
1089.783, 2262.133
1091.020, 2775.178
1092.256, 3528.052
1093.493, 4108.877
1094.729, 5131.779
1095.965, 6214.687
1097.201, 6627.604
1098.436, 7810.528
1099.672, 7243.459
1100.907, 6946.477
1102.142, 6909.422
1103.377, 5452.373
1104.612, 5255.352
1105.846, 4898.316
1107.081, 4331.287
1108.315, 4384.266
1109.549, 3967.250
1110.782, 3750.240
1112.016, 4133.244
1113.249, 3924.037
1114.483, 4097.053
1115.716, 3960.074
1116.948, 3613.103
1118.181, 3671.501
1119.413, 2972.661
1120.646, 2805.705
1121.878, 2588.790
1123.110, 1951.880
1124.341, 1875.808
1125.573, 1428.910
1126.804, 902.018
1128.035, 1375.816
1129.266, 758.935
1130.497, 812.058
1131.727, 725.188
1132.957, 347.146
1134.188, 691.221
1135.418, 564.372
1136.647, 327.528
1137.877, 641.304
1139.106, 300.487
1140.335, 463.656
1141.564, 466.830
1142.793, 90.007
1144.022, 587.099
1145.250, 240.553
1146.479, 343.737
1147.707, 547.271
1148.934, 30.464
1150.162, 323.665
1151.390, 388.270
1152.617, 211.475
1153.844, 315.447
1155.071, 119.400
1156.298, 182.621
1157.524, 346.962
1158.751, 70.186
1159.977, 183.411
1161.203, 346.886
1162.428, 40.112
1163.654, 333.339
1164.879, 100.494
1166.105, 113.733
1167.330, 367.327
1168.555, 50.564
1169.779, 173.816
1171.004, 251.737
1172.228, 165.006
1173.452, 378.171
1174.676, 151.720
1175.900, 94.893
1177.123, 318.220
1178.346, 81.415
1179.570, 194.580
1180.793, 262.039
1182.015, 35.197
1183.238, 338.352
1184.460, 44.954
1185.683, 118.102
1186.905, 271.243
1188.126, 144.847
1189.348, 197.983
1190.569, 226.747
1191.791, 9.951
1193.012, 303.070
1194.233, 129.770
1195.453, 42.886
1196.674, 307.031
1197.894, 11.411
1199.114, 164.508
1200.334, 187.783
1201.554, 108.645
1202.774, 404.380
1203.993, 87.961
1205.212, 140.972
1206.431, 423.977
1207.650, 12.094
1208.869, 240.890
1210.087, 314.200
1211.305, 47.168
1212.524, 430.128
1213.741, 183.697
1214.959, 57.011
1216.177, 369.962
1217.394, 43.975
1218.611, 356.910
1219.828, 269.838
1221.045, 132.757
1222.261, 395.667
1223.478, 228.569
1224.694, 241.463
1225.910, 304.347
1227.126, 51.850
1228.342, 344.716
1229.557, 387.566
1230.772, 63.088
1231.987, 485.935
1233.202, 248.915
1234.417, 91.805
1235.631, 464.646
1236.846, 47.607
1238.060, 480.603
1239.274, 363.436
1240.488, 149.335
1241.701, 462.172
1242.915, 215.005
1244.128, 118.101
1245.341, 420.930
1246.554, 83.753
1247.767, 306.548
1248.979, 309.338
1250.191, 102.119
1251.403, 374.897
1252.615, 267.667
1253.827, 210.633
1255.039, 393.390
1256.250, 196.140
1257.461, 320.312
1258.672, 293.050
1259.883, 135.797
1261.094, 428.509
1262.304, 351.213
1263.514, 66.096
1264.724, 426.562
1265.934, 189.217
1267.144, 219.668
1268.354, 412.303
1269.563, 14.929
1270.772, 338.184
1271.981, 410.707
1273.190, 23.351
1274.398, 445.825
1275.607, 188.290
1276.815, 261.784
1278.023, 364.203
1279.231, 16.619
1280.439, 350.909
1281.646, 353.275
1282.853, 35.595
1284.060, 358.679
1285.267, 170.966
1286.474, 173.316
1287.681, 205.564
1288.887, 32.201
1290.093, 90.011
1291.299, 352.193
1292.505, 74.363
1293.711, 317.128
1294.916, 239.266
1296.121, 11.384
1297.327, 463.673
1298.531, 35.760
1299.736, 37.833
1300.941, 209.852
1302.145, 21.857
1303.349, 323.822
1304.553, 195.771
1305.757, 107.705
1306.961, 359.622
1308.164, 241.495
1309.367, 186.649
1310.570, 555.130
1311.773, 86.893
1312.976, 208.638
1314.178, 380.363
1315.381, 37.927
1316.583, 303.728
1317.785, 236.137
1318.987, 77.755
1320.188, 399.352
1321.390, 130.840
1322.591, 162.296
1323.792, 393.732
1324.993, 34.854
1326.193, 346.508
1327.394, 317.823
1328.594, 20.884
1329.794, 290.362
1330.994, 181.585
1332.194, 72.787
1333.394, 453.964
1334.593, 54.892
1335.792, 156.204
1336.991, 347.181
1338.190, 21.773
1339.389, 389.234
1340.587, 30.217
1341.786, 21.171
1342.984, 411.965
1344.182, 132.864
1345.379, 73.737
1346.577, 428.674
1347.774, 59.494
1348.972, 280.289
1350.169, 311.646
1351.365, 32.397
1352.562, 412.431
1353.759, 93.140
1354.955, 203.828
1356.151, 324.457
1357.347, 55.109
1358.543, 85.743
1359.738, 456.341
1360.934, 26.905
1362.129, 367.331
1363.324, 188.173
1364.519, 198.643
1365.713, 539.090
1366.908, 189.876
1368.102, 220.277
1369.296, 390.609
1370.490, 38.732
1371.684, 191.269
1372.877, 190.866
1374.071, 6.953
1375.264, 365.289
1376.457, 147.520
1377.650, 169.548
1378.843, 461.731
1380.035, 153.888
1381.227, 146.025
1382.419, 528.062
1383.611, 9.851
1384.803, 462.242
1385.995, 434.315
1387.186, 126.367
1388.377, 518.396
1389.568, 350.409
1390.759, 216.271
1391.950, 458.152
1393.140, 259.009
1394.331, 420.801
1395.521, 511.759
1396.711, 143.500
1397.900, 514.084
1399.090, 335.752
1400.279, 26.637
1401.469, 588.255
1402.658, 184.909
1403.847, 256.091
1405.035, 567.151
1406.224, 226.801
1407.412, 377.230
1408.600, 497.648
1409.788, 82.479
1410.976, 618.528
1412.164, 289.855
1413.351, 51.698
1414.538, 662.263
1415.725, 136.616
1416.912, 197.611
1418.099, 528.097
1419.285, 28.829
1420.472, 373.362
1421.658, 494.260
1422.844, 0.181
1424.030, 369.894
1425.215, 391.754
1426.401, 32.272
1427.586, 667.080
1428.771, 133.802
1429.956, 203.955
1431.141, 603.613
1432.325, 153.142
1433.510, 311.982
1434.694, 451.828
1435.878, 42.247
1437.062, 610.850
1438.245, 449.233
1439.429, 109.555
1440.612, 659.863
1441.795, 410.154
1442.978, 431.294
1444.161, 561.420
1445.343, 226.036
1446.526, 495.553
1447.708, 535.096
1448.890, 274.457
1450.072, 647.352
1451.253, 566.136
1452.435, 265.394
1453.616, 714.659
1454.797, 493.838
1455.978, 392.433
1457.159, 661.412
1458.340, 326.688
1459.520, 495.404
1460.700, 734.098
1461.880, 252.715
1463.060, 719.795
1464.240, 565.891
1465.420, 163.692
1466.599, 701.879
1467.778, 246.865
1468.957, 338.987
1470.136, 796.938
1471.315, 242.391
1472.493, 410.066
1473.671, 607.887
1474.849, 215.646
1476.027, 501.026
1477.205, 467.763
1478.383, 214.995
1479.560, 522.326
1480.737, 309.660
1481.914, 136.822
1483.091, 664.068
1484.268, 241.150
1485.444, 368.058
1486.621, 674.858
1487.797, 8.450
1488.973, 378.548
1490.149, 376.047
1491.324, 6.454
1492.500, 661.386
1493.675, 249.341
1494.850, 87.292
1496.025, 595.424
1497.200, 163.660
1498.374, 211.998
1499.548, 670.477
1500.723, 129.170
1501.897, 360.170
1503.071, 431.271
1504.244, 1.113
1505.418, 586.280
1506.591, 393.260
1507.764, 0.516
1508.937, 557.068
1510.110, 283.330
1511.282, 0.098
1512.455, 540.929
1513.627, 0.000
##END=



