##NAMES=Albite
##RRUFFID=R040129
##IDEAL CHEMISTRY=NaAlSi_3_O_8_
##LOCALITY=LaChance Quarry, Brunswick, Cumberland County, Maine, USA
##OWNER=RRUFF
##SOURCE=Bob Downs
##DESCRIPTION=Colorless fragment of a tabular single crystal
##STATUS=The identification of this mineral has been confirmed by X-ray diffraction and chemical analysis
##URL=rruff.info/R040129
##MEASURED CHEMISTRY=(Na_0.99_K_0.01_)Al_1.00_Si_3.00_O_8_
##PIN_ID=L00089
##ORIENTATION=Laser parallel to c* (0 0 1). Fiducial mark perpendicular to laser is parallel to -a [-1 0 0]
130.080, 0.000
131.469, 39.181
132.858, 107.378
134.248, 23.982
135.636, 36.126
137.025, 177.276
138.413, 275.376
139.801, 567.256
141.189, 808.856
142.577, 1321.012
143.964, 1982.693
145.352, 2457.842
146.739, 2951.660
148.125, 3174.849
149.512, 3326.715
150.898, 3177.634
152.284, 2920.331
153.670, 2322.238
155.056, 1948.338
156.441, 2300.329
157.827, 2676.498
159.212, 3938.094
160.596, 4895.728
161.981, 5518.513
163.365, 5459.073
164.749, 4231.479
166.133, 3885.916
167.517, 3408.578
168.900, 4175.652
170.283, 4603.298
171.666, 4599.645
173.049, 4136.818
174.431, 3311.939
175.813, 3451.999
177.195, 3547.656
178.577, 4190.043
179.959, 4769.395
181.340, 5705.199
182.721, 6988.898
184.102, 7374.015
185.483, 7639.762
186.863, 7541.433
188.244, 7036.645
189.624, 5709.162
191.003, 4413.146
192.383, 3715.539
193.762, 2908.823
195.141, 2700.077
196.520, 2229.228
197.899, 2036.011
199.277, 1936.666
200.656, 1963.183
202.034, 2306.566
203.411, 2545.823
204.789, 3551.994
206.166, 4388.181
207.543, 6008.379
208.920, 6680.550
210.297, 5972.636
211.673, 5088.607
213.049, 3161.522
214.425, 2274.535
215.801, 1449.611
217.176, 999.792
218.552, 729.077
219.927, 427.461
221.302, 378.754
222.676, 145.637
224.051, 125.189
225.425, 66.705
226.799, 79.438
228.173, 14.240
229.546, 119.042
230.919, 122.293
232.292, 118.520
233.665, 163.550
235.038, 94.994
236.410, 147.315
237.782, 93.225
239.154, 132.400
240.526, 33.904
241.898, 143.736
243.269, 8.381
244.640, 50.526
246.011, 163.181
247.381, 399.281
248.752, 685.356
250.122, 1098.917
251.492, 1433.251
252.861, 1485.190
254.231, 1072.929
255.600, 611.840
256.969, 441.269
258.338, 298.381
259.707, 266.132
261.075, 321.952
262.443, 432.599
263.811, 656.108
265.179, 813.958
266.546, 1272.524
267.914, 1577.846
269.281, 1990.949
270.647, 1889.980
272.014, 1553.998
273.380, 1330.014
274.747, 1004.024
276.113, 993.025
277.478, 976.822
278.844, 1114.904
280.209, 1328.619
281.574, 1618.603
282.939, 2301.620
284.304, 3131.527
285.668, 4770.104
287.032, 6540.288
288.396, 9600.117
289.760, 12108.821
291.123, 12227.490
292.487, 11546.151
293.850, 7754.801
295.212, 5830.216
296.575, 3914.468
297.937, 2548.415
299.300, 1993.820
300.662, 1341.164
302.023, 1113.610
303.385, 822.114
304.746, 684.643
306.107, 633.170
307.468, 520.678
308.829, 483.145
310.189, 422.547
311.549, 355.067
312.909, 308.112
314.269, 268.259
315.629, 241.313
316.988, 249.273
318.347, 276.137
319.706, 221.885
321.065, 280.486
322.423, 477.918
323.781, 639.178
325.139, 1226.276
326.497, 1866.226
327.855, 3145.036
329.212, 3193.715
330.569, 2533.271
331.926, 1899.712
333.283, 1012.045
334.639, 806.273
335.995, 430.405
337.351, 375.442
338.707, 424.390
340.063, 224.239
341.418, 244.937
342.773, 163.343
344.128, 239.412
345.483, 283.051
346.837, 290.270
348.192, 312.459
349.546, 293.639
350.899, 282.890
352.253, 191.066
353.606, 126.215
354.960, 163.337
356.313, 55.432
357.665, 93.492
359.018, 42.499
360.370, 57.450
361.722, 348.369
363.074, 178.192
364.426, 216.080
365.777, 53.013
367.128, 66.854
368.479, 22.324
369.830, 17.455
371.181, 25.788
372.531, 1.069
373.881, 14.611
375.231, 28.722
376.581, 15.084
377.930, 26.514
379.280, 36.912
380.629, 46.616
381.977, 30.127
383.326, 15.301
384.674, 77.243
386.023, 21.559
387.370, 76.612
388.718, 15.597
390.066, 152.947
391.413, 70.160
392.760, 141.121
394.107, 183.918
395.454, 280.984
396.800, 414.262
398.146, 520.871
399.492, 653.231
400.838, 533.001
402.184, 493.522
403.529, 556.056
404.874, 665.713
406.219, 1225.875
407.564, 1399.587
408.908, 1387.779
410.252, 838.244
411.596, 472.993
412.940, 564.683
414.284, 657.308
415.627, 1064.879
416.970, 1058.378
418.313, 747.816
419.656, 519.006
420.999, 148.560
422.341, 182.941
423.683, 32.524
425.025, 6.542
426.367, 40.238
427.708, 47.043
429.049, 8.129
430.390, 14.285
431.731, 36.575
433.072, 2.454
434.412, 75.350
435.752, 16.272
437.092, 10.789
438.432, 48.015
439.772, 41.042
441.111, 93.230
442.450, 149.246
443.789, 53.193
445.127, 261.239
446.466, 223.174
447.804, 367.257
449.142, 523.155
450.480, 707.119
451.817, 1116.243
453.155, 1377.056
454.492, 2243.102
455.829, 2638.086
457.166, 2710.840
458.502, 2521.557
459.838, 1816.237
461.175, 1502.888
462.510, 1111.501
463.846, 1104.075
465.181, 1145.609
466.517, 1124.103
467.852, 1355.557
469.186, 1608.971
470.521, 2133.345
471.855, 2747.595
473.190, 3670.518
474.523, 5523.200
475.857, 7499.671
477.191, 11335.987
478.524, 13092.290
479.857, 12818.666
481.190, 10804.768
482.523, 7151.077
483.855, 5508.064
485.187, 3697.015
486.519, 3060.932
487.851, 2517.812
489.183, 1930.660
490.514, 1998.473
491.845, 1692.252
493.176, 1842.999
494.507, 2022.713
495.837, 2130.395
497.168, 2632.933
498.498, 3081.208
499.828, 4272.656
501.157, 5454.236
502.487, 7859.872
503.816, 11725.119
505.145, 15760.678
506.474, 22186.404
507.802, 22182.441
509.131, 19698.248
510.459, 15583.975
511.787, 10110.998
513.115, 7786.253
514.442, 5461.467
515.770, 4122.804
517.097, 3428.363
518.424, 2491.218
519.750, 2256.824
521.077, 1776.238
522.403, 1644.290
523.729, 1431.147
525.055, 1229.845
526.381, 1149.225
527.706, 959.540
529.031, 960.424
530.356, 813.707
531.681, 695.612
533.006, 737.822
534.330, 589.064
535.654, 604.718
536.978, 543.361
538.302, 506.349
539.625, 534.535
540.949, 418.197
542.272, 415.559
543.595, 364.915
544.917, 288.349
546.240, 356.824
547.562, 248.847
548.884, 424.833
550.206, 272.096
551.527, 318.093
552.849, 332.360
554.170, 275.457
555.491, 313.696
556.812, 204.922
558.132, 166.293
559.453, 202.476
560.773, 95.112
562.093, 292.366
563.412, 189.639
564.732, 261.971
566.051, 255.313
567.370, 203.959
568.689, 364.326
570.008, 289.676
571.326, 321.375
572.644, 408.704
573.963, 434.223
575.280, 623.728
576.598, 647.037
577.915, 841.649
579.233, 915.939
580.550, 874.958
581.866, 802.049
583.183, 515.387
584.499, 544.672
585.815, 339.840
587.131, 294.748
588.447, 252.979
589.763, 187.227
591.078, 238.521
592.393, 163.640
593.708, 163.272
595.022, 133.150
596.337, 80.338
597.651, 135.672
598.965, 78.968
600.279, 111.472
601.593, 166.201
602.906, 91.519
604.219, 109.569
605.532, 69.579
606.845, 109.599
608.158, 89.605
609.470, 48.596
610.782, 175.570
612.094, 61.537
613.406, 73.486
614.718, 171.420
616.029, 129.341
617.340, 182.248
618.651, 121.142
619.962, 141.021
621.272, 194.887
622.582, 206.740
623.892, 257.580
625.202, 243.407
626.512, 360.221
627.821, 365.022
629.131, 434.810
630.440, 541.586
631.749, 522.352
633.057, 633.107
634.366, 543.854
635.674, 479.591
636.982, 548.320
638.290, 364.041
639.597, 485.754
640.905, 507.458
642.212, 534.150
643.519, 659.832
644.825, 626.501
646.132, 807.160
647.438, 817.808
648.744, 712.444
650.050, 678.069
651.356, 422.684
652.662, 437.289
653.967, 327.882
655.272, 229.465
656.577, 280.040
657.882, 125.604
659.186, 212.163
660.490, 104.715
661.794, 110.263
663.098, 108.804
664.402, 36.338
665.705, 118.863
667.009, 106.380
668.312, 18.110
669.614, 144.381
670.917, 13.866
672.219, 56.344
673.522, 8.816
674.824, 30.285
676.125, 18.748
677.427, 13.775
678.728, 54.690
680.030, 39.854
681.331, 82.429
682.631, 42.943
683.932, 43.687
685.232, 47.654
686.532, 36.850
687.832, 15.522
689.132, 60.803
690.432, 67.868
691.731, 46.578
693.030, 5.695
694.329, 28.003
695.628, 23.253
696.926, 50.477
698.224, 3.759
699.522, 0.011
700.820, 25.762
702.118, 35.560
703.415, 0.618
704.713, 26.787
706.010, 13.953
707.307, 95.888
708.603, 17.789
709.900, 10.542
711.196, 12.364
712.492, 70.682
713.788, 55.094
715.083, 155.915
716.379, 12.891
717.674, 150.665
718.969, 173.059
720.264, 179.592
721.558, 228.545
722.853, 45.811
724.147, 229.839
725.441, 140.731
726.735, 30.971
728.028, 142.837
729.322, 70.191
730.615, 76.922
731.908, 172.750
733.201, 47.921
734.493, 156.742
735.785, 76.531
737.078, 92.309
738.370, 145.075
739.661, 111.671
740.953, 132.421
742.244, 150.168
743.535, 257.993
744.826, 256.731
746.117, 180.462
747.407, 297.189
748.698, 342.909
749.988, 308.634
751.278, 459.354
752.567, 467.883
753.857, 685.587
755.146, 668.097
756.435, 951.736
757.724, 1408.412
759.013, 1727.953
760.301, 2632.559
761.590, 3214.988
762.878, 4042.573
764.165, 4050.066
765.453, 3138.378
766.741, 2652.079
768.028, 1863.425
769.315, 1397.812
770.602, 1120.382
771.888, 935.940
773.175, 925.489
774.461, 803.026
775.747, 662.554
777.033, 688.070
778.319, 510.577
779.604, 553.073
780.889, 380.559
782.174, 327.034
783.459, 341.500
784.744, 257.955
786.028, 267.399
787.312, 292.835
788.596, 241.260
789.880, 249.676
791.164, 250.082
792.447, 276.478
793.730, 278.864
795.013, 251.241
796.296, 347.607
797.579, 250.964
798.861, 356.312
800.143, 372.650
801.425, 375.979
802.707, 485.298
803.989, 524.608
805.270, 730.909
806.551, 915.201
807.832, 1131.483
809.113, 1656.757
810.394, 2133.021
811.674, 3020.276
812.954, 3899.522
814.234, 4615.760
815.514, 5049.962
816.794, 4127.179
818.073, 3406.383
819.352, 2554.274
820.631, 1591.468
821.910, 1359.637
823.189, 900.442
824.467, 788.610
825.745, 666.369
827.023, 523.298
828.301, 499.021
829.578, 427.825
830.856, 333.575
832.133, 333.444
833.410, 277.329
834.687, 276.675
835.963, 377.320
837.240, 142.134
838.516, 302.159
839.792, 41.979
841.068, 177.381
842.343, 247.981
843.618, 90.836
844.894, 239.217
846.169, 101.910
847.443, 57.478
848.718, 136.275
849.992, 59.945
851.266, 69.304
852.540, 138.747
853.814, 48.993
855.088, 148.819
856.361, 59.031
857.634, 139.264
858.907, 97.914
860.180, 85.505
861.453, 172.855
862.725, 9.957
863.997, 32.567
865.269, 126.988
866.541, 44.216
867.812, 27.449
869.084, 33.345
870.355, 31.814
871.626, 1.702
872.897, 53.419
874.167, 23.425
875.438, 97.733
876.708, 29.229
877.978, 85.531
879.248, 33.712
880.517, 68.667
881.787, 36.603
883.056, 60.096
884.325, 61.391
885.594, 34.940
886.862, 16.398
888.130, 89.041
889.399, 44.498
890.667, 90.019
891.934, 61.345
893.202, 82.208
894.469, 63.807
895.737, 49.580
897.004, 121.005
898.270, 82.588
899.537, 53.174
900.803, 136.758
902.070, 56.341
903.336, 94.922
904.601, 56.501
905.867, 59.081
907.132, 55.658
908.398, 21.234
909.663, 86.811
910.928, 76.385
912.192, 10.960
913.457, 79.534
914.721, 20.108
915.985, 131.692
917.249, 48.275
918.512, 20.141
919.776, 110.432
921.039, 59.006
922.302, 84.580
923.565, 152.154
924.827, 74.728
926.090, 111.302
927.352, 28.876
928.614, 79.451
929.876, 143.025
931.138, 23.600
932.399, 102.177
933.660, 61.753
934.922, 57.331
936.182, 164.909
937.443, 101.489
938.704, 38.069
939.964, 96.650
941.224, 17.232
942.484, 158.816
943.744, 154.401
945.003, 39.988
946.262, 157.576
947.521, 78.166
948.780, 162.756
950.039, 130.348
951.298, 108.942
952.556, 226.537
953.814, 147.134
955.072, 159.734
956.330, 183.335
957.587, 128.938
958.845, 309.543
960.102, 138.152
961.359, 278.762
962.615, 356.375
963.872, 220.990
965.128, 367.608
966.384, 308.228
967.640, 351.851
968.896, 481.477
970.152, 403.106
971.407, 636.740
972.662, 703.376
973.917, 925.016
975.172, 1237.665
976.427, 1266.318
977.681, 1567.975
978.935, 1517.636
980.189, 1237.303
981.443, 1146.316
982.697, 739.651
983.950, 568.337
985.203, 621.028
986.456, 402.735
987.709, 430.470
988.962, 303.209
990.214, 194.966
991.467, 241.583
992.719, 140.361
993.971, 143.152
995.222, 248.947
996.474, 142.768
997.725, 403.608
998.976, 389.430
1000.227, 441.293
1001.478, 651.159
1002.728, 662.048
1003.978, 811.945
1005.229, 756.824
1006.479, 740.744
1007.728, 804.682
1008.978, 593.627
1010.227, 666.579
1011.476, 663.539
1012.725, 565.531
1013.974, 715.297
1015.223, 646.617
1016.471, 644.654
1017.719, 620.514
1018.967, 462.565
1020.215, 652.645
1021.462, 507.733
1022.710, 492.384
1023.957, 621.903
1025.204, 624.399
1026.451, 731.174
1027.697, 804.182
1028.944, 909.320
1030.190, 1183.104
1031.436, 1185.258
1032.682, 1202.917
1033.928, 1242.204
1035.173, 942.769
1036.418, 904.605
1037.663, 671.914
1038.908, 577.146
1040.153, 547.384
1041.398, 451.644
1042.642, 464.071
1043.886, 520.358
1045.130, 403.950
1046.374, 461.172
1047.617, 379.507
1048.860, 366.900
1050.104, 452.251
1051.347, 342.628
1052.589, 388.010
1053.832, 326.412
1055.074, 223.821
1056.316, 201.236
1057.558, 206.677
1058.800, 138.126
1060.042, 301.583
1061.283, 206.088
1062.524, 226.559
1063.765, 243.037
1065.006, 149.659
1066.247, 336.161
1067.487, 218.689
1068.728, 319.127
1069.968, 312.667
1071.208, 233.217
1072.447, 454.771
1073.687, 355.333
1074.926, 285.902
1076.165, 479.477
1077.404, 286.060
1078.643, 387.648
1079.881, 463.243
1081.120, 395.035
1082.358, 554.654
1083.596, 521.277
1084.834, 575.074
1086.071, 1099.712
1087.309, 1024.357
1088.546, 1303.035
1089.783, 1248.703
1091.020, 1134.484
1092.256, 1460.165
1093.493, 1572.851
1094.729, 1994.545
1095.965, 2425.244
1097.201, 2549.947
1098.436, 3075.670
1099.672, 2792.398
1100.907, 2684.132
1102.142, 2547.872
1103.377, 1927.619
1104.612, 1917.372
1105.846, 1642.130
1107.081, 1306.894
1108.315, 1385.798
1109.549, 1025.578
1110.782, 1031.364
1112.016, 1085.158
1113.249, 885.958
1114.483, 989.764
1115.716, 1000.575
1116.948, 886.393
1118.181, 969.522
1119.413, 739.350
1120.646, 1005.211
1121.878, 1117.052
1123.110, 816.899
1124.341, 613.750
1125.573, 406.609
1126.804, 301.473
1128.035, 427.473
1129.266, 153.355
1130.497, 270.242
1131.727, 244.134
1132.957, 163.030
1134.188, 234.041
1135.418, 217.947
1136.647, 76.858
1137.877, 280.772
1139.106, 60.692
1140.335, 256.832
1141.564, 157.943
1142.793, 82.874
1144.022, 315.092
1145.250, 87.157
1146.479, 235.095
1147.707, 286.361
1148.934, 165.305
1150.162, 282.250
1151.390, 312.504
1152.617, 235.453
1153.844, 412.440
1155.071, 165.544
1156.298, 213.497
1157.524, 293.671
1158.751, 95.761
1159.977, 159.726
1161.203, 220.905
1162.428, 20.132
1163.654, 286.916
1164.879, 40.056
1166.105, 133.030
1167.330, 148.540
1168.555, 73.044
1169.779, 107.017
1171.004, 78.875
1172.228, 22.135
1173.452, 216.851
1174.676, 91.562
1175.900, 28.582
1177.123, 337.695
1178.346, 327.165
1179.570, 93.190
1180.793, 82.727
1182.015, 43.748
1183.238, 56.288
1184.460, 6.818
1185.683, 21.222
1186.905, 99.258
1188.126, 5.516
1189.348, 89.546
1190.569, 12.035
1191.791, 86.715
1193.012, 51.300
1194.233, 6.781
1195.453, 31.152
1196.674, 103.275
1197.894, 51.563
1199.114, 52.545
1200.334, 157.437
1201.554, 64.607
1202.774, 165.574
1203.993, 108.137
1205.212, 62.467
1206.431, 210.505
1207.650, 26.869
1208.869, 152.807
1210.087, 188.078
1211.305, 39.682
1212.524, 207.322
1213.741, 68.195
1214.959, 89.117
1216.177, 282.002
1217.394, 112.266
1218.611, 119.138
1219.828, 168.003
1221.045, 56.433
1222.261, 159.284
1223.478, 142.882
1224.694, 97.381
1225.910, 256.143
1227.126, 17.684
1228.342, 203.497
1229.557, 162.301
1230.772, 24.785
1231.987, 295.573
1233.202, 128.706
1234.417, 64.916
1235.631, 207.689
1236.846, 44.841
1238.060, 297.646
1239.274, 251.817
1240.488, 79.557
1241.701, 240.308
1242.915, 202.058
1244.128, 78.672
1245.341, 211.416
1246.554, 107.208
1247.767, 189.412
1248.979, 206.148
1250.191, 131.076
1251.403, 214.803
1252.615, 195.528
1253.827, 56.569
1255.039, 225.286
1256.250, 144.223
1257.461, 235.618
1258.672, 260.323
1259.883, 99.245
1261.094, 403.132
1262.304, 491.822
1263.514, 22.676
1264.724, 257.361
1265.934, 91.033
1267.144, 129.434
1268.354, 201.093
1269.563, 158.747
1270.772, 209.141
1271.981, 198.766
1273.190, 76.170
1274.398, 243.082
1275.607, 131.675
1276.815, 141.487
1278.023, 163.047
1279.231, 84.600
1280.439, 204.489
1281.646, 161.138
1282.853, 335.618
1284.060, 169.239
1285.267, 63.679
1286.474, 72.234
1287.681, 169.623
1288.887, 49.967
1290.093, 88.271
1291.299, 177.545
1292.505, 42.778
1293.711, 218.099
1294.916, 123.305
1296.121, 49.481
1297.327, 298.609
1298.531, 115.726
1299.736, 88.829
1300.941, 132.916
1302.145, 73.991
1303.349, 95.053
1304.553, 126.081
1305.757, 26.908
1306.961, 160.074
1308.164, 108.702
1309.367, 6.635
1310.570, 345.545
1311.773, 29.443
1312.976, 30.298
1314.178, 214.131
1315.381, 20.052
1316.583, 154.737
1317.785, 160.093
1318.987, 22.827
1320.188, 207.538
1321.390, 113.229
1322.591, 41.898
1323.792, 189.540
1324.993, 12.839
1326.193, 39.742
1327.394, 159.896
1328.594, 66.595
1329.794, 142.763
1330.994, 159.195
1332.194, 24.397
1333.394, 149.973
1334.593, 27.680
1335.792, 89.632
1336.991, 132.624
1338.190, 1.892
1339.389, 122.111
1340.587, 61.741
1341.786, 43.566
1342.984, 150.570
1344.182, 21.314
1345.379, 89.768
1346.577, 153.993
1347.774, 47.967
1348.972, 52.033
1350.169, 117.011
1351.365, 46.968
1352.562, 163.861
1353.759, 57.903
1354.955, 11.200
1356.151, 112.542
1357.347, 54.606
1358.543, 129.208
1359.738, 184.008
1360.934, 50.790
1362.129, 190.559
1363.324, 146.622
1364.519, 32.356
1365.713, 150.076
1366.908, 66.925
1368.102, 160.615
1369.296, 126.296
1370.490, 18.030
1371.684, 145.420
1372.877, 192.042
1374.071, 25.961
1375.264, 225.383
1376.457, 57.571
1377.650, 12.959
1378.843, 136.769
1380.035, 53.819
1381.227, 129.963
1382.419, 180.091
1383.611, 55.193
1384.803, 244.268
1385.995, 267.324
1387.186, 17.635
1388.377, 154.246
1389.568, 135.244
1390.759, 52.218
1391.950, 188.173
1393.140, 102.771
1394.331, 238.655
1395.521, 199.549
1396.711, 11.420
1397.900, 193.119
1399.090, 99.931
1400.279, 38.723
1401.469, 387.365
1402.658, 103.114
1403.847, 110.583
1405.035, 217.066
1406.224, 117.246
1407.412, 156.510
1408.600, 283.162
1409.788, 40.407
1410.976, 244.785
1412.164, 172.104
1413.351, 41.503
1414.538, 342.775
1415.725, 4.581
1416.912, 85.338
1418.099, 297.072
1419.285, 99.492
1420.472, 216.897
1421.658, 273.136
1422.844, 77.856
1424.030, 123.837
1425.215, 203.452
1426.401, 113.640
1427.586, 328.911
1428.771, 107.383
1429.956, 165.145
1431.141, 349.494
1432.325, 132.532
1433.510, 227.304
1434.694, 203.476
1435.878, 95.341
1437.062, 242.245
1438.245, 196.275
1439.429, 122.955
1440.612, 387.298
1441.795, 256.994
1442.978, 202.310
1444.161, 274.081
1445.343, 235.283
1446.526, 347.366
1447.708, 293.214
1448.890, 208.657
1450.072, 367.850
1451.253, 240.924
1452.435, 231.966
1453.616, 466.743
1454.797, 268.262
1455.978, 257.619
1457.159, 458.554
1458.340, 264.821
1459.520, 392.920
1460.700, 328.757
1461.880, 157.057
1463.060, 375.287
1464.240, 279.415
1465.420, 285.964
1466.599, 346.227
1467.778, 262.389
1468.957, 224.672
1470.136, 406.823
1471.315, 201.539
1472.493, 177.721
1473.671, 301.914
1474.849, 80.112
1476.027, 276.834
1477.205, 171.757
1478.383, 177.468
1479.560, 304.461
1480.737, 157.639
1481.914, 101.710
1483.091, 279.666
1484.268, 173.662
1485.444, 88.639
1486.621, 375.600
1487.797, 14.552
1488.973, 185.547
1490.149, 254.507
1491.324, 93.538
1492.500, 281.543
1493.675, 145.599
1494.850, 18.866
1496.025, 375.345
1497.200, 71.982
1498.374, 143.751
1499.548, 320.613
1500.723, 74.569
1501.897, 187.620
1503.071, 299.800
1504.244, 5.325
1505.418, 287.083
1506.591, 209.702
1507.764, 16.139
1508.937, 251.103
1510.110, 156.286
1511.282, 75.719
1512.455, 327.718
1513.627, 138.972
1514.799, 3.660
1515.971, 286.003
1517.143, 0.759
1518.314, 133.543
1519.486, 0.000
##END=



