##NAMES=Albite
##RRUFFID=R040129
##IDEAL CHEMISTRY=NaAlSi_3_O_8_
##LOCALITY=LaChance Quarry, Brunswick, Cumberland County, Maine, USA
##OWNER=RRUFF
##SOURCE=Bob Downs
##DESCRIPTION=Colorless fragment of a tabular single crystal
##STATUS=The identification of this mineral has been confirmed by X-ray diffraction and chemical analysis
##URL=rruff.info/R040129
##MEASURED CHEMISTRY=(Na_0.99_K_0.01_)Al_1.00_Si_3.00_O_8_
##PIN_ID=L00347
##ORIENTATION=Laser parallel to (-1 -1 0). Fiducial mark perpendicular to laser is parallel to -c [0 0 -1]
106.423, 0.000
107.817, 560.769
109.210, 1342.023
110.603, 2637.704
111.996, 4359.801
113.388, 3769.521
114.780, 3494.925
116.172, 2771.212
117.564, 1245.376
118.956, 757.200
120.347, 306.478
121.738, 58.097
123.129, 25.278
124.519, 75.723
125.910, 0.453
127.300, 108.385
128.690, 39.082
130.080, 32.183
131.469, 107.387
132.858, 105.557
134.248, 183.150
135.636, 73.326
137.025, 225.199
138.413, 459.440
139.801, 695.342
141.189, 952.361
142.577, 1090.226
143.964, 1285.692
145.352, 1568.217
146.739, 1568.187
148.125, 1708.730
149.512, 1809.793
150.898, 1681.317
152.284, 1393.256
153.670, 1115.575
155.056, 768.245
156.441, 1091.238
157.827, 874.533
159.212, 1158.158
160.596, 1342.089
161.981, 1516.264
163.365, 1700.670
164.749, 2005.293
166.133, 2360.121
167.517, 2671.338
168.900, 3350.747
170.283, 3624.173
171.666, 3367.792
173.049, 2730.418
174.431, 2059.104
175.813, 1786.573
177.195, 1634.348
178.577, 1882.474
179.959, 1790.599
181.340, 2038.710
182.721, 2396.811
184.102, 2394.900
185.483, 2432.982
186.863, 2371.055
188.244, 2009.285
189.624, 1767.669
191.003, 1535.863
192.383, 1353.979
193.762, 1142.311
195.141, 1210.074
196.520, 888.088
197.899, 906.096
199.277, 1054.106
200.656, 1272.134
202.034, 1610.186
203.411, 1928.236
204.789, 2616.320
206.166, 3324.439
207.543, 4022.598
208.920, 3850.791
210.297, 3689.023
211.673, 2770.312
213.049, 1988.579
214.425, 1276.886
215.801, 815.230
217.176, 603.610
218.552, 522.026
219.927, 240.476
221.302, 98.954
222.676, 56.000
224.051, 265.990
225.425, 94.544
226.799, 175.671
228.173, 24.630
229.546, 156.900
230.919, 5.100
232.292, 17.917
233.665, 84.051
235.038, 23.645
236.410, 75.867
237.782, 351.812
239.154, 72.014
240.526, 221.273
241.898, 13.587
243.269, 182.373
244.640, 453.634
246.011, 343.803
247.381, 889.141
248.752, 979.377
250.122, 1246.643
251.492, 1344.539
252.861, 1241.869
254.231, 949.188
255.600, 636.541
256.969, 713.896
258.338, 531.262
259.707, 628.639
261.075, 736.023
262.443, 673.414
263.811, 1150.812
265.179, 1428.217
266.546, 1915.623
267.914, 2076.830
269.281, 2175.039
270.647, 2179.920
272.014, 1821.084
273.380, 1314.008
274.747, 1108.012
276.113, 1014.396
277.478, 899.754
278.844, 1045.582
280.209, 1052.992
281.574, 1489.523
282.939, 1886.350
284.304, 2493.434
285.668, 3450.654
287.032, 4798.084
288.396, 5765.420
289.760, 6663.211
291.123, 6581.141
292.487, 5759.219
293.850, 4387.422
295.212, 3285.734
296.575, 2244.148
297.937, 1690.799
299.300, 1159.387
300.662, 988.053
302.023, 696.785
303.385, 475.578
304.746, 384.420
306.107, 423.305
307.468, 292.232
308.829, 321.193
310.189, 230.188
311.549, 259.213
312.909, 198.264
314.269, 97.342
315.629, 13.561
316.988, 95.547
318.347, 174.674
319.706, 183.816
321.065, 222.973
322.423, 382.145
323.781, 691.324
325.139, 930.518
326.497, 1149.719
327.855, 1194.865
329.212, 1149.102
330.569, 1087.357
331.926, 836.508
333.283, 575.598
334.639, 384.650
335.995, 303.668
337.351, 222.652
338.707, 81.621
340.063, 170.580
341.418, 139.533
342.773, 158.473
344.128, 102.600
345.483, 76.281
346.837, 25.154
348.192, 154.014
349.546, 119.822
350.899, 161.699
352.253, 30.523
353.606, 39.326
354.960, 11.889
356.313, 3.088
357.665, 5.688
359.018, 34.479
360.370, 83.254
361.722, 42.025
363.074, 109.221
364.426, 40.520
365.777, 161.834
367.128, 16.783
368.479, 24.623
369.830, 43.941
371.181, 97.498
372.531, 11.010
373.881, 40.514
375.231, 72.049
376.581, 26.365
377.930, 5.246
379.280, 66.859
380.629, 11.475
381.977, 39.789
383.326, 158.074
384.674, 66.342
386.023, 15.318
387.370, 47.025
388.718, 11.283
390.066, 183.586
391.413, 171.787
392.760, 175.074
394.107, 103.076
395.454, 439.855
396.800, 315.443
398.146, 352.922
399.492, 598.523
400.838, 550.523
402.184, 535.898
403.529, 783.719
404.874, 1221.041
406.219, 1698.713
407.564, 2046.309
408.908, 1813.873
410.252, 1341.385
411.596, 1028.824
412.940, 966.248
414.284, 1223.652
415.627, 1551.039
416.970, 1398.410
418.313, 865.764
419.656, 653.102
420.999, 300.422
422.341, 247.725
423.683, 215.016
425.025, 32.299
426.367, 199.545
427.708, 83.225
429.049, 333.941
430.390, 18.928
431.731, 138.105
433.072, 225.084
434.412, 212.072
435.752, 239.367
437.092, 106.355
438.432, 323.320
439.772, 320.275
441.111, 127.221
442.450, 414.354
443.789, 321.256
445.127, 408.143
446.466, 515.070
447.804, 461.918
449.142, 699.320
450.480, 876.125
451.817, 1203.674
453.155, 1480.436
454.492, 1817.551
455.829, 2184.264
457.166, 1780.951
458.502, 1877.613
459.838, 1514.258
461.175, 1420.871
462.510, 1337.461
463.846, 1314.021
465.181, 1420.553
466.517, 1467.055
467.852, 1563.527
469.186, 2079.969
470.521, 2606.381
471.855, 3582.766
473.190, 4979.119
474.523, 6925.441
475.857, 9121.732
477.191, 11686.059
478.524, 13002.289
479.857, 12128.494
481.190, 9744.670
482.523, 6980.809
483.855, 5216.922
485.187, 3712.998
486.519, 2569.043
487.851, 2715.059
489.183, 1871.037
490.514, 1856.984
491.845, 1822.898
493.176, 1628.781
494.507, 1834.631
495.837, 2180.445
497.168, 2526.232
498.498, 3231.984
499.828, 4417.701
501.157, 6013.387
502.487, 8179.037
503.816, 11674.660
505.145, 14902.148
506.474, 17078.600
507.802, 17043.947
509.131, 14169.660
510.459, 10925.398
511.787, 7950.955
513.115, 5814.959
514.442, 4329.672
515.770, 3231.627
517.097, 2843.795
518.424, 2146.859
519.750, 1880.559
521.077, 1578.871
522.403, 1412.941
523.729, 1468.410
525.055, 993.854
526.381, 926.256
527.706, 1089.422
529.031, 710.973
530.356, 798.572
531.681, 564.537
533.006, 866.344
534.330, 645.787
535.654, 762.502
536.978, 515.557
538.302, 523.883
539.625, 490.809
540.949, 534.141
542.272, 357.154
543.595, 441.777
544.917, 307.264
546.240, 556.527
547.562, 338.439
548.884, 309.785
550.206, 605.168
551.527, 225.779
552.849, 460.209
554.170, 28.732
555.491, 366.582
556.812, 363.248
558.132, 387.516
559.453, 71.785
560.773, 366.758
562.093, 360.867
563.412, 235.213
564.732, 319.256
566.051, 313.262
567.370, 327.232
568.689, 451.371
570.008, 435.275
571.326, 669.369
572.644, 423.207
573.963, 537.010
575.280, 710.795
576.598, 804.545
577.915, 928.262
579.233, 1031.945
580.550, 845.598
581.866, 720.309
583.183, 705.545
584.499, 565.365
585.815, 468.881
587.131, 411.801
588.447, 625.254
589.763, 311.867
591.078, 294.475
592.393, 407.830
593.708, 211.154
595.022, 334.441
596.337, 316.080
597.651, 409.303
598.965, 282.496
600.279, 214.434
601.593, 337.566
602.906, 320.664
604.219, 233.730
605.532, 266.768
606.845, 179.771
608.158, 492.738
609.470, 165.672
610.782, 488.568
612.094, 191.436
613.406, 314.270
614.718, 497.072
616.029, 319.842
617.340, 572.582
618.651, 355.291
619.962, 297.969
621.272, 880.615
622.582, 413.232
623.892, 1125.820
625.202, 1088.375
626.512, 970.902
627.821, 923.396
629.131, 735.863
630.440, 808.297
631.749, 700.723
633.057, 633.117
634.366, 645.484
635.674, 367.834
636.982, 891.732
638.290, 504.025
639.597, 706.293
640.905, 948.533
642.212, 900.744
643.519, 962.926
644.825, 1235.080
646.132, 1337.205
647.438, 1149.305
648.744, 851.373
650.050, 1283.414
651.356, 945.430
652.662, 847.414
653.967, 949.371
655.272, 361.305
656.577, 753.209
657.882, 315.088
659.186, 396.938
660.490, 288.764
661.794, 190.561
663.098, 102.367
664.402, 88.451
665.705, 155.883
667.009, 147.598
668.312, 169.283
669.614, 310.945
670.917, 122.586
672.219, 95.797
673.522, 235.723
674.824, 102.766
676.125, 288.643
677.427, 10.035
678.728, 131.373
680.030, 202.689
681.331, 35.973
682.631, 115.311
683.932, 86.627
685.232, 47.924
686.532, 10.795
687.832, 100.434
689.132, 161.678
690.432, 117.086
691.731, 194.061
693.030, 65.225
694.329, 73.633
695.628, 117.441
696.926, 18.525
698.224, 69.588
699.522, 180.631
700.820, 308.348
702.118, 252.473
703.415, 186.703
704.713, 54.006
706.010, 44.707
707.307, 214.619
708.603, 215.662
709.900, 233.842
711.196, 27.400
712.492, 2.295
713.788, 117.967
715.083, 108.209
716.379, 24.393
717.674, 304.594
718.969, 54.777
720.264, 294.623
721.558, 194.771
722.853, 254.902
724.147, 55.018
725.441, 455.119
726.735, 45.201
728.028, 275.268
729.322, 205.318
730.615, 308.170
731.908, 168.193
733.201, 228.203
734.493, 218.199
735.785, 508.182
737.078, 1.848
738.370, 11.906
739.661, 148.008
740.953, 327.926
742.244, 27.832
743.535, 137.908
744.826, 507.836
746.117, 247.785
747.407, 717.725
748.698, 447.654
749.988, 427.270
751.278, 707.178
752.567, 527.086
753.857, 1086.982
755.146, 946.871
756.435, 1267.531
757.724, 1947.406
759.013, 2047.275
760.301, 3047.072
761.590, 3766.926
762.878, 3946.193
764.165, 4276.029
765.453, 3185.098
766.741, 2425.508
768.028, 2014.943
769.315, 1164.752
770.602, 1194.555
771.888, 914.354
773.175, 844.234
774.461, 414.018
775.747, 653.799
777.033, 463.574
778.319, 613.348
779.604, 123.115
780.889, 472.877
782.174, 242.637
783.459, 192.391
784.744, 332.143
786.028, 486.346
787.312, 586.090
788.596, 155.832
789.880, 705.887
791.164, 44.375
792.447, 315.346
793.730, 596.736
795.013, 36.449
796.296, 446.166
797.579, 245.879
798.861, 785.590
800.143, 455.301
801.425, 105.014
802.707, 814.723
803.989, 514.434
805.270, 774.145
806.551, 1183.857
807.832, 1113.572
809.113, 1783.285
810.394, 2173.002
811.674, 2692.723
812.954, 3782.441
814.234, 3842.162
815.514, 4441.887
816.794, 3311.543
818.073, 2770.346
819.352, 2458.900
820.631, 1648.412
821.910, 1087.875
823.189, 897.488
824.467, 677.240
825.745, 826.523
827.023, 606.107
828.301, 515.875
829.578, 615.135
830.856, 444.914
832.133, 591.348
833.410, 410.861
834.687, 530.686
835.963, 324.463
837.240, 423.938
838.516, 563.072
839.792, 231.383
841.068, 216.986
842.343, 836.512
843.618, 346.344
844.894, 405.459
846.169, 585.369
847.443, 454.422
848.718, 416.455
849.992, 296.195
851.266, 314.000
852.540, 93.328
853.814, 593.320
855.088, 680.969
856.361, 400.988
857.634, 536.422
858.907, 535.727
860.180, 734.883
861.453, 798.797
862.725, 578.898
863.997, 678.984
865.269, 460.918
866.541, 518.707
867.812, 378.883
869.084, 79.078
870.355, 398.543
871.626, 528.867
872.897, 1598.938
874.167, 1069.309
875.438, 1069.695
876.708, 490.109
877.978, 1090.340
879.248, 390.797
880.517, 151.047
881.787, 531.551
883.056, 127.926
884.325, 342.598
885.594, 133.172
886.862, 483.770
888.130, 244.391
889.399, 135.039
890.667, 354.617
891.934, 103.668
893.202, 344.395
894.469, 665.145
895.737, 14.246
897.004, 416.555
898.270, 327.383
899.537, 368.238
900.803, 329.117
902.070, 320.027
903.336, 540.965
904.601, 231.926
905.867, 532.918
907.132, 523.930
908.398, 65.027
909.663, 536.035
910.928, 347.121
912.192, 278.230
913.457, 329.371
914.721, 550.539
915.985, 241.746
917.249, 492.965
918.512, 45.789
919.776, 215.473
921.039, 286.758
922.302, 98.070
923.565, 689.406
924.827, 9.238
926.090, 392.145
927.352, 143.551
928.614, 264.961
929.876, 156.391
931.138, 367.852
932.399, 279.324
933.660, 270.820
934.922, 102.348
936.182, 593.902
937.443, 184.516
938.704, 167.070
939.964, 478.680
941.224, 29.680
942.484, 751.988
943.744, 192.105
945.003, 96.168
946.262, 565.578
947.521, 57.352
948.780, 529.156
950.039, 510.992
951.298, 542.855
952.556, 554.754
953.814, 316.680
955.072, 348.637
956.330, 490.625
957.587, 92.645
958.845, 594.699
960.102, 226.785
961.359, 668.898
962.615, 401.047
963.872, 323.230
965.128, 495.453
966.384, 177.699
967.640, 129.984
968.896, 632.305
970.152, 384.660
971.407, 277.062
972.662, 679.492
973.917, 371.961
975.172, 624.469
976.427, 517.004
977.681, 659.582
978.935, 872.238
980.189, 354.934
981.443, 507.707
982.697, 230.516
983.950, 373.379
985.203, 251.633
986.456, 424.566
987.709, 177.566
988.962, 320.605
990.214, 93.684
991.467, 336.805
992.719, 10.012
993.971, 293.203
995.222, 536.461
996.474, 49.809
997.725, 653.191
998.976, 706.633
1000.227, 690.133
1001.478, 1263.680
1002.728, 1020.059
1003.978, 853.703
1005.229, 847.598
1006.479, 231.422
1007.728, 835.293
1008.978, 479.273
1010.227, 633.301
1011.476, 1057.652
1012.725, 851.848
1013.974, 956.082
1015.223, 900.441
1016.471, 804.852
1017.719, 1299.324
1018.967, 390.703
1020.215, 1205.273
1021.462, 979.902
1022.710, 644.582
1023.957, 1009.312
1025.204, 804.094
1026.451, 1108.844
1027.697, 1143.648
1028.944, 398.504
1030.190, 1273.410
1031.436, 498.375
1032.682, 753.398
1033.928, 1035.656
1035.173, 707.211
1036.418, 452.336
1037.663, 537.520
1038.908, 343.496
1040.153, 1048.793
1041.398, 304.664
1042.642, 870.086
1043.886, 765.379
1045.130, 260.719
1046.374, 866.059
1047.617, 571.504
1048.860, 707.004
1050.104, 1212.551
1051.347, 519.074
1052.589, 1054.445
1053.832, 1189.805
1055.074, 345.367
1056.316, 980.738
1057.558, 496.125
1058.800, 870.820
1060.042, 646.133
1061.283, 521.445
1062.524, 636.773
1063.765, 832.070
1065.006, 550.773
1066.247, 952.812
1067.487, 606.848
1068.728, 361.531
1069.968, 1066.273
1071.208, 410.984
1072.447, 1145.844
1073.687, 730.762
1074.926, 525.746
1076.165, 1180.789
1077.404, 651.078
1078.643, 995.859
1079.881, 1091.055
1081.120, 924.465
1082.358, 1329.785
1083.596, 1075.168
1084.834, 1010.617
1086.071, 1756.133
1087.309, 1001.715
1088.546, 1697.367
1089.783, 1683.086
1091.020, 1378.871
1092.256, 2234.730
1093.493, 1840.656
1094.729, 2666.656
1095.965, 2692.723
1097.201, 2818.867
1098.436, 2985.078
1099.672, 2911.250
1100.907, 2317.648
1102.142, 2664.012
1103.377, 2150.445
1104.612, 1676.820
1105.846, 1993.391
1107.081, 1340.031
1108.315, 2286.738
1109.549, 1423.480
1110.782, 1260.285
1112.016, 1627.152
1113.249, 754.086
1114.483, 1351.078
1115.716, 1368.133
1116.948, 935.199
1118.181, 1262.273
1119.413, 1159.402
1120.646, 1436.594
1121.878, 1723.836
1123.110, 971.133
1124.341, 1038.500
1125.573, 795.852
1126.804, 283.254
1128.035, 780.691
1129.266, 618.176
1130.497, 305.707
1131.727, 843.293
1132.957, 149.078
1134.188, 358.605
1135.418, 796.340
1136.647, 124.137
1137.877, 482.004
1139.106, 389.945
1140.335, 277.922
1141.564, 806.035
1142.793, 144.254
1144.022, 302.586
1145.250, 641.020
1146.479, 19.672
1147.707, 1098.457
1148.934, 207.383
1150.162, 73.578
1151.390, 835.582
1152.617, 4.871
1153.844, 664.281
1155.071, 583.816
1156.298, 113.477
1157.524, 823.266
1158.751, 23.191
1159.977, 853.254
1161.203, 533.449
1162.428, 293.789
1163.654, 564.273
1164.879, 584.902
1166.105, 114.309
1167.330, 946.648
1168.555, 257.770
1169.779, 269.070
1171.004, 840.570
1172.228, 422.266
1173.452, 614.484
1174.676, 636.004
1175.900, 397.715
1177.123, 679.645
1178.346, 251.793
1179.570, 704.164
1180.793, 756.707
1182.015, 83.500
1183.238, 878.023
1184.460, 260.703
1185.683, 73.574
1186.905, 1115.125
1188.126, 148.305
1189.348, 371.664
1190.569, 680.926
1191.791, 312.082
1193.012, 253.066
1194.233, 575.148
1195.453, 317.113
1196.674, 728.879
1197.894, 28.965
1199.114, 915.961
1200.334, 353.223
1201.554, 229.746
1202.774, 664.766
1203.993, 796.340
1205.212, 225.836
1206.431, 886.566
1207.650, 374.059
1208.869, 515.117
1210.087, 614.703
1211.305, 2.016
1212.524, 0.000
##END=



