##NAMES=Albite
##RRUFFID=R040129
##IDEAL CHEMISTRY=NaAlSi_3_O_8_
##LOCALITY=LaChance Quarry, Brunswick, Cumberland County, Maine, USA
##OWNER=RRUFF
##SOURCE=Bob Downs
##DESCRIPTION=Colorless fragment of a tabular single crystal
##STATUS=The identification of this mineral has been confirmed by X-ray diffraction and chemical analysis
##URL=rruff.info/R040129
##MEASURED CHEMISTRY=(Na_0.99_K_0.01_)Al_1.00_Si_3.00_O_8_
##PIN_ID=L00089
##ORIENTATION=Laser parallel to c* (0 0 1). Fiducial mark perpendicular to laser is parallel to -a [-1 0 0]
128.690, 0.000
130.080, 96.808
131.469, 3.267
132.858, 1.525
134.248, 19.983
135.636, 23.906
137.025, 233.401
138.413, 314.725
139.801, 813.982
141.189, 1145.621
142.577, 1994.823
143.964, 3166.145
145.352, 3692.948
146.739, 3618.965
148.125, 2213.378
149.512, 1813.657
150.898, 1780.450
152.284, 2397.516
153.670, 3000.222
155.056, 3731.521
156.441, 5199.681
157.827, 6387.101
159.212, 9632.612
160.596, 11355.971
161.981, 12727.523
163.365, 12187.572
164.749, 9046.220
166.133, 7423.623
167.517, 5659.952
168.900, 5815.323
170.283, 6149.828
171.666, 6523.542
173.049, 6746.541
174.431, 6098.900
175.813, 6900.680
177.195, 7044.852
178.577, 9007.011
179.959, 10260.424
181.340, 11430.852
182.721, 13492.976
184.102, 14053.371
185.483, 14178.358
186.863, 13791.234
188.244, 12733.259
189.624, 10203.385
191.003, 7993.979
192.383, 6934.999
193.762, 5276.453
195.141, 4624.647
196.520, 3810.681
197.899, 3464.373
199.277, 3308.994
200.656, 3264.551
202.034, 3665.225
203.411, 3886.207
204.789, 5392.316
206.166, 6614.568
207.543, 8966.852
208.920, 10089.060
210.297, 8981.178
211.673, 7653.222
213.049, 4759.275
214.425, 3443.358
215.801, 2211.485
217.176, 1608.675
218.552, 1182.928
219.927, 646.246
221.302, 644.625
222.676, 330.063
224.051, 328.554
225.425, 113.092
226.799, 43.671
228.173, 78.283
229.546, 100.080
230.919, 34.421
232.292, 179.748
233.665, 163.062
235.038, 129.370
236.410, 197.673
237.782, 105.984
239.154, 237.324
240.526, 120.707
241.898, 72.136
243.269, 28.527
244.640, 82.682
246.011, 115.105
247.381, 485.684
248.752, 712.388
250.122, 1572.395
251.492, 2006.971
252.861, 2084.066
254.231, 1648.691
255.600, 879.941
256.969, 679.643
258.338, 323.142
259.707, 320.951
261.075, 263.122
262.443, 186.691
263.811, 415.951
265.179, 348.245
266.546, 547.235
267.914, 601.963
269.281, 795.579
270.647, 924.180
272.014, 865.848
273.380, 1220.484
274.747, 1735.403
276.113, 1513.357
277.478, 1743.421
278.844, 2204.667
280.209, 2945.483
281.574, 3786.842
282.939, 5509.232
284.304, 7244.460
285.668, 11304.567
287.032, 15354.776
288.396, 22154.305
289.760, 28363.949
291.123, 28422.855
292.487, 26561.740
293.850, 18134.523
295.212, 13307.251
296.575, 8879.855
297.937, 6113.153
299.300, 4752.763
300.662, 3197.219
302.023, 2656.176
303.385, 2026.237
304.746, 1645.375
306.107, 1431.565
307.468, 1250.786
308.829, 1285.010
310.189, 1088.222
311.549, 1095.409
312.909, 896.563
314.269, 740.681
315.629, 822.757
316.988, 638.789
318.347, 707.774
319.706, 646.686
321.065, 873.489
322.423, 1074.168
323.781, 1562.731
325.139, 2666.188
326.497, 4045.543
327.855, 6478.804
329.212, 6711.979
330.569, 5566.070
331.926, 3999.082
333.283, 2321.018
334.639, 1731.884
335.995, 1185.681
337.351, 911.411
338.707, 752.079
340.063, 552.686
341.418, 625.219
342.773, 476.641
344.128, 491.770
345.483, 585.453
346.837, 615.725
348.192, 768.594
349.546, 620.192
350.899, 659.690
352.253, 418.168
353.606, 380.634
354.960, 354.086
356.313, 222.521
357.665, 266.936
359.018, 103.325
360.370, 217.683
361.722, 100.019
363.074, 77.327
364.426, 117.609
365.777, 88.866
367.128, 43.094
368.479, 55.302
369.830, 48.479
371.181, 56.620
372.531, 14.248
373.881, 64.838
375.231, 9.904
376.581, 8.932
377.930, 37.918
379.280, 3.112
380.629, 39.814
381.977, 24.294
383.326, 38.547
384.674, 22.354
386.023, 24.130
387.370, 112.868
388.718, 37.724
390.066, 130.237
391.413, 18.571
392.760, 96.758
394.107, 155.067
395.454, 211.273
396.800, 338.532
398.146, 377.909
399.492, 423.811
400.838, 501.914
402.184, 415.576
403.529, 440.559
404.874, 306.591
406.219, 678.375
407.564, 757.642
408.908, 661.230
410.252, 397.583
411.596, 163.886
412.940, 117.139
414.284, 8.677
415.627, 13.444
416.970, 52.498
418.313, 88.520
419.656, 31.615
420.999, 113.777
422.341, 22.987
423.683, 42.503
425.025, 49.358
426.367, 17.725
427.708, 62.117
429.049, 68.455
430.390, 71.991
431.731, 15.473
433.072, 1.022
434.412, 52.507
435.752, 52.919
437.092, 43.725
438.432, 140.552
439.772, 81.792
441.111, 76.987
442.450, 112.142
443.789, 98.248
445.127, 238.330
446.466, 94.365
447.804, 207.381
449.142, 306.379
450.480, 232.362
451.817, 517.330
453.155, 509.287
454.492, 853.230
455.829, 892.148
457.166, 976.040
458.502, 1162.905
459.838, 873.741
461.175, 973.546
462.510, 931.322
463.846, 1074.063
465.181, 1233.771
466.517, 1309.445
467.852, 1777.084
469.186, 1923.688
470.521, 2845.258
471.855, 3624.791
473.190, 4913.289
474.523, 7281.753
475.857, 10119.182
477.191, 15156.575
478.524, 17413.934
479.857, 17161.258
481.190, 14578.545
482.523, 9605.799
483.855, 7533.020
485.187, 5213.207
486.519, 4346.362
487.851, 3628.483
489.183, 2850.573
490.514, 2990.631
491.845, 2655.657
493.176, 2878.652
494.507, 3105.616
495.837, 3326.549
497.168, 4319.452
498.498, 4864.324
499.828, 6947.165
501.157, 8963.975
502.487, 12700.759
503.816, 19327.514
505.145, 25714.381
506.474, 36451.074
507.802, 36437.945
509.131, 32484.600
510.459, 25841.230
511.787, 16587.959
513.115, 12974.553
514.442, 8891.477
515.770, 6817.921
517.097, 5673.857
518.424, 4109.148
519.750, 3809.161
521.077, 2952.238
522.403, 2698.182
523.729, 2239.063
525.055, 1820.517
526.381, 1961.281
527.706, 1507.473
529.031, 1480.862
530.356, 1332.125
531.681, 1199.649
533.006, 1167.845
534.330, 914.119
535.654, 1020.999
536.978, 864.658
538.302, 764.361
539.625, 884.363
540.949, 657.487
542.272, 737.031
543.595, 626.104
544.917, 624.226
546.240, 618.742
547.562, 578.958
548.884, 612.724
550.206, 530.681
551.527, 526.196
552.849, 452.005
554.170, 343.660
555.491, 473.759
556.812, 380.126
558.132, 399.829
559.453, 442.084
560.773, 342.018
562.093, 497.491
563.412, 332.887
564.732, 409.497
566.051, 437.916
567.370, 411.360
568.689, 524.763
570.008, 469.147
571.326, 497.350
572.644, 620.134
573.963, 632.076
575.280, 943.369
576.598, 958.734
577.915, 1249.575
579.233, 1289.258
580.550, 1135.916
581.866, 1098.197
583.183, 724.195
584.499, 741.971
585.815, 499.387
587.131, 430.149
588.447, 422.608
589.763, 299.753
591.078, 344.237
592.393, 262.171
593.708, 151.534
595.022, 301.869
596.337, 188.782
597.651, 260.462
598.965, 144.887
600.279, 206.281
601.593, 325.814
602.906, 117.280
604.219, 184.320
605.532, 233.751
606.845, 152.646
608.158, 235.649
609.470, 123.631
610.782, 257.610
612.094, 183.590
613.406, 167.559
614.718, 268.531
616.029, 175.491
617.340, 302.439
618.651, 217.384
619.962, 361.318
621.272, 353.240
622.582, 310.158
623.892, 574.065
625.202, 430.966
626.512, 683.856
627.821, 774.734
629.131, 801.602
630.440, 1183.460
631.749, 1110.306
633.057, 1317.143
634.366, 1175.968
635.674, 1088.783
636.982, 1069.589
638.290, 754.398
639.597, 857.198
640.905, 984.988
642.212, 874.769
643.519, 1336.540
644.825, 1239.301
646.132, 1528.054
647.438, 1468.797
648.744, 1243.532
650.050, 1274.257
651.356, 710.974
652.662, 831.682
653.967, 563.381
655.272, 418.072
656.577, 437.755
657.882, 234.430
659.186, 290.096
660.490, 260.755
661.794, 63.406
663.098, 315.048
664.402, 50.682
665.705, 169.307
667.009, 162.924
668.312, 65.535
669.614, 157.136
670.917, 8.731
672.219, 165.315
673.522, 77.893
674.824, 32.465
676.125, 146.031
677.427, 24.597
678.728, 96.156
680.030, 34.714
681.331, 4.272
682.631, 189.826
683.932, 48.620
685.232, 50.909
686.532, 44.439
687.832, 81.028
689.132, 86.461
690.432, 43.032
691.731, 40.449
693.030, 78.953
694.329, 58.532
695.628, 55.952
696.926, 9.449
698.224, 86.949
699.522, 9.468
700.820, 25.011
702.118, 35.500
703.415, 48.982
704.713, 61.504
706.010, 27.005
707.307, 96.535
708.603, 64.889
709.900, 48.688
711.196, 0.703
712.492, 32.084
713.788, 113.542
715.083, 96.762
716.379, 83.941
717.674, 47.300
718.969, 72.534
720.264, 59.107
721.558, 128.076
722.853, 23.116
724.147, 127.034
725.441, 118.176
726.735, 29.312
728.028, 159.440
729.322, 40.565
730.615, 48.852
731.908, 138.665
733.201, 62.775
734.493, 207.336
735.785, 47.454
737.078, 65.254
738.370, 148.396
739.661, 29.546
740.953, 159.705
742.244, 149.867
743.535, 172.726
744.826, 236.898
746.117, 86.087
747.407, 266.278
748.698, 163.469
749.988, 235.671
751.278, 263.870
752.567, 234.079
753.857, 461.283
755.146, 350.486
756.435, 380.986
757.724, 674.182
759.013, 583.360
760.301, 1101.547
761.590, 1196.732
762.878, 1608.912
764.165, 1676.087
765.453, 1158.257
766.741, 1202.426
768.028, 851.586
769.315, 668.270
770.602, 806.419
771.888, 646.563
773.175, 849.613
774.461, 844.747
775.747, 782.875
777.033, 827.639
778.319, 443.758
779.604, 622.944
780.889, 342.053
782.174, 286.156
783.459, 409.254
784.744, 179.349
786.028, 345.438
787.312, 295.522
788.596, 136.602
789.880, 349.677
791.164, 107.747
792.447, 281.977
793.730, 252.039
795.013, 189.095
796.296, 357.147
797.579, 183.196
798.861, 308.239
800.143, 304.279
801.425, 234.313
802.707, 462.345
803.989, 411.371
805.270, 585.394
806.551, 662.413
807.832, 748.428
809.113, 1228.438
810.394, 1369.446
811.674, 2053.449
812.954, 2669.448
814.234, 3001.444
815.514, 2971.311
816.794, 2838.283
818.073, 2328.270
819.352, 1835.060
820.631, 1142.039
821.910, 1063.014
823.189, 643.863
824.467, 586.833
825.745, 640.441
827.023, 317.404
828.301, 535.300
829.578, 458.006
830.856, 263.960
832.133, 419.631
833.410, 171.580
834.687, 292.291
835.963, 429.874
837.240, 198.815
838.516, 357.529
839.792, 124.305
841.068, 328.054
842.343, 326.695
843.618, 91.618
844.894, 328.621
846.169, 220.359
847.443, 132.252
848.718, 279.246
849.992, 56.042
851.266, 177.642
852.540, 175.557
853.814, 78.158
855.088, 290.200
856.361, 69.909
857.634, 211.424
858.907, 154.243
860.180, 140.117
861.453, 334.617
862.725, 247.417
863.997, 287.939
865.269, 193.324
866.541, 255.024
867.812, 132.531
869.084, 22.322
870.355, 157.571
871.626, 157.350
872.897, 48.763
874.167, 193.917
875.438, 42.194
876.708, 135.645
877.978, 168.513
879.248, 25.382
880.517, 234.046
881.787, 69.921
883.056, 30.356
884.325, 198.381
885.594, 73.757
886.862, 230.343
888.130, 89.168
889.399, 29.141
890.667, 220.607
891.934, 24.423
893.202, 207.030
894.469, 210.849
895.737, 30.303
897.004, 301.532
898.270, 61.369
899.537, 173.208
900.803, 230.048
902.070, 120.891
903.336, 166.735
904.601, 168.582
905.867, 137.430
907.132, 196.281
908.398, 3.867
909.663, 207.984
910.928, 193.836
912.192, 60.715
913.457, 317.595
914.721, 5.478
915.985, 163.363
917.249, 113.249
918.512, 55.862
919.776, 249.002
921.039, 65.131
922.302, 141.707
923.565, 259.548
924.827, 37.608
926.090, 241.220
927.352, 56.052
928.614, 33.114
929.876, 190.707
931.138, 22.469
932.399, 210.349
933.660, 119.169
934.922, 49.992
936.182, 227.820
937.443, 9.650
938.704, 175.483
939.964, 240.319
941.224, 19.159
942.484, 233.005
943.744, 62.146
945.003, 134.678
946.262, 140.506
947.521, 39.337
948.780, 215.173
950.039, 154.012
951.298, 287.855
952.556, 325.705
953.814, 54.559
955.072, 210.417
956.330, 207.278
957.587, 119.144
958.845, 355.013
960.102, 132.886
961.359, 208.763
962.615, 376.644
963.872, 57.528
965.128, 371.417
966.384, 191.323
967.640, 211.232
968.896, 388.146
970.152, 100.080
971.407, 460.017
972.662, 362.960
973.917, 344.906
975.172, 613.858
976.427, 432.814
977.681, 638.777
978.935, 705.744
980.189, 393.715
981.443, 559.692
982.697, 256.675
983.950, 197.663
985.203, 387.655
986.456, 69.656
987.709, 259.662
988.962, 152.673
990.214, 159.703
991.467, 231.740
992.719, 40.781
993.971, 74.851
995.222, 154.925
996.474, 66.973
997.725, 289.108
998.976, 77.193
1000.227, 248.302
1001.478, 450.417
1002.728, 184.537
1003.978, 454.664
1005.229, 265.796
1006.479, 287.943
1007.728, 410.097
1008.978, 176.271
1010.227, 318.463
1011.476, 453.670
1012.725, 185.910
1013.974, 481.156
1015.223, 356.422
1016.471, 322.699
1017.719, 596.988
1018.967, 340.314
1020.215, 597.660
1021.462, 634.116
1022.710, 614.497
1023.957, 1211.752
1025.204, 1133.729
1026.451, 1370.680
1027.697, 1606.822
1028.944, 1556.259
1030.190, 2271.712
1031.436, 2173.749
1032.682, 2291.213
1033.928, 2376.828
1035.173, 1568.306
1036.418, 1654.362
1037.663, 1104.870
1038.908, 869.384
1040.153, 1016.247
1041.398, 595.881
1042.642, 612.412
1043.886, 605.985
1045.130, 345.360
1046.374, 508.259
1047.617, 427.930
1048.860, 263.524
1050.104, 479.125
1051.347, 174.908
1052.589, 361.520
1053.832, 315.154
1055.074, 164.956
1056.316, 380.601
1057.558, 117.324
1058.800, 76.682
1060.042, 436.347
1061.283, 131.543
1062.524, 408.231
1063.765, 313.924
1065.006, 195.720
1066.247, 528.421
1067.487, 229.140
1068.728, 639.858
1069.968, 443.585
1071.208, 239.918
1072.447, 464.666
1073.687, 328.417
1074.926, 307.330
1076.165, 594.092
1077.404, 232.860
1078.643, 570.993
1079.881, 558.769
1081.120, 366.746
1082.358, 755.539
1083.596, 498.336
1084.834, 745.293
1086.071, 948.116
1087.309, 724.944
1088.546, 1166.776
1089.783, 1149.612
1091.020, 1275.931
1092.256, 1877.775
1093.493, 2125.459
1094.729, 2567.868
1095.965, 3669.413
1097.201, 3106.273
1098.436, 3961.140
1099.672, 3487.011
1100.907, 3533.773
1102.142, 3489.653
1103.377, 2580.536
1104.612, 2804.423
1105.846, 2490.314
1107.081, 2005.209
1108.315, 2254.173
1109.549, 1708.075
1110.782, 1783.981
1112.016, 1960.893
1113.249, 1729.808
1114.483, 1989.562
1115.716, 1851.483
1116.948, 1649.408
1118.181, 1815.792
1119.413, 1302.723
1120.646, 1323.657
1121.878, 1259.595
1123.110, 821.536
1124.341, 1057.663
1125.573, 826.610
1126.804, 514.560
1128.035, 773.641
1129.266, 281.596
1130.497, 485.790
1131.727, 468.750
1132.957, 224.713
1134.188, 443.075
1135.418, 303.044
1136.647, 137.017
1137.877, 477.229
1139.106, 150.205
1140.335, 362.181
1141.564, 359.163
1142.793, 131.144
1144.022, 412.366
1145.250, 95.344
1146.479, 219.331
1147.707, 389.558
1148.934, 116.546
1150.162, 395.535
1151.390, 414.888
1152.617, 182.877
1153.844, 494.180
1155.071, 190.169
1156.298, 222.158
1157.524, 492.259
1158.751, 55.247
1159.977, 224.234
1161.203, 330.534
1162.428, 19.519
1163.654, 368.240
1164.879, 90.357
1166.105, 181.338
1167.330, 335.846
1168.555, 27.177
1169.779, 212.788
1171.004, 169.211
1172.228, 50.815
1173.452, 298.188
1174.676, 71.459
1175.900, 72.417
1177.123, 255.078
1178.346, 14.970
1179.570, 281.973
1180.793, 197.446
1182.015, 20.391
1183.238, 341.332
1184.460, 105.416
1185.683, 67.370
1186.905, 237.521
1188.126, 0.499
1189.348, 195.447
1190.569, 95.967
1191.791, 112.093
1193.012, 273.785
1194.233, 16.118
1195.453, 78.994
1196.674, 233.284
1197.894, 0.498
1199.114, 239.356
1200.334, 114.514
1201.554, 5.361
1202.774, 394.206
1203.993, 30.564
1205.212, 121.398
1206.431, 318.229
1207.650, 85.545
1208.869, 288.228
1210.087, 155.243
1211.305, 31.225
1212.524, 406.980
1213.741, 138.672
1214.959, 119.416
1216.177, 357.169
1217.394, 34.798
1218.611, 302.553
1219.828, 230.406
1221.045, 50.499
1222.261, 402.244
1223.478, 132.235
1224.694, 164.968
1225.910, 272.702
1227.126, 9.338
1228.342, 264.059
1229.557, 286.777
1230.772, 44.538
1231.987, 414.232
1233.202, 171.230
1234.417, 147.919
1235.631, 449.603
1236.846, 4.283
1238.060, 383.958
1239.274, 368.629
1240.488, 26.308
1241.701, 364.982
1242.915, 93.653
1244.128, 126.017
1245.341, 406.681
1246.554, 0.488
1247.767, 269.151
1248.979, 279.769
1250.191, 126.576
1251.403, 358.186
1252.615, 167.791
1253.827, 79.697
1255.039, 417.291
1256.250, 140.878
1257.461, 248.791
1258.672, 298.369
1259.883, 28.946
1261.094, 378.597
1262.304, 243.134
1263.514, 38.134
1264.724, 445.375
1265.934, 126.877
1267.144, 255.583
1268.354, 331.056
1269.563, 62.522
1270.772, 335.336
1271.981, 296.777
1273.190, 78.446
1274.398, 394.851
1275.607, 54.249
1276.815, 130.962
1278.023, 384.327
1279.231, 22.682
1280.439, 339.721
1281.646, 258.060
1282.853, 58.392
1284.060, 317.777
1285.267, 210.037
1286.474, 126.007
1287.681, 328.243
1288.887, 14.559
1290.093, 250.045
1291.299, 332.219
1292.505, 64.360
1293.711, 376.715
1294.916, 184.835
1296.121, 36.924
1297.327, 454.979
1298.531, 50.023
1299.736, 195.055
1300.941, 287.075
1302.145, 26.931
1303.349, 321.039
1304.553, 229.964
1305.757, 53.876
1306.961, 372.776
1308.164, 14.665
1309.367, 5.540
1310.570, 417.389
1311.773, 32.774
1312.976, 243.035
1314.178, 245.750
1315.381, 31.529
1316.583, 342.294
1317.785, 118.600
1318.987, 57.333
1320.188, 435.330
1321.390, 20.967
1322.591, 176.707
1323.792, 258.785
1324.993, 24.424
1326.193, 301.047
1327.394, 215.650
1328.594, 105.230
1329.794, 297.794
1330.994, 88.342
1332.194, 130.865
1333.394, 413.334
1334.593, 114.177
1335.792, 311.257
1336.991, 265.881
1338.190, 31.288
1339.389, 395.600
1340.587, 35.980
1341.786, 50.348
1342.984, 312.524
1344.182, 49.134
1345.379, 202.178
1346.577, 288.280
1347.774, 4.430
1348.972, 358.767
1350.169, 178.410
1351.365, 34.346
1352.562, 288.361
1353.759, 73.915
1354.955, 81.116
1356.151, 266.375
1357.347, 29.436
1358.543, 138.735
1359.738, 287.467
1360.934, 28.368
1362.129, 398.620
1363.324, 112.171
1364.519, 53.252
1365.713, 461.242
1366.908, 77.766
1368.102, 221.750
1369.296, 306.718
1370.490, 12.369
1371.684, 393.165
1372.877, 275.399
1374.071, 45.924
1375.264, 483.042
1376.457, 69.198
1377.650, 174.342
1378.843, 449.985
1380.035, 160.849
1381.227, 185.953
1382.419, 656.038
1383.611, 214.167
1384.803, 408.217
1385.995, 321.254
1387.186, 19.206
1388.377, 490.212
1389.568, 104.053
1390.759, 173.002
1391.950, 355.023
1393.140, 100.905
1394.331, 352.562
1395.521, 278.410
1396.711, 76.092
1397.900, 413.628
1399.090, 223.949
1400.279, 72.722
1401.469, 530.187
1402.658, 125.925
1403.847, 239.846
1405.035, 398.521
1406.224, 104.877
1407.412, 290.053
1408.600, 437.271
1409.788, 104.884
1410.976, 506.330
1412.164, 209.451
1413.351, 66.973
1414.538, 555.913
1415.725, 88.458
1416.912, 209.233
1418.099, 466.579
1419.285, 73.552
1420.472, 366.992
1421.658, 335.559
1422.844, 16.899
1424.030, 443.039
1425.215, 378.012
1426.401, 110.927
1427.586, 546.098
1428.771, 5.581
1429.956, 305.523
1431.141, 508.601
1432.325, 34.661
1433.510, 395.131
1434.694, 281.278
1435.878, 76.824
1437.062, 440.394
1438.245, 285.049
1439.429, 129.631
1440.612, 572.189
1441.795, 285.257
1442.978, 327.470
1444.161, 568.432
1445.343, 235.026
1446.526, 462.479
1447.708, 445.271
1448.890, 125.625
1450.072, 535.915
1451.253, 355.156
1452.435, 182.800
1453.616, 610.489
1454.797, 275.578
1455.978, 412.184
1457.159, 510.433
1458.340, 157.324
1459.520, 439.330
1460.700, 479.794
1461.880, 45.967
1463.060, 649.571
1464.240, 336.571
1465.420, 173.106
1466.599, 639.903
1467.778, 261.380
1468.957, 308.862
1470.136, 642.154
1471.315, 120.385
1472.493, 362.486
1473.671, 385.532
1474.849, 89.566
1476.027, 482.054
1477.205, 289.749
1478.383, 166.389
1479.560, 522.052
1480.737, 212.729
1481.914, 212.547
1483.091, 513.479
1484.268, 109.378
1485.444, 218.313
1486.621, 596.244
1487.797, 17.797
1488.973, 485.202
1490.149, 421.764
1491.324, 20.823
1492.500, 574.983
1493.675, 210.308
1494.850, 35.790
1496.025, 595.044
1497.200, 81.990
1498.374, 233.110
1499.548, 457.396
1500.723, 11.852
1501.897, 381.514
1503.071, 423.398
1504.244, 28.367
1505.418, 567.485
1506.591, 333.882
1507.764, 36.841
1508.937, 511.258
1510.110, 190.205
1511.282, 152.077
1512.455, 503.932
1513.627, 1.323
1514.799, 202.103
1515.971, 0.000
##END=



