##NAMES=Albite
##RRUFFID=R050402
##IDEAL CHEMISTRY=NaAlSi_3_O_8_
##LOCALITY=Urbano mine, Golconda District, Brazil
##OWNER=RRUFF
##SOURCE=Bob Downs
##DESCRIPTION=Colorless tabular single crystals associated with fluorapatite R050401
##STATUS=The identification of this mineral has been confirmed by X-ray diffraction and chemical analysis
##URL=rruff.info/R050402
##MEASURED CHEMISTRY=Na_1.00_Al_1.00_Si_3.00_O_8_
##PIN_ID=M00139
##ORIENTATION=Laser parallel to c* (0 0 1). Fiducial mark perpendicular to laser is parallel to a [1 0 0]
81.13100, 0.0000000E+00
82.36700, 14.00439
83.60200, 452.3203
84.83700, 806.7754
86.07200, 1291.544
87.30800, 2236.393
88.54200, 3343.548
89.77700, 4356.024
91.01200, 2916.799
92.24600, 1941.453
93.48000, 991.3672
94.71400, 504.4414
95.94800, 280.8022
97.18200, 24.25586
98.41600, 2.310547
99.64900, 70.83447
100.8830, 50.81104
102.1160, 5.334961
103.3490, 214.4561
104.5820, 496.9219
105.8150, 736.5083
107.0470, 1323.021
108.2800, 1959.282
109.5120, 2817.142
110.7440, 3783.464
111.9760, 4701.128
113.2080, 6313.027
114.4400, 7823.066
115.6710, 8650.155
116.9030, 8055.253
118.1340, 6327.354
119.3650, 4501.494
120.5960, 3015.697
121.8270, 2071.832
123.0580, 1450.755
124.2880, 979.4019
125.5190, 700.7139
126.7490, 420.6377
127.9790, 367.1294
129.2090, 311.1479
130.4390, 353.6562
131.6680, 420.6226
132.8980, 474.6851
134.1270, 448.8174
135.3560, 700.9932
136.5850, 787.5264
137.8140, 967.3950
139.0430, 1374.580
140.2710, 1763.063
141.5000, 1940.830
142.7280, 2634.863
143.9560, 3284.148
145.1840, 4359.674
146.4120, 5494.425
147.6390, 6999.391
148.8670, 8430.562
150.0940, 10140.01
151.3210, 11851.87
152.5490, 13332.35
153.7750, 12772.67
155.0020, 10420.80
156.2290, 7532.149
157.4550, 5252.001
158.6810, 3569.959
159.9080, 2770.219
161.1340, 2444.516
162.3590, 2558.825
163.5850, 2752.285
164.8110, 2926.809
166.0360, 3193.320
167.2610, 3569.818
168.4860, 3988.308
169.7110, 5112.800
170.9360, 6222.296
172.1610, 7369.801
173.3850, 7664.322
174.6100, 7150.859
175.8340, 6804.417
177.0580, 6273.996
178.2820, 6201.599
179.5050, 6560.225
180.7290, 6945.875
181.9520, 7798.551
183.1760, 8583.254
184.3990, 9545.981
185.6220, 10477.74
186.8450, 10935.51
188.0670, 11070.32
189.2900, 10690.14
190.5120, 9957.994
191.7340, 8832.868
192.9560, 7685.761
194.1780, 6616.677
195.4000, 6029.610
196.6220, 5414.560
197.8430, 4988.526
199.0640, 4997.507
200.2860, 4910.499
201.5070, 5121.507
202.7270, 5688.522
203.9480, 6010.550
205.1690, 6587.587
206.3890, 7903.631
207.6090, 9732.684
208.8290, 11773.74
210.0490, 13655.80
211.2690, 14360.87
212.4890, 13719.94
213.7080, 11619.01
214.9280, 8880.081
216.1470, 6542.152
217.3660, 4581.017
218.5850, 3243.410
219.8030, 2348.745
221.0220, 1810.200
222.2400, 1245.590
223.4590, 976.3608
224.6770, 712.3398
225.8950, 542.5645
227.1120, 471.2202
228.3300, 340.1802
229.5480, 177.1470
230.7650, 161.7271
231.9820, 76.37012
233.1990, 75.28613
234.4160, 2.281738
235.6330, 68.05811
236.8490, 80.20654
238.0660, 16.37207
239.2820, 1.395020
240.4980, 53.52002
241.7140, 93.02246
242.9300, 183.8228
244.1460, 195.1655
245.3610, 463.8564
246.5770, 520.2129
247.7920, 955.4023
249.0070, 1271.750
250.2220, 1805.315
251.4370, 2421.900
252.6510, 3003.613
253.8660, 3369.444
255.0800, 2968.386
256.2940, 2380.430
257.5080, 1762.571
258.7220, 1262.801
259.9360, 1204.115
261.1490, 1097.508
262.3630, 802.9736
263.5760, 889.5088
264.7890, 949.1064
266.0020, 1320.764
267.2150, 1546.475
268.4270, 1976.235
269.6400, 2600.040
270.8520, 2823.888
272.0640, 2774.774
273.2760, 2734.697
274.4880, 2295.653
275.7000, 1881.639
276.9120, 1643.654
278.1230, 1478.694
279.3340, 1461.760
280.5450, 1586.243
281.7560, 1778.953
282.9670, 2227.077
284.1780, 2815.219
285.3880, 3508.375
286.5980, 4632.546
287.8090, 6033.729
289.0190, 7823.920
290.2290, 9911.123
291.4380, 11863.33
292.6480, 12620.55
293.8570, 12211.78
295.0670, 10434.00
296.2760, 8462.235
297.4850, 6346.468
298.6930, 4760.698
299.9020, 3507.922
301.1110, 2632.138
302.3190, 1960.341
303.5270, 1566.517
304.7350, 1280.678
305.9430, 971.8037
307.1510, 798.9131
308.3580, 619.0059
309.5660, 626.0820
310.7730, 556.1421
311.9800, 515.1841
313.1870, 368.2095
314.3940, 390.2163
315.6010, 292.2061
316.8070, 374.1777
318.0130, 354.1313
319.2200, 407.0664
320.4260, 433.9824
321.6310, 585.8799
322.8370, 812.7607
324.0430, 1125.623
325.2480, 1489.465
326.4540, 2222.286
327.6590, 3231.088
328.8640, 4330.869
330.0680, 5328.629
331.2730, 5396.370
332.4780, 4727.088
333.6820, 3730.784
334.8860, 2529.459
336.0900, 1764.111
337.2940, 1229.740
338.4980, 880.3472
339.7010, 667.9307
340.9050, 544.4912
342.1080, 385.0278
343.3110, 301.5410
344.5140, 170.0293
345.7170, 138.4390
346.9200, 165.9341
348.1220, 105.3496
349.3240, 146.7397
350.5270, 139.1055
351.7290, 26.44531
352.9310, 1.750000
354.1320, 47.01416
355.3340, 90.24609
356.5350, 26.54980
357.7370, 106.6045
358.9380, 58.26709
360.1390, 11.19922
361.3400, 93.17871
362.5400, 1.761230
363.7410, 77.36768
364.9410, 89.58984
366.1410, 64.91650
367.3410, 194.3750
368.5410, 135.9917
369.7410, 85.77344
370.9400, 141.7559
372.1400, 189.9253
373.3390, 115.2222
374.5380, 90.61475
375.7370, 141.0967
376.9360, 140.6982
378.1350, 79.10889
379.3330, 44.00537
380.5310, 58.90381
381.7300, 119.8296
382.9280, 11.72168
384.1260, 61.52100
385.3230, 17.77881
386.5210, 14.88867
387.7180, 41.49902
388.9160, 27.02588
390.1130, 20.50244
391.3100, 108.9277
392.5060, 169.3223
393.7030, 165.6958
394.9000, 255.0483
396.0960, 524.3794
397.2920, 558.6880
398.4880, 766.9839
399.6840, 879.2656
400.8800, 1118.547
402.0750, 1175.824
403.2710, 1026.099
404.4660, 1166.350
405.6610, 1258.578
406.8560, 1734.793
408.0510, 2302.991
409.2450, 2717.181
410.4400, 2744.366
411.6340, 2564.547
412.8280, 2364.718
414.0220, 2540.872
415.2160, 3137.017
416.4100, 4200.141
417.6030, 4966.242
418.7970, 4796.316
419.9900, 3875.363
421.1830, 2700.386
422.3760, 1817.381
423.5690, 1247.366
424.7610, 876.3267
425.9540, 748.2598
427.1460, 495.1885
428.3380, 445.0996
429.5300, 399.9790
430.7220, 400.8550
431.9140, 355.5518
433.1050, 334.5190
434.2970, 312.3062
435.4880, 295.0610
436.6790, 295.7822
437.8700, 420.4712
439.0610, 361.1260
440.2510, 501.7485
441.4420, 501.3369
442.6320, 579.8926
443.8220, 722.4141
445.0120, 821.9023
446.2020, 954.3564
447.3910, 1179.778
448.5810, 1402.166
449.7700, 1707.520
450.9600, 2134.841
452.1490, 2728.128
453.3370, 3577.381
454.5260, 4398.602
455.7150, 5561.790
456.9030, 6265.944
458.0910, 6735.063
459.2800, 6445.150
460.4670, 5600.201
461.6550, 4747.223
462.8430, 4065.207
464.0300, 3644.161
465.2180, 3417.651
466.4050, 3309.537
467.5920, 3588.389
468.7790, 4047.211
469.9650, 4872.997
471.1520, 5836.750
472.3380, 7188.469
473.5250, 8986.280
474.7110, 11487.93
475.8970, 15211.55
477.0820, 19638.14
478.2680, 25023.69
479.4540, 29462.21
480.6390, 31093.70
481.8240, 29155.15
483.0090, 24573.57
484.1940, 18864.96
485.3780, 14338.31
486.5630, 10878.64
487.7470, 8421.928
488.9320, 7035.184
490.1160, 6109.408
491.3000, 5338.600
492.4830, 5082.761
493.6670, 5059.888
494.8500, 5371.309
496.0340, 5622.315
497.2170, 6461.314
498.4000, 7693.270
499.5820, 9182.227
500.7650, 11292.16
501.9480, 14242.89
503.1300, 18160.36
504.3120, 23822.59
505.4940, 30936.57
506.6760, 38715.51
507.8580, 45741.53
509.0390, 48084.96
510.2210, 45743.13
511.4020, 38833.84
512.5830, 30733.57
513.7640, 23341.66
514.9450, 17376.63
516.1250, 13365.17
517.3060, 10609.16
518.4860, 8379.870
519.6660, 6907.513
520.8460, 5835.016
522.0260, 4973.640
523.2060, 4212.240
524.3850, 3731.033
525.5650, 3276.003
526.7440, 2923.320
527.9230, 2601.307
529.1020, 2337.912
530.2810, 2089.298
531.4590, 1857.367
532.6380, 1739.352
533.8160, 1592.605
534.9940, 1540.152
536.1720, 1454.932
537.3500, 1309.386
538.5270, 1205.704
539.7050, 1201.301
540.8820, 1125.769
542.0590, 1114.436
543.2360, 967.2866
544.4130, 1018.830
545.5900, 938.3672
546.7660, 927.4800
547.9430, 819.6538
549.1190, 788.0195
550.2950, 718.3862
551.4710, 668.9092
552.6470, 569.6318
553.8220, 682.6128
554.9980, 693.6685
556.1730, 721.2480
557.3480, 501.7720
558.5230, 549.5049
559.6980, 605.2295
560.8730, 551.5112
562.0470, 588.9355
563.2220, 466.5645
564.3960, 606.1768
565.5700, 510.5527
566.7440, 473.1899
567.9170, 493.2681
569.0910, 521.6167
570.2640, 585.4414
571.4380, 701.6074
572.6110, 810.3896
573.7840, 963.8037
574.9570, 1152.610
576.1290, 1431.339
577.3020, 1546.052
578.4740, 1906.747
579.6460, 2175.424
580.8180, 2317.086
581.9900, 2142.729
583.1620, 1799.356
584.3330, 1549.968
585.5040, 1261.562
586.6760, 1107.139
587.8470, 814.7017
589.0180, 674.2471
590.1880, 501.7764
591.3590, 402.2900
592.5290, 392.7876
593.7000, 317.2700
594.8700, 265.7363
596.0400, 320.1880
597.2090, 136.6240
598.3790, 259.0454
599.5490, 179.4512
600.7180, 272.8423
601.8870, 244.2188
603.0560, 153.5811
604.2250, 145.9292
605.3940, 59.26367
606.5620, 129.5801
607.7300, 173.8813
608.8990, 111.1689
610.0670, 240.4429
611.2350, 152.7026
612.4020, 281.9497
613.5700, 90.18213
614.7370, 168.4004
615.9050, 127.6055
617.0720, 172.8003
618.2390, 124.9917
619.4060, 104.1812
620.5720, 125.3579
621.7390, 151.5259
622.9050, 180.6807
624.0710, 267.8242
625.2370, 327.9556
626.4030, 358.0742
627.5690, 332.1816
628.7340, 417.2783
629.9000, 425.3633
631.0650, 390.4355
632.2300, 411.5068
633.3950, 451.5820
634.5600, 400.6475
635.7240, 448.7129
636.8890, 492.7822
638.0530, 338.8486
639.2170, 473.9033
640.3810, 577.9727
641.5450, 665.0322
642.7080, 764.3975
643.8720, 784.2197
645.0350, 908.3516
646.1980, 1068.505
647.3610, 1103.442
648.5240, 1089.904
649.6870, 1109.166
650.8490, 985.4912
652.0120, 918.8633
653.1740, 747.2812
654.3360, 583.7500
655.4980, 492.2812
656.6600, 325.8574
657.8210, 243.4893
658.9830, 154.1738
660.1440, 131.9102
661.3050, 241.6836
662.4660, 167.4824
663.6270, 157.3135
664.7870, 168.1914
665.9480, 132.0820
667.1080, 175.0059
668.2680, 14.95117
669.4280, 65.90137
670.5880, 10.12012
671.7480, 3.852539
672.9070, 67.82715
674.0670, 39.79980
675.2260, 18.76172
676.3850, 48.71094
677.5440, 62.64941
678.7030, 20.42090
679.8610, 18.52148
681.0200, 69.65039
682.1780, 56.83691
683.3360, 68.07227
684.4940, 32.63672
685.6520, 3.334961
686.8090, 30.98535
687.9670, 18.34082
689.1240, 50.48242
690.2810, 69.15723
691.4380, 72.64258
692.5950, 45.18652
693.7520, 30.77246
694.9080, 55.39453
696.0650, 7.063477
697.2210, 10.75488
698.3770, 8.529297
699.5330, 30.79785
700.6880, 6.943359
701.8440, 9.294922
702.9990, 58.48145
704.1550, 7.305664
705.3100, 5.846680
706.4650, 83.01367
707.6190, 33.93555
708.7740, 65.10742
709.9290, 91.85547
711.0830, 64.11621
712.2370, 10.91895
713.3910, 47.02441
714.5450, 82.96191
715.6980, 104.8936
716.8520, 160.9980
718.0050, 191.1289
719.1580, 243.6533
720.3110, 254.5625
721.4640, 272.2949
722.6170, 270.3643
723.7700, 248.2578
724.9220, 255.1465
726.0740, 231.0303
727.2260, 227.9092
728.3780, 191.7354
729.5300, 126.6543
730.6810, 125.5186
731.8330, 148.3799
732.9840, 151.2363
734.1350, 219.0879
735.2860, 180.9375
736.4370, 284.7812
737.5880, 204.6211
738.7380, 289.4570
739.8880, 293.2891
741.0390, 310.1182
742.1890, 424.9619
743.3380, 309.0498
744.4880, 619.3477
745.6380, 497.1621
746.7870, 704.9736
747.9360, 712.7793
749.0850, 821.5840
750.2340, 852.3867
751.3830, 1114.187
752.5310, 1235.859
753.6800, 1539.653
754.8280, 2005.019
755.9760, 2323.938
757.1240, 2951.050
758.2720, 3770.833
759.4190, 4709.322
760.5670, 6062.103
761.7140, 7613.878
762.8610, 9417.698
764.0080, 10693.47
765.1550, 10932.24
766.3020, 10182.04
767.4480, 8610.811
768.5950, 6817.570
769.7410, 5099.232
770.8870, 4037.771
772.0330, 3137.527
773.1780, 2498.608
774.3240, 2146.362
775.4690, 1665.112
776.6140, 1404.861
777.7590, 1346.609
778.9040, 1068.354
780.0490, 966.1396
781.1940, 974.1318
782.3380, 785.8711
783.4820, 644.9316
784.6260, 729.6670
785.7700, 641.4004
786.9140, 642.8828
788.0580, 704.6104
789.2010, 561.3359
790.3450, 518.2744
791.4880, 639.9941
792.6310, 627.7100
793.7730, 605.4219
794.9160, 626.2500
796.0590, 640.9531
797.2010, 834.6533
798.3430, 812.3486
799.4850, 962.0400
800.6270, 1042.727
801.7690, 1177.409
802.9100, 1271.086
804.0520, 1517.758
805.1930, 1722.426
806.3340, 2122.402
807.4750, 2758.026
808.6160, 3271.019
809.7560, 4076.725
810.8970, 5206.352
812.0370, 6679.700
813.1770, 8343.727
814.3170, 10003.18
815.4570, 11711.75
816.5960, 12340.02
817.7360, 11755.40
818.8750, 10459.56
820.0140, 8334.521
821.1530, 6336.769
822.2920, 4833.005
823.4310, 3694.646
824.5690, 2994.209
825.7070, 2189.563
826.8460, 1885.898
827.9840, 1601.058
829.1220, 1370.002
830.2590, 1116.670
831.3970, 1089.247
832.5340, 966.2832
833.6710, 865.3574
834.8080, 754.2070
835.9450, 698.7090
837.0820, 565.3184
838.2190, 605.4287
839.3550, 620.3193
840.4910, 578.2109
841.6270, 524.3242
842.7630, 420.1611
843.8990, 376.5439
845.0350, 334.8779
846.1700, 331.6299
847.3060, 291.4951
848.4410, 308.1152
849.5760, 311.0908
850.7100, 404.6572
851.8450, 209.2910
852.9800, 136.9268
854.1140, 301.5664
855.2480, 260.2119
856.3820, 86.86133
857.5160, 225.5156
858.6500, 182.1738
859.7830, 194.8369
860.9170, 68.50488
862.0500, 118.1768
863.1830, 216.8555
864.3160, 58.53711
865.4480, 104.2266
866.5810, 130.9180
867.7130, 138.6172
868.8460, 144.3213
869.9780, 145.5107
871.1100, 112.7451
872.2410, 123.4648
873.3730, 96.19043
874.5050, 64.92188
875.6360, 65.65918
876.7670, 5.403320
877.8980, 2.152344
879.0290, 7.093750
880.1590, 0.6630860
881.2900, 25.42773
882.4200, 11.19922
883.5500, 79.97754
884.6800, 25.76270
885.8100, 67.51367
886.9400, 53.35156
888.0690, 83.15625
889.1990, 35.96875
890.3280, 16.21289
891.4570, 52.39258
892.5860, 56.42578
893.7140, 33.20703
894.8430, 19.99316
895.9710, 52.80762
897.1000, 127.6172
898.2280, 0.4316410
899.3560, 96.25488
900.4830, 32.08301
901.6110, 0.9199220
902.7380, 109.7656
903.8660, 183.6191
904.9930, 48.52051
906.1200, 86.66797
907.2460, 161.1572
908.3730, 10.00781
909.5000, 39.83105
910.6260, 39.67773
911.7520, 49.53320
912.8780, 26.39648
914.0040, 155.2695
915.1290, 29.84961
916.2550, 7.962891
917.3800, 108.9297
918.5050, 59.16992
919.6300, 6.728516
920.7550, 114.6338
921.8800, 88.45020
923.0040, 116.4453
924.1290, 121.3496
925.2530, 57.73633
926.3770, 106.1650
927.5010, 39.07812
928.6250, 46.01367
929.7480, 97.03906
930.8720, 46.92969
931.9950, 109.9082
933.1180, 89.90039
934.2410, 90.90332
935.3640, 77.91699
936.4860, 38.93945
937.6090, 78.97266
938.7310, 142.0166
939.8530, 80.07031
940.9750, 123.1416
942.0970, 55.22559
943.2180, 164.3223
944.3400, 43.43750
945.4610, 154.5674
946.5820, 120.7090
947.7030, 111.8633
948.8240, 22.03125
949.9450, 81.21094
951.0650, 74.56348
952.1860, 99.61816
953.3060, 149.8564
954.4260, 213.1289
955.5460, 277.4346
956.6650, 228.7930
957.7850, 343.1650
958.9040, 177.5537
960.0230, 261.9678
961.1420, 326.4053
962.2610, 291.8740
963.3800, 437.3799
964.4990, 544.9277
965.6170, 378.5078
966.7350, 565.1406
967.8530, 675.8047
968.9710, 690.5059
970.0890, 860.2295
971.2070, 1001.969
972.3240, 1086.723
973.4410, 1422.497
974.5580, 1707.288
975.6750, 1875.111
976.7920, 2314.956
977.9090, 2530.818
979.0250, 2611.719
980.1410, 2667.059
981.2580, 2631.590
982.3740, 2411.574
983.4890, 2027.570
984.6050, 1711.590
985.7200, 1348.621
986.8360, 1148.668
987.9510, 853.7246
989.0660, 837.7959
990.1810, 612.8809
991.2950, 696.9775
992.4100, 480.0889
993.5240, 612.2129
994.6390, 471.3496
995.7530, 456.5010
996.8660, 438.6650
997.9800, 366.8408
999.0940, 560.0322
1000.207, 511.2354
1001.320, 577.4541
1002.433, 622.6846
1003.546, 832.9287
1004.659, 587.1865
1005.772, 709.4570
1006.884, 632.7422
1007.996, 588.0410
1009.108, 747.3535
1010.220, 813.6807
1011.332, 514.0195
1012.444, 743.3535
1013.555, 737.4551
1014.666, 960.7871
1015.777, 570.1807
1016.888, 606.5898
1017.999, 587.0137
1019.110, 584.4512
1020.220, 535.9014
1021.331, 550.3672
1022.441, 395.8457
1023.551, 259.3379
1024.661, 341.2715
1025.770, 518.6621
1026.880, 255.8730
1027.989, 394.4229
1029.098, 392.2793
1030.207, 489.8574
1031.316, 461.4521
1032.425, 427.0098
1033.533, 409.6338
1034.642, 371.2705
1035.750, 385.9355
1036.858, 420.7520
1037.966, 385.4326
1039.073, 536.2285
1040.181, 472.1621
1041.288, 504.8877
1042.396, 611.3018
1043.503, 580.0566
1044.610, 517.8271
1045.716, 462.6113
1046.823, 480.3125
1047.929, 647.2266
1049.036, 522.4404
1050.142, 538.0352
1051.248, 561.8945
1052.353, 423.3965
1053.459, 362.2842
1054.564, 457.1875
1055.670, 373.9795
1056.775, 254.9121
1057.880, 216.8594
1058.985, 299.6055
1060.089, 277.5820
1061.194, 319.8262
1062.298, 316.8340
1063.402, 263.3887
1064.506, 223.4238
1065.610, 123.3252
1066.713, 181.3887
1067.817, 139.4668
1068.920, 194.5605
1070.023, 142.6660
1071.126, 215.7871
1072.229, 179.9209
1073.332, 129.3047
1074.435, 201.4697
1075.537, 416.6484
1076.639, 361.8398
1077.741, 274.0469
1078.843, 462.2666
1079.945, 316.5000
1081.046, 456.7461
1082.148, 493.0068
1083.249, 623.2812
1084.350, 621.5684
1085.451, 566.8711
1086.551, 634.1885
1087.652, 695.5166
1088.752, 977.8779
1089.853, 966.2334
1090.953, 1150.601
1092.053, 1192.979
1093.152, 1400.371
1094.252, 1775.775
1095.351, 1993.191
1096.451, 2444.020
1097.550, 2810.776
1098.649, 3084.095
1099.748, 3177.187
1100.846, 3343.975
1101.945, 3048.458
1103.043, 2723.979
1104.141, 2371.482
1105.239, 2189.998
1106.337, 1941.521
1107.434, 1668.066
1108.532, 1521.021
1109.629, 1269.309
1110.726, 1233.882
1111.823, 1048.466
1112.920, 998.0596
1114.017, 845.6641
1115.113, 747.2773
1116.210, 848.9014
1117.306, 721.5322
1118.402, 689.1738
1119.498, 715.8242
1120.593, 704.4941
1121.689, 728.1768
1122.784, 809.8682
1123.879, 674.5674
1124.974, 531.2764
1126.069, 573.9932
1127.164, 553.7178
1128.259, 573.4570
1129.353, 428.2070
1130.447, 400.9658
1131.541, 284.7314
1132.635, 128.5068
1133.729, 181.2988
1134.822, 160.0996
1135.916, 174.9082
1137.009, 230.7520
1138.102, 89.60254
1139.195, 129.4775
1140.288, 90.36133
1141.380, 142.2520
1142.473, 97.15430
1143.565, 62.07715
1144.657, 94.01562
1145.749, 121.9639
1146.841, 187.9180
1147.932, 74.87988
1149.024, 4.848633
1150.115, 288.8242
1151.206, 215.8174
1152.297, 158.8203
1153.388, 157.8320
1154.479, 102.8574
1155.569, 88.31934
1156.659, 81.47070
1157.750, 56.03809
1158.839, 41.13281
1159.929, 31.23438
1161.019, 36.40527
1162.108, 38.46094
1163.198, 66.58301
1164.287, 48.71191
1165.376, 69.84766
1166.465, 5.010742
1167.553, 78.13379
1168.642, 40.28516
1169.730, 60.63770
1170.818, 197.8213
1171.906, 80.01855
1172.994, 167.2207
1174.082, 57.42871
1175.170, 252.6465
1176.257, 30.87305
1177.344, 146.1025
1178.431, 10.33691
1179.518, 29.42480
1180.605, 137.8145
1181.691, 65.06055
1182.778, 38.69043
1183.864, 42.55566
1184.950, 144.8066
1186.036, 11.94043
1187.122, 174.3271
1188.207, 149.5986
1189.292, 112.8721
1190.378, 70.15918
1191.463, 59.54980
1192.548, 40.71484
1193.632, 194.0186
1194.717, 169.1699
1195.801, 14.63867
1196.886, 137.5889
1197.970, 126.7773
1199.054, 86.96777
1200.137, 54.16016
1201.221, 134.3545
1202.305, 129.5508
1203.388, 20.62793
1204.471, 57.56152
1205.554, 50.75293
1206.637, 125.9453
1207.719, 118.1602
1208.802, 143.3555
1209.884, 147.5527
1210.966, 95.75098
1212.048, 14.95117
1213.130, 97.15332
1214.212, 41.57031
1215.293, 15.21875
1216.374, 173.4229
1217.456, 67.62891
1218.536, 64.16602
1219.617, 82.00586
1220.698, 245.1777
1221.778, 117.3496
1222.859, 47.52246
1223.939, 180.6943
1225.019, 40.86719
1226.099, 18.95898
1227.178, 1.201172
1228.258, 90.64258
1229.337, 54.46289
1230.417, 59.43164
1231.496, 192.6377
1232.574, 10.70703
1233.653, 37.77539
1234.732, 68.96191
1235.810, 173.1221
1236.888, 45.43652
1237.966, 103.4990
1239.044, 8.559570
1240.122, 94.61621
1241.199, 105.6729
1242.277, 134.1602
1243.354, 174.2520
1244.431, 180.4521
1245.508, 169.5000
1246.585, 193.5459
1247.661, 173.8301
1248.738, 173.0811
1249.814, 159.3271
1250.890, 139.0742
1251.966, 151.2686
1253.042, 90.30566
1254.117, 125.3428
1255.193, 88.39551
1256.268, 69.44531
1257.343, 116.7988
1258.418, 93.29492
1259.493, 153.3340
1260.567, 108.3701
1261.642, 215.4785
1262.716, 146.5889
1263.790, 106.7246
1264.864, 118.7451
1265.938, 228.2002
1267.011, 171.4990
1268.085, 160.1367
1269.158, 125.1484
1270.231, 318.1543
1271.304, 207.0430
1272.377, 200.2393
1273.450, 259.9482
1274.522, 149.9434
1275.594, 181.9238
1276.666, 275.8975
1277.738, 155.9014
1278.810, 194.8711
1279.882, 224.0117
1280.953, 105.9756
1282.025, 96.03223
1283.096, 227.7891
1284.167, 182.1357
1285.238, 175.4229
1286.308, 113.3906
1287.379, 100.4639
1288.449, 62.37207
1289.519, 80.43262
1290.589, 205.1650
1291.659, 137.0508
1292.729, 212.0957
1293.798, 241.2695
1294.868, 244.1299
1295.937, 322.7803
1297.006, 181.9180
1298.075, 45.79395
1299.143, 71.78223
1300.212, 113.6348
1301.280, 233.4414
1302.348, 284.2393
1303.416, 109.9668
1304.484, 237.6406
1305.552, 84.41113
1306.620, 236.1709
1307.687, 254.9199
1308.754, 205.1836
1309.821, 259.2852
1310.888, 116.0068
1311.955, 171.7686
1313.021, 165.6104
1314.088, 128.3008
1315.154, 237.3574
1316.220, 271.0312
1317.286, 220.6934
1318.352, 126.3457
1319.417, 187.9873
1320.483, 88.36426
1321.548, 177.9805
1322.613, 115.9385
1323.678, 145.5449
1324.743, 70.29395
1325.807, 171.8896
1326.872, 188.4766
1327.936, 166.0576
1329.000, 131.6328
1330.064, 189.2041
1331.128, 23.77051
1332.191, 148.0947
1333.255, 198.6426
1334.318, 100.1855
1335.381, 83.72266
1336.444, 149.2549
1337.507, 141.7803
1338.569, 147.3018
1339.632, 327.8164
1340.694, 142.3262
1341.756, 53.83105
1342.818, 36.32910
1343.880, 220.8057
1344.941, 145.2773
1346.003, 224.7412
1347.064, 222.1797
1348.125, 212.6318
1349.186, 122.0781
1350.247, 119.5010
1351.308, 130.9160
1352.368, 171.3252
1353.428, 165.8311
1354.489, 152.8164
1355.549, 157.8799
1356.608, 158.7314
1357.668, 152.4834
1358.727, 183.1006
1359.787, 120.3789
1360.846, 131.5957
1361.905, 65.33203
1362.964, 72.50098
1364.022, 14.74902
1365.081, 118.4219
1366.139, 98.57227
1367.197, 206.5576
1368.255, 119.6572
1369.313, 34.09961
1370.371, 90.17871
1371.428, 64.24609
1372.486, 286.3037
1373.543, 104.3721
1374.600, 194.5967
1375.657, 160.6279
1376.713, 19.89258
1377.770, 21.18652
1378.826, 68.33887
1379.882, 125.2812
1380.938, 248.8379
1381.994, 207.4863
1383.050, 183.3975
1384.106, 4.299805
1385.161, 42.18750
1386.216, 170.0752
1387.271, 254.9395
1388.326, 95.89160
1389.381, 8.264648
1390.435, 88.55957
1391.490, 118.3721
1392.544, 76.87305
1393.598, 63.15918
1394.652, 32.01758
1395.705, 142.7041
1396.759, 145.4141
1397.812, 20.11328
1398.866, 25.20508
1399.919, 1.549805
1400.972, 118.0850
1402.024, 164.7070
1403.077, 142.3154
1404.129, 112.9121
1405.181, 120.4971
1406.233, 8.926758
1407.285, 15.76855
1408.337, 96.40820
1409.389, 3.065430
1410.440, 12.55762
1411.491, 11.70312
1412.542, 112.4805
1413.593, 86.63770
1414.644, 179.0449
1415.695, 238.3643
1416.745, 130.6689
1417.795, 131.9619
1418.845, 85.23828
1419.895, 65.50098
1420.945, 218.7031
1421.995, 270.8896
1423.044, 67.05859
1424.093, 116.2109
1425.142, 10.15137
1426.191, 117.2539
1427.240, 241.3477
1428.289, 140.4141
1429.337, 18.46094
1430.385, 20.47949
1431.433, 160.4482
1432.481, 142.3965
1433.529, 194.3262
1434.577, 17.59180
1435.624, 57.50977
1436.672, 193.3838
1437.719, 270.2383
1438.766, 92.08203
1439.812, 285.9102
1440.859, 285.7246
1441.905, 176.2139
1442.952, 273.9883
1443.998, 287.7227
1445.044, 290.2930
1446.090, 245.7500
1447.135, 173.1211
1448.181, 274.0859
1449.226, 253.0488
1450.271, 387.0469
1451.316, 298.0322
1452.361, 157.3535
1453.405, 320.3213
1454.450, 304.2539
1455.494, 401.1953
1456.538, 292.1221
1457.582, 373.8027
1458.626, 260.2129
1459.670, 260.0947
1460.713, 424.0029
1461.757, 287.8984
1462.800, 213.7822
1463.843, 240.6611
1464.886, 192.6377
1465.928, 266.5137
1466.971, 205.4717
1468.013, 234.1631
1469.055, 209.3711
1470.097, 165.2783
1471.139, 182.6416
1472.181, 229.2910
1473.222, 268.1689
1474.263, 297.0371
1475.305, 165.5488
1476.346, 182.1396
1477.386, 245.8896
1478.427, 109.8623
1479.468, 331.9414
1480.508, 213.5156
1481.548, 267.1523
1482.588, 109.7803
1483.628, 214.7529
1484.668, 307.1650
1485.707, 252.6475
1486.747, 228.4365
1487.786, 202.7168
1488.825, 173.9219
1489.864, 136.3115
1490.902, 290.5186
1491.941, 144.1895
1492.979, 176.8770
1494.017, 42.87012
1495.055, 210.8516
1496.093, 187.0430
1497.131, 171.9932
1498.168, 104.3701
1499.206, 61.23340
1500.243, 105.1230
1501.280, 7.239258
1502.317, 81.58691
1503.354, 58.67773
1504.390, 138.7754
1505.426, 17.27539
1506.463, 58.96777
1507.499, 132.7705
1508.535, 349.5059
1509.570, 186.2471
1510.606, 101.9561
1511.641, 261.6152
1512.676, 81.23633
1513.711, 250.8057
1514.746, 182.3223
1515.781, 107.7959
1516.816, 14.79004
1517.850, 48.56348
1518.884, 85.84766
1519.918, 128.0635
1520.952, 171.5938
1521.986, 194.4629
1523.019, 251.4639
1524.053, 198.5410
1525.086, 241.2637
1526.119, 157.2324
1527.152, 197.0820
1528.185, 137.3154
1529.217, 181.6699
1530.250, 161.5762
1531.282, 48.46191
1532.314, 192.1279
1533.346, 137.6240
1534.377, 256.2373
1535.409, 229.1221
1536.440, 69.46094
1537.472, 7.926758
1538.503, 200.1270
1539.534, 297.0840
1540.564, 174.9072
1541.595, 162.6045
1542.625, 105.8564
1543.656, 211.4473
1544.686, 111.5547
1545.716, 205.2188
1546.745, 218.1182
1547.775, 168.4746
1548.804, 124.5771
1549.834, 107.1123
1550.863, 122.9521
1551.892, 227.9922
1552.920, 188.7549
1553.949, 256.8066
1554.977, 282.4082
1556.006, 256.4600
1557.034, 103.2559
1558.062, 0.1796880
1559.089, 44.36523
1560.117, 193.3994
1561.144, 81.29199
1562.172, 202.2783
1563.199, 153.7939
1564.226, 126.8770
1565.252, 4.026367
1566.279, 40.95898
1567.305, 87.63965
1568.332, 108.1426
1569.358, 33.75195
1570.384, 0.0000000E+00
##END=



