##NAMES=Albite
##RRUFFID=R050402
##IDEAL CHEMISTRY=NaAlSi_3_O_8_
##LOCALITY=Urbano mine, Golconda District, Brazil
##OWNER=RRUFF
##SOURCE=Bob Downs
##DESCRIPTION=Colorless tabular single crystals associated with fluorapatite R050401
##STATUS=The identification of this mineral has been confirmed by X-ray diffraction and chemical analysis
##URL=rruff.info/R050402
##MEASURED CHEMISTRY=Na_1.00_Al_1.00_Si_3.00_O_8_
##PIN_ID=M00107
##ORIENTATION=Laser parallel to b* (0 1 0). Fiducial mark perpendicular to laser is parallel to c [0 0 1]
73.71400, 0.0000000E+00
74.95100, 14.40479
76.18700, 282.2253
77.42300, 612.6399
78.65900, 1219.144
79.89500, 1717.596
81.13100, 2164.190
82.36700, 2909.719
83.60200, 3803.440
84.83700, 4351.296
86.07200, 4347.168
87.30800, 4271.284
88.54200, 4060.136
89.77700, 3417.954
91.01200, 2651.244
92.24600, 1902.567
93.48000, 1086.566
94.71400, 759.1113
95.94800, 646.9185
97.18200, 335.6748
98.41600, 479.1035
99.64900, 978.2314
100.8830, 1194.928
102.1160, 1845.089
103.3490, 2615.349
104.5820, 3407.529
105.8150, 4337.473
107.0470, 4934.043
108.2800, 5707.113
109.5120, 6155.971
110.7440, 6755.339
111.9760, 6667.367
113.2080, 6672.269
114.4400, 6347.583
115.6710, 5735.113
116.9030, 4404.550
118.1340, 3220.837
119.3650, 1852.907
120.5960, 991.7036
121.8270, 459.1782
123.0580, 158.2876
124.2880, 34.01123
125.5190, 276.7588
126.7490, 199.9854
127.9790, 243.7134
129.2090, 26.03369
130.4390, 200.2319
131.6680, 454.8560
132.8980, 688.8833
134.1270, 1388.292
135.3560, 1982.064
136.5850, 2859.179
137.8140, 3683.620
139.0430, 4369.371
140.2710, 5096.416
141.5000, 5811.743
142.7280, 6700.334
143.9560, 7461.179
145.1840, 8179.271
146.4120, 8836.807
147.6390, 9439.133
148.8670, 9631.748
150.0940, 9925.774
151.3210, 10731.32
152.5490, 11724.87
153.7750, 12721.04
155.0020, 13451.39
156.2290, 13978.34
157.4550, 14858.67
158.6810, 16177.33
159.9080, 17881.06
161.1340, 18905.81
162.3590, 19837.57
163.5850, 20375.37
164.8110, 19997.20
166.0360, 19579.06
167.2610, 18762.99
168.4860, 18581.94
169.7110, 18583.96
170.9360, 19160.02
172.1610, 19471.13
173.3850, 19791.25
174.6100, 20082.33
175.8340, 20734.43
177.0580, 21724.59
178.2820, 22446.82
179.5050, 23441.19
180.7290, 24169.68
181.9520, 24919.26
183.1760, 25164.92
184.3990, 25097.63
185.6220, 24237.38
186.8450, 23460.17
188.0670, 21646.01
189.2900, 19582.87
190.5120, 17535.77
191.7340, 15190.69
192.9560, 13412.64
194.1780, 12071.62
195.4000, 11166.62
196.6220, 10992.65
197.8430, 11328.70
199.0640, 12032.77
200.2860, 13171.86
201.5070, 14000.97
202.7270, 14770.10
203.9480, 14896.24
205.1690, 14994.40
206.3890, 15143.56
207.6090, 15315.74
208.8290, 14897.93
210.0490, 14074.13
211.2690, 12576.34
212.4890, 10639.56
213.7080, 8617.779
214.9280, 6079.001
216.1470, 4319.248
217.3660, 3154.037
218.5850, 2088.225
219.8030, 1502.296
221.0220, 1094.796
222.2400, 678.9263
223.4590, 457.3384
224.6770, 165.1118
225.8950, 83.01807
227.1120, 67.83252
228.3300, 138.9614
229.5480, 157.6392
230.7650, 164.3813
231.9820, 231.3901
233.1990, 145.8477
234.4160, 109.1660
235.6330, 134.6440
236.8490, 111.5649
238.0660, 215.9331
239.2820, 449.3125
240.4980, 729.2749
241.7140, 1281.486
242.9300, 1694.123
244.1460, 2233.575
245.3610, 2543.412
246.5770, 2949.267
247.7920, 3364.091
249.0070, 3752.069
250.2220, 4001.191
251.4370, 4170.448
252.6510, 4069.314
253.8660, 4093.330
255.0800, 3554.942
256.2940, 3139.658
257.5080, 2712.472
258.7220, 2537.378
259.9360, 2847.366
261.1490, 2846.426
262.3630, 2810.551
263.5760, 3081.737
264.7890, 3131.980
266.0020, 3433.277
267.2150, 3964.624
268.4270, 4134.016
269.6400, 4395.453
270.8520, 4671.632
272.0640, 4897.999
273.2760, 5150.338
274.4880, 5695.609
275.7000, 6748.225
276.9120, 8285.870
278.1230, 10451.54
279.3340, 13463.24
280.5450, 17361.18
281.7560, 21675.72
282.9670, 25798.70
284.1780, 29205.71
285.3880, 32409.32
286.5980, 34765.25
287.8090, 36997.16
289.0190, 38752.73
290.2290, 38747.61
291.4380, 37733.50
292.6480, 34006.37
293.8570, 29287.35
295.0670, 23597.20
296.2760, 18307.06
297.4850, 13717.86
298.6930, 10347.58
299.9020, 7669.175
301.1110, 5929.692
302.3190, 4822.202
303.5270, 3854.695
304.7350, 3182.176
305.9430, 2611.642
307.1510, 2271.092
308.3580, 2061.527
309.5660, 1922.946
310.7730, 1733.349
311.9800, 1626.734
313.1870, 1595.104
314.3940, 1653.455
315.6010, 1943.789
316.8070, 2438.506
318.0130, 2890.400
319.2200, 3887.678
320.4260, 5001.936
321.6310, 6016.175
322.8370, 6651.395
324.0430, 7394.594
325.2480, 8205.771
326.4540, 8885.928
327.6590, 9465.058
328.8640, 9420.168
330.0680, 9034.254
331.2730, 7885.313
332.4780, 6342.350
333.6820, 4869.361
334.8860, 3588.348
336.0900, 2544.309
337.2940, 1947.244
338.4980, 1593.152
339.7010, 1304.034
340.9050, 1200.890
342.1080, 1026.718
343.3110, 1069.518
344.5140, 1000.291
345.7170, 903.0352
346.9200, 940.7520
348.1220, 932.4395
349.3240, 865.0977
350.5270, 711.7275
351.7290, 583.3276
352.9310, 394.8984
354.1320, 278.4390
355.3340, 278.9497
356.5350, 163.4302
357.7370, 141.8789
358.9380, 61.29297
360.1390, 8.414063
361.3400, 25.48828
362.5400, 81.81787
363.7410, 88.75537
364.9410, 120.8882
366.1410, 127.1255
367.3410, 152.4717
368.5410, 136.9526
369.7410, 137.5674
370.9400, 206.3223
372.1400, 126.7993
373.3390, 205.6470
374.5380, 198.4502
375.7370, 300.8555
376.9360, 148.3745
378.1350, 274.8848
379.3330, 157.4980
380.5310, 166.3696
381.7300, 131.7744
382.9280, 63.33301
384.1260, 84.00879
385.3230, 67.81689
386.5210, 26.25684
387.7180, 152.2534
388.9160, 334.2148
390.1130, 498.1538
391.3100, 769.0669
392.5060, 895.9663
393.7030, 1086.843
394.9000, 1377.701
396.0960, 1700.559
397.2920, 1959.394
398.4880, 2300.206
399.6840, 2743.990
400.8800, 2972.744
402.0750, 3006.467
403.2710, 2970.165
404.4660, 3077.843
405.6610, 3173.498
406.8560, 3247.140
408.0510, 3203.759
409.2450, 3051.353
410.4400, 2659.934
411.6340, 2195.509
412.8280, 1799.059
414.0220, 1531.632
415.2160, 1360.178
416.4100, 1189.752
417.6030, 1087.332
418.7970, 981.9087
419.9900, 687.4878
421.1830, 455.0664
422.3760, 322.6460
423.5690, 239.2046
424.7610, 117.7524
425.9540, 105.6812
427.1460, 139.6836
428.3380, 121.0688
429.5300, 146.3892
430.7220, 192.6484
431.9140, 211.8618
433.1050, 154.0269
434.2970, 279.1323
435.4880, 288.1973
436.6790, 271.2217
437.8700, 443.2046
439.0610, 411.1479
440.2510, 530.0513
441.4420, 697.9150
442.6320, 787.7397
443.8220, 969.5254
445.0120, 1307.272
446.2020, 1569.980
447.3910, 2031.651
448.5810, 2333.282
449.7700, 2950.875
450.9600, 3169.429
452.1490, 3610.945
453.3370, 3876.422
454.5260, 4159.861
455.7150, 4300.260
456.9030, 4447.621
458.0910, 4425.944
459.2800, 4159.227
460.4670, 3995.473
461.6550, 4014.680
462.8430, 4082.849
464.0300, 4573.978
465.2180, 5177.070
466.4050, 6428.123
467.5920, 8032.139
468.7790, 10500.12
469.9650, 13494.05
471.1520, 16663.96
472.3380, 19856.82
473.5250, 22320.64
474.7110, 24389.43
475.8970, 26517.17
477.0820, 28005.89
478.2680, 28233.56
479.4540, 27203.20
480.6390, 24875.79
481.8240, 21419.35
483.0090, 17829.88
484.1940, 14215.37
485.3780, 11575.81
486.5630, 9591.225
487.7470, 8356.599
488.9320, 7964.935
490.1160, 7629.115
491.3000, 7969.499
492.4830, 8916.725
493.6670, 10366.92
494.8500, 12406.07
496.0340, 15881.18
497.2170, 20546.26
498.4000, 26499.31
499.5820, 33185.30
500.7650, 39353.86
501.9480, 44620.70
503.1300, 49080.77
504.3120, 52359.58
505.4940, 55395.70
506.6760, 56087.21
507.8580, 54000.55
509.0390, 49460.35
510.2210, 42442.41
511.4020, 34454.30
512.5830, 26884.01
513.7640, 20662.27
514.9450, 15949.48
516.1250, 12571.81
517.3060, 10010.71
518.4860, 8276.313
519.6660, 6938.763
520.8460, 5809.409
522.0260, 5048.509
523.2060, 4412.196
524.3850, 3832.977
525.5650, 3531.979
526.7440, 3098.614
527.9230, 2737.997
529.1020, 2606.339
530.2810, 2320.037
531.4590, 2179.124
532.6380, 1963.805
533.8160, 1815.790
534.9940, 1609.124
536.1720, 1533.956
537.3500, 1455.916
538.5270, 1278.444
539.7050, 1183.997
540.8820, 1152.902
542.0590, 1087.523
543.2360, 1001.123
544.4130, 1003.549
545.5900, 869.4482
546.7660, 938.7388
547.9430, 782.2686
549.1190, 786.6030
550.2950, 793.6914
551.4710, 823.6079
552.6470, 773.4771
553.8220, 746.3984
554.9980, 733.0664
556.1730, 643.5112
557.3480, 760.7549
558.5230, 674.9419
559.6980, 718.0132
560.8730, 752.8188
562.0470, 811.3364
563.2220, 822.8838
564.3960, 847.5679
565.5700, 863.0117
566.7440, 861.5811
567.9170, 1150.158
569.0910, 1240.723
570.2640, 1409.991
571.4380, 1698.754
572.6110, 1857.391
573.7840, 2026.510
574.9570, 2221.308
576.1290, 2384.087
577.3020, 2468.877
578.4740, 2416.542
579.6460, 2378.307
580.8180, 2088.054
581.9900, 1886.784
583.1620, 1631.495
584.3330, 1377.736
585.5040, 1013.869
586.6760, 902.5293
587.8470, 723.1738
589.0180, 547.8013
590.1880, 578.4126
591.3590, 498.0073
592.5290, 315.5991
593.7000, 430.1753
594.8700, 348.7363
596.0400, 336.2944
597.2090, 332.8389
598.3790, 199.3667
599.5490, 336.8799
600.7180, 337.3774
601.8870, 254.8857
603.0560, 295.3867
604.2250, 303.8730
605.3940, 299.3691
606.5620, 202.8506
607.7300, 336.3267
608.8990, 338.7876
610.0670, 423.2617
611.2350, 291.7212
612.4020, 260.1670
613.5700, 363.5981
614.7370, 415.0283
615.9050, 372.4453
617.0720, 499.8481
618.2390, 576.2529
619.4060, 710.6504
620.5720, 866.0352
621.7390, 951.4258
622.9050, 1180.804
624.0710, 1312.633
625.2370, 1461.531
626.4030, 1683.875
627.5690, 1884.215
628.7340, 2149.541
629.9000, 2142.855
631.0650, 2331.158
632.2300, 2414.447
633.3950, 2457.729
634.5600, 2259.999
635.7240, 2229.258
636.8890, 2232.505
638.0530, 2193.740
639.2170, 2315.965
640.3810, 2268.178
641.5450, 2425.384
642.7080, 2498.601
643.8720, 2664.836
645.0350, 2639.099
646.1980, 2745.405
647.3610, 2551.756
648.5240, 2179.160
649.6870, 2059.623
650.8490, 1714.149
652.0120, 1382.735
653.1740, 1234.383
654.3360, 899.1108
655.4980, 796.8965
656.6600, 599.7729
657.8210, 436.7275
658.9830, 473.7837
660.1440, 362.9023
661.3050, 246.1152
662.4660, 298.3916
663.6270, 201.7334
664.7870, 133.1299
665.9480, 140.5654
667.1080, 2.044922
668.2680, 107.5552
669.4280, 96.08105
670.5880, 13.60107
671.7480, 51.10498
672.9070, 31.40381
674.0670, 5.1270001E-02
675.2260, 12.51416
676.3850, 94.10596
677.5440, 5.768066
678.7030, 6.452637
679.8610, 22.83838
681.0200, 48.11426
682.1780, 49.37695
683.3360, 3.374023
684.4940, 28.14795
685.6520, 18.28320
686.8090, 53.80029
687.9670, 18.69238
689.1240, 14.61475
690.2810, 59.56836
691.4380, 90.57471
692.5950, 11.65186
693.7520, 198.7573
694.9080, 3.989258
696.0650, 128.2466
697.2210, 79.59326
698.3770, 30.00537
699.5330, 121.4561
700.6880, 116.9932
701.8440, 117.6157
702.9990, 40.32227
704.1550, 88.07324
705.3100, 3.891602
706.4650, 58.72119
707.6190, 8.411621
708.7740, 65.53711
709.9290, 100.6655
711.0830, 8.795410
712.2370, 174.9126
713.3910, 106.0259
714.5450, 288.1401
715.6980, 388.2461
716.8520, 369.3438
718.0050, 414.4336
719.1580, 353.5142
720.3110, 498.5869
721.4640, 366.6509
722.6170, 393.7065
723.7700, 336.7534
724.9220, 299.7915
726.0740, 182.8218
727.2260, 264.8438
728.3780, 212.8574
729.5300, 140.8638
730.6810, 202.7324
731.8330, 215.7222
732.9840, 188.9233
734.1350, 212.7837
735.2860, 184.8237
736.4370, 246.7812
737.5880, 269.7300
738.7380, 284.6714
739.8880, 277.6577
741.0390, 284.1182
742.1890, 347.0352
743.3380, 432.5718
744.4880, 447.4712
745.6380, 522.2910
746.7870, 597.1743
747.9360, 759.1206
749.0850, 865.9873
750.2340, 1078.844
751.3830, 1273.693
752.5310, 1576.363
753.6800, 2047.194
754.8280, 2584.018
755.9760, 3214.280
757.1240, 3965.290
758.2720, 4639.088
759.4190, 5404.250
760.5670, 5779.032
761.7140, 6012.731
762.8610, 6171.494
764.0080, 6100.269
765.1550, 5516.406
766.3020, 4937.143
767.4480, 4112.872
768.5950, 3416.591
769.7410, 2820.304
770.8870, 2498.863
772.0330, 2237.559
773.1780, 1923.246
774.3240, 1800.924
775.4690, 1629.595
776.6140, 1404.258
777.7590, 1248.912
778.9040, 1176.558
780.0490, 991.2666
781.1940, 829.8975
782.3380, 711.5195
783.4820, 692.1343
784.6260, 639.7407
785.7700, 540.3389
786.9140, 561.9277
788.0580, 498.5088
789.2010, 485.0801
790.3450, 574.6421
791.4880, 524.1938
792.6310, 571.7363
793.7730, 714.7544
794.9160, 1009.936
796.0590, 2271.787
797.2010, 1341.286
798.3430, 1840.773
799.4850, 1039.269
800.6270, 1108.733
801.7690, 1382.185
802.9100, 1697.623
804.0520, 2129.050
805.1930, 2711.665
806.3340, 3528.065
807.4750, 4396.451
808.6160, 5488.208
809.7560, 6649.342
810.8970, 7646.146
812.0370, 8173.572
813.1770, 8849.475
814.3170, 9014.217
815.4570, 8792.366
816.5960, 8033.469
817.7360, 6984.188
818.8750, 5749.165
820.0140, 4477.138
821.1530, 3441.258
822.2920, 2791.879
823.4310, 2062.082
824.5690, 1753.021
825.7070, 1526.130
826.8460, 1136.461
827.9840, 916.9375
829.1220, 944.4375
830.2590, 867.8604
831.3970, 789.5127
832.5340, 673.3638
833.6710, 650.3916
834.8080, 563.4526
835.9450, 540.6060
837.0820, 461.0010
838.2190, 368.6602
839.3550, 335.2676
840.4910, 294.6860
841.6270, 268.1558
842.7630, 290.8716
843.8990, 251.1401
845.0350, 241.2114
846.1700, 231.7422
847.3060, 202.4302
848.4410, 199.6860
849.5760, 186.7896
850.7100, 173.8906
851.8450, 124.9893
852.9800, 111.0869
854.1140, 119.1831
855.2480, 82.27734
856.3820, 94.37061
857.5160, 84.46191
858.6500, 38.55273
859.7830, 70.64209
860.9170, 95.73047
862.0500, 89.81836
863.1830, 28.90430
864.3160, 63.98975
865.4480, 93.07520
866.5810, 51.84033
867.7130, 46.21631
868.8460, 0.2734380
869.9780, 52.67432
871.1100, 4.351563
872.2410, 67.37549
873.3730, 117.3984
874.5050, 94.42236
875.6360, 104.5532
876.7670, 29.58252
877.8980, 106.3735
879.0290, 98.67041
880.1590, 87.23682
881.2900, 37.85547
882.4200, 54.03516
883.5500, 107.0742
884.6800, 37.76465
885.8100, 45.60400
886.9400, 33.44434
888.0690, 55.71387
889.1990, 61.10303
890.3280, 52.92188
891.4570, 67.25781
892.5860, 25.46729
893.7140, 32.31250
894.8430, 83.90479
895.9710, 25.83984
897.1000, 20.41260
898.2280, 49.32715
899.3560, 4.069336
900.4830, 31.18701
901.6110, 74.54541
902.7380, 61.28125
903.8660, 125.0190
904.9930, 58.76025
906.1200, 20.49561
907.2460, 41.24658
908.3730, 35.70117
909.5000, 54.72998
910.6260, 129.4790
911.7520, 41.23193
912.8780, 55.98975
914.0040, 85.75195
915.1290, 27.48242
916.2550, 33.27637
917.3800, 52.04736
918.5050, 89.84521
919.6300, 71.65625
920.7550, 59.47119
921.8800, 84.30566
923.0040, 113.1167
924.1290, 80.94629
925.2530, 82.78174
926.3770, 13.62158
927.5010, 116.4668
928.6250, 60.67822
929.7480, 130.1587
930.8720, 43.00195
931.9950, 101.8623
933.1180, 109.7310
934.2410, 1.605469
935.3640, 171.4854
936.4860, 110.3750
937.6090, 116.2710
938.7310, 62.17920
939.8530, 151.1021
940.9750, 65.05225
942.0970, 165.0098
943.2180, 201.9736
944.3400, 260.9482
945.4610, 249.9346
946.5820, 261.3257
947.7030, 281.2974
948.8240, 244.0464
949.9450, 281.1509
951.0650, 296.2700
952.1860, 258.4092
953.3060, 324.5640
954.4260, 382.7290
955.5460, 433.9043
956.6650, 438.1025
957.7850, 520.3223
958.9040, 554.5645
960.0230, 584.8354
961.1420, 641.1260
962.2610, 730.4492
963.3800, 826.9165
964.4990, 973.1997
965.6170, 1102.612
966.7350, 1198.094
967.8530, 1399.592
968.9710, 1791.140
970.0890, 2129.739
971.2070, 2572.364
972.3240, 2983.038
973.4410, 3476.758
974.5580, 3864.525
975.6750, 4132.321
976.7920, 4159.156
977.9090, 4135.008
979.0250, 3975.894
980.1410, 3677.795
981.2580, 3228.706
982.3740, 2658.628
983.4890, 2126.565
984.6050, 1749.512
985.7200, 1455.470
986.8360, 1193.440
987.9510, 1134.421
989.0660, 905.4121
990.1810, 947.4150
991.2950, 873.4287
992.4100, 872.4531
993.5240, 786.4883
994.6390, 764.5342
995.7530, 928.5913
996.8660, 855.6606
997.9800, 867.7402
999.0940, 1075.836
1000.207, 1218.944
1001.320, 1332.190
1002.433, 1692.327
1003.546, 1721.255
1004.659, 1743.528
1005.772, 1841.625
1006.884, 1612.808
1007.996, 1650.003
1009.108, 1596.212
1010.220, 1518.378
1011.332, 1415.074
1012.444, 1444.319
1013.555, 1420.706
1014.666, 1332.221
1015.777, 1254.579
1016.888, 1306.354
1017.999, 1384.116
1019.110, 1433.441
1020.220, 1448.780
1021.331, 1580.133
1022.441, 1773.670
1023.551, 2072.051
1024.661, 2349.446
1025.770, 2669.407
1026.880, 3191.628
1027.989, 3788.066
1029.098, 3923.146
1030.207, 4544.613
1031.316, 4637.168
1032.425, 4689.666
1033.533, 4346.158
1034.642, 3967.295
1035.750, 3428.839
1036.858, 3117.396
1037.966, 2542.971
1039.073, 2117.560
1040.181, 1896.308
1041.288, 1677.927
1042.396, 1319.562
1043.503, 1292.213
1044.610, 1153.879
1045.716, 1146.810
1046.823, 1028.507
1047.929, 955.2197
1049.036, 796.8779
1050.142, 717.3574
1051.248, 571.1582
1052.353, 642.8477
1053.459, 597.6367
1054.564, 515.4409
1055.670, 478.6816
1056.775, 374.3169
1057.880, 377.9429
1058.985, 282.8071
1060.089, 391.6855
1061.194, 608.4482
1062.298, 473.5723
1063.402, 794.7944
1064.506, 428.3169
1065.610, 425.7139
1066.713, 540.6831
1067.817, 467.6465
1068.920, 546.3398
1070.023, 459.3535
1071.126, 521.6055
1072.229, 496.4238
1073.332, 534.0825
1074.435, 573.1572
1075.537, 630.2456
1076.639, 773.3481
1077.741, 826.0591
1078.843, 673.6494
1079.945, 907.8018
1081.046, 908.5552
1082.148, 1320.923
1083.249, 1393.116
1084.350, 1476.551
1085.451, 1708.738
1086.551, 2044.971
1087.652, 2296.218
1088.752, 2602.491
1089.853, 3081.765
1090.953, 3505.492
1092.053, 4398.791
1093.152, 5134.112
1094.252, 5905.698
1095.351, 6601.121
1096.451, 7243.478
1097.550, 7689.849
1098.649, 7883.229
1099.748, 7747.621
1100.846, 7221.025
1101.945, 6756.956
1103.043, 6268.380
1104.141, 5699.995
1105.239, 5132.265
1106.337, 4650.721
1107.434, 4213.186
1108.532, 3890.659
1109.629, 3703.144
1110.726, 3619.637
1111.823, 3554.141
1112.920, 3576.653
1114.017, 3335.175
1115.113, 3201.706
1116.210, 3130.249
1117.306, 2894.801
1118.402, 2818.608
1119.498, 2561.180
1120.593, 2305.768
1121.689, 2043.365
1122.784, 1851.971
1123.879, 1708.586
1124.974, 1507.210
1126.069, 1498.843
1127.164, 1156.485
1128.259, 1023.134
1129.353, 813.7920
1130.447, 784.5146
1131.541, 511.1890
1132.635, 621.8706
1133.729, 483.9204
1134.822, 438.6338
1135.916, 316.3579
1137.009, 328.1050
1138.102, 357.8613
1139.195, 409.6245
1140.288, 341.3955
1141.380, 284.1733
1142.473, 234.9858
1143.565, 255.0688
1144.657, 398.8491
1145.749, 332.7300
1146.841, 507.6182
1147.932, 567.5234
1149.024, 501.4414
1150.115, 694.3926
1151.206, 704.3511
1152.297, 620.3442
1153.388, 702.3442
1154.479, 563.3652
1155.569, 592.3979
1156.659, 499.4370
1157.750, 323.4971
1158.839, 386.5703
1159.929, 237.6499
1161.019, 260.7544
1162.108, 174.8687
1163.198, 99.99512
1164.287, 159.1279
1165.376, 85.28516
1166.465, 41.45361
1167.553, 81.63135
1168.642, 68.81641
1169.730, 82.00586
1170.818, 128.2007
1171.906, 165.4043
1172.994, 19.61328
1174.082, 67.82666
1175.170, 140.0449
1176.257, 8.731934
1177.344, 54.49268
1178.431, 64.72168
1179.518, 99.95361
1180.605, 38.80469
1181.691, 94.57471
1182.778, 41.38525
1183.864, 84.79004
1184.950, 39.96973
1186.036, 54.15137
1187.122, 76.33691
1188.207, 74.52588
1189.292, 84.71777
1190.378, 98.54883
1191.463, 18.89014
1192.548, 83.30176
1193.632, 47.50732
1194.717, 49.28418
1195.801, 9.097168
1196.886, 91.08789
1197.970, 88.27539
1199.054, 13.39307
1200.137, 21.79199
1201.221, 22.95020
1202.305, 32.77344
1203.388, 62.61133
1204.471, 94.08203
1205.554, 12.21533
1206.637, 10.34961
1207.719, 8.869629
1208.802, 57.73828
1209.884, 14.36279
1210.966, 26.53467
1212.048, 36.44580
1213.130, 49.62305
1214.212, 19.30615
1215.293, 14.24756
1216.374, 73.93506
1217.456, 61.49707
1218.536, 31.45166
1219.617, 21.62891
1220.698, 3.338379
1221.778, 13.68945
1222.859, 112.4595
1223.939, 48.51270
1225.019, 6.485352
1226.099, 17.48193
1227.178, 79.54883
1228.258, 113.5444
1229.337, 40.54102
1230.417, 77.53516
1231.496, 50.47168
1232.574, 74.49023
1233.653, 25.45068
1234.732, 13.42090
1235.810, 109.3789
1236.888, 101.3354
1237.966, 67.29004
1239.044, 115.3076
1240.122, 78.41162
1241.199, 76.41992
1242.277, 181.3677
1243.354, 148.3389
1244.431, 51.28174
1245.508, 115.9336
1246.585, 91.97314
1247.661, 7.343750
1248.738, 185.2744
1249.814, 188.2041
1250.890, 77.17139
1251.966, 158.0967
1253.042, 125.3418
1254.117, 61.32275
1255.193, 111.3784
1256.268, 41.24268
1257.343, 115.2051
1258.418, 31.11328
1259.493, 2.936523
1260.567, 137.9551
1261.642, 122.9639
1262.716, 6.670410
1263.790, 86.33740
1264.864, 124.4077
1265.938, 117.8359
1267.011, 149.7173
1268.085, 273.5942
1269.158, 132.4673
1270.231, 68.33643
1271.304, 159.2354
1272.377, 151.0972
1273.450, 22.28369
1274.522, 141.2861
1275.594, 149.1333
1276.666, 147.2729
1277.738, 155.2900
1278.810, 181.1211
1279.882, 154.1387
1280.953, 142.5874
1282.025, 180.4009
1283.096, 57.64014
1284.167, 159.7178
1285.238, 106.5146
1286.308, 89.30469
1287.379, 143.2266
1288.449, 91.00391
1289.519, 94.77441
1290.589, 145.4512
1291.659, 254.6221
1292.729, 163.4780
1293.798, 201.4629
1294.868, 212.1987
1295.937, 173.6865
1297.006, 215.9570
1298.075, 152.6729
1299.143, 97.38135
1300.212, 102.0928
1301.280, 196.7861
1302.348, 216.4702
1303.416, 227.3867
1304.484, 239.0542
1305.552, 186.5200
1306.620, 269.1704
1307.687, 381.8120
1308.754, 268.4463
1309.821, 207.3354
1310.888, 335.9087
1311.955, 207.6006
1313.021, 179.2002
1314.088, 327.7900
1315.154, 208.3711
1316.220, 216.9429
1317.286, 221.5059
1318.352, 217.0591
1319.417, 254.6035
1320.483, 322.2710
1321.548, 325.7939
1322.613, 312.2651
1323.678, 187.2383
1324.743, 225.2993
1325.807, 116.7979
1326.872, 50.29053
1327.936, 92.08008
1329.000, 63.54980
1330.064, 166.7905
1331.128, 91.47412
1332.191, 21.32617
1333.255, 184.7715
1334.318, 127.2080
1335.381, 2.360352
1336.444, 172.4585
1337.507, 111.4067
1338.569, 95.80078
1339.632, 147.6030
1340.694, 101.7988
1341.756, 76.17822
1342.818, 114.3213
1343.880, 43.72266
1344.941, 18.08496
1346.003, 176.4395
1347.064, 62.77637
1348.125, 176.1162
1349.186, 120.0059
1350.247, 24.67773
1351.308, 98.61865
1352.368, 122.6582
1353.428, 95.86816
1354.489, 58.14746
1355.549, 78.88184
1356.608, 75.84863
1357.668, 113.9434
1358.727, 102.1934
1359.787, 169.9209
1360.846, 161.1592
1361.905, 73.37109
1362.964, 122.5703
1364.022, 145.7607
1365.081, 197.9004
1366.139, 63.03223
1367.197, 43.14844
1368.255, 65.25684
1369.313, 116.3574
1370.371, 74.44141
1371.428, 112.4893
1372.486, 8.577148
1373.543, 57.59668
1374.600, 20.60840
1375.657, 160.4219
1376.713, 14.25781
1377.770, 73.71973
1378.826, 83.89551
1379.882, 28.85645
1380.938, 69.94043
1381.994, 52.35938
1383.050, 97.29590
1384.106, 102.2256
1385.161, 121.4121
1386.216, 76.16602
1387.271, 145.0166
1388.326, 58.06543
1389.381, 20.92578
1390.435, 56.46289
1391.490, 44.44727
1392.544, 18.96191
1393.598, 134.8154
1394.652, 108.6611
1395.705, 162.4990
1396.759, 136.4844
1397.812, 85.30566
1398.866, 96.48730
1399.919, 33.70801
1400.972, 57.88672
1402.024, 159.9980
1403.077, 37.76172
1404.129, 0.5166020
1405.181, 142.2549
1406.233, 50.98730
1407.285, 86.28906
1408.337, 116.3984
1409.389, 27.29980
1410.440, 1.025391
1411.491, 135.6357
1412.542, 104.2861
1413.593, 64.92773
1414.644, 110.5605
1415.695, 99.18066
1416.745, 5.793945
1417.795, 29.39551
1418.845, 74.03223
1419.895, 48.42188
1420.945, 183.0244
1421.995, 10.46191
1423.044, 20.84961
1424.093, 161.2471
1425.142, 177.6270
1426.191, 97.99316
1427.240, 118.6338
1428.289, 104.9756
1429.337, 48.29590
1430.385, 174.5996
1431.433, 87.88770
1432.481, 140.1602
1433.529, 185.4111
1434.577, 190.9961
1435.624, 260.1816
1436.672, 211.3535
1437.719, 158.5947
1438.766, 280.8584
1439.812, 230.0039
1440.859, 294.2012
1441.905, 263.2588
1442.952, 304.8252
1443.998, 318.0586
1445.044, 396.5762
1446.090, 349.0049
1447.135, 403.9707
1448.181, 428.8926
1449.226, 376.8271
1450.271, 434.6064
1451.316, 462.4531
1452.361, 421.3818
1453.405, 458.7490
1454.450, 344.9443
1455.494, 398.8838
1456.538, 426.8369
1457.582, 476.8086
1458.626, 386.6436
1459.670, 420.0508
1460.713, 314.9795
1461.757, 310.8496
1462.800, 302.8057
1463.843, 226.6895
1464.886, 272.6436
1465.928, 223.5908
1466.971, 221.5664
1468.013, 222.5234
1469.055, 262.4854
1470.097, 303.1777
1471.139, 230.0547
1472.181, 250.9658
1473.222, 263.4248
1474.263, 278.2480
1475.305, 277.5254
1476.346, 298.9814
1477.386, 253.5684
1478.427, 239.7002
1479.468, 280.2314
1480.508, 164.9287
1481.548, 214.9346
1482.588, 180.7148
1483.628, 321.4893
1484.668, 168.2588
1485.707, 268.9727
1486.747, 128.6260
1487.786, 222.8721
1488.825, 197.7773
1489.864, 138.0459
1490.902, 162.8965
1491.941, 200.4023
1492.979, 283.6475
1494.017, 151.1006
1495.055, 132.3926
1496.093, 176.6396
1497.131, 79.67578
1498.168, 116.0176
1499.206, 141.2461
1500.243, 79.48438
1501.280, 26.29492
1502.317, 143.4170
1503.354, 43.63086
1504.390, 97.84082
1505.426, 62.04688
1506.463, 12.25000
1507.499, 132.4531
1508.535, 153.6553
1509.570, 110.8623
1510.606, 69.05566
1511.641, 157.2256
1512.676, 58.37109
1513.711, 20.47656
1514.746, 96.64160
1515.781, 67.73340
1516.816, 47.17480
1517.850, 200.9111
1518.884, 157.9600
1519.918, 202.9658
1520.952, 57.93164
1521.986, 177.8555
1523.019, 22.76270
1524.053, 127.6924
1525.086, 109.5869
1526.119, 26.43555
1527.152, 148.2676
1528.185, 184.0605
1529.217, 149.8672
1530.250, 175.7256
1531.282, 200.8447
1532.314, 142.0088
1533.346, 43.18262
1534.377, 95.41504
1535.409, 174.8721
1536.440, 106.9785
1537.472, 173.6670
1538.503, 200.6035
1539.534, 221.1729
1540.564, 174.5420
1541.595, 149.4785
1542.625, 73.64062
1543.656, 190.1650
1544.686, 141.0615
1545.716, 158.3477
1546.745, 10.21875
1547.775, 122.9355
1548.804, 81.99805
1549.834, 134.7490
1550.863, 17.37793
1551.892, 135.8359
1552.920, 207.5703
1553.949, 374.4883
1554.977, 326.1670
1556.006, 164.5928
1557.034, 155.2158
1558.062, 6.146484
1559.089, 65.51953
1560.117, 171.1406
1561.144, 46.98438
1562.172, 38.80176
1563.199, 61.36133
1564.226, 43.72070
1565.252, 93.46680
1566.279, 21.13574
1567.305, 182.6504
1568.332, 23.53711
1569.358, 0.4960940
1570.384, 0.0000000E+00
##END=



