##NAMES=Albite
##RRUFFID=R040129
##IDEAL CHEMISTRY=NaAlSi_3_O_8_
##LOCALITY=LaChance Quarry, Brunswick, Cumberland County, Maine, USA
##OWNER=RRUFF
##SOURCE=Bob Downs
##DESCRIPTION=Colorless fragment of a tabular single crystal
##STATUS=The identification of this mineral has been confirmed by X-ray diffraction and chemical analysis
##URL=rruff.info/R040129
##MEASURED CHEMISTRY=(Na_0.99_K_0.01_)Al_1.00_Si_3.00_O_8_
##PIN_ID=L00382
##ORIENTATION=Laser parallel to b* (0 1 0). Fiducial mark perpendicular to laser is parallel to c [0 0 1]
124.519, 0.000
125.910, 20.812
127.300, 147.100
128.690, 7.318
130.080, 122.921
131.469, 5.423
132.858, 78.604
134.248, 77.934
135.636, 69.786
137.025, 113.669
138.413, 191.671
139.801, 143.285
141.189, 117.999
142.577, 264.298
143.964, 264.862
145.352, 353.481
146.739, 552.022
148.125, 607.404
149.512, 713.280
150.898, 864.419
152.284, 866.776
153.670, 716.779
155.056, 758.524
156.441, 812.184
157.827, 1069.878
159.212, 1467.732
160.596, 1836.830
161.981, 2002.236
163.365, 1928.007
164.749, 1673.197
166.133, 1504.851
167.517, 1512.016
168.900, 1854.739
170.283, 1864.060
171.666, 1689.018
173.049, 1421.755
174.431, 1044.896
175.813, 1022.038
177.195, 1099.377
178.577, 1340.025
179.959, 1459.329
181.340, 1758.548
182.721, 2080.653
184.102, 2126.480
185.483, 2393.728
186.863, 2083.112
188.244, 2059.011
189.624, 1621.067
191.003, 1555.285
192.383, 1237.483
193.762, 1151.628
195.141, 1149.661
196.520, 932.563
197.899, 994.338
199.277, 984.992
200.656, 1054.533
202.034, 1247.987
203.411, 1377.353
204.789, 2010.632
206.166, 2584.816
207.543, 3392.934
208.920, 3471.071
210.297, 3169.208
211.673, 2517.359
213.049, 1634.527
214.425, 1254.712
215.801, 713.908
217.176, 501.117
218.552, 395.333
219.927, 238.553
221.302, 183.776
222.676, 111.292
224.051, 85.505
225.425, 73.709
226.799, 43.903
228.173, 75.918
229.546, 42.546
230.919, 3.478
232.292, 178.179
233.665, 20.053
235.038, 62.445
236.410, 19.066
237.782, 42.185
239.154, 15.450
240.526, 48.108
241.898, 21.970
243.269, 113.266
244.640, 97.098
246.011, 177.085
247.381, 280.231
248.752, 390.089
250.122, 667.566
251.492, 650.990
252.861, 742.641
254.231, 580.273
255.600, 515.344
256.969, 629.204
258.338, 439.859
259.707, 630.199
261.075, 670.966
262.443, 1014.701
263.811, 1445.299
265.179, 1945.140
266.546, 2690.805
267.914, 3256.449
269.281, 3762.081
270.647, 3627.702
272.014, 2933.309
273.380, 2548.901
274.747, 2044.479
276.113, 1810.317
277.478, 1606.515
278.844, 1752.946
280.209, 1758.704
281.574, 2225.110
282.939, 2940.715
284.304, 3696.688
285.668, 5562.123
287.032, 7377.542
288.396, 10212.955
289.760, 12132.031
291.123, 12060.934
292.487, 11039.630
293.850, 7847.555
295.212, 6086.332
296.575, 4095.100
297.937, 3013.910
299.300, 2422.713
300.662, 1781.506
302.023, 1490.278
303.385, 1185.022
304.746, 992.737
306.107, 886.412
307.468, 706.045
308.829, 802.634
310.189, 618.179
311.549, 576.678
312.909, 445.134
314.269, 449.545
315.629, 307.904
316.988, 284.200
318.347, 422.420
319.706, 234.567
321.065, 321.645
322.423, 331.656
323.781, 362.607
325.139, 494.500
326.497, 517.336
327.855, 501.614
329.212, 491.853
330.569, 348.536
331.926, 270.173
333.283, 38.765
334.639, 90.308
335.995, 73.804
337.351, 152.253
338.707, 79.638
340.063, 102.951
341.418, 128.053
342.773, 44.090
344.128, 100.585
345.483, 32.125
346.837, 73.523
348.192, 98.893
349.546, 110.228
350.899, 95.541
352.253, 124.003
353.606, 114.097
354.960, 147.346
356.313, 50.570
357.665, 32.773
359.018, 0.045
360.370, 109.106
361.722, 85.248
363.074, 75.366
364.426, 60.463
365.777, 10.555
367.128, 4.621
368.479, 48.677
369.830, 52.712
371.181, 7.750
372.531, 92.239
373.881, 58.652
375.231, 79.328
376.581, 27.437
377.930, 21.421
379.280, 78.253
380.629, 13.067
381.977, 8.856
383.326, 91.568
384.674, 79.969
386.023, 83.089
387.370, 44.915
388.718, 97.620
390.066, 43.911
391.413, 13.033
392.760, 30.240
394.107, 60.319
395.454, 116.988
396.800, 133.575
398.146, 172.325
399.492, 197.784
400.838, 92.788
402.184, 193.465
403.529, 364.091
404.874, 487.632
406.219, 972.243
407.564, 976.695
408.908, 1001.534
410.252, 586.676
411.596, 651.784
412.940, 616.803
414.284, 871.748
415.627, 834.629
416.970, 971.559
418.313, 846.395
419.656, 531.211
420.999, 376.004
422.341, 290.773
423.683, 215.526
425.025, 140.265
426.367, 104.987
427.708, 149.698
429.049, 44.398
430.390, 149.086
431.731, 203.763
433.072, 138.745
434.412, 113.785
435.752, 68.552
437.092, 163.251
438.432, 297.872
439.772, 72.481
441.111, 337.102
442.450, 352.033
443.789, 236.603
445.127, 411.229
446.466, 355.776
447.804, 411.068
449.142, 545.598
450.480, 570.381
451.817, 764.958
453.155, 819.457
454.492, 1054.044
455.829, 1058.807
457.166, 1225.703
458.502, 1380.082
459.838, 1404.690
461.175, 1679.834
462.510, 1674.139
463.846, 2068.418
465.181, 2473.087
466.517, 2857.342
467.852, 3591.768
469.186, 4435.949
470.521, 6440.107
471.855, 8144.244
473.190, 11528.354
474.523, 16532.439
475.857, 22656.646
477.191, 32090.814
478.524, 34224.844
479.857, 32868.820
481.190, 25932.617
482.523, 17656.566
483.855, 13390.490
485.187, 9074.396
486.519, 7498.274
487.851, 5772.134
489.183, 4545.973
490.514, 4319.786
491.845, 3603.582
493.176, 3867.315
494.507, 3729.693
495.837, 4102.552
497.168, 5005.451
498.498, 5718.605
499.828, 7881.314
501.157, 9654.196
502.487, 14357.258
503.816, 20675.920
505.145, 27140.676
506.474, 35902.855
507.802, 33530.203
509.131, 30163.236
510.459, 23316.143
511.787, 15749.143
513.115, 12492.100
514.442, 8637.107
515.770, 6950.236
517.097, 5673.834
518.424, 4217.075
519.750, 3788.869
521.077, 3044.986
522.403, 2847.523
523.729, 2330.599
525.055, 2057.797
526.381, 1959.643
527.706, 1575.202
529.031, 1558.109
530.356, 1226.558
531.681, 1408.230
533.006, 1296.652
534.330, 1077.081
535.654, 1043.797
536.978, 923.649
538.302, 835.642
539.625, 929.317
540.949, 681.311
542.272, 733.276
543.595, 556.113
544.917, 702.682
546.240, 595.799
547.562, 478.093
548.884, 630.552
550.206, 412.895
551.527, 457.642
552.849, 548.123
554.170, 380.590
555.491, 433.332
556.812, 306.187
558.132, 259.441
559.453, 252.597
560.773, 325.341
562.093, 418.527
563.412, 291.824
564.732, 225.121
566.051, 268.405
567.370, 351.729
568.689, 275.015
570.008, 318.287
571.326, 371.569
572.644, 294.839
573.963, 388.266
575.280, 531.543
576.598, 504.806
577.915, 618.801
579.233, 682.039
580.550, 505.352
581.866, 538.851
583.183, 282.049
584.499, 424.980
585.815, 177.754
587.131, 320.704
588.447, 283.203
589.763, 146.131
591.078, 49.253
592.393, 32.133
593.708, 94.895
595.022, 107.454
596.337, 200.401
597.651, 203.469
598.965, 116.016
600.279, 39.058
601.593, 152.083
602.906, 105.096
604.219, 178.096
605.532, 8.918
606.845, 124.050
608.158, 57.004
609.470, 99.941
610.782, 112.866
612.094, 85.783
613.406, 38.686
614.718, 38.427
616.029, 214.425
617.340, 57.264
618.651, 9.911
619.962, 182.893
621.272, 125.685
622.582, 18.463
623.892, 111.227
625.202, 63.978
626.512, 166.714
627.821, 199.439
629.131, 187.331
630.440, 155.212
631.749, 187.540
633.057, 80.218
634.366, 82.881
635.674, 235.531
636.982, 138.170
638.290, 120.797
639.597, 313.414
640.905, 326.018
642.212, 258.611
643.519, 331.193
644.825, 433.764
646.132, 486.322
647.438, 418.871
648.744, 381.407
650.050, 463.932
651.356, 226.445
652.662, 328.955
653.967, 61.456
655.272, 263.948
656.577, 156.434
657.882, 118.911
659.186, 91.381
660.490, 83.842
661.794, 23.687
663.098, 98.760
664.402, 68.799
665.705, 43.594
667.009, 85.978
668.312, 38.353
669.614, 80.718
670.917, 26.926
672.219, 55.402
673.522, 12.278
674.824, 9.978
676.125, 2.307
677.427, 45.414
678.728, 126.827
680.030, 0.938
681.331, 68.717
682.631, 63.456
683.932, 54.376
685.232, 2.245
686.532, 90.127
687.832, 81.931
689.132, 36.015
690.432, 34.392
691.731, 12.860
693.030, 40.689
694.329, 55.012
695.628, 9.071
696.926, 23.409
698.224, 22.187
699.522, 13.373
700.820, 57.518
702.118, 4.080
703.415, 51.322
704.713, 136.398
706.010, 39.187
707.307, 1.180
708.603, 43.157
709.900, 80.104
711.196, 113.869
712.492, 105.822
713.788, 58.314
715.083, 180.245
716.379, 282.164
717.674, 215.602
718.969, 337.500
720.264, 240.800
721.558, 342.676
722.853, 110.156
724.147, 292.009
725.441, 173.850
726.735, 261.112
728.028, 182.930
729.322, 92.560
730.615, 154.351
731.908, 196.131
733.201, 27.897
734.493, 189.645
735.785, 101.379
737.078, 53.102
738.370, 144.810
739.661, 316.506
740.953, 528.190
742.244, 469.865
743.535, 231.530
744.826, 383.185
746.117, 264.828
747.407, 350.107
748.698, 401.345
749.988, 552.837
751.278, 534.371
752.567, 605.963
753.857, 857.543
755.146, 769.086
756.435, 1410.298
757.724, 1621.846
759.013, 2253.314
760.301, 3284.840
761.590, 3665.600
762.878, 3807.414
764.165, 4278.331
765.453, 3259.729
766.741, 2982.122
768.028, 1853.441
769.315, 1654.555
770.602, 1613.499
771.888, 1454.929
773.175, 1546.093
774.461, 1456.688
775.747, 1378.087
777.033, 1249.478
778.319, 860.446
779.604, 871.793
780.889, 472.935
782.174, 584.286
783.459, 495.628
784.744, 386.961
786.028, 448.283
787.312, 299.597
788.596, 400.759
789.880, 181.923
791.164, 173.209
792.447, 214.509
793.730, 255.777
795.013, 247.037
796.296, 253.988
797.579, 279.531
798.861, 210.765
800.143, 226.590
801.425, 183.207
802.707, 204.416
803.989, 255.615
805.270, 206.808
806.551, 237.990
807.832, 309.167
809.113, 280.136
810.394, 481.296
811.674, 522.448
812.954, 563.593
814.234, 636.211
815.514, 615.691
816.794, 624.873
818.073, 595.953
819.352, 462.269
820.631, 442.937
821.910, 214.115
823.189, 294.921
824.467, 215.898
825.745, 114.763
827.023, 155.623
828.301, 235.377
829.578, 165.261
830.856, 285.864
832.133, 263.495
833.410, 144.528
834.687, 124.924
835.963, 181.056
837.240, 191.918
838.516, 198.928
839.792, 89.200
841.068, 243.947
842.343, 54.875
843.618, 73.004
844.894, 181.228
846.169, 161.859
847.443, 67.394
848.718, 83.350
849.992, 17.052
851.266, 86.467
852.540, 144.036
853.814, 84.499
855.088, 115.146
856.361, 54.760
857.634, 14.190
858.907, 3.404
860.180, 117.081
861.453, 86.734
862.725, 72.766
863.997, 22.175
865.269, 138.528
866.541, 0.799
867.812, 79.667
869.084, 60.355
870.355, 18.959
871.626, 211.708
872.897, 17.625
874.167, 153.024
875.438, 86.316
876.708, 64.269
877.978, 74.875
879.248, 84.521
880.517, 246.036
881.787, 123.410
883.056, 26.938
884.325, 137.421
885.594, 147.903
886.862, 37.640
888.130, 58.120
889.399, 108.513
890.667, 118.705
891.934, 71.693
893.202, 169.661
894.469, 30.140
895.737, 30.619
897.004, 201.099
898.270, 81.578
899.537, 67.931
900.803, 212.525
902.070, 82.984
903.336, 123.445
904.601, 263.908
905.867, 114.387
907.132, 184.867
908.398, 45.348
909.663, 135.830
910.928, 246.316
912.192, 116.803
913.457, 227.289
914.721, 117.783
915.985, 128.279
917.249, 58.775
918.512, 20.723
919.776, 199.791
921.039, 140.309
922.302, 150.828
923.565, 101.361
924.827, 95.340
926.090, 102.439
927.352, 112.986
928.614, 153.537
929.876, 157.748
931.138, 182.867
932.399, 195.209
933.660, 195.773
934.922, 226.344
936.182, 176.920
937.443, 147.498
938.704, 18.080
939.964, 128.666
941.224, 199.258
942.484, 309.854
943.744, 0.453
945.003, 201.057
946.262, 181.664
947.521, 252.277
948.780, 302.896
950.039, 273.518
951.298, 14.146
952.556, 274.777
953.814, 155.414
955.072, 336.061
956.330, 236.707
957.587, 227.363
958.845, 238.023
960.102, 268.688
961.359, 159.359
962.615, 340.037
963.872, 110.723
965.128, 181.410
966.384, 72.107
967.640, 312.811
968.896, 393.527
970.152, 254.254
971.407, 415.004
972.662, 385.762
973.917, 456.529
975.172, 397.303
976.427, 438.084
977.681, 459.463
978.935, 444.680
980.189, 460.512
981.443, 441.344
982.697, 332.186
983.950, 295.238
985.203, 353.922
986.456, 214.812
987.709, 285.730
988.962, 206.660
990.214, 197.613
991.467, 298.580
992.719, 219.584
993.971, 330.594
995.222, 281.625
996.474, 112.678
997.725, 363.738
998.976, 229.922
1000.227, 241.006
1001.478, 500.420
1002.728, 505.514
1003.978, 786.633
1005.229, 707.764
1006.479, 718.908
1007.728, 676.115
1008.978, 625.859
1010.227, 856.256
1011.476, 727.453
1012.725, 668.664
1013.974, 974.914
1015.223, 744.350
1016.471, 895.596
1017.719, 646.301
1018.967, 477.566
1020.215, 688.844
1021.462, 588.602
1022.710, 609.895
1023.957, 749.789
1025.204, 783.783
1026.451, 889.494
1027.697, 870.834
1028.944, 1282.182
1030.190, 1318.109
1031.436, 1339.484
1032.682, 1453.045
1033.928, 1334.441
1035.173, 1115.852
1036.418, 1087.275
1037.663, 758.715
1038.908, 1110.166
1040.153, 1111.631
1041.398, 843.109
1042.642, 754.604
1043.886, 926.109
1045.130, 948.039
1046.374, 959.570
1047.617, 941.117
1048.860, 835.215
1050.104, 822.828
1051.347, 704.414
1052.589, 736.014
1053.832, 457.723
1055.074, 473.197
1056.316, 694.842
1057.558, 466.500
1058.800, 288.174
1060.042, 559.859
1061.283, 481.564
1062.524, 563.283
1063.765, 575.016
1065.006, 496.836
1066.247, 728.600
1067.487, 490.379
1068.728, 686.117
1069.968, 717.928
1071.208, 709.754
1072.447, 761.596
1073.687, 763.453
1074.926, 795.326
1076.165, 878.928
1077.404, 829.127
1078.643, 1061.049
1079.881, 1142.988
1081.120, 1244.949
1082.358, 1566.920
1083.596, 1578.912
1084.834, 1711.367
1086.071, 2023.395
1087.309, 2385.439
1088.546, 3107.498
1089.783, 3169.576
1091.020, 3841.674
1092.256, 4963.787
1093.493, 5615.898
1094.729, 7558.023
1095.965, 7930.168
1097.201, 9042.330
1098.436, 10214.512
1099.672, 9246.715
1100.907, 9418.932
1102.142, 8521.170
1103.377, 6943.428
1104.612, 6995.699
1105.846, 6067.994
1107.081, 5520.275
1108.315, 5362.580
1109.549, 4644.855
1110.782, 4707.150
1112.016, 4709.461
1113.249, 4631.793
1114.483, 4774.141
1115.716, 4326.510
1116.948, 4198.832
1118.181, 4061.170
1119.413, 3283.525
1120.646, 2915.902
1121.878, 2528.293
1123.110, 2040.705
1124.341, 2183.125
1125.573, 1595.561
1126.804, 1188.016
1128.035, 1280.484
1129.266, 842.975
1130.497, 995.480
1131.727, 698.006
1132.957, 460.549
1134.188, 714.633
1135.418, 647.211
1136.647, 529.805
1137.877, 732.420
1139.106, 465.053
1140.335, 637.709
1141.564, 530.389
1142.793, 483.094
1144.022, 665.824
1145.250, 308.580
1146.479, 481.363
1147.707, 654.197
1148.934, 396.990
1150.162, 579.816
1151.390, 592.699
1152.617, 405.605
1153.844, 468.539
1155.071, 271.857
1156.298, 354.865
1157.524, 327.918
1158.751, 181.018
1159.977, 174.094
1161.203, 487.809
1162.428, 110.287
1163.654, 322.834
1164.879, 215.412
1166.105, 178.020
1167.330, 240.664
1168.555, 153.338
1169.779, 36.062
1171.004, 348.857
1172.228, 78.246
1173.452, 424.676
1174.676, 157.623
1175.900, 110.596
1177.123, 213.598
1178.346, 86.619
1179.570, 109.656
1180.793, 222.748
1182.015, 135.867
1183.238, 218.977
1184.460, 62.109
1185.683, 115.271
1186.905, 228.459
1188.126, 181.674
1189.348, 184.896
1190.569, 178.125
1191.791, 18.615
1193.012, 54.668
1194.233, 157.980
1195.453, 68.682
1196.674, 4.684
1197.894, 88.070
1199.114, 281.484
1200.334, 5.072
1201.554, 91.602
1202.774, 291.896
1203.993, 65.422
1205.212, 48.977
1206.431, 262.561
1207.650, 126.170
1208.869, 69.809
1210.087, 203.480
1211.305, 2.822
1212.524, 400.906
1213.741, 64.668
1214.959, 101.539
1216.177, 232.287
1217.394, 116.143
1218.611, 250.035
1219.828, 253.957
1221.045, 227.914
1222.261, 221.883
1223.478, 203.475
1224.694, 259.918
1225.910, 233.990
1227.126, 188.094
1228.342, 352.229
1229.557, 196.398
1230.772, 9.400
1231.987, 484.832
1233.202, 359.092
1234.417, 93.377
1235.631, 467.689
1236.846, 112.053
1238.060, 566.473
1239.274, 300.947
1240.488, 199.703
1241.701, 354.172
1242.915, 288.691
1244.128, 133.258
1245.341, 257.873
1246.554, 152.535
1247.767, 317.250
1248.979, 432.016
1250.191, 325.799
1251.403, 190.650
1252.615, 298.891
1253.827, 263.699
1255.039, 207.736
1256.250, 202.391
1257.461, 397.080
1258.672, 291.809
1259.883, 266.354
1261.094, 491.148
1262.304, 370.389
1263.514, 4.828
1264.724, 479.275
1265.934, 313.729
1267.144, 78.186
1268.354, 342.641
1269.563, 185.393
1270.772, 419.773
1271.981, 414.135
1273.190, 158.465
1274.398, 382.867
1275.607, 307.348
1276.815, 361.785
1278.023, 176.170
1279.231, 29.490
1280.439, 384.947
1281.646, 429.730
1282.853, 74.756
1284.060, 129.773
1285.267, 145.207
1286.474, 211.150
1287.681, 287.213
1288.887, 33.482
1290.093, 80.012
1291.299, 406.781
1292.505, 153.840
1293.711, 185.383
1294.916, 131.744
1296.121, 88.262
1297.327, 68.541
1298.531, 51.420
1299.736, 2.275
1300.941, 184.957
1302.145, 213.900
1303.349, 283.633
1304.553, 198.039
1305.757, 0.135
1306.961, 0.000
##END=



