##NAMES=Albite
##RRUFFID=R040129
##IDEAL CHEMISTRY=NaAlSi_3_O_8_
##LOCALITY=LaChance Quarry, Brunswick, Cumberland County, Maine, USA
##OWNER=RRUFF
##SOURCE=Bob Downs
##DESCRIPTION=Colorless fragment of a tabular single crystal
##STATUS=The identification of this mineral has been confirmed by X-ray diffraction and chemical analysis
##URL=rruff.info/R040129
##MEASURED CHEMISTRY=(Na_0.99_K_0.01_)Al_1.00_Si_3.00_O_8_
##PIN_ID=M00199
##ORIENTATION=Laser parallel to (0 -1 -1). Fiducial mark perpendicular to laser is parallel to a [1 0 0]
106.312, 0.000
107.711, 338.245
109.109, 1116.677
110.507, 2019.464
111.905, 3301.083
113.303, 3799.846
114.700, 4009.201
116.097, 3414.985
117.494, 2712.994
118.891, 1809.565
120.287, 964.077
121.683, 587.980
123.079, 254.340
124.475, 98.547
125.870, 0.282
127.265, 104.884
128.660, 0.141
130.055, 92.290
131.449, 68.156
132.843, 222.399
134.237, 320.740
135.631, 372.943
137.024, 692.888
138.417, 921.497
139.810, 1239.639
141.203, 1729.734
142.596, 2260.804
143.988, 2862.785
145.380, 3415.575
146.771, 3899.085
148.163, 4123.240
149.554, 4237.959
150.945, 4103.174
152.336, 3938.833
153.726, 3764.904
155.117, 3651.353
156.507, 3818.152
157.896, 4565.283
159.286, 5382.726
160.675, 6240.463
162.064, 7028.477
163.453, 7396.752
164.842, 7515.279
166.230, 7454.048
167.618, 7525.873
169.006, 7657.634
170.393, 7688.680
171.781, 7427.525
173.168, 7031.173
174.555, 6131.582
175.941, 5683.342
177.328, 5585.949
178.714, 5669.003
180.100, 5982.053
181.485, 6585.045
182.871, 7237.976
184.256, 7580.848
185.641, 8053.672
187.025, 7916.443
188.410, 7369.193
189.794, 6621.866
191.178, 5534.300
192.562, 4716.592
193.945, 4078.801
195.328, 3320.965
196.711, 2943.108
198.094, 2705.253
199.476, 2617.412
200.859, 2759.575
202.241, 3101.774
203.623, 3684.017
205.004, 4486.307
206.385, 5558.648
207.766, 6121.042
209.147, 6823.486
210.528, 6695.985
211.908, 5868.537
213.288, 4721.140
214.668, 3503.794
216.048, 2636.498
217.427, 1819.250
218.806, 1112.051
220.185, 764.896
221.564, 527.784
222.942, 320.706
224.320, 123.661
225.698, 36.771
227.076, 29.779
228.453, 37.188
229.830, 123.153
231.207, 34.394
232.584, 196.360
233.960, 58.179
235.337, 124.368
236.713, 203.347
238.088, 133.376
239.464, 125.226
240.839, 102.794
242.214, 23.122
243.589, 98.917
244.964, 123.213
246.338, 346.066
247.712, 503.138
249.086, 807.050
250.459, 982.933
251.833, 1253.874
253.206, 1314.768
254.579, 1145.604
255.951, 936.361
257.324, 777.079
258.696, 747.818
260.068, 858.576
261.439, 929.345
262.811, 1193.283
264.182, 1490.914
265.553, 1881.714
266.924, 2342.525
268.294, 2823.344
269.665, 3226.465
271.035, 3338.027
272.404, 2921.529
273.774, 2647.184
275.143, 2254.236
276.512, 1882.230
277.881, 1900.996
279.250, 1910.387
280.618, 2020.306
281.986, 2430.672
283.354, 3211.336
284.721, 4342.352
286.089, 5893.678
287.456, 7815.279
288.823, 9937.123
290.190, 11499.184
291.556, 12391.420
292.922, 11992.470
294.288, 10245.031
295.654, 8367.766
297.019, 6480.627
298.385, 4673.604
299.750, 3546.692
301.114, 2659.879
302.479, 1943.151
303.843, 1556.504
305.207, 1179.916
306.571, 1173.375
307.935, 866.879
309.298, 810.424
310.661, 994.004
312.024, 727.617
313.387, 661.261
314.749, 614.930
316.111, 588.624
317.473, 542.340
318.835, 436.075
320.196, 429.828
321.558, 593.599
322.919, 747.382
324.279, 991.180
325.640, 1454.988
327.000, 2028.807
328.360, 2522.633
329.720, 2606.466
331.080, 2520.305
332.439, 2224.135
333.798, 1567.908
335.157, 1171.586
336.516, 855.133
337.874, 538.573
339.232, 441.964
340.590, 435.346
341.948, 228.713
343.305, 112.067
344.662, 245.405
346.019, 188.729
347.376, 282.040
348.733, 155.336
350.089, 178.617
351.445, 91.891
352.801, 75.146
354.156, 28.380
355.512, 91.626
356.867, 34.860
358.222, 108.070
359.576, 108.732
360.931, 45.590
362.285, 97.510
363.639, 109.405
364.992, 43.622
366.346, 123.370
367.699, 70.424
369.052, 12.473
370.405, 44.656
371.757, 1.833
373.110, 89.047
374.462, 136.324
375.814, 3.678
377.165, 121.073
378.516, 18.525
379.868, 106.021
381.218, 13.587
382.569, 21.173
383.920, 78.811
385.270, 43.537
386.620, 54.152
387.969, 11.902
389.319, 50.295
390.668, 82.455
392.017, 123.526
393.366, 210.815
394.714, 362.910
396.063, 378.320
397.411, 518.477
398.759, 586.237
400.106, 820.673
401.454, 867.499
402.801, 974.439
404.148, 1501.972
405.495, 2063.277
406.841, 2824.596
408.187, 3395.689
409.533, 3476.676
410.879, 3027.579
412.224, 2498.413
413.570, 2189.210
414.915, 2129.996
416.260, 2070.771
417.604, 2061.569
418.949, 1802.356
420.293, 1293.134
421.637, 1023.900
422.980, 724.656
424.324, 515.400
425.667, 296.135
427.010, 276.858
428.353, 317.570
429.695, 98.270
431.037, 168.949
432.379, 209.603
433.721, 210.239
435.063, 220.948
436.404, 221.620
437.745, 322.297
439.086, 322.978
440.427, 393.745
441.767, 474.602
443.108, 475.300
444.448, 556.475
445.787, 637.167
447.127, 778.265
448.466, 889.515
449.805, 1430.118
451.144, 1770.705
452.482, 2583.561
453.821, 3294.110
455.159, 4174.646
456.497, 4897.599
457.834, 5278.094
459.172, 5098.629
460.509, 4460.699
461.846, 3621.125
463.183, 3151.526
464.519, 2782.881
465.856, 2503.232
467.192, 2393.560
468.527, 2933.858
469.863, 3384.134
471.198, 4224.380
472.534, 5414.603
473.868, 7404.795
475.203, 10074.965
476.538, 13915.104
477.872, 17735.211
479.206, 20845.301
480.540, 21485.357
481.873, 19725.385
483.206, 16495.385
484.539, 12755.356
485.872, 9555.299
487.205, 7645.214
488.537, 5725.100
489.869, 4614.958
491.201, 3854.787
492.533, 3364.587
493.864, 3128.857
495.196, 3172.248
496.527, 3543.812
497.857, 4133.496
499.188, 5073.154
500.518, 6402.783
501.848, 8422.388
503.178, 11581.962
504.508, 16071.416
505.837, 21001.457
507.166, 25701.006
508.495, 27880.617
509.824, 26920.059
511.153, 23260.822
512.481, 18459.660
513.809, 13977.775
515.137, 10773.527
516.464, 8103.215
517.792, 6369.973
519.119, 4819.705
520.446, 3778.918
521.772, 3341.272
523.099, 2860.699
524.425, 2389.445
525.751, 2037.431
527.077, 1764.362
528.402, 1546.312
529.728, 1422.951
531.053, 1354.582
532.377, 1298.949
533.702, 1127.049
535.027, 1062.276
536.351, 735.171
537.675, 925.505
538.998, 738.375
540.322, 934.982
541.645, 633.632
542.968, 615.036
544.291, 694.929
545.613, 489.605
546.936, 519.049
548.258, 330.642
549.580, 465.396
550.902, 581.465
552.223, 349.146
553.544, 398.349
554.865, 247.097
556.186, 407.038
557.507, 445.851
558.827, 140.458
560.147, 449.098
561.467, 317.737
562.786, 376.379
564.106, 415.020
565.425, 133.642
566.744, 312.245
568.063, 290.830
569.381, 369.399
570.700, 427.954
572.018, 356.514
573.335, 715.057
574.653, 553.582
575.970, 769.821
577.288, 1028.314
578.604, 1026.792
579.921, 1385.263
581.238, 1113.717
582.554, 1242.290
583.870, 980.729
585.186, 789.150
586.501, 497.559
587.817, 485.950
589.132, 392.099
590.447, 259.890
591.761, 278.155
593.076, 136.396
594.390, 154.697
595.704, 172.973
597.018, 211.309
598.331, 129.626
599.645, 117.925
600.958, 136.208
602.271, 87.873
603.583, 132.714
604.896, 90.938
606.208, 79.143
607.520, 167.320
608.832, 145.485
610.143, 13.633
611.455, 161.742
612.766, 159.842
614.077, 7.923
615.387, 145.966
616.698, 123.991
618.008, 31.998
619.318, 189.974
620.628, 227.931
621.937, 55.872
623.247, 203.788
624.556, 151.687
625.865, 179.566
627.173, 267.432
628.482, 205.280
629.790, 393.112
631.098, 470.927
632.405, 528.727
633.713, 506.510
635.020, 464.276
636.327, 522.027
637.634, 449.763
638.941, 577.484
640.247, 515.188
641.553, 502.879
642.859, 680.551
644.165, 818.211
645.471, 885.855
646.776, 1073.484
648.081, 1021.098
649.386, 1148.697
650.691, 896.283
651.995, 803.852
653.299, 591.408
654.603, 468.951
655.907, 596.479
657.210, 333.990
658.514, 331.490
659.817, 198.975
661.120, 236.445
662.422, 53.904
663.725, 91.346
665.027, 78.771
666.329, 206.184
667.630, 13.580
668.932, 70.953
670.233, 198.316
671.534, 124.328
672.835, 12.947
674.136, 50.203
675.436, 17.459
676.737, 14.691
678.036, 32.303
679.336, 7.641
680.636, 14.828
681.935, 6.227
683.234, 1.047
684.533, 8.346
685.832, 14.336
687.130, 25.023
688.428, 10.297
689.726, 87.627
691.024, 84.996
692.322, 109.084
693.619, 50.154
694.916, 7.287
696.213, 104.738
697.510, 87.768
698.806, 92.396
700.102, 170.125
701.398, 107.289
702.694, 44.713
703.990, 72.166
705.285, 59.639
706.580, 47.012
707.875, 24.605
709.170, 22.080
710.464, 49.543
711.758, 2.848
713.052, 42.869
714.346, 78.004
715.640, 82.621
716.933, 259.965
718.226, 247.299
719.519, 444.625
720.812, 292.348
722.105, 349.547
723.397, 287.135
724.689, 414.424
725.981, 412.533
727.272, 164.613
728.564, 301.875
729.855, 349.127
731.146, 103.074
732.437, 304.092
733.727, 161.250
735.017, 271.188
736.308, 168.330
737.597, 50.055
738.887, 307.176
740.176, 284.289
741.466, 262.307
742.755, 459.402
744.043, 298.184
745.332, 396.158
746.620, 593.242
747.908, 520.320
749.196, 747.340
750.484, 684.400
751.771, 904.152
753.059, 1061.199
754.346, 1108.146
755.633, 1465.686
756.919, 1772.678
758.206, 2609.172
759.492, 3396.135
760.778, 4532.863
762.063, 6059.223
763.349, 7276.838
764.634, 7493.812
765.919, 6878.498
767.204, 5957.104
768.489, 4554.062
769.773, 3578.574
771.057, 3015.520
772.341, 2292.393
773.625, 1887.703
774.909, 1964.631
776.192, 1491.549
777.475, 1377.484
778.758, 1224.393
780.041, 1021.299
781.323, 868.197
782.605, 595.092
783.887, 651.980
785.169, 728.865
786.451, 545.744
787.732, 582.619
789.013, 559.492
790.294, 426.359
791.575, 413.223
792.856, 450.152
794.136, 527.008
795.416, 433.861
796.696, 500.711
797.976, 597.645
799.255, 484.484
800.534, 551.322
801.813, 718.158
803.092, 644.990
804.371, 1031.818
805.649, 1078.645
806.927, 1555.469
808.205, 1922.291
809.483, 2299.111
810.760, 3445.928
812.037, 4292.742
813.315, 5769.555
814.591, 7056.369
815.868, 7223.180
817.144, 7249.467
818.421, 6536.217
819.697, 5202.879
820.972, 3799.684
822.248, 2715.131
823.523, 2061.750
824.798, 1568.553
826.073, 1405.852
827.348, 1151.379
828.623, 767.750
829.897, 923.457
831.171, 819.117
832.445, 585.217
833.718, 550.723
834.992, 376.459
836.265, 481.400
837.538, 366.758
838.811, 312.385
840.083, 276.895
841.356, 332.986
842.628, 228.740
843.900, 305.553
845.171, 312.365
846.443, 239.180
847.714, 91.580
848.985, 247.354
850.256, 124.174
851.527, 55.729
852.797, 321.070
854.067, 65.910
855.337, 192.709
856.607, 9.268
857.876, 6.064
859.146, 202.814
860.415, 169.436
861.684, 45.719
862.953, 21.965
864.221, 1.346
865.489, 234.160
866.757, 100.783
868.025, 78.387
869.293, 258.412
870.560, 125.215
871.828, 12.021
873.095, 11.162
874.361, 245.656
875.628, 7.496
876.894, 179.354
878.160, 23.789
879.426, 106.936
880.692, 109.879
881.958, 116.701
883.223, 16.471
884.488, 82.629
885.753, 159.463
887.018, 73.697
888.282, 113.127
889.546, 110.043
890.810, 36.639
892.074, 153.443
893.338, 29.740
894.601, 37.072
895.864, 226.109
897.127, 29.377
898.390, 37.350
899.652, 14.092
900.915, 180.844
902.177, 167.602
903.439, 75.627
904.700, 351.127
905.962, 237.902
907.223, 25.311
908.484, 141.477
909.745, 68.273
911.006, 235.086
912.266, 8.092
913.526, 368.740
914.786, 24.414
916.046, 192.436
917.306, 269.293
918.565, 53.828
919.824, 163.049
921.083, 139.936
922.342, 116.842
923.600, 13.762
924.859, 70.691
926.117, 7.639
927.375, 184.598
928.632, 51.566
929.890, 228.551
931.147, 55.545
932.404, 192.555
933.661, 59.572
934.918, 286.604
936.174, 123.643
937.430, 70.695
938.686, 137.760
939.942, 154.834
941.198, 241.922
942.453, 219.021
943.708, 3.865
944.963, 183.258
946.218, 300.393
947.472, 347.539
948.727, 5.301
949.981, 421.869
951.235, 159.051
952.488, 186.250
953.742, 303.457
954.995, 230.680
956.248, 207.912
957.501, 275.166
958.754, 42.432
960.006, 329.711
961.258, 96.998
962.510, 374.301
963.762, 281.617
965.014, 238.943
966.265, 226.287
967.516, 231.121
968.767, 621.010
970.018, 338.395
971.269, 725.791
972.519, 873.203
973.769, 990.637
975.019, 1128.084
976.269, 1515.543
977.518, 1533.062
978.767, 1810.602
980.017, 1588.156
981.265, 1315.730
982.514, 1413.328
983.762, 730.939
985.011, 958.576
986.259, 696.229
987.507, 463.906
988.754, 551.604
990.002, 479.324
991.249, 517.100
992.496, 614.893
993.743, 392.703
994.989, 510.535
996.236, 588.381
997.482, 576.295
998.728, 614.244
999.974, 642.213
1001.219, 760.217
1002.464, 1015.559
1003.710, 1063.627
1004.954, 1281.760
1006.199, 1319.908
1007.444, 1168.078
1008.688, 1306.268
1009.932, 1024.473
1011.176, 1242.691
1012.420, 1160.928
1013.663, 1249.219
1014.906, 1347.369
1016.149, 1285.699
1017.392, 904.143
1018.635, 1109.291
1019.877, 697.787
1021.120, 846.314
1022.362, 676.135
1023.603, 744.281
1024.845, 888.129
1026.086, 636.576
1027.328, 755.238
1028.569, 1273.316
1029.809, 1137.205
1031.050, 1425.918
1032.290, 1334.643
1033.530, 1492.826
1034.770, 1321.680
1036.010, 910.543
1037.250, 1086.633
1038.489, 945.830
1039.728, 650.150
1040.967, 989.121
1042.206, 788.434
1043.444, 776.527
1044.683, 875.727
1045.921, 703.078
1047.159, 802.322
1048.396, 791.328
1049.634, 810.434
1050.871, 789.566
1052.108, 629.361
1053.345, 595.818
1054.582, 437.666
1055.818, 446.844
1057.054, 825.342
1058.290, 264.947
1059.526, 624.193
1060.762, 553.449
1061.997, 343.070
1063.232, 612.363
1064.467, 411.037
1065.702, 460.355
1066.937, 539.682
1068.171, 358.031
1069.405, 517.398
1070.639, 526.779
1071.873, 436.256
1073.107, 715.656
1074.340, 465.066
1075.573, 494.502
1076.806, 893.947
1078.039, 533.404
1079.272, 732.918
1080.504, 662.441
1081.736, 831.984
1082.968, 1011.539
1084.200, 901.107
1085.431, 1190.691
1086.663, 1340.285
1087.894, 1529.889
1089.125, 1949.512
1090.355, 2099.145
1091.586, 2348.785
1092.816, 3238.361
1094.046, 3398.018
1095.276, 4367.688
1096.506, 5067.361
1097.735, 5557.141
1098.965, 5776.832
1100.194, 5506.527
1101.423, 5096.230
1102.651, 4485.943
1103.880, 4065.662
1105.108, 3636.732
1106.336, 3076.461
1107.564, 2516.195
1108.792, 2495.934
1110.019, 2075.680
1111.246, 2075.430
1112.473, 2255.188
1113.700, 1694.949
1114.927, 1864.717
1116.153, 1664.488
1117.380, 1644.262
1118.606, 1614.064
1119.831, 1233.869
1121.057, 1344.082
1122.283, 1424.312
1123.508, 864.125
1124.733, 754.908
1125.958, 444.723
1127.182, 634.818
1128.407, 574.635
1129.631, 454.893
1130.855, 274.703
1132.079, 265.619
1133.302, 245.430
1134.526, 335.234
1135.749, 85.412
1136.972, 436.469
1138.195, 112.898
1139.417, 222.699
1140.640, 332.562
1141.862, 323.920
1143.084, 284.238
1144.305, 196.945
1145.527, 159.984
1146.748, 256.895
1147.970, 182.225
1149.191, 242.443
1150.411, 592.939
1151.632, 563.322
1152.852, 433.676
1154.072, 464.969
1155.292, 356.066
1156.512, 195.869
1157.732, 385.934
1158.951, 55.969
1160.170, 474.832
1161.389, 75.338
1162.608, 85.197
1163.826, 238.191
1165.045, 297.812
1166.263, 247.924
1167.481, 251.256
1168.699, 39.154
1169.916, 171.055
1171.134, 112.094
1172.351, 47.393
1173.568, 416.328
1174.784, 38.541
1176.001, 297.973
1177.217, 217.955
1178.433, 107.367
1179.649, 407.320
1180.865, 352.900
1182.081, 212.258
1183.296, 232.354
1184.511, 53.910
1185.726, 163.213
1186.941, 363.256
1188.155, 64.773
1189.370, 384.668
1190.584, 106.518
1191.798, 296.215
1193.011, 385.879
1194.225, 8.430
1195.438, 270.947
1196.651, 572.918
1197.864, 12.039
1199.077, 351.377
1200.290, 38.562
1201.502, 300.461
1202.714, 519.457
1203.926, 96.279
1205.138, 385.223
1206.349, 344.396
1207.561, 66.957
1208.772, 305.809
1209.983, 344.904
1211.194, 214.920
1212.404, 503.697
1213.614, 57.898
1214.825, 416.619
1216.034, 465.441
1217.244, 194.779
1218.454, 343.447
1219.663, 422.137
1220.872, 375.166
1222.081, 493.805
1223.290, 384.330
1224.498, 243.156
1225.707, 512.350
1226.915, 343.656
1228.123, 373.383
1229.331, 353.141
1230.538, 423.441
1231.746, 380.434
1232.953, 351.672
1234.160, 353.273
1235.366, 471.754
1236.573, 530.811
1237.779, 566.182
1238.986, 437.764
1240.192, 527.863
1241.397, 526.258
1242.603, 234.809
1243.808, 403.160
1245.013, 451.494
1246.218, 320.873
1247.423, 399.281
1248.628, 637.549
1249.832, 45.754
1251.036, 603.934
1252.240, 492.082
1253.444, 320.543
1254.648, 608.539
1255.851, 417.111
1257.054, 445.051
1258.257, 332.949
1259.460, 402.090
1260.663, 599.883
1261.865, 488.854
1263.067, 360.715
1264.269, 458.252
1265.471, 226.072
1266.673, 224.332
1267.874, 541.650
1269.075, 119.414
1270.276, 386.666
1271.477, 263.777
1272.678, 340.838
1273.878, 227.883
1275.078, 374.781
1276.278, 112.184
1277.478, 348.938
1278.678, 455.633
1279.877, 253.516
1281.077, 100.135
1282.276, 43.350
1283.475, 443.266
1284.673, 329.652
1285.872, 75.988
1287.070, 222.234
1288.268, 141.561
1289.466, 304.826
1290.664, 300.855
1291.861, 23.178
1293.058, 242.625
1294.255, 178.344
1295.452, 204.061
1296.649, 209.641
1297.846, 85.139
1299.042, 100.955
1300.238, 336.311
1301.434, 271.609
1302.630, 276.990
1303.825, 77.844
1305.020, 167.225
1306.216, 312.230
1307.411, 302.830
1308.605, 371.943
1309.800, 246.637
1310.994, 11.268
1312.188, 395.746
1313.382, 208.863
1314.576, 46.807
1315.770, 472.178
1316.963, 83.777
1318.156, 30.281
1319.349, 504.047
1320.542, 227.949
1321.735, 381.787
1322.927, 225.561
1324.119, 190.732
1325.311, 462.836
1326.503, 176.342
1327.695, 49.779
1328.886, 512.852
1330.077, 103.848
1331.268, 49.344
1332.459, 202.145
1333.650, 35.201
1334.840, 238.018
1336.030, 250.943
1337.220, 36.186
1338.410, 305.623
1339.600, 28.355
1340.789, 371.029
1341.979, 293.004
1343.168, 145.582
1344.357, 385.438
1345.545, 407.934
1346.734, 59.607
1347.922, 472.418
1349.110, 284.789
1350.298, 7.139
1351.486, 488.932
1352.674, 281.252
1353.861, 113.582
1355.048, 616.742
1356.235, 20.863
1357.422, 440.658
1358.608, 312.650
1359.795, 189.268
1360.981, 595.932
1362.167, 342.523
1363.353, 0.986
1364.538, 405.400
1365.724, 71.715
1366.909, 92.035
1368.094, 214.146
1369.279, 40.268
1370.463, 136.338
1371.648, 132.346
1372.832, 88.098
1374.016, 223.998
1375.200, 219.844
1376.384, 34.102
1377.567, 569.834
1378.750, 225.512
1379.933, 351.135
1381.116, 616.699
1382.299, 102.186
1383.481, 687.104
1384.664, 331.939
1385.846, 456.033
1387.028, 640.920
1388.210, 165.549
1389.391, 349.281
1390.572, 833.885
1391.754, 398.627
1392.935, 453.412
1394.115, 415.445
1395.296, 262.498
1396.476, 449.129
1397.656, 211.869
1398.837, 434.475
1400.016, 414.607
1401.196, 128.162
1402.375, 508.518
1403.555, 680.959
1404.734, 29.779
1405.912, 447.363
1407.091, 239.758
1408.270, 131.871
1409.448, 566.004
1410.626, 178.102
1411.804, 470.137
1412.982, 426.689
1414.159, 394.262
1415.336, 228.715
1416.514, 535.949
1417.690, 112.629
1418.867, 332.486
1420.044, 378.857
1421.220, 30.033
1422.396, 569.842
1423.572, 426.865
1424.748, 177.688
1425.924, 351.926
1427.099, 240.152
1428.274, 320.391
1429.449, 420.910
1430.624, 130.182
1431.799, 541.393
1432.973, 247.352
1434.147, 173.758
1435.322, 464.268
1436.495, 136.242
1437.669, 361.703
1438.843, 812.318
1440.016, 48.104
1441.189, 291.031
1442.362, 607.170
1443.535, 93.385
1444.707, 386.195
1445.880, 631.707
1447.052, 176.932
1448.224, 631.131
1449.396, 214.447
1450.567, 455.447
1451.739, 699.898
1452.910, 398.275
1454.081, 169.070
1455.252, 502.002
1456.422, 146.330
1457.593, 600.637
1458.763, 483.365
1459.933, 228.059
1461.103, 657.949
1462.273, 371.602
1463.442, 135.688
1464.611, 559.725
1465.781, 372.330
1466.949, 326.357
1468.118, 640.549
1469.287, 405.154
1470.455, 327.936
1471.623, 731.740
1472.791, 126.225
1473.959, 260.646
1475.127, 595.195
1476.294, 60.252
1477.461, 606.049
1478.628, 92.027
1479.795, 228.275
1480.962, 525.039
1482.128, 42.156
1483.295, 569.793
1484.461, 477.916
1485.627, 86.781
1486.792, 386.438
1487.958, 367.043
1489.123, 178.676
1490.288, 371.543
1491.453, 175.910
1492.618, 242.172
1493.783, 540.805
1494.947, 7.465
1496.111, 448.516
1497.275, 365.758
1498.439, 0.000
##END=



