##NAMES=Albite
##RRUFFID=R050402
##IDEAL CHEMISTRY=NaAlSi_3_O_8_
##LOCALITY=Urbano mine, Golconda District, Brazil
##OWNER=RRUFF
##SOURCE=Bob Downs
##DESCRIPTION=Colorless tabular single crystals associated with fluorapatite R050401
##STATUS=The identification of this mineral has been confirmed by X-ray diffraction and chemical analysis
##URL=rruff.info/R050402
##MEASURED CHEMISTRY=Na_1.00_Al_1.00_Si_3.00_O_8_
##PIN_ID=M00068
##ORIENTATION=Laser parallel to a* (1 0 0). Fiducial mark perpendicular to laser is parallel to b [0 1 0]
86.07200, 0.0000000E+00
87.30800, 169.1855
88.54200, 81.19531
89.77700, 17.80664
91.01200, 21.29736
92.24600, 3.266602
93.48000, 10.27734
94.71400, 35.69629
95.94800, 39.99121
97.18200, 109.8140
98.41600, 211.7886
99.64900, 247.6611
100.8830, 524.2012
102.1160, 727.2119
103.3490, 999.5288
104.5820, 1438.025
105.8150, 1757.606
107.0470, 2375.188
108.2800, 3153.681
109.5120, 4115.005
110.7440, 4968.087
111.9760, 5472.854
113.2080, 5601.248
114.4400, 4960.212
115.6710, 3982.698
116.9030, 2976.662
118.1340, 2198.064
119.3650, 1416.871
120.5960, 887.0811
121.8270, 644.7163
123.0580, 481.8018
124.2880, 488.3159
125.5190, 383.2266
126.7490, 257.4980
127.9790, 331.0898
129.2090, 304.9683
130.4390, 387.1035
131.6680, 447.7114
132.8980, 413.0420
134.1270, 641.8032
135.3560, 732.7368
136.5850, 910.8286
137.8140, 1165.068
139.0430, 1516.445
140.2710, 1878.949
141.5000, 2370.574
142.7280, 2675.304
143.9560, 2813.134
145.1840, 2757.052
146.4120, 2717.050
147.6390, 2699.122
148.8670, 2741.260
150.0940, 2731.375
151.3210, 2824.772
152.5490, 2746.245
153.7750, 2760.009
155.0020, 2710.287
156.2290, 2822.955
157.4550, 2982.138
158.6810, 3273.830
159.9080, 3697.731
161.1340, 3905.657
162.3590, 4240.629
163.5850, 4256.706
164.8110, 4488.771
166.0360, 4521.795
167.2610, 4786.755
168.4860, 5246.646
169.7110, 5411.465
170.9360, 5129.214
172.1610, 4476.900
173.3850, 3772.526
174.6100, 3358.097
175.8340, 3035.616
177.0580, 2882.087
178.2820, 2877.513
179.5050, 2971.894
180.7290, 3149.233
181.9520, 3277.533
183.1760, 3480.797
184.3990, 3555.048
185.6220, 3464.288
186.8450, 3337.521
188.0670, 3057.757
189.2900, 2887.996
190.5120, 2796.235
191.7340, 2503.469
192.9560, 2355.686
194.1780, 2137.881
195.4000, 2158.053
196.6220, 2139.194
197.8430, 2125.294
199.0640, 2245.354
200.2860, 2428.373
201.5070, 2608.350
202.7270, 3000.287
203.9480, 3330.183
205.1690, 3667.036
206.3890, 4111.848
207.6090, 4240.620
208.8290, 4357.350
210.0490, 3914.037
211.2690, 3316.683
212.4890, 2590.339
213.7080, 2000.545
214.9280, 1492.398
216.1470, 960.9409
217.3660, 630.8599
218.5850, 577.5205
219.8030, 325.2319
221.0220, 229.8008
222.2400, 140.9272
223.4590, 161.4141
224.6770, 84.79199
225.8950, 70.72314
227.1120, 78.09082
228.3300, 171.0513
229.5480, 106.0356
230.7650, 136.0405
231.9820, 143.1226
233.1990, 86.76367
234.4160, 121.0654
235.6330, 196.4570
236.8490, 256.1826
238.0660, 259.7148
239.2820, 325.5688
240.4980, 454.0967
241.7140, 568.1387
242.9300, 675.3721
244.1460, 859.2329
245.3610, 1012.210
246.5770, 1366.322
247.7920, 1749.039
249.0070, 2195.695
250.2220, 2403.506
251.4370, 2520.854
252.6510, 2328.246
253.8660, 2052.677
255.0800, 1647.142
256.2940, 1436.638
257.5080, 1280.163
258.7220, 1122.713
259.9360, 1174.285
261.1490, 1372.876
262.3630, 1502.482
263.5760, 1736.104
264.7890, 2119.735
266.0020, 2392.379
267.2150, 2836.031
268.4270, 3030.689
269.6400, 3036.351
270.8520, 2972.017
272.0640, 2748.683
273.2760, 2480.347
274.4880, 2178.008
275.7000, 2053.665
276.9120, 2069.317
278.1230, 2189.961
279.3340, 2471.882
280.5450, 3056.796
281.7560, 3560.589
282.9670, 4045.117
284.1780, 5135.829
285.3880, 6101.542
286.5980, 7464.804
287.8090, 8827.684
289.0190, 9736.091
290.2290, 10116.39
291.4380, 9621.046
292.6480, 8235.418
293.8570, 6747.168
295.0670, 5320.302
296.2760, 4086.821
297.4850, 3193.065
298.6930, 2476.198
299.9020, 1907.247
301.1110, 1515.167
302.3190, 1192.030
303.5270, 1006.300
304.7350, 942.7930
305.9430, 942.9072
307.1510, 747.0557
308.3580, 744.0996
309.5660, 709.1094
310.7730, 505.0811
311.9800, 528.0176
313.1870, 500.9219
314.3940, 454.7881
315.6010, 301.6211
316.8070, 435.4395
318.0130, 415.2217
319.2200, 462.9688
320.4260, 574.6787
321.6310, 834.3555
322.8370, 914.9980
324.0430, 1198.608
325.2480, 1659.184
326.4540, 1813.722
327.6590, 2150.223
328.8640, 2100.685
330.0680, 1815.107
331.2730, 1478.494
332.4780, 1181.842
333.6820, 780.1494
334.8860, 431.4189
336.0900, 441.6494
337.2940, 286.8428
338.4980, 265.9941
339.7010, 203.1045
340.9050, 189.1748
342.1080, 143.2002
343.3110, 131.1768
344.5140, 57.10742
345.7170, 23.99023
346.9200, 111.8242
348.1220, 23.39355
349.3240, 46.32812
350.5270, 7.998047
351.7290, 29.61523
352.9310, 106.8203
354.1320, 31.34082
355.3340, 63.07227
356.5350, 77.56445
357.7370, 18.28027
358.9380, 226.0625
360.1390, 48.03125
361.3400, 37.93555
362.5400, 62.98145
363.7410, 4.871094
364.9410, 37.35059
366.1410, 120.7041
367.3410, 100.1895
368.5410, 131.4697
369.7410, 42.63770
370.9400, 115.5371
372.1400, 79.59375
373.3390, 34.81738
374.5380, 33.17773
375.7370, 21.64062
376.9360, 7.800781
378.1350, 32.88184
379.3330, 17.60449
380.5310, 21.40234
381.7300, 68.27246
382.9280, 56.24316
384.1260, 60.30469
385.3230, 15.53613
386.5210, 67.31738
387.7180, 4.051758
388.9160, 167.7188
390.1130, 155.3359
391.3100, 267.9053
392.5060, 298.4268
393.7030, 275.9746
394.9000, 425.6250
396.0960, 517.0107
397.2920, 574.3525
398.4880, 594.6611
399.6840, 770.1689
400.8800, 893.1572
402.0750, 1114.829
403.2710, 1326.392
404.4660, 1901.189
405.6610, 2368.573
406.8560, 2878.447
408.0510, 2845.898
409.2450, 2368.033
410.4400, 1984.887
411.6340, 1710.641
412.8280, 1615.265
414.0220, 1625.280
415.2160, 1866.237
416.4100, 1773.948
417.6030, 1518.978
418.7970, 1146.922
419.9900, 846.5547
421.1830, 591.3691
422.3760, 359.8066
423.5690, 121.3672
424.7610, 149.3691
425.9540, 209.8662
427.1460, 163.2061
428.3380, 159.4639
429.5300, 72.91895
430.7220, 117.0742
431.9140, 56.13477
433.1050, 63.31348
434.2970, 154.0410
435.4880, 54.89160
436.6790, 122.6738
437.8700, 74.38574
439.0610, 167.0254
440.2510, 227.5977
441.4420, 248.7324
442.6320, 262.5410
443.8220, 287.1768
445.0120, 294.1465
446.2020, 190.3984
447.3910, 368.3701
448.5810, 490.9160
449.7700, 434.9756
450.9600, 631.2461
452.1490, 882.8545
453.3370, 933.7842
454.5260, 1075.042
455.7150, 1100.961
456.9030, 1079.663
458.0910, 1101.963
459.2800, 1073.168
460.4670, 1029.877
461.6550, 1183.565
462.8430, 1151.449
464.0300, 1348.514
465.2180, 1536.721
466.4050, 1795.219
467.5920, 2218.873
468.7790, 2983.183
469.9650, 3951.321
471.1520, 4882.143
472.3380, 6080.189
473.5250, 7409.154
474.7110, 9029.038
475.8970, 10990.85
477.0820, 12535.68
478.2680, 13155.39
479.4540, 12465.28
480.6390, 11001.79
481.8240, 8847.187
483.0090, 6899.286
484.1940, 5398.699
485.3780, 4090.303
486.5630, 3306.195
487.7470, 3022.940
488.9320, 2643.648
490.1160, 2392.819
491.3000, 2349.223
492.4830, 2472.867
493.6670, 2713.977
494.8500, 3126.318
496.0340, 3823.034
497.2170, 4648.375
498.4000, 5996.751
499.5820, 7402.970
500.7650, 9615.801
501.9480, 11598.48
503.1300, 14537.42
504.3120, 17416.70
505.4940, 19841.30
506.6760, 21155.07
507.8580, 20256.07
509.0390, 17320.76
510.2210, 14174.63
511.4020, 11018.44
512.5830, 8558.740
513.7640, 6348.379
514.9450, 4854.188
516.1250, 3881.754
517.3060, 3156.943
518.4860, 2623.295
519.6660, 2196.297
520.8460, 1765.621
522.0260, 1624.639
523.2060, 1366.883
524.3850, 1220.993
525.5650, 1064.331
526.7440, 943.7441
527.9230, 862.9746
529.1020, 654.7656
530.2810, 678.6250
531.4590, 675.7637
532.6380, 532.0449
533.8160, 471.3438
534.9940, 342.8516
536.1720, 306.5400
537.3500, 390.9619
538.5270, 390.6436
539.7050, 389.0537
540.8820, 305.3867
542.0590, 180.0352
543.2360, 259.3232
544.4130, 291.8809
545.5900, 226.3242
546.7660, 315.5371
547.9430, 187.3955
549.1190, 278.1113
550.2950, 115.9375
551.4710, 172.8428
552.6470, 184.9551
553.8220, 220.1152
554.9980, 115.3916
556.1730, 119.4326
557.3480, 174.4316
558.5230, 85.96875
559.6980, 95.19824
560.8730, 162.6094
562.0470, 109.2910
563.2220, 186.9697
564.3960, 145.6768
565.5700, 39.58887
566.7440, 372.3496
567.9170, 395.6338
569.0910, 404.2363
570.2640, 337.9971
571.4380, 392.8086
572.6110, 463.3896
573.7840, 465.5439
574.9570, 533.1025
576.1290, 806.9912
577.3020, 900.0332
578.4740, 835.2939
579.6460, 918.2266
580.8180, 587.4424
581.9900, 851.8604
583.1620, 435.2979
584.3330, 335.8662
585.5040, 240.3535
586.6760, 157.1621
587.8470, 209.1348
589.0180, 296.5703
590.1880, 160.0928
591.3590, 95.57422
592.5290, 29.71582
593.7000, 156.7500
594.8700, 64.44629
596.0400, 5.110352
597.2090, 179.6846
598.3790, 38.39648
599.5490, 81.56934
600.7180, 135.9287
601.8870, 127.0225
603.0560, 66.24512
604.2250, 32.00879
605.3940, 7.712891
606.5620, 8.310547
607.7300, 64.72266
608.8990, 132.4727
610.0670, 158.9736
611.2350, 220.1416
612.4020, 150.7373
613.5700, 155.2676
614.7370, 159.7324
615.9050, 162.1260
617.0720, 141.9414
618.2390, 155.3398
619.4060, 95.90137
620.5720, 161.0264
621.7390, 150.0859
622.9050, 139.0908
624.0710, 271.0332
625.2370, 407.9404
626.4030, 300.7891
627.5690, 237.5801
628.7340, 457.3105
629.9000, 470.9883
631.0650, 465.6133
632.2300, 604.1934
633.3950, 633.7188
634.5600, 633.2090
635.7240, 755.6406
636.8890, 506.0508
638.0530, 571.4336
639.2170, 749.7598
640.3810, 714.0586
641.5450, 890.5703
642.7080, 773.0312
643.8720, 927.9688
645.0350, 1014.148
646.1980, 781.4824
647.3610, 901.5801
648.5240, 832.6816
649.6870, 734.4453
650.8490, 705.5215
652.0120, 624.0156
653.1740, 553.3496
654.3360, 464.2715
655.4980, 391.5293
656.6600, 248.7832
657.8210, 126.4160
658.9830, 1.656250
660.1440, 168.9531
661.3050, 214.7949
662.4660, 86.89453
663.6270, 115.6484
664.7870, 22.36133
665.9480, 130.0273
667.1080, 67.65625
668.2680, 111.2188
669.4280, 223.7188
670.5880, 137.1641
671.7480, 76.54297
672.9070, 170.8535
674.0670, 137.0957
675.2260, 296.1953
676.3850, 28.08203
677.5440, 155.1133
678.7030, 31.92578
679.8610, 19.93555
681.0200, 123.4805
682.1780, 111.5742
683.3360, 132.4668
684.4940, 1.406250
685.6520, 6.292969
686.8090, 35.28711
687.9670, 44.66406
689.1240, 92.65820
690.2810, 12.18945
691.4380, 117.6152
692.5950, 116.4043
693.7520, 59.54883
694.9080, 4.060547
696.0650, 52.69141
697.2210, 175.1738
698.3770, 33.47070
699.5330, 30.12891
700.6880, 2.890625
701.8440, 75.53125
702.9990, 29.60156
704.1550, 7.457031
705.3100, 22.54688
706.4650, 122.9551
707.6190, 223.9141
708.7740, 168.2070
709.9290, 245.9668
711.0830, 136.1680
712.2370, 331.7773
713.3910, 240.7539
714.5450, 296.6738
715.6980, 73.50195
716.8520, 384.2617
718.0050, 351.0723
719.1580, 536.1523
720.3110, 407.4062
721.4640, 460.2520
722.6170, 383.7656
723.7700, 511.3477
724.9220, 325.2832
726.0740, 165.0684
727.2260, 215.1328
728.3780, 261.0977
729.5300, 238.5000
730.6810, 30.45898
731.8330, 89.08398
732.9840, 152.6719
734.1350, 54.08789
735.2860, 92.36133
736.4370, 334.9492
737.5880, 240.1133
738.7380, 108.0566
739.8880, 187.1172
741.0390, 145.0547
742.1890, 43.95508
743.3380, 234.0352
744.4880, 150.7148
745.6380, 359.1934
746.7870, 413.5117
747.9360, 222.6113
749.0850, 298.0469
750.2340, 513.8828
751.3830, 665.3320
752.5310, 657.2812
753.6800, 959.7520
754.8280, 1045.371
755.9760, 1170.068
757.1240, 1699.699
758.2720, 1969.936
759.4190, 2516.662
760.5670, 2659.029
761.7140, 3183.230
762.8610, 3536.355
764.0080, 3405.562
765.1550, 2824.812
766.3020, 2538.303
767.4480, 2111.326
768.5950, 1634.523
769.7410, 1376.387
770.8870, 995.6211
772.0330, 954.6270
773.1780, 660.6875
774.3240, 588.9473
775.4690, 625.1309
776.6140, 537.8867
777.7590, 696.1836
778.9040, 362.9648
780.0490, 376.5312
781.1940, 248.7910
782.3380, 430.2207
783.4820, 374.6875
784.6260, 456.7148
785.7700, 408.2832
786.9140, 246.2871
788.0580, 405.1016
789.2010, 320.2148
790.3450, 359.2891
791.4880, 482.2578
792.6310, 418.5801
793.7730, 382.6719
794.9160, 283.1191
796.0590, 483.6230
797.2010, 270.2793
798.3430, 554.8340
799.4850, 372.9961
800.6270, 476.1016
801.7690, 683.6484
802.9100, 524.1992
804.0520, 648.2676
805.1930, 821.0430
806.3340, 909.1348
807.4750, 1089.277
808.6160, 1298.400
809.7560, 1590.020
810.8970, 2104.334
812.0370, 2435.502
813.1770, 2706.996
814.3170, 2996.090
815.4570, 2954.637
816.5960, 2876.334
817.7360, 2338.992
818.8750, 1817.213
820.0140, 1498.670
821.1530, 1138.736
822.2920, 920.7949
823.4310, 687.9609
824.5690, 516.3652
825.7070, 617.7852
826.8460, 418.9746
827.9840, 295.9629
829.1220, 477.6191
830.2590, 451.1035
831.3970, 159.3516
832.5340, 471.7090
833.6710, 286.9844
834.8080, 316.5977
835.9450, 280.3945
837.0820, 357.8828
838.2190, 238.9785
839.3550, 141.9531
840.4910, 396.4863
841.6270, 176.6895
842.7630, 188.0293
843.8990, 300.9727
845.0350, 57.27930
846.1700, 69.28125
847.3060, 52.54102
848.4410, 322.2715
849.5760, 219.7637
850.7100, 216.8164
851.8450, 223.0430
852.9800, 222.2559
854.1140, 194.7812
855.2480, 373.0098
856.3820, 81.47852
857.5160, 139.8730
858.6500, 18.78711
859.7830, 390.3418
860.9170, 152.5371
862.0500, 328.3125
863.1830, 295.3691
864.3160, 150.5840
865.4480, 130.9336
866.5810, 134.1348
867.7130, 135.8613
868.8460, 254.0938
869.9780, 226.7793
871.1100, 217.6016
872.2410, 202.9473
873.3730, 130.2578
874.5050, 54.87695
875.6360, 232.3535
876.7670, 3.130859
877.8980, 164.1270
879.0290, 68.72266
880.1590, 79.25391
881.2900, 19.39062
882.4200, 228.3379
883.5500, 44.54883
884.6800, 65.32617
885.8100, 208.0820
886.9400, 49.94727
888.0690, 83.75586
889.1990, 185.5137
890.3280, 136.2266
891.4570, 80.89062
892.5860, 93.50391
893.7140, 30.06836
894.8430, 63.57617
895.9710, 12.96484
897.1000, 29.75391
898.2280, 51.25977
899.3560, 101.9688
900.4830, 46.14844
901.6110, 77.27148
902.7380, 94.34180
903.8660, 58.36719
904.9930, 99.33789
906.1200, 232.2539
907.2460, 18.87305
908.3730, 240.9219
909.5000, 175.6719
910.6260, 9.607422
911.7520, 274.0430
912.8780, 115.6562
914.0040, 10.23047
915.1290, 271.4941
916.2550, 72.77344
917.3800, 336.4746
918.5050, 226.8555
919.6300, 74.00391
920.7550, 167.2930
921.8800, 54.51367
923.0040, 73.01562
924.1290, 119.8672
925.2530, 56.87891
926.3770, 104.4199
927.5010, 22.23633
928.6250, 30.05664
929.7480, 24.41406
930.8720, 245.4199
931.9950, 58.95117
933.1180, 253.6016
934.2410, 16.88477
935.3640, 247.1035
936.4860, 128.5195
937.6090, 239.9004
938.7310, 44.73438
939.8530, 245.0449
940.9750, 167.3223
942.0970, 47.57031
943.2180, 148.7812
944.3400, 189.9551
945.4610, 100.1016
946.5820, 82.20898
947.7030, 145.2949
948.8240, 157.3730
949.9450, 205.4199
951.0650, 260.4395
952.1860, 238.4395
953.3060, 285.5957
954.4260, 286.3633
955.5460, 326.3164
956.6650, 370.2793
957.7850, 394.2227
958.9040, 705.1387
960.0230, 900.0312
961.1420, 822.9062
962.2610, 704.7930
963.3800, 959.2344
964.4990, 946.0723
965.6170, 1043.920
966.7350, 895.7930
967.8530, 811.5957
968.9710, 510.0039
970.0890, 981.5137
971.2070, 839.8555
972.3240, 697.5234
973.4410, 871.6836
974.5580, 857.4180
975.6750, 1072.096
976.7920, 977.9512
977.9090, 1182.840
979.0250, 1089.182
980.1410, 1084.125
981.2580, 889.2480
982.3740, 655.0742
983.4890, 707.4375
984.6050, 666.3516
985.7200, 343.2383
986.8360, 427.1328
987.9510, 383.0098
989.0660, 372.7559
990.1810, 410.1504
991.2950, 332.2891
992.4100, 538.7520
993.5240, 138.4668
994.6390, 518.7695
995.7530, 289.2324
996.8660, 421.4180
997.9800, 209.4570
999.0940, 296.8750
1000.207, 509.1992
1001.320, 485.5254
1002.433, 480.8730
1003.546, 725.7266
1004.659, 540.4551
1005.772, 969.1777
1006.884, 769.8301
1007.996, 849.1680
1009.108, 1093.680
1010.220, 1120.430
1011.332, 1140.043
1012.444, 1202.535
1013.555, 1036.574
1014.666, 1140.637
1015.777, 1017.473
1016.888, 886.1680
1017.999, 842.2891
1019.110, 694.1445
1020.220, 814.6953
1021.331, 541.3047
1022.441, 536.3633
1023.551, 621.8398
1024.661, 514.1016
1025.770, 569.1289
1026.880, 506.2031
1027.989, 548.3477
1029.098, 565.2031
1030.207, 751.2969
1031.316, 850.4414
1032.425, 659.1367
1033.533, 759.2266
1034.642, 488.7773
1035.750, 552.7617
1036.858, 519.8047
1037.966, 455.6133
1039.073, 506.6836
1040.181, 287.3047
1041.288, 316.0938
1042.396, 207.7578
1043.503, 245.2812
1044.610, 247.9180
1045.716, 408.4492
1046.823, 251.4375
1047.929, 285.0273
1049.036, 177.7695
1050.142, 80.74219
1051.248, 379.4766
1052.353, 256.1016
1053.459, 301.0977
1054.564, 294.7109
1055.670, 491.6016
1056.775, 236.6055
1057.880, 132.2383
1058.985, 397.8477
1060.089, 173.4961
1061.194, 365.7148
1062.298, 128.0742
1063.402, 297.4102
1064.506, 211.1055
1065.610, 54.26953
1066.713, 136.4062
1067.817, 134.4023
1068.920, 218.2188
1070.023, 162.4492
1071.126, 90.92969
1072.229, 322.6914
1073.332, 436.2734
1074.435, 58.35938
1075.537, 248.1016
1076.639, 179.4375
1077.741, 351.9570
1078.843, 245.1133
1079.945, 274.5391
1081.046, 311.9805
1082.148, 416.4180
1083.249, 574.0273
1084.350, 1033.637
1085.451, 1012.258
1086.551, 1459.875
1087.652, 1449.496
1088.752, 1172.129
1089.853, 1198.758
1090.953, 1278.844
1092.053, 1421.035
1093.152, 1736.020
1094.252, 1852.926
1095.351, 2416.578
1096.451, 2604.246
1097.550, 2519.914
1098.649, 2944.594
1099.748, 2951.277
1100.846, 2829.969
1101.945, 2611.672
1103.043, 2317.375
1104.141, 2377.090
1105.239, 2092.805
1106.337, 2032.539
1107.434, 1690.277
1108.532, 1460.027
1109.629, 1284.785
1110.726, 1321.559
1111.823, 1306.332
1112.920, 1448.129
1114.017, 1270.934
1115.113, 1304.762
1116.210, 1259.594
1117.306, 1114.438
1118.402, 1183.297
1119.498, 1024.164
1120.593, 1068.043
1121.689, 1134.934
1122.784, 886.8359
1123.879, 1065.754
1124.974, 521.6875
1126.069, 672.6484
1127.164, 697.6211
1128.259, 610.6094
1129.353, 164.6016
1130.447, 195.6094
1131.541, 202.6367
1132.635, 249.6758
1133.729, 361.7344
1134.822, 289.2422
1135.916, 174.3281
1137.009, 50.42578
1138.102, 283.5391
1139.195, 163.6680
1140.288, 182.8086
1141.380, 323.9961
1142.473, 115.1953
1143.565, 520.4258
1144.657, 229.6680
1145.749, 83.93359
1146.841, 89.21484
1147.932, 322.5234
1149.024, 291.8438
1150.115, 353.2031
1151.206, 122.6055
1152.297, 388.0273
1153.388, 221.4727
1154.479, 272.9336
1155.569, 54.41016
1156.659, 308.9102
1157.750, 331.4258
1158.839, 135.9609
1159.929, 373.5273
1161.019, 234.1914
1162.108, 237.7305
1163.198, 202.3750
1164.287, 118.0625
1165.376, 221.7695
1166.465, 12.50391
1167.553, 53.25000
1168.642, 291.0234
1169.730, 225.8164
1170.818, 80.62109
1171.906, 113.6406
1172.994, 41.28906
1174.082, 92.60547
1175.170, 14.26562
1176.257, 46.83203
1177.344, 18.92969
1178.431, 54.98438
1179.518, 142.9219
1180.605, 278.8867
1181.691, 193.8711
1182.778, 215.8672
1183.864, 262.8906
1184.950, 96.06641
1186.036, 337.9609
1187.122, 32.01172
1188.207, 215.1055
1189.292, 89.26953
1190.378, 60.47266
1191.463, 83.75000
1192.548, 392.0586
1193.632, 35.40234
1194.717, 24.23047
1195.801, 409.1484
1196.886, 382.8516
1197.970, 78.30078
1199.054, 179.9531
1200.137, 105.4570
1201.221, 153.9883
1202.305, 212.0547
1203.388, 310.6250
1204.471, 21.77734
1205.554, 302.8359
1206.637, 64.47266
1207.719, 162.1367
1208.802, 102.8242
1209.884, 62.46875
1210.966, 143.7578
1212.048, 172.9297
1213.130, 164.6328
1214.212, 166.3594
1215.293, 6.109375
1216.374, 179.8867
1217.456, 21.68750
1218.536, 123.5117
1219.617, 193.3594
1220.698, 183.2305
1221.778, 111.1211
1222.859, 39.74219
1223.939, 61.80859
1225.019, 130.1211
1226.099, 138.0781
1227.178, 309.0625
1228.258, 281.0664
1229.337, 256.0938
1230.417, 57.14453
1231.496, 157.2188
1232.574, 142.3203
1233.653, 68.44141
1234.732, 217.5859
1235.810, 356.7617
1236.888, 108.9570
1237.966, 193.1797
1239.044, 331.4258
1240.122, 351.6953
1241.199, 46.99219
1242.277, 409.3086
1243.354, 120.6562
1244.431, 436.0273
1245.508, 377.4219
1246.585, 289.8398
1247.661, 57.28516
1248.738, 190.7500
1249.814, 101.2578
1250.890, 104.7891
1251.966, 220.3516
1253.042, 372.9336
1254.117, 506.5430
1255.193, 84.17969
1256.268, 264.8359
1257.343, 122.5195
1258.418, 184.2305
1259.493, 266.9648
1260.567, 628.7266
1261.642, 355.5078
1262.716, 411.3203
1263.790, 114.8477
1264.864, 225.0039
1265.938, 207.8828
1267.011, 341.7891
1268.085, 174.7266
1269.158, 32.69531
1270.231, 193.6914
1271.304, 204.7188
1272.377, 393.7656
1273.450, 341.8398
1274.522, 385.9414
1275.594, 294.0664
1276.666, 124.2266
1277.738, 377.4062
1278.810, 319.6133
1279.882, 237.8477
1280.953, 519.1094
1282.025, 399.3945
1283.096, 335.7031
1284.167, 415.0430
1285.238, 159.4023
1286.308, 298.7852
1287.379, 288.2031
1288.449, 293.9688
1289.519, 446.4336
1290.589, 297.9258
1291.659, 9.445313
1292.729, 347.9844
1293.798, 289.7812
1294.868, 60.37891
1295.937, 440.0000
1297.006, 544.6445
1298.075, 247.3203
1299.143, 431.0195
1300.212, 8.257813
1301.280, 302.4844
1302.348, 320.2617
1303.416, 486.9258
1304.484, 348.7500
1305.552, 453.5820
1306.620, 374.6094
1307.687, 160.5039
1308.754, 497.4258
1309.821, 80.37500
1310.888, 43.34375
1311.955, 200.3398
1313.021, 59.36328
1314.088, 72.17578
1315.154, 250.2461
1316.220, 279.6523
1317.286, 439.7656
1318.352, 281.9141
1319.417, 348.8867
1320.483, 420.0898
1321.548, 239.2891
1322.613, 298.5156
1323.678, 278.7695
1324.743, 401.0391
1325.807, 129.3438
1326.872, 268.6719
1327.936, 216.0547
1329.000, 183.4570
1330.064, 361.8789
1331.128, 435.3477
1332.191, 470.8398
1333.255, 587.6523
1334.318, 532.5820
1335.381, 481.6445
1336.444, 410.3281
1337.507, 271.9297
1338.569, 148.2344
1339.632, 52.81250
1340.694, 46.96875
1341.756, 234.1875
1342.818, 59.91016
1343.880, 316.5547
1344.941, 257.3242
1346.003, 211.1211
1347.064, 438.9375
1348.125, 290.7852
1349.186, 284.6523
1350.247, 12.45703
1351.308, 241.1211
1352.368, 522.8164
1353.428, 505.7734
1354.489, 321.7578
1355.549, 560.7695
1356.608, 449.0664
1357.668, 243.8672
1358.727, 467.9492
1359.787, 409.0625
1360.846, 461.1953
1361.905, 256.3555
1362.964, 103.5391
1364.022, 103.7422
1365.081, 26.36328
1366.139, 151.2266
1367.197, 58.51172
1368.255, 239.8125
1369.313, 313.1367
1370.371, 261.4844
1371.428, 419.8477
1372.486, 164.2383
1373.543, 326.6523
1374.600, 133.2773
1375.657, 221.7461
1376.713, 311.1836
1377.770, 220.6953
1378.826, 285.2344
1379.882, 299.8008
1380.938, 312.3867
1381.994, 305.9961
1383.050, 358.5859
1384.106, 347.1836
1385.161, 272.7969
1386.216, 236.4375
1387.271, 349.0977
1388.326, 281.7891
1389.381, 395.5000
1390.435, 344.2891
1391.490, 252.0195
1392.544, 308.8047
1393.598, 169.5938
1394.652, 391.1523
1395.705, 39.01562
1396.759, 212.4336
1397.812, 314.3320
1398.866, 330.2578
1399.919, 160.2070
1400.972, 66.76172
1402.024, 150.9336
1403.077, 329.7695
1404.129, 471.8242
1405.181, 463.4766
1406.233, 452.4258
1407.285, 369.1797
1408.337, 314.3281
1409.389, 121.5078
1410.440, 168.7148
1411.491, 249.9414
1412.542, 63.14844
1413.593, 178.3867
1414.644, 44.35547
1415.695, 76.01953
1416.745, 215.3281
1417.795, 135.2109
1418.845, 311.5703
1419.895, 10.98047
1420.945, 163.2891
1421.995, 116.8945
1423.044, 197.7031
1424.093, 82.27734
1425.142, 581.5312
1426.191, 156.1523
1427.240, 224.2344
1428.289, 439.1328
1429.337, 134.9414
1430.385, 185.2617
1431.433, 234.5938
1432.481, 265.9414
1433.529, 292.2734
1434.577, 368.6211
1435.624, 343.9336
1436.672, 318.3789
1437.719, 552.2656
1438.766, 136.6367
1439.812, 218.9258
1440.859, 212.4141
1441.905, 130.3203
1442.952, 104.0469
1443.998, 365.6133
1445.044, 77.32422
1446.090, 298.4141
1447.135, 259.0273
1448.181, 53.33984
1449.226, 214.6992
1450.271, 293.0859
1451.316, 601.5117
1452.361, 211.9648
1453.405, 209.4531
1454.450, 259.9766
1455.494, 117.5352
1456.538, 353.1797
1457.582, 39.88281
1458.626, 195.6133
1459.670, 42.37500
1460.713, 210.1680
1461.757, 113.7500
1462.800, 183.6328
1463.843, 172.5625
1464.886, 259.5273
1465.928, 69.51953
1466.971, 482.5508
1468.013, 545.6172
1469.055, 27.28516
1470.097, 316.8477
1471.139, 79.00781
1472.181, 529.2109
1473.222, 334.4453
1474.263, 170.7031
1475.305, 368.9688
1476.346, 185.2617
1477.386, 176.5938
1478.427, 187.9531
1479.468, 443.3555
1480.508, 340.7852
1481.548, 127.2539
1482.588, 408.7305
1483.628, 242.2109
1484.668, 247.7031
1485.707, 365.2227
1486.747, 419.7734
1487.786, 177.3477
1488.825, 219.9453
1489.864, 230.5664
1490.902, 388.2266
1491.941, 226.9141
1492.979, 319.6367
1494.017, 67.25391
1495.055, 141.0000
1496.093, 80.39844
1497.131, 352.1992
1498.168, 74.01953
1499.206, 26.87500
1500.243, 436.7656
1501.280, 51.32031
1502.317, 329.6328
1503.354, 166.6211
1504.390, 410.6523
1505.426, 497.7188
1506.463, 196.8242
1507.499, 353.6562
1508.535, 239.6484
1509.570, 304.0859
1510.606, 235.1367
1511.641, 191.2344
1512.676, 351.3789
1513.711, 277.5703
1514.746, 110.8047
1515.781, 101.9102
1516.816, 237.4219
1517.850, 7.199219
1518.884, 39.77734
1519.918, 242.6836
1520.952, 19.97266
1521.986, 229.4727
1523.019, 261.0078
1524.053, 279.5898
1525.086, 30.21094
1526.119, 133.8633
1527.152, 3.554688
1528.185, 343.2852
1529.217, 178.0547
1530.250, 320.8711
1531.282, 401.7266
1532.314, 416.6289
1533.346, 212.6289
1534.377, 468.6914
1535.409, 573.1602
1536.440, 259.7734
1537.472, 353.6289
1538.503, 230.5078
1539.534, 210.5859
1540.564, 248.0859
1541.595, 113.6562
1542.625, 420.2969
1543.656, 188.9062
1544.686, 618.9570
1545.716, 141.0977
1546.745, 100.2734
1547.775, 165.9805
1548.804, 292.4023
1549.834, 161.8672
1550.863, 509.3438
1551.892, 111.7930
1552.920, 139.8906
1553.949, 310.9297
1554.977, 559.8867
1556.006, 479.0703
1557.034, 348.3281
1558.062, 369.5781
1559.089, 385.6094
1560.117, 267.0430
1561.144, 167.4414
1562.172, 283.7852
1563.199, 312.5820
1564.226, 277.8828
1565.252, 672.2695
1566.279, 305.0117
1567.305, 1.976563
1568.332, 389.1445
1569.358, 0.4257810
1570.384, 0.0000000E+00
##END=



