##NAMES=Albite
##RRUFFID=R040129
##IDEAL CHEMISTRY=NaAlSi_3_O_8_
##LOCALITY=LaChance Quarry, Brunswick, Cumberland County, Maine, USA
##OWNER=RRUFF
##SOURCE=Bob Downs
##DESCRIPTION=Colorless fragment of a tabular single crystal
##STATUS=The identification of this mineral has been confirmed by X-ray diffraction and chemical analysis
##URL=rruff.info/R040129
##MEASURED CHEMISTRY=(Na_0.99_K_0.01_)Al_1.00_Si_3.00_O_8_
##PIN_ID=L00347
##ORIENTATION=Laser parallel to (-1 -1 0). Fiducial mark perpendicular to laser is parallel to -c [0 0 -1]
106.423, 0.000
107.817, 1110.656
109.210, 2561.390
110.603, 4716.967
111.996, 6428.146
113.388, 7760.642
114.780, 6496.811
116.172, 3619.106
117.564, 1885.150
118.956, 1161.968
120.347, 505.399
121.738, 104.373
123.129, 11.889
124.519, 95.975
125.910, 82.549
127.300, 12.102
128.690, 160.459
130.080, 59.435
131.469, 171.497
132.858, 75.484
134.248, 341.187
135.636, 298.427
137.025, 457.282
138.413, 627.667
139.801, 989.271
141.189, 1282.080
142.577, 1656.076
143.964, 2071.140
145.352, 2507.150
146.739, 2734.002
148.125, 3141.607
149.512, 3399.879
150.898, 3138.747
152.284, 2378.146
153.670, 1788.030
155.056, 1238.349
156.441, 1149.066
157.827, 1140.157
159.212, 1351.593
160.596, 1713.350
161.981, 2035.409
163.365, 2347.753
164.749, 3140.361
166.133, 4053.403
167.517, 5125.330
168.900, 6699.423
170.283, 7024.147
171.666, 6278.922
173.049, 4654.653
174.431, 3611.167
175.813, 3018.751
177.195, 2936.945
178.577, 3005.253
179.959, 3203.486
181.340, 3611.645
182.721, 3969.730
184.102, 4047.750
185.483, 3945.709
186.863, 3733.609
188.244, 3301.475
189.624, 2849.284
191.003, 2456.934
192.383, 2234.507
193.762, 1802.003
195.141, 1849.437
196.520, 1646.816
197.899, 1764.156
199.277, 1851.448
200.656, 2208.667
202.034, 2655.846
203.411, 3543.035
204.789, 4700.240
206.166, 5997.467
207.543, 7194.711
208.920, 7061.983
210.297, 6189.279
211.673, 4536.600
213.049, 3253.951
214.425, 2121.328
215.801, 1278.732
217.176, 1066.164
218.552, 823.624
219.927, 501.110
221.302, 388.620
222.676, 186.153
224.051, 47.782
225.425, 50.680
226.799, 112.794
228.173, 220.917
229.546, 8.206
230.919, 20.357
232.292, 37.760
233.665, 14.010
235.038, 64.611
236.410, 31.059
237.782, 1.594
239.154, 22.205
240.526, 226.121
241.898, 67.395
243.269, 233.891
244.640, 607.066
246.011, 571.598
247.381, 1046.264
248.752, 1366.273
250.122, 1812.701
251.492, 2018.426
252.861, 1734.178
254.231, 1369.959
255.600, 935.770
256.969, 891.605
258.338, 767.455
259.707, 1003.314
261.075, 1219.184
262.443, 1425.061
263.811, 1740.943
265.179, 2316.832
266.546, 3162.725
267.914, 4088.711
269.281, 3706.500
270.647, 3563.766
272.014, 2994.852
273.380, 2237.982
274.747, 1862.443
276.113, 1578.055
277.478, 1332.705
278.844, 1527.660
280.209, 1592.844
281.574, 2278.100
282.939, 2673.281
284.304, 3888.742
285.668, 5484.449
287.032, 7740.379
288.396, 9745.936
289.760, 10922.238
291.123, 10665.988
292.487, 9022.598
293.850, 6963.865
295.212, 4850.730
296.575, 3507.707
297.937, 2464.781
299.300, 1841.949
300.662, 1419.203
302.023, 1106.533
303.385, 773.936
304.746, 561.402
306.107, 488.928
307.468, 496.504
308.829, 434.127
310.189, 271.797
311.549, 349.502
312.909, 137.244
314.269, 175.020
315.629, 112.822
316.988, 110.654
318.347, 118.508
319.706, 166.385
321.065, 332.711
322.423, 513.434
323.781, 780.125
325.139, 1128.070
326.497, 1446.029
327.855, 1472.359
329.212, 1721.982
330.569, 1359.971
331.926, 907.924
333.283, 565.883
334.639, 333.838
335.995, 241.791
337.351, 89.738
338.707, 22.324
340.063, 115.588
341.418, 36.518
342.773, 81.342
344.128, 80.818
345.483, 136.977
346.837, 45.246
348.192, 282.496
349.546, 0.221
350.899, 47.922
352.253, 125.607
353.606, 33.279
354.960, 89.068
356.313, 98.547
357.665, 56.148
359.018, 73.781
360.370, 93.777
361.722, 100.961
363.074, 3.363
364.426, 25.768
365.777, 168.197
367.128, 40.697
368.479, 93.227
369.830, 14.219
371.181, 22.678
372.531, 100.875
373.881, 133.457
375.231, 86.094
376.581, 218.785
377.930, 71.561
379.280, 134.371
380.629, 22.754
381.977, 70.092
383.326, 62.990
384.674, 55.939
386.023, 111.137
387.370, 188.170
388.718, 5.203
390.066, 239.096
391.413, 96.029
392.760, 262.918
394.107, 169.883
395.454, 476.859
396.800, 393.635
398.146, 490.521
399.492, 607.344
400.838, 754.803
402.184, 831.428
403.529, 1298.182
404.874, 2104.588
406.219, 3020.846
407.564, 3377.014
408.908, 2683.082
410.252, 2079.098
411.596, 1695.076
412.940, 1861.041
414.284, 2176.990
415.627, 2582.926
416.970, 2498.848
418.313, 1454.754
419.656, 1130.645
420.999, 626.521
422.341, 402.387
423.683, 368.232
425.025, 174.062
426.367, 349.877
427.708, 85.678
429.049, 241.451
430.390, 107.207
431.731, 272.932
433.072, 268.635
434.412, 164.342
435.752, 140.264
437.092, 115.953
438.432, 511.619
439.772, 327.273
441.111, 312.916
442.450, 558.623
443.789, 444.240
445.127, 519.984
446.466, 725.785
447.804, 871.352
449.142, 1086.904
450.480, 1582.438
451.817, 2188.227
453.155, 3183.732
454.492, 3989.217
455.829, 4524.883
457.166, 3980.346
458.502, 3355.783
459.838, 2911.197
461.175, 2316.586
462.510, 2141.949
463.846, 2147.285
465.181, 2112.594
466.517, 2397.879
467.852, 2613.133
469.186, 3368.361
470.521, 4443.559
471.855, 6188.730
473.190, 8523.871
474.523, 12128.980
475.857, 16564.062
477.191, 20979.119
478.524, 22424.141
479.857, 20189.139
481.190, 15564.098
482.523, 11049.027
483.855, 7943.930
485.187, 5798.797
486.519, 4093.637
487.851, 3858.445
489.183, 3183.221
490.514, 2787.963
491.845, 2952.674
493.176, 2717.355
494.507, 2942.004
495.837, 3416.619
497.168, 3881.203
498.498, 5265.754
499.828, 6817.359
501.157, 9451.844
502.487, 13252.410
503.816, 19206.834
505.145, 24834.604
506.474, 28249.230
507.802, 27298.883
509.131, 22203.176
510.459, 16555.949
511.787, 11861.094
513.115, 8455.293
514.442, 6509.391
515.770, 5068.410
517.097, 4092.748
518.424, 3237.896
519.750, 2811.691
521.077, 2345.240
522.403, 2092.221
523.729, 2229.463
525.055, 1481.150
526.381, 1381.859
527.706, 1392.754
529.031, 964.428
530.356, 1154.354
531.681, 971.367
533.006, 1190.793
534.330, 806.127
535.654, 831.070
536.978, 678.850
538.302, 768.840
539.625, 551.332
540.949, 756.129
542.272, 442.010
543.595, 617.857
544.917, 391.873
546.240, 524.967
547.562, 428.627
548.884, 334.121
550.206, 677.410
551.527, 332.787
552.849, 476.010
554.170, 277.506
555.491, 340.957
556.812, 444.076
558.132, 437.158
559.453, 181.141
560.773, 564.584
562.093, 227.559
563.412, 350.502
564.732, 283.406
566.051, 376.279
567.370, 319.121
568.689, 302.127
570.008, 584.914
571.326, 727.676
572.644, 851.268
573.963, 1035.406
575.280, 1155.797
576.598, 1278.457
577.915, 1431.098
579.233, 1493.961
580.550, 1336.537
581.866, 1029.084
583.183, 881.596
584.499, 553.990
585.815, 706.443
587.131, 626.990
588.447, 679.377
589.763, 350.361
591.078, 382.688
592.393, 504.986
593.708, 216.922
595.022, 328.396
596.337, 289.273
597.651, 401.443
598.965, 370.871
600.279, 245.689
601.593, 327.781
602.906, 228.502
604.219, 211.869
605.532, 283.863
606.845, 315.826
608.158, 342.949
609.470, 199.662
610.782, 371.529
612.094, 303.367
613.406, 215.174
614.718, 406.947
616.029, 298.693
617.340, 520.404
618.651, 352.109
619.962, 383.783
621.272, 775.428
622.582, 487.041
623.892, 968.625
625.202, 820.176
626.512, 761.697
627.821, 973.189
629.131, 674.654
630.440, 816.090
631.749, 897.494
633.057, 628.873
634.366, 710.219
635.674, 501.535
636.982, 812.826
638.290, 634.086
639.597, 845.318
640.905, 986.521
642.212, 1137.697
643.519, 1498.844
644.825, 1659.963
646.132, 1771.057
647.438, 1702.121
648.744, 1363.156
650.050, 1424.166
651.356, 1165.148
652.662, 876.102
653.967, 957.031
655.272, 457.932
656.577, 798.807
657.882, 429.670
659.186, 320.508
660.490, 271.336
661.794, 272.137
663.098, 152.945
664.402, 333.725
665.705, 224.500
667.009, 105.250
668.312, 65.980
669.614, 346.674
670.917, 87.344
672.219, 27.984
673.522, 148.611
674.824, 120.787
676.125, 259.693
677.427, 89.850
678.728, 40.502
680.030, 39.148
681.331, 31.133
682.631, 151.393
683.932, 21.688
685.232, 48.039
686.532, 77.811
687.832, 67.666
689.132, 27.594
690.432, 2.453
691.731, 172.496
693.030, 42.559
694.329, 17.340
695.628, 52.738
696.926, 167.164
698.224, 72.805
699.522, 142.787
700.820, 237.219
702.118, 232.635
703.415, 117.527
704.713, 47.805
706.010, 221.867
707.307, 318.479
708.603, 200.965
709.900, 249.611
711.196, 79.637
712.492, 148.863
713.788, 318.074
715.083, 27.266
716.379, 45.650
717.674, 424.793
718.969, 133.699
720.264, 482.809
721.558, 281.902
722.853, 380.979
724.147, 82.283
725.441, 531.328
726.735, 171.277
728.028, 260.293
729.322, 209.293
730.615, 243.744
731.908, 172.715
733.201, 434.000
734.493, 52.941
735.785, 511.871
737.078, 230.785
738.370, 249.686
739.661, 238.572
740.953, 537.449
742.244, 196.316
743.535, 295.607
744.826, 594.457
746.117, 283.303
747.407, 722.135
748.698, 590.957
749.988, 709.553
751.278, 1058.361
752.567, 897.166
753.857, 1665.961
755.146, 1784.744
756.435, 1996.754
757.724, 3035.520
759.013, 4144.135
760.301, 5862.672
761.590, 7211.412
762.878, 7450.145
764.165, 7348.871
765.453, 5537.316
766.741, 4116.027
768.028, 3274.734
769.315, 2073.252
770.602, 1761.943
771.888, 1500.629
773.175, 1333.785
774.461, 1052.461
775.747, 981.129
777.033, 769.795
778.319, 598.457
779.604, 457.111
780.889, 397.475
782.174, 374.412
783.459, 423.057
784.744, 411.695
786.028, 570.334
787.312, 558.965
788.596, 127.598
789.880, 816.229
791.164, 204.854
792.447, 473.480
793.730, 592.104
795.013, 250.727
796.296, 439.346
797.579, 397.967
798.861, 806.586
800.143, 685.205
801.425, 433.826
802.707, 1192.445
803.989, 961.064
805.270, 1499.686
806.551, 1818.309
807.832, 2006.932
809.113, 3035.555
810.394, 4034.182
811.674, 5362.811
812.954, 6941.443
814.234, 7300.080
815.514, 7418.717
816.794, 5907.359
818.073, 4725.732
819.352, 3724.379
820.631, 2783.031
821.910, 2164.188
823.189, 1498.279
824.467, 1256.945
825.745, 1164.748
827.023, 890.832
828.301, 819.273
829.578, 766.355
830.856, 685.051
832.133, 774.184
833.410, 491.012
834.687, 623.430
835.963, 700.008
837.240, 458.566
838.516, 554.840
839.792, 426.938
841.068, 217.219
842.343, 788.199
843.618, 321.762
844.894, 447.266
846.169, 536.039
847.443, 363.559
848.718, 408.016
849.992, 325.938
851.266, 211.117
852.540, 209.523
853.814, 508.324
855.088, 639.312
856.361, 548.258
857.634, 426.895
858.907, 569.984
860.180, 668.980
861.453, 815.234
862.725, 654.262
863.997, 637.180
865.269, 653.770
866.541, 362.863
867.812, 411.973
869.084, 210.188
870.355, 338.926
871.626, 368.121
872.897, 217.332
874.167, 16.574
875.438, 345.840
876.708, 104.875
877.978, 514.230
879.248, 56.457
880.517, 52.875
881.787, 542.234
883.056, 198.387
884.325, 370.977
885.594, 109.570
886.862, 389.887
888.130, 509.117
889.399, 238.637
890.667, 528.180
891.934, 197.758
893.202, 447.359
894.469, 486.988
895.737, 33.355
897.004, 346.328
898.270, 226.039
899.537, 245.785
900.803, 245.559
902.070, 175.367
903.336, 645.207
904.601, 115.078
905.867, 274.973
907.132, 464.902
908.398, 145.141
909.663, 334.824
910.928, 434.812
912.192, 184.828
913.457, 364.879
914.721, 394.961
915.985, 295.078
917.249, 505.230
918.512, 55.406
919.776, 45.617
921.039, 295.855
922.302, 76.125
923.565, 416.422
924.827, 183.250
926.090, 347.090
927.352, 177.453
928.614, 77.848
929.876, 308.270
931.138, 388.695
932.399, 169.152
933.660, 209.633
934.922, 170.141
936.182, 700.680
937.443, 51.242
938.704, 61.832
939.964, 512.457
941.224, 123.105
942.484, 743.781
943.744, 334.492
945.003, 105.227
946.262, 635.996
947.521, 116.797
948.780, 637.625
950.039, 398.484
951.298, 339.379
952.556, 510.297
953.814, 491.254
955.072, 372.238
956.330, 513.262
957.587, 34.320
958.845, 465.410
960.102, 226.531
961.359, 377.688
962.615, 418.879
963.872, 230.105
965.128, 261.367
966.384, 232.668
967.640, 44.004
968.896, 515.371
970.152, 396.777
971.407, 198.223
972.662, 779.703
973.917, 601.227
975.172, 1002.793
976.427, 624.395
977.681, 786.043
978.935, 1007.738
980.189, 529.473
981.443, 581.305
982.697, 413.164
983.950, 405.113
985.203, 337.242
986.456, 659.309
987.709, 161.418
988.962, 463.570
990.214, 175.773
991.467, 308.047
992.719, 140.395
993.971, 322.820
995.222, 365.527
996.474, 218.074
997.725, 580.664
998.976, 754.332
1000.227, 707.031
1001.478, 1209.777
1002.728, 1176.613
1003.978, 1169.504
1005.229, 1132.438
1006.479, 535.492
1007.728, 888.594
1008.978, 611.805
1010.227, 1045.062
1011.476, 1478.711
1012.725, 1232.156
1013.974, 1635.648
1015.223, 1499.270
1016.471, 892.934
1017.719, 1536.652
1018.967, 673.590
1020.215, 1237.406
1021.462, 1041.527
1022.710, 635.449
1023.957, 1199.418
1025.204, 833.438
1026.451, 1027.508
1027.697, 1069.391
1028.944, 513.824
1030.190, 1327.137
1031.436, 572.160
1032.682, 816.504
1033.928, 1025.430
1035.173, 796.266
1036.418, 438.445
1037.663, 923.555
1038.908, 319.215
1040.153, 993.875
1041.398, 629.086
1042.642, 973.801
1043.886, 1028.570
1045.130, 663.434
1046.374, 1018.844
1047.617, 683.789
1048.860, 719.488
1050.104, 1084.492
1051.347, 581.156
1052.589, 906.281
1053.832, 1071.469
1055.074, 376.715
1056.316, 862.000
1057.558, 627.359
1058.800, 839.027
1060.042, 773.961
1061.283, 669.059
1062.524, 884.207
1063.765, 749.168
1065.006, 396.672
1066.247, 981.566
1067.487, 676.449
1068.728, 321.316
1069.968, 986.160
1071.208, 661.824
1072.447, 1036.660
1073.687, 971.273
1074.926, 536.238
1076.165, 1320.652
1077.404, 594.973
1078.643, 1039.711
1079.881, 1378.461
1081.120, 992.840
1082.358, 1337.285
1083.596, 1411.801
1084.834, 1346.379
1086.071, 1921.027
1087.309, 1355.750
1088.546, 1750.535
1089.783, 2315.395
1091.020, 1890.320
1092.256, 2785.324
1093.493, 2680.398
1094.729, 3685.543
1095.965, 3990.762
1097.201, 3986.055
1098.436, 4331.422
1099.672, 4496.867
1100.907, 3392.391
1102.142, 3657.988
1103.377, 3013.664
1104.612, 2359.410
1105.846, 2585.242
1107.081, 1721.145
1108.315, 2427.125
1109.549, 1753.188
1110.782, 1599.316
1112.016, 1855.523
1113.249, 991.809
1114.483, 1508.148
1115.716, 1554.543
1116.948, 940.984
1118.181, 1177.500
1119.413, 1134.086
1120.646, 1640.730
1121.878, 1727.445
1123.110, 794.223
1124.341, 951.027
1125.573, 787.887
1126.804, 464.816
1128.035, 601.816
1129.266, 608.898
1130.497, 226.043
1131.727, 803.215
1132.957, 10.371
1134.188, 407.562
1135.418, 834.801
1136.647, 242.098
1137.877, 659.445
1139.106, 706.840
1140.335, 234.258
1141.564, 701.723
1142.793, 39.242
1144.022, 346.871
1145.250, 754.562
1146.479, 27.703
1147.707, 930.090
1148.934, 367.949
1150.162, 104.125
1151.390, 773.883
1152.617, 171.992
1153.844, 750.242
1155.071, 478.664
1156.298, 157.199
1157.524, 1135.863
1158.751, 94.648
1159.977, 763.562
1161.203, 572.598
1162.428, 381.766
1163.654, 581.059
1164.879, 540.480
1166.105, 59.969
1167.330, 819.715
1168.555, 179.535
1169.779, 389.488
1171.004, 899.578
1172.228, 299.805
1173.452, 330.180
1174.676, 680.699
1175.900, 231.371
1177.123, 772.195
1178.346, 133.180
1179.570, 874.328
1180.793, 645.219
1182.015, 233.285
1183.238, 878.406
1184.460, 230.301
1185.683, 121.645
1186.905, 890.156
1188.126, 272.586
1189.348, 709.613
1190.569, 772.012
1191.791, 404.531
1193.012, 195.867
1194.233, 558.883
1195.453, 282.129
1196.674, 910.117
1197.894, 121.906
1199.114, 1025.098
1200.334, 668.469
1201.554, 570.547
1202.774, 719.641
1203.993, 953.195
1205.212, 434.973
1206.431, 850.484
1207.650, 422.375
1208.869, 427.828
1210.087, 883.391
1211.305, 38.801
1212.524, 872.887
1213.741, 589.441
1214.959, 612.504
1216.177, 1086.789
1217.394, 314.379
1218.611, 989.887
1219.828, 554.059
1221.045, 6.359
1222.261, 1131.113
1223.478, 635.078
1224.694, 32.980
1225.910, 0.000
##END=



