##NAMES=Albite
##RRUFFID=R040129
##IDEAL CHEMISTRY=NaAlSi_3_O_8_
##LOCALITY=LaChance Quarry, Brunswick, Cumberland County, Maine, USA
##OWNER=RRUFF
##SOURCE=Bob Downs
##DESCRIPTION=Colorless fragment of a tabular single crystal
##STATUS=The identification of this mineral has been confirmed by X-ray diffraction and chemical analysis
##URL=rruff.info/R040129
##MEASURED CHEMISTRY=(Na_0.99_K_0.01_)Al_1.00_Si_3.00_O_8_
##PIN_ID=L00331
##ORIENTATION=Laser parallel to (1 0 1). Fiducial mark perpendicular to laser is parallel to -b [0 -1 0]
123.129, 0.000
124.519, 6.541
125.910, 6.559
127.300, 121.779
128.690, 14.341
130.080, 186.899
131.469, 36.946
132.858, 362.845
134.248, 413.304
135.636, 347.351
137.025, 724.324
138.413, 834.168
139.801, 1356.476
141.189, 1720.701
142.577, 2406.461
143.964, 3333.463
145.352, 4031.480
146.739, 5140.340
148.125, 5829.906
149.512, 6610.158
150.898, 6241.779
152.284, 5156.227
153.670, 3361.880
155.056, 1937.436
156.441, 1212.980
157.827, 658.555
159.212, 694.150
160.596, 659.756
161.981, 685.362
163.365, 800.968
164.749, 826.566
166.133, 882.151
167.517, 987.720
168.900, 1403.271
170.283, 1628.813
171.666, 1804.355
173.049, 2089.903
174.431, 2055.830
175.813, 2312.497
177.195, 2677.654
178.577, 3243.286
179.959, 3628.865
181.340, 4523.510
182.721, 5168.119
184.102, 5512.297
185.483, 5567.971
186.863, 5562.078
188.244, 4957.557
189.624, 4253.425
191.003, 3459.419
192.383, 2735.354
193.762, 2291.229
195.141, 2017.040
196.520, 1752.793
197.899, 1598.491
199.277, 1554.140
200.656, 1739.762
202.034, 1955.357
203.411, 2330.912
204.789, 3056.424
206.166, 3821.891
207.543, 4507.286
208.920, 4792.645
210.297, 4477.987
211.673, 3773.326
213.049, 2628.668
214.425, 1894.021
215.801, 1409.387
217.176, 864.770
218.552, 730.170
219.927, 385.927
221.302, 451.359
222.676, 156.813
224.051, 102.279
225.425, 2.237
226.799, 33.261
228.173, 11.227
229.546, 24.949
230.919, 60.159
232.292, 54.607
233.665, 39.046
235.038, 103.478
236.410, 127.909
237.782, 172.340
239.154, 55.043
240.526, 47.799
241.898, 47.816
243.269, 137.884
244.640, 139.352
246.011, 638.163
247.381, 970.555
248.752, 960.316
250.122, 1238.945
251.492, 1324.916
252.861, 1370.299
254.231, 1023.681
255.600, 798.951
256.969, 606.335
258.338, 561.005
259.707, 585.493
261.075, 749.954
262.443, 914.343
263.811, 1278.620
265.179, 1752.873
266.546, 2147.135
267.914, 2451.411
269.281, 2452.793
270.647, 2680.006
272.014, 2134.320
273.380, 1808.644
274.747, 1412.977
276.113, 1127.317
277.478, 843.635
278.844, 877.974
280.209, 952.320
281.574, 1086.676
282.939, 1481.037
284.304, 1735.406
285.668, 2669.781
287.032, 3474.166
288.396, 4667.683
289.760, 5611.180
291.123, 5805.197
292.487, 5549.666
293.850, 3984.393
295.212, 3359.327
296.575, 2304.432
297.937, 1619.677
299.300, 1195.044
300.662, 1010.514
302.023, 606.071
303.385, 621.702
304.746, 487.396
306.107, 413.142
307.468, 318.933
308.829, 314.763
310.189, 200.628
311.549, 236.521
312.909, 212.441
314.269, 18.385
315.629, 174.342
316.988, 60.302
318.347, 116.260
319.706, 32.216
321.065, 138.167
322.423, 264.115
323.781, 240.062
325.139, 736.005
326.497, 991.943
327.855, 1347.880
329.212, 1283.812
330.569, 1069.740
331.926, 665.665
333.283, 411.586
334.639, 457.503
335.995, 353.414
337.351, 219.323
338.707, 175.226
340.063, 51.115
341.418, 166.955
342.773, 102.743
344.128, 128.391
345.483, 93.933
346.837, 149.426
348.192, 74.925
349.546, 200.423
350.899, 155.919
352.253, 11.410
353.606, 116.888
354.960, 12.370
356.313, 87.840
357.665, 43.313
359.018, 131.222
360.370, 54.195
361.722, 49.606
363.074, 14.988
364.426, 109.603
365.777, 4.231
367.128, 41.123
368.479, 43.495
369.830, 31.860
371.181, 7.230
372.531, 117.397
373.881, 7.930
375.231, 106.758
376.581, 28.515
377.930, 63.777
379.280, 90.922
380.629, 44.338
381.977, 70.385
383.326, 54.855
384.674, 99.908
386.023, 75.313
387.370, 0.537
388.718, 75.623
390.066, 110.824
391.413, 65.652
392.760, 130.055
394.107, 332.938
395.454, 336.081
396.800, 649.910
398.146, 790.529
399.492, 759.789
400.838, 596.421
402.184, 519.496
403.529, 592.881
404.874, 605.988
406.219, 1081.139
407.564, 1126.212
408.908, 1121.285
410.252, 976.323
411.596, 1221.290
412.940, 1496.201
414.284, 1981.105
415.627, 2735.958
416.970, 2440.769
418.313, 2085.531
419.656, 1300.294
420.999, 765.054
422.341, 619.811
423.683, 354.566
425.025, 199.320
426.367, 84.072
427.708, 178.824
429.049, 6.428
430.390, 108.312
431.731, 263.053
433.072, 87.789
434.412, 132.523
435.752, 137.258
437.092, 321.990
438.432, 346.721
439.772, 191.439
441.111, 526.154
442.450, 560.871
443.789, 505.582
445.127, 770.293
446.466, 885.033
447.804, 1129.812
449.142, 1734.516
450.480, 1909.223
451.817, 3154.066
453.155, 3938.777
454.492, 5343.484
455.829, 5918.188
457.166, 5912.887
458.502, 5287.580
459.838, 4012.268
461.175, 3286.949
462.510, 2421.623
463.846, 2236.287
465.181, 2100.945
466.517, 1945.594
467.852, 2420.236
469.186, 2644.869
470.521, 3419.490
471.855, 4614.102
473.190, 6268.703
474.523, 8783.297
475.857, 11887.680
477.191, 15572.250
478.524, 17506.814
479.857, 16561.367
481.190, 14085.904
482.523, 10060.438
483.855, 7564.957
485.187, 5199.469
486.519, 4373.967
487.851, 3268.459
489.183, 2602.936
490.514, 2527.404
491.845, 2201.863
493.176, 2416.311
494.507, 2520.746
495.837, 2545.174
497.168, 3339.588
498.498, 3953.994
499.828, 5218.389
501.157, 7082.773
502.487, 10077.146
503.816, 14511.512
505.145, 18411.773
506.474, 22806.117
507.802, 22231.279
509.131, 19535.604
510.459, 15799.918
511.787, 11034.223
513.115, 8377.299
514.442, 6184.053
515.770, 4747.119
517.097, 3703.408
518.424, 2897.432
519.750, 2511.893
521.077, 2176.049
522.403, 2010.119
523.729, 1611.582
525.055, 1453.828
526.381, 1535.688
527.706, 1107.305
529.031, 1086.645
530.356, 995.656
531.681, 881.492
533.006, 946.111
534.330, 698.555
535.654, 674.367
536.978, 727.656
538.302, 591.518
539.625, 677.672
540.949, 436.984
542.272, 414.377
543.595, 389.098
544.917, 490.836
546.240, 406.521
547.562, 437.785
548.884, 592.281
550.206, 376.318
551.527, 342.928
552.849, 186.949
554.170, 234.461
555.491, 398.984
556.812, 303.014
558.132, 112.406
559.453, 286.467
560.773, 210.559
562.093, 344.936
563.412, 209.023
564.732, 255.559
566.051, 259.637
567.370, 218.889
568.689, 272.943
570.008, 386.992
571.326, 283.102
572.644, 707.127
573.963, 451.146
575.280, 765.152
576.598, 919.152
577.915, 726.736
579.233, 1160.715
580.550, 704.686
581.866, 1078.648
583.183, 552.598
584.499, 566.539
585.815, 460.473
587.131, 284.395
588.447, 156.490
589.763, 310.430
591.078, 124.361
592.393, 248.283
593.708, 132.197
595.022, 256.102
596.337, 99.996
597.651, 353.881
598.965, 147.766
600.279, 231.639
601.593, 295.508
602.906, 99.365
604.219, 83.213
605.532, 77.049
606.845, 230.877
608.158, 124.695
609.470, 68.504
610.782, 232.303
612.094, 226.119
613.406, 209.926
614.718, 233.732
616.029, 107.529
617.340, 251.320
618.651, 155.098
619.962, 298.867
621.272, 312.627
622.582, 274.008
623.892, 240.119
625.202, 203.852
626.512, 307.574
627.821, 261.287
629.131, 354.992
630.440, 418.689
631.749, 242.375
633.057, 216.053
634.366, 299.725
635.674, 353.385
636.982, 187.037
638.290, 240.684
639.597, 354.318
640.905, 427.945
642.212, 514.234
643.519, 595.174
644.825, 628.773
646.132, 692.369
647.438, 615.955
648.744, 669.529
650.050, 573.098
651.356, 226.658
652.662, 520.207
653.967, 293.750
655.272, 337.287
656.577, 380.814
657.882, 164.332
659.186, 157.846
660.490, 281.350
661.794, 65.152
663.098, 378.285
664.402, 21.717
665.705, 205.141
667.009, 78.561
668.312, 231.971
669.614, 235.375
670.917, 11.223
672.219, 172.150
673.522, 4.479
674.824, 118.867
676.125, 32.205
677.427, 65.576
678.728, 88.941
680.030, 42.301
681.331, 84.334
682.631, 189.000
683.932, 97.660
685.232, 185.605
686.532, 61.111
687.832, 27.881
689.132, 205.320
690.432, 208.557
691.731, 21.797
693.030, 305.061
694.329, 131.676
695.628, 161.498
696.926, 65.301
698.224, 177.848
699.522, 11.021
700.820, 75.822
702.118, 2.686
703.415, 160.430
704.713, 173.547
706.010, 226.662
707.307, 180.229
708.603, 112.768
709.900, 32.188
711.196, 20.768
712.492, 233.711
713.788, 61.975
715.083, 340.912
716.379, 243.793
717.674, 26.668
718.969, 399.535
720.264, 17.604
721.558, 305.229
722.853, 61.719
724.147, 231.059
725.441, 303.834
726.735, 13.395
728.028, 339.350
729.322, 62.092
730.615, 174.828
731.908, 477.561
733.201, 39.709
734.493, 592.984
735.785, 245.672
737.078, 138.359
738.370, 441.041
739.661, 113.723
740.953, 316.400
742.244, 449.072
743.535, 419.664
744.826, 752.342
746.117, 435.482
747.407, 678.152
748.698, 810.820
749.988, 913.486
751.278, 1056.148
752.567, 1188.809
753.857, 1423.225
755.146, 1735.881
756.435, 2328.809
757.724, 3291.461
759.013, 4274.113
760.301, 5946.730
761.590, 7129.309
762.878, 8471.957
764.165, 8164.602
765.453, 6317.113
766.741, 5606.168
768.028, 3798.812
769.315, 2743.406
770.602, 2616.047
771.888, 1648.688
773.175, 1661.328
774.461, 1433.967
775.747, 926.605
777.033, 1069.242
778.319, 721.881
779.604, 834.518
780.889, 667.156
782.174, 469.795
783.459, 912.434
784.744, 495.074
786.028, 737.713
787.312, 650.352
788.596, 482.992
789.880, 705.635
791.164, 558.277
792.447, 600.924
793.730, 693.570
795.013, 426.215
796.296, 508.863
797.579, 711.512
798.861, 754.166
800.143, 646.820
801.425, 819.475
802.707, 812.133
803.989, 1204.795
805.270, 1347.457
806.551, 1840.125
807.832, 2002.791
809.113, 2915.465
810.394, 3928.139
811.674, 5110.816
812.954, 6563.699
814.234, 7436.383
815.514, 7409.070
816.794, 6655.852
818.073, 5368.547
819.352, 4323.035
820.631, 2525.738
821.910, 2268.449
823.189, 1701.162
824.467, 1183.883
825.745, 1284.141
827.023, 976.871
828.301, 797.582
829.578, 880.324
830.856, 632.633
832.133, 755.383
833.410, 478.141
834.687, 470.676
835.963, 786.469
837.240, 309.244
838.516, 724.234
839.792, 327.021
841.068, 384.344
842.343, 363.770
843.618, 296.582
844.894, 409.404
846.169, 241.662
847.443, 104.504
848.718, 477.525
849.992, 60.383
851.266, 137.615
852.540, 370.492
853.814, 172.486
855.088, 509.131
856.361, 30.389
857.634, 213.303
858.907, 486.223
860.180, 429.154
861.453, 569.379
862.725, 57.668
863.997, 131.799
865.269, 404.281
866.541, 42.738
867.812, 194.895
869.084, 87.889
870.355, 80.895
871.626, 483.623
872.897, 36.652
874.167, 457.248
875.438, 9.635
876.708, 298.314
877.978, 361.457
879.248, 4.615
880.517, 465.713
881.787, 78.898
883.056, 112.100
884.325, 285.312
885.594, 288.547
886.862, 208.197
888.130, 241.461
889.399, 251.348
890.667, 328.029
891.934, 301.338
893.202, 344.662
894.469, 328.002
895.737, 188.607
897.004, 304.725
898.270, 21.924
899.537, 31.438
900.803, 344.818
902.070, 88.213
903.336, 331.625
904.601, 435.055
905.867, 61.449
907.132, 432.049
908.398, 14.436
909.663, 319.094
910.928, 322.641
912.192, 76.203
913.457, 609.785
914.721, 353.385
915.985, 357.021
917.249, 310.678
918.512, 165.650
919.776, 367.984
921.039, 68.361
922.302, 235.293
923.565, 258.963
924.827, 62.654
926.090, 316.363
927.352, 100.092
928.614, 63.838
929.876, 557.604
931.138, 51.387
932.399, 305.191
933.660, 199.014
934.922, 132.855
936.182, 286.717
937.443, 250.600
938.704, 124.500
939.964, 468.420
941.224, 142.361
942.484, 506.324
943.744, 190.307
945.003, 94.311
946.262, 288.336
947.521, 242.379
948.780, 466.443
950.039, 510.529
951.298, 44.635
952.556, 518.762
953.814, 92.908
955.072, 277.078
956.330, 401.266
957.587, 155.477
958.845, 519.709
960.102, 223.963
961.359, 458.238
962.615, 572.537
963.872, 13.145
965.128, 551.195
966.384, 35.555
967.640, 139.938
968.896, 534.365
970.152, 91.178
971.407, 493.281
972.662, 317.762
973.917, 312.264
975.172, 566.789
976.427, 311.336
977.681, 395.916
978.935, 780.520
980.189, 195.156
981.443, 439.812
982.697, 444.492
983.950, 49.195
985.203, 643.922
986.456, 68.670
987.709, 293.473
988.962, 448.295
990.214, 43.176
991.467, 378.082
992.719, 73.029
993.971, 158.020
995.222, 404.166
996.474, 169.199
997.725, 594.256
998.976, 329.336
1000.227, 514.482
1001.478, 1079.650
1002.728, 824.867
1003.978, 1150.109
1005.229, 975.381
1006.479, 830.701
1007.728, 976.053
1008.978, 471.428
1010.227, 726.822
1011.476, 962.375
1012.725, 517.873
1013.974, 1131.340
1015.223, 859.645
1016.471, 785.232
1017.719, 799.533
1018.967, 425.260
1020.215, 741.010
1021.462, 606.781
1022.710, 272.580
1023.957, 848.406
1025.204, 488.422
1026.451, 484.082
1027.697, 310.010
1028.944, 565.963
1030.190, 531.938
1031.436, 397.945
1032.682, 393.977
1033.928, 650.033
1035.173, 166.324
1036.418, 542.424
1037.663, 288.561
1038.908, 384.719
1040.153, 630.898
1041.398, 627.094
1042.642, 643.312
1043.886, 999.559
1045.130, 613.234
1046.374, 821.598
1047.617, 827.900
1048.860, 553.758
1050.104, 1060.096
1051.347, 576.453
1052.589, 652.828
1053.832, 649.217
1055.074, 247.820
1056.316, 762.500
1057.558, 678.959
1058.800, 255.168
1060.042, 731.672
1061.283, 328.199
1062.524, 744.750
1063.765, 601.324
1065.006, 382.525
1066.247, 959.145
1067.487, 215.787
1068.728, 366.041
1069.968, 852.732
1071.208, 597.496
1072.447, 614.232
1073.687, 640.994
1074.926, 317.779
1076.165, 924.590
1077.404, 331.424
1078.643, 748.283
1079.881, 865.168
1081.120, 432.072
1082.358, 1129.004
1083.596, 735.961
1084.834, 792.941
1086.071, 1179.945
1087.309, 846.977
1088.546, 1394.031
1089.783, 1201.109
1091.020, 1168.404
1092.256, 1855.533
1093.493, 2082.688
1094.729, 2259.869
1095.965, 2797.074
1097.201, 2614.303
1098.436, 3251.559
1099.672, 2868.832
1100.907, 2356.131
1102.142, 2723.453
1103.377, 1600.805
1104.612, 1718.178
1105.846, 1705.578
1107.081, 1273.006
1108.315, 1400.457
1109.549, 917.914
1110.782, 805.395
1112.016, 952.902
1113.249, 670.234
1114.483, 627.688
1115.716, 605.166
1116.948, 342.666
1118.181, 781.533
1119.413, 396.469
1120.646, 274.037
1121.878, 521.631
1123.110, 329.246
1124.341, 586.824
1125.573, 674.428
1126.804, 152.051
1128.035, 629.701
1129.266, 17.268
1130.497, 294.855
1131.727, 502.465
1132.957, 80.096
1134.188, 367.828
1135.418, 515.457
1136.647, 13.107
1137.877, 861.176
1139.106, 188.867
1140.335, 736.574
1141.564, 464.307
1142.793, 37.943
1144.022, 879.836
1145.250, 27.619
1146.479, 475.420
1147.707, 863.236
1148.934, 21.072
1150.162, 648.926
1151.390, 847.830
1152.617, 455.719
1153.844, 753.627
1155.071, 361.557
1156.298, 419.498
1157.524, 847.455
1158.751, 4.568
1159.977, 243.402
1161.203, 672.027
1162.428, 69.957
1163.654, 558.064
1164.879, 62.127
1166.105, 140.197
1167.330, 498.350
1168.555, 6.465
1169.779, 214.598
1171.004, 653.816
1172.228, 248.002
1173.452, 730.141
1174.676, 208.402
1175.900, 116.600
1177.123, 604.797
1178.346, 83.020
1179.570, 261.273
1180.793, 369.555
1182.015, 2.152
1183.238, 535.611
1184.460, 163.367
1185.683, 181.111
1186.905, 598.789
1188.126, 276.428
1189.348, 444.023
1190.569, 613.430
1191.791, 129.117
1193.012, 488.273
1194.233, 335.701
1195.453, 73.066
1196.674, 420.143
1197.894, 177.109
1199.114, 243.943
1200.334, 570.717
1201.554, 200.816
1202.774, 787.646
1203.993, 286.145
1205.212, 114.674
1206.431, 833.215
1207.650, 101.766
1208.869, 340.406
1210.087, 689.100
1211.305, 72.178
1212.524, 806.576
1213.741, 475.367
1214.959, 164.188
1216.177, 923.041
1217.394, 381.924
1218.611, 680.840
1219.828, 649.781
1221.045, 178.756
1222.261, 787.760
1223.478, 506.795
1224.694, 195.865
1225.910, 704.961
1227.126, 234.088
1228.342, 563.248
1229.557, 642.441
1230.772, 151.664
1231.987, 1020.922
1233.202, 670.207
1234.417, 299.541
1235.631, 948.912
1236.846, 28.318
1238.060, 947.760
1239.274, 757.238
1240.488, 296.750
1241.701, 906.299
1242.915, 615.883
1244.128, 385.504
1245.341, 853.512
1246.554, 333.191
1247.767, 652.908
1248.979, 702.664
1250.191, 572.451
1251.403, 602.277
1252.615, 851.938
1253.827, 461.840
1255.039, 677.391
1256.250, 487.094
1257.461, 686.836
1258.672, 856.602
1259.883, 422.402
1261.094, 1121.895
1262.304, 781.410
1263.514, 20.949
1264.724, 1140.137
1265.934, 469.754
1267.144, 189.414
1268.354, 979.117
1269.563, 424.699
1270.772, 754.277
1271.981, 773.922
1273.190, 413.652
1274.398, 938.523
1275.607, 137.895
1276.815, 557.285
1278.023, 646.691
1279.231, 76.012
1280.439, 605.254
1281.646, 784.492
1282.853, 53.734
1284.060, 592.965
1285.267, 422.195
1286.474, 491.410
1287.681, 750.613
1288.887, 129.797
1290.093, 258.961
1291.299, 797.586
1292.505, 246.676
1293.711, 655.723
1294.916, 254.723
1296.121, 43.719
1297.327, 922.652
1298.531, 171.523
1299.736, 160.328
1300.941, 559.176
1302.145, 327.953
1303.349, 827.363
1304.553, 461.934
1305.757, 81.137
1306.961, 720.281
1308.164, 499.840
1309.367, 200.637
1310.570, 1169.734
1311.773, 180.148
1312.976, 550.449
1314.178, 959.504
1315.381, 80.453
1316.583, 901.500
1317.785, 762.605
1318.987, 203.961
1320.188, 1095.492
1321.390, 540.906
1322.591, 452.523
1323.792, 984.430
1324.993, 316.746
1326.193, 714.672
1327.394, 695.504
1328.594, 168.355
1329.794, 750.531
1330.994, 650.031
1332.194, 326.402
1333.394, 940.883
1334.593, 8.504
1335.792, 536.402
1336.991, 604.074
1338.190, 80.840
1339.389, 898.266
1340.587, 155.234
1341.786, 142.859
1342.984, 674.715
1344.182, 0.000
##END=



