##NAMES=Albite
##RRUFFID=R040129
##IDEAL CHEMISTRY=NaAlSi_3_O_8_
##LOCALITY=LaChance Quarry, Brunswick, Cumberland County, Maine, USA
##OWNER=RRUFF
##SOURCE=Bob Downs
##DESCRIPTION=Colorless fragment of a tabular single crystal
##STATUS=The identification of this mineral has been confirmed by X-ray diffraction and chemical analysis
##URL=rruff.info/R040129
##MEASURED CHEMISTRY=(Na_0.99_K_0.01_)Al_1.00_Si_3.00_O_8_
##PIN_ID=L00143
##ORIENTATION=Laser parallel to -a* (-1 0 0). Fiducial mark perpendicular to laser is parallel to -b [0 -1 0]
102.242, 0.000
103.636, 7.929
105.030, 161.715
106.423, 529.414
107.817, 1208.829
109.210, 2134.023
110.603, 3174.680
111.996, 3773.442
113.388, 4131.039
114.780, 3527.779
116.172, 2486.381
117.564, 1739.854
118.956, 1202.495
120.347, 760.915
121.738, 528.648
123.129, 401.222
124.519, 312.247
125.910, 270.396
127.300, 263.402
128.690, 207.040
130.080, 236.124
131.469, 213.496
132.858, 164.027
134.248, 252.823
135.636, 139.250
137.025, 296.514
138.413, 359.028
139.801, 520.218
141.189, 692.016
142.577, 882.358
143.964, 1140.192
145.352, 1574.458
146.739, 2106.104
148.125, 2604.097
149.512, 2914.406
150.898, 2785.009
152.284, 2268.887
153.670, 1789.025
155.056, 1219.407
156.441, 1140.020
157.827, 1194.852
159.212, 1480.893
160.596, 1494.133
161.981, 1528.562
163.365, 1358.225
164.749, 1130.572
166.133, 1289.228
167.517, 1301.194
168.900, 1553.278
170.283, 1684.689
171.666, 1774.643
173.049, 1642.065
174.431, 1616.509
175.813, 1789.063
177.195, 2128.616
178.577, 2436.164
179.959, 2866.706
181.340, 3355.247
182.721, 3778.784
184.102, 3992.321
185.483, 4057.811
186.863, 3765.139
188.244, 3483.374
189.624, 2970.557
191.003, 2453.714
192.383, 2185.867
193.762, 1840.028
195.141, 1754.210
196.520, 1592.420
197.899, 1528.664
199.277, 1590.948
200.656, 1718.274
202.034, 2210.646
203.411, 2698.064
204.789, 3652.531
206.166, 4589.046
207.543, 5368.609
208.920, 5408.219
210.297, 4927.876
211.673, 3989.583
213.049, 2707.334
214.425, 1862.131
215.801, 1230.974
217.176, 859.859
218.552, 649.786
219.927, 391.750
221.302, 254.750
222.676, 115.782
224.051, 31.840
225.425, 46.164
226.799, 10.134
228.173, 50.830
229.546, 97.890
230.919, 91.738
232.292, 39.386
233.665, 69.376
235.038, 82.138
236.410, 188.570
237.782, 2.023
239.154, 106.718
240.526, 44.193
241.898, 113.138
243.269, 26.234
244.640, 134.374
246.011, 62.853
247.381, 365.177
248.752, 458.583
250.122, 588.701
251.492, 575.822
252.861, 593.906
254.231, 444.987
255.600, 258.061
256.969, 290.157
258.338, 208.277
259.707, 342.419
261.075, 368.583
262.443, 522.769
263.811, 708.976
265.179, 1019.202
266.546, 1383.448
267.914, 1555.401
269.281, 1718.146
270.647, 1642.005
272.014, 1411.542
273.380, 1024.622
274.747, 958.147
276.113, 982.050
277.478, 900.277
278.844, 1126.787
280.209, 1645.544
281.574, 2207.523
282.939, 2748.701
284.304, 3944.055
285.668, 5643.567
287.032, 7813.225
288.396, 10253.011
289.760, 11162.913
291.123, 10642.934
292.487, 9333.054
293.850, 7013.268
295.212, 4883.565
296.575, 3600.944
297.937, 2551.395
299.300, 1884.913
300.662, 1422.494
302.023, 1115.125
303.385, 876.801
304.746, 626.521
306.107, 616.281
307.468, 424.077
308.829, 499.905
310.189, 382.767
311.549, 402.658
312.909, 322.578
314.269, 269.523
315.629, 287.494
316.988, 290.487
318.347, 326.504
319.706, 351.541
321.065, 375.599
322.423, 609.674
323.781, 860.768
325.139, 1396.879
326.497, 1741.006
327.855, 2167.146
329.212, 1999.298
330.569, 1486.426
331.926, 975.534
333.283, 595.610
334.639, 427.627
335.995, 269.615
337.351, 167.568
338.707, 138.523
340.063, 144.478
341.418, 201.449
342.773, 12.421
344.128, 16.596
345.483, 108.376
346.837, 74.649
348.192, 98.302
349.546, 9.747
350.899, 155.195
352.253, 14.139
353.606, 0.921
354.960, 9.015
356.313, 33.054
357.665, 35.863
359.018, 83.221
360.370, 40.332
361.722, 37.457
363.074, 61.399
364.426, 72.743
365.777, 103.900
367.128, 33.908
368.479, 76.289
369.830, 52.513
371.181, 99.756
372.531, 21.020
373.881, 9.300
375.231, 35.591
376.581, 46.904
377.930, 62.216
379.280, 31.545
380.629, 5.120
381.977, 91.202
383.326, 11.551
384.674, 71.916
386.023, 4.292
387.370, 28.295
388.718, 30.869
390.066, 69.324
391.413, 79.083
392.760, 145.564
394.107, 200.165
395.454, 230.050
396.800, 300.132
398.146, 245.659
399.492, 342.876
400.838, 218.152
402.184, 122.379
403.529, 454.590
404.874, 503.187
406.219, 701.287
407.564, 823.335
408.908, 662.357
410.252, 646.385
411.596, 589.411
412.940, 844.440
414.284, 1223.469
415.627, 1420.502
416.970, 1343.534
418.313, 896.570
419.656, 655.604
420.999, 427.639
422.341, 351.673
423.683, 152.706
425.025, 189.738
426.367, 269.770
427.708, 122.800
429.049, 206.829
430.390, 106.882
431.731, 310.955
433.072, 247.042
434.412, 149.140
435.752, 309.326
437.092, 136.440
438.432, 405.560
439.772, 346.682
441.111, 321.806
442.450, 487.196
443.789, 452.320
445.127, 558.444
446.466, 626.564
447.804, 708.682
449.142, 813.795
450.480, 998.904
451.817, 1236.365
453.155, 1592.462
454.492, 2006.434
455.829, 2181.519
457.166, 2031.596
458.502, 2169.665
459.838, 1917.726
461.175, 1994.526
462.510, 1980.570
463.846, 2188.604
465.181, 2591.375
466.517, 2943.390
467.852, 3643.394
469.186, 4643.389
470.521, 6343.555
471.855, 8463.527
473.190, 11923.488
474.523, 17343.436
475.857, 23063.379
477.191, 29783.307
478.524, 31583.219
479.857, 29223.125
481.190, 23223.014
482.523, 16442.895
483.855, 12082.761
485.187, 8602.618
486.519, 6432.459
487.851, 5462.290
489.183, 4322.105
490.514, 3971.909
491.845, 3841.699
493.176, 3661.476
494.507, 3961.241
495.837, 4430.992
497.168, 5330.731
498.498, 6570.464
499.828, 8940.176
501.157, 12103.086
502.487, 17192.865
503.816, 24645.121
505.145, 31482.576
506.474, 36942.512
507.802, 35486.699
509.131, 29486.332
510.459, 22513.898
511.787, 15943.495
513.115, 11762.085
514.442, 8640.432
515.770, 6678.691
517.097, 5554.765
518.424, 4354.064
519.750, 3757.158
521.077, 3123.062
522.403, 2738.625
523.729, 2538.045
525.055, 2106.305
526.381, 1965.794
527.706, 1778.482
529.031, 1553.694
530.356, 1398.032
531.681, 1332.260
533.006, 1213.104
534.330, 1137.679
535.654, 1108.613
536.978, 972.871
538.302, 882.687
539.625, 852.700
540.949, 822.950
542.272, 729.708
543.595, 747.142
544.917, 623.978
546.240, 744.192
547.562, 506.254
548.884, 502.871
550.206, 592.719
551.527, 537.409
552.849, 527.703
554.170, 456.934
555.491, 384.173
556.812, 439.873
558.132, 435.113
559.453, 334.642
560.773, 338.553
562.093, 424.792
563.412, 309.191
564.732, 383.426
566.051, 407.648
567.370, 367.860
568.689, 492.788
570.008, 440.978
571.326, 581.941
572.644, 464.111
573.963, 580.180
575.280, 802.336
576.598, 806.999
577.915, 982.141
579.233, 1013.270
580.550, 912.392
581.866, 712.501
583.183, 608.611
584.499, 425.707
585.815, 378.791
587.131, 335.862
588.447, 351.922
589.763, 236.909
591.078, 298.944
592.393, 260.976
593.708, 106.998
595.022, 217.006
596.337, 169.002
597.651, 183.986
598.965, 137.957
600.279, 89.916
601.593, 132.864
602.906, 183.799
604.219, 245.722
605.532, 151.630
606.845, 156.525
608.158, 206.407
609.470, 33.275
610.782, 170.119
612.094, 50.948
613.406, 124.756
614.718, 185.551
616.029, 152.331
617.340, 239.100
618.651, 55.854
619.962, 127.588
621.272, 307.309
622.582, 55.016
623.892, 306.702
625.202, 182.376
626.512, 213.036
627.821, 91.684
629.131, 115.315
630.440, 124.545
631.749, 147.539
633.057, 169.132
634.366, 160.712
635.674, 152.279
636.982, 265.834
638.290, 207.376
639.597, 270.905
640.905, 404.420
642.212, 364.924
643.519, 432.414
644.825, 465.892
646.132, 500.355
647.438, 468.808
648.744, 398.247
650.050, 486.673
651.356, 262.088
652.662, 268.487
653.967, 258.877
655.272, 108.252
656.577, 286.616
657.882, 13.033
659.186, 92.277
660.490, 15.427
661.794, 127.831
663.098, 71.087
664.402, 122.329
665.705, 102.583
667.009, 113.824
668.312, 114.063
669.614, 111.290
670.917, 53.511
672.219, 120.724
673.522, 82.931
674.824, 71.844
676.125, 155.341
677.427, 49.558
678.728, 80.775
680.030, 103.999
681.331, 11.787
682.631, 152.415
683.932, 110.642
685.232, 62.860
686.532, 24.095
687.832, 27.573
689.132, 144.652
690.432, 20.883
691.731, 103.104
693.030, 63.664
694.329, 8.474
695.628, 32.217
696.926, 69.061
698.224, 4.206
699.522, 49.056
700.820, 52.842
702.118, 100.232
703.415, 83.188
704.713, 31.823
706.010, 158.823
707.307, 73.186
708.603, 83.738
709.900, 78.349
711.196, 96.493
712.492, 70.675
713.788, 88.089
715.083, 55.843
716.379, 10.498
717.674, 235.207
718.969, 63.753
720.264, 152.437
721.558, 131.107
722.853, 127.769
724.147, 28.580
725.441, 146.027
726.735, 27.482
728.028, 178.062
729.322, 21.632
730.615, 181.194
731.908, 37.734
733.201, 186.520
734.493, 110.036
735.785, 248.454
737.078, 152.951
738.370, 78.439
739.661, 136.315
740.953, 233.782
742.244, 175.242
743.535, 213.691
744.826, 316.132
746.117, 273.562
747.407, 423.208
748.698, 301.438
749.988, 418.769
751.278, 626.164
752.567, 533.778
753.857, 901.156
755.146, 968.525
756.435, 1286.986
757.724, 1964.338
759.013, 2491.683
760.301, 3499.019
761.590, 4246.346
762.878, 4753.664
764.165, 4590.975
765.453, 3736.923
766.741, 2954.217
768.028, 2200.626
769.315, 1797.906
770.602, 1585.181
771.888, 1482.445
773.175, 1569.704
774.461, 1566.207
775.747, 1513.452
777.033, 1280.689
778.319, 887.175
779.604, 834.400
780.889, 581.619
782.174, 408.830
783.459, 415.854
784.744, 353.054
786.028, 340.247
787.312, 307.436
788.596, 174.617
789.880, 342.147
791.164, 99.320
792.447, 256.486
793.730, 203.648
795.013, 140.804
796.296, 187.954
797.579, 175.101
798.861, 282.241
800.143, 319.378
801.425, 276.510
802.707, 483.636
803.989, 370.760
805.270, 587.878
806.551, 644.993
807.832, 772.103
809.113, 1209.210
810.394, 1416.311
811.674, 2083.410
812.954, 2387.301
814.234, 2484.303
815.514, 2748.065
816.794, 2145.152
818.073, 1771.955
819.352, 1369.037
820.631, 936.104
821.910, 723.181
823.189, 550.254
824.467, 447.325
825.745, 453.885
827.023, 300.952
828.301, 397.902
829.578, 344.763
830.856, 261.824
832.133, 308.341
833.410, 195.285
834.687, 292.341
835.963, 186.528
837.240, 193.582
838.516, 250.633
839.792, 17.422
841.068, 3.383
842.343, 236.628
843.618, 43.673
844.894, 129.562
846.169, 106.606
847.443, 97.626
848.718, 2.120
849.992, 25.132
851.266, 74.159
852.540, 29.528
853.814, 206.964
855.088, 138.508
856.361, 14.491
857.634, 175.146
858.907, 51.278
860.180, 148.279
861.453, 178.593
862.725, 35.557
863.997, 25.583
865.269, 142.596
866.541, 23.144
867.812, 100.152
869.084, 33.107
870.355, 101.238
871.626, 31.724
872.897, 75.143
874.167, 22.183
875.438, 99.228
876.708, 6.282
877.978, 79.612
879.248, 33.319
880.517, 52.961
881.787, 150.046
883.056, 63.774
884.325, 143.305
885.594, 70.125
886.862, 76.951
888.130, 35.960
889.399, 51.147
890.667, 198.262
891.934, 74.626
893.202, 122.484
894.469, 209.603
895.737, 66.728
897.004, 163.861
898.270, 81.003
899.537, 71.850
900.803, 34.713
902.070, 2.428
903.336, 239.576
904.601, 13.266
905.867, 73.896
907.132, 131.067
908.398, 51.754
909.663, 125.422
910.928, 72.605
912.192, 139.799
913.457, 227.000
914.721, 134.210
915.985, 131.431
917.249, 118.659
918.512, 85.903
919.776, 93.157
921.039, 150.423
922.302, 97.700
923.565, 154.985
924.827, 144.081
926.090, 249.587
927.352, 116.907
928.614, 144.236
929.876, 81.575
931.138, 128.927
932.399, 96.298
933.660, 73.680
934.922, 31.071
936.182, 348.478
937.443, 75.894
938.704, 213.320
939.964, 140.758
941.224, 21.794
942.484, 325.661
943.744, 153.129
945.003, 140.606
946.262, 218.104
947.521, 75.613
948.780, 373.133
950.039, 120.665
951.298, 218.208
952.556, 245.762
953.814, 133.328
955.072, 250.906
956.330, 128.496
957.587, 46.098
958.845, 243.711
960.102, 61.337
961.359, 278.976
962.615, 276.627
963.872, 174.291
965.128, 171.980
966.384, 169.687
967.640, 77.419
968.896, 325.164
970.152, 272.922
971.407, 270.692
972.662, 578.475
973.917, 506.270
975.172, 744.076
976.427, 661.898
977.681, 719.735
978.935, 707.583
980.189, 575.449
981.443, 573.329
982.697, 331.221
983.950, 399.130
985.203, 337.052
986.456, 394.996
987.709, 292.969
988.962, 310.956
990.214, 298.959
991.467, 316.978
992.719, 224.917
993.971, 312.998
995.222, 321.094
996.474, 209.220
997.725, 327.414
998.976, 545.650
1000.227, 443.847
1001.478, 632.149
1002.728, 816.746
1003.978, 963.999
1005.229, 962.426
1006.479, 780.894
1007.728, 918.875
1008.978, 637.405
1010.227, 855.986
1011.476, 964.583
1012.725, 883.220
1013.974, 891.913
1015.223, 840.650
1016.471, 689.401
1017.719, 778.197
1018.967, 517.009
1020.215, 644.916
1021.462, 516.729
1022.710, 404.907
1023.957, 683.792
1025.204, 502.689
1026.451, 692.238
1027.697, 801.164
1028.944, 710.486
1030.190, 1078.596
1031.436, 1000.834
1032.682, 1039.830
1033.928, 1086.832
1035.173, 677.037
1036.418, 633.827
1037.663, 634.031
1038.908, 566.898
1040.153, 535.983
1041.398, 445.902
1042.642, 832.611
1043.886, 771.825
1045.130, 750.977
1046.374, 890.399
1047.617, 629.553
1048.860, 778.808
1050.104, 895.764
1051.347, 485.170
1052.589, 694.370
1053.832, 563.631
1055.074, 402.628
1056.316, 591.862
1057.558, 331.107
1058.800, 518.998
1060.042, 308.265
1061.283, 327.659
1062.524, 546.959
1063.765, 426.271
1065.006, 376.023
1066.247, 525.354
1067.487, 584.697
1068.728, 474.049
1069.968, 603.411
1071.208, 593.014
1072.447, 802.390
1073.687, 611.773
1074.926, 551.658
1076.165, 901.060
1077.404, 860.513
1078.643, 999.933
1079.881, 1079.358
1081.120, 1060.905
1082.358, 1330.441
1083.596, 1389.986
1084.834, 1610.058
1086.071, 1949.664
1087.309, 1939.280
1088.546, 2538.906
1089.783, 2788.539
1091.020, 3277.826
1092.256, 4307.638
1093.493, 5067.294
1094.729, 6708.896
1095.965, 7678.563
1097.201, 8638.234
1098.436, 8967.456
1099.672, 9197.656
1100.907, 8597.474
1102.142, 7877.164
1103.377, 6746.859
1104.612, 5886.942
1105.846, 5476.646
1107.081, 4696.354
1108.315, 4876.535
1109.549, 4226.257
1110.782, 4236.391
1112.016, 4376.119
1113.249, 4045.853
1114.483, 4416.377
1115.716, 4126.119
1116.948, 3705.861
1118.181, 3645.891
1119.413, 3225.641
1120.646, 2905.393
1121.878, 2595.264
1123.110, 1935.020
1124.341, 1775.537
1125.573, 1555.295
1126.804, 1205.055
1128.035, 1115.931
1129.266, 955.690
1130.497, 735.591
1131.727, 865.959
1132.957, 565.736
1134.188, 627.729
1135.418, 798.461
1136.647, 408.241
1137.877, 539.455
1139.106, 469.231
1140.335, 459.729
1141.564, 522.672
1142.793, 312.736
1144.022, 395.453
1145.250, 388.384
1146.479, 338.863
1147.707, 691.053
1148.934, 491.354
1150.162, 473.015
1151.390, 571.354
1152.617, 341.115
1153.844, 492.258
1155.071, 352.432
1156.298, 282.660
1157.524, 430.842
1158.751, 200.884
1159.977, 360.770
1161.203, 110.888
1162.428, 250.667
1163.654, 260.916
1164.879, 241.516
1166.105, 122.156
1167.330, 232.392
1168.555, 67.490
1169.779, 2.318
1171.004, 163.142
1172.228, 123.136
1173.452, 16.676
1174.676, 53.162
1175.900, 6.952
1177.123, 93.106
1178.346, 67.118
1179.570, 152.638
1180.793, 142.566
1182.015, 27.823
1183.238, 244.148
1184.460, 25.937
1185.683, 86.190
1186.905, 253.175
1188.126, 16.978
1189.348, 162.534
1190.569, 52.247
1191.791, 71.697
1193.012, 11.445
1194.233, 110.986
1195.453, 60.240
1196.674, 220.390
1197.894, 18.497
1199.114, 220.709
1200.334, 80.154
1201.554, 139.396
1202.774, 118.599
1203.993, 248.057
1205.212, 127.175
1206.431, 237.051
1207.650, 79.378
1208.869, 138.444
1210.087, 228.641
1211.305, 7.793
1212.524, 296.797
1213.741, 207.039
1214.959, 226.006
1216.177, 314.950
1217.394, 63.875
1218.611, 482.777
1219.828, 251.660
1221.045, 11.188
1222.261, 270.024
1223.478, 119.608
1224.694, 198.401
1225.910, 487.174
1227.126, 13.184
1228.342, 387.474
1229.557, 316.688
1230.772, 56.749
1231.987, 325.673
1233.202, 235.128
1234.417, 414.610
1235.631, 313.186
1236.846, 222.639
1238.060, 141.872
1239.274, 380.369
1240.488, 0.782
1241.701, 337.672
1242.915, 216.313
1244.128, 174.740
1245.341, 313.151
1246.554, 161.549
1247.767, 349.931
1248.979, 368.296
1250.191, 106.805
1251.403, 275.136
1252.615, 313.451
1253.827, 93.108
1255.039, 421.387
1256.250, 109.650
1257.461, 338.100
1258.672, 356.320
1259.883, 54.515
1261.094, 453.092
1262.304, 341.236
1263.514, 149.765
1264.724, 227.836
1265.934, 295.817
1267.144, 194.109
1268.354, 331.980
1269.563, 69.823
1270.772, 337.863
1271.981, 375.610
1273.190, 43.277
1274.398, 411.273
1275.607, 198.876
1276.815, 100.530
1278.023, 438.072
1279.231, 15.586
1280.439, 64.447
1281.646, 351.894
1282.853, 39.311
1284.060, 296.683
1285.267, 94.025
1286.474, 1.337
1287.681, 178.744
1288.887, 5.986
1290.093, 156.576
1291.299, 100.528
1292.505, 17.605
1293.711, 124.646
1294.916, 31.655
1296.121, 81.396
1297.327, 295.482
1298.531, 52.336
1299.736, 159.146
1300.941, 145.930
1302.145, 77.316
1303.349, 189.372
1304.553, 226.026
1305.757, 107.509
1306.961, 248.861
1308.164, 135.108
1309.367, 91.308
1310.570, 87.464
1311.773, 133.578
1312.976, 159.653
1314.178, 222.733
1315.381, 68.575
1316.583, 174.539
1317.785, 130.467
1318.987, 205.707
1320.188, 191.545
1321.390, 146.973
1322.591, 212.727
1323.792, 205.182
1324.993, 160.852
1326.193, 236.480
1327.394, 20.889
1328.594, 156.430
1329.794, 190.788
1330.994, 271.498
1332.194, 146.857
1333.394, 221.354
1334.593, 172.774
1335.792, 231.776
1336.991, 156.950
1338.190, 201.820
1339.389, 316.929
1340.587, 91.903
1341.786, 36.926
1342.984, 290.870
1344.182, 205.796
1345.379, 250.636
1346.577, 255.484
1347.774, 190.298
1348.972, 505.071
1350.169, 109.810
1351.365, 4.507
1352.562, 389.050
1353.759, 73.790
1354.955, 238.359
1356.151, 422.462
1357.347, 66.960
1358.543, 401.419
1359.738, 365.846
1360.934, 270.240
1362.129, 384.370
1363.324, 338.818
1364.519, 123.126
1365.713, 506.915
1366.908, 111.166
1368.102, 285.350
1369.296, 289.626
1370.490, 276.199
1371.684, 35.843
1372.877, 140.907
1374.071, 125.075
1375.264, 198.409
1376.457, 103.167
1377.650, 97.096
1378.843, 350.865
1380.035, 94.604
1381.227, 117.948
1382.419, 310.746
1383.611, 175.331
1384.803, 274.629
1385.995, 218.207
1387.186, 294.484
1388.377, 380.461
1389.568, 346.794
1390.759, 272.584
1391.950, 388.386
1393.140, 233.726
1394.331, 499.870
1395.521, 495.659
1396.711, 71.587
1397.900, 466.753
1399.090, 462.723
1400.279, 227.379
1401.469, 542.398
1402.658, 285.610
1403.847, 180.214
1405.035, 324.178
1406.224, 175.122
1407.412, 426.724
1408.600, 345.161
1409.788, 176.716
1410.976, 378.752
1412.164, 291.980
1413.351, 195.742
1414.538, 499.301
1415.725, 320.205
1416.912, 143.889
1418.099, 465.842
1419.285, 21.162
1420.472, 291.295
1421.658, 334.229
1422.844, 37.656
1424.030, 400.797
1425.215, 293.975
1426.401, 244.279
1427.586, 547.197
1428.771, 300.572
1429.956, 193.787
1431.141, 536.908
1432.325, 170.486
1433.510, 400.080
1434.694, 373.564
1435.878, 307.225
1437.062, 420.521
1438.245, 497.695
1439.429, 339.439
1440.612, 422.838
1441.795, 474.258
1442.978, 627.777
1444.161, 531.268
1445.343, 383.533
1446.526, 615.551
1447.708, 560.213
1448.890, 228.320
1450.072, 748.629
1451.253, 337.502
1452.435, 407.812
1453.616, 618.414
1454.797, 459.553
1455.978, 420.861
1457.159, 742.416
1458.340, 333.807
1459.520, 474.680
1460.700, 502.688
1461.880, 243.492
1463.060, 623.639
1464.240, 543.158
1465.420, 302.486
1466.599, 612.904
1467.778, 302.645
1468.957, 412.656
1470.136, 643.467
1471.315, 373.338
1472.493, 422.861
1473.671, 699.324
1474.849, 249.439
1476.027, 639.473
1477.205, 368.926
1478.383, 177.869
1479.560, 717.410
1480.737, 156.723
1481.914, 346.002
1483.091, 535.084
1484.268, 263.924
1485.444, 312.529
1486.621, 482.164
1487.797, 92.471
1488.973, 372.787
1490.149, 343.039
1491.324, 113.193
1492.500, 433.326
1493.675, 393.459
1494.850, 43.621
1496.025, 423.783
1497.200, 223.930
1498.374, 204.309
1499.548, 435.143
1500.723, 216.049
1501.897, 337.111
1503.071, 248.340
1504.244, 39.803
1505.418, 301.559
1506.591, 343.498
1507.764, 145.639
1508.937, 228.047
1510.110, 49.430
1511.282, 262.439
1512.455, 295.832
1513.627, 10.350
1514.799, 172.141
1515.971, 266.682
1517.143, 0.078
1518.314, 235.566
1519.486, 126.805
1520.657, 10.656
1521.828, 51.424
1522.999, 0.000
##END=



