##NAMES=Albite
##RRUFFID=R040068
##IDEAL CHEMISTRY=NaAlSi_3_O_8_
##LOCALITY=Harding Pegmatite, Dixon, New Mexico, USA
##OWNER=RRUFF
##SOURCE=University of Arizona Mineral Museum
##DESCRIPTION=Tan colored crystal fragment
##STATUS=The identification of this mineral has been confirmed by X-ray diffraction and chemical analysis
##URL=rruff.info/R040068
##MEASURED CHEMISTRY=(Na_0.99_Ca_0.01_)Al_1.00_(Si_0.99_Al_0.01_)_3_O_8_
##PIN_ID=L00433
##ORIENTATION=Laser parallel to -b* (0 -1 0). Fiducial mark perpendicular to laser is parallel to -c [0 0 -1]
121.738, 0.000
123.129, 87.668
124.519, 7.259
125.910, 68.340
127.300, 143.065
128.690, 138.149
130.080, 197.328
131.469, 40.212
132.858, 254.798
134.248, 191.798
135.636, 170.630
137.025, 381.408
138.413, 563.649
139.801, 766.973
141.189, 981.119
142.577, 1125.865
143.964, 1401.202
145.352, 1406.912
146.739, 1412.963
148.125, 1510.286
149.512, 1659.804
150.898, 1540.985
152.284, 1711.768
153.670, 1712.238
155.056, 1942.477
156.441, 2162.531
157.827, 2792.426
159.212, 3302.182
160.596, 3351.814
161.981, 3371.344
163.365, 3130.795
164.749, 2850.180
166.133, 2709.504
167.517, 2578.773
168.900, 2527.994
170.283, 2417.175
171.666, 2136.323
173.049, 2068.088
174.431, 2017.228
175.813, 2011.854
177.195, 2359.949
178.577, 2606.501
179.959, 2933.351
181.340, 3210.303
182.721, 3437.475
184.102, 3424.932
185.483, 3242.522
186.863, 2960.422
188.244, 2598.448
189.624, 2346.556
191.003, 1864.677
192.383, 1522.805
193.762, 1480.938
195.141, 1399.080
196.520, 1127.229
197.899, 1155.388
199.277, 1123.566
200.656, 1451.770
202.034, 1510.136
203.411, 1888.639
204.789, 2267.141
206.166, 2715.650
207.543, 2564.170
208.920, 2432.697
210.297, 1951.189
211.673, 1669.703
213.049, 1158.239
214.425, 816.797
215.801, 555.382
217.176, 433.990
218.552, 152.626
219.927, 191.284
221.302, 259.967
222.676, 68.671
224.051, 12.604
225.425, 153.856
226.799, 4.909
228.173, 86.306
229.546, 42.497
230.919, 11.315
232.292, 109.853
233.665, 48.986
235.038, 162.169
236.410, 36.681
237.782, 5.537
239.154, 46.405
240.526, 205.251
241.898, 209.814
243.269, 578.612
244.640, 536.019
246.011, 1175.742
247.381, 1284.683
248.752, 1858.751
250.122, 2005.414
251.492, 1906.377
252.861, 1515.328
254.231, 1069.229
255.600, 777.775
256.969, 556.330
258.338, 464.772
259.707, 543.194
261.075, 481.546
262.443, 669.862
263.811, 848.198
265.179, 1046.549
266.546, 1164.916
267.914, 1194.716
269.281, 1301.688
270.647, 1150.095
272.014, 1068.513
273.380, 1006.942
274.747, 955.719
276.113, 1004.428
277.478, 1033.156
278.844, 1352.272
280.209, 1678.808
281.574, 2257.327
282.939, 3153.418
284.304, 4161.812
285.668, 5860.233
287.032, 6969.178
288.396, 8038.203
289.760, 7887.205
291.123, 7076.222
292.487, 5814.969
293.850, 4163.836
295.212, 3222.809
296.575, 2229.090
297.937, 1608.222
299.300, 1267.415
300.662, 1016.664
302.023, 725.955
303.385, 565.283
304.746, 484.644
306.107, 494.027
307.468, 443.436
308.829, 492.864
310.189, 412.353
311.549, 391.776
312.909, 301.249
314.269, 290.722
315.629, 290.189
316.988, 289.649
318.347, 449.106
319.706, 488.558
321.065, 628.007
322.423, 1067.453
323.781, 1406.898
325.139, 2106.341
326.497, 2335.783
327.855, 2545.223
329.212, 2084.660
330.569, 1544.099
331.926, 1033.535
333.283, 762.972
334.639, 592.407
335.995, 431.844
337.351, 381.264
338.707, 250.554
340.063, 159.772
341.418, 348.910
342.773, 177.927
344.128, 326.954
345.483, 115.990
346.837, 255.035
348.192, 254.086
349.546, 313.144
350.899, 122.208
352.253, 91.277
353.606, 9.651
354.960, 99.429
356.313, 188.512
357.665, 67.607
359.018, 53.294
360.370, 65.798
361.722, 204.893
363.074, 73.989
364.426, 86.910
365.777, 32.162
367.128, 1.237
368.479, 120.309
369.830, 39.381
371.181, 58.471
372.531, 52.437
373.881, 76.639
375.231, 84.287
376.581, 44.762
377.930, 16.188
379.280, 142.854
380.629, 11.896
381.977, 160.934
383.326, 0.028
384.674, 40.880
386.023, 108.174
387.370, 86.397
388.718, 116.144
390.066, 45.175
391.413, 251.896
392.760, 120.990
394.107, 340.138
395.454, 432.438
396.800, 531.530
398.146, 590.506
399.492, 569.665
400.838, 665.355
402.184, 734.275
403.529, 767.161
404.874, 896.239
406.219, 932.048
407.564, 955.814
408.908, 903.400
410.252, 802.435
411.596, 691.444
412.940, 600.440
414.284, 859.424
415.627, 668.434
416.970, 657.416
418.313, 496.398
419.656, 165.385
420.999, 94.368
422.341, 83.353
423.683, 2.355
425.025, 41.357
426.367, 30.360
427.708, 29.363
429.049, 36.692
430.390, 22.123
431.731, 16.363
433.072, 4.592
434.412, 44.756
435.752, 75.275
437.092, 124.271
438.432, 43.484
439.772, 117.467
441.111, 182.158
442.450, 81.031
443.789, 99.900
445.127, 120.402
446.466, 99.393
447.804, 223.936
449.142, 242.766
450.480, 91.588
451.817, 290.650
453.155, 369.844
454.492, 589.213
455.829, 583.141
457.166, 417.312
458.502, 546.844
459.838, 455.652
461.175, 374.854
462.510, 613.648
463.846, 492.482
465.181, 691.264
466.517, 750.039
467.852, 978.809
469.186, 1177.570
470.521, 1606.326
471.855, 1975.074
473.190, 2823.812
474.523, 3702.547
475.857, 4991.271
477.191, 5869.988
478.524, 5828.695
479.857, 5117.395
481.190, 4126.086
482.523, 3094.770
483.855, 2493.447
485.187, 1863.703
486.519, 1479.953
487.851, 1159.424
489.183, 1128.066
490.514, 1156.701
491.845, 1205.326
493.176, 1243.941
494.507, 1582.602
495.837, 1741.201
497.168, 2220.078
498.498, 2898.656
499.828, 3987.230
501.157, 5575.992
502.487, 7934.549
503.816, 10493.402
505.145, 12282.258
506.474, 12590.793
507.802, 10759.531
509.131, 8808.234
510.459, 6687.559
511.787, 4886.062
513.115, 3584.555
514.442, 2664.736
515.770, 2133.213
517.097, 1693.924
518.424, 1382.383
519.750, 1088.650
521.077, 897.430
522.403, 1055.883
523.729, 594.590
525.055, 696.713
526.381, 705.234
527.706, 443.025
529.031, 461.746
530.356, 464.146
531.681, 472.830
533.006, 387.301
534.330, 341.320
535.654, 248.043
536.978, 346.635
538.302, 433.307
539.625, 326.930
540.949, 289.633
542.272, 297.975
543.595, 72.127
544.917, 298.893
546.240, 227.662
547.562, 5.928
548.884, 344.217
550.206, 39.863
551.527, 261.326
552.849, 90.010
554.170, 88.295
555.491, 186.779
556.812, 185.074
558.132, 100.201
559.453, 188.537
560.773, 66.865
562.093, 185.979
563.412, 164.279
564.732, 142.930
566.051, 111.209
567.370, 210.389
568.689, 278.660
570.008, 287.213
571.326, 170.570
572.644, 338.811
573.963, 333.783
575.280, 482.066
576.598, 620.279
577.915, 529.297
579.233, 557.486
580.550, 395.660
581.866, 248.188
583.183, 276.371
584.499, 244.518
585.815, 212.867
587.131, 250.859
588.447, 298.875
589.763, 146.812
591.078, 124.715
592.393, 12.354
593.708, 27.475
595.022, 16.729
596.337, 68.674
597.651, 106.590
598.965, 7.061
600.279, 125.027
601.593, 212.980
602.906, 9.080
604.219, 88.834
605.532, 73.271
606.845, 134.564
608.158, 162.387
609.470, 70.193
610.782, 37.988
612.094, 15.775
613.406, 23.547
614.718, 191.301
616.029, 9.045
617.340, 186.764
618.651, 34.473
619.962, 322.162
621.272, 119.840
622.582, 207.502
623.892, 185.152
625.202, 162.791
626.512, 260.416
627.821, 148.502
629.131, 386.100
630.440, 543.682
631.749, 431.250
633.057, 558.807
634.366, 396.350
635.674, 443.875
636.982, 431.412
638.290, 418.914
639.597, 476.404
640.905, 454.031
642.212, 421.490
643.519, 678.939
644.825, 566.371
646.132, 583.791
647.438, 491.195
648.744, 406.676
650.050, 405.965
651.356, 123.326
652.662, 380.676
653.967, 68.012
655.272, 435.330
656.577, 292.633
657.882, 89.926
659.186, 257.201
660.490, 64.463
661.794, 61.707
663.098, 228.938
664.402, 86.150
665.705, 93.350
667.009, 10.533
668.312, 207.691
669.614, 154.840
670.917, 28.029
672.219, 139.070
673.522, 13.846
674.824, 323.203
676.125, 9.762
677.427, 57.260
678.728, 134.268
680.030, 71.258
681.331, 148.232
682.631, 75.223
683.932, 102.193
685.232, 59.156
686.532, 43.822
687.832, 53.072
689.132, 79.951
690.432, 186.834
691.731, 93.701
693.030, 50.580
694.329, 87.510
695.628, 234.365
696.926, 141.477
698.224, 128.514
699.522, 84.672
700.820, 8.008
702.118, 28.727
703.415, 155.951
704.713, 232.375
706.010, 100.018
707.307, 22.859
708.603, 43.709
709.900, 154.859
711.196, 101.336
712.492, 257.854
713.788, 80.082
715.083, 216.309
716.379, 152.727
717.674, 18.945
718.969, 305.326
720.264, 61.859
721.558, 228.209
722.853, 18.119
724.147, 344.430
725.441, 80.729
726.735, 52.371
728.028, 163.852
729.322, 77.096
730.615, 139.041
731.908, 375.158
733.201, 21.264
734.493, 287.348
735.785, 153.416
737.078, 39.564
738.370, 86.439
739.661, 132.424
740.953, 68.398
742.244, 174.553
743.535, 221.824
744.826, 197.752
746.117, 154.584
747.407, 150.438
748.698, 165.486
749.988, 340.873
751.278, 156.178
752.567, 301.803
753.857, 447.570
755.146, 442.746
756.435, 378.621
757.724, 884.486
759.013, 708.668
760.301, 1084.348
761.590, 1084.459
762.878, 1470.268
764.165, 1166.064
765.453, 781.609
766.741, 999.824
768.028, 565.027
769.315, 420.586
770.602, 636.320
771.888, 381.320
773.175, 427.031
774.461, 532.328
775.747, 298.012
777.033, 483.641
778.319, 179.301
779.604, 255.250
780.889, 180.887
782.174, 26.512
783.459, 272.121
784.744, 277.717
786.028, 423.301
787.312, 198.877
788.596, 284.439
789.880, 159.992
791.164, 125.533
792.447, 271.373
793.730, 206.891
795.013, 92.396
796.296, 157.887
797.579, 343.369
798.861, 228.840
800.143, 315.031
801.425, 489.750
802.707, 315.189
803.989, 390.617
805.270, 386.035
806.551, 491.391
807.832, 546.787
809.113, 701.889
810.394, 1027.266
811.674, 1062.633
812.954, 1297.795
814.234, 1453.141
815.514, 1188.174
816.794, 1003.186
818.073, 1038.504
819.352, 853.598
820.631, 258.713
821.910, 413.188
823.189, 168.469
824.467, 433.740
825.745, 325.873
827.023, 171.129
828.301, 194.131
829.578, 329.367
830.856, 262.605
832.133, 247.486
833.410, 212.680
834.687, 167.604
835.963, 222.922
837.240, 167.846
838.516, 172.875
839.792, 87.719
841.068, 124.520
842.343, 133.541
843.618, 138.447
844.894, 223.596
846.169, 128.549
847.443, 83.312
848.718, 218.225
849.992, 33.350
851.266, 48.467
852.540, 143.527
853.814, 91.906
855.088, 185.088
856.361, 0.324
857.634, 64.766
858.907, 10.150
860.180, 57.758
861.453, 199.352
862.725, 76.012
863.997, 158.990
865.269, 233.809
866.541, 91.193
867.812, 186.977
869.084, 141.920
870.355, 246.861
871.626, 421.004
872.897, 25.945
874.167, 330.523
875.438, 64.514
876.708, 429.521
877.978, 214.453
879.248, 10.908
880.517, 508.906
881.787, 56.170
883.056, 161.994
884.325, 56.832
885.594, 121.729
886.862, 135.805
888.130, 120.693
889.399, 24.424
890.667, 176.088
891.934, 100.684
893.202, 225.471
894.469, 0.016
895.737, 35.170
897.004, 149.668
898.270, 25.494
899.537, 159.338
900.803, 354.168
902.070, 59.002
903.336, 173.834
904.601, 438.670
905.867, 173.492
907.132, 168.311
908.398, 43.133
909.663, 157.951
910.928, 162.771
912.192, 67.596
913.457, 382.418
914.721, 117.268
915.985, 382.115
917.249, 136.965
918.512, 68.189
919.776, 336.648
921.039, 8.516
922.302, 436.324
923.565, 121.164
924.827, 236.008
926.090, 120.852
927.352, 145.701
928.614, 120.549
929.876, 265.396
931.138, 9.754
932.399, 345.096
933.660, 119.949
934.922, 204.328
936.182, 199.182
937.443, 64.039
938.704, 118.896
939.964, 343.758
941.224, 118.621
942.484, 173.486
943.744, 11.668
945.003, 223.201
946.262, 128.070
947.521, 212.791
948.780, 567.668
950.039, 292.549
951.298, 217.432
952.556, 402.320
953.814, 77.213
955.072, 332.111
956.330, 207.012
957.587, 171.918
958.845, 266.830
960.102, 261.744
961.359, 356.668
962.615, 451.596
963.872, 136.525
965.128, 521.465
966.384, 36.408
967.640, 471.359
968.896, 476.320
970.152, 201.287
971.407, 416.260
972.662, 421.242
973.917, 426.236
975.172, 371.236
976.427, 456.246
977.681, 409.330
978.935, 536.320
980.189, 401.383
981.443, 336.453
982.697, 371.543
983.950, 126.645
985.203, 531.842
986.456, 3.035
987.709, 432.100
988.962, 237.439
990.214, 272.600
991.467, 317.723
992.719, 182.928
993.971, 238.148
995.222, 483.467
996.474, 68.717
997.725, 574.453
998.976, 69.668
1000.227, 334.969
1001.478, 380.121
1002.728, 245.248
1003.978, 640.600
1005.229, 286.000
1006.479, 411.426
1007.728, 587.695
1008.978, 443.070
1010.227, 647.639
1011.476, 569.586
1012.725, 605.170
1013.974, 886.125
1015.223, 652.389
1016.471, 618.047
1017.719, 578.352
1018.967, 434.092
1020.215, 493.334
1021.462, 436.102
1022.710, 541.926
1023.957, 677.619
1025.204, 690.162
1026.451, 752.449
1027.697, 807.762
1028.944, 841.307
1030.190, 889.703
1031.436, 935.666
1032.682, 978.811
1033.928, 1034.248
1035.173, 409.701
1036.418, 694.854
1037.663, 380.379
1038.908, 645.105
1040.153, 488.094
1041.398, 533.500
1042.642, 648.717
1043.886, 542.783
1045.130, 578.711
1046.374, 592.691
1047.617, 498.133
1048.860, 643.586
1050.104, 579.049
1051.347, 424.527
1052.589, 730.016
1053.832, 445.516
1055.074, 487.895
1056.316, 583.059
1057.558, 518.562
1058.800, 539.346
1060.042, 469.619
1061.283, 474.814
1062.524, 460.373
1063.765, 425.949
1065.006, 341.541
1066.247, 607.145
1067.487, 152.385
1068.728, 568.016
1069.968, 453.668
1071.208, 509.336
1072.447, 415.020
1073.687, 390.721
1074.926, 336.439
1076.165, 582.174
1077.404, 437.928
1078.643, 723.699
1079.881, 739.488
1081.120, 355.297
1082.358, 851.121
1083.596, 286.965
1084.834, 632.828
1086.071, 588.709
1087.309, 704.609
1088.546, 1030.350
1089.783, 1016.900
1091.020, 1163.361
1092.256, 1218.197
1093.493, 1294.180
1094.729, 1390.176
1095.965, 1446.188
1097.201, 1532.219
1098.436, 1522.076
1099.672, 1424.314
1100.907, 1410.445
1102.142, 1416.652
1103.377, 1212.910
1104.612, 1519.221
1105.846, 1415.537
1107.081, 1201.812
1108.315, 1178.104
1109.549, 904.402
1110.782, 880.740
1112.016, 957.123
1113.249, 953.535
1114.483, 850.002
1115.716, 806.529
1116.948, 764.301
1118.181, 859.777
1119.413, 706.465
1120.646, 593.195
1121.878, 629.998
1123.110, 496.889
1124.341, 653.828
1125.573, 290.828
1126.804, 197.885
1128.035, 855.000
1129.266, 92.178
1130.497, 739.412
1131.727, 256.715
1132.957, 74.078
1134.188, 361.510
1135.418, 299.012
1136.647, 56.586
1137.877, 664.240
1139.106, 101.979
1140.335, 649.799
1141.564, 387.709
1142.793, 95.711
1144.022, 803.816
1145.250, 22.025
1146.479, 730.340
1147.707, 598.768
1148.934, 107.314
1150.162, 575.996
1151.390, 524.814
1152.617, 383.777
1153.844, 642.893
1155.071, 7.830
1156.298, 521.611
1157.524, 581.230
1158.751, 201.031
1159.977, 461.035
1161.203, 610.770
1162.428, 60.078
1163.654, 720.545
1164.879, 151.402
1166.105, 431.957
1167.330, 349.957
1168.555, 110.639
1169.779, 302.400
1171.004, 464.490
1172.228, 55.787
1173.452, 665.924
1174.676, 217.846
1175.900, 562.133
1177.123, 541.148
1178.346, 365.293
1179.570, 405.264
1180.793, 340.953
1182.015, 126.986
1183.238, 171.506
1184.460, 10.697
1185.683, 80.395
1186.905, 0.000
##END=



