##NAMES=Albite
##RRUFFID=R040129
##IDEAL CHEMISTRY=NaAlSi_3_O_8_
##LOCALITY=LaChance Quarry, Brunswick, Cumberland County, Maine, USA
##OWNER=RRUFF
##SOURCE=Bob Downs
##DESCRIPTION=Colorless fragment of a tabular single crystal
##STATUS=The identification of this mineral has been confirmed by X-ray diffraction and chemical analysis
##URL=rruff.info/R040129
##MEASURED CHEMISTRY=(Na_0.99_K_0.01_)Al_1.00_Si_3.00_O_8_
##PIN_ID=L00382
##ORIENTATION=Laser parallel to b* (0 1 0). Fiducial mark perpendicular to laser is parallel to c [0 0 1]
124.519, 0.000
125.910, 0.574
127.300, 29.639
128.690, 42.572
130.080, 152.383
131.469, 34.704
132.858, 149.819
134.248, 145.561
135.636, 119.251
137.025, 362.960
138.413, 454.842
139.801, 854.875
141.189, 979.103
142.577, 1755.849
143.964, 2469.661
145.352, 2836.229
146.739, 3045.343
148.125, 2787.848
149.512, 3137.183
150.898, 3232.655
152.284, 3691.664
153.670, 3921.574
155.056, 4390.536
156.441, 5648.620
157.827, 6946.016
159.212, 9732.829
160.596, 11109.113
161.981, 12274.917
163.365, 11290.278
164.749, 8535.249
166.133, 6979.888
167.517, 5094.220
168.900, 4788.268
170.283, 4302.061
171.666, 3955.621
173.049, 3939.761
174.431, 3538.658
175.813, 3918.895
177.195, 3946.894
178.577, 4788.677
179.959, 5156.627
181.340, 6022.300
182.721, 6793.727
184.102, 6862.428
185.483, 6961.121
186.863, 6649.909
188.244, 6219.494
189.624, 4909.412
191.003, 4009.624
192.383, 3269.829
193.762, 2579.942
195.141, 2427.951
196.520, 1858.862
197.899, 1834.678
199.277, 1617.404
200.656, 1688.059
202.034, 1888.751
203.411, 1992.511
204.789, 2728.424
206.166, 3268.417
207.543, 4178.354
208.920, 4368.261
210.297, 3768.145
211.673, 2947.993
213.049, 1832.844
214.425, 1350.700
215.801, 734.565
217.176, 510.440
218.552, 340.323
219.927, 120.216
221.302, 101.116
222.676, 39.980
224.051, 0.924
225.425, 85.174
226.799, 66.275
228.173, 92.383
229.546, 161.499
230.919, 52.625
232.292, 131.761
233.665, 21.083
235.038, 75.301
236.410, 120.673
237.782, 9.759
239.154, 1.000
240.526, 143.029
241.898, 103.384
243.269, 380.468
244.640, 667.091
246.011, 1104.180
247.381, 1868.596
248.752, 2611.136
250.122, 4075.038
251.492, 4504.610
252.861, 4230.020
254.231, 3107.347
255.600, 1964.489
256.969, 1307.521
258.338, 844.770
259.707, 744.373
261.075, 712.054
262.443, 769.644
263.811, 1015.104
265.179, 1382.547
266.546, 1927.982
267.914, 2182.416
269.281, 2326.208
270.647, 2536.261
272.014, 2266.664
273.380, 1975.051
274.747, 1598.421
276.113, 1708.343
277.478, 1610.954
278.844, 1853.943
280.209, 2128.252
281.574, 2771.547
282.939, 3784.063
284.304, 4784.519
285.668, 7363.979
287.032, 9742.754
288.396, 13490.008
289.760, 15970.004
291.123, 15358.922
292.487, 14248.399
293.850, 9537.756
295.212, 7327.329
296.575, 5005.529
297.937, 3525.368
299.300, 2835.294
300.662, 1961.292
302.023, 1805.343
303.385, 1479.429
304.746, 1353.536
306.107, 1373.651
307.468, 1214.768
308.829, 1381.879
310.189, 1207.980
311.549, 1207.070
312.909, 1000.144
314.269, 813.197
315.629, 882.211
316.988, 568.171
318.347, 716.070
319.706, 546.914
321.065, 873.703
322.423, 1036.442
323.781, 1411.135
325.139, 2454.780
326.497, 3334.381
327.855, 5023.941
329.212, 4663.458
330.569, 3862.936
331.926, 2732.376
333.283, 1585.778
334.639, 1290.143
335.995, 728.472
337.351, 622.762
338.707, 512.939
340.063, 357.917
341.418, 344.620
342.773, 171.117
344.128, 277.511
345.483, 149.771
346.837, 393.996
348.192, 398.223
349.546, 174.435
350.899, 352.630
352.253, 27.805
353.606, 206.952
354.960, 141.085
356.313, 97.191
357.665, 76.272
359.018, 43.602
360.370, 74.350
361.722, 27.374
363.074, 21.367
364.426, 45.353
365.777, 66.689
367.128, 31.213
368.479, 33.883
369.830, 44.974
371.181, 66.190
372.531, 97.408
373.881, 13.310
375.231, 51.993
376.581, 19.654
377.930, 8.730
379.280, 32.848
380.629, 52.391
381.977, 40.088
383.326, 94.306
384.674, 72.392
386.023, 88.317
387.370, 60.575
388.718, 55.781
390.066, 167.798
391.413, 139.164
392.760, 316.184
394.107, 304.387
395.454, 571.628
396.800, 855.239
398.146, 947.588
399.492, 1208.071
400.838, 839.751
402.184, 1065.152
403.529, 1358.196
404.874, 1925.217
406.219, 3512.223
407.564, 3759.412
408.908, 3606.679
410.252, 2233.499
411.596, 1400.637
412.940, 1217.297
414.284, 1313.888
415.627, 1810.428
416.970, 1536.909
418.313, 1253.324
419.656, 742.739
420.999, 347.127
422.341, 375.504
423.683, 40.864
425.025, 161.203
426.367, 20.523
427.708, 56.821
429.049, 3.100
430.390, 53.646
431.731, 81.192
433.072, 11.611
434.412, 12.522
435.752, 83.704
437.092, 50.178
438.432, 123.296
439.772, 180.659
441.111, 221.437
442.450, 109.378
443.789, 3.644
445.127, 167.819
446.466, 16.566
447.804, 198.179
449.142, 299.882
450.480, 206.552
451.817, 514.640
453.155, 343.255
454.492, 660.885
455.829, 601.446
457.166, 711.979
458.502, 767.870
459.838, 573.353
461.175, 819.605
462.510, 585.025
463.846, 820.415
465.181, 925.961
466.517, 981.287
467.852, 1336.582
469.186, 1491.844
470.521, 2227.074
471.855, 2862.271
473.190, 3857.439
474.523, 5792.574
475.857, 7817.675
477.191, 11292.746
478.524, 12137.781
479.857, 11612.789
481.190, 9507.761
482.523, 6622.700
483.855, 5187.611
485.187, 3542.488
486.519, 3247.334
487.851, 2472.149
489.183, 1986.932
490.514, 2221.684
491.845, 1696.404
493.176, 2061.096
494.507, 2185.753
495.837, 2440.381
497.168, 3194.987
498.498, 3519.553
499.828, 5264.089
501.157, 6478.904
502.487, 9623.382
503.816, 14187.340
505.145, 18192.240
506.474, 24406.047
507.802, 23004.385
509.131, 20168.727
510.459, 15643.256
511.787, 10398.054
513.115, 8200.531
514.442, 5657.145
515.770, 4420.713
517.097, 3504.452
518.424, 2557.520
519.750, 2490.231
521.077, 1739.791
522.403, 1822.047
523.729, 1379.142
525.055, 1222.229
526.381, 1269.389
527.706, 878.843
529.031, 937.610
530.356, 782.543
531.681, 749.549
533.006, 844.258
534.330, 609.235
535.654, 676.848
536.978, 529.322
538.302, 489.867
539.625, 612.010
540.949, 385.818
542.272, 473.960
543.595, 261.701
544.917, 438.009
546.240, 440.689
547.562, 137.705
548.884, 420.103
550.206, 235.188
551.527, 300.719
552.849, 134.645
554.170, 128.916
555.491, 372.688
556.812, 236.596
558.132, 271.365
559.453, 155.127
560.773, 109.247
562.093, 352.963
563.412, 176.812
564.732, 260.473
566.051, 164.111
567.370, 128.212
568.689, 431.816
570.008, 125.555
571.326, 379.129
572.644, 352.678
573.963, 366.645
575.280, 590.164
576.598, 523.815
577.915, 724.901
579.233, 718.350
580.550, 484.232
581.866, 767.632
583.183, 319.967
584.499, 562.933
585.815, 225.032
587.131, 317.771
588.447, 229.571
589.763, 67.995
591.078, 400.550
592.393, 21.565
593.708, 192.492
595.022, 224.908
596.337, 16.573
597.651, 275.933
598.965, 33.842
600.279, 188.991
601.593, 171.335
602.906, 57.482
604.219, 315.004
605.532, 6.534
606.845, 189.097
608.158, 261.924
609.470, 84.479
610.782, 307.261
612.094, 0.020
613.406, 252.746
614.718, 225.453
616.029, 98.138
617.340, 330.798
618.651, 13.437
619.962, 276.048
621.272, 228.643
622.582, 141.217
623.892, 363.768
625.202, 276.299
626.512, 508.810
627.821, 391.300
629.131, 553.770
630.440, 896.512
631.749, 738.941
633.057, 1031.350
634.366, 713.738
635.674, 806.107
636.982, 698.457
638.290, 540.787
639.597, 833.097
640.905, 675.386
642.212, 567.658
643.519, 939.909
644.825, 702.142
646.132, 1054.355
647.438, 866.549
648.744, 798.725
650.050, 770.881
651.356, 333.020
652.662, 735.139
653.967, 167.239
655.272, 279.321
656.577, 261.386
657.882, 93.433
659.186, 335.458
660.490, 177.465
661.794, 39.456
663.098, 351.425
664.402, 46.621
665.705, 335.281
667.009, 7.163
668.312, 39.024
669.614, 260.863
670.917, 27.307
672.219, 204.482
673.522, 46.258
674.824, 168.016
676.125, 139.761
677.427, 88.505
678.728, 193.160
680.030, 63.140
681.331, 28.465
682.631, 60.054
683.932, 98.344
685.232, 243.188
686.532, 21.029
687.832, 80.476
689.132, 201.994
690.432, 36.465
691.731, 125.040
693.030, 6.555
694.329, 58.056
695.628, 119.555
696.926, 2.101
698.224, 229.363
699.522, 59.162
700.820, 92.256
702.118, 143.690
703.415, 51.030
704.713, 299.985
706.010, 8.654
707.307, 17.325
708.603, 93.967
709.900, 42.163
711.196, 203.025
712.492, 124.262
713.788, 15.480
715.083, 236.671
716.379, 67.569
717.674, 238.256
718.969, 119.395
720.264, 230.333
721.558, 471.437
722.853, 47.579
724.147, 408.267
725.441, 119.318
726.735, 184.599
728.028, 275.617
729.322, 60.602
730.615, 391.584
731.908, 122.551
733.201, 86.500
734.493, 314.367
735.785, 4.779
737.078, 246.034
738.370, 186.833
739.661, 147.620
740.953, 348.394
742.244, 69.158
743.535, 369.909
744.826, 290.652
746.117, 131.505
747.407, 442.242
748.698, 172.057
749.988, 462.701
751.278, 353.423
752.567, 351.753
753.857, 702.470
755.146, 370.073
756.435, 830.787
757.724, 951.420
759.013, 917.515
760.301, 1718.235
761.590, 1648.053
762.878, 2268.742
764.165, 2079.434
765.453, 1489.668
766.741, 1710.451
768.028, 980.068
769.315, 1010.716
770.602, 961.353
771.888, 511.597
773.175, 992.212
774.461, 702.014
775.747, 843.519
777.033, 834.102
778.319, 374.488
779.604, 725.051
780.889, 265.602
782.174, 416.144
783.459, 576.676
784.744, 37.197
786.028, 607.708
787.312, 268.208
788.596, 238.700
789.880, 289.182
791.164, 119.655
792.447, 173.690
793.730, 210.574
795.013, 161.021
796.296, 311.459
797.579, 291.889
798.861, 392.311
800.143, 252.724
801.425, 303.129
802.707, 413.526
803.989, 303.915
805.270, 514.298
806.551, 474.671
807.832, 415.037
809.113, 835.387
810.394, 695.739
811.674, 1206.084
812.954, 1436.112
814.234, 1586.442
815.514, 1816.768
816.794, 1326.559
818.073, 1356.870
819.352, 1043.208
820.631, 453.507
821.910, 773.097
823.189, 332.871
824.467, 453.152
825.745, 500.686
827.023, 180.957
828.301, 550.753
829.578, 261.015
830.856, 381.200
832.133, 534.883
833.410, 24.871
834.687, 400.325
835.963, 320.016
837.240, 159.838
838.516, 402.831
839.792, 66.960
841.068, 350.724
842.343, 150.581
843.618, 60.742
844.894, 447.469
846.169, 67.517
847.443, 166.925
848.718, 136.694
849.992, 113.277
851.266, 295.354
852.540, 105.438
853.814, 240.497
855.088, 260.332
856.361, 69.616
857.634, 295.808
858.907, 5.852
860.180, 273.950
861.453, 311.512
862.725, 288.679
863.997, 350.706
865.269, 120.604
866.541, 130.341
867.812, 349.221
869.084, 89.118
870.355, 338.635
871.626, 218.554
872.897, 28.316
874.167, 518.239
875.438, 101.838
876.708, 367.575
877.978, 267.474
879.248, 92.784
880.517, 437.078
881.787, 83.058
883.056, 226.349
884.325, 296.183
885.594, 85.862
886.862, 358.087
888.130, 107.931
889.399, 165.317
890.667, 425.169
891.934, 25.026
893.202, 354.868
894.469, 54.735
895.737, 124.289
897.004, 324.190
898.270, 25.893
899.537, 243.954
900.803, 263.877
902.070, 113.808
903.336, 433.745
904.601, 263.688
905.867, 253.648
907.132, 343.614
908.398, 251.562
909.663, 483.594
910.928, 293.593
912.192, 274.739
913.457, 437.021
914.721, 43.695
915.985, 463.748
917.249, 113.808
918.512, 6.124
919.776, 433.948
921.039, 64.034
922.302, 614.127
923.565, 84.228
924.827, 144.335
926.090, 564.450
927.352, 35.424
928.614, 224.699
929.876, 454.829
931.138, 104.968
932.399, 425.115
933.660, 275.269
934.922, 315.430
936.182, 365.601
937.443, 55.482
938.704, 365.667
939.964, 335.859
941.224, 246.060
942.484, 446.274
943.744, 36.497
945.003, 306.729
946.262, 366.969
947.521, 127.215
948.780, 637.468
950.039, 297.728
951.298, 327.992
952.556, 628.264
953.814, 198.545
955.072, 718.830
956.330, 329.119
957.587, 359.420
958.845, 649.725
960.102, 210.039
961.359, 540.359
962.615, 560.688
963.872, 251.025
965.128, 781.371
966.384, 121.725
967.640, 472.086
968.896, 552.459
970.152, 212.840
971.407, 823.250
972.662, 433.666
973.917, 544.094
975.172, 994.537
976.427, 524.986
977.681, 1055.461
978.935, 735.945
980.189, 536.441
981.443, 786.949
982.697, 367.469
983.950, 338.027
985.203, 696.557
986.456, 187.162
987.709, 667.783
988.962, 308.418
990.214, 319.098
991.467, 625.543
992.719, 126.260
993.971, 506.992
995.222, 237.738
996.474, 138.516
997.725, 709.305
998.976, 200.113
1000.227, 560.938
1001.478, 824.920
1002.728, 485.779
1003.978, 1086.656
1005.229, 727.568
1006.479, 908.498
1007.728, 1175.584
1008.978, 636.562
1010.227, 1187.559
1011.476, 988.578
1012.725, 969.627
1013.974, 1533.398
1015.223, 804.484
1016.471, 1115.584
1017.719, 1126.703
1018.967, 557.844
1020.215, 1289.004
1021.462, 743.918
1022.710, 875.113
1023.957, 1306.328
1025.204, 987.562
1026.451, 1623.527
1027.697, 1258.336
1028.944, 1519.629
1030.190, 2086.307
1031.436, 1817.637
1032.682, 2045.010
1033.928, 2116.383
1035.173, 1167.781
1036.418, 1669.197
1037.663, 990.672
1038.908, 902.170
1040.153, 1173.701
1041.398, 646.119
1042.642, 1037.697
1043.886, 879.297
1045.130, 416.199
1046.374, 937.848
1047.617, 441.865
1048.860, 732.840
1050.104, 754.564
1051.347, 326.316
1052.589, 808.094
1053.832, 489.898
1055.074, 441.729
1056.316, 823.590
1057.558, 305.477
1058.800, 477.395
1060.042, 579.273
1061.283, 251.270
1062.524, 713.209
1063.765, 355.105
1065.006, 527.691
1066.247, 909.641
1067.487, 181.621
1068.728, 783.512
1069.968, 725.523
1071.208, 467.559
1072.447, 959.490
1073.687, 351.377
1074.926, 523.279
1076.165, 945.195
1077.404, 406.211
1078.643, 948.150
1079.881, 670.100
1081.120, 652.262
1082.358, 1074.201
1083.596, 626.146
1084.834, 1018.094
1086.071, 1210.055
1087.309, 922.066
1088.546, 1824.062
1089.783, 1176.064
1091.020, 1669.615
1092.256, 2221.674
1093.493, 2183.766
1094.729, 3085.594
1095.965, 3137.281
1097.201, 3098.879
1098.436, 4230.486
1099.672, 3272.117
1100.907, 3453.766
1102.142, 3535.443
1103.377, 2357.145
1104.612, 2838.865
1105.846, 2320.613
1107.081, 1952.385
1108.315, 2394.182
1109.549, 1476.004
1110.782, 1807.852
1112.016, 1929.723
1113.249, 1551.621
1114.483, 2103.543
1115.716, 1595.502
1116.948, 1677.496
1118.181, 1919.518
1119.413, 1221.607
1120.646, 1473.725
1121.878, 1265.865
1123.110, 858.031
1124.341, 1400.299
1125.573, 772.592
1126.804, 644.932
1128.035, 1097.322
1129.266, 159.740
1130.497, 792.375
1131.727, 475.041
1132.957, 197.738
1134.188, 720.422
1135.418, 203.135
1136.647, 305.924
1137.877, 758.748
1139.106, 21.658
1140.335, 774.627
1141.564, 387.629
1142.793, 90.664
1144.022, 833.715
1145.250, 66.766
1146.479, 649.799
1147.707, 682.854
1148.934, 55.936
1150.162, 859.049
1151.390, 542.188
1152.617, 795.354
1153.844, 888.545
1155.071, 91.762
1156.298, 735.002
1157.524, 668.273
1158.751, 61.574
1159.977, 534.908
1161.203, 578.283
1162.428, 21.701
1163.654, 775.154
1164.879, 98.643
1166.105, 392.172
1167.330, 495.738
1168.555, 80.682
1169.779, 482.941
1171.004, 236.619
1172.228, 30.355
1173.452, 694.158
1174.676, 71.971
1175.900, 371.967
1177.123, 445.975
1178.346, 10.055
1179.570, 444.211
1180.793, 378.439
1182.015, 162.746
1183.238, 737.131
1184.460, 81.594
1185.683, 506.135
1186.905, 490.758
1188.126, 14.547
1189.348, 580.227
1190.569, 275.076
1191.791, 79.994
1193.012, 595.014
1194.233, 29.898
1195.453, 415.271
1196.674, 380.533
1197.894, 115.885
1199.114, 551.336
1200.334, 156.891
1201.554, 82.555
1202.774, 858.330
1203.993, 134.227
1205.212, 440.246
1206.431, 651.766
1207.650, 47.564
1208.869, 753.473
1210.087, 374.131
1211.305, 9.689
1212.524, 835.314
1213.741, 131.004
1214.959, 346.752
1216.177, 537.945
1217.394, 213.568
1218.611, 618.451
1219.828, 298.148
1221.045, 351.209
1222.261, 713.920
1223.478, 96.186
1224.694, 457.889
1225.910, 489.238
1227.126, 21.160
1228.342, 726.689
1229.557, 387.172
1230.772, 137.016
1231.987, 1019.693
1233.202, 52.957
1234.417, 356.287
1235.631, 666.143
1236.846, 9.160
1238.060, 836.914
1239.274, 242.969
1240.488, 109.996
1241.701, 844.459
1242.915, 0.000
##END=



