##NAMES=Albite
##RRUFFID=R040068
##IDEAL CHEMISTRY=NaAlSi_3_O_8_
##LOCALITY=Harding Pegmatite, Dixon, New Mexico, USA
##OWNER=RRUFF
##SOURCE=University of Arizona Mineral Museum
##DESCRIPTION=Tan colored crystal fragment
##STATUS=The identification of this mineral has been confirmed by X-ray diffraction and chemical analysis
##URL=rruff.info/R040068
##MEASURED CHEMISTRY=(Na_0.99_Ca_0.01_)Al_1.00_(Si_0.99_Al_0.01_)_3_O_8_
##PIN_ID=L00307
##ORIENTATION=Laser parallel to c* (0 0 1). Fiducial mark perpendicular to laser is parallel to -a [-1 0 0]
118.956, 0.000
120.347, 1.975
121.738, 83.482
123.129, 55.193
124.519, 5.083
125.910, 49.058
127.300, 5.852
128.690, 147.855
130.080, 78.524
131.469, 164.941
132.858, 286.177
134.248, 231.516
135.636, 390.387
137.025, 572.334
138.413, 986.986
139.801, 1244.040
141.189, 1583.235
142.577, 1914.342
143.964, 2087.155
145.352, 2211.499
146.739, 2147.232
148.125, 2154.283
149.512, 2172.526
150.898, 2251.801
152.284, 2882.067
153.670, 3473.284
155.056, 4395.383
156.441, 5108.283
157.827, 6371.930
159.212, 6936.305
160.596, 7131.369
161.981, 7107.047
163.365, 6603.268
164.749, 5899.979
166.133, 5307.137
167.517, 5044.707
168.900, 4572.656
170.283, 4690.963
171.666, 4639.600
173.049, 4628.548
174.431, 4688.008
175.813, 5007.521
177.195, 5709.590
178.577, 6129.710
179.959, 6729.918
181.340, 7490.475
182.721, 7721.527
184.102, 8013.049
185.483, 7604.991
186.863, 7047.431
188.244, 6140.150
189.624, 5252.967
191.003, 4395.870
192.383, 3749.856
193.762, 3161.924
195.141, 2725.225
196.520, 2489.090
197.899, 2373.253
199.277, 2387.774
200.656, 2722.411
202.034, 3087.020
203.411, 3668.203
204.789, 4175.799
206.166, 4800.061
207.543, 4714.277
208.920, 4508.469
210.297, 3952.649
211.673, 3246.829
213.049, 2471.022
214.425, 1635.232
215.801, 1259.468
217.176, 1003.731
218.552, 688.026
219.927, 512.357
221.302, 426.726
222.676, 371.131
224.051, 135.575
225.425, 130.062
226.799, 154.588
228.173, 10.845
229.546, 83.763
230.919, 48.411
232.292, 83.098
233.665, 47.824
235.038, 67.411
236.410, 127.394
237.782, 7.768
239.154, 147.109
240.526, 112.134
241.898, 30.323
243.269, 258.504
244.640, 330.486
246.011, 742.812
247.381, 830.573
248.752, 1196.446
250.122, 1165.133
251.492, 1194.774
252.861, 960.455
254.231, 751.209
255.600, 540.167
256.969, 415.375
258.338, 330.036
259.707, 264.723
261.075, 239.435
262.443, 274.177
263.811, 358.955
265.179, 443.766
266.546, 478.599
267.914, 493.452
269.281, 669.735
270.647, 867.534
272.014, 867.238
273.380, 952.152
274.747, 1219.035
276.113, 1356.049
277.478, 1787.607
278.844, 2251.880
280.209, 3096.721
281.574, 4402.010
282.939, 6006.449
284.304, 8066.273
285.668, 10545.718
287.032, 12576.437
288.396, 14037.695
289.760, 13999.370
291.123, 13111.472
292.487, 10963.870
293.850, 8506.602
295.212, 6439.604
296.575, 4802.838
297.937, 3436.280
299.300, 2599.912
300.662, 1883.729
302.023, 1397.706
303.385, 1261.839
304.746, 1116.103
306.107, 900.486
307.468, 854.984
308.829, 659.584
310.189, 714.281
311.549, 629.066
312.909, 643.938
314.269, 408.885
315.629, 473.904
316.988, 488.990
318.347, 634.141
319.706, 719.350
321.065, 944.611
322.423, 1449.926
323.781, 1835.289
325.139, 2400.693
326.497, 2966.139
327.855, 3071.623
329.212, 2537.145
330.569, 2162.697
331.926, 1638.281
333.283, 1113.898
334.639, 709.541
335.995, 685.211
337.351, 440.904
338.707, 456.619
340.063, 302.357
341.418, 338.102
342.773, 343.865
344.128, 279.648
345.483, 305.447
346.837, 233.969
348.192, 277.086
349.546, 142.924
350.899, 68.777
352.253, 94.666
353.606, 60.555
354.960, 86.475
356.313, 22.404
357.665, 88.334
359.018, 4.283
360.370, 80.232
361.722, 86.182
363.074, 47.875
364.426, 18.061
365.777, 46.010
367.128, 100.086
368.479, 75.830
369.830, 58.232
371.181, 42.305
372.531, 16.393
373.881, 10.488
375.231, 114.592
376.581, 28.727
377.930, 67.125
379.280, 47.016
380.629, 11.176
381.977, 35.346
383.326, 89.537
384.674, 43.754
386.023, 55.135
387.370, 2.180
388.718, 6.416
390.066, 20.666
391.413, 14.994
392.760, 91.256
394.107, 197.021
395.454, 362.793
396.800, 388.543
398.146, 333.469
399.492, 449.203
400.838, 284.873
402.184, 320.801
403.529, 586.504
404.874, 702.184
406.219, 549.309
407.564, 584.926
408.908, 440.527
410.252, 296.104
411.596, 181.621
412.940, 177.119
414.284, 122.582
415.627, 17.986
416.970, 93.350
418.313, 18.678
419.656, 136.014
420.999, 40.764
422.341, 109.773
423.683, 0.355
425.025, 75.191
426.367, 9.932
427.708, 75.031
429.049, 89.879
430.390, 14.838
431.731, 39.652
433.072, 27.002
434.412, 31.830
435.752, 83.408
437.092, 161.295
438.432, 65.934
439.772, 52.322
441.111, 246.863
442.450, 152.416
443.789, 96.918
445.127, 241.873
446.466, 251.805
447.804, 207.645
449.142, 382.168
450.480, 496.695
451.817, 611.361
453.155, 685.889
454.492, 760.941
455.829, 799.807
457.166, 672.691
458.502, 757.199
459.838, 822.238
461.175, 639.506
462.510, 664.922
463.846, 831.959
465.181, 1006.418
466.517, 1150.865
467.852, 1495.301
469.186, 1859.723
470.521, 2764.131
471.855, 3608.523
473.190, 5022.898
474.523, 6707.260
475.857, 8421.605
477.191, 9515.930
478.524, 9260.242
479.857, 8454.531
481.190, 6818.809
482.523, 5483.066
483.855, 4117.301
485.187, 3151.521
486.519, 2805.719
487.851, 2169.900
489.183, 1964.059
490.514, 1978.199
491.845, 1982.318
493.176, 2096.416
494.507, 2420.494
495.837, 3014.551
497.168, 3878.586
498.498, 4942.602
499.828, 6976.594
501.157, 9430.561
502.487, 13024.512
503.816, 16728.436
505.145, 18912.340
506.474, 19516.215
507.802, 17370.613
509.131, 14544.752
510.459, 11240.848
511.787, 8550.586
513.115, 6314.352
514.442, 4963.859
515.770, 3768.055
517.097, 2921.748
518.424, 2479.660
519.750, 2073.221
521.077, 1907.008
522.403, 1690.602
523.729, 1431.268
525.055, 1281.057
526.381, 1059.318
527.706, 972.154
529.031, 900.867
530.356, 843.385
531.681, 794.326
533.006, 666.484
534.330, 718.844
535.654, 616.344
536.978, 557.646
538.302, 583.293
539.625, 501.977
540.949, 491.232
542.272, 435.998
543.595, 443.979
544.917, 452.201
546.240, 451.461
547.562, 393.471
548.884, 465.195
550.206, 306.627
551.527, 131.447
552.849, 292.961
554.170, 185.965
555.491, 318.941
556.812, 301.893
558.132, 214.846
559.453, 447.748
560.773, 160.627
562.093, 293.479
563.412, 366.303
564.732, 99.100
566.051, 332.918
567.370, 312.277
568.689, 464.994
570.008, 517.686
571.326, 538.570
572.644, 645.344
573.963, 607.662
575.280, 708.961
576.598, 791.529
577.915, 672.711
579.233, 854.639
580.550, 482.307
581.866, 619.189
583.183, 429.043
584.499, 294.398
585.815, 274.664
587.131, 236.980
588.447, 301.131
589.763, 129.734
591.078, 56.807
592.393, 157.469
593.708, 168.262
595.022, 162.352
596.337, 334.545
597.651, 46.270
598.965, 137.529
600.279, 69.643
601.593, 251.725
602.906, 93.768
604.219, 24.195
605.532, 57.771
606.845, 229.707
608.158, 151.621
609.470, 113.514
610.782, 135.385
612.094, 87.232
613.406, 19.055
614.718, 170.832
616.029, 182.590
617.340, 84.322
618.651, 16.033
619.962, 65.707
621.272, 19.330
622.582, 190.922
623.892, 282.490
625.202, 434.041
626.512, 355.566
627.821, 527.076
629.131, 538.561
630.440, 760.027
631.749, 711.473
633.057, 722.898
634.366, 534.301
635.674, 575.689
636.982, 327.055
638.290, 658.400
639.597, 559.727
640.905, 651.033
642.212, 602.320
643.519, 723.588
644.825, 664.836
646.132, 796.064
647.438, 627.273
648.744, 648.463
650.050, 589.635
651.356, 250.787
652.662, 341.922
653.967, 313.035
655.272, 374.133
656.577, 349.594
657.882, 256.271
659.186, 267.314
660.490, 198.338
661.794, 109.346
663.098, 140.334
664.402, 51.305
665.705, 62.252
667.009, 3.182
668.312, 55.930
669.614, 114.889
670.917, 54.305
672.219, 46.432
673.522, 107.146
674.824, 32.156
676.125, 118.488
677.427, 59.117
678.728, 229.729
680.030, 14.482
681.331, 55.061
682.631, 15.621
683.932, 41.998
685.232, 53.326
686.532, 2.879
687.832, 117.549
689.132, 287.975
690.432, 128.393
691.731, 18.801
693.030, 89.215
694.329, 10.373
695.628, 140.004
696.926, 100.379
698.224, 100.750
699.522, 21.119
700.820, 108.506
702.118, 61.801
703.415, 132.113
704.713, 123.279
706.010, 13.578
707.307, 15.525
708.603, 115.791
709.900, 134.387
711.196, 124.535
712.492, 114.688
713.788, 35.012
715.083, 75.141
716.379, 235.260
717.674, 45.154
718.969, 205.254
720.264, 245.340
721.558, 6.055
722.853, 93.625
724.147, 56.361
725.441, 126.340
726.735, 22.969
728.028, 156.971
729.322, 186.986
730.615, 56.908
731.908, 26.832
733.201, 76.744
734.493, 196.654
735.785, 6.605
737.078, 53.434
738.370, 116.529
739.661, 66.498
740.953, 36.490
742.244, 126.486
743.535, 146.477
744.826, 136.496
746.117, 146.348
747.407, 214.654
748.698, 264.705
749.988, 204.758
751.278, 354.842
752.567, 274.922
753.857, 243.201
755.146, 223.268
756.435, 602.309
757.724, 592.377
759.013, 751.979
760.301, 836.615
761.590, 975.346
762.878, 965.400
764.165, 1015.455
765.453, 795.367
766.741, 865.416
768.028, 464.934
769.315, 602.268
770.602, 422.312
771.888, 322.357
773.175, 511.859
774.461, 559.127
775.747, 498.234
777.033, 415.709
778.319, 405.752
779.604, 307.133
780.889, 235.834
782.174, 155.879
783.459, 185.924
784.744, 145.971
786.028, 256.020
787.312, 256.066
788.596, 336.117
789.880, 126.170
791.164, 46.227
792.447, 206.283
793.730, 136.344
795.013, 256.408
796.296, 256.473
797.579, 196.543
798.861, 146.615
800.143, 276.691
801.425, 296.770
802.707, 276.855
803.989, 476.941
805.270, 457.035
806.551, 457.133
807.832, 667.232
809.113, 987.340
810.394, 1127.453
811.674, 1517.568
812.954, 1857.691
814.234, 1927.820
815.514, 1757.955
816.794, 1478.094
818.073, 1278.242
819.352, 767.861
820.631, 547.717
821.910, 645.602
823.189, 339.826
824.467, 440.010
825.745, 384.434
827.023, 264.152
828.301, 464.361
829.578, 220.336
830.856, 60.559
832.133, 200.631
833.410, 129.123
834.687, 149.680
835.963, 99.693
837.240, 58.658
838.516, 34.201
839.792, 169.090
841.068, 107.205
842.343, 147.494
843.618, 37.799
844.894, 148.111
846.169, 187.615
847.443, 37.953
848.718, 195.965
849.992, 86.328
851.266, 156.707
852.540, 87.098
853.814, 7.018
855.088, 229.182
856.361, 39.613
857.634, 49.941
858.907, 180.510
860.180, 39.586
861.453, 278.646
862.725, 90.654
863.997, 11.162
865.269, 191.688
866.541, 17.770
867.812, 242.764
869.084, 33.334
870.355, 213.924
871.626, 74.531
872.897, 65.158
874.167, 85.803
875.438, 104.588
876.708, 199.461
877.978, 120.145
879.248, 49.152
880.517, 149.516
881.787, 9.723
883.056, 11.059
884.325, 251.855
885.594, 202.684
886.862, 143.531
888.130, 84.434
889.399, 85.336
890.667, 75.730
891.934, 112.457
893.202, 114.707
894.469, 205.711
895.737, 216.734
897.004, 207.773
898.270, 308.836
899.537, 149.926
900.803, 291.039
902.070, 192.176
903.336, 43.340
904.601, 284.520
905.867, 115.723
907.132, 16.957
908.398, 118.215
909.663, 309.496
910.928, 150.797
912.192, 32.137
913.457, 353.520
914.721, 194.930
915.985, 266.359
917.249, 227.812
918.512, 69.289
919.776, 380.785
921.039, 142.305
922.302, 443.859
923.565, 195.430
924.827, 267.027
926.090, 308.645
927.352, 250.293
928.614, 289.340
929.876, 363.676
931.138, 315.398
932.399, 277.145
933.660, 378.914
934.922, 220.699
936.182, 242.504
937.443, 314.328
938.704, 146.176
939.964, 348.039
941.224, 369.926
942.484, 451.832
943.744, 427.797
945.003, 441.348
946.262, 297.676
947.521, 419.664
948.780, 381.680
950.039, 383.711
951.298, 55.770
952.556, 447.848
953.814, 89.949
955.072, 552.078
956.330, 404.219
957.587, 346.391
958.845, 358.582
960.102, 330.801
961.359, 373.043
962.615, 245.309
963.872, 290.203
965.128, 489.906
966.384, 332.246
967.640, 404.605
968.896, 496.992
970.152, 259.406
971.407, 611.844
972.662, 624.316
973.917, 436.816
975.172, 759.371
976.427, 591.957
977.681, 604.586
978.935, 957.250
980.189, 239.938
981.443, 632.672
982.697, 565.434
983.950, 238.219
985.203, 726.883
986.456, 249.730
987.709, 322.609
988.962, 356.156
990.214, 309.113
991.467, 442.250
992.719, 215.293
993.971, 398.367
995.222, 251.469
996.474, 374.598
997.725, 327.758
998.976, 240.949
1000.227, 514.172
1001.478, 467.426
1002.728, 450.711
1003.978, 664.020
1005.229, 357.359
1006.479, 500.770
1007.728, 554.203
1008.978, 416.805
1010.227, 650.297
1011.476, 593.219
1012.725, 556.785
1013.974, 680.422
1015.223, 494.086
1016.471, 417.781
1017.719, 681.324
1018.967, 585.082
1020.215, 718.867
1021.462, 583.234
1022.710, 837.086
1023.957, 710.973
1025.204, 854.891
1026.451, 1096.473
1027.697, 1330.492
1028.944, 1304.652
1030.190, 1428.020
1031.436, 1648.582
1032.682, 1652.664
1033.928, 1576.867
1035.173, 1243.254
1036.418, 1037.520
1037.663, 938.867
1038.908, 793.199
1040.153, 857.570
1041.398, 912.086
1042.642, 786.551
1043.886, 581.047
1045.130, 695.586
1046.374, 860.160
1047.617, 594.777
1048.860, 619.496
1050.104, 754.191
1051.347, 588.934
1052.589, 793.691
1053.832, 388.500
1055.074, 653.348
1056.316, 588.246
1057.558, 413.008
1058.800, 667.750
1060.042, 782.316
1061.283, 579.844
1062.524, 584.445
1063.765, 599.113
1065.006, 523.738
1066.247, 668.363
1067.487, 432.984
1068.728, 687.594
1069.968, 562.188
1071.208, 506.785
1072.447, 471.195
1073.687, 495.574
1074.926, 569.922
1076.165, 764.234
1077.404, 478.504
1078.643, 702.750
1079.881, 637.230
1081.120, 621.273
1082.358, 805.523
1083.596, 709.816
1084.834, 1014.148
1086.071, 768.527
1087.309, 952.949
1088.546, 1037.418
1089.783, 1101.922
1091.020, 1496.473
1092.256, 1551.070
1093.493, 1725.715
1094.729, 2130.398
1095.965, 2285.133
1097.201, 2519.910
1098.436, 2824.734
1099.672, 2309.602
1100.907, 2264.520
1102.142, 2289.480
1103.377, 1684.488
1104.612, 1939.539
1105.846, 1744.637
1107.081, 1449.781
1108.315, 1545.016
1109.549, 1260.293
1110.782, 1415.609
1112.016, 1610.973
1113.249, 1426.383
1114.483, 1451.840
1115.716, 1317.340
1116.948, 1082.879
1118.181, 1268.473
1119.413, 1044.113
1120.646, 1119.809
1121.878, 1155.555
1123.110, 661.344
1124.341, 567.184
1125.573, 583.059
1126.804, 428.977
1128.035, 434.949
1129.266, 410.980
1130.497, 358.004
1131.727, 523.070
1132.957, 279.125
1134.188, 455.125
1135.418, 341.164
1136.647, 32.766
1137.877, 483.336
1139.106, 10.527
1140.335, 285.641
1141.564, 311.844
1142.793, 158.070
1144.022, 544.332
1145.250, 10.613
1146.479, 346.910
1147.707, 353.242
1148.934, 219.617
1150.162, 456.043
1151.390, 282.516
1152.617, 439.039
1153.844, 525.637
1155.071, 202.293
1156.298, 219.023
1157.524, 365.828
1158.751, 222.703
1159.977, 389.664
1161.203, 26.695
1162.428, 113.797
1163.654, 320.984
1164.879, 58.246
1166.105, 145.586
1167.330, 333.000
1168.555, 9.500
1169.779, 68.078
1171.004, 225.730
1172.228, 73.465
1173.452, 431.281
1174.676, 119.176
1175.900, 17.156
1177.123, 335.219
1178.346, 86.637
1179.570, 391.594
1180.793, 109.914
1182.015, 11.664
1183.238, 394.770
1184.460, 87.086
1185.683, 331.578
1186.905, 350.363
1188.126, 69.266
1189.348, 428.293
1190.569, 127.465
1191.791, 206.773
1193.012, 466.227
1194.233, 265.820
1195.453, 115.562
1196.674, 415.465
1197.894, 305.523
1199.114, 392.996
1200.334, 213.270
1201.554, 173.711
1202.774, 553.711
1203.993, 295.094
1205.212, 480.023
1206.431, 289.977
1207.650, 14.945
1208.869, 408.797
1210.087, 92.469
1211.305, 255.156
1212.524, 335.977
1213.741, 305.832
1214.959, 346.980
1216.177, 280.871
1217.394, 282.031
1218.611, 258.180
1219.828, 212.625
1221.045, 185.562
1222.261, 144.691
1223.478, 226.332
1224.694, 81.113
1225.910, 0.750
1227.126, 0.000
##END=



