##NAMES=Almandine
##RRUFFID=R070129
##IDEAL CHEMISTRY=Fe^2+^_3_Al_2_(SiO_4_)_3_
##LOCALITY=Wrangell, Wrangell Island, Wrangell-Petersburg Borough, Alaska, USA
##OWNER=Michael Scott
##SOURCE=Michael Scott
##DESCRIPTION=Dark red well-formed dodecahedral crystals in schist
##STATUS=The identification of this mineral has been confirmed by X-ray diffraction and chemical analysis
##URL=rruff.info/R070129
##MEASURED CHEMISTRY=(Fe^2+^_2.15_Mg_0.60_Mn_0.11_Fe^3+^_0.06_Ca_0.08_)_Σ=3_Al_2.00_((Si_0.98_Al_0.02_)_Σ=1_O_4_)_3_
##PIN_ID=L01134
##ORIENTATION=Laser parallel to b* (0 1 0). Fiducial mark perpendicular to laser is parallel to a [1 0 0]
137.6830, 0.0000000E+00
138.9210, 67.49426
140.1580, 82.91016
141.3950, 22.15796
142.6330, 2.752563
143.8690, 10.71667
145.1060, 31.55884
146.3430, 58.28198
147.5790, 68.58740
148.8150, 92.32532
150.0510, 140.3109
151.2870, 163.3286
152.5220, 232.2708
153.7580, 241.1536
154.9930, 308.0323
156.2280, 384.9438
157.4620, 476.9128
158.6970, 566.9557
159.9310, 775.0837
161.1660, 884.5559
162.4000, 1018.746
163.6330, 1254.758
164.8670, 1556.562
166.1000, 1579.404
167.3340, 1741.402
168.5670, 1653.547
169.8000, 1569.831
171.0320, 1384.246
172.2650, 1089.784
173.4970, 889.4396
174.7290, 644.2074
175.9610, 473.0830
177.1930, 332.0581
178.4240, 211.1298
179.6550, 176.2961
180.8870, 74.55542
182.1170, 53.90479
183.3480, 35.33911
184.5790, 25.14722
185.8090, 33.55835
187.0390, 5.100830
188.2690, 25.17432
189.4990, 12.38696
190.7290, 15.45984
191.9580, 9.635864
193.1870, 26.32349
194.4160, 63.33643
195.6450, 28.40088
196.8740, 83.51514
198.1020, 105.6779
199.3310, 103.8875
200.5590, 133.1426
201.7870, 156.4421
203.0140, 182.5865
204.2420, 247.1691
205.4690, 252.5947
206.6960, 319.0603
207.9230, 361.5652
209.1500, 321.1089
210.3760, 405.6906
211.6030, 379.3461
212.8290, 442.0254
214.0550, 449.7122
215.2810, 449.4058
216.5060, 443.6582
217.7320, 434.9333
218.9570, 376.7563
220.1820, 367.6548
221.4070, 315.5950
222.6320, 309.5856
223.8560, 340.6163
225.0800, 291.6888
226.3040, 319.7725
227.5280, 313.8667
228.7520, 339.9720
229.9760, 349.0892
231.1990, 358.2192
232.4220, 375.3624
233.6450, 360.5193
234.8680, 393.6843
236.0910, 407.8418
237.3130, 425.0020
238.5350, 356.1741
239.7570, 390.3610
240.9790, 360.5642
242.2010, 375.7839
243.4220, 355.0203
244.6430, 368.9290
245.8640, 402.5425
247.0850, 393.8284
248.3060, 405.1310
249.5270, 404.4500
250.7470, 405.7854
251.9670, 377.1372
253.1870, 418.5052
254.4070, 412.8895
255.6260, 460.2900
256.8460, 452.7063
258.0650, 524.1384
259.2840, 580.5859
260.5030, 505.0493
261.7220, 473.5280
262.9400, 447.0217
264.1580, 462.5310
265.3760, 401.0552
266.5940, 497.5948
267.8120, 422.1494
269.0290, 404.7195
270.2470, 468.3047
271.4640, 452.9055
272.6810, 463.5217
273.8980, 432.1538
275.1140, 515.8021
276.3310, 544.4668
277.5470, 565.1482
278.7630, 592.6222
279.9790, 560.5618
281.1940, 600.2941
282.4100, 599.0437
283.6250, 594.1719
284.8400, 664.3475
286.0550, 672.3662
287.2700, 675.3091
288.4850, 749.6062
289.6990, 701.2405
290.9130, 761.3990
292.1270, 769.5583
293.3410, 837.3110
294.5540, 848.1235
295.7680, 886.1599
296.9810, 872.4575
298.1940, 939.4341
299.4070, 874.7197
300.6200, 955.0911
301.8320, 1122.484
303.0450, 1052.474
304.2570, 1220.467
305.4690, 1241.930
306.6800, 1313.585
307.8920, 1426.529
309.1030, 1474.490
310.3150, 1669.661
311.5260, 1748.293
312.7360, 1885.804
313.9470, 2073.338
315.1580, 2251.892
316.3680, 2374.469
317.5780, 2629.066
318.7880, 2904.684
319.9980, 3072.321
321.2070, 3356.977
322.4170, 3925.652
323.6260, 4184.345
324.8350, 4610.055
326.0430, 5022.783
327.2520, 5359.527
328.4610, 5810.287
329.6690, 6231.064
330.8770, 6409.999
332.0850, 6933.584
333.2920, 7322.405
334.5000, 8020.437
335.7070, 8951.986
336.9140, 9941.849
338.1210, 11084.53
339.3280, 12403.42
340.5350, 13852.32
341.7410, 15531.24
342.9470, 16889.17
344.1540, 17746.11
345.3590, 18461.07
346.5650, 18233.04
347.7710, 17493.02
348.9760, 16133.01
350.1810, 14720.01
351.3860, 12692.02
352.5910, 11018.04
353.7950, 9515.081
355.0000, 8267.125
356.2040, 7322.645
357.4080, 6511.247
358.6120, 6123.323
359.8150, 5851.409
361.0190, 5815.503
362.2220, 5865.607
363.4250, 6009.722
364.6280, 6334.845
365.8310, 6568.977
367.0340, 6905.117
368.2360, 7194.266
369.4380, 7376.423
370.6400, 7484.588
371.8420, 7442.761
373.0440, 7124.941
374.2450, 6702.130
375.4470, 6190.326
376.6480, 5363.530
377.8490, 4767.742
379.0490, 4114.961
380.2500, 3436.188
381.4500, 2936.423
382.6510, 2452.665
383.8510, 2116.916
385.0500, 1741.174
386.2500, 1522.441
387.4500, 1284.715
388.6490, 1142.997
389.8480, 931.2854
391.0470, 782.5858
392.2460, 713.8965
393.4440, 683.2220
394.6430, 610.5562
395.8410, 482.8984
397.0390, 414.2542
398.2370, 383.6183
399.4340, 325.9973
400.6320, 342.3859
401.8290, 292.7998
403.0260, 265.2257
404.2230, 196.6737
405.4200, 194.1304
406.6170, 175.5974
407.8130, 174.0867
409.0090, 148.0779
410.2050, 121.7815
411.4010, 99.65710
412.5970, 76.21680
413.7920, 59.80334
414.9880, 81.40918
416.1830, 111.0382
417.3780, 61.67676
418.5730, 28.32166
419.7670, 68.97693
420.9620, 47.64697
422.1560, 6.337036
423.3500, 3.046997
424.5440, 23.77026
425.7380, 42.51123
426.9310, 29.72986
428.1240, 42.96863
429.3180, 5.794678
430.5110, 36.57410
431.7030, 6.627930
432.8960, 4.174683
434.0890, 8.5450001E-03
435.2810, 5.813477
436.4730, 31.35144
437.6650, 31.52478
438.8570, 15.70715
440.0480, 12.11841
441.2390, 13.05115
442.4310, 37.22168
443.6220, 55.40356
444.8120, 18.39221
446.0030, 29.80725
447.1940, 10.01697
448.3840, 37.22852
449.5740, 1.452271
450.7640, 7.675049
451.9540, 44.89941
453.1430, 12.14307
454.3330, 0.3906250
455.5220, 24.36230
456.7110, 29.11780
457.9000, 33.38892
459.0890, 54.63647
460.2770, 31.39917
461.4650, 19.16382
462.6540, 18.93054
463.8420, 30.72461
465.0290, 93.47656
466.2170, 58.25171
467.4050, 97.02832
468.5920, 72.80603
469.7790, 113.5845
470.9660, 146.3837
472.1530, 216.1434
473.3390, 231.9238
474.5250, 266.7081
475.7120, 307.4980
476.8980, 285.2882
478.0840, 309.0828
479.2690, 353.8784
480.4550, 289.6740
481.6400, 297.4697
482.8250, 287.2651
484.0100, 260.0596
485.1950, 220.8533
486.3800, 244.6458
487.5640, 288.4371
488.7480, 326.1962
489.9320, 350.0156
491.1160, 486.8035
492.3000, 548.5898
493.4840, 681.3741
494.6670, 784.1565
495.8500, 938.9375
497.0330, 1141.717
498.2160, 1228.493
499.3990, 1281.267
500.5810, 1302.039
501.7630, 1252.811
502.9460, 1158.581
504.1280, 943.3503
505.3090, 835.1179
506.4910, 683.8832
507.6720, 558.6494
508.8540, 519.4148
510.0350, 488.1769
511.2160, 344.9363
512.3960, 389.6920
513.5770, 386.4443
514.7570, 323.1926
515.9380, 387.9528
517.1180, 409.6980
518.2970, 447.4341
519.4770, 402.3010
520.6570, 434.0348
521.8360, 468.8500
523.0150, 385.6414
524.1940, 513.4512
525.3730, 480.3113
526.5510, 483.1588
527.7300, 475.1421
528.9080, 488.9744
530.0860, 522.7855
531.2640, 529.5222
532.4420, 561.3678
533.6200, 611.7339
534.7970, 672.3435
535.9740, 706.4172
537.1510, 764.5620
538.3280, 864.7400
539.5050, 947.9240
540.6810, 1017.547
541.8580, 1239.972
543.0340, 1402.131
544.2100, 1633.154
545.3860, 1980.591
546.5610, 2363.873
547.7370, 2673.586
548.9120, 3106.110
550.0870, 3625.365
551.2620, 4156.745
552.4370, 4736.992
553.6120, 5215.853
554.7860, 5466.598
555.9600, 5454.519
557.1340, 5415.319
558.3080, 5025.990
559.4820, 4502.948
560.6560, 4018.804
561.8290, 3409.731
563.0020, 2812.919
564.1750, 2399.100
565.3480, 1934.797
566.5210, 1627.445
567.6930, 1395.293
568.8660, 1166.976
570.0380, 997.5717
571.2100, 906.0806
572.3820, 826.0449
573.5530, 775.4021
574.7250, 723.0848
575.8960, 674.4634
577.0670, 682.3739
578.2380, 615.2725
579.4090, 680.0732
580.5800, 665.9080
581.7500, 704.2488
582.9210, 703.0693
584.0910, 730.6384
585.2610, 666.9330
586.4300, 647.2783
587.6000, 639.0239
588.7690, 652.7329
589.9390, 658.2725
591.1080, 684.3191
592.2770, 681.0459
593.4450, 726.6671
594.6140, 772.0583
595.7820, 780.9929
596.9500, 864.0583
598.1190, 883.1096
599.2860, 845.1733
600.4540, 731.1958
601.6220, 755.2042
602.7890, 624.2661
603.9560, 525.9037
605.1230, 492.9402
606.2900, 430.8906
607.4570, 366.8517
608.6230, 333.3977
609.7890, 299.6792
610.9560, 259.5707
612.1220, 272.4475
613.2870, 254.3096
614.4530, 253.1567
615.6180, 203.9890
616.7840, 225.8063
617.9490, 213.7510
619.1140, 229.5383
620.2790, 250.3104
621.4430, 247.0675
622.6080, 316.8094
623.7720, 311.5364
624.9360, 345.2478
626.1000, 408.9441
627.2640, 392.6252
628.4270, 447.2911
629.5910, 464.9417
630.7540, 487.7174
631.9170, 527.3374
633.0800, 519.9421
634.2430, 523.5314
635.4050, 524.2053
636.5680, 449.7639
637.7300, 439.3070
638.8920, 445.8420
640.0540, 347.3984
641.2150, 282.3273
642.3770, 293.9589
643.5380, 204.9082
644.7000, 250.5496
645.8610, 223.1442
647.0210, 187.3942
648.1820, 191.2689
649.3430, 193.6976
650.5030, 156.2161
651.6630, 131.5730
652.8230, 145.9457
653.9830, 111.2715
655.1430, 91.58154
656.3020, 93.87561
657.4620, 103.1543
658.6210, 63.41699
659.7800, 92.66296
660.9390, 71.89319
662.0970, 76.10718
663.2560, 70.30469
664.4140, 59.59900
665.5720, 60.16125
666.7300, 46.79773
667.8880, 59.92688
669.0460, 62.03943
670.2030, 78.13538
671.3600, 14.21521
672.5180, 26.26892
673.6740, 0.6990970
674.8310, 36.29993
675.9880, 32.27979
677.1440, 5.239502
678.3010, 29.17017
679.4570, 2.919800
680.6130, 19.95740
681.7690, 44.18811
682.9240, 5.611816
684.0800, 33.61609
685.2350, 21.10754
686.3900, 9.809692
687.5450, 36.51343
688.7000, 0.8857420
689.8540, 35.28833
691.0090, 33.73877
692.1630, 12.23621
693.3170, 58.76904
694.4710, 30.36108
695.6250, 44.99756
696.7780, 4.314453
697.9320, 20.60095
699.0850, 0.1311040
700.2380, 17.89001
701.3910, 38.68494
702.5440, 39.31409
703.6970, 16.41370
704.8490, 32.33508
706.0010, 36.29834
707.1530, 24.30505
708.3050, 35.34229
709.4570, 17.41223
710.6090, 25.51416
711.7600, 15.34790
712.9110, 6.803955
714.0620, 34.01929
715.2130, 12.16992
716.3640, 20.61401
717.5150, 30.39185
718.6650, 25.83557
719.8150, 29.90820
720.9650, 8.639893
722.1150, 5.360962
723.2650, 26.07617
724.4150, 12.09912
725.5640, 12.16504
726.7130, 20.19824
727.8630, 0.1096190
729.0110, 21.57642
730.1600, 23.25317
731.3090, 54.92188
732.4570, 50.50916
733.6060, 63.25659
734.7540, 38.91284
735.9020, 50.55981
737.0490, 24.19788
738.1970, 45.82678
739.3440, 49.44678
740.4920, 10.05835
741.6390, 12.33923
742.7860, 6.247437
743.9320, 37.82544
745.0790, 14.39539
746.2250, 32.95703
747.3720, 59.51111
748.5180, 24.05750
749.6640, 59.59631
750.8100, 57.12793
751.9550, 32.65234
753.1010, 22.16968
754.2460, 39.68030
755.3910, 4.816040
756.5360, 48.67908
757.6810, 49.16785
758.8250, 25.65002
759.9700, 59.12598
761.1140, 40.59583
762.2580, 25.05969
763.4020, 28.51770
764.5460, 49.96997
765.6900, 24.41675
766.8330, 22.85803
767.9760, 8.706055
769.1200, 42.72290
770.2620, 18.14697
771.4050, 25.61401
772.5480, 7.019531
773.6900, 24.38892
774.8330, 11.79272
775.9750, 1.192383
777.1170, 3.412476
778.2590, 22.02209
779.4000, 10.64014
780.5420, 24.26404
781.6830, 12.89624
782.8240, 11.53442
783.9650, 35.17761
785.1060, 24.83252
786.2470, 3.495239
787.3870, 11.16150
788.5280, 9.167725
789.6680, 2.505859
790.8080, 14.81775
791.9480, 15.31592
793.0870, 8.442017
794.2270, 24.75378
795.3660, 7.068970
796.5060, 21.24683
797.6450, 57.55188
798.7830, 99.76953
799.9220, 101.0048
801.0610, 81.21594
802.1990, 127.3706
803.3370, 120.5321
804.4750, 122.5520
805.6130, 158.7173
806.7510, 150.8978
807.8890, 184.1470
809.0260, 241.2820
810.1630, 243.8905
811.3000, 300.2500
812.4370, 306.1399
813.5740, 255.9534
814.7110, 284.7283
815.8470, 245.4915
816.9830, 276.8101
818.1190, 259.3219
819.2550, 253.0942
820.3910, 227.9976
821.5270, 211.4817
822.6620, 182.1157
823.7970, 188.3137
824.9330, 153.6952
826.0670, 134.3411
827.2020, 104.8571
828.3370, 104.0396
829.4710, 164.5258
830.6060, 116.6632
831.7400, 149.6183
832.8740, 171.6908
834.0080, 175.8916
835.1410, 170.8091
836.2750, 201.8268
837.4080, 202.7755
838.5410, 208.4717
839.6740, 302.1742
840.8070, 292.3611
841.9400, 310.5925
843.0730, 294.6221
844.2050, 373.4681
845.3370, 330.6841
846.4690, 497.0911
847.6010, 554.0574
848.7330, 545.3552
849.8640, 624.6260
850.9960, 674.1664
852.1270, 750.2244
853.2580, 853.7435
854.3890, 954.3430
855.5200, 1056.722
856.6500, 1217.372
857.7810, 1349.890
858.9110, 1414.379
860.0410, 1563.094
861.1710, 1664.767
862.3010, 1763.473
863.4310, 1790.247
864.5600, 1805.755
865.6900, 1776.590
866.8190, 1724.452
867.9480, 1613.393
869.0770, 1622.352
870.2050, 1564.325
871.3340, 1535.321
872.4620, 1514.330
873.5900, 1526.332
874.7180, 1573.375
875.8460, 1617.430
876.9740, 1668.437
878.1010, 1694.868
879.2290, 1809.901
880.3560, 1938.017
881.4830, 1989.122
882.6100, 2239.268
883.7370, 2325.427
884.8630, 2549.604
885.9900, 2760.795
887.1160, 2981.000
888.2420, 3270.217
889.3680, 3616.448
890.4940, 3955.692
891.6200, 4353.805
892.7450, 4779.075
893.8700, 5218.357
894.9960, 5865.653
896.1210, 6527.963
897.2460, 7128.285
898.3700, 7945.621
899.4950, 8905.970
900.6190, 10015.33
901.7430, 11247.71
902.8670, 13011.10
903.9910, 15026.37
905.1150, 17637.78
906.2390, 20976.54
907.3620, 24668.66
908.4850, 29225.02
909.6080, 34289.49
910.7310, 39861.98
911.8540, 45830.47
912.9770, 51727.94
914.0990, 56790.04
915.2210, 60227.43
916.3440, 61952.51
917.4660, 61047.89
918.5870, 58478.31
919.7090, 53340.08
920.8310, 47468.22
921.9520, 40834.81
923.0730, 34704.31
924.1940, 28989.96
925.3150, 24207.61
926.4360, 20383.30
927.5560, 17247.00
928.6770, 14550.72
929.7970, 12480.45
930.9170, 10779.19
932.0370, 9312.956
933.1570, 8058.732
934.2760, 7080.524
935.3960, 6166.331
936.5150, 5492.154
937.6340, 4856.993
938.7530, 4260.847
939.8720, 3765.718
940.9910, 3404.603
942.1090, 3096.505
943.2280, 2741.423
944.3460, 2471.360
945.4640, 2137.316
946.5820, 1989.296
947.6990, 1764.292
948.8170, 1644.307
949.9340, 1499.343
951.0520, 1426.397
952.1690, 1300.475
953.2860, 1244.571
954.4030, 1226.703
955.5190, 1132.856
956.6360, 996.0403
957.7520, 1056.244
958.8680, 943.4670
959.9840, 934.7231
961.1000, 961.0018
962.2160, 832.3125
963.3310, 790.6545
964.4470, 793.0214
965.5620, 794.4258
966.6770, 738.8599
967.7920, 697.3400
968.9060, 750.0552
970.0210, 779.2540
971.1360, 672.1238
972.2500, 816.4277
973.3640, 698.7827
974.4780, 773.1975
975.5920, 745.8328
976.7050, 682.7603
977.8190, 796.3594
978.9320, 777.5760
980.0450, 662.3560
981.1580, 655.4474
982.2710, 675.9949
983.3840, 676.8148
984.4970, 666.3850
985.6090, 630.3667
986.7210, 611.8508
987.8330, 595.7660
988.9450, 564.5874
990.0570, 496.0734
991.1690, 527.8477
992.2800, 491.7473
993.3920, 502.4639
994.5030, 517.4197
995.6140, 536.4985
996.7250, 475.4552
997.8350, 478.7249
998.9460, 481.1772
1000.056, 480.3198
1001.167, 478.6343
1002.277, 496.0288
1003.387, 509.1199
1004.496, 541.0088
1005.606, 546.2056
1006.715, 562.0541
1007.825, 563.3938
1008.934, 573.2385
1010.043, 576.3145
1011.152, 593.7925
1012.260, 576.3584
1013.369, 591.4878
1014.477, 635.6754
1015.586, 656.5344
1016.694, 708.7451
1017.802, 738.9933
1018.909, 738.4365
1020.017, 734.6062
1021.124, 770.7407
1022.232, 845.8811
1023.339, 857.0269
1024.446, 911.2167
1025.553, 906.3744
1026.659, 938.5375
1027.766, 1015.706
1028.872, 1122.879
1029.979, 1258.056
1031.085, 1277.239
1032.191, 1356.427
1033.296, 1459.619
1034.402, 1536.815
1035.507, 1644.016
1036.613, 1673.221
1037.718, 1721.431
1038.823, 1810.645
1039.928, 1859.863
1041.032, 1763.085
1042.137, 1746.311
1043.241, 1765.540
1044.346, 1732.773
1045.450, 1576.010
1046.554, 1474.251
1047.657, 1358.498
1048.761, 1272.748
1049.864, 1087.004
1050.968, 891.2643
1052.071, 834.5310
1053.174, 700.8042
1054.277, 723.0835
1055.379, 497.3652
1056.482, 510.6504
1057.584, 447.9373
1058.687, 346.2332
1059.789, 307.5327
1060.891, 348.8337
1061.992, 258.1368
1063.094, 287.4413
1064.196, 188.7473
1065.297, 208.0630
1066.398, 196.3950
1067.499, 172.7278
1068.600, 174.0701
1069.701, 122.4132
1070.801, 112.7615
1071.902, 121.1104
1073.002, 132.4602
1074.102, 84.81140
1075.202, 54.16370
1076.302, 163.5161
1077.402, 76.86877
1078.501, 117.2212
1079.600, 108.5731
1080.700, 92.92383
1081.799, 87.28040
1082.898, 46.63574
1083.996, 111.9934
1085.095, 60.35986
1086.193, 33.72961
1087.292, 146.0988
1088.390, 52.46570
1089.488, 21.83044
1090.586, 25.19238
1091.683, 39.63171
1092.781, 44.99231
1093.878, 38.96545
1094.975, 42.88525
1096.073, 20.15259
1097.169, 25.50305
1098.266, 12.84949
1099.363, 18.80688
1100.459, 21.47852
1101.556, 12.16687
1102.652, 21.86768
1103.748, 43.58643
1104.844, 11.33508
1105.940, 11.09338
1107.035, 33.13562
1108.131, 0.6398930
1109.226, 58.41968
1110.321, 51.23999
1111.416, 59.09766
1112.511, 63.04871
1113.605, 53.35840
1114.700, 40.92725
1115.794, 36.94653
1116.889, 24.99829
1117.983, 17.07666
1119.077, 23.17798
1120.170, 8.109985
1121.264, 43.45325
1122.357, 2.638428
1123.451, 19.84082
1124.544, 48.06958
1125.637, 19.34021
1126.730, 20.63770
1127.823, 33.96326
1128.915, 38.32422
1130.008, 8.723145
1131.100, 18.85510
1132.192, 13.42261
1133.284, 6.022827
1134.376, 11.50952
1135.467, 22.97217
1136.559, 22.51416
1137.650, 11.01086
1138.742, 18.43787
1139.833, 31.87378
1140.924, 7.701294
1142.014, 16.69836
1143.105, 15.08362
1144.195, 55.45410
1145.286, 44.06384
1146.376, 10.16272
1147.466, 43.49377
1148.556, 3.813477
1149.646, 24.11182
1150.735, 60.39636
1151.825, 109.6698
1152.914, 90.93274
1154.003, 76.18469
1155.092, 64.42578
1156.181, 93.65552
1157.270, 87.22729
1158.358, 109.9889
1159.447, 121.2784
1160.535, 141.4637
1161.623, 187.6378
1162.711, 176.8005
1163.799, 198.9517
1164.886, 222.0914
1165.974, 207.2195
1167.061, 214.3361
1168.148, 265.4408
1169.235, 267.5339
1170.322, 234.6151
1171.409, 193.6844
1172.496, 254.8063
1173.582, 251.8516
1174.669, 253.8849
1175.755, 284.2972
1176.841, 259.1914
1177.927, 315.1881
1179.012, 252.3173
1180.098, 262.2892
1181.183, 205.3116
1182.269, 219.9572
1183.354, 258.8916
1184.439, 193.1267
1185.524, 304.0398
1186.608, 209.0459
1187.693, 295.9290
1188.777, 294.3394
1189.862, 285.6741
1190.946, 212.5182
1192.030, 245.5217
1193.113, 227.3718
1194.197, 235.3015
1195.281, 191.1240
1196.364, 246.5342
1197.447, 203.2970
1198.530, 224.1147
1199.613, 236.9819
1200.696, 211.7753
1201.779, 214.6249
1202.861, 180.5426
1203.944, 176.5299
1205.026, 267.4851
1206.108, 239.3103
1207.190, 251.1407
1208.271, 190.8411
1209.353, 155.6152
1210.435, 163.2137
1211.516, 189.3778
1212.597, 202.9958
1213.678, 185.3990
1214.759, 191.3995
1215.840, 196.1108
1216.920, 148.9119
1218.001, 139.4125
1219.081, 158.9541
1220.161, 153.4192
1221.241, 105.9375
1222.321, 127.3326
1223.401, 103.7404
1224.480, 168.1838
1225.560, 161.4910
1226.639, 186.8518
1227.718, 163.2749
1228.797, 137.8665
1229.876, 169.1680
1230.955, 190.3019
1232.033, 139.8906
1233.112, 180.9307
1234.190, 136.5024
1235.268, 181.8993
1236.346, 176.6195
1237.424, 196.0929
1238.501, 171.2933
1239.579, 128.6666
1240.656, 134.3672
1241.733, 166.4993
1242.811, 211.3086
1243.888, 161.6721
1244.964, 198.7629
1246.041, 183.0746
1247.117, 211.0629
1248.194, 140.4982
1249.270, 153.5011
1250.346, 149.4014
1251.422, 207.0352
1252.498, 190.1838
1253.573, 235.2063
1254.649, 228.4114
1255.724, 210.3748
1256.800, 190.2134
1257.875, 179.1726
1258.950, 168.1208
1260.024, 156.2766
1261.099, 175.0444
1262.173, 214.6377
1263.248, 254.1482
1264.322, 224.6003
1265.396, 195.9688
1266.470, 185.6675
1267.544, 198.7112
1268.617, 206.2605
1269.691, 170.9663
1270.764, 213.1074
1271.837, 174.5144
1272.910, 138.8271
1273.983, 158.5732
1275.056, 200.2576
1276.129, 176.2668
1277.201, 152.9204
1278.273, 130.5330
1279.346, 134.9460
1280.418, 181.6289
1281.489, 191.3428
1282.561, 176.1997
1283.633, 173.3398
1284.704, 136.3862
1285.776, 133.0608
1286.847, 126.7258
1287.918, 133.3813
1288.989, 150.0271
1290.059, 135.6636
1291.130, 166.2910
1292.200, 96.90918
1293.271, 92.51855
1294.341, 90.11865
1295.411, 120.7097
1296.481, 65.29175
1297.551, 106.8647
1298.620, 154.4294
1299.690, 64.98511
1300.759, 47.53223
1301.828, 91.07080
1302.897, 67.60059
1303.966, 44.12231
1305.035, 19.63501
1306.103, 66.13818
1307.172, 26.63354
1308.240, 72.12012
1309.308, 45.59937
1310.376, 2.070801
1311.444, 68.52881
1312.512, 10.98193
1313.580, 58.42383
1314.647, 32.85767
1315.714, 59.27637
1316.781, 12.31421
1317.848, 5.079590
1318.915, 98.45386
1319.982, 18.80396
1321.049, 49.13574
1322.115, 26.45435
1323.181, 21.23853
1324.248, 46.95020
1325.314, 57.31396
1326.380, 22.43042
1327.445, 22.80054
1328.511, 6.993164
1329.576, 19.19312
1330.642, 9.370605
1331.707, 5.539307
1332.772, 5.693604
1333.837, 12.83398
1334.902, 9.965576
1335.966, 31.08765
1337.031, 12.20166
1338.095, 47.30664
1339.159, 17.60278
1340.223, 34.46484
1341.287, 6.475586
1342.351, 32.42700
1343.415, 12.39624
1344.478, 1.621826
1345.541, 41.63184
1346.605, 27.63477
1347.668, 41.63110
1348.731, 24.62061
1349.793, 10.47681
1350.856, 66.49463
1351.918, 29.36523
1352.981, 10.67603
1354.043, 78.27222
1355.105, 21.21436
1356.167, 0.8503420
1357.229, 60.07764
1358.290, 23.00488
1359.352, 46.93164
1360.413, 8.856445
1361.475, 18.78174
1362.536, 13.28687
1363.597, 3.361572
1364.657, 2.839111
1365.718, 19.52368
1366.779, 8.382324
1367.839, 23.29980
1368.899, 27.22656
1369.959, 43.74268
1371.019, 37.39673
1372.079, 64.08203
1373.139, 24.05396
1374.198, 38.03271
1375.258, 33.01611
1376.317, 54.00122
1377.376, 92.99023
1378.435, 65.97998
1379.494, 87.97900
1380.553, 87.04004
1381.611, 77.98120
1382.670, 65.99683
1383.728, 43.01733
1384.786, 39.70898
1385.844, 41.08057
1386.902, 23.12817
1387.960, 49.17969
1389.017, 39.22925
1390.075, 41.02319
1391.132, 53.33057
1392.189, 36.38354
1393.246, 79.44580
1394.303, 70.50732
1395.360, 65.57495
1396.417, 19.64258
1397.473, 65.70947
1398.529, 16.78247
1399.585, 66.85693
1400.642, 108.9324
1401.697, 65.00757
1402.753, 38.08252
1403.809, 59.16089
1404.864, 62.23975
1405.920, 114.3240
1406.975, 16.41016
1408.030, 94.49780
1409.085, 76.58618
1410.140, 83.67627
1411.194, 100.7681
1412.249, 42.86230
1413.303, 96.95923
1414.358, 120.0593
1415.412, 139.1628
1416.466, 96.27051
1417.520, 133.3823
1418.573, 137.6487
1419.627, 114.7712
1420.680, 142.8999
1421.733, 131.0354
1422.787, 115.1785
1423.840, 156.3298
1424.892, 109.4907
1425.945, 49.66211
1426.998, 67.84497
1428.050, 162.9758
1429.103, 164.1855
1430.155, 133.4023
1431.207, 138.5605
1432.259, 120.6118
1433.310, 138.8848
1434.362, 152.0374
1435.414, 155.0383
1436.465, 206.6772
1437.516, 177.3792
1438.567, 173.2974
1439.618, 184.0166
1440.669, 150.1641
1441.720, 179.8557
1442.770, 139.6064
1443.820, 146.6277
1444.871, 190.6052
1445.921, 111.9880
1446.971, 135.8225
1448.021, 221.6699
1449.070, 129.2285
1450.120, 76.84839
1451.169, 132.6689
1452.219, 114.5940
1453.268, 97.86768
1454.317, 204.2026
1455.366, 108.5601
1456.414, 136.5122
1457.463, 160.4604
1458.511, 144.3696
1459.560, 132.2456
1460.608, 141.1863
1461.656, 132.9038
1462.704, 182.8613
1463.752, 156.6624
1464.799, 251.1519
1465.847, 148.2271
1466.894, 188.0483
1467.941, 145.0247
1468.988, 166.0256
1470.035, 149.9968
1471.082, 225.9976
1472.129, 148.9983
1473.175, 222.9983
1474.222, 230.9980
1475.268, 207.4478
1476.314, 235.7510
1477.360, 218.9890
1478.406, 193.9819
1479.452, 265.9729
1480.498, 173.9609
1481.543, 232.9465
1482.588, 193.9199
1483.633, 222.8992
1484.679, 203.8748
1485.723, 165.8469
1486.768, 158.8152
1487.813, 163.7788
1488.857, 198.7383
1489.902, 190.1716
1490.946, 218.6416
1491.990, 204.5837
1493.034, 203.5181
1494.078, 220.4453
1495.122, 199.3643
1496.165, 244.2739
1497.209, 178.1743
1498.252, 130.0630
1499.295, 243.9429
1500.338, 170.8088
1501.381, 162.6633
1502.424, 140.5005
1503.466, 175.3428
1504.509, 156.1951
1505.551, 186.1113
1506.593, 153.1086
1507.635, 189.1294
1508.677, 138.1582
1509.719, 148.2593
1510.761, 152.4363
1511.802, 131.6326
1512.844, 175.8733
1513.885, 137.1313
1514.926, 95.42163
1515.967, 134.7888
1517.008, 94.17383
1518.049, 158.5750
1519.089, 88.99292
1520.130, 87.42944
1521.170, 86.88501
1522.210, 162.3623
1523.250, 163.8623
1524.290, 102.3875
1525.330, 159.9404
1526.370, 87.52319
1527.409, 66.13940
1528.448, 128.7917
1529.488, 83.48535
1530.527, 120.2241
1531.566, 97.01465
1532.605, 42.86230
1533.643, 107.7759
1534.682, 67.76196
1535.720, 61.82324
1536.759, 91.96045
1537.797, 109.1746
1538.835, 92.46680
1539.873, 57.84131
1540.910, 115.2998
1541.948, 41.84912
1542.986, 11.50171
1544.023, 25.25830
1545.060, 23.14087
1546.097, 119.1592
1547.134, 35.32935
1548.171, 65.66724
1549.208, 13.19141
1550.244, 11.92017
1551.281, 91.87573
1552.317, 68.08667
1553.353, 177.5901
1554.389, 78.55347
1555.425, 138.5710
1556.461, 45.99731
1557.497, 20.89771
1558.532, 108.3516
1559.567, 47.67847
1560.603, 25.25684
1561.638, 77.40137
1562.673, 0.5551760
1563.708, 0.0000000E+00
##END=



