##NAMES=Almandine
##RRUFFID=R060099
##IDEAL CHEMISTRY=Fe^2+^_3_Al_2_(SiO_4_)_3_
##LOCALITY=Alaska, USA
##OWNER=RRUFF
##SOURCE=Roland Boehne
##DESCRIPTION=Red cube shaped single crystal
##STATUS=The identification of this mineral is confirmed by single-crystal X-ray diffraction and chemical analysis.
##URL=rruff.info/R060099
##MEASURED CHEMISTRY=(Fe^2+^_1.63_Mg_0.57_Mn_0.56_Ca_0.24_)_Σ=3_(Al_1.98_Fe^3+^_0.02_)_Σ=2_(Si_1.00_O_4_)_3_
##PIN_ID=M00497
##ORIENTATION=Laser parallel to -a* (-1 0 0). Fiducial mark perpendicular to laser is parallel to c [0 0 1]
93.48000, 0.0000000E+00
94.71400, 63.03442
95.94800, 8.266113
97.18200, 32.71191
98.41600, 6.862793
99.64900, 5.112061
100.8830, 49.59863
102.1160, 19.34204
103.3490, 12.76440
104.5820, 77.56421
105.8150, 158.7495
107.0470, 228.3091
108.2800, 216.1738
109.5120, 393.7766
110.7440, 179.0701
111.9760, 124.5608
113.2080, 105.3813
114.4400, 187.5027
115.6710, 258.9001
116.9030, 231.5503
118.1340, 217.4348
119.3650, 152.5376
120.5960, 119.4265
121.8270, 74.59375
123.0580, 38.04004
124.2880, 9.095703
125.5190, 10.06519
126.7490, 23.87769
127.9790, 72.45898
129.2090, 22.93799
130.4390, 31.55103
131.6680, 53.28882
132.8980, 39.13965
134.1270, 26.09424
135.3560, 80.14648
136.5850, 70.28931
137.8140, 115.5188
139.0430, 153.8296
140.2710, 127.2207
141.5000, 137.6897
142.7280, 105.2388
143.9560, 126.8711
145.1840, 97.58618
146.4120, 155.3843
147.6390, 202.2637
148.8670, 178.2217
150.0940, 260.2544
151.3210, 276.3584
152.5490, 336.5305
153.7750, 406.7683
155.0020, 501.0684
156.2290, 546.4287
157.4550, 664.8469
158.6810, 746.3210
159.9080, 839.8491
161.1340, 958.4292
162.3590, 1039.060
163.5850, 1159.738
164.8110, 1250.463
166.0360, 1395.234
167.2610, 1318.039
168.4860, 1299.844
169.7110, 1185.651
170.9360, 1080.455
172.1610, 848.2681
173.3850, 715.0923
174.6100, 506.9309
175.8340, 409.7847
177.0580, 352.6545
178.2820, 217.5425
179.5050, 174.4495
180.7290, 190.3765
181.9520, 152.3247
183.1760, 170.2920
184.3990, 118.2744
185.6220, 130.3308
186.8450, 124.4253
188.0670, 171.5420
189.2900, 192.6968
190.5120, 223.9641
191.7340, 312.3325
192.9560, 356.7603
194.1780, 390.2324
195.4000, 343.7563
196.6220, 432.3479
197.8430, 499.9998
199.0640, 563.6875
200.2860, 694.4202
201.5070, 740.1680
202.7270, 888.9324
203.9480, 862.7129
205.1690, 833.5066
206.3890, 864.3137
207.6090, 938.1343
208.8290, 954.9683
210.0490, 962.8157
211.2690, 1017.676
212.4890, 926.5508
213.7080, 979.4387
214.9280, 901.3401
216.1470, 691.2549
217.3660, 708.1831
218.5850, 630.1245
219.8030, 532.0791
221.0220, 483.0461
222.2400, 481.0261
223.4590, 458.0188
224.6770, 389.0239
225.8950, 312.0417
227.1120, 309.0713
228.3300, 290.1125
229.5480, 260.1660
230.7650, 329.2314
231.9820, 254.3081
233.1990, 295.3960
234.4160, 295.4949
235.6330, 264.6050
236.8490, 250.7261
238.0660, 253.8577
239.2820, 208.0000
240.4980, 216.0334
241.7140, 272.0815
242.9300, 240.1348
244.1460, 257.4529
245.3610, 169.2366
246.5770, 253.9548
247.7920, 188.1660
249.0070, 192.4246
250.2220, 168.7278
251.4370, 172.0742
252.6510, 179.4617
253.8660, 165.3887
255.0800, 182.3535
256.2940, 166.8433
257.5080, 208.3508
258.7220, 240.8940
259.9360, 274.4707
261.1490, 212.0798
262.3630, 204.7205
263.5760, 173.3909
264.7890, 121.0903
266.0020, 171.8176
267.2150, 187.5720
268.4270, 172.3530
269.6400, 201.1589
270.8520, 201.8672
272.0640, 185.6069
273.2760, 193.0144
274.4880, 233.9143
275.7000, 169.2825
276.9120, 189.4451
278.1230, 261.4092
279.3340, 305.3931
280.5450, 211.3967
281.7560, 172.4194
282.9670, 301.4614
284.1780, 250.6296
285.3880, 300.3486
286.5980, 257.7231
287.8090, 266.3931
289.0190, 312.4131
290.2290, 317.5791
291.4380, 379.9312
292.6480, 385.4685
293.8570, 385.6995
295.0670, 414.4131
296.2760, 418.5425
297.4850, 438.0610
298.6930, 494.7668
299.9020, 583.4534
301.1110, 592.4365
302.3190, 614.7222
303.5270, 761.6521
304.7350, 827.9268
305.9430, 936.4348
307.1510, 1029.766
308.3580, 1079.108
309.5660, 1227.461
310.7730, 1422.196
311.9800, 1410.568
313.1870, 1529.952
314.3940, 1592.344
315.6010, 1660.747
316.8070, 1725.160
318.0130, 1764.583
319.2200, 1929.015
320.4260, 2064.457
321.6310, 2209.908
322.8370, 2415.369
324.0430, 2606.840
325.2480, 2800.320
326.4540, 3066.808
327.6590, 3271.306
328.8640, 3518.813
330.0680, 3792.330
331.2730, 4185.853
332.4780, 4618.386
333.6820, 5280.926
334.8860, 6065.476
336.0900, 6993.031
337.2940, 8097.594
338.4980, 9400.164
339.7010, 10793.74
340.9050, 12032.32
342.1080, 13084.91
343.3110, 14099.50
344.5140, 14353.10
345.7170, 14371.70
346.9200, 13525.31
348.1220, 12480.93
349.3240, 11111.55
350.5270, 9489.172
351.7290, 8053.798
352.9310, 6940.431
354.1320, 5874.066
355.3340, 5087.707
356.5350, 4371.352
357.7370, 3944.000
358.9380, 3637.654
360.1390, 3425.311
361.3400, 3278.971
362.5400, 3361.636
363.7410, 3395.304
364.9410, 3446.976
366.1410, 3463.652
367.3410, 3525.331
368.5410, 3454.014
369.7410, 3438.700
370.9400, 3462.389
372.1400, 3137.081
373.3390, 3003.777
374.5380, 2505.474
375.7370, 2281.176
376.9360, 1982.880
378.1350, 1787.587
379.3330, 1487.296
380.5310, 1236.010
381.7300, 1017.725
382.9280, 921.4441
384.1260, 732.1653
385.3230, 628.8940
386.5210, 555.6301
387.7180, 488.3733
388.9160, 455.1248
390.1130, 332.8840
391.3100, 308.6533
392.5060, 296.4302
393.7030, 210.2192
394.9000, 167.0171
396.0960, 144.8293
397.2920, 61.64990
398.4880, 211.4819
399.6840, 186.3333
400.8800, 169.1938
402.0750, 89.06006
403.2710, 19.94629
404.4660, 41.85352
405.6610, 67.78125
406.8560, 11.71533
408.0510, 68.66919
409.2450, 69.62866
410.4400, 8.606934
411.6340, 22.59326
412.8280, 27.58716
414.0220, 54.58398
415.2160, 0.5935060
416.4100, 33.62305
417.6030, 67.66016
418.7970, 44.26953
419.9900, 40.20996
421.1830, 31.84619
422.3760, 3.921875
423.5690, 22.39526
424.7610, 3.903564
425.9540, 4.194092
427.1460, 35.70386
428.3380, 75.60156
429.5300, 37.52246
430.7220, 57.45190
431.9140, 46.41064
433.1050, 3.608398
434.2970, 50.37305
435.4880, 1.372803
436.6790, 1.626953
437.8700, 22.36450
439.0610, 28.36963
440.2510, 33.97241
441.4420, 20.43433
442.6320, 35.49023
443.8220, 7.567871
445.0120, 15.34692
446.2020, 37.73071
447.3910, 10.83374
448.5810, 3.051514
449.7700, 38.93262
450.9600, 26.81689
452.1490, 26.70337
453.3370, 0.5871580
454.5260, 88.46948
455.7150, 102.3494
456.9030, 52.22656
458.0910, 124.1013
459.2800, 120.9729
460.4670, 132.8416
461.6550, 127.7070
462.8430, 167.8469
464.0300, 226.4290
465.2180, 263.2847
466.4050, 311.1367
467.5920, 381.9854
468.7790, 442.8298
469.9650, 497.6704
471.1520, 583.1089
472.3380, 687.3394
473.5250, 733.1670
474.7110, 826.9907
475.8970, 868.8096
477.0820, 851.6235
478.2680, 804.4333
479.4540, 726.2380
480.6390, 744.0376
481.8240, 615.8325
483.0090, 581.6216
484.1940, 638.4058
485.3780, 553.1841
486.5630, 653.9570
487.7470, 714.7246
488.9320, 879.4902
490.1160, 1031.250
491.3000, 1315.005
492.4830, 1605.752
493.6670, 1940.494
494.8500, 2119.230
496.0340, 2441.960
497.2170, 2585.683
498.4000, 2768.401
499.5820, 2625.119
500.7650, 2288.834
501.9480, 2100.548
503.1300, 1781.259
504.3120, 1577.973
505.4940, 1271.682
506.6760, 1070.384
507.8580, 911.0850
509.0390, 789.7788
510.2210, 704.4666
511.4020, 618.8054
512.5830, 576.7808
513.7640, 525.4890
514.9450, 540.1526
516.1250, 535.8081
517.3060, 546.4556
518.4860, 539.0947
519.6660, 511.7258
520.8460, 545.3486
522.0260, 555.2979
523.2060, 518.9038
524.3850, 519.6030
525.5650, 591.2205
526.7440, 584.8005
527.9230, 661.3716
529.1020, 599.9338
530.2810, 630.5593
531.4590, 647.2803
532.6380, 718.1309
533.8160, 786.9187
534.9940, 823.7661
536.1720, 806.8870
537.3500, 943.3413
538.5270, 1016.364
539.7050, 1121.312
540.8820, 1268.950
542.0590, 1567.435
543.2360, 1726.011
544.4130, 1914.083
545.5900, 2344.343
546.7660, 2607.543
547.9430, 3122.405
549.1190, 3697.552
550.2950, 4010.451
551.4710, 4395.235
552.6470, 4672.776
553.8220, 4866.047
554.9980, 4628.441
556.1730, 4462.888
557.3480, 4065.272
558.5230, 3684.292
559.6980, 3176.742
560.8730, 2702.742
562.0470, 2211.245
563.2220, 1982.552
564.3960, 1674.624
565.5700, 1357.007
566.7440, 1318.880
567.9170, 1119.407
569.0910, 973.7319
570.2640, 905.0493
571.4380, 839.5664
572.6110, 845.4880
573.7840, 732.4209
574.9570, 778.6243
576.1290, 782.7285
577.3020, 755.1309
578.4740, 786.6758
579.6460, 819.3977
580.8180, 751.4932
581.9900, 759.9844
583.1620, 801.5579
584.3330, 735.2788
585.5040, 676.8076
586.6760, 609.5498
587.8470, 597.8525
589.0180, 525.7700
590.1880, 546.4500
591.3590, 566.4749
592.5290, 462.0393
593.7000, 554.8794
594.8700, 506.2827
596.0400, 492.1372
597.2090, 522.9099
598.3790, 462.6665
599.5490, 466.4072
600.7180, 390.1318
601.8870, 355.8403
603.0560, 395.6208
604.2250, 331.2969
605.3940, 298.9570
606.5620, 269.6011
607.7300, 265.2283
608.8990, 274.8398
610.0670, 253.4348
611.2350, 240.0137
612.4020, 278.5762
613.5700, 311.1226
614.7370, 285.6523
615.9050, 264.1663
617.0720, 407.6636
618.2390, 424.1443
619.4060, 403.6089
620.5720, 480.0569
621.7390, 483.4888
622.9050, 600.9041
624.0710, 738.3032
625.2370, 894.6858
626.4030, 925.0520
627.5690, 1025.640
628.7340, 1103.553
629.9000, 1089.870
631.0650, 1116.170
632.2300, 1053.455
633.3950, 910.7222
634.5600, 961.9739
635.7240, 745.2090
636.8890, 747.5679
638.0530, 588.7764
639.2170, 517.2246
640.3810, 512.5325
641.5450, 455.5513
642.7080, 486.4443
643.8720, 442.7102
645.0350, 399.1467
646.1980, 387.3987
647.3610, 334.6616
648.5240, 282.7144
649.6870, 278.9468
650.8490, 325.9656
652.0120, 331.5168
653.1740, 268.5020
654.3360, 268.2322
655.4980, 177.1836
656.6600, 180.1182
657.8210, 203.0361
658.9830, 252.9375
660.1440, 113.8220
661.3050, 57.68994
662.4660, 129.5383
663.6270, 85.36987
664.7870, 102.1843
665.9480, 132.9814
667.1080, 133.7622
668.2680, 124.1479
669.4280, 89.27515
670.5880, 68.00610
671.7480, 53.79932
672.9070, 57.41333
674.0670, 17.08862
675.2260, 32.73657
676.3850, 2.483643
677.5440, 37.95264
678.7030, 10.52271
679.8610, 17.93628
681.0200, 19.56079
682.1780, 67.03247
683.3360, 26.51270
684.4940, 30.10547
685.6520, 29.74756
686.8090, 35.56152
687.9670, 30.14893
689.1240, 31.09180
690.2810, 25.68726
691.4380, 10.48804
692.5950, 15.63721
693.7520, 71.76221
694.9080, 7.128174
696.0650, 39.05298
697.2210, 17.97217
698.3770, 89.02441
699.5330, 10.09717
700.6880, 31.19312
701.8440, 41.32373
702.9990, 6.504150
704.1550, 39.28491
705.3100, 20.94189
706.4650, 23.79419
707.6190, 47.48657
708.7740, 40.80859
709.9290, 23.15698
711.0830, 18.46802
712.2370, 7.092285
713.3910, 32.70850
714.5450, 18.68799
715.6980, 6.896484
716.8520, 26.53662
718.0050, 19.99585
719.1580, 56.52100
720.3110, 1.042969
721.4640, 39.55469
722.6170, 16.06104
723.7700, 8.564941
724.9220, 17.94312
726.0740, 41.52100
727.2260, 105.9849
728.3780, 61.44287
729.5300, 10.10889
730.6810, 3.682617
731.8330, 37.72485
732.9840, 8.878418
734.1350, 23.50000
735.2860, 46.86816
736.4370, 38.22632
737.5880, 102.5747
738.7380, 64.91357
739.8880, 69.24316
741.0390, 8.563965
742.1890, 95.87500
743.3380, 57.17725
744.4880, 64.47144
745.6380, 42.75708
746.7870, 46.03491
747.9360, 43.60938
749.0850, 35.57153
750.2340, 34.82104
751.3830, 43.06812
752.5310, 40.57080
753.6800, 54.54077
754.8280, 50.76660
755.9760, 58.98560
757.1240, 73.31982
758.2720, 88.40332
759.4190, 79.60278
760.5670, 69.79590
761.7140, 45.98291
762.8610, 91.16406
764.0080, 40.33936
765.1550, 93.50903
766.3020, 25.32666
767.4480, 83.82373
768.5950, 26.96875
769.7410, 39.10913
770.8870, 9.244385
772.0330, 45.37476
773.1780, 20.50049
774.3240, 8.378174
775.4690, 1.737061
776.6140, 39.15234
777.7590, 37.25098
778.9040, 31.97876
780.0490, 29.91187
781.1940, 56.85645
782.3380, 17.82471
783.4820, 10.80005
784.6260, 41.78052
785.7700, 14.22461
786.9140, 12.77319
788.0580, 56.22412
789.2010, 26.78101
790.3450, 44.20581
791.4880, 33.80933
792.6310, 43.16553
793.7730, 9.138672
794.9160, 40.11035
796.0590, 68.08032
797.2010, 83.04932
798.3430, 89.47559
799.4850, 151.6487
800.6270, 74.61426
801.7690, 111.4780
802.9100, 85.41382
804.0520, 141.3779
805.1930, 124.3418
806.3340, 171.3062
807.4750, 200.1975
808.6160, 243.9849
809.7560, 230.6333
810.8970, 173.3359
812.0370, 198.0486
813.1770, 221.3230
814.3170, 181.3330
815.4570, 264.7666
816.5960, 207.2654
817.7360, 108.0667
818.8750, 267.0122
820.0140, 207.8582
821.1530, 211.2002
822.2920, 170.3462
823.4310, 190.5444
824.5690, 166.0723
825.7070, 201.3081
826.8460, 220.7837
827.9840, 220.3655
829.1220, 204.1843
830.2590, 214.2629
831.3970, 225.2119
832.5340, 266.1057
833.6710, 294.4438
834.8080, 266.3679
835.9450, 363.2571
837.0820, 346.1460
838.2190, 338.7791
839.3550, 452.8223
840.4910, 432.1030
841.6270, 499.0872
842.7630, 507.5801
843.8990, 577.4155
845.0350, 655.3394
846.1700, 799.7432
847.3060, 914.3049
848.4410, 935.1780
849.5760, 973.7087
850.7100, 1160.833
851.8450, 1298.883
852.9800, 1478.550
854.1140, 1734.207
855.2480, 1917.305
856.3820, 2210.624
857.5160, 2469.165
858.6500, 2464.447
859.7830, 2695.609
860.9170, 2619.675
862.0500, 2667.232
863.1830, 2561.593
864.3160, 2567.002
865.4480, 2462.422
866.5810, 2287.682
867.7130, 2204.400
868.8460, 1965.844
869.9780, 1884.357
871.1100, 1874.814
872.2410, 1935.371
873.3730, 1713.957
874.5050, 1795.564
875.6360, 1803.207
876.7670, 1949.890
877.8980, 1917.503
879.0290, 2111.245
880.1590, 2196.008
881.2900, 2239.788
882.4200, 2463.581
883.5500, 2672.388
884.6800, 2835.220
885.8100, 3136.079
886.9400, 3482.958
888.0690, 3642.854
889.1990, 4006.762
890.3280, 4525.684
891.4570, 4906.621
892.5860, 5323.574
893.7140, 5854.540
894.8430, 6325.520
895.9710, 6989.515
897.1000, 7525.525
898.2280, 8243.552
899.3560, 9099.588
900.4830, 10258.64
901.6110, 11420.71
902.7380, 13204.98
903.8660, 15311.08
904.9930, 17845.19
906.1200, 20957.32
907.2460, 24718.47
908.3730, 29200.63
909.5000, 33920.80
910.6260, 38833.85
911.7520, 43702.05
912.8780, 47483.02
914.0040, 50144.11
915.1290, 51183.51
916.2550, 50212.02
917.3800, 47525.16
918.5050, 43208.12
919.6300, 38109.28
920.7550, 32903.41
921.8800, 28168.77
923.0040, 23532.95
924.1290, 19947.33
925.2530, 17081.19
926.3770, 14208.61
927.5010, 12049.28
928.6250, 10368.73
929.7480, 8865.205
930.8720, 7782.694
931.9950, 6693.198
933.1180, 5843.721
934.2410, 5126.261
935.3640, 4487.818
936.4860, 3946.394
937.6090, 3514.987
938.7310, 3133.598
939.8530, 2816.226
940.9750, 2492.873
942.0970, 2237.487
943.2180, 2001.219
944.3400, 1812.920
945.4610, 1607.640
946.5820, 1466.378
947.7030, 1348.140
948.8240, 1194.922
949.9450, 1131.037
951.0650, 1064.724
952.1860, 1029.415
953.3060, 986.3000
954.4260, 986.2080
955.5460, 927.1343
956.6650, 822.2183
957.7850, 828.2141
958.9040, 719.2441
960.0230, 737.2942
961.1420, 703.3787
962.2610, 695.4839
963.3800, 608.6221
964.4990, 611.7832
965.6170, 608.9668
966.7350, 656.1118
967.8530, 573.1890
968.9710, 653.9263
970.0890, 686.2129
971.2070, 621.4492
972.3240, 665.8042
973.4410, 645.4448
974.5580, 574.7046
975.6750, 635.4155
976.7920, 595.7109
977.9090, 589.9299
979.0250, 628.4480
980.1410, 625.6494
981.2580, 464.4080
982.3740, 549.0217
983.4890, 453.4453
984.6050, 459.0967
985.7200, 444.7639
986.8360, 388.4570
987.9510, 470.1689
989.0660, 430.9087
990.1810, 347.6646
991.2950, 419.4358
992.4100, 379.2266
993.5240, 362.0330
994.6390, 380.8555
995.7530, 384.6948
996.8660, 361.5579
997.9800, 322.4360
999.0940, 397.3289
1000.207, 355.2363
1001.320, 495.2715
1002.433, 565.2786
1003.546, 523.0637
1004.659, 585.9583
1005.772, 526.0637
1006.884, 550.5020
1007.996, 443.3369
1009.108, 426.5898
1010.220, 453.7524
1011.332, 551.9255
1012.444, 543.3411
1013.555, 570.8325
1014.666, 717.6226
1015.777, 669.7285
1016.888, 691.8452
1017.999, 728.4182
1019.110, 719.4041
1020.220, 857.2339
1021.331, 914.3936
1022.441, 944.5630
1023.551, 1042.743
1024.661, 1099.933
1025.770, 1127.141
1026.880, 1305.350
1027.989, 1368.570
1029.098, 1527.799
1030.207, 1589.038
1031.316, 1824.286
1032.425, 1995.543
1033.533, 2013.809
1034.642, 2230.085
1035.750, 2346.370
1036.858, 2493.667
1037.966, 2523.974
1039.073, 2497.289
1040.181, 2599.613
1041.288, 2571.945
1042.396, 2528.286
1043.503, 2290.634
1044.610, 2234.992
1045.716, 2054.358
1046.823, 1789.738
1047.929, 1666.132
1049.036, 1479.538
1050.142, 1311.955
1051.248, 1126.390
1052.353, 919.8333
1053.459, 894.2856
1054.564, 721.7507
1055.670, 680.2227
1056.775, 561.7026
1057.880, 496.1899
1058.985, 429.6863
1060.089, 358.4353
1061.194, 331.7024
1062.298, 266.2214
1063.402, 234.7468
1064.506, 227.2791
1065.610, 177.8174
1066.713, 149.3618
1067.817, 207.9121
1068.920, 136.4685
1070.023, 151.0320
1071.126, 94.65063
1072.229, 115.2251
1073.332, 94.80444
1074.435, 93.68091
1075.537, 132.2734
1076.639, 25.87158
1077.741, 74.47461
1078.843, 110.0830
1079.945, 58.69849
1081.046, 122.3225
1082.148, 112.9558
1083.249, 134.6040
1084.350, 148.2566
1085.451, 48.92651
1086.551, 50.60693
1087.652, 24.29004
1088.752, 5.885986
1089.853, 33.82495
1090.953, 15.53979
1092.053, 54.25659
1093.152, 31.04346
1094.252, 65.76709
1095.351, 48.49683
1096.451, 26.94238
1097.550, 20.96143
1098.649, 23.30444
1099.748, 39.53394
1100.846, 48.71631
1101.945, 18.96948
1103.043, 20.24487
1104.141, 102.5664
1105.239, 12.94092
1106.337, 29.30347
1107.434, 88.68042
1108.532, 16.09521
1109.629, 13.51953
1110.726, 16.04736
1111.823, 44.36890
1112.920, 0.8103030
1114.017, 45.74341
1115.113, 28.70435
1116.210, 7.828857
1117.306, 22.35962
1118.402, 60.88818
1119.498, 45.41431
1120.593, 89.93799
1121.689, 32.45874
1122.784, 93.97681
1123.879, 42.49219
1124.974, 97.00415
1126.069, 87.51318
1127.164, 63.02002
1128.259, 83.13232
1129.353, 81.02319
1130.447, 64.51904
1131.541, 47.86108
1132.635, 10.49902
1133.729, 6.016602
1134.822, 17.54712
1135.916, 82.09912
1137.009, 68.70044
1138.102, 41.35132
1139.195, 15.03662
1140.288, 68.74438
1141.380, 82.50269
1142.473, 2.319336
1143.565, 85.15259
1144.657, 6.045654
1145.749, 6.041748
1146.841, 39.11621
1147.932, 44.18457
1149.024, 20.75269
1150.115, 26.71826
1151.206, 7.715576
1152.297, 83.26489
1153.388, 37.23926
1154.479, 67.20679
1155.569, 63.16821
1156.659, 38.12280
1157.750, 68.07080
1158.839, 42.01221
1159.929, 139.9465
1161.019, 99.87378
1162.108, 158.7939
1163.198, 201.7075
1164.287, 214.6133
1165.376, 241.5122
1166.465, 77.40430
1167.553, 212.2886
1168.642, 163.1653
1169.730, 122.0344
1170.818, 180.8958
1171.906, 120.7498
1172.994, 219.5962
1174.082, 118.4341
1175.170, 209.2642
1176.257, 193.0862
1177.344, 186.9001
1178.431, 261.7053
1179.518, 228.5024
1180.605, 93.29102
1181.691, 203.0708
1182.778, 177.8418
1183.864, 117.6045
1184.950, 140.3574
1186.036, 218.1023
1187.122, 301.8374
1188.207, 156.5637
1189.292, 207.2805
1190.378, 190.9880
1191.463, 226.6865
1192.548, 248.3755
1193.632, 172.0547
1194.717, 183.9302
1195.801, 205.5901
1196.886, 181.4041
1197.970, 131.0889
1199.054, 132.8247
1200.137, 128.8718
1201.221, 67.50049
1202.305, 208.2219
1203.388, 170.8113
1204.471, 48.10840
1205.554, 96.80762
1206.637, 189.5798
1207.719, 144.2629
1208.802, 127.9915
1209.884, 105.2412
1210.966, 131.6746
1212.048, 146.4314
1213.130, 228.4353
1214.212, 212.1753
1215.293, 122.9363
1216.374, 100.9749
1217.456, 197.4182
1218.536, 72.71362
1219.617, 187.7590
1220.698, 158.4519
1221.778, 155.8450
1222.859, 91.56006
1223.939, 148.2747
1225.019, 202.6257
1226.099, 173.0447
1227.178, 176.4629
1228.258, 181.7798
1229.337, 100.1406
1230.417, 83.58398
1231.496, 140.3892
1232.574, 84.70361
1233.653, 225.3130
1234.732, 136.5586
1235.810, 181.5830
1236.888, 130.4766
1237.966, 147.5366
1239.044, 142.9023
1240.122, 156.3945
1241.199, 179.7290
1242.277, 152.3921
1243.354, 203.3604
1244.431, 216.4893
1245.508, 136.8135
1246.585, 250.9185
1247.661, 153.0107
1248.738, 170.0908
1249.814, 193.1592
1250.890, 228.2153
1251.966, 169.3335
1253.042, 251.3652
1254.117, 224.3848
1255.193, 296.3926
1256.268, 189.7573
1257.343, 256.7407
1258.418, 142.7109
1259.493, 193.6694
1260.567, 220.6162
1261.642, 252.6084
1262.716, 270.9932
1263.790, 273.9233
1264.864, 326.0737
1265.938, 244.5659
1267.011, 262.3540
1268.085, 352.9736
1269.158, 239.0103
1270.231, 281.6304
1271.304, 228.3428
1272.377, 276.0454
1273.450, 153.6216
1274.522, 194.0098
1275.594, 199.1001
1276.666, 209.8770
1277.738, 228.1553
1278.810, 197.9541
1279.882, 212.8545
1280.953, 193.9102
1282.025, 123.6377
1283.096, 208.3555
1284.167, 204.0645
1285.238, 299.7637
1286.308, 204.4448
1287.379, 119.1255
1288.449, 181.7959
1289.519, 199.4575
1290.589, 206.1104
1291.659, 196.7651
1292.729, 216.3994
1293.798, 154.1021
1294.868, 127.7173
1295.937, 130.3242
1297.006, 160.9209
1298.075, 191.5088
1299.143, 194.0879
1300.212, 144.7759
1301.280, 229.3369
1302.348, 77.88916
1303.416, 77.43262
1304.484, 152.9673
1305.552, 167.4932
1306.620, 107.0103
1307.687, 85.51904
1308.754, 162.0190
1309.821, 104.5112
1310.888, 173.9946
1311.955, 172.4707
1313.021, 136.9399
1314.088, 128.4014
1315.154, 153.8550
1316.220, 120.2998
1317.286, 115.7383
1318.352, 140.1680
1319.417, 115.5903
1320.483, 110.0059
1321.548, 183.4126
1322.613, 32.81152
1323.678, 111.2017
1324.743, 37.58447
1325.807, 62.95703
1326.872, 48.32275
1327.936, 16.67725
1329.000, 69.02100
1330.064, 44.30371
1331.128, 77.61816
1332.191, 5.912109
1333.255, 40.88379
1334.318, 30.13232
1335.381, 39.34814
1336.444, 32.33545
1337.507, 4.746094
1338.569, 0.9252930
1339.632, 4.554688
1340.694, 24.75146
1341.756, 24.38428
1342.818, 37.51123
1343.880, 10.43994
1344.941, 85.61621
1346.003, 0.6425780
1347.064, 61.47656
1348.125, 20.51172
1349.186, 92.49072
1350.247, 16.46338
1351.308, 15.35889
1352.368, 2.687500
1353.428, 49.25244
1354.489, 46.18457
1355.549, 76.52686
1356.608, 89.65088
1357.668, 112.8765
1358.727, 92.66846
1359.787, 53.57373
1360.846, 18.37256
1361.905, 108.2661
1362.964, 58.82080
1364.022, 27.06982
1365.081, 23.04053
1366.139, 77.85645
1367.197, 54.75098
1368.255, 56.35791
1369.313, 26.50830
1370.371, 77.37939
1371.428, 120.2446
1372.486, 74.10254
1373.543, 106.9619
1374.600, 82.81396
1375.657, 76.65918
1376.713, 60.49756
1377.770, 101.3291
1378.826, 41.15332
1379.882, 123.9707
1380.938, 80.78125
1381.994, 144.5845
1383.050, 3.380859
1384.106, 144.1685
1385.161, 88.94922
1386.216, 119.7227
1387.271, 97.48926
1388.326, 41.24854
1389.381, 3.000000
1390.435, 34.74316
1391.490, 35.48438
1392.544, 18.77100
1393.598, 46.98730
1394.652, 13.76221
1395.705, 55.54541
1396.759, 152.3325
1397.812, 101.1382
1398.866, 106.9658
1399.919, 23.79590
1400.972, 51.64746
1402.024, 52.50293
1403.077, 77.35791
1404.129, 90.18701
1405.181, 119.0581
1406.233, 106.9146
1407.285, 92.78076
1408.337, 73.65186
1409.389, 64.52002
1410.440, 83.38525
1411.491, 57.24805
1412.542, 108.1089
1413.593, 76.96729
1414.644, 92.82422
1415.695, 103.6792
1416.745, 120.5337
1417.795, 43.38623
1418.845, 172.2388
1419.895, 27.09033
1420.945, 138.9424
1421.995, 141.7949
1423.044, 181.6484
1424.093, 71.50293
1425.142, 130.3589
1426.191, 16.21680
1427.240, 55.07666
1428.289, 102.9395
1429.337, 162.8057
1430.385, 68.67627
1431.433, 85.55176
1432.481, 86.10938
1433.529, 79.55566
1434.577, 98.21387
1435.624, 133.1772
1436.672, 158.0884
1437.719, 208.0103
1438.766, 294.4219
1439.812, 338.3687
1440.859, 365.3306
1441.905, 329.3037
1442.952, 315.2959
1443.998, 275.2368
1445.044, 337.1733
1446.090, 344.3584
1447.135, 407.0117
1448.181, 357.9609
1449.226, 326.9434
1450.271, 306.9326
1451.316, 393.6089
1452.361, 435.6099
1453.405, 403.8369
1454.450, 409.5732
1455.494, 405.6924
1456.538, 423.4326
1457.582, 408.4741
1458.626, 339.1426
1459.670, 390.1709
1460.713, 506.4980
1461.757, 375.0444
1462.800, 336.4287
1463.843, 403.1421
1464.886, 259.0430
1465.928, 267.9438
1466.971, 319.4766
1468.013, 307.1050
1469.055, 303.1763
1470.097, 221.9448
1471.139, 252.3921
1472.181, 321.1406
1473.222, 227.8853
1474.263, 224.6260
1475.305, 264.3638
1476.346, 192.0015
1477.386, 207.7310
1478.427, 274.9639
1479.468, 266.6826
1480.508, 221.3193
1481.548, 184.1309
1482.588, 239.5967
1483.628, 184.7339
1484.668, 186.6284
1485.707, 173.2861
1486.747, 226.7715
1487.786, 284.4150
1488.825, 210.0513
1489.864, 184.6792
1490.902, 135.3003
1491.941, 234.9121
1492.979, 103.5156
1494.017, 177.1104
1495.055, 215.6758
1496.093, 131.1226
1497.131, 122.6865
1498.168, 127.2783
1499.206, 158.5796
1500.243, 117.1074
1501.280, 150.6230
1502.317, 114.1250
1503.354, 75.61230
1504.390, 97.08301
1505.426, 129.5322
1506.463, 97.95850
1507.499, 136.3638
1508.535, 67.74756
1509.570, 182.1069
1510.606, 122.4453
1511.641, 105.7617
1512.676, 102.0615
1513.711, 85.35449
1514.746, 139.7017
1515.781, 58.16455
1516.816, 40.72949
1517.850, 127.3164
1518.884, 124.8901
1519.918, 224.5088
1520.952, 148.2314
1521.986, 72.06396
1523.019, 152.8970
1524.053, 69.73242
1525.086, 68.57568
1526.119, 144.4277
1527.152, 182.3364
1528.185, 87.28955
1529.217, 109.2549
1530.250, 61.23486
1531.282, 153.2295
1532.314, 75.24023
1533.346, 129.2705
1534.377, 136.3247
1535.409, 68.40723
1536.440, 98.52051
1537.472, 59.66797
1538.503, 48.85352
1539.534, 109.0835
1540.564, 56.36621
1541.595, 114.7109
1542.625, 36.12500
1543.656, 35.61377
1544.686, 57.16943
1545.716, 28.79590
1546.745, 92.49023
1547.775, 36.25195
1548.804, 101.0884
1549.834, 87.00439
1550.863, 106.0039
1551.892, 123.0981
1552.920, 91.29688
1553.949, 111.6138
1554.977, 178.0605
1556.006, 197.6514
1557.034, 106.4004
1558.062, 47.31934
1559.089, 0.4252930
1560.117, 52.74170
1561.144, 77.29883
1562.172, 6.868164
1563.199, 50.28467
1564.226, 34.80811
1565.252, 136.4468
1566.279, 62.63184
1567.305, 122.9438
1568.332, 79.69043
1569.358, 0.2231450
1570.384, 0.0000000E+00
##END=



