##NAMES=Almandine
##RRUFFID=R040079
##IDEAL CHEMISTRY=Fe^2+^_3_Al_2_(SiO_4_)_3_
##LOCALITY=Ontario, Canada
##OWNER=RRUFF
##SOURCE=University of Arizona Mineral Museum
##DESCRIPTION=Dark red dodecahedral crystal
##STATUS=The identification of this mineral has been confirmed by X-ray diffraction and chemical analysis
##URL=rruff.info/R040079
##MEASURED CHEMISTRY=(Fe^2+^_2.29_Mg_0.53_Ca_0.18_)_Î£=3_Al_2.00_(Si_1.00_O_4_)_3_
##PIN_ID=M00037
##ORIENTATION=Laser parallel to a* (1 0 0). Fiducial mark perpendicular to laser is parallel to b [0 1 0]
129.495, 0.000
130.886, 1.300
132.278, 26.979
133.669, 0.130
135.060, 31.755
136.451, 38.949
137.841, 31.924
139.231, 32.844
140.621, 82.183
142.011, 177.569
143.401, 169.466
144.790, 85.542
146.179, 3.687
147.568, 60.631
148.957, 13.421
150.345, 12.341
151.733, 5.378
153.121, 2.356
154.509, 60.635
155.896, 83.477
157.284, 209.364
158.671, 251.726
160.058, 288.021
161.444, 288.266
162.830, 400.357
164.217, 425.969
165.602, 429.609
166.988, 581.625
168.374, 676.566
169.759, 789.349
171.144, 808.991
172.528, 722.142
173.913, 632.331
175.297, 352.745
176.681, 317.377
178.065, 173.425
179.449, 109.882
180.832, 84.379
182.215, 53.909
183.598, 24.428
184.981, 11.138
186.363, 3.588
187.745, 27.098
189.127, 4.387
190.509, 26.958
191.891, 34.373
193.272, 15.032
194.653, 42.128
196.034, 45.594
197.414, 68.507
198.795, 148.788
200.175, 177.466
201.555, 227.193
202.935, 236.600
204.314, 281.569
205.693, 352.085
207.072, 415.627
208.451, 497.104
209.830, 549.232
211.208, 594.625
212.586, 534.523
213.964, 560.619
215.342, 528.141
216.719, 529.614
218.096, 438.488
219.473, 337.251
220.850, 307.336
222.226, 253.475
223.603, 177.683
224.979, 147.004
226.355, 87.635
227.730, 66.633
229.105, 96.912
230.481, 89.069
231.856, 31.932
233.230, 10.445
234.605, 7.985
235.979, 9.222
237.353, 11.297
238.727, 26.714
240.100, 5.732
241.474, 14.644
242.847, 3.254
244.220, 11.378
245.592, 50.601
246.965, 21.079
248.337, 1.535
249.709, 45.922
251.080, 2.180
252.452, 52.156
253.823, 2.727
255.194, 61.968
256.565, 2.974
257.936, 0.240
259.306, 13.332
260.676, 18.630
262.046, 30.452
263.416, 17.071
264.785, 124.310
266.155, 150.415
267.524, 79.655
268.892, 34.458
270.261, 14.416
271.629, 31.967
272.997, 23.075
274.365, 24.495
275.733, 58.716
277.100, 28.315
278.468, 54.031
279.835, 51.700
281.201, 108.472
282.568, 87.711
283.934, 107.388
285.300, 88.060
286.666, 126.419
288.032, 112.559
289.397, 89.628
290.762, 121.013
292.127, 93.688
293.492, 99.041
294.857, 61.027
296.221, 63.743
297.585, 24.740
298.949, 25.740
300.312, 28.351
301.676, 37.624
303.039, 6.487
304.402, 27.712
305.765, 58.545
307.127, 22.799
308.489, 41.634
309.851, 63.069
311.213, 87.767
312.575, 169.219
313.936, 205.473
315.297, 266.538
316.658, 280.993
318.019, 184.858
319.379, 148.359
320.740, 8.858
322.100, 45.237
323.460, 62.342
324.819, 64.104
326.178, 33.995
327.538, 13.327
328.897, 100.600
330.255, 198.715
331.614, 286.690
332.972, 378.944
334.330, 479.159
335.688, 694.571
337.045, 816.328
338.403, 1237.695
339.760, 1581.799
341.117, 2067.955
342.473, 2917.643
343.830, 3647.569
345.186, 4865.854
346.542, 5918.539
347.898, 6949.542
349.253, 7602.355
350.609, 7240.065
351.964, 6752.574
353.319, 5307.109
354.673, 4258.043
356.028, 2994.408
357.382, 2166.582
358.736, 1593.666
360.090, 982.626
361.443, 760.291
362.797, 468.521
364.150, 292.222
365.503, 275.770
366.856, 261.617
368.208, 311.118
369.560, 401.745
370.912, 490.768
372.264, 568.295
373.616, 583.959
374.967, 596.392
376.318, 515.000
377.669, 522.592
379.020, 368.678
380.370, 249.618
381.720, 202.407
383.070, 112.285
384.420, 63.260
385.770, 21.791
387.119, 36.466
388.468, 27.053
389.817, 22.666
391.166, 41.101
392.514, 38.977
393.863, 8.783
395.211, 8.387
396.558, 3.856
397.906, 62.298
399.253, 52.118
400.600, 58.044
401.947, 82.965
403.294, 101.584
404.641, 119.007
405.987, 140.970
407.333, 202.190
408.679, 203.866
410.024, 221.445
411.370, 229.961
412.715, 197.955
414.060, 204.272
415.405, 150.136
416.749, 146.666
418.093, 136.436
419.437, 110.595
420.781, 116.329
422.125, 119.544
423.468, 105.131
424.811, 119.565
426.154, 112.664
427.497, 84.458
428.840, 101.578
430.182, 107.099
431.524, 83.362
432.866, 79.090
434.208, 49.135
435.549, 49.507
436.890, 66.652
438.231, 65.867
439.572, 64.234
440.913, 64.106
442.253, 58.499
443.593, 77.489
444.933, 66.940
446.273, 37.771
447.612, 72.904
448.951, 78.367
450.290, 53.734
451.629, 51.741
452.968, 46.627
454.306, 22.238
455.644, 16.623
456.982, 41.118
458.320, 31.378
459.657, 1.760
460.995, 21.868
462.332, 7.066
463.668, 24.430
465.005, 12.480
466.341, 63.249
467.678, 17.016
469.014, 45.381
470.349, 57.758
471.685, 31.975
473.020, 54.305
474.355, 121.688
475.690, 175.422
477.025, 193.207
478.359, 251.646
479.693, 334.827
481.027, 344.139
482.361, 380.927
483.695, 269.576
485.028, 198.081
486.361, 120.961
487.694, 57.226
489.027, 4.003
490.359, 28.857
491.692, 55.878
493.024, 100.327
494.356, 176.213
495.687, 312.518
497.019, 506.263
498.350, 785.579
499.681, 1143.068
501.012, 1475.938
502.342, 1830.228
503.672, 1835.894
505.002, 2249.177
506.332, 1671.602
507.662, 1170.573
508.992, 633.983
510.321, 422.277
511.650, 322.010
512.979, 199.492
514.307, 195.256
515.636, 98.760
516.964, 79.242
518.292, 77.073
519.619, 53.443
520.947, 57.696
522.274, 42.816
523.601, 8.787
524.928, 9.583
526.255, 11.175
527.581, 15.548
528.907, 38.286
530.233, 21.172
531.559, 37.575
532.885, 17.979
534.210, 13.340
535.535, 41.494
536.860, 50.492
538.185, 0.575
539.509, 30.993
540.834, 111.462
542.158, 106.854
543.482, 222.195
544.805, 266.479
546.129, 312.613
547.452, 453.706
548.775, 577.079
550.098, 757.142
551.420, 995.863
552.742, 1251.523
554.065, 1638.881
555.386, 2036.397
556.708, 2467.620
558.030, 2703.302
559.351, 2818.750
560.672, 2588.426
561.993, 2113.619
563.313, 1811.349
564.634, 1268.629
565.954, 944.480
567.274, 745.929
568.594, 521.241
569.913, 350.190
571.233, 230.544
572.552, 170.488
573.871, 80.406
575.189, 25.518
576.508, 5.251
577.826, 14.987
579.144, 6.740
580.462, 49.066
581.780, 53.327
583.097, 184.015
584.414, 159.099
585.731, 224.552
587.048, 210.479
588.365, 126.081
589.681, 95.430
590.997, 62.473
592.313, 53.156
593.629, 7.054
594.944, 2.214
596.260, 2.814
597.575, 3.201
598.890, 19.461
600.204, 77.875
601.519, 91.864
602.833, 70.519
604.147, 47.928
605.461, 54.077
606.774, 15.943
608.088, 4.515
609.401, 15.183
610.714, 14.460
612.026, 48.272
613.339, 36.723
614.651, 33.833
615.963, 36.875
617.275, 0.838
618.587, 53.380
619.898, 36.196
621.210, 32.700
622.521, 35.877
623.832, 88.098
625.142, 117.020
626.453, 140.655
627.763, 206.222
629.073, 235.466
630.383, 321.332
631.692, 400.508
633.001, 469.010
634.311, 590.348
635.619, 627.069
636.928, 622.313
638.237, 544.609
639.545, 447.892
640.853, 388.173
642.161, 307.665
643.469, 241.748
644.776, 209.397
646.083, 193.079
647.390, 134.788
648.697, 121.541
650.004, 113.602
651.310, 115.756
652.616, 95.781
653.922, 91.527
655.228, 76.569
656.534, 53.784
657.839, 71.051
659.144, 14.206
660.449, 24.768
661.754, 43.517
663.058, 25.865
664.362, 62.130
665.666, 17.561
666.970, 65.508
668.274, 42.418
669.577, 38.392
670.881, 59.304
672.184, 13.141
673.487, 53.333
674.789, 1.980
676.092, 22.827
677.394, 28.185
678.696, 6.400
679.997, 38.411
681.299, 12.997
682.600, 29.052
683.901, 30.375
685.202, 8.165
686.503, 42.666
687.804, 33.994
689.104, 35.343
690.404, 42.308
691.704, 48.082
693.004, 12.516
694.303, 30.877
695.602, 15.407
696.901, 34.381
698.200, 67.299
699.499, 36.348
700.797, 6.800
702.095, 16.900
703.393, 4.005
704.691, 13.114
705.989, 43.647
707.286, 23.517
708.583, 4.727
709.880, 54.703
711.177, 52.031
712.473, 22.264
713.770, 43.538
715.066, 72.346
716.362, 35.016
717.658, 6.567
718.953, 7.454
720.248, 46.306
721.543, 19.456
722.838, 45.626
724.133, 36.855
725.427, 50.878
726.722, 27.985
728.016, 28.074
729.310, 2.954
730.603, 48.031
731.897, 48.113
733.190, 25.207
734.483, 1.650
735.776, 8.043
737.068, 2.351
738.361, 19.682
739.653, 26.793
740.945, 40.857
742.236, 19.140
743.528, 22.477
744.819, 58.921
746.110, 83.372
747.401, 47.826
748.692, 7.286
749.983, 14.865
751.273, 7.238
752.563, 66.159
753.853, 39.411
755.143, 45.764
756.432, 74.581
757.721, 26.629
759.010, 69.254
760.299, 4.948
761.588, 56.027
762.876, 44.837
764.165, 66.260
765.453, 59.623
766.740, 69.921
768.028, 71.663
769.315, 24.790
770.603, 62.037
771.890, 32.975
773.176, 3.147
774.463, 29.042
775.749, 7.303
777.036, 27.082
778.322, 42.665
779.607, 2.576
780.893, 3.566
782.178, 0.094
783.463, 34.031
784.748, 21.831
786.033, 34.523
787.318, 42.205
788.602, 12.282
789.886, 1.564
791.170, 1.101
792.454, 14.704
793.737, 44.850
795.020, 4.780
796.303, 16.042
797.586, 24.323
798.869, 8.534
800.151, 1.125
801.434, 5.298
802.716, 20.477
803.998, 25.098
805.279, 23.556
806.561, 12.991
807.842, 3.497
809.123, 26.396
810.404, 17.309
811.685, 42.230
812.965, 41.501
814.245, 18.565
815.525, 40.917
816.805, 44.917
818.085, 42.667
819.364, 80.001
820.643, 38.638
821.922, 11.186
823.201, 70.388
824.480, 23.912
825.758, 58.968
827.036, 45.741
828.314, 28.376
829.592, 62.284
830.869, 34.642
832.147, 4.345
833.424, 75.193
834.701, 29.159
835.978, 41.801
837.254, 48.677
838.531, 71.794
839.807, 85.293
841.083, 40.266
842.358, 5.467
843.634, 91.985
844.909, 48.770
846.184, 97.249
847.459, 83.866
848.734, 141.759
850.008, 177.910
851.283, 178.570
852.557, 242.186
853.831, 324.261
855.104, 366.086
856.378, 463.789
857.651, 557.234
858.924, 655.558
860.197, 856.088
861.470, 1044.295
862.742, 1223.695
864.015, 1376.985
865.287, 1411.798
866.559, 1452.908
867.830, 1315.912
869.102, 1250.574
870.373, 1028.427
871.644, 953.115
872.915, 825.609
874.185, 562.731
875.456, 485.677
876.726, 345.594
877.996, 284.481
879.266, 189.375
880.536, 44.922
881.805, 10.687
883.074, 17.837
884.343, 28.904
885.612, 33.959
886.881, 117.052
888.149, 167.270
889.418, 61.750
890.686, 114.669
891.953, 51.920
893.221, 102.261
894.488, 243.896
895.756, 485.385
897.023, 599.897
898.290, 921.333
899.556, 1200.421
900.823, 1366.110
902.089, 1639.727
903.355, 1966.062
904.621, 2330.301
905.886, 2887.874
907.152, 3872.064
908.417, 4967.214
909.682, 6570.963
910.947, 8456.505
912.211, 11364.885
913.476, 13953.428
914.740, 18272.910
916.004, 22173.072
917.268, 25564.504
918.531, 29356.957
919.795, 29830.609
921.058, 28686.096
922.321, 25953.855
923.584, 21443.258
924.846, 17844.859
926.109, 13487.761
927.371, 10627.511
928.633, 8132.894
929.895, 6172.380
931.156, 4766.485
932.418, 3483.750
933.679, 2668.646
934.940, 1951.351
936.201, 1418.284
937.461, 1061.428
938.722, 748.869
939.982, 365.905
941.242, 284.082
942.502, 146.178
943.761, 11.290
945.021, 18.503
946.280, 122.612
947.539, 84.920
948.798, 196.665
950.056, 90.818
951.315, 4.910
952.573, 18.928
953.831, 36.491
955.089, 35.359
956.346, 98.302
957.604, 140.687
958.861, 232.684
960.118, 253.626
961.375, 324.858
962.631, 398.163
963.888, 479.544
965.144, 470.376
966.400, 488.288
967.656, 491.648
968.911, 466.816
970.167, 421.345
971.422, 389.607
972.677, 444.651
973.932, 423.557
975.186, 368.274
976.441, 411.814
977.695, 376.060
978.949, 327.819
980.203, 404.697
981.456, 346.700
982.710, 373.170
983.963, 306.725
985.216, 231.183
986.469, 288.445
987.721, 222.400
988.974, 184.475
990.226, 221.033
991.478, 139.872
992.730, 175.385
993.982, 77.920
995.233, 112.580
996.484, 68.347
997.735, 32.608
998.986, 55.231
1000.237, 44.858
1001.487, 43.172
1002.738, 29.214
1003.988, 39.965
1005.237, 20.803
1006.487, 55.537
1007.737, 12.651
1008.986, 7.141
1010.235, 25.041
1011.484, 8.845
1012.732, 3.475
1013.981, 20.380
1015.229, 11.499
1016.477, 22.489
1017.725, 36.229
1018.973, 103.614
1020.220, 56.147
1021.468, 110.125
1022.715, 125.665
1023.962, 93.709
1025.208, 198.360
1026.455, 244.782
1027.701, 207.382
1028.947, 301.173
1030.193, 382.980
1031.439, 404.526
1032.684, 469.530
1033.930, 569.579
1035.175, 641.258
1036.420, 727.441
1037.665, 846.246
1038.909, 1035.609
1040.154, 1054.066
1041.398, 1287.622
1042.642, 1293.225
1043.885, 1343.829
1045.129, 1376.480
1046.372, 1345.105
1047.615, 1264.947
1048.858, 1205.808
1050.101, 1082.215
1051.344, 964.800
1052.586, 798.243
1053.828, 685.234
1055.070, 551.633
1056.312, 446.505
1057.554, 369.971
1058.795, 282.814
1060.036, 179.250
1061.277, 137.703
1062.518, 64.462
1063.759, 64.157
1064.999, 58.492
1066.240, 0.840
1067.480, 14.283
1068.719, 22.400
1069.959, 7.729
1071.199, 16.611
1072.438, 38.307
1073.677, 1.329
1074.916, 4.825
1076.154, 2.259
1077.393, 22.992
1078.631, 19.324
1079.869, 35.117
1081.107, 39.441
1082.345, 28.003
1083.582, 55.965
1084.820, 77.631
1086.057, 64.696
1087.294, 103.630
1088.530, 109.956
1089.767, 66.449
1091.003, 85.285
1092.239, 17.012
1093.475, 46.103
1094.711, 75.374
1095.947, 67.904
1097.182, 73.916
1098.417, 58.589
1099.652, 73.135
1100.887, 30.200
1102.122, 5.438
1103.356, 84.057
1104.590, 74.486
1105.824, 38.779
1107.058, 91.466
1108.292, 73.078
1109.525, 68.417
1110.758, 36.906
1111.991, 44.338
1113.224, 73.335
1114.457, 84.597
1115.689, 25.740
1116.922, 61.573
1118.154, 46.850
1119.385, 71.220
1120.617, 28.614
1121.849, 14.788
1123.080, 65.469
1124.311, 2.043
1125.542, 45.054
1126.773, 36.024
1128.003, 54.816
1129.234, 28.415
1130.464, 26.169
1131.694, 7.435
1132.923, 52.382
1134.153, 53.003
1135.382, 58.767
1136.612, 9.010
1137.841, 49.032
1139.069, 54.882
1140.298, 23.115
1141.526, 39.152
1142.755, 45.785
1143.983, 7.954
1145.210, 77.313
1146.438, 71.557
1147.665, 8.310
1148.893, 3.434
1150.120, 34.702
1151.347, 23.415
1152.573, 25.806
1153.800, 57.138
1155.026, 37.446
1156.252, 73.062
1157.478, 33.309
1158.704, 13.540
1159.929, 24.777
1161.155, 58.042
1162.380, 45.318
1163.605, 49.413
1164.829, 50.879
1166.054, 28.348
1167.278, 11.113
1168.503, 73.774
1169.727, 35.257
1170.950, 40.032
1172.174, 80.916
1173.397, 86.914
1174.621, 62.031
1175.844, 103.300
1177.066, 16.702
1178.289, 24.242
1179.512, 58.924
1180.734, 33.872
1181.956, 44.495
1183.178, 0.259
1184.399, 24.125
1185.621, 66.654
1186.842, 46.432
1188.063, 43.676
1189.284, 15.075
1190.505, 19.616
1191.726, 20.298
1192.946, 89.112
1194.166, 54.156
1195.386, 40.320
1196.606, 69.596
1197.826, 12.979
1199.045, 74.001
1200.264, 3.442
1201.483, 44.142
1202.702, 42.748
1203.921, 37.440
1205.139, 22.126
1206.357, 5.976
1207.575, 10.990
1208.793, 14.986
1210.011, 30.953
1211.228, 52.883
1212.446, 56.702
1213.663, 37.517
1214.880, 28.255
1216.097, 50.908
1217.313, 2.533
1218.529, 57.680
1219.746, 26.256
1220.962, 65.249
1222.177, 24.127
1223.393, 8.117
1224.608, 33.049
1225.824, 68.115
1227.039, 26.998
1228.254, 25.729
1229.468, 26.309
1230.683, 2.738
1231.897, 76.816
1233.111, 38.748
1234.325, 59.536
1235.539, 22.187
1236.752, 33.161
1237.965, 13.561
1239.179, 17.872
1240.392, 36.087
1241.604, 7.211
1242.817, 5.301
1244.029, 10.710
1245.241, 34.893
1246.453, 17.463
1247.665, 39.008
1248.877, 12.539
1250.088, 17.130
1251.300, 55.674
1252.511, 23.246
1253.722, 32.854
1254.932, 2.511
1256.143, 6.347
1257.353, 5.888
1258.563, 22.428
1259.773, 11.688
1260.983, 28.039
1262.192, 32.720
1263.402, 40.474
1264.611, 38.519
1265.820, 33.045
1267.029, 46.633
1268.237, 7.974
1269.446, 42.568
1270.654, 25.315
1271.862, 10.218
1273.070, 26.276
1274.278, 39.490
1275.485, 4.855
1276.692, 11.271
1277.900, 34.915
1279.106, 8.685
1280.313, 48.610
1281.520, 34.653
1282.726, 42.000
1283.932, 39.554
1285.138, 35.204
1286.344, 27.061
1287.550, 28.998
1288.755, 23.011
1289.960, 78.070
1291.165, 19.187
1292.370, 41.345
1293.575, 47.563
1294.779, 14.196
1295.984, 45.658
1297.188, 65.547
1298.392, 71.311
1299.595, 49.330
1300.799, 45.903
1302.002, 55.823
1303.206, 20.586
1304.409, 55.806
1305.611, 22.412
1306.814, 26.923
1308.016, 47.333
1309.219, 36.633
1310.421, 61.816
1311.623, 18.639
1312.824, 23.568
1314.026, 38.460
1315.227, 40.967
1316.428, 2.050
1317.629, 10.406
1318.830, 2.868
1320.031, 2.782
1321.231, 17.593
1322.431, 3.852
1323.631, 36.353
1324.831, 26.454
1326.031, 29.475
1327.230, 30.257
1328.429, 78.915
1329.628, 0.441
1330.827, 22.794
1332.026, 40.026
1333.225, 0.660
1334.423, 0.477
1335.621, 47.866
1336.819, 5.849
1338.017, 57.142
1339.214, 30.949
1340.412, 32.770
1341.609, 5.985
1342.806, 4.718
1344.003, 2.725
1345.200, 7.891
1346.396, 5.455
1347.592, 24.970
1348.788, 30.825
1349.984, 34.256
1351.180, 32.653
1352.376, 46.178
1353.571, 8.883
1354.766, 52.236
1355.961, 17.256
1357.156, 62.501
1358.351, 55.809
1359.545, 27.075
1360.739, 27.405
1361.933, 25.671
1363.127, 45.738
1364.321, 18.989
1365.515, 38.200
1366.708, 6.379
1367.901, 34.648
1369.094, 37.882
1370.287, 70.079
1371.479, 12.729
1372.672, 9.956
1373.864, 35.632
1375.056, 26.281
1376.248, 82.898
1377.440, 43.478
1378.631, 82.195
1379.822, 53.875
1381.014, 2.480
1382.205, 25.993
1383.395, 34.430
1384.586, 9.832
1385.776, 26.104
1386.966, 73.427
1388.157, 23.706
1389.346, 74.956
1390.536, 11.261
1391.725, 52.431
1392.915, 37.642
1394.104, 26.850
1395.293, 44.056
1396.482, 11.249
1397.670, 69.435
1398.858, 50.604
1400.047, 12.872
1401.235, 51.017
1402.422, 39.158
1403.610, 5.704
1404.798, 57.220
1405.985, 32.144
1407.172, 36.467
1408.359, 46.790
1409.546, 81.345
1410.732, 32.902
1411.918, 36.457
1413.105, 28.009
1414.291, 8.444
1415.476, 25.756
1416.662, 40.950
1417.848, 40.139
1419.033, 27.392
1420.218, 35.537
1421.403, 44.985
1422.587, 37.219
1423.772, 31.510
1424.956, 57.775
1426.140, 63.034
1427.324, 77.256
1428.508, 34.434
1429.692, 67.567
1430.875, 27.656
1432.059, 37.702
1433.242, 41.716
1434.425, 30.696
1435.607, 41.654
1436.790, 71.592
1437.972, 77.866
1439.154, 26.760
1440.336, 53.630
1441.518, 41.587
1442.700, 19.474
1443.881, 26.653
1445.062, 45.770
1446.243, 76.884
1447.424, 52.000
1448.605, 63.124
1449.786, 103.262
1450.966, 88.487
1452.146, 28.780
1453.326, 82.170
1454.506, 39.616
1455.685, 1.910
1456.865, 62.574
1458.044, 8.053
1459.223, 88.601
1460.402, 30.219
1461.581, 12.999
1462.759, 6.871
1463.938, 9.873
1465.116, 15.010
1466.294, 53.286
1467.472, 41.704
1468.649, 47.270
1469.827, 46.987
1471.004, 23.854
1472.181, 0.125
1473.358, 58.052
1474.535, 0.969
1475.711, 44.675
1476.887, 11.491
1478.064, 34.478
1479.240, 42.179
1480.415, 39.943
1481.591, 28.863
1482.767, 32.935
1483.942, 5.144
1485.117, 76.480
1486.292, 42.937
1487.467, 10.554
1488.641, 83.332
1489.815, 34.272
1490.990, 48.347
1492.164, 6.508
1493.337, 19.254
1494.511, 31.735
1495.685, 78.350
1496.858, 5.014
1498.031, 67.810
1499.204, 50.254
1500.377, 52.688
1501.549, 78.824
1502.722, 97.784
1503.894, 99.145
1505.066, 57.887
1506.238, 109.331
1507.409, 50.959
1508.581, 50.376
1509.752, 76.621
1510.923, 5.094
1512.094, 43.336
1513.265, 88.070
1514.436, 7.941
1515.606, 27.806
1516.776, 21.879
1517.946, 28.266
1519.116, 65.082
1520.286, 6.682
1521.455, 0.000
##END=



