##NAMES=Almandine
##RRUFFID=R060450
##IDEAL CHEMISTRY=Fe^2+^_3_Al_2_(SiO_4_)_3_
##LOCALITY=Canada
##OWNER=RRUFF
##SOURCE=Gemological Institute of America
##DESCRIPTION=Reddish-brown translucent fragment
##STATUS=The identification of this mineral has been confirmed by X-ray diffraction and chemical analysis
##URL=rruff.info/R060450
##MEASURED CHEMISTRY=(Fe^2+^_1.92_Mg_1.03_Ca_0.04_Mn_0.01_)_Î£=3_Al_2.00_(Si_1.00_O_4_)_3_
##PIN_ID=L00665
##ORIENTATION=Laser parallel to c* (0 0 1). Fiducial mark perpendicular to laser is parallel to a [1 0 0]
91.01200, 0.0000000E+00
92.24600, 18.30884
93.48000, 75.19092
94.71400, 69.68555
95.94800, 42.84937
97.18200, 17.15942
98.41600, 43.36890
99.64900, 74.48315
100.8830, 66.01294
102.1160, 1.412109
103.3490, 39.08350
104.5820, 125.7654
105.8150, 262.9482
107.0470, 446.3142
108.2800, 659.7397
109.5120, 863.1201
110.7440, 481.3647
111.9760, 274.3923
113.2080, 174.1292
114.4400, 318.5127
115.6710, 458.4885
116.9030, 394.0117
118.1340, 384.0437
119.3650, 263.5532
120.5960, 237.5105
121.8270, 299.8896
123.0580, 285.6660
124.2880, 208.8184
125.5190, 166.3254
126.7490, 187.1685
127.9790, 298.3291
129.2090, 350.7825
130.4390, 319.5027
131.6680, 482.4675
132.8980, 441.6597
134.1270, 636.0657
135.3560, 678.6733
136.5850, 726.4739
137.8140, 691.4600
139.0430, 870.6277
140.2710, 803.9724
141.5000, 878.4951
142.7280, 840.1943
143.9560, 890.0688
145.1840, 913.1145
146.4120, 877.3293
147.6390, 835.7092
148.8670, 828.7097
150.0940, 724.9390
151.3210, 752.7764
152.5490, 763.7542
153.7750, 673.8672
155.0020, 739.1118
156.2290, 671.4824
157.4550, 728.9751
158.6810, 677.5854
159.9080, 757.3108
161.1340, 751.1465
162.3590, 872.0894
163.5850, 924.1365
164.8110, 974.2549
166.0360, 1106.362
167.2610, 1061.471
168.4860, 1089.589
169.7110, 1113.726
170.9360, 1180.879
172.1610, 1248.055
173.3850, 1127.268
174.6100, 1103.523
175.8340, 1005.823
177.0580, 811.1694
178.2820, 691.5659
179.5050, 665.0132
180.7290, 623.5129
181.9520, 469.0767
183.1760, 454.7192
184.3990, 384.4524
185.6220, 458.2739
186.8450, 439.1541
188.0670, 490.1370
189.2900, 592.2295
190.5120, 588.4697
191.7340, 688.8174
192.9560, 666.2727
194.1780, 673.8535
195.4000, 795.5112
196.6220, 842.2385
197.8430, 942.0396
199.0640, 882.9749
200.2860, 1019.982
201.5070, 1115.069
202.7270, 1165.233
203.9480, 1075.432
205.1690, 1089.667
206.3890, 1014.938
207.6090, 1039.244
208.8290, 1055.586
210.0490, 1070.964
211.2690, 1119.377
212.4890, 1092.825
213.7080, 1067.309
214.9280, 949.8262
216.1470, 909.3789
217.3660, 880.9653
218.5850, 680.5854
219.8030, 550.2385
221.0220, 454.9248
222.2400, 432.6438
223.4590, 406.3948
224.6770, 304.1777
225.8950, 316.9917
227.1120, 203.8372
228.3300, 209.7129
229.5480, 217.6191
230.7650, 213.5552
231.9820, 181.5205
233.1990, 240.5146
234.4160, 178.5378
235.6330, 219.5889
236.8490, 317.6680
238.0660, 185.5330
239.2820, 220.6802
240.4980, 259.0261
241.7140, 224.5156
242.9300, 231.1538
244.1460, 273.8188
245.3610, 233.6367
246.5770, 239.5938
247.7920, 220.6787
249.0070, 272.8428
250.2220, 214.0039
251.4370, 216.4211
252.6510, 241.9358
253.8660, 210.5415
255.0800, 181.2346
256.2940, 195.0095
257.5080, 248.8630
258.7220, 334.7910
259.9360, 300.8298
261.1490, 407.8591
262.3630, 238.9937
263.5760, 285.1914
264.7890, 212.4507
266.0020, 246.7686
267.2150, 187.1438
268.4270, 204.5737
269.6400, 277.0571
270.8520, 312.5920
272.0640, 328.5020
273.2760, 238.1353
274.4880, 288.7891
275.7000, 263.5151
276.9120, 355.2153
278.1230, 302.9617
279.3340, 320.8174
280.5450, 308.9714
281.7560, 391.9087
282.9670, 291.5999
284.1780, 410.6150
285.3880, 403.3984
286.5980, 330.5696
287.8090, 390.2908
289.0190, 385.0530
290.2290, 388.9902
291.4380, 342.9102
292.6480, 365.0181
293.8570, 445.1592
295.0670, 472.8489
296.2760, 423.1733
297.4850, 563.6150
298.6930, 465.0254
299.9020, 569.5215
301.1110, 551.9863
302.3190, 563.4248
303.5270, 591.9897
304.7350, 646.1440
305.9430, 679.6777
307.1510, 806.1665
308.3580, 898.7954
309.5660, 1033.335
310.7730, 1057.479
311.9800, 1300.866
313.1870, 1363.572
314.3940, 1490.301
315.6010, 1532.052
316.8070, 1579.826
318.0130, 1652.622
319.2200, 1590.439
320.4260, 1679.280
321.6310, 1636.141
322.8370, 1701.024
324.0430, 1758.929
325.2480, 1892.854
326.4540, 2031.366
327.6590, 2231.768
328.8640, 2421.755
330.0680, 2682.761
331.2730, 2973.788
332.4780, 3183.833
333.6820, 3570.896
334.8860, 3944.978
336.0900, 4133.077
337.2940, 4767.193
338.4980, 5188.324
339.7010, 5867.473
340.9050, 6609.638
342.1080, 7401.815
343.3110, 8191.009
344.5140, 9065.215
345.7170, 10049.44
346.9200, 11134.67
348.1220, 12083.92
349.3240, 12519.18
350.5270, 12676.45
351.7290, 12383.74
352.9310, 11464.03
354.1320, 10137.34
355.3340, 8966.664
356.5350, 7512.999
357.7370, 6360.344
358.9380, 5604.699
360.1390, 4893.067
361.3400, 4312.444
362.5400, 3890.834
363.7410, 3754.234
364.9410, 3570.645
366.1410, 3528.065
367.3410, 3447.497
368.5410, 3397.937
369.7410, 3430.389
370.9400, 3449.849
372.1400, 3455.319
373.3390, 3338.799
374.5380, 3164.287
375.7370, 2954.785
376.9360, 2643.292
378.1350, 2416.807
379.3330, 2048.330
380.5310, 1778.863
381.7300, 1504.404
382.9280, 1245.970
384.1260, 1012.560
385.3230, 907.1694
386.5210, 761.8032
387.7180, 633.4561
388.9160, 634.1343
390.1130, 468.8306
391.3100, 473.5498
392.5060, 523.2891
393.7030, 333.0454
394.9000, 294.8228
396.0960, 266.6206
397.2920, 254.4355
398.4880, 217.2666
399.6840, 95.11279
400.8800, 149.9961
402.0750, 87.89648
403.2710, 149.8384
404.4660, 130.7944
405.6610, 60.78662
406.8560, 125.7979
408.0510, 87.82129
409.2450, 78.86670
410.4400, 73.94043
411.6340, 53.03564
412.8280, 60.15479
414.0220, 4.287109
415.2160, 28.55322
416.4100, 40.60352
417.6030, 40.22314
418.7970, 3.962402
419.9900, 56.84131
421.1830, 17.66113
422.3760, 43.53613
423.5690, 2.259766
424.7610, 29.43799
425.9540, 67.80908
427.1460, 22.39990
428.3380, 48.38428
429.5300, 54.17773
430.7220, 62.99268
431.9140, 80.81689
433.1050, 27.67529
434.2970, 6.540527
435.4880, 28.40479
436.6790, 82.27393
437.8700, 55.18018
439.0610, 10.11230
440.2510, 30.04883
441.4420, 24.99902
442.6320, 28.93652
443.8220, 34.11523
445.0120, 25.82764
446.2020, 8.782227
447.3910, 114.7446
448.5810, 5.236328
449.7700, 46.22559
450.9600, 77.77881
452.1490, 8.175781
453.3370, 5.871582
454.5260, 35.91357
455.7150, 47.02148
456.9030, 94.95801
458.0910, 61.89648
459.2800, 116.8369
460.4670, 110.5654
461.6550, 96.73730
462.8430, 105.6934
464.0300, 88.64990
465.2180, 104.3438
466.4050, 124.5645
467.5920, 149.5225
468.7790, 185.4805
469.9650, 244.4414
471.1520, 319.4053
472.3380, 323.3726
473.5250, 320.3398
474.7110, 464.3130
475.8970, 515.2847
477.0820, 618.2549
478.2680, 748.2236
479.4540, 808.1909
480.6390, 876.1558
481.8240, 911.1196
483.0090, 893.0806
484.1940, 831.0391
485.3780, 719.9951
486.5630, 715.9492
487.7470, 626.8994
488.9320, 684.8496
490.1160, 717.7964
491.3000, 807.7402
492.4830, 929.0337
493.6670, 1030.629
494.8500, 1246.568
496.0340, 1370.503
497.2170, 1585.441
498.4000, 1830.376
499.5820, 2163.315
500.7650, 2316.251
501.9480, 2446.183
503.1300, 2536.115
504.3120, 2423.044
505.4940, 2250.968
506.6760, 1871.887
507.8580, 1652.805
509.0390, 1347.716
510.2210, 1133.625
511.4020, 939.5312
512.5830, 844.4321
513.7640, 775.3311
514.9450, 695.2280
516.1250, 674.1191
517.3060, 727.0190
518.4860, 690.9131
519.6660, 637.8008
520.8460, 573.6836
522.0260, 597.5586
523.2060, 646.4277
524.3850, 578.9258
525.5650, 623.7817
526.7440, 726.6294
527.9230, 536.1230
529.1020, 601.9575
530.2810, 658.9053
531.4590, 655.7236
532.6380, 703.5283
533.8160, 738.9536
534.9940, 633.7461
536.1720, 618.5303
537.3500, 769.3188
538.5270, 873.4067
539.7050, 860.4961
540.8820, 969.4409
542.0590, 1089.643
543.2360, 1254.181
544.4130, 1276.484
545.5900, 1521.515
546.7660, 1841.667
547.9430, 1918.034
549.1190, 2300.831
550.2950, 2613.887
551.4710, 3034.508
552.6470, 3404.618
553.8220, 3830.354
554.9980, 4345.726
556.1730, 4665.338
557.3480, 4972.812
558.5230, 5031.119
559.6980, 4802.647
560.8730, 4588.833
562.0470, 4046.023
563.2220, 3505.738
564.3960, 2933.247
565.5700, 2482.343
566.7440, 2073.161
567.9170, 1684.222
569.0910, 1492.658
570.2640, 1251.332
571.4380, 1141.718
572.6110, 1041.440
573.7840, 902.3516
574.9570, 819.9541
576.1290, 770.1436
577.3020, 738.4307
578.4740, 676.0693
579.6460, 801.0024
580.8180, 706.3799
581.9900, 777.5894
583.1620, 700.8379
584.3330, 734.5083
585.5040, 812.0801
586.6760, 746.9741
587.8470, 831.1201
589.0180, 777.5566
590.1880, 695.6890
591.3590, 636.6753
592.5290, 576.8940
593.7000, 468.6714
594.8700, 497.8350
596.0400, 515.2178
597.2090, 441.2881
598.3790, 445.4849
599.5490, 517.5244
600.7180, 512.4526
601.8870, 447.4614
603.0560, 389.3936
604.2250, 460.3789
605.3940, 431.3394
606.5620, 415.2847
607.7300, 435.3979
608.8990, 301.3110
610.0670, 391.7153
611.2350, 301.2227
612.4020, 316.0210
613.5700, 272.8677
614.7370, 246.1885
615.9050, 166.0024
617.0720, 272.7998
618.2390, 241.5806
619.4060, 282.3442
620.5720, 319.0913
621.7390, 357.8218
622.9050, 402.5356
624.0710, 409.2324
625.2370, 429.9121
626.4030, 449.5742
627.5690, 534.2197
628.7340, 725.1836
629.9000, 721.7949
631.0650, 839.3892
632.2300, 881.1450
633.3950, 946.7051
634.5600, 1059.247
635.7240, 1216.773
636.8890, 1248.605
638.0530, 1168.096
639.2170, 1029.723
640.3810, 1047.205
641.5450, 990.6431
642.7080, 869.0024
643.8720, 646.6421
645.0350, 628.1260
646.1980, 442.4927
647.3610, 294.4902
648.5240, 384.8237
649.6870, 383.3970
650.8490, 261.2769
652.0120, 289.5552
653.1740, 222.7759
654.3360, 220.5791
655.4980, 200.8354
656.6600, 169.4961
657.8210, 166.6846
658.9830, 127.8550
660.1440, 160.2080
661.3050, 160.3418
662.4660, 96.45752
663.6270, 48.55469
664.7870, 155.7090
665.9480, 127.7642
667.1080, 47.03955
668.2680, 145.0522
669.4280, 30.04785
670.5880, 110.0137
671.7480, 32.96191
672.9070, 45.88281
674.0670, 103.7808
675.2260, 100.6606
676.3850, 30.52246
677.5440, 59.35645
678.7030, 58.16992
679.8610, 66.96289
681.0200, 49.26465
682.1780, 34.44238
683.3360, 67.87500
684.4940, 55.73340
685.6520, 50.67920
686.8090, 9.843750
687.9670, 68.33350
689.1240, 3.195313
690.2810, 28.76367
691.4380, 5.383301
692.5950, 16.04297
693.7520, 29.87061
694.9080, 30.85742
696.0650, 56.36230
697.2210, 4.569824
698.3770, 47.25537
699.5330, 29.86865
700.6880, 30.97021
701.8440, 35.93652
702.9990, 74.10889
704.1550, 16.86230
705.3100, 39.12695
706.4650, 7.097168
707.6190, 90.05566
708.7740, 5.001465
709.9290, 59.91992
711.0830, 37.16064
712.2370, 48.72461
713.3910, 9.614258
714.5450, 21.48779
715.6980, 5.655762
716.8520, 41.17773
718.0050, 100.0166
719.1580, 50.85596
720.3110, 90.68506
721.4640, 27.49072
722.6170, 16.29248
723.7700, 22.06641
724.9220, 9.822266
726.0740, 78.56689
727.2260, 19.30273
728.3780, 20.94727
729.5300, 2.769043
730.6810, 35.46387
731.8330, 90.16650
732.9840, 35.14209
734.1350, 59.51416
735.2860, 50.16992
736.4370, 24.81299
737.5880, 93.44189
738.7380, 18.94141
739.8880, 99.64551
741.0390, 4.779297
742.1890, 39.77393
743.3380, 68.31494
744.4880, 63.84521
745.6380, 11.36328
746.7870, 60.86914
747.9360, 1.635742
749.0850, 4.158691
750.2340, 9.698242
751.3830, 32.74170
752.5310, 19.82861
753.6800, 35.57715
754.8280, 51.97266
755.9760, 41.35791
757.1240, 72.73389
758.2720, 63.10059
759.4190, 46.45801
760.5670, 80.80566
761.7140, 64.14453
762.8610, 159.4746
764.0080, 19.79590
765.1550, 152.1089
766.3020, 7.587402
767.4480, 61.70361
768.5950, 14.98682
769.7410, 24.73828
770.8870, 68.51709
772.0330, 33.76465
773.1780, 82.00439
774.3240, 29.76367
775.4690, 53.44775
776.6140, 44.34766
777.7590, 0.1699220
778.9040, 8.999512
780.0490, 30.83789
781.1940, 38.30615
782.3380, 5.556152
783.4820, 8.573242
784.6260, 23.30322
785.7700, 2.806641
786.9140, 13.08887
788.0580, 23.07959
789.2010, 46.08984
790.3450, 32.83203
791.4880, 23.76953
792.6310, 1.717773
793.7730, 75.67139
794.9160, 66.33887
796.0590, 39.34424
797.2010, 12.65430
798.3430, 96.33984
799.4850, 48.32959
800.6270, 147.3154
801.7690, 6.338379
802.9100, 116.6387
804.0520, 15.38770
805.1930, 156.9282
806.3340, 87.89258
807.4750, 224.7314
808.6160, 155.6899
809.7560, 75.65039
810.8970, 189.9800
812.0370, 89.93115
813.1770, 127.8804
814.3170, 256.8130
815.4570, 187.4355
816.5960, 168.0459
817.7360, 174.7896
818.8750, 143.3989
820.0140, 109.3936
821.1530, 119.7466
822.2920, 127.3608
823.4310, 81.84277
824.5690, 153.0991
825.7070, 205.9136
826.8460, 169.4590
827.9840, 146.4297
829.1220, 95.89893
830.2590, 38.26904
831.3970, 152.9321
832.5340, 164.8794
833.6710, 81.63770
834.8080, 177.8770
835.9450, 126.9092
837.0820, 187.2495
838.2190, 205.6445
839.3550, 246.5195
840.4910, 298.5244
841.6270, 289.7051
842.7630, 371.4082
843.8990, 314.1733
845.0350, 385.2686
846.1700, 472.3882
847.3060, 535.4404
848.4410, 613.5610
849.5760, 626.6216
850.7100, 753.7705
851.8450, 806.3740
852.9800, 843.7148
854.1140, 1042.695
855.2480, 1070.854
856.3820, 1310.955
857.5160, 1560.128
858.6500, 1728.314
859.7830, 1976.013
860.9170, 2286.859
862.0500, 2654.430
863.1830, 2540.641
864.3160, 2985.520
865.4480, 2999.396
866.5810, 3112.826
867.7130, 2975.006
868.8460, 2927.297
869.9780, 2694.498
871.1100, 2545.831
872.2410, 2246.175
873.3730, 2173.402
874.5050, 1941.781
875.6360, 1823.299
876.7670, 1783.739
877.8980, 1760.251
879.0290, 1684.707
880.1590, 1773.181
881.2900, 1715.665
882.4200, 1837.996
883.5500, 1807.539
884.6800, 1848.610
885.8100, 1976.593
886.9400, 1999.280
888.0690, 2288.935
889.1990, 2413.110
890.3280, 2642.793
891.4570, 2863.487
892.5860, 3168.191
893.7140, 3560.907
894.8430, 3783.635
895.9710, 4224.374
897.1000, 4562.124
898.2280, 4856.886
899.3560, 5410.661
900.4830, 5796.446
901.6110, 6368.245
902.7380, 7002.720
903.8660, 7631.542
904.9930, 8525.377
906.1200, 9550.045
907.2460, 10762.91
908.3730, 12601.78
909.5000, 14692.66
910.6260, 17283.25
911.7520, 19943.14
912.8780, 23722.91
914.0040, 27736.82
915.1290, 32036.77
916.2550, 36349.57
917.3800, 40601.54
918.5050, 44371.44
919.6300, 46405.43
920.7550, 46748.80
921.8800, 45930.83
923.0040, 42784.61
924.1290, 38479.10
925.2530, 33211.16
926.3770, 28008.29
927.5010, 23552.84
928.6250, 19569.92
929.7480, 16326.60
930.8720, 13654.74
931.9950, 11279.91
933.1180, 9768.884
934.2410, 8280.074
935.3640, 7091.281
936.4860, 6198.504
937.6090, 5457.663
938.7310, 4950.918
939.8530, 4122.952
940.9750, 3741.241
942.0970, 3216.547
943.2180, 2824.872
944.3400, 2638.214
945.4610, 2297.577
946.5820, 2117.959
947.7030, 1980.355
948.8240, 1774.768
949.9450, 1595.202
951.0650, 1375.653
952.1860, 1327.123
953.3060, 1094.609
954.4260, 1142.135
955.5460, 970.6812
956.6650, 986.2720
957.7850, 875.8799
958.9040, 879.5283
960.0230, 707.1997
961.1420, 841.8882
962.2610, 855.6050
963.3800, 772.3535
964.4990, 615.1304
965.6170, 627.7715
966.7350, 687.5991
967.8530, 598.6816
968.9710, 617.5596
970.0890, 582.4678
971.2070, 606.4067
972.3240, 533.3643
973.4410, 515.5576
974.5580, 510.5669
975.6750, 566.1963
976.7920, 554.5552
977.9090, 607.3569
979.0250, 618.9224
980.1410, 570.0278
981.2580, 662.2881
982.3740, 479.4316
983.4890, 559.9146
984.6050, 573.1045
985.7200, 699.3145
986.8360, 537.5410
987.9510, 551.7891
989.0660, 569.0537
990.1810, 639.3320
991.2950, 591.2300
992.4100, 591.3506
993.5240, 507.2671
994.6390, 519.6182
995.7530, 454.9858
996.8660, 412.3696
997.9800, 457.7676
999.0940, 473.8813
1000.207, 388.3809
1001.320, 393.4819
1002.433, 423.9668
1003.546, 437.4941
1004.659, 406.5952
1005.772, 438.1802
1006.884, 425.4561
1007.996, 386.0024
1009.108, 458.6592
1010.220, 464.1709
1011.332, 460.7896
1012.444, 392.0479
1013.555, 555.6650
1014.666, 373.2998
1015.777, 496.8110
1016.888, 623.0039
1017.999, 540.8330
1019.110, 641.0977
1020.220, 639.7861
1021.331, 798.8193
1022.441, 669.5303
1023.551, 626.2534
1024.661, 856.9897
1025.770, 807.7354
1026.880, 819.4897
1027.989, 900.2524
1029.098, 1071.024
1030.207, 1004.804
1031.316, 1051.593
1032.425, 1199.390
1033.533, 1189.195
1034.642, 1414.008
1035.750, 1499.830
1036.858, 1499.661
1037.966, 1625.500
1039.073, 1823.348
1040.181, 1813.209
1041.288, 2126.077
1042.396, 2179.955
1043.503, 2198.840
1044.610, 2334.740
1045.716, 2343.646
1046.823, 2373.569
1047.929, 2369.500
1049.036, 2350.438
1050.142, 2281.391
1051.248, 2239.350
1052.353, 2071.316
1053.459, 1958.357
1054.564, 1747.339
1055.670, 1595.057
1056.775, 1394.340
1057.880, 1265.366
1058.985, 1063.403
1060.089, 940.4497
1061.194, 833.5059
1062.298, 635.6182
1063.402, 693.7246
1064.506, 532.8374
1065.610, 478.9575
1066.713, 393.1138
1067.817, 324.2944
1068.920, 352.4619
1070.023, 277.6348
1071.126, 225.8135
1072.229, 292.0020
1073.332, 240.1968
1074.435, 205.3960
1075.537, 155.6147
1076.639, 112.7144
1077.741, 82.06445
1078.843, 97.29492
1079.945, 81.60156
1081.046, 98.96045
1082.148, 137.1914
1083.249, 171.4492
1084.350, 133.7148
1085.451, 228.0830
1086.551, 74.35498
1087.652, 69.62891
1088.752, 149.9839
1089.853, 99.26172
1090.953, 97.54199
1092.053, 69.82373
1093.152, 22.10693
1094.252, 47.50537
1095.351, 38.79102
1096.451, 31.07764
1097.550, 66.63574
1098.649, 38.87695
1099.748, 28.86328
1100.846, 9.383789
1101.945, 2.630859
1103.043, 78.87695
1104.141, 10.12256
1105.239, 73.62891
1106.337, 122.5811
1107.434, 110.2095
1108.532, 73.94287
1109.629, 99.79980
1110.726, 8.702637
1111.823, 13.38867
1112.920, 19.52246
1114.017, 24.55420
1115.113, 3.334473
1116.210, 108.7417
1117.306, 108.8154
1118.402, 129.8862
1119.498, 78.95605
1120.593, 210.0225
1121.689, 166.2344
1122.784, 226.2949
1123.879, 217.3530
1124.974, 312.4077
1126.069, 236.5454
1127.164, 254.5957
1128.259, 103.6436
1129.353, 113.6885
1130.447, 34.27051
1131.541, 71.25781
1132.635, 0.2949220
1133.729, 17.65674
1134.822, 21.39355
1135.916, 45.46729
1137.009, 15.42139
1138.102, 46.69336
1139.195, 67.15332
1140.288, 115.0054
1141.380, 16.23877
1142.473, 25.57422
1143.565, 5.310547
1144.657, 49.03418
1145.749, 34.75244
1146.841, 60.53564
1147.932, 38.87207
1149.024, 80.24609
1150.115, 54.68018
1151.206, 41.83838
1152.297, 65.64941
1153.388, 50.81055
1154.479, 4.269043
1155.569, 75.71045
1156.659, 101.1455
1157.750, 87.57324
1158.839, 121.3223
1159.929, 101.9839
1161.019, 124.8135
1162.108, 79.21240
1163.198, 62.66406
1164.287, 69.04834
1165.376, 70.46143
1166.465, 159.7935
1167.553, 115.1553
1168.642, 136.5083
1169.730, 160.9175
1170.818, 141.2549
1171.906, 214.5845
1172.994, 168.2524
1174.082, 115.5659
1175.170, 85.87012
1176.257, 276.1670
1177.344, 167.5439
1178.431, 122.8237
1179.518, 160.0947
1180.605, 69.68506
1181.691, 157.9385
1182.778, 73.18213
1183.864, 53.41699
1184.950, 133.6421
1186.036, 96.85791
1187.122, 198.6284
1188.207, 124.8174
1189.292, 196.9346
1190.378, 148.1128
1191.463, 137.2808
1192.548, 68.43896
1193.632, 144.1753
1194.717, 179.5078
1195.801, 108.9771
1196.886, 204.2710
1197.970, 91.37549
1199.054, 193.6216
1200.137, 226.8481
1201.221, 187.1875
1202.305, 134.3901
1203.388, 155.4790
1204.471, 199.5610
1205.554, 165.1533
1206.637, 217.1660
1207.719, 181.1665
1208.802, 207.3774
1209.884, 90.35400
1210.966, 135.3179
1212.048, 82.26953
1213.130, 115.3315
1214.212, 153.2646
1215.293, 90.23096
1216.374, 152.2515
1217.456, 161.8081
1218.536, 97.01367
1219.617, 216.8745
1220.698, 165.7227
1221.778, 168.5571
1222.859, 161.3799
1223.939, 91.18945
1225.019, 209.9844
1226.099, 188.7666
1227.178, 175.5371
1228.258, 71.87939
1229.337, 156.6196
1230.417, 178.1250
1231.496, 149.8394
1232.574, 252.5337
1233.653, 140.2217
1234.732, 235.4775
1235.810, 156.9214
1236.888, 210.7104
1237.966, 159.2109
1239.044, 85.95996
1240.122, 176.5322
1241.199, 197.7490
1242.277, 167.3350
1243.354, 167.9155
1244.431, 100.4229
1245.508, 110.6636
1246.585, 228.1992
1247.661, 171.7231
1248.738, 152.3955
1249.814, 203.8945
1250.890, 73.38037
1251.966, 136.8530
1253.042, 250.3130
1254.117, 122.8037
1255.193, 89.31641
1256.268, 179.2686
1257.343, 161.9731
1258.418, 227.5234
1259.493, 243.9575
1260.567, 168.6284
1261.642, 240.9253
1262.716, 204.6265
1263.790, 231.7344
1264.864, 231.0122
1265.938, 211.7300
1267.011, 252.5347
1268.085, 238.0913
1269.158, 168.3672
1270.231, 208.5332
1271.304, 71.85352
1272.377, 135.0679
1273.450, 217.6465
1274.522, 183.0000
1275.594, 119.2046
1276.666, 139.6230
1277.738, 212.2705
1278.810, 149.2817
1279.882, 190.8613
1280.953, 169.0244
1282.025, 127.8447
1283.096, 144.3047
1284.167, 186.4404
1285.238, 132.5635
1286.308, 143.6768
1287.379, 175.7822
1288.449, 100.8779
1289.519, 133.9639
1290.589, 188.0420
1291.659, 53.11133
1292.729, 120.1709
1293.798, 107.2227
1294.868, 217.2646
1295.937, 223.2988
1297.006, 262.3242
1298.075, 52.34082
1299.143, 111.3496
1300.212, 105.3486
1301.280, 15.34082
1302.348, 225.3203
1303.416, 114.2920
1304.484, 188.2559
1305.552, 46.21191
1306.620, 67.15918
1307.687, 161.0986
1308.754, 15.03125
1309.821, 131.9521
1310.888, 84.86621
1311.955, 114.7734
1313.021, 101.6064
1314.088, 84.50098
1315.154, 41.61133
1316.220, 0.7548830
1317.286, 8.4960997E-02
1318.352, 160.9102
1319.417, 116.7285
1320.483, 120.5410
1321.548, 74.70801
1322.613, 23.03809
1323.678, 11.74316
1324.743, 100.5605
1325.807, 109.0957
1326.872, 28.71875
1327.936, 30.33789
1329.000, 13.94922
1330.064, 5.449219
1331.128, 54.13965
1332.191, 52.70020
1333.255, 44.74707
1334.318, 134.7832
1335.381, 95.30566
1336.444, 15.82129
1337.507, 94.33008
1338.569, 107.7588
1339.632, 129.2529
1340.694, 39.37207
1341.756, 5.906250
1342.818, 47.54590
1343.880, 30.88672
1344.941, 98.31934
1346.003, 121.7441
1347.064, 132.0723
1348.125, 82.47363
1349.186, 127.8672
1350.247, 103.4570
1351.308, 90.92969
1352.368, 90.89160
1353.428, 64.25195
1354.489, 55.60547
1355.549, 45.95312
1356.608, 72.05078
1357.668, 130.3955
1358.727, 66.73633
1359.787, 178.0713
1360.846, 77.40039
1361.905, 4.277344
1362.964, 123.0352
1364.022, 18.36133
1365.081, 3.319336
1366.139, 21.01172
1367.197, 109.2324
1368.255, 27.57715
1369.313, 76.91797
1370.371, 16.25391
1371.428, 28.40918
1372.486, 124.8828
1373.543, 54.19922
1374.600, 92.51172
1375.657, 8.817383
1376.713, 67.11719
1377.770, 88.41211
1378.826, 169.5518
1379.882, 72.83496
1380.938, 35.11426
1381.994, 26.38477
1383.050, 8.690430
1384.106, 3.521484
1385.161, 7.075195
1386.216, 31.32031
1387.271, 93.56250
1388.326, 160.8125
1389.381, 106.0811
1390.435, 14.64941
1391.490, 237.6113
1392.544, 40.87988
1393.598, 11.83789
1394.652, 37.43848
1395.705, 82.72852
1396.759, 155.0156
1397.812, 70.33594
1398.866, 44.59277
1399.919, 41.91797
1400.972, 6.268555
1402.024, 45.11816
1403.077, 15.89453
1404.129, 84.23926
1405.181, 153.5986
1406.233, 89.98535
1407.285, 35.39160
1408.337, 89.79590
1409.389, 26.77441
1410.440, 124.6494
1411.491, 51.07910
1412.542, 150.5098
1413.593, 75.94336
1414.644, 184.3760
1415.695, 92.81348
1416.745, 117.2520
1417.795, 99.69434
1418.845, 93.08105
1419.895, 122.5293
1420.945, 138.9844
1421.995, 148.4609
1423.044, 153.9082
1424.093, 175.3789
1425.142, 212.7939
1426.191, 225.2793
1427.240, 116.7734
1428.289, 110.9297
1429.337, 130.4414
1430.385, 155.9648
1431.433, 159.1455
1432.481, 182.7676
1433.529, 184.5205
1434.577, 224.0986
1435.624, 243.3643
1436.672, 278.9795
1437.719, 210.6143
1438.766, 122.5908
1439.812, 175.2754
1440.859, 286.9893
1441.905, 218.5244
1442.952, 190.3164
1443.998, 274.1670
1445.044, 238.0400
1446.090, 239.4385
1447.135, 59.33984
1448.181, 155.1543
1449.226, 339.1006
1450.271, 146.4717
1451.316, 170.5674
1452.361, 131.8467
1453.405, 254.5449
1454.450, 329.0127
1455.494, 180.2402
1456.538, 186.7012
1457.582, 185.6543
1458.626, 274.8809
1459.670, 112.2969
1460.713, 130.7129
1461.757, 109.1279
1462.800, 221.5430
1463.843, 309.9580
1464.886, 138.3281
1465.928, 249.7461
1466.971, 228.1650
1468.013, 95.88770
1469.055, 297.5635
1470.097, 174.8164
1471.139, 235.1055
1472.181, 207.9023
1473.222, 219.2803
1474.263, 223.7480
1475.305, 153.8301
1476.346, 183.2100
1477.386, 248.4316
1478.427, 174.7100
1479.468, 231.8076
1480.508, 192.1758
1481.548, 175.4551
1482.588, 242.8145
1483.628, 172.3535
1484.668, 205.7031
1485.707, 219.0537
1486.747, 127.2090
1487.786, 124.4209
1488.825, 185.7637
1489.864, 397.0977
1490.902, 282.4014
1491.941, 275.7070
1492.979, 54.00781
1494.017, 323.3037
1495.055, 228.5947
1496.093, 181.8799
1497.131, 231.1572
1498.168, 188.4287
1499.206, 158.6924
1500.243, 25.94824
1501.280, 362.1982
1502.317, 316.4395
1503.354, 286.6670
1504.390, 182.8867
1505.426, 179.0879
1506.463, 319.2676
1507.499, 160.4707
1508.535, 274.6777
1509.570, 201.8740
1510.606, 182.2285
1511.641, 243.6475
1512.676, 256.1240
1513.711, 179.6367
1514.746, 343.1943
1515.781, 159.8037
1516.816, 156.4170
1517.850, 217.0352
1518.884, 143.6582
1519.918, 140.2959
1520.952, 144.9688
1521.986, 133.2441
1523.019, 210.4414
1524.053, 165.2148
1525.086, 207.0215
1526.119, 235.8672
1527.152, 138.7617
1528.185, 177.7012
1529.217, 227.6709
1530.250, 120.6719
1531.282, 205.7344
1532.314, 205.8633
1533.346, 219.0322
1534.377, 193.2480
1535.409, 193.9814
1536.440, 155.8340
1537.472, 164.2168
1538.503, 182.6680
1539.534, 153.1973
1540.564, 138.8125
1541.595, 131.0000
1542.625, 126.1035
1543.656, 111.1602
1544.686, 134.1182
1545.716, 151.1768
1546.745, 157.3525
1547.775, 109.6250
1548.804, 125.0322
1549.834, 156.5742
1550.863, 189.2607
1551.892, 138.1064
1552.920, 253.1221
1553.949, 315.3271
1554.977, 261.7402
1556.006, 210.3818
1557.034, 127.2783
1558.062, 191.4551
1559.089, 138.9492
1560.117, 235.8027
1561.144, 145.0664
1562.172, 5.802734
1563.199, 91.09180
1564.226, 188.0342
1565.252, 8.237305
1566.279, 99.45410
1567.305, 128.4502
1568.332, 9.883789
1569.358, 40.76660
1570.384, 0.0000000E+00
##END=



