##NAMES=Almandine
##RRUFFID=R070129
##IDEAL CHEMISTRY=Fe^2+^_3_Al_2_(SiO_4_)_3_
##LOCALITY=Wrangell, Wrangell Island, Wrangell-Petersburg Borough, Alaska, USA
##OWNER=Michael Scott
##SOURCE=Michael Scott
##DESCRIPTION=Dark red well-formed dodecahedral crystals in schist
##STATUS=The identification of this mineral has been confirmed by X-ray diffraction and chemical analysis
##URL=rruff.info/R070129
##MEASURED CHEMISTRY=(Fe^2+^_2.15_Mg_0.60_Mn_0.11_Fe^3+^_0.06_Ca_0.08_)_Σ=3_Al_2.00_((Si_0.98_Al_0.02_)_Σ=1_O_4_)_3_
##PIN_ID=L01134
##ORIENTATION=Laser parallel to b* (0 1 0). Fiducial mark perpendicular to laser is parallel to a [1 0 0]
137.6830, 0.0000000E+00
138.9210, 1.127808
140.1580, 51.75464
141.3950, 4.407227
142.6330, 13.46143
143.8690, 56.48914
145.1060, 12.12024
146.3430, 105.4121
147.5790, 102.8077
148.8150, 157.0121
150.0510, 278.1575
151.2870, 281.0059
152.5220, 376.7014
153.7580, 496.3469
154.9930, 581.0076
156.2280, 690.7263
157.4620, 734.5331
158.6970, 888.4473
159.9310, 1064.482
161.1660, 1174.266
162.4000, 1396.658
163.6330, 1513.517
164.8670, 1743.804
166.1000, 1803.317
167.3340, 1754.040
168.5670, 1732.956
169.8000, 1527.053
171.0320, 1447.317
172.2650, 1231.738
173.4970, 972.3086
174.7290, 695.0273
175.9610, 508.8895
177.1930, 318.8871
178.4240, 225.0135
179.6550, 122.2646
180.8870, 58.63342
182.1170, 51.11047
183.3480, 28.68799
184.5790, 27.64111
185.8090, 9.882935
187.0390, 57.04358
188.2690, 34.13000
189.4990, 19.14673
190.7290, 54.90271
191.9580, 90.01501
193.1870, 152.5571
194.4160, 137.4164
195.6450, 257.7002
196.8740, 287.0364
198.1020, 277.4226
199.3310, 451.8571
200.5590, 559.3374
201.7870, 662.8618
203.0140, 759.4290
204.2420, 899.0369
205.4690, 968.6844
206.6960, 1089.370
207.9230, 1150.113
209.1500, 1217.606
210.3760, 1326.912
211.6030, 1320.922
212.8290, 1320.989
214.0550, 1351.113
215.2810, 1214.247
216.5060, 1174.406
217.7320, 1069.631
218.9570, 898.9435
220.1820, 791.2838
221.4070, 725.6650
222.6320, 691.0542
223.8560, 556.4489
225.0800, 542.8472
226.3040, 622.2500
227.5280, 513.1660
228.7520, 484.5448
229.9760, 409.4963
231.1990, 356.9269
232.4220, 281.3662
233.6450, 291.8143
234.8680, 261.2656
236.0910, 262.7021
237.3130, 259.1981
238.5350, 250.5378
239.7570, 260.9714
240.9790, 231.4166
242.2010, 241.8740
243.4220, 214.3430
244.6430, 245.8239
245.8640, 192.3164
247.0850, 204.8206
248.3060, 222.3362
249.5270, 169.8633
250.7470, 177.4014
251.9670, 170.9507
253.1870, 188.5104
254.4070, 170.0808
255.6260, 183.6617
256.8460, 210.2527
258.0650, 274.8536
259.2840, 344.4644
260.5030, 222.0845
261.7220, 163.7141
262.9400, 129.3527
264.1580, 177.0002
265.3760, 146.6567
266.5940, 115.3220
267.8120, 150.9960
269.0290, 133.6785
270.2470, 198.3700
271.4640, 167.0706
272.6810, 134.7800
273.8980, 136.4990
275.1140, 174.2275
276.3310, 194.7823
277.5470, 154.5652
278.7630, 217.6238
279.9790, 219.0403
281.1940, 183.8008
282.4100, 149.5607
283.6250, 232.1823
284.8400, 260.6194
286.0550, 281.7263
287.2700, 285.1127
288.4850, 282.5349
289.6990, 360.4158
290.9130, 338.6349
292.1270, 381.1455
293.3410, 395.4697
294.5540, 436.8979
295.7680, 463.9252
296.9810, 467.5010
298.1940, 518.8440
299.4070, 532.5919
300.6200, 635.0955
301.8320, 716.2063
303.0450, 775.6636
304.2570, 920.2329
305.4690, 971.8528
306.6800, 1142.517
307.8920, 1286.121
309.1030, 1434.680
310.3150, 1545.218
311.5260, 1811.779
312.7360, 1902.363
313.9470, 2016.967
315.1580, 2037.591
316.3680, 2085.234
317.5780, 2113.896
318.7880, 2107.575
319.9980, 2193.272
321.2070, 2239.985
322.4170, 2434.712
323.6260, 2612.454
324.8350, 2873.211
326.0430, 3121.043
327.2520, 3337.765
328.4610, 3721.561
329.6690, 4103.271
330.8770, 4490.269
332.0850, 5117.839
333.2920, 5732.472
334.5000, 6603.509
335.7070, 7549.500
336.9140, 8728.369
338.1210, 10072.25
339.3280, 11524.14
340.5350, 12996.03
341.7410, 14651.94
342.9470, 15913.85
344.1540, 16909.78
345.3590, 17618.70
346.5650, 17593.64
347.7710, 16731.58
348.9760, 15614.53
350.1810, 13893.49
351.3860, 12106.45
352.5910, 10241.42
353.7950, 8681.394
355.0000, 7210.373
356.2040, 6081.357
357.4080, 5105.347
358.6120, 4593.340
359.8150, 4032.337
361.0190, 3704.338
362.2220, 3580.343
363.4250, 3555.351
364.6280, 3426.361
365.8310, 3427.375
367.0340, 3470.391
368.2360, 3351.409
369.4380, 3530.430
370.6400, 3390.454
371.8420, 3257.479
373.0440, 3129.508
374.2450, 2892.538
375.4470, 2551.570
376.6480, 2378.605
377.8490, 2012.641
379.0490, 1804.680
380.2500, 1521.719
381.4500, 1273.762
382.6510, 1101.806
383.8510, 934.8523
385.0500, 812.9006
386.2500, 707.9504
387.4500, 560.0028
388.6490, 518.0581
389.8480, 374.1178
391.0470, 340.1808
392.2460, 321.2454
393.4440, 214.3149
394.6430, 231.3866
395.8410, 217.4637
397.0390, 113.5471
398.2370, 183.6405
399.4340, 109.7458
400.6320, 138.8619
401.8290, 152.9830
403.0260, 76.11414
404.2230, 75.25488
405.4200, 55.41174
406.6170, 91.58472
407.8130, 36.76599
409.0090, 37.96240
410.2050, 53.18103
411.4010, 2.412720
412.5970, 12.33936
413.7920, 1.914795
414.9880, 3.189941
416.1830, 33.51501
417.3780, 31.21997
418.5730, 8.068726
419.7670, 24.64050
420.9620, 3.656860
422.1560, 8.967163
423.3500, 6.271240
424.5440, 6.187988
425.7380, 29.11670
426.9310, 9.799561
428.1240, 23.49768
429.3180, 17.20642
430.5110, 49.91357
431.7030, 16.64783
432.8960, 6.393188
434.0890, 17.85815
435.2810, 2.110840
436.4730, 21.37134
437.6650, 26.36621
438.8570, 3.122314
440.0480, 58.88489
441.2390, 22.68396
442.4310, 28.50183
443.6220, 18.65894
444.8120, 1.181885
446.0030, 22.03064
447.1940, 17.10229
448.3840, 14.23267
449.5740, 13.36035
450.7640, 36.48450
451.9540, 60.60632
453.1430, 36.72546
454.3330, 87.84180
455.5220, 39.95532
456.7110, 103.0664
457.9000, 73.17395
459.0890, 130.2786
460.2770, 121.3798
461.4650, 117.4771
462.6540, 193.5708
463.8420, 223.6605
465.0290, 212.7461
466.2170, 309.8333
467.4050, 358.9163
468.5920, 418.9945
469.7790, 503.0676
470.9660, 634.1360
472.1530, 658.1992
473.3390, 832.2571
474.5250, 1018.314
475.7120, 1022.366
476.8980, 1058.423
478.0840, 1190.480
479.2690, 1128.535
480.4550, 1061.583
481.6400, 1056.625
482.8250, 883.6611
484.0100, 859.6914
485.1950, 796.7147
486.3800, 826.7325
487.5640, 893.7434
488.7480, 1011.747
489.9320, 1193.358
491.1160, 1434.734
492.3000, 1697.717
493.4840, 2082.693
494.6670, 2454.662
495.8500, 2974.625
497.0330, 3320.579
498.2160, 3668.526
499.3990, 3851.467
500.5810, 3962.406
501.7630, 3649.339
502.9460, 3300.268
504.1280, 2846.191
505.3090, 2374.108
506.4910, 1958.018
507.6720, 1572.926
508.8540, 1250.827
510.0350, 1132.723
511.2160, 960.6108
512.3960, 825.4927
513.5770, 723.3660
514.7570, 643.2717
515.9380, 586.7844
517.1180, 568.9380
518.2970, 556.8251
519.4770, 571.6548
520.6570, 571.9351
521.8360, 575.2855
523.0150, 601.1521
524.1940, 580.5330
525.3730, 595.7427
526.5510, 546.6462
527.7300, 556.4373
528.9080, 574.3833
530.0860, 589.4219
531.2640, 599.9150
532.4420, 641.7090
533.6200, 679.6094
534.7970, 732.4849
535.9740, 801.3987
537.1510, 862.1119
538.3280, 963.0035
539.5050, 1030.762
540.6810, 1168.014
541.8580, 1367.951
543.0340, 1554.616
544.2100, 1830.412
545.3860, 2128.714
546.5610, 2464.440
547.7370, 2860.738
548.9120, 3335.156
550.0870, 3813.271
551.2620, 4281.023
552.4370, 4872.649
553.6120, 5262.156
554.7860, 5652.282
555.9600, 5623.919
557.1340, 5681.337
558.3080, 5217.006
559.4820, 4714.272
560.6560, 4185.398
561.8290, 3599.811
563.0020, 2954.852
564.1750, 2478.578
565.3480, 2142.497
566.5210, 1768.314
567.6930, 1513.772
568.8660, 1263.102
570.0380, 1219.114
571.2100, 1063.589
572.3820, 979.6951
573.5530, 954.7021
574.7250, 937.8623
575.8960, 902.3162
577.0670, 932.7555
578.2380, 941.4026
579.4090, 977.6166
580.5800, 1064.395
581.7500, 1043.492
582.9210, 1082.697
584.0910, 1064.660
585.2610, 1057.747
586.4300, 962.2994
587.6000, 918.6440
588.7690, 745.6490
589.9390, 713.7256
591.1080, 678.6936
592.2770, 598.7534
593.4450, 607.6902
594.6140, 562.6404
595.7820, 537.5441
596.9500, 533.0978
598.1190, 538.3926
599.2860, 513.2827
600.4540, 484.1681
601.6220, 472.9845
602.7890, 383.8608
603.9560, 336.6426
605.1230, 346.4343
606.2900, 305.4430
607.4570, 321.1752
608.6230, 299.4733
609.7890, 292.5818
610.9560, 268.2587
612.1220, 287.9180
613.2870, 272.5599
614.4530, 268.1841
615.6180, 288.8506
616.7840, 336.4397
617.9490, 348.1733
619.1140, 368.8004
620.2790, 408.3365
621.4430, 442.8550
622.6080, 478.3556
623.7720, 547.9194
624.9360, 636.3849
626.1000, 763.9324
627.2640, 893.3622
628.4270, 1040.774
629.5910, 1138.169
630.7540, 1208.038
631.9170, 1242.905
633.0800, 1270.477
634.2430, 1194.802
635.4050, 1145.107
636.5680, 1061.507
637.7300, 893.8372
638.8920, 777.4993
640.0540, 638.7065
641.2150, 548.5806
642.3770, 469.4226
643.5380, 424.0884
644.7000, 372.5604
645.8610, 331.2048
647.0210, 250.5175
648.1820, 329.1117
649.3430, 283.8351
650.5030, 252.0471
651.6630, 183.7158
652.8230, 164.8031
653.9830, 179.1707
655.1430, 156.3596
656.3020, 128.3458
657.4620, 115.3612
658.6210, 135.3115
659.7800, 147.2443
660.9390, 126.1592
662.0970, 104.0565
663.2560, 162.9355
664.4140, 139.7971
665.5720, 90.64124
666.7300, 114.4668
667.8880, 74.27466
669.0460, 61.06335
670.2030, 34.83203
671.3600, 52.57654
672.5180, 76.30005
673.6740, 29.00500
674.8310, 65.68469
675.9880, 23.34546
677.1440, 17.97961
678.3010, 0.5856930
679.4570, 7.843872
680.6130, 3.407593
681.7690, 20.17944
682.9240, 2.353882
684.0800, 1.923340
685.2350, 27.52856
686.3900, 28.18286
687.5450, 1.114258
688.7000, 26.62219
689.8540, 53.40588
691.0090, 20.25073
692.1630, 35.13916
693.3170, 10.07788
694.4710, 55.05029
695.6250, 52.08252
696.7780, 11.17297
697.9320, 14.70959
699.0850, 17.57776
700.2380, 49.57629
701.3910, 34.77820
702.5440, 30.02686
703.6970, 2.319946
704.8490, 17.64221
706.0010, 45.00098
707.1530, 7.598633
708.3050, 17.17944
709.4570, 21.25037
710.6090, 23.28943
711.7600, 45.82800
712.9110, 7.358276
714.0620, 20.87207
715.2130, 23.62952
716.3640, 8.834961
717.5150, 38.28149
718.6650, 13.72351
719.8150, 36.15369
720.9650, 97.58838
722.1150, 26.01965
723.2650, 54.44800
724.4150, 36.86462
725.5640, 8.272095
726.7130, 77.67419
727.8630, 27.06543
729.0110, 41.44531
730.1600, 26.81445
731.3090, 77.17249
732.4570, 41.52026
733.6060, 46.85767
734.7540, 24.18530
735.9020, 42.50244
737.0490, 32.80994
738.1970, 28.10791
739.3440, 61.39636
740.4920, 18.67590
741.6390, 46.94604
742.7860, 27.20752
743.9320, 21.53943
745.0790, 29.69263
746.2250, 29.91675
747.3720, 50.13306
748.5180, 54.59058
749.6640, 31.54285
750.8100, 35.73645
751.9550, 33.92322
753.1010, 4.102905
754.2460, 27.27502
755.3910, 0.4403080
756.5360, 3.402100
757.6810, 49.74707
758.8250, 25.88989
759.9700, 63.02661
761.1140, 1.842651
762.2580, 47.28101
763.4020, 3.600952
764.5460, 22.51001
765.6900, 7.615723
766.8330, 74.71619
767.9760, 24.81165
769.1200, 6.902344
770.2620, 11.01184
771.4050, 43.06665
772.5480, 6.140625
773.6900, 6.789551
774.8330, 3.725342
775.9750, 18.66626
777.1170, 33.61536
778.2590, 26.37378
779.4000, 26.46436
780.5420, 22.53308
781.6830, 16.52405
782.8240, 23.52136
783.9650, 41.52673
785.1060, 23.54626
786.2470, 28.57349
787.3870, 9.609253
788.5280, 28.64917
789.6680, 3.697144
790.8080, 19.74805
791.9480, 12.80432
793.0870, 17.13574
794.2270, 3.925781
795.3660, 51.96301
796.5060, 18.89844
797.6450, 43.83289
798.7830, 34.76672
799.9220, 78.61487
801.0610, 134.5477
802.1990, 135.4802
803.3370, 118.2795
804.4750, 178.1814
805.6130, 147.9182
806.7510, 219.5525
807.8890, 213.7223
809.0260, 234.2693
810.1630, 251.0293
811.3000, 244.2338
812.4370, 313.7927
813.5740, 245.6942
814.7110, 226.4078
815.8470, 239.2451
816.9830, 273.5795
818.1190, 259.2196
819.2550, 262.1226
820.3910, 259.8857
821.5270, 213.7058
822.6620, 254.9490
823.7970, 253.1832
824.9330, 231.2894
826.0670, 193.6888
827.2020, 151.4426
828.3370, 248.3143
829.4710, 228.2903
830.6060, 228.8790
831.7400, 182.6943
832.8740, 211.7388
834.0080, 215.3949
835.1410, 257.5734
836.2750, 324.9086
837.4080, 300.3074
838.5410, 307.6846
839.6740, 387.4087
840.8070, 367.9359
841.9400, 387.5520
843.0730, 518.5022
844.2050, 507.7705
845.3370, 612.4900
846.4690, 650.1373
847.6010, 728.4773
848.7330, 804.1982
849.8640, 954.7920
850.9960, 1079.817
852.1270, 1296.618
853.2580, 1319.446
854.3890, 1534.642
855.5200, 1782.722
856.6500, 2052.976
857.7810, 2192.373
858.9110, 2581.642
860.0410, 2771.078
861.1710, 2883.462
862.3010, 3115.734
863.4310, 3125.274
864.5600, 3174.718
865.6900, 3015.254
866.8190, 2957.748
867.9480, 2770.377
869.0770, 2575.002
870.2050, 2379.690
871.3340, 2343.304
872.4620, 2248.023
873.5900, 2180.733
874.7180, 2079.446
875.8460, 2144.238
876.9740, 2114.971
878.1010, 2261.802
879.2290, 2376.624
880.3560, 2348.226
881.4830, 2504.114
882.6100, 2730.020
883.7370, 2933.949
884.8630, 3065.895
885.9900, 3377.854
887.1160, 3591.832
888.2420, 4037.824
889.3680, 4507.771
890.4940, 4819.792
891.6200, 5511.747
892.7450, 5887.640
893.8700, 6577.705
894.9960, 7259.781
896.1210, 7885.875
897.2460, 8518.898
898.3700, 9433.023
899.4950, 10367.06
900.6190, 11415.21
901.7430, 12621.37
902.8670, 14407.55
903.9910, 16403.75
905.1150, 19098.95
906.2390, 22144.95
907.3620, 26077.18
908.4850, 30810.44
909.6080, 35942.59
910.7310, 41934.82
911.8540, 47770.71
912.9770, 53411.05
914.0990, 58017.72
915.2210, 61565.42
916.3440, 62703.31
917.4660, 62447.37
918.5870, 59727.27
919.7090, 54461.48
920.8310, 48672.41
921.9520, 42041.22
923.0730, 35562.55
924.1940, 29825.40
925.3150, 24961.84
926.4360, 20838.99
927.5560, 17463.32
928.6770, 14934.86
929.7970, 12699.36
930.9170, 11081.92
932.0370, 9380.503
933.1570, 8127.100
934.2760, 7165.713
935.3960, 6305.342
936.5150, 5611.986
937.6340, 4957.650
938.7530, 4338.328
939.8720, 3816.023
940.9910, 3343.734
942.1090, 3022.464
943.2280, 2691.214
944.3460, 2494.981
945.4640, 2214.766
946.5820, 1978.570
947.6990, 1894.392
948.8170, 1663.235
949.9340, 1572.100
951.0520, 1511.990
952.1690, 1377.908
953.2860, 1251.853
954.4030, 1180.818
955.5190, 1106.809
956.6360, 1041.826
957.7520, 995.6350
958.8680, 937.9583
959.9840, 933.0654
961.1000, 878.2039
962.2160, 884.3806
963.3310, 796.6064
964.4470, 871.9023
965.5620, 749.9246
966.6770, 731.3242
967.7920, 794.6763
968.9060, 734.3025
970.0210, 738.4280
971.1360, 758.3076
972.2500, 768.2783
973.3640, 752.8523
974.4780, 776.6616
975.5920, 739.2725
976.7050, 801.8955
977.8190, 723.4207
978.9320, 733.8428
980.0450, 736.6470
981.1580, 700.3174
982.2710, 652.3369
983.3840, 681.6523
984.4970, 628.4446
985.6090, 625.5288
986.7210, 603.5029
987.8330, 563.4463
988.9450, 551.5146
990.0570, 601.5957
991.1690, 541.9395
992.2800, 576.8003
993.3920, 563.0615
994.5030, 504.6304
995.6140, 550.7844
996.7250, 453.9080
997.8350, 482.9141
998.9460, 528.5073
1000.056, 508.4448
1001.167, 552.3401
1002.277, 597.1309
1003.387, 589.9561
1004.496, 553.0454
1005.606, 583.6011
1006.715, 592.3162
1007.825, 562.6885
1008.934, 614.8428
1010.043, 636.6982
1011.152, 689.2253
1012.260, 718.3584
1013.369, 747.2107
1014.477, 780.7361
1015.586, 804.8655
1016.694, 833.5828
1017.802, 860.3762
1018.909, 894.4065
1020.017, 1035.083
1021.124, 1024.295
1022.232, 1164.313
1023.339, 1341.537
1024.446, 1379.554
1025.553, 1372.577
1026.659, 1580.604
1027.766, 1596.636
1028.872, 1765.672
1029.979, 1955.712
1031.085, 2147.757
1032.191, 2329.804
1033.296, 2540.857
1034.402, 2789.913
1035.507, 2969.972
1036.613, 3046.033
1037.718, 3135.098
1038.823, 3340.166
1039.928, 3471.238
1041.032, 3384.312
1042.137, 3407.389
1043.241, 3254.470
1044.346, 3134.554
1045.450, 2900.643
1046.554, 2701.740
1047.657, 2432.842
1048.761, 2249.949
1049.864, 1932.061
1050.968, 1740.176
1052.071, 1506.295
1053.174, 1295.421
1054.277, 1152.557
1055.379, 1044.697
1056.482, 892.8386
1057.584, 786.9839
1058.687, 712.1318
1059.789, 607.2917
1060.891, 571.4536
1061.992, 482.6152
1063.094, 381.7773
1064.196, 337.9390
1065.297, 334.1113
1066.398, 357.2930
1067.499, 256.4790
1068.600, 261.6650
1069.701, 198.8501
1070.801, 229.0376
1071.902, 190.2239
1073.002, 119.4131
1074.102, 155.6008
1075.202, 156.7910
1076.302, 164.9844
1077.402, 127.1755
1078.501, 99.36475
1079.600, 139.5552
1080.700, 85.74243
1081.799, 61.92676
1082.898, 88.12158
1083.996, 104.3020
1085.095, 127.4797
1086.193, 62.65332
1087.292, 79.82617
1088.390, 42.99512
1089.488, 84.27563
1090.586, 19.47754
1091.683, 106.6602
1092.781, 54.85718
1093.878, 55.01562
1094.975, 16.18042
1096.073, 9.339600
1097.169, 31.48755
1098.266, 3.641846
1099.363, 25.76343
1100.459, 21.12158
1101.556, 12.02686
1102.652, 22.93628
1103.748, 6.868164
1104.844, 13.18604
1105.940, 49.76465
1107.035, 20.24658
1108.131, 25.24854
1109.226, 9.758789
1110.321, 70.78516
1111.416, 75.86304
1112.511, 43.00439
1113.605, 93.13794
1114.700, 1.344482
1115.794, 29.43164
1116.889, 4.354980
1117.983, 8.894531
1119.077, 11.83350
1120.170, 40.45166
1121.264, 39.77686
1122.357, 4.857666
1123.451, 50.52539
1124.544, 87.95557
1125.637, 3.547607
1126.730, 20.96899
1127.823, 67.51831
1128.915, 17.12500
1130.008, 25.76343
1131.100, 57.56152
1132.192, 45.12573
1133.284, 26.86060
1134.376, 58.63379
1135.467, 34.53784
1136.559, 5.304443
1137.650, 23.17480
1138.742, 19.91699
1139.833, 29.00806
1140.924, 9.025391
1142.014, 1.963379
1143.105, 5.020264
1144.195, 47.97925
1145.286, 24.07642
1146.376, 27.82764
1147.466, 2.285645
1148.556, 15.57153
1149.646, 84.40747
1150.735, 20.22949
1151.825, 45.03125
1152.914, 93.81714
1154.003, 46.58936
1155.092, 117.3455
1156.181, 123.0879
1157.270, 157.8162
1158.358, 135.5303
1159.447, 184.2302
1160.535, 202.9160
1161.623, 167.5876
1162.711, 197.2446
1163.799, 208.8872
1164.886, 230.5151
1165.974, 271.1284
1167.061, 179.7271
1168.148, 272.3110
1169.235, 176.8801
1170.322, 243.4343
1171.409, 190.9734
1172.496, 225.5859
1173.582, 225.1873
1174.669, 252.8604
1175.755, 242.5251
1176.841, 242.1826
1177.927, 237.6221
1179.012, 233.2996
1180.098, 209.8452
1181.183, 229.2466
1182.269, 213.6323
1183.354, 223.3286
1184.439, 224.7231
1185.524, 240.3267
1186.608, 220.6489
1187.693, 218.0959
1188.777, 209.4568
1189.862, 215.9199
1190.946, 211.8093
1192.030, 227.0500
1193.113, 229.3945
1194.197, 222.6021
1195.281, 232.4321
1196.364, 256.9543
1197.447, 182.2905
1198.530, 219.6584
1199.613, 207.8645
1200.696, 238.8486
1201.779, 245.9358
1202.861, 193.1270
1203.944, 144.3274
1205.026, 227.2888
1206.108, 194.5132
1207.190, 207.6077
1208.271, 169.7705
1209.353, 225.5327
1210.435, 158.5125
1211.516, 168.4392
1212.597, 140.9956
1213.678, 199.9724
1214.759, 175.9614
1215.840, 196.9028
1216.920, 238.4001
1218.001, 176.3613
1219.081, 118.2961
1220.161, 136.1924
1221.241, 140.1479
1222.321, 140.3162
1223.401, 149.1919
1224.480, 166.0269
1225.560, 159.7646
1226.639, 147.4607
1227.718, 155.4307
1228.797, 168.7378
1229.876, 175.6992
1230.955, 195.0332
1232.033, 192.4707
1233.112, 194.3857
1234.190, 217.5679
1235.268, 191.8928
1236.346, 185.0859
1237.424, 192.4810
1238.501, 208.8716
1239.579, 172.3748
1240.656, 220.9812
1241.733, 208.2041
1242.811, 195.5684
1243.888, 157.6619
1244.964, 191.4482
1246.041, 95.78760
1247.117, 178.7278
1248.194, 183.7842
1249.270, 248.8701
1250.346, 226.8269
1251.422, 182.7825
1252.498, 174.4563
1253.573, 260.6089
1254.649, 233.3572
1255.724, 251.7922
1256.800, 262.6379
1257.875, 251.1772
1258.950, 247.0928
1260.024, 236.8877
1261.099, 229.9316
1262.173, 193.0125
1263.248, 206.1926
1264.322, 202.3325
1265.396, 229.2034
1266.470, 190.6021
1267.544, 193.8357
1268.617, 208.4070
1269.691, 131.1902
1270.764, 211.2666
1271.837, 162.6655
1272.910, 141.4529
1273.983, 202.2397
1275.056, 172.1326
1276.129, 146.6821
1277.201, 179.8667
1278.273, 145.9685
1279.346, 139.8274
1280.418, 156.0337
1281.489, 85.69653
1282.561, 169.5486
1283.633, 122.1875
1284.704, 126.0269
1285.776, 142.8545
1286.847, 88.67139
1287.918, 123.4773
1288.989, 106.2722
1290.059, 87.05640
1291.130, 140.8293
1292.200, 110.5923
1293.271, 84.34448
1294.341, 77.08618
1295.411, 123.8176
1296.481, 73.53882
1297.551, 135.2505
1298.620, 123.9519
1299.690, 96.64355
1300.759, 48.32568
1301.828, 46.99756
1302.897, 25.78833
1303.966, 23.67529
1305.035, 21.95068
1306.103, 27.58105
1307.172, 50.20117
1308.240, 35.81250
1309.308, 108.4153
1310.376, 77.01416
1311.444, 22.60522
1312.512, 11.81348
1313.580, 89.74512
1314.647, 83.29492
1315.714, 29.83350
1316.781, 6.351807
1317.848, 28.14087
1318.915, 27.33496
1319.982, 81.78540
1321.049, 32.22534
1322.115, 66.65186
1323.181, 32.93652
1324.248, 28.55591
1325.314, 10.19556
1326.380, 9.146484
1327.445, 37.47559
1328.511, 6.205566
1329.576, 66.09717
1330.642, 10.61011
1331.707, 19.66724
1332.772, 8.078613
1333.837, 12.85278
1334.902, 30.35864
1335.966, 9.560547
1337.031, 7.260010
1338.095, 42.90723
1339.159, 68.06152
1340.223, 5.792480
1341.287, 28.33154
1342.351, 20.45825
1343.415, 26.57642
1344.478, 7.314453
1345.541, 11.78418
1346.605, 12.87476
1347.668, 16.84204
1348.731, 0.8757320
1349.793, 37.08350
1350.856, 5.069092
1351.918, 45.02881
1352.981, 23.99243
1354.043, 20.00684
1355.105, 20.99414
1356.167, 48.00366
1357.229, 6.007324
1358.290, 40.00391
1359.352, 42.99902
1360.413, 57.98438
1361.475, 32.96924
1362.536, 17.04883
1363.597, 60.92334
1364.657, 67.90479
1365.718, 74.88062
1366.779, 87.85107
1367.839, 64.82104
1368.899, 93.80615
1369.959, 103.8091
1371.019, 8.806152
1372.079, 9.825439
1373.139, 1.842529
1374.198, 86.69678
1375.258, 41.70557
1376.317, 27.71509
1377.376, 78.72070
1378.435, 19.73584
1379.494, 51.83081
1380.553, 73.78418
1381.611, 72.82153
1382.670, 74.88257
1383.728, 83.94434
1384.786, 130.0129
1385.844, 87.10132
1386.902, 31.19678
1387.960, 72.30225
1389.017, 152.4060
1390.075, 92.52588
1391.132, 115.6575
1392.189, 97.80908
1393.246, 64.96045
1394.303, 156.1187
1395.360, 134.2888
1396.417, 99.46069
1397.473, 102.6467
1398.529, 78.83740
1399.585, 73.61646
1400.642, 137.2395
1401.697, 90.44507
1402.753, 90.66528
1403.809, 150.8884
1404.864, 71.12134
1405.920, 201.3596
1406.975, 86.60059
1408.030, 140.8472
1409.085, 201.0981
1410.140, 129.3523
1411.194, 159.6118
1412.249, 130.8755
1413.303, 89.14478
1414.358, 169.4194
1415.412, 181.7002
1416.466, 155.9878
1417.520, 188.2827
1418.573, 165.5859
1419.627, 141.8979
1420.680, 155.2195
1421.733, 183.5515
1422.787, 235.8950
1423.840, 194.2507
1424.892, 224.6208
1425.945, 145.0056
1426.998, 186.4070
1428.050, 229.7383
1429.103, 221.0857
1430.155, 273.3679
1431.207, 200.6680
1432.259, 249.9875
1433.310, 262.3657
1434.362, 178.9392
1435.414, 272.5071
1436.465, 251.0295
1437.516, 241.7373
1438.567, 244.0071
1439.618, 285.7566
1440.669, 272.1714
1441.720, 200.0999
1442.770, 232.8818
1443.820, 272.1382
1444.871, 180.7620
1445.921, 238.3999
1446.971, 232.3875
1448.021, 247.7612
1449.070, 262.6953
1450.120, 215.6614
1451.169, 287.6304
1452.219, 274.9766
1453.268, 322.5161
1454.317, 294.5474
1455.366, 260.9512
1456.414, 304.8835
1457.463, 292.7773
1458.511, 278.7073
1459.560, 312.4246
1460.608, 304.4277
1461.656, 177.4658
1462.704, 335.4790
1463.752, 269.6428
1464.799, 233.6846
1465.847, 358.8538
1466.894, 296.0273
1467.941, 277.2043
1468.988, 218.1836
1470.035, 282.2290
1471.082, 249.4148
1472.129, 226.5845
1473.175, 313.7771
1474.222, 263.9727
1475.268, 257.1709
1476.314, 255.3713
1477.360, 225.5732
1478.406, 334.7769
1479.452, 271.9812
1480.498, 184.1863
1481.543, 281.3909
1482.588, 331.5952
1483.633, 321.7988
1484.679, 256.0012
1485.723, 271.2017
1486.768, 306.3999
1487.813, 328.5957
1488.857, 281.7886
1489.902, 287.9780
1490.946, 317.1641
1491.990, 238.3452
1493.034, 284.5212
1494.078, 201.6912
1495.122, 274.8530
1496.165, 247.0068
1497.209, 206.1523
1498.252, 300.2910
1499.295, 236.4209
1500.338, 202.5352
1501.381, 234.6140
1502.424, 290.6926
1503.466, 193.7776
1504.509, 248.9036
1505.551, 251.1062
1506.593, 206.3545
1507.635, 244.6599
1508.677, 227.0044
1509.719, 213.3792
1510.761, 137.7815
1511.802, 150.2354
1512.844, 206.8086
1513.885, 172.4358
1514.926, 210.1289
1515.967, 197.8562
1517.008, 166.6084
1518.049, 230.3904
1519.089, 215.1980
1520.130, 182.0322
1521.170, 167.8950
1522.210, 156.6201
1523.250, 153.7136
1524.290, 146.6741
1525.330, 167.6724
1526.370, 175.7117
1527.409, 158.7957
1528.448, 134.9287
1529.488, 212.1160
1530.527, 200.3635
1531.566, 219.6775
1532.605, 120.0659
1533.643, 147.5396
1534.682, 47.10669
1535.720, 13.76978
1536.759, 120.5305
1537.797, 66.39380
1538.835, 102.3643
1539.873, 75.43994
1540.910, 157.6257
1541.948, 77.93164
1542.986, 76.36890
1544.023, 88.95068
1545.060, 45.69189
1546.097, 50.61011
1547.134, 62.72437
1548.171, 48.05566
1549.208, 64.62695
1550.244, 70.46240
1551.281, 34.59033
1552.317, 53.04565
1553.353, 119.8745
1554.389, 73.13501
1555.425, 87.89648
1556.461, 94.24683
1557.497, 37.29663
1558.532, 23.19458
1559.567, 28.14600
1560.603, 3.561523
1561.638, 68.41870
1562.673, 43.32837
1563.708, 0.0000000E+00
##END=



