##NAMES=Amblygonite
##RRUFFID=R040006
##IDEAL CHEMISTRY=LiAlPO_4_F
##LOCALITY=Pala, San Diego County, California, USA
##OWNER=RRUFF
##SOURCE=University of Arizona Mineral Museum
##DESCRIPTION=Light gray coarsely crystalline massive
##STATUS=The identification of this mineral has been confirmed by X-ray diffraction and chemical analysis
##URL=rruff.info/R040006
##MEASURED CHEMISTRY=LiAl_1.00_(P_1.00_O_4_)(F_0.73_(OH)_0.27_)_Î£=1_; Li assumed by stoichiometry; OH estimated by charge balance
##PIN_ID=l00112
##ORIENTATION=Laser parallel to (1 1 0). Fiducial mark perpendicular to laser is parallel to c [0 0 1]
120.347, 0.000
121.738, 4.336
123.129, 154.744
124.519, 351.706
125.910, 589.011
127.300, 838.303
128.690, 1128.626
130.080, 1377.277
131.469, 1352.129
132.858, 1201.611
134.248, 1235.203
135.636, 952.431
137.025, 732.885
138.413, 695.830
139.801, 660.486
141.189, 486.322
142.577, 522.972
143.964, 530.185
145.352, 578.318
146.739, 579.825
148.125, 657.189
149.512, 697.037
150.898, 822.305
152.284, 869.508
153.670, 977.048
155.056, 843.657
156.441, 959.325
157.827, 834.113
159.212, 968.125
160.596, 961.451
161.981, 1004.167
163.365, 896.341
164.749, 948.029
166.133, 949.293
167.517, 800.179
168.900, 730.734
170.283, 739.285
171.666, 705.691
173.049, 655.018
174.431, 725.483
175.813, 805.480
177.195, 819.722
178.577, 936.722
179.959, 958.009
181.340, 1042.790
182.721, 1128.357
184.102, 1190.545
185.483, 1282.613
186.863, 1307.564
188.244, 1441.014
189.624, 1476.811
191.003, 1560.428
192.383, 1555.049
193.762, 1503.949
195.141, 1501.818
196.520, 1325.771
197.899, 1279.793
199.277, 1173.887
200.656, 828.045
202.034, 822.267
203.411, 576.534
204.789, 430.843
206.166, 155.229
207.543, 299.714
208.920, 74.303
210.297, 108.999
211.673, 63.797
213.049, 38.696
214.425, 73.694
215.801, 33.655
217.176, 83.965
218.552, 29.228
219.927, 85.434
221.302, 50.024
222.676, 95.629
224.051, 109.014
225.425, 73.420
226.799, 57.772
228.173, 7.923
229.546, 66.341
230.919, 39.429
232.292, 4.773
233.665, 78.954
235.038, 46.881
236.410, 57.274
237.782, 61.422
239.154, 15.560
240.526, 29.688
241.898, 193.802
243.269, 137.900
244.640, 41.876
246.011, 155.767
247.381, 100.424
248.752, 43.362
250.122, 57.095
251.492, 10.749
252.861, 4.371
254.231, 51.953
255.600, 68.160
256.969, 5.689
258.338, 40.431
259.707, 66.616
261.075, 222.771
262.443, 128.919
263.811, 135.039
265.179, 291.041
266.546, 466.977
267.914, 512.881
269.281, 568.820
270.647, 824.770
272.014, 820.721
273.380, 796.688
274.747, 852.661
276.113, 812.101
277.478, 864.626
278.844, 780.616
280.209, 816.610
281.574, 822.610
282.939, 868.613
284.304, 1024.619
285.668, 949.414
287.032, 1215.232
288.396, 1431.660
289.760, 1788.506
291.123, 2005.653
292.487, 2753.029
293.850, 3540.580
295.212, 4328.267
296.575, 5856.289
297.937, 7384.162
299.300, 9462.099
300.662, 11010.082
302.023, 12398.095
303.385, 12786.123
304.746, 12074.162
306.107, 10952.206
307.468, 9450.250
308.829, 8208.289
310.189, 7196.320
311.549, 6464.329
312.909, 5692.305
314.269, 5200.247
315.629, 4538.147
316.988, 4285.996
318.347, 3773.793
319.706, 3421.542
321.065, 2879.246
322.423, 2476.912
323.781, 2424.539
325.139, 1862.135
326.497, 1759.695
327.855, 1607.229
329.212, 1564.736
330.569, 1352.217
331.926, 1229.675
333.283, 1167.110
334.639, 954.442
335.995, 941.618
337.351, 1008.615
338.707, 795.541
340.063, 902.401
341.418, 719.176
342.773, 675.896
344.128, 662.541
345.483, 629.014
346.837, 575.352
348.192, 621.584
349.546, 437.743
350.899, 553.883
352.253, 550.031
353.606, 456.176
354.960, 502.325
356.313, 618.507
357.665, 454.670
359.018, 490.839
360.370, 597.405
361.722, 474.084
363.074, 560.585
364.426, 426.772
365.777, 326.281
367.128, 515.543
368.479, 552.158
369.830, 448.759
371.181, 600.907
372.531, 428.085
373.881, 494.598
375.231, 582.891
376.581, 449.632
377.930, 372.281
379.280, 479.321
380.629, 321.386
381.977, 417.916
383.326, 413.730
384.674, 387.736
386.023, 389.624
387.370, 239.135
388.718, 361.435
390.066, 394.195
391.413, 180.456
392.760, 372.847
394.107, 300.928
395.454, 324.139
396.800, 456.869
398.146, 243.509
399.492, 276.279
400.838, 484.150
402.184, 359.130
403.529, 368.319
404.874, 473.975
406.219, 322.067
407.564, 540.778
408.908, 448.160
410.252, 614.477
411.596, 498.820
412.940, 771.320
414.284, 923.065
415.627, 1318.683
416.970, 1685.601
418.313, 2241.764
419.656, 3176.969
420.999, 4414.880
422.341, 6541.039
423.683, 9027.375
425.025, 11383.577
426.367, 12809.765
427.708, 11905.963
429.049, 9612.163
430.390, 6908.352
431.731, 4894.531
433.072, 3370.697
434.412, 2416.853
435.752, 1672.996
437.092, 1369.127
438.432, 1195.246
439.772, 781.354
441.111, 487.446
442.450, 763.530
443.789, 549.624
445.127, 395.726
446.466, 361.812
447.804, 387.902
449.142, 203.980
450.480, 380.062
451.817, 176.131
453.155, 332.178
454.492, 338.236
455.829, 264.271
457.166, 100.289
458.502, 226.299
459.838, 302.285
461.175, 398.246
462.510, 344.193
463.846, 470.113
465.181, 296.021
466.517, 551.906
467.852, 457.764
469.186, 693.600
470.521, 799.408
471.855, 965.193
473.190, 920.953
474.523, 1166.689
475.857, 1232.396
477.191, 1508.080
478.524, 1733.738
479.857, 1889.369
481.190, 2014.977
482.523, 2100.559
483.855, 2116.115
485.187, 2101.646
486.519, 1957.152
487.851, 2422.633
489.183, 2008.090
490.514, 1853.520
491.845, 2058.922
493.176, 1614.305
494.507, 1569.656
495.837, 1634.984
497.168, 1270.289
498.498, 1315.570
499.828, 1220.826
501.157, 1136.059
502.487, 1031.268
503.816, 916.455
505.145, 791.619
506.474, 716.758
507.802, 661.877
509.131, 546.973
510.459, 562.049
511.787, 407.104
513.115, 362.135
514.442, 347.145
515.770, 202.133
517.097, 287.098
518.424, 402.041
519.750, 116.961
521.077, 101.855
522.403, 136.721
523.729, 331.561
525.055, 13.623
526.381, 168.852
527.706, 115.785
529.031, 120.393
530.356, 55.025
531.681, 59.496
533.006, 143.967
534.330, 8.586
535.654, 102.988
536.978, 62.605
538.302, 71.844
539.625, 53.188
540.949, 141.395
542.272, 42.270
543.595, 42.033
544.917, 16.689
546.240, 141.410
547.562, 66.664
548.884, 114.445
550.206, 116.975
551.527, 102.617
552.849, 19.297
554.170, 85.359
555.491, 28.639
556.812, 122.553
558.132, 126.436
559.453, 49.682
560.773, 154.143
562.093, 41.844
563.412, 23.107
564.732, 87.066
566.051, 40.756
567.370, 62.939
568.689, 211.604
570.008, 65.510
571.326, 211.729
572.644, 55.203
573.963, 178.457
575.280, 112.127
576.598, 288.537
577.915, 342.176
579.233, 52.328
580.550, 375.715
581.866, 234.051
583.183, 427.414
584.499, 340.705
585.815, 398.414
587.131, 454.238
588.447, 537.797
589.763, 561.068
591.078, 624.209
592.393, 707.318
593.708, 780.396
595.022, 1173.441
596.337, 1576.451
597.651, 1829.666
598.965, 2492.717
600.279, 2815.852
601.593, 3714.252
602.906, 4211.414
604.219, 3824.225
605.532, 3368.916
606.845, 2991.902
608.158, 2489.152
609.470, 2184.486
610.782, 1644.576
612.094, 1603.791
613.406, 1366.389
614.718, 1179.629
616.029, 1165.469
617.340, 1367.959
618.651, 1310.418
619.962, 1304.121
621.272, 1646.545
622.582, 1571.549
623.892, 1733.865
625.202, 1776.299
626.512, 2118.543
627.821, 2460.902
629.131, 2593.219
630.440, 3045.357
631.749, 3507.463
633.057, 3679.531
634.366, 4051.566
635.674, 4343.564
636.982, 4995.527
638.290, 5967.455
639.597, 7529.352
640.905, 9951.215
642.212, 12913.041
643.519, 16454.830
644.825, 20316.588
646.132, 21728.312
647.438, 21379.994
648.744, 18391.650
650.050, 14813.266
651.356, 11334.852
652.662, 8276.396
653.967, 6617.910
655.272, 4899.391
656.577, 4130.836
657.882, 3102.246
659.186, 2593.621
660.490, 2214.965
661.794, 1976.273
663.098, 1653.127
664.402, 1398.785
665.705, 1249.990
667.009, 1141.164
668.312, 1032.301
669.614, 1003.406
670.917, 844.477
672.219, 725.514
673.522, 546.492
674.824, 467.051
676.125, 416.316
677.427, 338.906
678.728, 389.275
680.030, 419.793
681.331, 430.598
682.631, 329.781
683.932, 507.447
685.232, 307.734
686.532, 338.006
687.832, 252.793
689.132, 362.420
690.432, 212.686
691.731, 331.137
693.030, 241.109
694.329, 205.139
695.628, 104.744
696.926, 139.287
698.224, 38.312
699.522, 206.672
700.820, 125.660
702.118, 114.033
703.415, 73.912
704.713, 123.152
706.010, 52.107
707.307, 52.451
708.603, 21.914
709.900, 60.037
711.196, 202.984
712.492, 231.254
713.788, 250.701
715.083, 235.250
716.379, 227.646
717.674, 157.135
718.969, 51.615
720.264, 149.529
721.558, 80.176
722.853, 303.977
724.147, 27.605
725.441, 131.766
726.735, 10.059
728.028, 99.131
729.322, 153.424
730.615, 142.393
731.908, 0.914
733.201, 130.143
734.493, 60.658
735.785, 326.717
737.078, 34.195
738.370, 115.340
739.661, 283.566
740.953, 27.551
742.244, 1.266
743.535, 70.033
744.826, 131.523
746.117, 170.238
747.407, 195.859
748.698, 203.363
749.988, 166.254
751.278, 204.871
752.567, 83.465
753.857, 112.035
755.146, 80.578
756.435, 50.902
757.724, 32.457
759.013, 235.932
760.301, 4.295
761.590, 62.619
762.878, 39.080
764.165, 229.158
765.453, 87.371
766.741, 74.434
768.028, 280.025
769.315, 28.119
770.602, 23.818
771.888, 224.195
773.175, 152.188
774.461, 10.162
775.747, 88.102
777.033, 13.979
778.319, 233.896
779.604, 51.752
780.889, 349.590
782.174, 47.406
783.459, 45.205
784.744, 82.984
786.028, 420.746
787.312, 338.488
788.596, 266.217
789.880, 243.928
791.164, 251.623
792.447, 369.299
793.730, 467.488
795.013, 595.135
796.296, 542.766
797.579, 470.381
798.861, 587.982
800.143, 555.570
801.425, 483.145
802.707, 720.703
803.989, 588.248
805.270, 955.781
806.551, 773.301
807.832, 820.807
809.113, 628.305
810.394, 765.785
811.674, 643.256
812.954, 610.715
814.234, 698.160
815.514, 665.561
816.794, 553.025
818.073, 750.439
819.352, 817.846
820.631, 865.240
821.910, 432.625
823.189, 560.002
824.467, 507.369
825.745, 374.727
827.023, 472.076
828.301, 349.414
829.578, 416.746
830.856, 364.070
832.133, 361.389
833.410, 178.701
834.687, 196.008
835.963, 36.691
837.240, 380.602
838.516, 177.945
839.792, 235.283
841.068, 2.617
842.343, 279.955
843.618, 117.305
844.894, 204.482
846.169, 261.836
847.443, 259.150
848.718, 56.373
849.992, 253.047
851.266, 169.951
852.540, 74.766
853.814, 52.410
855.088, 29.219
856.361, 265.949
857.634, 92.150
858.907, 58.988
860.180, 264.725
861.453, 270.492
862.725, 265.213
863.997, 28.768
865.269, 118.541
866.541, 205.930
867.812, 86.682
869.084, 160.682
870.355, 248.070
871.626, 255.246
872.897, 171.449
874.167, 41.330
875.438, 267.670
876.708, 65.127
877.978, 357.629
879.248, 64.861
880.517, 50.234
881.787, 317.809
883.056, 25.209
884.325, 132.586
885.594, 107.189
886.862, 124.547
888.130, 175.369
889.399, 62.928
890.667, 5.516
891.934, 43.055
893.202, 100.643
894.469, 283.793
895.737, 198.803
897.004, 93.941
898.270, 263.570
899.537, 1.189
900.803, 108.822
902.070, 126.465
903.336, 104.125
904.601, 181.793
905.867, 279.246
907.132, 16.838
908.398, 224.324
909.663, 66.531
910.928, 239.957
912.192, 347.717
913.457, 63.576
914.721, 341.121
915.985, 144.391
917.249, 222.215
918.512, 29.953
919.776, 188.797
921.039, 209.029
922.302, 126.197
923.565, 270.518
924.827, 138.404
926.090, 266.309
927.352, 102.951
928.614, 50.859
929.876, 26.174
931.138, 314.166
932.399, 92.025
933.660, 170.064
934.922, 67.979
936.182, 375.920
937.443, 144.035
938.704, 212.178
939.964, 340.344
941.224, 138.537
942.484, 226.754
943.744, 345.029
945.003, 36.672
946.262, 161.650
947.521, 340.000
948.780, 218.381
950.039, 286.787
951.298, 435.225
952.556, 213.691
953.814, 462.189
955.072, 200.713
956.330, 559.262
957.587, 487.840
958.845, 436.445
960.102, 445.080
961.359, 483.742
962.615, 472.424
963.872, 731.127
965.128, 269.850
966.384, 878.594
967.640, 277.363
968.896, 666.150
970.152, 874.963
971.407, 503.797
972.662, 952.656
973.917, 701.535
975.172, 760.439
976.427, 929.367
977.681, 778.322
978.935, 1057.299
980.189, 1266.305
981.443, 1115.332
982.697, 1394.389
983.950, 1753.469
985.203, 1672.576
986.456, 2281.711
987.709, 2139.143
988.962, 2758.334
990.214, 3067.553
991.467, 3186.801
992.719, 4195.984
993.971, 4715.289
995.222, 5354.625
996.474, 6493.988
997.725, 6993.385
998.976, 8524.215
1000.227, 9513.676
1001.478, 10803.168
1002.728, 12904.551
1003.978, 14190.887
1005.229, 16270.484
1006.479, 17350.119
1007.728, 18889.791
1008.978, 20730.104
1010.227, 20869.848
1011.476, 21739.633
1012.725, 20849.529
1013.974, 19549.400
1015.223, 19218.330
1016.471, 16809.508
1017.719, 15379.496
1018.967, 13696.064
1020.215, 11986.125
1021.462, 10986.219
1022.710, 9586.352
1023.957, 8546.527
1025.204, 8195.391
1026.451, 7077.309
1027.697, 6877.633
1028.944, 6588.016
1030.190, 6278.438
1031.436, 6337.383
1032.682, 6367.934
1033.928, 6688.521
1035.173, 7339.148
1036.418, 7199.826
1037.663, 8180.543
1038.908, 8091.332
1040.153, 8792.158
1041.398, 9293.047
1042.642, 9834.020
1043.886, 10175.033
1045.130, 10406.113
1046.374, 10467.242
1047.617, 10905.672
1048.860, 11146.891
1050.104, 11258.141
1051.347, 11679.451
1052.589, 11770.812
1053.832, 12772.215
1055.074, 13193.648
1056.316, 14355.129
1057.558, 16216.648
1058.800, 17738.213
1060.042, 18859.848
1061.283, 21121.553
1062.524, 21553.301
1063.765, 21965.094
1065.006, 19996.939
1066.247, 17638.855
1067.487, 15640.824
1068.728, 12212.824
1069.968, 10388.555
1071.208, 8430.684
1072.447, 7052.879
1073.687, 6005.143
1074.926, 4817.463
1076.165, 4199.840
1077.404, 3932.285
1078.643, 3004.789
1079.881, 3027.365
1081.120, 2700.006
1082.358, 2172.711
1083.596, 2195.480
1084.834, 1778.316
1086.071, 1772.879
1087.309, 1785.857
1088.546, 1378.908
1089.783, 1712.037
1091.020, 1195.246
1092.256, 1055.264
1093.493, 1188.641
1094.729, 1261.576
1095.965, 1085.135
1097.201, 898.789
1098.436, 752.627
1099.672, 716.693
1100.907, 740.232
1102.142, 643.658
1103.377, 907.088
1104.612, 760.467
1105.846, 1003.746
1107.081, 1367.188
1108.315, 1250.402
1109.549, 1223.418
1110.782, 1085.242
1112.016, 1127.125
1113.249, 1379.062
1114.483, 1271.057
1115.716, 1313.105
1116.948, 1285.213
1118.181, 1187.379
1119.413, 1519.604
1120.646, 1501.887
1121.878, 1314.232
1123.110, 1436.646
1124.341, 1339.131
1125.573, 1571.680
1126.804, 1284.293
1128.035, 896.969
1129.266, 1499.691
1130.497, 972.518
1131.727, 1175.488
1132.957, 858.523
1134.188, 601.617
1135.418, 1004.779
1136.647, 958.016
1137.877, 391.309
1139.106, 1104.713
1140.335, 408.184
1141.564, 871.732
1142.793, 415.338
1144.022, 159.016
1145.250, 872.779
1146.479, 73.391
1147.707, 660.514
1148.934, 534.484
1150.162, 51.479
1151.390, 222.627
1152.617, 296.818
1153.844, 241.098
1155.071, 375.443
1156.298, 40.148
1157.524, 194.332
1158.751, 388.881
1159.977, 6.504
1161.203, 98.178
1162.428, 562.924
1163.654, 62.221
1164.879, 482.748
1166.105, 27.777
1167.330, 202.879
1168.555, 388.043
1169.779, 33.266
1171.004, 338.551
1172.228, 593.863
1173.452, 70.770
1174.676, 464.602
1175.900, 259.969
1177.123, 315.387
1178.346, 480.840
1179.570, 386.332
1180.793, 591.875
1182.015, 527.477
1183.238, 493.137
1184.460, 768.902
1185.683, 474.793
1186.905, 850.812
1188.126, 726.961
1189.348, 863.242
1190.569, 959.648
1191.791, 1076.191
1193.012, 632.871
1194.233, 919.691
1195.453, 856.645
1196.674, 793.738
1197.894, 910.977
1199.114, 918.355
1200.334, 765.883
1201.554, 699.777
1202.774, 447.516
1203.993, 1273.039
1205.212, 691.016
1206.431, 597.367
1207.650, 1005.609
1208.869, 463.809
1210.087, 468.449
1211.305, 557.066
1212.524, 185.840
1213.741, 704.781
1214.959, 328.082
1216.177, 187.207
1217.394, 526.527
1218.611, 406.047
1219.828, 535.785
1221.045, 305.750
1222.261, 375.945
1223.478, 416.375
1224.694, 197.039
1225.910, 337.953
1227.126, 169.109
1228.342, 240.520
1229.557, 512.379
1230.772, 274.668
1231.987, 12.621
1233.202, 670.578
1234.417, 484.301
1235.631, 78.656
1236.846, 613.734
1238.060, 70.594
1239.274, 665.730
1240.488, 382.781
1241.701, 180.652
1242.915, 619.457
1244.128, 108.480
1245.341, 547.023
1246.554, 454.203
1247.767, 1002.031
1248.979, 279.191
1250.191, 143.395
1251.403, 45.664
1252.615, 3.109
1253.827, 21.699
1255.039, 0.000
##END=



