##NAMES=Amblygonite
##RRUFFID=R040006
##IDEAL CHEMISTRY=LiAlPO_4_F
##LOCALITY=Pala, San Diego County, California, USA
##OWNER=RRUFF
##SOURCE=University of Arizona Mineral Museum
##DESCRIPTION=Light gray coarsely crystalline massive
##STATUS=The identification of this mineral has been confirmed by X-ray diffraction and chemical analysis
##URL=rruff.info/R040006
##MEASURED CHEMISTRY=LiAl_1.00_(P_1.00_O_4_)(F_0.73_(OH)_0.27_)_Î£=1_; Li assumed by stoichiometry; OH estimated by charge balance
##PIN_ID=l00485
##ORIENTATION=Laser parallel to -a* (-1 0 0). Fiducial mark perpendicular to laser is parallel to -b [0 -1 0]
110.603, 0.000
111.996, 9.890
113.388, 297.618
114.780, 364.143
116.172, 563.523
117.564, 767.468
118.956, 1240.163
120.347, 1626.059
121.738, 2032.465
123.129, 2715.438
124.519, 3453.788
125.910, 4126.847
127.300, 4834.153
128.690, 5254.979
130.080, 5398.425
131.469, 5443.812
132.858, 4900.654
134.248, 4388.906
135.636, 3648.688
137.025, 2800.090
138.413, 2392.618
139.801, 1957.809
141.189, 1535.037
142.577, 1199.146
143.964, 923.402
145.352, 928.863
146.739, 567.612
148.125, 614.700
149.512, 466.111
150.898, 408.931
152.284, 334.230
153.670, 369.065
155.056, 293.491
156.441, 264.560
157.827, 244.775
159.212, 321.482
160.596, 321.654
161.981, 425.737
163.365, 436.754
164.749, 520.909
166.133, 557.161
167.517, 546.201
168.900, 544.025
170.283, 681.451
171.666, 614.818
173.049, 593.240
174.431, 627.215
175.813, 536.200
177.195, 541.067
178.577, 506.983
179.959, 475.446
181.340, 452.888
182.721, 466.230
184.102, 435.847
185.483, 295.383
186.863, 427.028
188.244, 462.779
189.624, 306.634
191.003, 255.588
192.383, 252.642
193.762, 195.764
195.141, 204.899
196.520, 126.109
197.899, 188.418
199.277, 101.842
200.656, 117.387
202.034, 83.056
203.411, 3.848
204.789, 20.241
206.166, 17.790
207.543, 38.935
208.920, 30.810
210.297, 14.452
211.673, 27.995
213.049, 2.555
214.425, 4.808
215.801, 6.324
217.176, 4.081
218.552, 11.409
219.927, 23.463
221.302, 16.453
222.676, 36.385
224.051, 150.268
225.425, 128.108
226.799, 55.911
228.173, 106.682
229.546, 36.420
230.919, 109.125
232.292, 11.801
233.665, 129.445
235.038, 78.056
236.410, 155.636
237.782, 4.815
239.154, 93.702
240.526, 16.210
241.898, 150.701
243.269, 50.191
244.640, 64.315
246.011, 65.095
247.381, 21.522
248.752, 17.831
250.122, 0.184
251.492, 48.396
252.861, 137.943
254.231, 72.444
255.600, 38.881
256.969, 10.704
258.338, 106.772
259.707, 103.223
261.075, 61.688
262.443, 148.170
263.811, 142.701
265.179, 308.300
266.546, 340.935
267.914, 343.609
269.281, 396.320
270.647, 437.994
272.014, 591.842
273.380, 584.650
274.747, 777.489
276.113, 937.472
277.478, 1058.223
278.844, 1190.096
280.209, 1332.570
281.574, 1615.498
282.939, 1838.779
284.304, 2222.340
285.668, 2556.129
287.032, 3120.104
288.396, 3654.229
289.760, 4338.481
291.123, 5192.838
292.487, 6367.277
293.850, 7981.783
295.212, 9536.344
296.575, 11880.949
297.937, 14455.590
299.300, 17490.266
300.662, 19874.961
302.023, 21899.672
303.385, 22794.387
304.746, 22459.105
306.107, 21463.812
307.468, 19998.498
308.829, 18353.152
310.189, 16847.785
311.549, 15492.396
312.909, 14096.979
314.269, 12431.551
315.629, 10856.104
316.988, 9540.646
318.347, 8095.177
319.706, 7179.698
321.065, 6204.212
322.423, 5788.678
323.781, 5403.135
325.139, 4957.529
326.497, 4771.879
327.855, 4466.198
329.212, 4280.488
330.569, 4014.732
331.926, 3758.842
333.283, 3582.824
334.639, 3326.713
335.995, 3170.524
337.351, 3114.213
338.707, 2717.813
340.063, 2771.356
341.418, 2504.793
342.773, 2578.211
344.128, 2351.636
345.483, 2365.077
346.837, 2248.540
348.192, 2252.017
349.546, 2275.514
350.899, 2369.032
352.253, 2332.572
353.606, 2266.133
354.960, 2319.715
356.313, 2493.316
357.665, 2436.938
359.018, 2480.579
360.370, 2484.242
361.722, 2517.920
363.074, 2611.618
364.426, 2665.332
365.777, 2659.064
367.128, 2772.170
368.479, 2654.133
369.830, 2757.774
371.181, 2581.566
372.531, 2683.118
373.881, 2536.264
375.231, 2447.994
376.581, 2191.252
377.930, 2080.914
379.280, 2014.201
380.629, 1939.005
381.977, 1781.684
383.326, 1596.908
384.674, 1459.827
386.023, 1365.179
387.370, 1281.674
388.718, 1098.883
390.066, 1095.027
391.413, 962.811
392.760, 994.366
394.107, 772.732
395.454, 895.566
396.800, 812.186
398.146, 682.962
399.492, 628.137
400.838, 621.756
402.184, 540.412
403.529, 502.539
404.874, 578.111
406.219, 339.374
407.564, 414.530
408.908, 475.312
410.252, 439.890
411.596, 283.362
412.940, 317.141
414.284, 346.561
415.627, 360.832
416.970, 376.647
418.313, 370.968
419.656, 494.331
420.999, 610.037
422.341, 794.420
423.683, 1069.008
425.025, 1213.408
426.367, 1467.814
427.708, 1352.236
429.049, 1266.673
430.390, 871.124
431.731, 785.583
433.072, 620.046
434.412, 574.514
435.752, 388.986
437.092, 403.463
438.432, 437.960
439.772, 322.472
441.111, 237.006
442.450, 246.469
443.789, 202.756
445.127, 210.740
446.466, 205.335
447.804, 169.930
449.142, 144.522
450.480, 164.677
451.817, 113.747
453.155, 208.354
454.492, 212.978
455.829, 237.597
457.166, 132.211
458.502, 66.867
459.838, 301.518
461.175, 406.192
462.510, 210.876
463.846, 135.552
465.181, 170.222
466.517, 264.885
467.852, 119.567
469.186, 164.241
470.521, 198.910
471.855, 273.573
473.190, 388.229
474.523, 272.879
475.857, 207.523
477.191, 342.160
478.524, 316.791
479.857, 341.415
481.190, 406.033
482.523, 420.645
483.855, 395.248
485.187, 529.847
486.519, 344.438
487.851, 719.025
489.183, 563.604
490.514, 578.180
491.845, 682.748
493.176, 557.311
494.507, 631.870
495.837, 716.423
497.168, 710.973
498.498, 875.520
499.828, 890.061
501.157, 724.599
502.487, 729.135
503.816, 793.668
505.145, 798.199
506.474, 642.726
507.802, 617.249
509.131, 521.770
510.459, 536.286
511.787, 500.800
513.115, 325.308
514.442, 319.812
515.770, 334.312
517.097, 178.808
518.424, 343.298
519.750, 47.784
521.077, 172.265
522.403, 76.739
523.729, 311.209
525.055, 75.673
526.381, 150.131
527.706, 244.586
529.031, 159.044
530.356, 93.498
531.681, 47.944
533.006, 2.396
534.330, 66.838
535.654, 101.284
536.978, 94.274
538.302, 20.106
539.625, 15.041
540.949, 229.319
542.272, 36.056
543.595, 18.290
544.917, 47.370
546.240, 3.053
547.562, 11.272
548.884, 74.384
550.206, 129.918
551.527, 64.237
552.849, 10.456
554.170, 145.683
555.491, 321.388
556.812, 4.246
558.132, 90.118
559.453, 135.898
560.773, 108.401
562.093, 127.285
563.412, 113.012
564.732, 57.268
566.051, 18.568
567.370, 42.804
568.689, 51.371
570.008, 35.594
571.326, 79.803
572.644, 48.266
573.963, 175.882
575.280, 15.798
576.598, 191.896
577.915, 205.989
579.233, 29.943
580.550, 304.001
581.866, 88.325
583.183, 212.598
584.499, 166.620
585.815, 123.028
587.131, 288.219
588.447, 184.358
589.763, 268.714
591.078, 292.688
592.393, 406.646
593.708, 410.589
595.022, 424.516
596.337, 638.542
597.651, 562.687
598.965, 698.927
600.279, 858.178
601.593, 984.166
602.906, 1091.284
604.219, 895.098
605.532, 1068.892
606.845, 912.668
608.158, 791.810
609.470, 825.550
610.782, 759.272
612.094, 887.429
613.406, 811.117
614.718, 814.785
616.029, 1019.496
617.340, 943.127
618.651, 1123.847
619.962, 1180.062
621.272, 1353.635
622.582, 1607.188
623.892, 1770.723
625.202, 1979.642
626.512, 2193.135
627.821, 2656.607
629.131, 2980.061
630.440, 3593.493
631.749, 4096.904
633.057, 4240.295
634.366, 4823.670
635.674, 5247.021
636.982, 5950.354
638.290, 6883.663
639.597, 8376.955
640.905, 10830.224
642.212, 13923.474
643.519, 17276.701
644.825, 21239.916
646.132, 22853.104
647.438, 22686.273
648.744, 20419.420
650.050, 16622.551
651.356, 13115.659
652.662, 9648.747
653.967, 7721.816
655.272, 5974.863
656.577, 4627.891
657.882, 3890.897
659.186, 3013.884
660.490, 2586.851
661.794, 2279.797
663.098, 1862.724
664.402, 1775.628
665.705, 1458.514
667.009, 1291.379
668.312, 1214.225
669.614, 927.049
670.917, 1069.853
672.219, 792.638
673.522, 715.402
674.824, 668.146
676.125, 730.870
677.427, 573.570
678.728, 496.254
680.030, 698.917
681.331, 551.561
682.631, 324.184
683.932, 446.787
685.232, 409.371
686.532, 251.934
687.832, 244.477
689.132, 266.980
690.432, 348.723
691.731, 211.206
693.030, 203.671
694.329, 409.393
695.628, 102.483
696.926, 273.102
698.224, 118.708
699.522, 247.936
700.820, 209.820
702.118, 138.270
703.415, 199.442
704.713, 241.105
706.010, 227.756
707.307, 210.002
708.603, 32.229
709.900, 63.742
711.196, 48.362
712.492, 170.495
713.788, 241.260
715.083, 96.644
716.379, 245.464
717.674, 237.439
718.969, 49.984
720.264, 281.903
721.558, 66.403
722.853, 244.409
724.147, 24.265
725.441, 107.087
726.735, 208.139
728.028, 78.903
729.322, 177.542
730.615, 50.874
731.908, 9.132
733.201, 100.614
734.493, 117.919
735.785, 312.118
737.078, 53.468
738.370, 56.749
739.661, 128.063
740.953, 0.638
742.244, 20.622
743.535, 1.855
744.826, 49.542
746.117, 110.720
747.407, 99.634
748.698, 153.034
749.988, 114.168
751.278, 55.610
752.567, 46.715
753.857, 2.197
755.146, 51.147
756.435, 0.158
757.724, 19.181
759.013, 181.730
760.301, 102.629
761.590, 83.513
762.878, 55.615
764.165, 135.197
765.453, 285.996
766.741, 43.216
768.028, 167.800
769.315, 128.522
770.602, 150.765
771.888, 289.840
773.175, 89.567
774.461, 19.047
775.747, 261.436
777.033, 41.910
778.319, 152.373
779.604, 67.174
780.889, 173.220
782.174, 163.604
783.459, 43.979
784.744, 344.344
786.028, 144.701
787.312, 175.048
788.596, 315.387
789.880, 245.717
791.164, 336.039
792.447, 196.354
793.730, 266.658
795.013, 456.959
796.296, 337.250
797.579, 417.535
798.861, 547.812
800.143, 538.082
801.425, 428.348
802.707, 608.605
803.989, 638.855
805.270, 889.104
806.551, 689.344
807.832, 929.580
809.113, 659.811
810.394, 810.035
811.674, 830.258
812.954, 640.473
814.234, 890.686
815.514, 770.893
816.794, 681.098
818.073, 911.299
819.352, 801.496
820.631, 871.691
821.910, 641.883
823.189, 672.074
824.467, 652.262
825.745, 462.447
827.023, 612.631
828.301, 372.812
829.578, 382.994
830.856, 573.172
832.133, 373.352
833.410, 343.529
834.687, 313.709
835.963, 83.885
837.240, 444.064
838.516, 94.242
839.792, 194.420
841.068, 74.598
842.343, 244.779
843.618, 124.963
844.894, 75.152
846.169, 145.354
847.443, 105.559
848.718, 34.207
849.992, 245.551
851.266, 84.207
852.540, 55.787
853.814, 306.051
855.088, 126.320
856.361, 286.602
857.634, 6.904
858.907, 157.213
860.180, 267.551
861.453, 117.895
862.725, 266.373
863.997, 74.133
865.269, 124.871
866.541, 355.258
867.812, 15.654
869.084, 96.471
870.355, 106.930
871.626, 37.396
872.897, 271.855
874.167, 32.393
875.438, 325.893
876.708, 56.504
877.978, 202.797
879.248, 213.434
880.517, 55.904
881.787, 297.029
883.056, 67.727
884.325, 92.652
885.594, 121.391
886.862, 172.133
888.130, 23.020
889.399, 163.797
890.667, 85.693
891.934, 204.859
893.202, 155.660
894.469, 124.076
895.737, 193.711
897.004, 187.598
898.270, 232.850
899.537, 263.682
900.803, 24.529
902.070, 375.395
903.336, 23.723
904.601, 147.061
905.867, 357.727
907.132, 16.301
908.398, 261.865
909.663, 0.699
910.928, 248.402
912.192, 319.412
913.457, 80.445
914.721, 371.494
915.985, 227.186
917.249, 218.295
918.512, 329.424
919.776, 23.877
921.039, 267.293
922.302, 188.484
923.565, 308.637
924.827, 339.875
926.090, 284.027
927.352, 372.686
928.614, 253.992
929.876, 215.322
931.138, 586.676
932.399, 192.648
933.660, 374.053
934.922, 465.480
936.182, 326.936
937.443, 458.418
938.704, 399.928
939.964, 321.465
941.224, 503.027
942.484, 374.613
943.744, 596.240
945.003, 407.891
946.262, 259.570
947.521, 551.277
948.780, 583.010
950.039, 664.770
951.298, 676.559
952.556, 644.572
953.814, 820.217
955.072, 592.088
956.330, 683.986
957.587, 795.912
958.845, 637.867
960.102, 869.850
961.359, 741.861
962.615, 743.904
963.872, 1055.973
965.128, 578.070
966.384, 1130.197
967.640, 1022.354
968.896, 924.541
970.152, 1516.756
971.407, 949.016
972.662, 1391.307
973.917, 1463.625
975.172, 1405.975
976.427, 1678.354
977.681, 1790.764
978.935, 1823.203
980.189, 2355.672
981.443, 1958.178
982.697, 2510.711
983.950, 2793.277
985.203, 2765.875
986.456, 3928.506
987.709, 3711.172
988.962, 4353.873
990.214, 5246.600
991.467, 5709.402
992.719, 7022.236
993.971, 8115.104
995.222, 9408.000
996.474, 10973.230
997.725, 12206.188
998.976, 14749.180
1000.227, 16201.139
1001.478, 18504.191
1002.728, 21710.793
1003.978, 24063.912
1005.229, 27087.100
1006.479, 29130.309
1007.728, 31473.562
1008.978, 33866.840
1010.227, 33970.160
1011.476, 34643.496
1012.725, 33572.738
1013.974, 31176.174
1015.223, 30167.197
1016.471, 26623.027
1017.719, 24046.576
1018.967, 21590.504
1020.215, 18734.252
1021.462, 16928.043
1022.710, 14414.512
1023.957, 12598.391
1025.204, 11512.381
1026.451, 9987.348
1027.697, 9191.422
1028.944, 7985.588
1030.190, 7352.074
1031.436, 6874.953
1032.682, 6529.238
1033.928, 6403.553
1035.173, 6477.945
1036.418, 5962.373
1037.663, 6416.828
1038.908, 6421.373
1040.153, 6595.949
1041.398, 6948.406
1042.642, 7403.043
1043.886, 7627.711
1045.130, 8272.441
1046.374, 8288.432
1047.617, 9106.746
1048.860, 9601.582
1050.104, 10416.443
1051.347, 11451.334
1052.589, 12326.287
1053.832, 13770.949
1055.074, 15455.961
1056.316, 16961.492
1057.558, 19776.568
1058.800, 22481.717
1060.042, 24626.879
1061.283, 28212.107
1062.524, 29767.361
1063.765, 30852.633
1065.006, 29387.939
1066.247, 26546.725
1067.487, 23752.094
1068.728, 19017.494
1069.968, 15982.660
1071.208, 13268.133
1072.447, 10653.637
1073.687, 8809.211
1074.926, 7164.809
1076.165, 5790.461
1077.404, 5416.152
1078.643, 4101.863
1079.881, 3947.602
1081.120, 3533.361
1082.358, 2719.213
1083.596, 2775.092
1084.834, 2300.994
1086.071, 2077.572
1087.309, 2043.568
1088.546, 1619.586
1089.783, 1725.650
1091.020, 1311.715
1092.256, 1700.092
1093.493, 1576.203
1094.729, 1182.336
1095.965, 1028.777
1097.201, 964.949
1098.436, 721.141
1099.672, 937.400
1100.907, 693.637
1102.142, 509.951
1103.377, 896.234
1104.612, 382.535
1105.846, 548.855
1107.081, 645.191
1108.315, 511.549
1109.549, 858.324
1110.782, 414.715
1112.016, 311.123
1113.249, 737.551
1114.483, 503.994
1115.716, 410.975
1116.948, 537.453
1118.181, 503.943
1119.413, 754.041
1120.646, 680.562
1121.878, 684.221
1123.110, 623.988
1124.341, 600.578
1125.573, 727.221
1126.804, 743.842
1128.035, 310.477
1129.266, 798.646
1130.497, 305.303
1131.727, 422.584
1132.957, 579.305
1134.188, 276.025
1135.418, 464.902
1136.647, 721.646
1137.877, 78.402
1139.106, 675.207
1140.335, 182.191
1141.564, 479.129
1142.793, 465.943
1144.022, 87.236
1145.250, 599.570
1146.479, 37.207
1147.707, 244.029
1148.934, 491.322
1150.162, 181.809
1151.390, 125.096
1152.617, 389.377
1153.844, 167.010
1155.071, 254.926
1156.298, 52.148
1157.524, 109.324
1158.751, 236.771
1159.977, 156.400
1161.203, 34.135
1162.428, 354.529
1163.654, 78.449
1164.879, 188.371
1166.105, 11.818
1167.330, 104.945
1168.555, 375.178
1169.779, 77.660
1171.004, 9.070
1172.228, 275.559
1173.452, 207.719
1174.676, 258.904
1175.900, 125.115
1177.123, 58.273
1178.346, 468.789
1179.570, 25.373
1180.793, 141.951
1182.015, 344.348
1183.238, 90.908
1184.460, 417.459
1185.683, 218.848
1186.905, 225.377
1188.126, 432.158
1189.348, 210.438
1190.569, 366.945
1191.791, 319.652
1193.012, 23.867
1194.233, 342.588
1195.453, 310.324
1196.674, 56.779
1197.894, 384.799
1199.114, 219.469
1200.334, 215.881
1201.554, 362.949
1202.774, 0.006
1203.993, 536.355
1205.212, 308.109
1206.431, 74.436
1207.650, 610.744
1208.869, 107.385
1210.087, 163.656
1211.305, 530.172
1212.524, 43.592
1213.741, 502.596
1214.959, 178.887
1216.177, 105.879
1217.394, 452.008
1218.611, 220.328
1219.828, 296.418
1221.045, 412.494
1222.261, 289.461
1223.478, 415.496
1224.694, 371.510
1225.910, 248.396
1227.126, 284.404
1228.342, 221.395
1229.557, 327.957
1230.772, 504.129
1231.987, 32.463
1233.202, 558.420
1234.417, 474.738
1235.631, 141.705
1236.846, 597.635
1238.060, 3.947
1239.274, 560.793
1240.488, 446.682
1241.701, 92.680
1242.915, 548.547
1244.128, 274.404
1245.341, 161.918
1246.554, 497.734
1247.767, 163.533
1248.979, 240.914
1250.191, 586.682
1251.403, 302.432
1252.615, 278.170
1253.827, 333.883
1255.039, 99.598
1256.250, 405.221
1257.461, 260.832
1258.672, 366.727
1259.883, 352.297
1261.094, 97.854
1262.304, 533.342
1263.514, 418.805
1264.724, 4.244
1265.934, 659.625
1267.144, 344.965
1268.354, 155.562
1269.563, 410.701
1270.772, 225.818
1271.981, 421.910
1273.190, 576.797
1274.398, 61.781
1275.607, 456.611
1276.815, 121.381
1278.023, 253.049
1279.231, 257.732
1280.439, 52.379
1281.646, 348.064
1282.853, 562.598
1284.060, 82.910
1285.267, 224.662
1286.474, 238.988
1287.681, 325.742
1288.887, 349.969
1290.093, 351.861
1291.299, 126.027
1292.505, 390.158
1293.711, 174.256
1294.916, 278.303
1296.121, 255.572
1297.327, 40.447
1298.531, 129.645
1299.736, 108.344
1300.941, 191.965
1302.145, 205.543
1303.349, 159.072
1304.553, 402.549
1305.757, 20.125
1306.961, 23.502
1308.164, 236.803
1309.367, 277.734
1310.570, 289.068
1311.773, 603.736
1312.976, 26.744
1314.178, 199.688
1315.381, 489.932
1316.583, 237.221
1317.785, 365.494
1318.987, 517.178
1320.188, 80.271
1321.390, 492.180
1322.591, 172.289
1323.792, 324.547
1324.993, 566.758
1326.193, 21.096
1327.394, 360.928
1328.594, 362.857
1329.794, 5.262
1330.994, 306.543
1332.194, 228.293
1333.394, 69.990
1334.593, 381.600
1335.792, 26.840
1336.991, 294.643
1338.190, 374.842
1339.389, 96.217
1340.587, 517.533
1341.786, 78.799
1342.984, 60.000
1344.182, 431.113
1345.379, 152.174
1346.577, 153.182
1347.774, 613.650
1348.972, 15.434
1350.169, 295.420
1351.365, 426.232
1352.562, 207.016
1353.759, 337.762
1354.955, 228.480
1356.151, 349.180
1357.347, 286.426
1358.543, 257.092
1359.738, 127.756
1360.934, 528.420
1362.129, 49.102
1363.324, 359.805
1364.519, 291.332
1365.713, 122.160
1366.908, 532.814
1368.102, 363.357
1369.296, 127.854
1370.490, 332.266
1371.684, 103.410
1372.877, 170.145
1374.071, 254.254
1375.264, 124.074
1376.457, 359.938
1377.650, 213.600
1378.843, 127.479
1380.035, 461.283
1381.227, 215.096
1382.419, 138.865
1383.611, 632.141
1384.803, 285.818
1385.995, 529.449
1387.186, 592.438
1388.377, 91.791
1389.568, 665.244
1390.759, 468.229
1391.950, 101.484
1393.140, 672.891
1394.331, 335.344
1395.521, 588.406
1396.711, 478.752
1397.900, 299.008
1399.090, 661.322
1400.279, 353.994
1401.469, 245.580
1402.658, 847.578
1403.847, 329.994
1405.035, 321.391
1406.224, 631.764
1407.412, 352.787
1408.600, 369.889
1409.788, 686.750
1410.976, 24.066
1412.164, 612.719
1413.351, 383.865
1414.538, 76.244
1415.725, 863.283
1416.912, 213.811
1418.099, 405.039
1419.285, 717.131
1420.472, 69.494
1421.658, 351.002
1422.844, 419.020
1424.030, 49.600
1425.215, 428.156
1426.401, 616.104
1427.586, 17.514
1428.771, 670.486
1429.956, 8.820
1431.141, 241.285
1432.325, 660.717
1433.510, 370.271
1434.694, 530.086
1435.878, 718.492
1437.062, 524.158
1438.245, 932.201
1439.429, 451.971
1440.612, 29.811
1441.795, 835.215
1442.978, 457.521
1444.161, 384.924
1445.343, 710.641
1446.526, 355.352
1447.708, 482.490
1448.890, 699.643
1450.072, 272.623
1451.253, 565.420
1452.435, 531.744
1453.616, 227.809
1454.797, 813.711
1455.978, 628.691
1457.159, 534.164
1458.340, 749.596
1459.520, 394.807
1460.700, 594.668
1461.880, 829.969
1463.060, 232.494
1464.240, 827.855
1465.420, 591.457
1466.599, 316.502
1467.778, 607.807
1468.957, 431.654
1470.136, 537.469
1471.315, 781.732
1472.493, 535.639
1473.671, 699.258
1474.849, 632.574
1476.027, 371.270
1477.205, 725.480
1478.383, 499.549
1479.560, 173.408
1480.737, 727.246
1481.914, 460.934
1483.091, 164.424
1484.268, 787.713
1485.444, 347.498
1486.621, 508.723
1487.797, 597.746
1488.973, 618.666
1490.149, 469.867
1491.324, 466.260
1492.500, 132.990
1493.675, 830.500
1494.850, 368.504
1496.025, 77.166
1497.200, 926.725
1498.374, 217.455
1499.548, 139.566
1500.723, 763.164
1501.897, 48.539
1503.071, 286.156
1504.244, 616.674
1505.418, 9.088
1506.591, 690.178
1507.764, 464.580
1508.937, 0.000
##END=



