##NAMES=Amblygonite
##RRUFFID=R040006
##IDEAL CHEMISTRY=LiAlPO_4_F
##LOCALITY=Pala, San Diego County, California, USA
##OWNER=RRUFF
##SOURCE=University of Arizona Mineral Museum
##DESCRIPTION=Light gray coarsely crystalline massive
##STATUS=The identification of this mineral has been confirmed by X-ray diffraction and chemical analysis
##URL=rruff.info/R040006
##MEASURED CHEMISTRY=LiAl_1.00_(P_1.00_O_4_)(F_0.73_(OH)_0.27_)_Î£=1_; Li assumed by stoichiometry; OH estimated by charge balance
##PIN_ID=l00058
##ORIENTATION=Laser parallel to (0 1 1). Fiducial mark perpendicular to laser is parallel to a [1 0 0]
116.172, 0.000
117.564, 3.505
118.956, 15.375
120.347, 31.691
121.738, 116.621
123.129, 234.408
124.519, 473.571
125.910, 600.058
127.300, 820.984
128.690, 820.761
130.080, 966.332
131.469, 1077.587
132.858, 985.126
134.248, 1014.589
135.636, 891.675
137.025, 919.099
138.413, 734.672
139.801, 835.474
141.189, 697.477
142.577, 631.768
143.964, 649.296
145.352, 631.787
146.739, 637.025
148.125, 643.273
149.512, 578.172
150.898, 560.676
152.284, 522.739
153.670, 629.170
155.056, 691.062
156.441, 710.826
157.827, 564.147
159.212, 631.232
160.596, 335.530
161.981, 349.630
163.365, 440.589
164.749, 534.360
166.133, 616.986
167.517, 702.167
168.900, 717.964
170.283, 935.732
171.666, 1163.750
173.049, 1117.997
174.431, 1263.063
175.813, 1274.389
177.195, 1467.122
178.577, 1540.008
179.959, 1524.366
181.340, 1626.519
182.721, 1680.286
184.102, 1759.175
185.483, 1755.125
186.863, 1880.353
188.244, 1960.375
189.624, 1798.105
191.003, 1831.084
192.383, 1796.726
193.762, 1629.316
195.141, 1515.914
196.520, 1392.520
197.899, 1202.133
199.277, 950.775
200.656, 794.473
202.034, 591.278
203.411, 429.262
204.789, 231.408
206.166, 146.390
207.543, 88.932
208.920, 31.306
210.297, 1.726
211.673, 22.186
213.049, 13.318
214.425, 15.792
215.801, 47.240
217.176, 11.336
218.552, 7.068
219.927, 95.455
221.302, 35.172
222.676, 48.813
224.051, 9.538
225.425, 58.885
226.799, 91.232
228.173, 9.586
229.546, 46.947
230.919, 19.683
232.292, 56.302
233.665, 38.910
235.038, 67.504
236.410, 107.910
237.782, 48.669
239.154, 7.744
240.526, 16.840
241.898, 72.427
243.269, 11.973
244.640, 46.633
246.011, 2.231
247.381, 14.814
248.752, 43.652
250.122, 0.856
251.492, 52.274
252.861, 14.675
254.231, 36.980
255.600, 21.793
256.969, 66.595
258.338, 28.595
259.707, 51.700
261.075, 94.781
262.443, 109.847
263.811, 67.891
265.179, 109.902
266.546, 103.881
267.914, 156.849
269.281, 157.766
270.647, 229.654
272.014, 218.541
273.380, 159.426
274.747, 254.310
276.113, 331.195
277.478, 296.080
278.844, 442.964
280.209, 464.456
281.574, 620.912
282.939, 809.259
284.304, 928.065
285.668, 1108.884
287.032, 1360.965
288.396, 1638.069
289.760, 2197.259
291.123, 2739.807
292.487, 3691.883
293.850, 4953.014
295.212, 6174.370
296.575, 8556.597
297.937, 10688.714
299.300, 13390.212
300.662, 15731.034
302.023, 17372.004
303.385, 17442.938
304.746, 16693.648
306.107, 15324.406
307.468, 13775.108
308.829, 12345.707
310.189, 11486.262
311.549, 10696.769
312.909, 9977.229
314.269, 9047.646
315.629, 8348.025
316.988, 7398.355
318.347, 6348.646
319.706, 5258.901
321.065, 4269.119
322.423, 3499.307
323.781, 3029.463
325.139, 2469.590
326.497, 2169.689
327.855, 1995.736
329.212, 1833.718
330.569, 1735.585
331.926, 1632.398
333.283, 1541.093
334.639, 1464.747
335.995, 1396.229
337.351, 1326.845
338.707, 1297.035
340.063, 1204.412
341.418, 1179.689
342.773, 1118.465
344.128, 1128.154
345.483, 1094.354
346.837, 1144.504
348.192, 1194.636
349.546, 1188.790
350.899, 1166.830
352.253, 1220.863
353.606, 1256.076
354.960, 1255.444
356.313, 1321.720
357.665, 1343.213
359.018, 1276.383
360.370, 1316.799
361.722, 1409.365
363.074, 1505.825
364.426, 1411.885
365.777, 1362.127
367.128, 1539.095
368.479, 1423.090
369.830, 1486.691
371.181, 1379.787
372.531, 1424.001
373.881, 1341.781
375.231, 1297.518
376.581, 1214.608
377.930, 1236.706
379.280, 1103.073
380.629, 983.429
381.977, 1057.729
383.326, 900.007
384.674, 771.902
386.023, 766.178
387.370, 786.307
388.718, 670.092
390.066, 631.508
391.413, 618.638
392.760, 554.008
394.107, 506.383
395.454, 522.507
396.800, 582.189
398.146, 474.859
399.492, 456.841
400.838, 531.671
402.184, 521.940
403.529, 422.474
404.874, 436.130
406.219, 400.305
407.564, 458.857
408.908, 483.795
410.252, 488.090
411.596, 443.155
412.940, 597.018
414.284, 632.605
415.627, 767.905
416.970, 944.421
418.313, 1270.920
419.656, 1717.624
420.999, 2296.109
422.341, 3064.741
423.683, 3723.574
425.025, 4012.472
426.367, 3981.189
427.708, 3340.078
429.049, 2548.938
430.390, 1777.817
431.731, 1216.691
433.072, 756.560
434.412, 452.420
435.752, 406.274
437.092, 223.125
438.432, 260.982
439.772, 173.838
441.111, 3.690
442.450, 65.538
443.789, 32.386
445.127, 37.220
446.466, 69.047
447.804, 80.129
449.142, 63.343
450.480, 34.418
451.817, 84.842
453.155, 13.152
454.492, 64.525
455.829, 17.185
457.166, 15.161
458.502, 13.510
459.838, 0.170
461.175, 127.731
462.510, 87.332
463.846, 90.917
465.181, 159.485
466.517, 120.034
467.852, 125.567
469.186, 264.081
470.521, 312.578
471.855, 466.058
473.190, 455.519
474.523, 543.962
475.857, 608.388
477.191, 767.795
478.524, 870.185
479.857, 1018.556
481.190, 1106.910
482.523, 1165.246
483.855, 1213.563
485.187, 1281.864
486.519, 1260.146
487.851, 1448.410
489.183, 1206.657
490.514, 1094.887
491.845, 1183.098
493.176, 1071.295
494.507, 1039.473
495.837, 977.634
497.168, 891.949
498.498, 806.589
499.828, 712.023
501.157, 620.121
502.487, 473.203
503.816, 436.271
505.145, 282.322
506.474, 238.358
507.802, 306.379
509.131, 141.383
510.459, 251.372
511.787, 223.346
513.115, 106.305
514.442, 68.244
515.770, 90.167
517.097, 38.070
518.424, 7.047
519.750, 55.811
521.077, 24.647
522.403, 44.464
523.729, 139.261
525.055, 23.961
526.381, 3.219
527.706, 212.497
529.031, 18.250
530.356, 23.061
531.681, 15.677
533.006, 190.309
534.330, 87.967
535.654, 39.327
536.978, 59.358
538.302, 17.184
539.625, 20.964
540.949, 146.962
542.272, 27.052
543.595, 74.705
544.917, 18.568
546.240, 177.272
547.562, 7.236
548.884, 56.847
550.206, 190.375
551.527, 24.359
552.849, 218.369
554.170, 41.447
555.491, 124.369
556.812, 262.409
558.132, 160.206
559.453, 98.153
560.773, 186.035
562.093, 104.189
563.412, 242.133
564.732, 119.896
566.051, 232.479
567.370, 160.305
568.689, 204.149
570.008, 321.821
571.326, 350.273
572.644, 202.614
573.963, 301.381
575.280, 321.286
576.598, 389.442
577.915, 479.405
579.233, 376.004
580.550, 528.018
581.866, 471.557
583.183, 520.190
584.499, 468.075
585.815, 655.842
587.131, 623.312
588.447, 780.771
589.763, 747.980
591.078, 825.396
592.393, 982.600
593.708, 1099.844
595.022, 1387.677
596.337, 1577.682
597.651, 1776.292
598.965, 2184.301
600.279, 2492.375
601.593, 2792.344
602.906, 2899.237
604.219, 2647.964
605.532, 2557.831
606.845, 2175.435
608.158, 2064.076
609.470, 1780.520
610.782, 1795.211
612.094, 1734.788
613.406, 1711.425
614.718, 1771.271
616.029, 1863.153
617.340, 1898.608
618.651, 2089.479
619.962, 2316.015
621.272, 2713.277
622.582, 2819.898
623.892, 3406.295
625.202, 3843.205
626.512, 4179.492
627.821, 5076.004
629.131, 5692.596
630.440, 6748.854
631.749, 7405.084
633.057, 7631.287
634.366, 7817.461
635.674, 7583.609
636.982, 7749.729
638.290, 8195.821
639.597, 9051.886
640.905, 10947.921
642.212, 13643.930
643.519, 16019.908
644.825, 18775.857
646.132, 19171.789
647.438, 18107.678
648.744, 15483.549
650.050, 12309.394
651.356, 9385.207
652.662, 6960.990
653.967, 5686.750
655.272, 4272.479
656.577, 3588.180
657.882, 2853.853
659.186, 2379.498
660.490, 2065.116
661.794, 1770.707
663.098, 1416.270
664.402, 1421.804
665.705, 1057.310
667.009, 1112.756
668.312, 968.206
669.614, 903.629
670.917, 838.842
672.219, 593.865
673.522, 718.953
674.824, 473.795
676.125, 667.928
677.427, 372.786
678.728, 307.461
680.030, 422.213
681.331, 327.334
682.631, 270.244
683.932, 374.394
685.232, 202.260
686.532, 256.709
687.832, 189.546
689.132, 223.917
690.432, 198.897
691.731, 184.294
693.030, 177.201
694.329, 140.485
695.628, 137.666
696.926, 110.406
698.224, 79.631
699.522, 185.479
700.820, 129.896
702.118, 166.439
703.415, 101.129
704.713, 185.878
706.010, 250.098
707.307, 95.385
708.603, 9.375
709.900, 73.896
711.196, 98.523
712.492, 72.843
713.788, 117.269
715.083, 87.542
716.379, 97.483
717.674, 61.815
718.969, 75.886
720.264, 110.152
721.558, 33.932
722.853, 90.232
724.147, 53.774
725.441, 120.275
726.735, 44.296
728.028, 30.199
729.322, 33.714
730.615, 7.587
731.908, 51.408
733.201, 5.195
734.493, 101.068
735.785, 28.800
737.078, 53.836
738.370, 29.644
739.661, 53.084
740.953, 56.491
742.244, 99.146
743.535, 94.312
744.826, 146.529
746.117, 89.818
747.407, 133.124
748.698, 116.358
749.988, 39.564
751.278, 7.261
752.567, 15.860
753.857, 28.940
755.146, 11.985
756.435, 15.008
757.724, 47.945
759.013, 0.871
760.301, 16.249
761.590, 63.421
762.878, 64.327
764.165, 112.065
765.453, 25.244
766.741, 32.586
768.028, 70.019
769.315, 27.401
770.602, 74.877
771.888, 87.573
773.175, 49.995
774.461, 112.373
775.747, 14.719
777.033, 37.032
778.319, 199.322
779.604, 21.590
780.889, 123.830
782.174, 76.048
783.459, 48.244
784.744, 200.418
786.028, 172.569
787.312, 214.700
788.596, 126.812
789.880, 218.901
791.164, 140.972
792.447, 213.023
793.730, 365.055
795.013, 237.067
796.296, 249.061
797.579, 341.035
798.861, 412.991
800.143, 454.929
801.425, 508.268
802.707, 478.749
803.989, 530.632
805.270, 539.768
806.551, 544.347
807.832, 556.178
809.113, 567.993
810.394, 540.160
811.674, 571.572
812.954, 553.336
814.234, 605.084
815.514, 656.816
816.794, 468.534
818.073, 500.234
819.352, 661.920
820.631, 513.591
821.910, 335.248
823.189, 406.889
824.467, 318.517
825.745, 370.130
827.023, 411.731
828.301, 233.320
829.578, 274.897
830.856, 166.467
832.133, 238.024
833.410, 189.572
834.687, 191.109
835.963, 102.633
837.240, 34.155
838.516, 54.328
839.792, 177.107
841.068, 88.578
842.343, 219.964
843.618, 51.425
844.894, 17.162
846.169, 214.172
847.443, 135.494
848.718, 63.341
849.992, 77.771
851.266, 91.224
852.540, 40.380
853.814, 80.896
855.088, 58.063
856.361, 43.098
857.634, 26.021
858.907, 5.207
860.180, 23.482
861.453, 7.351
862.725, 46.153
863.997, 23.134
865.269, 17.707
866.541, 138.412
867.812, 50.665
869.084, 60.110
870.355, 10.929
871.626, 91.457
872.897, 122.183
874.167, 56.937
875.438, 209.102
876.708, 60.105
877.978, 64.638
879.248, 65.541
880.517, 54.344
881.787, 231.859
883.056, 21.614
884.325, 100.213
885.594, 20.539
886.862, 149.047
888.130, 150.922
889.399, 2.641
890.667, 42.254
891.934, 132.033
893.202, 12.540
894.469, 203.144
895.737, 94.025
897.004, 74.898
898.270, 215.999
899.537, 3.125
900.803, 157.942
902.070, 138.951
903.336, 139.353
904.601, 187.562
905.867, 175.467
907.132, 197.314
908.398, 196.790
909.663, 154.678
910.928, 156.926
912.192, 94.459
913.457, 162.401
914.721, 167.433
915.985, 112.453
917.249, 243.621
918.512, 141.195
919.776, 58.360
921.039, 279.406
922.302, 157.002
923.565, 261.673
924.827, 102.851
926.090, 299.196
927.352, 310.520
928.614, 170.932
929.876, 191.982
931.138, 353.444
932.399, 174.296
933.660, 345.777
934.922, 197.082
936.182, 468.296
937.443, 229.828
938.704, 271.375
939.964, 422.938
941.224, 434.514
942.484, 396.107
943.744, 447.722
945.003, 359.352
946.262, 540.998
947.521, 592.679
948.780, 604.375
950.039, 616.091
951.298, 527.822
952.556, 639.571
953.814, 741.340
955.072, 643.125
956.330, 754.930
957.587, 766.752
958.845, 798.591
960.102, 820.447
961.359, 882.323
962.615, 1054.218
963.872, 1176.129
965.128, 948.059
966.384, 1240.008
967.640, 1201.975
968.896, 1343.962
970.152, 1505.967
971.407, 1533.179
972.662, 1640.050
973.917, 1662.120
975.172, 1805.488
976.427, 1926.319
977.681, 2138.451
978.935, 2350.602
980.189, 2622.773
981.443, 2834.967
982.697, 3107.178
983.950, 3459.418
985.203, 3551.677
986.456, 4453.960
987.709, 4616.290
988.962, 5618.643
990.214, 6348.244
991.467, 7270.650
992.719, 8743.077
993.971, 10035.535
995.222, 11808.016
996.474, 13729.806
997.725, 15662.365
998.976, 18334.951
1000.227, 20751.334
1001.478, 23047.254
1002.728, 26595.330
1003.978, 29626.424
1005.229, 33259.172
1006.479, 35289.656
1007.728, 37852.523
1008.978, 40114.914
1010.227, 40097.836
1011.476, 40340.117
1012.725, 38564.070
1013.974, 35287.133
1015.223, 33679.598
1016.471, 29174.107
1017.719, 26377.303
1018.967, 22888.846
1020.215, 19822.123
1021.462, 17665.469
1022.710, 14790.187
1023.957, 12903.586
1025.204, 11555.173
1026.451, 9882.296
1027.697, 9073.923
1028.944, 7828.131
1030.190, 7141.708
1031.436, 6583.799
1032.682, 6047.455
1033.928, 5691.141
1035.173, 5324.874
1036.418, 4878.635
1037.663, 5022.438
1038.908, 4646.303
1040.153, 4930.170
1041.398, 4854.132
1042.642, 5148.125
1043.886, 5172.145
1045.130, 5326.234
1046.374, 5450.352
1047.617, 5764.491
1048.860, 6168.659
1050.104, 6722.807
1051.347, 7127.046
1052.589, 7831.309
1053.832, 8995.600
1055.074, 9719.926
1056.316, 10974.285
1057.558, 12888.670
1058.800, 14463.082
1060.042, 15997.537
1061.283, 17852.014
1062.524, 18746.529
1063.765, 18921.072
1065.006, 17445.676
1066.247, 15660.340
1067.487, 13495.012
1068.728, 10769.723
1069.968, 9054.469
1071.208, 7389.238
1072.447, 5894.043
1073.687, 4868.895
1074.926, 3963.773
1076.165, 3378.693
1077.404, 3103.631
1078.643, 2518.598
1079.881, 2393.584
1081.120, 1968.590
1082.358, 1633.678
1083.596, 1658.787
1084.834, 1254.375
1086.071, 1329.559
1087.309, 1054.762
1088.546, 1000.006
1089.783, 1015.270
1091.020, 810.551
1092.256, 787.188
1093.493, 712.508
1094.729, 698.148
1095.965, 747.244
1097.201, 522.611
1098.436, 448.781
1099.672, 904.182
1100.907, 429.598
1102.142, 535.762
1103.377, 691.211
1104.612, 317.168
1105.846, 652.648
1107.081, 548.143
1108.315, 683.955
1109.549, 679.605
1110.782, 565.146
1112.016, 610.814
1113.249, 556.387
1114.483, 692.191
1115.716, 747.969
1116.948, 633.590
1118.181, 649.225
1119.413, 776.635
1120.646, 732.293
1121.878, 778.055
1123.110, 773.779
1124.341, 699.838
1125.573, 885.904
1126.804, 541.662
1128.035, 487.650
1129.266, 813.729
1130.497, 359.520
1131.727, 706.711
1132.957, 412.520
1134.188, 358.777
1135.418, 541.475
1136.647, 377.307
1137.877, 293.822
1139.106, 511.955
1140.335, 197.818
1141.564, 505.811
1142.793, 261.697
1144.022, 88.641
1145.250, 412.518
1146.479, 678.648
1147.707, 345.156
1148.934, 271.934
1150.162, 252.045
1151.390, 301.906
1152.617, 19.969
1153.844, 14.109
1155.071, 229.502
1156.298, 24.275
1157.524, 192.871
1158.751, 153.625
1159.977, 50.480
1161.203, 114.490
1162.428, 201.600
1163.654, 62.520
1164.879, 225.980
1166.105, 10.637
1167.330, 186.498
1168.555, 62.277
1169.779, 51.434
1171.004, 185.004
1172.228, 242.656
1173.452, 101.520
1174.676, 344.955
1175.900, 28.475
1177.123, 97.355
1178.346, 154.941
1179.570, 60.697
1180.793, 136.441
1182.015, 275.639
1183.238, 221.807
1184.460, 169.172
1185.683, 105.529
1186.905, 141.176
1188.126, 108.266
1189.348, 184.424
1190.569, 250.105
1191.791, 187.217
1193.012, 236.211
1194.233, 319.314
1195.453, 196.475
1196.674, 192.037
1197.894, 123.553
1199.114, 249.875
1200.334, 305.451
1201.554, 352.316
1202.774, 87.785
1203.993, 503.691
1205.212, 120.049
1206.431, 185.631
1207.650, 331.971
1208.869, 147.520
1210.087, 233.096
1211.305, 200.469
1212.524, 95.770
1213.741, 372.232
1214.959, 207.500
1216.177, 312.742
1217.394, 197.963
1218.611, 343.549
1219.828, 328.719
1221.045, 245.281
1222.261, 270.402
1223.478, 395.498
1224.694, 262.055
1225.910, 297.100
1227.126, 212.865
1228.342, 222.037
1229.557, 397.617
1230.772, 59.504
1231.987, 236.924
1233.202, 471.832
1234.417, 302.738
1235.631, 268.084
1236.846, 393.361
1238.060, 0.416
1239.274, 524.402
1240.488, 119.209
1241.701, 35.834
1242.915, 328.928
1244.128, 23.896
1245.341, 298.934
1246.554, 333.650
1247.767, 38.951
1248.979, 373.814
1250.191, 98.479
1251.403, 243.771
1252.615, 418.398
1253.827, 153.330
1255.039, 198.408
1256.250, 232.934
1257.461, 208.949
1258.672, 363.445
1259.883, 187.891
1261.094, 204.420
1262.304, 608.904
1263.514, 273.236
1264.724, 17.854
1265.934, 421.979
1267.144, 236.074
1268.354, 400.510
1269.563, 194.469
1270.772, 199.223
1271.981, 473.004
1273.190, 226.697
1274.398, 211.689
1275.607, 375.307
1276.815, 48.893
1278.023, 332.658
1279.231, 186.148
1280.439, 50.406
1281.646, 453.895
1282.853, 137.236
1284.060, 30.469
1285.267, 343.652
1286.474, 36.793
1287.681, 322.865
1288.887, 95.877
1290.093, 61.152
1291.299, 262.178
1292.505, 175.029
1293.711, 128.004
1294.916, 302.289
1296.121, 64.855
1297.327, 38.738
1298.531, 311.328
1299.736, 216.273
1300.941, 246.162
1302.145, 88.098
1303.349, 9.742
1304.553, 452.332
1305.757, 76.658
1306.961, 95.219
1308.164, 397.049
1309.367, 132.564
1310.570, 70.887
1311.773, 400.697
1312.976, 87.766
1314.178, 233.670
1315.381, 193.699
1316.583, 65.004
1317.785, 386.246
1318.987, 173.758
1320.188, 154.861
1321.390, 325.256
1322.591, 66.127
1323.792, 376.924
1324.993, 407.654
1326.193, 18.330
1327.394, 238.930
1328.594, 79.461
1329.794, 189.930
1330.994, 420.334
1332.194, 100.641
1333.394, 230.879
1334.593, 341.051
1335.792, 108.863
1336.991, 311.096
1338.190, 180.988
1339.389, 90.816
1340.587, 580.576
1341.786, 19.723
1342.984, 169.891
1344.182, 339.438
1345.379, 108.924
1346.577, 388.340
1347.774, 247.691
1348.972, 156.982
1350.169, 316.213
1351.365, 155.385
1352.562, 314.496
1353.759, 303.551
1354.955, 72.551
1356.151, 421.490
1357.347, 132.834
1358.543, 391.672
1359.738, 420.463
1360.934, 449.211
1362.129, 267.918
1363.324, 426.586
1364.519, 115.221
1365.713, 363.822
1366.908, 362.201
1368.102, 111.311
1369.296, 489.566
1370.490, 187.738
1371.684, 144.307
1372.877, 213.439
1374.071, 28.904
1375.264, 63.482
1376.457, 406.219
1377.650, 11.119
1378.843, 260.109
1380.035, 268.430
1381.227, 130.066
1382.419, 432.471
1383.611, 393.883
1384.803, 338.633
1385.995, 537.709
1387.186, 329.746
1388.377, 311.738
1389.568, 633.354
1390.759, 245.332
1391.950, 345.248
1393.140, 596.949
1394.331, 237.904
1395.521, 569.285
1396.711, 320.512
1397.900, 280.363
1399.090, 752.943
1400.279, 143.426
1401.469, 391.865
1402.658, 760.371
1403.847, 100.023
1405.035, 359.865
1406.224, 519.479
1407.412, 296.943
1408.600, 424.170
1409.788, 432.424
1410.976, 83.840
1412.164, 682.258
1413.351, 154.789
1414.538, 442.238
1415.725, 617.139
1416.912, 92.996
1418.099, 541.266
1419.285, 349.256
1420.472, 265.719
1421.658, 529.607
1422.844, 345.391
1424.030, 133.270
1425.215, 389.172
1426.401, 349.686
1427.586, 336.727
1428.771, 642.564
1429.956, 9.732
1431.141, 405.451
1432.325, 432.727
1433.510, 188.828
1434.694, 614.775
1435.878, 248.590
1437.062, 64.211
1438.245, 761.836
1439.429, 108.695
1440.612, 303.557
1441.795, 740.994
1442.978, 285.496
1444.161, 633.305
1445.343, 394.867
1446.526, 286.102
1447.708, 488.703
1448.890, 390.545
1450.072, 455.896
1451.253, 440.633
1452.435, 404.281
1453.616, 287.436
1454.797, 611.242
1455.978, 253.637
1457.159, 435.275
1458.340, 665.020
1459.520, 298.109
1460.700, 635.316
1461.880, 487.141
1463.060, 290.248
1464.240, 734.811
1465.420, 315.139
1466.599, 274.281
1467.778, 716.947
1468.957, 198.744
1470.136, 598.168
1471.315, 490.340
1472.493, 272.480
1473.671, 794.498
1474.849, 494.598
1476.027, 345.283
1477.205, 730.660
1478.383, 167.520
1479.560, 387.457
1480.737, 598.232
1481.914, 149.301
1483.091, 440.404
1484.268, 711.225
1485.444, 111.818
1486.621, 502.230
1487.797, 422.570
1488.973, 142.941
1490.149, 673.734
1491.324, 275.215
1492.500, 146.658
1493.675, 678.150
1494.850, 149.830
1496.025, 311.900
1497.200, 684.580
1498.374, 32.334
1499.548, 371.006
1500.723, 494.678
1501.897, 88.834
1503.071, 523.596
1504.244, 268.973
1505.418, 115.104
1506.591, 662.109
1507.764, 194.713
1508.937, 4.373
1510.110, 474.326
1511.282, 237.965
1512.455, 131.803
1513.627, 380.270
1514.799, 0.000
##END=



