##NAMES=Amesite
##RRUFFID=R070132
##IDEAL CHEMISTRY=Mg_2_Al(AlSiO_5_)(OH)_4_
##LOCALITY=Saranovskii mine, Saranovskaya Village, Gornozavodskii area, Permskaya Oblast', Middle Urals, Russia
##OWNER=RRUFF
##SOURCE=Michael Scott
##DESCRIPTION=Purple transparent hexagonal prisms, polytype 2H2
##STATUS=The identification of this mineral is confirmed by single-crystal X-ray diffraction and chemical analysis.
##URL=rruff.info/R070132
##MEASURED CHEMISTRY=(Mg_1.87_[box]_0.05_Cr_0.05_Fe^2+^_0.03_)_Σ=2_(Al_0.98_Cr_0.02_)_Σ=1_(Si_1.05_Al_0.95_)O_5_(OH)_4_ ; OH estimated by difference
##PIN_ID=M00364
147.4850, 0.0000000E+00
148.7160, 206.1035
149.9470, 3.188477
151.1780, 225.5186
152.4080, 359.5801
153.6380, 54.52148
154.8690, 180.6719
156.0980, 56.68848
157.3280, 75.42578
158.5580, 0.3027340
159.7870, 80.93359
161.0170, 21.76270
162.2460, 64.39160
163.4750, 67.20020
164.7030, 151.3057
165.9320, 85.73340
167.1600, 18.47852
168.3890, 14.90332
169.6170, 35.41797
170.8450, 4.908203
172.0730, 156.8545
173.3000, 144.5068
174.5280, 225.9023
175.7550, 180.9268
176.9820, 459.4893
178.2090, 244.5225
179.4350, 476.9727
180.6620, 604.7969
181.8880, 966.9609
183.1150, 1131.436
184.3410, 1483.201
185.5670, 1854.598
186.7920, 2162.739
188.0180, 2748.057
189.2430, 3198.113
190.4690, 3951.643
191.6940, 4694.709
192.9180, 5377.371
194.1430, 6147.684
195.3680, 7183.689
196.5920, 7927.436
197.8160, 9121.952
199.0400, 10244.28
200.2640, 11736.44
201.4880, 13343.47
202.7110, 15239.38
203.9350, 17151.21
205.1580, 19524.96
206.3810, 22192.66
207.6040, 25595.31
208.8270, 28970.93
210.0490, 33531.52
211.2710, 37623.12
212.4940, 41554.71
213.7160, 43879.32
214.9370, 43415.95
216.1590, 40002.61
217.3810, 34381.32
218.6020, 28088.05
219.8230, 22123.84
221.0440, 16951.66
222.2650, 12970.46
223.4860, 9830.150
224.7060, 7681.896
225.9260, 6073.574
227.1470, 4887.587
228.3670, 4001.499
229.5860, 3372.180
230.8060, 2989.849
232.0260, 2600.674
233.2450, 2394.662
234.4640, 2153.531
235.6830, 2066.154
236.9020, 1926.666
238.1200, 1914.357
239.3390, 1901.381
240.5570, 1913.281
241.7750, 2011.508
242.9930, 2172.906
244.2110, 2334.473
245.4290, 2522.205
246.6460, 2567.829
247.8630, 2597.154
249.0810, 2637.365
250.2980, 2394.730
251.5140, 2380.250
252.7310, 2423.920
253.9470, 2575.738
255.1640, 3150.705
256.3800, 3461.818
257.5960, 3355.074
258.8120, 3433.471
260.0270, 3103.002
261.2430, 2411.648
262.4580, 2154.406
263.6730, 1840.273
264.8880, 1741.250
266.1030, 1505.338
267.3170, 1669.536
268.5320, 1588.845
269.7460, 1627.265
270.9600, 1833.796
272.1740, 1766.436
273.3880, 1724.188
274.6010, 1722.050
275.8150, 1683.040
277.0280, 1652.103
278.2410, 1649.293
279.4540, 1594.592
280.6670, 1568.000
281.8790, 1582.516
283.0920, 1623.329
284.3040, 1758.870
285.5160, 1763.707
286.7280, 1883.650
287.9400, 1941.699
289.1510, 2108.853
290.3630, 2045.110
291.5740, 2012.474
292.7850, 1476.939
293.9960, 872.7812
295.2070, 419.4912
296.4170, 280.0576
297.6280, 51.99805
298.8380, 204.9395
300.0480, 258.8555
301.2580, 399.8945
302.4680, 428.8018
303.6770, 469.5898
304.8870, 437.1436
306.0960, 417.9072
307.3050, 272.3008
308.5140, 290.7773
309.7230, 189.0371
310.9310, 56.14941
312.1400, 320.9248
313.3480, 581.2100
314.5560, 685.4443
315.7640, 884.1006
316.9720, 1031.882
318.1790, 1093.899
319.3870, 1206.092
320.5940, 1372.477
321.8010, 1662.033
323.0080, 2018.750
324.2150, 2547.632
325.4210, 2852.657
326.6280, 3205.846
327.8340, 3249.150
329.0400, 3398.594
330.2460, 3313.119
331.4510, 3215.729
332.6570, 3177.403
333.8620, 3532.123
335.0680, 4244.881
336.2730, 5035.684
337.4780, 5877.530
338.6820, 5381.424
339.8870, 4493.366
341.0910, 3633.361
342.2950, 2823.407
343.5000, 2493.505
344.7030, 1921.658
345.9070, 1618.866
347.1110, 1309.128
348.3140, 1124.448
349.5170, 888.0439
350.7200, 810.2588
351.9230, 583.7500
353.1260, 495.2998
354.3290, 483.9072
355.5310, 576.5742
356.7330, 688.2988
357.9350, 872.0820
359.1370, 844.9268
360.3390, 799.8389
361.5400, 741.8096
362.7420, 734.8398
363.9430, 846.9277
365.1440, 990.0732
366.3450, 972.2754
367.5460, 1043.067
368.7460, 1111.761
369.9470, 1079.787
371.1470, 979.5195
372.3470, 1013.991
373.5470, 1013.338
374.7460, 1365.684
375.9460, 1554.105
377.1450, 1958.604
378.3450, 2418.180
379.5440, 2942.830
380.7430, 3245.557
381.9410, 3433.354
383.1400, 3467.229
384.3380, 3642.173
385.5370, 3858.859
386.7350, 3981.276
387.9320, 4433.435
389.1300, 4692.664
390.3280, 5180.959
391.5250, 5752.324
392.7220, 6073.757
393.9190, 5841.256
395.1160, 5283.820
396.3130, 5051.452
397.5100, 4232.148
398.7060, 3942.909
399.9020, 3967.733
401.0980, 4278.621
402.2940, 4901.570
403.4900, 5720.582
404.6860, 6948.656
405.8810, 8320.790
407.0760, 9410.982
408.2710, 10152.24
409.4660, 10228.55
410.6610, 9857.923
411.8550, 9160.354
413.0500, 9078.841
414.2440, 9318.387
415.4380, 9649.992
416.6320, 10810.65
417.8260, 12236.37
419.0190, 13840.14
420.2130, 15022.96
421.4060, 14656.84
422.5990, 12720.77
423.7920, 10457.76
424.9850, 8167.805
426.1770, 6402.896
427.3700, 5233.041
428.5620, 4333.238
429.7540, 3854.486
430.9460, 3565.785
432.1380, 3628.133
433.3290, 3688.531
434.5210, 4143.979
435.7120, 4398.477
436.9030, 4931.019
438.0940, 5158.621
439.2850, 5108.281
440.4750, 5133.998
441.6660, 4668.975
442.8560, 3992.194
444.0460, 3492.745
445.2360, 3347.994
446.4260, 3008.418
447.6160, 2996.603
448.8050, 3200.359
449.9940, 3400.371
451.1830, 3535.762
452.3720, 3649.997
453.5610, 3518.630
454.7500, 3640.480
455.9380, 3720.551
457.1260, 3701.620
458.3150, 3778.537
459.5020, 3640.542
460.6900, 3036.014
461.8780, 2589.827
463.0650, 2446.260
464.2530, 2161.527
465.4400, 2060.578
466.6270, 2049.121
467.8130, 2340.132
469.0000, 2480.092
470.1870, 3018.943
471.3730, 3372.499
472.5590, 4060.531
473.7450, 4711.535
474.9310, 5615.641
476.1160, 6279.775
477.3020, 7083.950
478.4870, 7805.152
479.6720, 8285.396
480.8570, 8788.674
482.0420, 9536.993
483.2270, 10140.36
484.4110, 10928.77
485.5960, 11820.21
486.7800, 12192.69
487.9640, 12782.21
489.1480, 13402.78
490.3310, 13696.41
491.5150, 14056.09
492.6980, 13754.84
493.8810, 12597.63
495.0640, 10956.45
496.2470, 9266.294
497.4300, 7322.162
498.6120, 5848.053
499.7950, 4717.971
500.9770, 3843.357
502.1590, 3064.115
503.3410, 2703.102
504.5220, 2379.112
505.7040, 2085.146
506.8850, 2053.201
508.0660, 1962.277
509.2470, 1801.375
510.4280, 1833.495
511.6090, 2045.635
512.7890, 2063.798
513.9700, 2246.984
515.1500, 2442.193
516.3300, 2712.429
517.5100, 3065.688
518.6900, 3464.973
519.8690, 3980.279
521.0490, 4763.610
522.2280, 5426.965
523.4070, 6125.340
524.5860, 7420.739
525.7640, 8077.158
526.9430, 9372.599
528.1210, 10540.06
529.3000, 11411.54
530.4780, 12743.04
531.6560, 13686.56
532.8330, 14588.10
534.0110, 15380.66
535.1880, 15893.23
536.3650, 15897.83
537.5430, 15548.44
538.7190, 15019.06
539.8960, 14120.71
541.0730, 13384.37
542.2490, 12284.04
543.4250, 11382.73
544.6020, 10553.44
545.7780, 9892.159
546.9530, 9130.891
548.1290, 8666.639
549.3040, 7984.398
550.4800, 7342.172
551.6550, 6701.957
552.8300, 6334.755
554.0040, 5779.562
555.1790, 5279.382
556.3540, 4713.211
557.5280, 4276.054
558.7020, 3680.904
559.8760, 3203.764
561.0500, 2779.633
562.2230, 2379.392
563.3970, 2024.398
564.5700, 1780.293
565.7430, 1536.195
566.9160, 1381.105
568.0890, 1316.022
569.2620, 1089.946
570.4340, 965.8760
571.6070, 738.8115
572.7790, 736.7529
573.9510, 665.7012
575.1230, 483.6533
576.2940, 461.6094
577.4660, 402.5693
578.6370, 428.5332
579.8080, 333.5010
580.9790, 182.4717
582.1500, 145.4453
583.3210, 62.43066
584.4910, 93.45801
585.6620, 29.54004
586.8320, 5.303711
588.0020, 45.91992
589.1720, 26.24121
590.3410, 27.35840
591.5110, 94.90820
592.6800, 71.48047
593.8500, 87.06055
595.0190, 173.6807
596.1880, 243.4092
597.3560, 161.2959
598.5250, 220.2998
599.6930, 219.4521
600.8620, 224.7559
602.0300, 212.2109
603.1970, 299.8135
604.3650, 231.6113
605.5330, 194.5693
606.7000, 216.6670
607.8680, 142.9189
609.0350, 220.2871
610.2020, 57.80957
611.3680, 131.4053
612.5350, 160.9424
613.7010, 58.91699
614.8680, 374.1875
616.0340, 558.4473
617.2000, 937.5928
618.3660, 1221.850
619.5310, 1630.519
620.6970, 1767.678
621.8620, 2024.851
623.0270, 1935.456
624.1920, 1680.982
625.3570, 1598.176
626.5220, 1267.508
627.6860, 1045.996
628.8500, 764.0898
630.0140, 635.4141
631.1780, 494.6035
632.3420, 438.9482
633.5060, 349.2236
634.6700, 342.3252
635.8330, 328.4141
636.9960, 278.5283
638.1590, 219.5605
639.3220, 209.6182
640.4850, 147.6621
641.6470, 86.68555
642.8100, 227.7002
643.9720, 247.7178
645.1340, 412.7373
646.2960, 431.7422
647.4570, 382.7334
648.6190, 459.7129
649.7800, 331.6855
650.9420, 408.6523
652.1030, 469.6064
653.2640, 486.5459
654.4240, 668.4688
655.5850, 522.3760
656.7450, 558.2656
657.9060, 620.1406
659.0660, 472.9971
660.2260, 623.8379
661.3850, 668.6611
662.5450, 684.4678
663.7040, 995.2559
664.8640, 910.0273
666.0230, 1119.780
667.1820, 1162.517
668.3410, 1466.234
669.4990, 1604.935
670.6580, 1805.616
671.8160, 2122.279
672.9740, 2445.926
674.1320, 2870.603
675.2900, 3382.159
676.4480, 3874.750
677.6050, 4392.320
678.7630, 4993.871
679.9200, 5593.405
681.0770, 6246.918
682.2340, 6686.412
683.3900, 7102.889
684.5470, 7154.693
685.7030, 7162.780
686.8590, 6814.195
688.0150, 6304.594
689.1710, 5698.971
690.3270, 5140.326
691.4830, 5097.664
692.6380, 4813.981
693.7930, 5167.278
694.9480, 5802.555
696.1030, 6362.812
697.2580, 7524.049
698.4130, 8415.266
699.5670, 10147.46
700.7210, 11818.64
701.8750, 13669.79
703.0290, 15566.93
704.1830, 17386.04
705.3370, 18497.13
706.4900, 18899.20
707.6430, 18470.26
708.7970, 17098.29
709.9490, 15347.30
711.1020, 13200.29
712.2550, 11324.26
713.4070, 9653.215
714.5600, 8188.144
715.7120, 6833.051
716.8640, 5597.940
718.0160, 4736.806
719.1670, 3985.652
720.3190, 3553.478
721.4700, 2939.282
722.6210, 2758.065
723.7720, 2472.829
724.9230, 2068.163
726.0740, 1855.734
727.2250, 1722.259
728.3750, 1362.241
729.5250, 1244.200
730.6750, 1250.968
731.8250, 1145.076
732.9750, 962.0762
734.1240, 888.9639
735.2740, 814.8984
736.4230, 756.8682
737.5720, 588.0186
738.7210, 545.1123
739.8700, 480.7598
741.0190, 410.1143
742.1670, 374.8682
743.3150, 315.8145
744.4630, 219.0039
745.6110, 270.7295
746.7590, 104.0127
747.9070, 206.3730
749.0540, 86.87012
750.2020, 18.68945
751.3490, 14.94629
752.4960, 25.46387
753.6430, 49.79590
754.7890, 1.877930
755.9360, 21.91016
757.0820, 11.37891
758.2280, 2.989258
759.3740, 37.73047
760.5200, 62.50488
761.6660, 10.32715
762.8120, 25.83008
763.9570, 59.01953
765.1020, 10.91211
766.2470, 72.82617
767.3920, 124.7930
768.5370, 60.83691
769.6810, 139.8115
770.8260, 60.98633
771.9700, 100.7930
773.1140, 79.56934
774.2580, 142.3408
775.4020, 97.42871
776.5460, 282.1914
777.6890, 293.9492
778.8320, 342.2568
779.9750, 392.3750
781.1180, 352.5967
782.2610, 478.9590
783.4040, 510.4053
784.5460, 619.4268
785.6890, 670.2988
786.8310, 742.5859
787.9730, 853.4111
789.1150, 822.9072
790.2560, 870.6172
791.3980, 855.3242
792.5390, 898.9375
793.6810, 876.7266
794.8220, 964.4219
795.9630, 1096.113
797.1030, 1078.803
798.2440, 1022.489
799.3840, 955.1719
800.5240, 1064.852
801.6650, 1289.528
802.8040, 1139.203
803.9440, 1201.875
805.0840, 1508.544
806.2230, 1393.211
807.3630, 1327.876
808.5020, 1350.541
809.6410, 1521.202
810.7790, 1573.863
811.9180, 1675.521
813.0570, 1785.180
814.1950, 1785.837
815.3330, 1833.492
816.4710, 1808.147
817.6090, 2054.801
818.7470, 2261.455
819.8840, 2060.109
821.0220, 2343.764
822.1590, 2355.418
823.2960, 2321.071
824.4330, 2298.725
825.5690, 2388.380
826.7060, 2306.036
827.8420, 2322.692
828.9790, 2244.350
830.1150, 2189.009
831.2510, 2180.668
832.3860, 2118.329
833.5220, 2093.992
834.6570, 2096.656
835.7930, 1966.322
836.9280, 1939.321
838.0630, 1763.674
839.1980, 1759.387
840.3320, 1678.103
841.4670, 1505.822
842.6010, 1399.544
843.7350, 1248.269
844.8690, 1033.996
846.0030, 1044.728
847.1370, 865.4805
848.2700, 650.2383
849.4040, 577.9990
850.5370, 453.7646
851.6700, 373.5352
852.8030, 359.3086
853.9360, 320.0869
855.0680, 307.8691
856.2000, 250.7861
857.3330, 222.4482
858.4650, 190.2451
859.5970, 200.0479
860.7290, 292.8564
861.8600, 301.6758
862.9920, 316.5146
864.1230, 357.3613
865.2540, 303.2197
866.3850, 88.11914
867.5160, 65.07520
868.6460, 92.07812
869.7770, 13.86328
870.9070, 113.2549
872.0370, 24.46094
873.1670, 202.7295
874.2970, 192.0928
875.4270, 180.5381
876.5570, 428.0635
877.6860, 347.6709
878.8150, 436.3809
879.9440, 514.1904
881.0730, 643.0771
882.2020, 712.2432
883.3300, 840.1631
884.4590, 859.3555
885.5870, 962.5889
886.7150, 995.8457
887.8430, 767.4893
888.9710, 581.8584
890.0990, 598.2432
891.2260, 514.7432
892.3530, 379.1338
893.4810, 249.1143
894.6080, 115.6055
895.7340, 200.0791
896.8610, 222.1240
897.9880, 147.2471
899.1140, 197.7021
900.2400, 40.01953
901.3660, 102.1777
902.4920, 36.73242
903.6180, 88.05664
904.7430, 5.624023
905.8690, 120.8193
906.9940, 19.18945
908.1190, 83.73340
909.2440, 35.28906
910.3690, 76.14258
911.4930, 24.41895
912.6180, 74.99316
913.7420, 43.59570
914.8660, 132.7881
915.9900, 120.1953
917.1140, 103.6299
918.2380, 20.91309
919.3610, 14.46973
920.4850, 45.96191
921.6080, 57.39160
922.7310, 70.82520
923.8540, 34.90527
924.9760, 86.29785
926.0990, 111.8760
927.2210, 243.4648
928.3440, 391.0781
929.4660, 386.7090
930.5880, 637.3545
931.7090, 718.0127
932.8310, 996.6836
933.9520, 1286.366
935.0740, 1519.064
936.1950, 1757.777
937.3160, 1740.508
938.4360, 1907.252
939.5570, 1824.009
940.6780, 1637.785
941.7980, 1439.574
942.9180, 1376.378
944.0380, 1379.194
945.1580, 1377.024
946.2780, 1225.886
947.3970, 1396.762
948.5170, 1474.652
949.6360, 1513.560
950.7550, 1911.481
951.8740, 1996.418
952.9930, 2301.369
954.1110, 2419.332
955.2300, 2456.330
956.3480, 2546.341
957.4660, 2664.363
958.5840, 2565.399
959.7020, 2707.449
960.8190, 2933.513
961.9370, 3195.589
963.0540, 3570.680
964.1710, 4156.783
965.2880, 4619.902
966.4050, 5318.034
967.5220, 5894.178
968.6380, 6599.334
969.7550, 6984.503
970.8710, 7226.684
971.9870, 7550.512
973.1030, 7324.240
974.2190, 7110.456
975.3340, 6702.684
976.4500, 6606.924
977.5650, 6488.174
978.6800, 6402.435
979.7950, 6100.707
980.9100, 6110.370
982.0250, 5959.664
983.1390, 5790.156
984.2530, 5160.473
985.3680, 4570.802
986.4820, 4039.141
987.5950, 3463.490
988.7090, 3009.852
989.8230, 2522.222
990.9360, 2177.604
992.0490, 1984.143
993.1620, 1876.545
994.2750, 1516.958
995.3880, 1632.848
996.5010, 1443.280
997.6130, 1462.724
998.7250, 1468.176
999.8370, 1467.939
1000.949, 1494.789
1002.061, 1908.717
1003.173, 1969.364
1004.284, 2006.421
1005.396, 2319.217
1006.507, 2433.737
1007.618, 2813.617
1008.729, 3194.143
1009.839, 3464.674
1010.950, 4284.663
1012.060, 4606.231
1013.171, 5029.445
1014.281, 4986.012
1015.391, 5160.309
1016.500, 5050.676
1017.610, 4533.781
1018.719, 4132.486
1019.829, 3516.342
1020.938, 3004.730
1022.047, 2466.932
1023.156, 2007.456
1024.264, 1572.273
1025.373, 1385.037
1026.481, 1050.662
1027.589, 875.2500
1028.697, 845.8447
1029.805, 649.4531
1030.913, 664.0820
1032.020, 484.7178
1033.128, 460.3525
1034.235, 379.0059
1035.342, 369.6670
1036.449, 376.9102
1037.556, 293.6289
1038.663, 348.5898
1039.769, 254.4590
1040.875, 200.4609
1041.981, 219.2529
1043.087, 193.3115
1044.193, 256.1250
1045.299, 120.2764
1046.404, 338.5205
1047.510, 176.6426
1048.615, 150.2617
1049.720, 251.5625
1050.825, 343.7158
1051.930, 273.6416
1053.034, 299.4805
1054.139, 221.1055
1055.243, 51.31348
1056.347, 194.9727
1057.451, 70.14551
1058.555, 289.1904
1059.658, 136.9482
1060.762, 165.9912
1061.865, 148.9766
1062.968, 286.3242
1064.071, 207.0713
1065.174, 156.8369
1066.277, 126.5762
1067.380, 127.0684
1068.482, 109.0166
1069.584, 214.1533
1070.686, 149.9336
1071.788, 201.7373
1072.890, 166.2021
1073.992, 301.9785
1075.093, 223.0791
1076.194, 299.7822
1077.295, 317.7803
1078.396, 492.2832
1079.497, 373.8291
1080.598, 409.2871
1081.698, 173.0254
1082.799, 372.1562
1083.899, 287.5723
1084.999, 160.5107
1086.099, 306.1621
1087.199, 300.9268
1088.298, 247.5635
1089.398, 254.3213
1090.497, 188.2334
1091.596, 115.1465
1092.695, 272.0068
1093.794, 158.8389
1094.892, 205.9561
1095.991, 120.9238
1097.089, 248.8320
1098.187, 162.8311
1099.285, 92.44434
1100.383, 213.0371
1101.481, 122.5820
1102.579, 86.11914
1103.676, 34.04492
1104.773, 95.55078
1105.870, 68.87695
1106.967, 122.2988
1108.064, 127.7109
1109.161, 177.1143
1110.257, 58.50879
1111.353, 206.8936
1112.449, 58.73145
1113.545, 110.5947
1114.641, 19.49707
1115.737, 162.8057
1116.832, 119.1045
1117.928, 187.3936
1119.023, 198.3955
1120.118, 85.94727
1121.213, 151.4883
1122.308, 150.7402
1123.402, 38.98926
1124.497, 167.3047
1125.591, 209.5303
1126.685, 9.744141
1127.779, 120.0098
1128.873, 92.19727
1129.967, 121.3711
1131.060, 35.46387
1132.153, 36.34180
1133.247, 5.259766
1134.340, 32.20605
1135.433, 85.80957
1136.525, 28.81543
1137.618, 88.80566
1138.710, 34.21484
1139.802, 179.7207
1140.895, 111.6455
1141.987, 18.55859
1143.078, 90.45410
1144.170, 37.66309
1145.261, 95.17480
1146.353, 117.9980
1147.444, 23.25879
1148.535, 82.53711
1149.626, 69.11523
1150.716, 46.24707
1151.807, 22.66016
1152.897, 67.10938
1153.988, 8.377930
1155.078, 49.84375
1156.168, 64.92578
1157.257, 99.10547
1158.347, 127.1611
1159.436, 129.5762
1160.526, 141.9766
1161.615, 170.3652
1162.704, 153.7393
1163.793, 220.0996
1164.881, 198.4463
1165.970, 124.7891
1167.058, 24.12012
1168.147, 130.4307
1169.235, 45.74023
1170.323, 97.03320
1171.410, 70.31152
1172.498, 138.5723
1173.585, 57.81934
1174.673, 48.04980
1175.760, 46.27246
1176.847, 29.52344
1177.934, 50.63477
1179.020, 166.7744
1180.107, 140.9229
1181.193, 167.1729
1182.279, 91.22852
1183.365, 112.3643
1184.451, 157.4844
1185.537, 128.5947
1186.623, 162.6963
1187.708, 85.79199
1188.793, 63.95605
1189.878, 132.9404
1190.963, 9.011719
1192.048, 9.000000
1193.133, 31.75488
1194.217, 275.9482
1195.302, 130.8955
1196.386, 151.8271
1197.470, 24.74121
1198.554, 86.63379
1199.638, 6.508789
1200.721, 126.3525
1201.805, 120.1816
1202.888, 0.9941410
1203.971, 125.7734
1205.054, 57.53613
1206.137, 143.2793
1207.219, 71.00684
1208.302, 47.28418
1209.384, 151.3662
1210.466, 35.00488
1211.548, 16.61816
1212.630, 52.20508
1213.712, 28.77148
1214.794, 79.31445
1215.875, 300.8408
1216.956, 51.65039
1218.037, 284.7979
1219.118, 118.2295
1220.199, 79.71094
1221.280, 78.10742
1222.360, 89.48438
1223.441, 94.84277
1224.521, 48.18359
1225.601, 65.46289
1226.681, 72.16504
1227.760, 60.20605
1228.840, 139.5127
1229.919, 142.7578
1230.999, 234.9863
1232.078, 309.1982
1233.157, 79.39355
1234.236, 184.9336
1235.314, 237.5723
1236.393, 192.1494
1237.471, 280.2822
1238.549, 229.5303
1239.627, 176.6299
1240.705, 205.7158
1241.783, 211.7871
1242.860, 175.7080
1243.938, 34.59570
1245.015, 319.4326
1246.092, 370.4404
1247.169, 289.4482
1248.246, 182.2100
1249.323, 265.1885
1250.399, 79.67383
1251.475, 300.6270
1252.552, 288.9141
1253.628, 128.6943
1254.703, 259.6045
1255.779, 283.5020
1256.855, 131.9170
1257.930, 227.7822
1259.005, 297.6348
1260.080, 264.4727
1261.155, 205.9932
1262.230, 293.4238
1263.305, 324.7773
1264.379, 300.4053
1265.454, 291.1641
1266.528, 354.6289
1267.602, 299.3623
1268.676, 375.7373
1269.750, 440.4541
1270.823, 399.3770
1271.897, 194.6133
1272.970, 231.2627
1274.043, 304.2568
1275.116, 211.3467
1276.189, 342.5068
1277.261, 388.7393
1278.334, 383.9062
1279.406, 386.3564
1280.478, 350.6465
1281.550, 210.4531
1282.622, 336.4668
1283.694, 266.1611
1284.766, 116.9395
1285.837, 312.8955
1286.908, 359.3936
1287.979, 194.2979
1289.050, 230.7949
1290.121, 148.5605
1291.192, 209.0244
1292.262, 200.4756
1293.333, 224.9189
1294.403, 176.1279
1295.473, 297.6025
1296.543, 120.4463
1297.613, 321.9463
1298.682, 267.0547
1299.752, 172.4336
1300.821, 321.5771
1301.890, 199.3330
1302.959, 313.4082
1304.028, 184.3750
1305.096, 236.3086
1306.165, 487.1328
1307.233, 273.0654
1308.301, 362.3232
1309.370, 582.5654
1310.437, 493.7969
1311.505, 405.8584
1312.573, 413.9922
1313.640, 299.1797
1314.708, 348.3447
1315.775, 406.5049
1316.842, 333.4658
1317.908, 247.3213
1318.975, 437.4531
1320.042, 363.2881
1321.108, 410.1689
1322.174, 320.6719
1323.240, 377.7666
1324.306, 335.8291
1325.372, 369.9062
1326.438, 426.2188
1327.503, 230.0615
1328.568, 280.7041
1329.634, 364.6914
1330.699, 129.6426
1331.763, 316.9199
1332.828, 174.8730
1333.893, 230.4912
1334.957, 270.4941
1336.021, 172.1875
1337.085, 203.3662
1338.149, 103.3467
1339.213, 113.5645
1340.277, 136.5869
1341.340, 135.0820
1342.404, 109.2803
1343.467, 158.9365
1344.530, 312.8691
1345.593, 195.6689
1346.655, 199.5811
1347.718, 82.35059
1348.780, 226.9502
1349.843, 210.5352
1350.905, 173.1602
1351.967, 145.8008
1353.028, 160.1406
1354.090, 68.72949
1355.152, 125.2520
1356.213, 86.66895
1357.274, 204.4561
1358.335, 166.2510
1359.396, 262.0723
1360.457, 208.8594
1361.517, 118.3320
1362.578, 169.2520
1363.638, 4.056641
1364.698, 95.84766
1365.758, 64.82520
1366.818, 155.8486
1367.878, 156.0420
1368.937, 105.2012
1369.997, 38.30664
1371.056, 12.93652
1372.115, 160.6836
1373.174, 286.4717
1374.232, 263.1758
1375.291, 9.787109
1376.350, 184.0645
1377.408, 0.7050780
1378.466, 177.6885
1379.524, 19.58398
1380.582, 161.7002
1381.640, 169.8545
1382.697, 401.9111
1383.754, 264.5498
1384.812, 171.4482
1385.869, 198.0791
1386.926, 208.0146
1387.983, 248.9785
1389.039, 171.6074
1390.096, 152.9199
1391.152, 179.5605
1392.208, 132.2109
1393.264, 145.6250
1394.320, 184.4961
1395.376, 99.49902
1396.431, 165.2539
1397.487, 48.00781
1398.542, 123.9199
1399.597, 100.5850
1400.652, 123.2119
1401.707, 4.850586
1402.762, 36.48047
1403.816, 67.85938
1404.871, 76.00293
1405.925, 219.7334
1406.979, 124.7148
1408.033, 86.38379
1409.086, 81.97363
1410.140, 77.55371
1411.194, 2.111328
1412.247, 4.349609
1413.300, 93.48047
1414.353, 11.98828
1415.406, 98.47656
1416.458, 30.91895
1417.511, 138.6504
1418.563, 177.3467
1419.616, 133.5000
1420.668, 40.13965
1421.720, 89.19141
1422.772, 220.5029
1423.823, 45.21289
1424.875, 86.02441
1425.926, 77.24219
1426.977, 114.4395
1428.028, 12.81348
1429.079, 98.95898
1430.130, 162.0078
1431.180, 231.9873
1432.231, 278.8037
1433.281, 280.8584
1434.331, 288.7432
1435.381, 251.6611
1436.431, 101.4365
1437.481, 217.1699
1438.530, 187.9463
1439.580, 428.0107
1440.629, 299.0869
1441.678, 424.9102
1442.727, 525.7295
1443.776, 390.5537
1444.824, 567.3955
1445.873, 594.2354
1446.921, 555.0732
1447.969, 554.9170
1449.017, 633.7637
1450.065, 484.6250
1451.113, 778.4854
1452.160, 626.3662
1453.208, 512.2666
1454.255, 681.1836
1455.302, 609.1094
1456.349, 729.0615
1457.396, 723.9619
1458.443, 630.9414
1459.489, 547.9287
1460.535, 648.7793
1461.582, 542.7275
1462.628, 586.7324
1463.674, 653.7412
1464.719, 367.7549
1465.765, 362.2275
1466.810, 490.0684
1467.856, 385.0713
1468.901, 374.6641
1469.946, 360.6553
1470.991, 384.5898
1472.035, 377.8320
1473.080, 188.9258
1474.124, 243.8145
1475.169, 260.7002
1476.213, 374.5869
1477.257, 186.4727
1478.300, 262.3486
1479.344, 84.21777
1480.388, 331.0898
1481.431, 345.9512
1482.474, 260.4893
1483.517, 233.3545
1484.560, 374.0996
1485.603, 139.8838
1486.645, 136.6465
1487.688, 76.17871
1488.730, 191.9814
1489.772, 167.6572
1490.814, 62.68750
1491.856, 49.90625
1492.898, 22.60645
1493.939, 20.44727
1494.981, 19.48828
1496.022, 94.73145
1497.063, 8.534180
1498.104, 83.06543
1499.145, 54.36035
1500.186, 27.23242
1501.226, 63.83887
1502.266, 14.52539
1503.307, 119.1348
1504.347, 6.199219
1505.387, 93.45898
1506.426, 86.10547
1507.466, 12.74219
1508.505, 124.3662
1509.545, 32.97754
1510.584, 162.5703
1511.623, 36.14746
1512.662, 32.70312
1513.700, 221.2412
1514.739, 13.24609
1515.777, 110.2471
1516.815, 149.7217
1517.854, 200.2031
1518.892, 181.9785
1519.929, 33.20117
1520.967, 85.69238
1522.004, 85.15723
1523.042, 46.26953
1524.079, 104.6758
1525.116, 133.0713
1526.153, 149.6416
1527.190, 145.7783
1528.226, 114.7285
1529.263, 61.98828
1530.299, 96.84473
1531.335, 42.68750
1532.371, 85.89258
1533.407, 116.0967
1534.443, 149.9170
1535.478, 292.0889
1536.514, 186.1875
1537.549, 31.12109
1538.584, 162.9229
1539.619, 200.3281
1540.654, 259.6953
1541.689, 10.96484
1542.723, 28.12402
1543.757, 2.386719
1544.792, 146.1475
1545.826, 177.1436
1546.860, 175.7480
1547.893, 207.6826
1548.927, 137.0488
1549.960, 152.4990
1550.994, 106.1172
1552.027, 35.59180
1553.060, 194.8467
1554.093, 169.0088
1555.126, 256.7480
1556.158, 111.4590
1557.191, 166.6309
1558.223, 76.65039
1559.255, 36.63770
1560.287, 131.4014
1561.319, 62.14551
1562.350, 156.6113
1563.382, 0.4726560
1564.413, 0.0000000E+00
##END=



