##NAMES=Amesite
##RRUFFID=R070132
##IDEAL CHEMISTRY=Mg_2_Al(AlSiO_5_)(OH)_4_
##LOCALITY=Saranovskii mine, Saranovskaya Village, Gornozavodskii area, Permskaya Oblast', Middle Urals, Russia
##OWNER=RRUFF
##SOURCE=Michael Scott
##DESCRIPTION=Purple transparent hexagonal prisms, polytype 2H2
##STATUS=The identification of this mineral is confirmed by single-crystal X-ray diffraction and chemical analysis.
##URL=rruff.info/R070132
##MEASURED CHEMISTRY=(Mg_1.87_[box]_0.05_Cr_0.05_Fe^2+^_0.03_)_Σ=2_(Al_0.98_Cr_0.02_)_Σ=1_(Si_1.05_Al_0.95_)O_5_(OH)_4_ ; OH estimated by difference
##PIN_ID=M00364
147.4850, 0.0000000E+00
148.7160, 144.0400
149.9470, 2.972656
151.1780, 45.64600
152.4080, 85.70215
153.6380, 37.40479
154.8690, 46.42236
156.0980, 124.2593
157.3280, 78.70215
158.5580, 4.373047
159.7870, 59.93457
161.0170, 72.45605
162.2460, 69.36914
163.4750, 42.47949
164.7030, 109.7920
165.9320, 36.39258
167.1600, 52.24121
168.3890, 163.7666
169.6170, 52.87012
170.8450, 126.2471
172.0730, 54.66406
173.3000, 16.05176
174.5280, 230.9658
175.7550, 230.6133
176.9820, 331.8105
178.2090, 382.4961
179.4350, 476.6172
180.6620, 640.1338
181.8880, 849.0146
183.1150, 1025.232
184.3410, 1248.766
185.5670, 1737.866
186.7920, 2050.565
188.0180, 2473.969
189.2430, 3169.500
190.4690, 3916.662
191.6940, 4553.486
192.9180, 5345.018
194.1430, 6090.301
195.3680, 7019.373
196.5920, 8044.268
197.8160, 9183.018
199.0400, 10500.64
200.2640, 11995.17
201.4880, 13773.41
202.7110, 15817.03
203.9350, 17980.39
205.1580, 20504.72
206.3810, 23263.04
207.6040, 26865.36
208.8270, 30880.69
210.0490, 35563.02
211.2710, 40485.40
212.4940, 44346.80
213.7160, 46365.23
214.9370, 45767.73
216.1590, 42305.26
217.3810, 36819.86
218.6020, 30315.52
219.8230, 24159.25
221.0440, 18571.04
222.2650, 14136.81
223.4860, 10744.52
224.7060, 8263.188
225.9260, 6395.513
227.1470, 5227.890
228.3670, 4329.166
229.5860, 3382.484
230.8060, 3073.492
232.0260, 2748.027
233.2450, 2328.721
234.4640, 2225.568
235.6830, 1894.580
236.9020, 1906.760
238.1200, 1799.109
239.3390, 2042.627
240.5570, 2119.312
241.7750, 2020.160
242.9930, 2224.170
244.2110, 2315.336
245.4290, 2296.658
246.6460, 2409.135
247.8630, 2229.760
249.0810, 2158.533
250.2980, 2142.453
251.5140, 2183.519
252.7310, 2443.726
253.9470, 2825.073
255.1640, 3357.559
256.3800, 3933.182
257.5960, 3796.941
258.8120, 3702.834
260.0270, 3167.854
261.2430, 2582.986
262.4580, 1939.227
263.6730, 1549.572
264.8880, 1439.023
266.1030, 1399.582
267.3170, 1339.246
268.5320, 1195.016
269.7460, 1279.891
270.9600, 1314.871
272.1740, 1475.957
273.3880, 1580.148
274.6010, 1523.444
275.8150, 1621.844
277.0280, 1411.348
278.2410, 1434.953
279.4540, 1591.663
280.6670, 1605.474
281.8790, 1847.388
283.0920, 1863.400
284.3040, 1930.516
285.5160, 2107.729
286.7280, 2346.042
287.9400, 2534.454
289.1510, 2383.965
290.3630, 2526.571
291.5740, 2302.275
292.7850, 1756.075
293.9960, 1213.400
295.2070, 849.4600
296.4170, 454.2295
297.6280, 176.1299
298.8380, 209.7832
300.0480, 132.6992
301.2580, 228.3779
302.4680, 368.1553
303.6770, 488.8096
304.8870, 407.2119
306.0960, 342.6436
307.3050, 265.9746
308.5140, 258.3779
309.7230, 240.3828
310.9310, 148.2402
312.1400, 11.91797
313.3480, 217.5947
314.5560, 393.2812
315.7640, 428.1270
316.9720, 391.1660
318.1790, 435.3496
319.3870, 379.5352
320.5940, 401.1123
321.8010, 652.8496
323.0080, 1011.765
324.2150, 1244.819
325.4210, 1299.004
326.6280, 1561.322
327.8340, 1833.753
329.0400, 2078.272
330.2460, 2016.871
331.4510, 2219.549
332.6570, 2222.295
333.8620, 2701.089
335.0680, 3388.929
336.2730, 4346.816
337.4780, 4811.750
338.6820, 4608.734
339.8870, 4012.770
341.0910, 3310.856
342.2950, 2882.997
343.5000, 2534.189
344.7030, 2631.437
345.9070, 2367.738
347.1110, 2235.097
348.3140, 1930.509
349.5170, 1700.978
350.7200, 1414.502
351.9230, 1255.082
353.1260, 776.7188
354.3290, 715.4111
355.5310, 600.1602
356.7330, 760.9648
357.9350, 563.8262
359.1370, 621.7412
360.3390, 788.7148
361.5400, 716.7422
362.7420, 541.8252
363.9430, 653.9629
365.1440, 577.1543
366.3450, 843.4004
367.5460, 777.7002
368.7460, 724.9824
369.9470, 627.1973
371.1470, 568.1436
372.3470, 679.8789
373.5470, 740.5078
374.7460, 1023.084
375.9460, 1371.728
377.1450, 1720.440
378.3450, 2289.221
379.5440, 2605.070
380.7430, 2886.986
381.9410, 2940.971
383.1400, 2845.021
384.3380, 2899.137
385.5370, 2757.315
386.7350, 3086.561
387.9320, 3103.868
389.1300, 3025.238
390.3280, 3333.671
391.5250, 3819.165
392.7220, 3988.720
393.9190, 3714.334
395.1160, 3621.009
396.3130, 3110.741
397.5100, 2987.532
398.7060, 3008.381
399.9020, 3491.285
401.0980, 3954.247
402.2940, 4726.265
403.4900, 6136.336
404.6860, 7391.465
405.8810, 8990.645
407.0760, 10456.88
408.2710, 11538.17
409.4660, 11989.51
410.6610, 12185.90
411.8550, 12858.34
413.0500, 13584.84
414.2440, 14980.38
415.4380, 17040.98
416.6320, 19778.63
417.8260, 22478.32
419.0190, 24848.06
420.2130, 25563.86
421.4060, 24272.69
422.5990, 21351.58
423.7920, 17231.52
424.9850, 13738.49
426.1770, 10604.52
427.3700, 8419.586
428.5620, 6813.701
429.7540, 5791.863
430.9460, 5129.065
432.1380, 4764.312
433.3290, 4665.604
434.5210, 4721.934
435.7120, 4928.309
436.9030, 5336.725
438.0940, 5336.189
439.2850, 5362.705
440.4750, 5158.273
441.6660, 4687.584
442.8560, 4296.340
444.0460, 3828.653
445.2360, 3546.582
446.4260, 3405.854
447.6160, 3472.057
448.8050, 3743.346
449.9940, 3616.216
451.1830, 3606.847
452.3720, 3617.154
453.5610, 3512.576
454.7500, 3451.908
455.9380, 3373.117
457.1260, 3210.332
458.3150, 3037.441
459.5020, 2846.677
460.6900, 2716.647
461.8780, 2514.023
463.0650, 2493.434
464.2530, 2464.605
465.4400, 2596.782
466.6270, 2798.348
467.8130, 3278.085
469.0000, 3800.259
470.1870, 4434.471
471.3730, 5345.006
472.5590, 6355.689
473.7450, 7474.395
474.9310, 8632.133
476.1160, 9751.889
477.3020, 10814.68
478.4870, 11520.50
479.6720, 12291.37
480.8570, 12781.27
482.0420, 13372.19
483.2270, 14045.15
484.4110, 14776.14
485.5960, 15236.14
486.7800, 15557.19
487.9640, 15847.25
489.1480, 16151.35
490.3310, 16629.47
491.5150, 16995.62
492.6980, 16864.82
493.8810, 15764.04
495.0640, 14092.29
496.2470, 11980.56
497.4300, 9737.851
498.6120, 7971.156
499.7950, 6328.479
500.9770, 5028.820
502.1590, 4148.176
503.3410, 3256.550
504.5220, 2937.939
505.7040, 2610.344
506.8850, 2169.766
508.0660, 2055.201
509.2470, 1895.652
510.4280, 1881.119
511.6090, 1851.599
512.7890, 2071.095
513.9700, 1997.606
515.1500, 2194.135
516.3300, 2573.681
517.5100, 2495.244
518.6900, 2700.824
519.8690, 2960.420
521.0490, 3278.033
522.2280, 4023.662
523.4070, 4301.306
524.5860, 4857.966
525.7640, 5916.638
526.9430, 6422.326
528.1210, 7449.027
529.3000, 8285.740
530.4780, 9022.470
531.6560, 9934.209
532.8330, 10697.96
534.0110, 11445.72
535.1880, 11808.50
536.3650, 11607.29
537.5430, 11494.08
538.7190, 11110.89
539.8960, 10424.71
541.0730, 9730.533
542.2490, 8991.365
543.4250, 8266.212
544.6020, 7764.064
545.7780, 7070.924
546.9530, 6561.792
548.1290, 5897.668
549.3040, 5570.551
550.4800, 4989.439
551.6550, 4523.335
552.8300, 4142.235
554.0040, 3790.143
555.1790, 3423.054
556.3540, 2987.969
557.5280, 2711.891
558.7020, 2281.815
559.8760, 2046.743
561.0500, 1898.676
562.2230, 1451.610
563.3970, 1312.549
564.5700, 1087.489
565.7430, 1081.432
566.9160, 963.3760
568.0890, 746.3223
569.2620, 592.2686
570.4340, 555.2168
571.6070, 474.1650
572.7790, 351.1143
573.9510, 272.0625
575.1230, 303.0117
576.2940, 194.9590
577.4660, 194.9053
578.6370, 80.85156
579.8080, 134.7939
580.9790, 95.73438
582.1500, 4.327148
583.3210, 64.42188
584.4910, 62.45801
585.6620, 60.65039
586.8320, 217.2197
588.0020, 65.83984
589.1720, 2.869141
590.3410, 0.1474610
591.5110, 103.8066
592.6800, 215.8037
593.8500, 120.9072
595.0190, 189.0703
596.1880, 178.3496
597.3560, 120.7627
598.5250, 101.2832
599.6930, 244.9004
600.8620, 79.69141
602.0300, 307.5693
603.1970, 290.6562
604.3650, 173.9424
605.5330, 252.3682
606.7000, 113.9756
607.8680, 83.69141
609.0350, 105.5000
610.2020, 25.41602
611.3680, 75.69531
612.5350, 173.8252
613.7010, 390.5977
614.8680, 508.4062
616.0340, 751.3779
617.2000, 1033.334
618.3660, 1493.619
619.5310, 1896.102
620.6970, 2296.864
621.8620, 2504.744
623.0270, 2453.587
624.1920, 2190.773
625.3570, 1933.654
626.5220, 1702.200
627.6860, 1368.355
628.8500, 1193.014
630.0140, 951.8428
631.1780, 661.7832
632.3420, 733.1768
633.5060, 461.9648
634.6700, 331.7949
635.8330, 317.5518
636.9960, 291.2949
638.1590, 259.0225
639.3220, 239.9053
640.4850, 226.4355
641.6470, 259.1240
642.8100, 249.8115
643.9720, 406.4893
645.1340, 462.1680
646.2960, 436.8477
647.4570, 385.5146
648.6190, 472.1816
649.7800, 512.8516
650.9420, 521.5059
652.1030, 454.1514
653.2640, 589.7812
654.4240, 577.3945
655.5850, 495.9912
656.7450, 569.5713
657.9060, 559.1357
659.0660, 645.6816
660.2260, 678.2119
661.3850, 684.7256
662.5450, 762.2217
663.7040, 820.7002
664.8640, 970.1621
666.0230, 1189.606
667.1820, 1224.034
668.3410, 1219.443
669.4990, 1621.836
670.6580, 1827.210
671.8160, 2300.566
672.9740, 2590.906
674.1320, 2955.229
675.2900, 3511.531
676.4480, 3979.816
677.6050, 4623.086
678.7630, 5126.334
679.9200, 6108.566
681.0770, 6746.779
682.2340, 7186.976
683.3900, 7586.152
684.5470, 7700.312
685.7030, 7609.451
686.8590, 7132.574
688.0150, 6742.678
689.1710, 6125.762
690.3270, 5725.829
691.4830, 5359.877
692.6380, 5310.907
693.7930, 5294.918
694.9480, 5701.912
696.1030, 6370.886
697.2580, 7098.842
698.4130, 8744.779
699.5670, 10407.70
700.7210, 12195.60
701.8750, 13240.48
703.0290, 14317.34
704.1830, 15838.19
705.3370, 16391.01
706.4900, 16664.82
707.6430, 15983.61
708.7970, 14703.38
709.9490, 13319.13
711.1020, 11420.87
712.2550, 9837.577
713.4070, 8169.275
714.5600, 6890.953
715.7120, 5759.613
716.8640, 4870.255
718.0160, 4027.879
719.1670, 3496.483
720.3190, 2897.070
721.4700, 2533.953
722.6210, 2200.087
723.7720, 1958.314
724.9230, 1658.489
726.0740, 1579.988
727.2250, 1392.640
728.3750, 1282.101
729.5250, 1138.650
730.6750, 979.6055
731.8250, 833.4287
732.9750, 810.1055
734.1240, 739.4053
735.2740, 538.2812
736.4230, 585.6797
737.5720, 519.2119
738.7210, 418.6475
739.8700, 402.3721
741.0190, 325.1787
742.1670, 224.0596
743.3150, 230.6631
744.4630, 112.2881
745.6110, 78.54688
746.7590, 58.66113
747.9070, 12.36230
749.0540, 61.04883
750.2020, 44.43262
751.3490, 44.37500
752.4960, 12.04395
753.6430, 32.20410
754.7890, 15.54980
755.9360, 39.31738
757.0820, 43.11035
758.2280, 48.38184
759.3740, 33.78223
760.5200, 15.65430
761.6660, 3.539063
762.8120, 29.56934
763.9570, 64.32324
765.1020, 4.252930
766.2470, 33.18750
767.3920, 30.85547
768.5370, 21.09961
769.6810, 148.0693
770.8260, 84.88379
771.9700, 39.20215
773.1140, 134.7705
774.2580, 18.70312
775.4020, 80.63574
776.5460, 306.5693
777.6890, 295.0430
778.8320, 266.6572
779.9750, 451.4121
781.1180, 492.6230
782.2610, 560.4062
783.4040, 535.6797
784.5460, 560.4160
785.6890, 782.7188
786.8310, 828.0264
787.9730, 964.9746
789.1150, 900.3926
790.2560, 844.3320
791.3980, 1081.273
792.5390, 1054.216
793.6810, 1027.159
794.8220, 854.1035
795.9630, 855.0479
797.1030, 926.9941
798.2440, 976.9414
799.3840, 994.8916
800.5240, 919.8418
801.6650, 967.7949
802.8040, 1190.749
803.9440, 1205.706
805.0840, 1369.665
806.2230, 1509.627
807.3630, 1591.590
808.5020, 1693.917
809.6410, 1653.526
810.7790, 1835.501
811.9180, 1852.478
813.0570, 1930.457
814.1950, 1847.439
815.3330, 2002.426
816.4710, 2017.416
817.6090, 2061.410
818.7470, 2130.408
819.8840, 2357.411
821.0220, 2334.417
822.1590, 2526.426
823.2960, 2168.440
824.4330, 2074.459
825.5690, 2052.483
826.7060, 2003.512
827.8420, 1908.725
828.9790, 1825.864
830.1150, 1700.639
831.2510, 1626.697
832.3860, 1463.762
833.5220, 1417.834
834.6570, 1302.910
835.7930, 1074.992
836.9280, 1222.082
838.0630, 1046.186
839.1980, 874.2939
840.3320, 868.4268
841.4670, 747.5664
842.6010, 710.7129
843.7350, 621.8652
844.8690, 498.0264
846.0030, 467.1943
847.1370, 341.3701
848.2700, 363.5635
849.4040, 341.7686
850.5370, 371.9824
851.6700, 323.3936
852.8030, 262.4326
853.9360, 234.6875
855.0680, 253.9512
856.2000, 228.2256
857.3330, 200.5098
858.4650, 316.8174
859.5970, 306.1650
860.7290, 176.5332
861.8600, 122.9414
862.9920, 294.3867
864.1230, 103.8760
865.2540, 317.3906
866.3850, 217.9326
867.5160, 220.5273
868.6460, 201.2100
869.7770, 40.95312
870.9070, 197.7979
872.0370, 119.7178
873.1670, 242.7090
874.2970, 189.7842
875.4270, 224.9775
876.5570, 253.2236
877.6860, 346.5830
878.8150, 506.0479
879.9440, 729.6025
881.0730, 908.2539
882.2020, 911.9678
883.3300, 1034.756
884.4590, 1043.605
885.5870, 935.4961
886.7150, 1071.435
887.8430, 934.3848
888.9710, 794.5391
890.0990, 784.5332
891.2260, 531.5420
892.3530, 598.2451
893.4810, 339.7510
894.6080, 249.9766
895.7340, 255.1035
896.8610, 287.2656
897.9880, 327.0850
899.1140, 67.20996
900.2400, 48.66797
901.3660, 61.51562
902.4920, 235.8711
903.6180, 92.05469
904.7430, 91.12598
905.8690, 117.7520
906.9940, 6.983398
908.1190, 155.1709
909.2440, 67.42871
910.3690, 106.7002
911.4930, 19.00098
912.6180, 24.68652
913.7420, 29.36621
914.8660, 83.57129
915.9900, 46.72754
917.1140, 104.4160
918.2380, 94.12207
919.3610, 32.84766
920.4850, 94.55469
921.6080, 114.2803
922.7310, 2.967773
923.8540, 51.77051
924.9760, 30.49023
926.0990, 231.7627
927.2210, 175.0479
928.3440, 234.3467
929.4660, 405.6582
930.5880, 529.9824
931.7090, 738.3291
932.8310, 703.6895
933.9520, 928.0645
935.0740, 1358.451
936.1950, 1346.852
937.3160, 1425.264
938.4360, 1754.690
939.5570, 1582.129
940.6780, 1524.579
941.7980, 1311.041
942.9180, 1255.516
944.0380, 1241.003
945.1580, 1322.501
946.2780, 1222.016
947.3970, 1244.546
948.5170, 1393.090
949.6360, 1532.646
950.7550, 1848.215
951.8740, 2049.798
952.9930, 2186.392
954.1110, 2403.997
955.2300, 2398.613
956.3480, 2333.242
957.4660, 2281.881
958.5840, 2332.533
959.7020, 2375.197
960.8190, 2494.871
961.9370, 2485.559
963.0540, 2839.256
964.1710, 3122.072
965.2880, 3698.791
966.4050, 4281.529
967.5220, 4987.270
968.6380, 5522.019
969.7550, 6102.820
970.8710, 6379.615
971.9870, 6410.043
973.1030, 6414.867
974.2190, 6572.294
975.3340, 6448.107
976.4500, 6625.930
977.5650, 6838.763
978.6800, 6931.795
979.7950, 7332.647
980.9100, 7457.508
982.0250, 7332.732
983.1390, 7122.529
984.2530, 6495.419
985.3680, 5778.336
986.4820, 5050.242
987.5950, 4457.184
988.7090, 3849.756
989.8230, 3341.241
990.9360, 2827.746
992.0490, 2486.692
993.1620, 2146.647
994.2750, 1861.569
995.3880, 1808.704
996.5010, 1657.104
997.6130, 1689.390
998.7250, 1647.452
999.8370, 1748.713
1000.949, 1872.715
1002.061, 2111.108
1003.173, 2394.122
1004.284, 2482.756
1005.396, 2654.942
1006.507, 3009.731
1007.618, 3223.931
1008.729, 3692.342
1009.839, 4426.668
1010.950, 4791.287
1012.060, 5449.322
1013.171, 5712.639
1014.281, 5772.675
1015.391, 5640.945
1016.500, 5599.166
1017.610, 4844.768
1018.719, 4474.742
1019.829, 3909.067
1020.938, 3292.269
1022.047, 2606.345
1023.156, 2219.727
1024.264, 1829.892
1025.373, 1401.782
1026.481, 1265.814
1027.589, 1016.181
1028.697, 740.2334
1029.805, 731.3896
1030.913, 626.6533
1032.020, 627.7109
1033.128, 634.7637
1034.235, 597.8301
1035.342, 591.5645
1036.449, 506.5137
1037.556, 490.7334
1038.663, 424.0781
1039.769, 261.1748
1040.875, 354.5889
1041.981, 312.8242
1043.087, 402.9131
1044.193, 385.7705
1045.299, 337.8916
1046.404, 324.4395
1047.510, 293.6875
1048.615, 282.9043
1049.720, 259.5723
1050.825, 272.7764
1051.930, 217.4775
1053.034, 209.7607
1054.139, 194.4189
1055.243, 235.3301
1056.347, 174.7295
1057.451, 125.3379
1058.555, 219.3340
1059.658, 78.32422
1060.762, 193.4932
1061.865, 275.7334
1062.968, 196.7920
1064.071, 183.1689
1065.174, 66.50879
1066.277, 198.8340
1067.380, 129.7715
1068.482, 261.9434
1069.584, 243.0693
1070.686, 236.2803
1071.788, 153.1846
1072.890, 287.1523
1073.992, 205.0400
1075.093, 94.91895
1076.194, 174.7891
1077.295, 276.8301
1078.396, 262.6084
1079.497, 327.2432
1080.598, 434.5332
1081.698, 245.4834
1082.799, 204.5918
1083.899, 236.9902
1084.999, 292.7842
1086.099, 340.6289
1087.199, 264.4170
1088.298, 198.1807
1089.398, 98.93359
1090.497, 331.8252
1091.596, 117.8145
1092.695, 117.6025
1093.794, 202.3135
1094.892, 90.01172
1095.991, 19.29980
1097.089, 68.36426
1098.187, 63.01074
1099.285, 82.64453
1100.383, 126.2676
1101.481, 59.93555
1102.579, 64.53320
1103.676, 9.585938
1104.773, 65.97363
1105.870, 40.48047
1106.967, 128.0215
1108.064, 129.5127
1109.161, 143.0244
1110.257, 35.49219
1111.353, 109.9453
1112.449, 105.3848
1113.545, 18.18750
1114.641, 5.205078
1115.737, 151.5762
1116.832, 81.93262
1117.928, 101.2783
1119.023, 43.39160
1120.118, 233.8906
1121.213, 22.16016
1122.308, 27.41211
1123.402, 194.6475
1124.497, 188.8682
1125.591, 8.923828
1126.685, 58.25195
1127.779, 79.58691
1128.873, 38.50391
1129.967, 83.57910
1131.060, 44.63867
1132.153, 167.6826
1133.247, 1.711914
1134.340, 138.7148
1135.433, 65.29688
1136.525, 67.62695
1137.618, 19.46387
1138.710, 73.59277
1139.802, 76.79004
1140.895, 47.94336
1141.987, 23.65918
1143.078, 116.3545
1144.170, 26.96289
1145.261, 114.6768
1146.353, 58.30078
1147.444, 57.08984
1148.535, 26.45898
1149.626, 12.98730
1150.716, 90.50195
1151.807, 75.93164
1152.897, 54.65137
1153.988, 46.70605
1155.078, 85.04590
1156.168, 51.62793
1157.257, 137.6396
1158.347, 51.89355
1159.436, 37.86426
1160.526, 98.32715
1161.615, 73.50488
1162.704, 149.6650
1163.793, 169.8096
1164.881, 185.4590
1165.970, 14.94531
1167.058, 186.1309
1168.147, 87.19336
1169.235, 10.76172
1170.323, 146.2520
1171.410, 55.25488
1172.498, 93.24121
1173.585, 139.2090
1174.673, 34.83691
1175.760, 112.0674
1176.847, 185.9570
1177.934, 114.8340
1179.020, 108.6982
1180.107, 82.55859
1181.193, 45.40820
1182.279, 180.2568
1183.365, 23.89648
1184.451, 172.9121
1185.537, 66.71973
1186.623, 48.52930
1187.708, 110.3203
1188.793, 197.1016
1189.878, 133.8672
1190.963, 86.61523
1192.048, 68.34863
1193.133, 110.0615
1194.217, 14.24023
1195.302, 51.41992
1196.386, 52.06250
1197.470, 154.6855
1198.554, 75.29297
1199.638, 83.88086
1200.721, 62.45410
1201.805, 151.0078
1202.888, 116.5459
1203.971, 186.0684
1205.054, 141.5752
1206.137, 171.0654
1207.219, 91.54297
1208.302, 12.00098
1209.384, 17.43652
1210.466, 43.84961
1211.548, 104.2432
1212.630, 64.62109
1213.712, 29.97949
1214.794, 181.3184
1215.875, 120.6436
1216.956, 131.9521
1218.037, 189.2451
1219.118, 156.5234
1220.199, 99.78711
1221.280, 74.03516
1222.360, 119.2646
1223.441, 180.4795
1224.521, 162.6797
1225.601, 159.8643
1226.681, 131.9375
1227.760, 153.1123
1228.840, 275.2510
1229.919, 139.3770
1230.999, 120.4893
1232.078, 321.5488
1233.157, 63.60742
1234.236, 265.0293
1235.314, 218.0518
1236.393, 255.4688
1237.471, 241.9668
1238.549, 121.9824
1239.627, 180.9834
1240.705, 178.7832
1241.783, 207.7598
1242.860, 270.7383
1243.938, 261.6973
1245.015, 257.3857
1246.092, 281.3262
1247.169, 302.2334
1248.246, 307.1494
1249.323, 318.0254
1250.399, 274.9336
1251.475, 328.4160
1252.552, 193.9463
1253.628, 282.8203
1254.703, 438.6816
1255.779, 290.5713
1256.855, 414.2441
1257.930, 248.6533
1259.005, 314.1777
1260.080, 305.9238
1261.155, 336.4678
1262.230, 257.2637
1263.305, 291.6621
1264.379, 304.4414
1265.454, 299.8174
1266.528, 433.2158
1267.602, 350.2275
1268.676, 370.8232
1269.750, 392.1992
1270.823, 511.6533
1271.897, 397.8096
1272.970, 258.8115
1274.043, 341.2529
1275.116, 303.9658
1276.189, 471.4365
1277.261, 382.9580
1278.334, 311.0771
1279.406, 315.0371
1280.478, 375.4102
1281.550, 325.8994
1282.622, 442.5010
1283.694, 320.7920
1284.766, 232.4658
1285.837, 153.3262
1286.908, 354.9502
1287.979, 295.7852
1289.050, 252.3926
1290.121, 294.1084
1291.192, 252.6113
1292.262, 289.1953
1293.333, 196.7705
1294.403, 144.3369
1295.473, 359.4580
1296.543, 292.0400
1297.613, 340.4238
1298.682, 302.7715
1299.752, 259.5537
1300.821, 345.7451
1301.890, 397.1143
1302.959, 307.8945
1304.028, 395.6104
1305.096, 258.3037
1306.165, 516.7754
1307.233, 323.1826
1308.301, 453.5537
1309.370, 590.8057
1310.437, 463.8223
1311.505, 556.2480
1312.573, 400.6133
1313.640, 347.0225
1314.708, 383.1572
1315.775, 434.1504
1316.842, 421.4551
1317.908, 484.8398
1318.975, 375.2207
1320.042, 476.4092
1321.108, 513.5176
1322.174, 423.7949
1323.240, 422.7441
1324.306, 425.7197
1325.372, 311.6973
1326.438, 357.9512
1327.503, 286.1621
1328.568, 366.3037
1329.634, 373.3535
1330.699, 357.6963
1331.763, 244.9648
1332.828, 259.3037
1333.893, 262.6387
1334.957, 288.9717
1336.021, 198.1230
1337.085, 217.5264
1338.149, 291.0615
1339.213, 201.9307
1340.277, 214.1230
1341.340, 217.1494
1342.404, 283.8721
1343.467, 193.1904
1344.530, 221.4453
1345.593, 189.7461
1346.655, 181.0596
1347.718, 248.3721
1348.780, 262.5342
1349.843, 243.4180
1350.905, 288.8291
1351.967, 177.1377
1353.028, 120.4463
1354.090, 45.75293
1355.152, 43.33008
1356.213, 46.94531
1357.274, 98.69043
1358.335, 93.00195
1359.396, 168.2559
1360.457, 146.5674
1361.517, 223.6582
1362.578, 264.9668
1363.638, 195.6709
1364.698, 16.73633
1365.758, 158.7412
1366.818, 70.35938
1367.878, 98.66406
1368.937, 241.4414
1369.997, 73.33496
1371.056, 231.6211
1372.115, 283.3711
1373.174, 198.8574
1374.232, 218.1543
1375.291, 185.6689
1376.350, 198.9678
1377.408, 189.2217
1378.466, 179.8398
1379.524, 159.7207
1380.582, 153.3125
1381.640, 125.5293
1382.697, 84.96777
1383.754, 147.3066
1384.812, 69.60352
1385.869, 216.1445
1386.926, 115.1963
1387.983, 135.7051
1389.039, 158.2383
1390.096, 216.6211
1391.152, 200.7939
1392.208, 151.9668
1393.264, 166.0986
1394.320, 156.6621
1395.376, 84.83301
1396.431, 150.3711
1397.487, 66.95215
1398.542, 78.17285
1399.597, 1.676758
1400.652, 86.18164
1401.707, 149.8389
1402.762, 299.3584
1403.816, 63.87500
1404.871, 128.4121
1405.925, 30.99512
1406.979, 88.48145
1408.033, 111.0889
1409.086, 255.5947
1410.140, 93.15723
1411.194, 26.65918
1412.247, 47.10059
1413.300, 203.5234
1414.353, 35.08105
1415.406, 107.2832
1416.458, 19.62793
1417.511, 43.82812
1418.563, 72.99219
1419.616, 95.13379
1420.668, 104.6992
1421.720, 44.30859
1422.772, 64.36133
1423.823, 104.3789
1424.875, 25.56445
1425.926, 28.61523
1426.977, 133.2900
1428.028, 131.1582
1429.079, 4.987305
1430.130, 175.7832
1431.180, 6.565430
1432.231, 138.3164
1433.281, 216.0312
1434.331, 244.7178
1435.381, 280.4297
1436.431, 191.0684
1437.481, 270.6895
1438.530, 210.6270
1439.580, 269.2246
1440.629, 378.4639
1441.678, 303.1680
1442.727, 414.8779
1443.776, 561.5938
1444.824, 497.3174
1445.873, 507.0713
1446.921, 482.8350
1447.969, 517.6074
1449.017, 488.3906
1450.065, 615.1816
1451.113, 557.9805
1452.160, 659.7920
1453.208, 548.6250
1454.255, 521.4717
1455.302, 679.3330
1456.349, 623.2041
1457.396, 623.0859
1458.443, 586.9795
1459.489, 542.8828
1460.535, 597.7871
1461.582, 675.6846
1462.628, 558.6201
1463.674, 441.5693
1464.719, 520.5303
1465.765, 465.9102
1466.810, 371.8779
1467.856, 352.8555
1468.901, 337.8018
1469.946, 203.7539
1470.991, 375.7168
1472.035, 304.6670
1473.080, 229.5996
1474.124, 198.5400
1475.169, 335.4932
1476.213, 284.4268
1477.257, 276.3555
1478.300, 266.2910
1479.344, 183.2148
1480.388, 255.0791
1481.431, 195.9814
1482.474, 266.8037
1483.517, 133.2568
1484.560, 191.1191
1485.603, 131.9668
1486.645, 82.09375
1487.688, 204.7568
1488.730, 23.32520
1489.772, 40.03027
1490.814, 63.31836
1491.856, 30.60449
1492.898, 120.4580
1493.939, 17.12793
1494.981, 45.04199
1496.022, 133.6387
1497.063, 19.50977
1498.104, 62.88477
1499.145, 111.2861
1500.186, 57.23438
1501.226, 147.2188
1502.266, 53.75781
1503.307, 27.30762
1504.347, 89.39160
1505.387, 50.48535
1506.426, 337.5879
1507.466, 160.0273
1508.505, 519.8125
1509.545, 13.06641
1510.584, 5.9570000E-02
1511.623, 16.18945
1512.662, 90.32324
1513.700, 86.45996
1514.739, 143.6016
1515.777, 0.7480470
1516.815, 2.903320
1517.854, 51.94043
1518.892, 95.21875
1519.929, 22.38086
1520.967, 114.5439
1522.004, 112.7100
1523.042, 26.88184
1524.079, 148.0596
1525.116, 147.2549
1526.153, 106.2207
1527.190, 189.1904
1528.226, 227.0049
1529.263, 196.1357
1530.299, 106.9639
1531.335, 275.3164
1532.371, 111.6035
1533.407, 266.7197
1534.443, 96.61914
1535.478, 110.3154
1536.514, 209.4102
1537.549, 152.5938
1538.584, 112.4863
1539.619, 141.1436
1540.654, 311.2139
1541.689, 169.8672
1542.723, 166.5088
1543.757, 217.3867
1544.792, 78.13965
1545.826, 182.5400
1546.860, 123.0635
1547.893, 86.37793
1548.927, 49.20801
1549.960, 151.3916
1550.994, 156.4795
1552.027, 206.6250
1553.060, 351.3223
1554.093, 156.2275
1555.126, 271.0146
1556.158, 148.8193
1557.191, 175.5000
1558.223, 95.56152
1559.255, 24.28809
1560.287, 46.49707
1561.319, 225.4482
1562.350, 0.8222660
1563.382, 86.33594
1564.413, 0.0000000E+00
##END=



