##NAMES=Amesite
##RRUFFID=R070132
##IDEAL CHEMISTRY=Mg_2_Al(AlSiO_5_)(OH)_4_
##LOCALITY=Saranovskii mine, Saranovskaya Village, Gornozavodskii area, Permskaya Oblast', Middle Urals, Russia
##OWNER=RRUFF
##SOURCE=Michael Scott
##DESCRIPTION=Purple transparent hexagonal prisms, polytype 2H2
##STATUS=The identification of this mineral is confirmed by single-crystal X-ray diffraction and chemical analysis.
##URL=rruff.info/R070132
##MEASURED CHEMISTRY=(Mg_1.87_[box]_0.05_Cr_0.05_Fe^2+^_0.03_)_Σ=2_(Al_0.98_Cr_0.02_)_Σ=1_(Si_1.05_Al_0.95_)O_5_(OH)_4_ ; OH estimated by difference
##PIN_ID=M00194
116.6560, 0.0000000E+00
117.8910, 108.4463
119.1260, 40.20801
120.3610, 1.454102
121.5960, 38.90918
122.8300, 496.1455
124.0640, 847.8076
125.2990, 900.8408
126.5330, 1091.737
127.7670, 1424.572
129.0000, 2175.950
130.2340, 2966.630
131.4670, 3438.665
132.7000, 3890.413
133.9330, 4040.967
135.1660, 3975.119
136.3990, 3640.321
137.6310, 2991.838
138.8640, 2435.848
140.0960, 1902.872
141.3280, 1203.961
142.5600, 844.6392
143.7910, 450.3882
145.0230, 480.1450
146.2540, 322.8623
147.4850, 321.5024
148.7160, 217.0396
149.9470, 160.4521
151.1780, 136.1460
152.4080, 281.8408
153.6380, 89.79492
154.8690, 58.56543
156.0980, 68.11914
157.3280, 102.5742
158.5580, 119.5459
159.7870, 138.8301
161.0170, 275.4561
162.2460, 233.4570
163.4750, 114.3721
164.7030, 20.97656
165.9320, 102.1064
167.1600, 52.56738
168.3890, 24.37305
169.6170, 65.53516
170.8450, 274.0693
172.0730, 251.9893
173.3000, 391.3057
174.5280, 339.0342
175.7550, 797.1846
176.9820, 820.7158
178.2090, 1220.793
179.4350, 1290.270
180.6620, 1881.204
181.8880, 2480.604
183.1150, 3196.473
184.3410, 4041.820
185.5670, 5220.646
186.7920, 6486.961
188.0180, 8097.758
189.2430, 9686.048
190.4690, 11708.81
191.6940, 13965.94
192.9180, 16381.39
194.1430, 18805.15
195.3680, 21076.21
196.5920, 22858.57
197.8160, 24612.54
199.0400, 25481.04
200.2640, 27199.14
201.4880, 28209.45
202.7110, 28764.95
203.9350, 28345.64
205.1580, 27035.50
206.3810, 25036.56
207.6040, 22554.76
208.8270, 19536.15
210.0490, 16365.41
211.2710, 13527.16
212.4940, 10623.98
213.7160, 8220.985
214.9370, 6286.500
216.1590, 4918.348
217.3810, 3577.536
218.6020, 2604.069
219.8230, 1988.957
221.0440, 1380.205
222.2650, 1064.818
223.4860, 869.8047
224.7060, 576.1670
225.9260, 610.9111
227.1470, 585.0410
228.3670, 924.5586
229.5860, 1147.468
230.8060, 1796.770
232.0260, 2951.465
233.2450, 4206.557
234.4640, 5858.045
235.6830, 7637.930
236.9020, 9556.209
238.1200, 12052.88
239.3390, 15391.93
240.5570, 19633.36
241.7750, 24088.18
242.9930, 28045.37
244.2110, 31333.95
245.4290, 32008.90
246.6460, 28491.23
247.8630, 22079.94
249.0810, 16173.02
250.2980, 11706.47
251.5140, 9024.289
252.7310, 7545.477
253.9470, 6774.030
255.1640, 6856.947
256.3800, 7109.225
257.5960, 7663.863
258.8120, 9161.858
260.0270, 10177.21
261.2430, 10327.91
262.4580, 10809.96
263.6730, 12430.34
264.8880, 14171.14
266.1030, 16218.33
267.3170, 18546.88
268.5320, 21304.75
269.7460, 24029.98
270.9600, 26989.13
272.1740, 29394.21
273.3880, 31535.25
274.6010, 32158.16
275.8150, 32270.94
277.0280, 30831.62
278.2410, 29758.27
279.4540, 28422.85
280.6670, 27513.33
281.8790, 26496.86
283.0920, 25504.40
284.3040, 24087.50
285.5160, 22227.01
286.7280, 19693.22
287.9400, 16818.75
289.1510, 13684.60
290.3630, 11245.08
291.5740, 8785.434
292.7850, 6509.883
293.9960, 4768.266
295.2070, 3309.519
296.4170, 1975.255
297.6280, 883.4141
298.8380, 434.7324
300.0480, 173.3574
301.2580, 408.5537
302.4680, 556.0703
303.6770, 608.4033
304.8870, 561.5830
306.0960, 616.7520
307.3050, 443.3096
308.5140, 59.00977
309.7230, 401.9170
310.9310, 731.8242
312.1400, 1349.167
313.3480, 2021.841
314.5560, 2497.855
315.7640, 2993.210
316.9720, 3394.906
318.1790, 3524.963
319.3870, 3371.379
320.5940, 3388.172
321.8010, 3778.338
323.0080, 4425.867
324.2150, 5300.759
325.4210, 7468.990
326.6280, 8225.563
327.8340, 8023.495
329.0400, 7892.793
330.2460, 7666.435
331.4510, 6477.431
332.6570, 5431.754
333.8620, 5120.424
335.0680, 5214.406
336.2730, 5322.687
337.4780, 5903.282
338.6820, 6620.196
339.8870, 7307.408
341.0910, 7853.938
342.2950, 8176.768
343.5000, 8312.883
344.7030, 8183.934
345.9070, 7911.330
347.1110, 7348.951
348.3140, 6824.188
349.5170, 6014.666
350.7200, 5191.414
351.9230, 3975.410
353.1260, 2827.664
354.3290, 1885.150
355.5310, 1258.568
356.7330, 625.4141
357.9350, 559.1895
359.1370, 565.2041
360.3390, 736.4492
361.5400, 737.9180
362.7420, 891.6104
363.9430, 1408.527
365.1440, 1892.664
366.3450, 2565.021
367.5460, 3392.335
368.7460, 4322.483
369.9470, 5454.389
371.1470, 6614.605
372.3470, 8100.031
373.5470, 9550.670
374.7460, 11553.52
375.9460, 13277.57
377.1450, 14575.83
378.3450, 15061.82
379.5440, 15652.95
380.7430, 14794.81
381.9410, 14009.87
383.1400, 12894.12
384.3380, 11906.57
385.5370, 11432.21
386.7350, 11135.05
387.9320, 10876.08
389.1300, 10811.29
390.3280, 10886.69
391.5250, 11051.27
392.7220, 11578.04
393.9190, 12219.99
395.1160, 13051.12
396.3130, 14129.42
397.5100, 15330.90
398.7060, 17161.56
399.9020, 19724.39
401.0980, 23615.40
402.2940, 28261.57
403.4900, 34006.91
404.6860, 39592.41
405.8810, 44191.10
407.0760, 47030.93
408.2710, 47973.95
409.4660, 46816.13
410.6610, 44604.51
411.8550, 42476.05
413.0500, 39939.79
414.2440, 36547.70
415.4380, 31815.78
416.6320, 25857.05
417.8260, 20495.50
419.0190, 16067.12
420.2130, 12353.94
421.4060, 9364.928
422.5990, 7297.100
423.7920, 5489.451
424.9850, 4393.986
426.1770, 3496.703
427.3700, 2788.602
428.5620, 2530.682
429.7540, 2203.949
430.9460, 1931.404
432.1380, 1916.045
433.3290, 1901.869
434.5210, 2213.877
435.7120, 2469.068
436.9030, 2459.441
438.0940, 2900.000
439.2850, 3078.740
440.4750, 3188.671
441.6660, 3309.785
442.8560, 3549.073
444.0460, 3469.649
445.2360, 3561.685
446.4260, 3615.016
447.6160, 3903.123
448.8050, 4124.113
449.9940, 4253.603
451.1830, 4231.374
452.3720, 4387.166
453.5610, 4429.782
454.7500, 4486.458
455.9380, 4453.393
457.1260, 4346.308
458.3150, 4543.068
459.5020, 4469.430
460.6900, 4479.855
461.8780, 4705.330
463.0650, 4852.881
464.2530, 5052.176
465.4400, 5762.096
466.6270, 6346.658
467.8130, 7672.594
469.0000, 8944.125
470.1870, 10973.46
471.3730, 13026.03
472.5590, 15273.31
473.7450, 17370.69
474.9310, 19316.59
476.1160, 20718.95
477.3020, 20973.35
478.4870, 20980.07
479.6720, 19933.90
480.8570, 18117.89
482.0420, 16831.84
483.2270, 15230.29
484.4110, 14390.09
485.5960, 13414.68
486.7800, 13002.79
487.9640, 12383.81
489.1480, 11932.43
490.3310, 11658.98
491.5150, 11333.65
492.6980, 10920.47
493.8810, 10411.32
495.0640, 9141.577
496.2470, 8094.961
497.4300, 6750.164
498.6120, 5757.227
499.7950, 4787.296
500.9770, 3986.205
502.1590, 3601.953
503.3410, 3189.433
504.5220, 2916.949
505.7040, 2873.805
506.8850, 2654.461
508.0660, 2685.146
509.2470, 2796.885
510.4280, 2874.676
511.6090, 3303.518
512.7890, 3400.410
513.9700, 3760.350
515.1500, 4121.336
516.3300, 4737.367
517.5100, 5445.444
518.6900, 6403.564
519.8690, 7272.723
521.0490, 8590.925
522.2280, 9925.162
523.4070, 11511.44
524.5860, 12919.75
525.7640, 14561.10
526.9430, 15949.48
528.1210, 17515.89
529.3000, 18112.34
530.4780, 18511.81
531.6560, 18415.31
532.8330, 17455.83
534.0110, 16732.39
535.1880, 15515.96
536.3650, 14525.56
537.5430, 13141.18
538.7190, 11680.83
539.8960, 10516.49
541.0730, 9604.168
542.2490, 8643.864
543.4250, 7899.576
544.6020, 7450.303
545.7780, 6973.043
546.9530, 6558.793
548.1290, 6198.355
549.3040, 5887.327
550.4800, 5591.106
551.6550, 5381.893
552.8300, 5208.686
554.0040, 4956.482
555.1790, 4782.283
556.3540, 4498.084
557.5280, 4315.887
558.7020, 3998.688
559.8760, 3877.487
561.0500, 3426.283
562.2230, 3286.075
563.3970, 3141.860
564.5700, 2941.639
565.7430, 2850.410
566.9160, 2805.170
568.0890, 2726.920
569.2620, 2651.656
570.4340, 2538.381
571.6070, 2146.088
572.7790, 2057.781
573.9510, 1696.456
575.1230, 1319.111
576.2940, 1262.748
577.4660, 979.3613
578.6370, 724.9521
579.8080, 788.5195
580.9790, 689.0605
582.1500, 339.5762
583.3210, 399.0635
584.4910, 247.5205
585.6620, 146.9590
586.8320, 219.3965
588.0020, 100.8496
589.1720, 5.321289
590.3410, 121.7822
591.5110, 55.73828
592.6800, 24.32324
593.8500, 287.9902
595.0190, 253.8848
596.1880, 185.9912
597.3560, 241.2793
598.5250, 230.7803
599.6930, 232.4961
600.8620, 305.4287
602.0300, 298.6211
603.1970, 372.0732
604.3650, 344.8271
605.5330, 315.8730
606.7000, 319.1982
607.8680, 222.8086
609.0350, 241.6562
610.2020, 311.7559
611.3680, 325.1445
612.5350, 250.8359
613.7010, 294.1289
614.8680, 201.0371
616.0340, 266.5264
617.2000, 150.2988
618.3660, 86.29297
619.5310, 162.4795
620.6970, 175.9004
621.8620, 90.56738
623.0270, 173.4336
624.1920, 94.53320
625.3570, 54.83105
626.5220, 122.2930
627.6860, 4.977539
628.8500, 58.18652
630.0140, 36.77734
631.1780, 140.0762
632.3420, 14.83789
633.5060, 121.4414
634.6700, 50.92773
635.8330, 119.2930
636.9960, 268.5332
638.1590, 139.6895
639.3220, 245.7402
640.4850, 185.7227
641.6470, 339.6045
642.8100, 390.4277
643.9720, 439.1895
645.1340, 364.9121
646.2960, 407.5635
647.4570, 461.1387
648.6190, 469.6387
649.7800, 618.0635
650.9420, 529.4121
652.1030, 733.6846
653.2640, 807.8789
654.4240, 856.9951
655.5850, 908.0322
656.7450, 1283.991
657.9060, 1159.260
659.0660, 1309.670
660.2260, 1250.390
661.3850, 1332.028
662.5450, 1693.587
663.7040, 1819.065
664.8640, 2051.463
666.0230, 2157.777
667.1820, 2416.010
668.3410, 2875.160
669.4990, 3243.229
670.6580, 3829.215
671.8160, 4216.117
672.9740, 4860.936
674.1320, 5745.672
675.2900, 6665.324
676.4480, 7817.891
677.6050, 9013.372
678.7630, 10144.77
679.9200, 11338.09
681.0770, 12601.31
682.2340, 13531.46
683.3900, 14217.52
684.5470, 14441.49
685.7030, 13985.38
686.8590, 13322.18
688.0150, 12538.89
689.1710, 11512.52
690.3270, 10886.07
691.4830, 10504.52
692.6380, 10513.89
693.7930, 10922.18
694.9480, 11688.37
696.1030, 12410.48
697.2580, 13790.50
698.4130, 15488.44
699.5670, 17200.29
700.7210, 19438.05
701.8750, 21891.72
703.0290, 24272.31
704.1830, 26500.81
705.3370, 28422.22
706.4900, 29510.54
707.6430, 29658.78
708.7970, 28578.93
709.9490, 26695.99
711.1020, 24646.97
712.2550, 22827.85
713.4070, 18366.65
714.5600, 15784.36
715.7120, 13499.99
716.8640, 11571.53
718.0160, 10030.98
719.1670, 9163.343
720.3190, 7645.619
721.4700, 6750.807
722.6210, 5819.910
723.7720, 5212.928
724.9230, 4621.855
726.0740, 3999.699
727.2250, 3734.456
728.3750, 3336.924
729.5250, 2902.506
730.6750, 2759.791
731.8250, 2576.516
732.9750, 2395.685
734.1240, 2224.719
735.2740, 2053.206
736.4230, 1894.961
737.5720, 1736.940
738.7210, 1604.385
739.8700, 1505.832
741.0190, 1342.296
742.1670, 1345.748
743.3150, 1162.518
744.4630, 1164.724
745.6110, 1088.348
746.7590, 796.6592
747.9070, 908.4336
749.0540, 799.4609
750.2020, 806.3115
751.3490, 721.4971
752.4960, 679.5986
753.6430, 544.3350
754.7890, 605.6094
755.9360, 574.8857
757.0820, 565.8955
758.2280, 461.8457
759.3740, 413.6816
760.5200, 579.8486
761.6660, 440.0088
762.8120, 459.2900
763.9570, 527.2188
765.1020, 489.0850
766.2470, 498.6465
767.3920, 739.9297
768.5370, 662.8467
769.6810, 739.8018
770.8260, 657.0088
771.9700, 714.8330
773.1140, 911.4873
774.2580, 959.4512
775.4020, 1179.629
776.5460, 1327.322
777.6890, 1493.380
778.8320, 1595.692
779.9750, 1821.103
781.1180, 1954.949
782.2610, 2028.944
783.4040, 1994.301
784.5460, 2114.255
785.6890, 2203.207
786.8310, 2333.571
787.9730, 2310.460
789.1150, 2305.318
790.2560, 2280.149
791.3980, 2221.950
792.5390, 2184.723
793.6810, 2209.469
794.8220, 2128.186
795.9630, 2174.877
797.1030, 2099.541
798.2440, 2218.179
799.3840, 2204.791
800.5240, 2446.378
801.6650, 2578.939
802.8040, 2970.479
803.9440, 3011.992
805.0840, 3411.482
806.2230, 3627.951
807.3630, 4241.396
808.5020, 4305.818
809.6410, 4839.221
810.7790, 5511.603
811.9180, 6091.961
813.0570, 6681.303
814.1950, 7379.623
815.3330, 8242.927
816.4710, 8879.210
817.6090, 9732.475
818.7470, 10758.72
819.8840, 11538.95
821.0220, 12526.17
822.1590, 13527.36
823.2960, 14161.54
824.4330, 14635.71
825.5690, 14735.86
826.7060, 14166.00
827.8420, 13220.12
828.9790, 12411.24
830.1150, 11066.33
831.2510, 9916.420
832.3860, 8638.494
833.5220, 7618.558
834.6570, 6602.609
835.7930, 5757.651
836.9280, 5038.684
838.0630, 4641.709
839.1980, 3956.723
840.3320, 3631.730
841.4670, 3102.730
842.6010, 2880.724
843.7350, 2508.710
844.8690, 2304.690
846.0030, 2049.255
847.1370, 1806.634
848.2700, 1598.599
849.4040, 1396.961
850.5370, 1187.516
851.6700, 1137.470
852.8030, 904.4199
853.9360, 872.3691
855.0680, 758.3164
856.2000, 536.2617
857.3330, 532.2080
858.4650, 429.1523
859.5970, 446.0977
860.7290, 417.0439
861.8600, 408.9961
862.9920, 322.9512
864.1230, 324.9268
865.2540, 153.9170
866.3850, 82.90918
867.5160, 114.9355
868.6460, 98.99805
869.7770, 225.1582
870.9070, 261.4082
872.0370, 135.7334
873.1670, 406.1494
874.2970, 317.6562
875.4270, 321.2549
876.5570, 396.9658
877.6860, 352.8105
878.8150, 262.7900
879.9440, 378.8994
881.0730, 465.1318
882.2020, 292.4902
883.3300, 422.9512
884.4590, 392.5215
885.5870, 167.2363
886.7150, 331.1221
887.8430, 281.1211
888.9710, 327.2773
890.0990, 217.5391
891.2260, 57.93066
892.3530, 199.4199
893.4810, 65.00195
894.6080, 49.68652
895.7340, 10.52539
896.8610, 73.65820
897.9880, 61.70801
899.1140, 126.6797
900.2400, 33.61426
901.3660, 89.44336
902.4920, 54.24121
903.6180, 42.99219
904.7430, 87.67969
905.8690, 54.36426
906.9940, 15.99219
908.1190, 145.5859
909.2440, 15.81641
910.3690, 9.284180
911.4930, 86.21777
912.6180, 128.7100
913.7420, 54.22754
914.8660, 110.7275
915.9900, 75.25586
917.1140, 168.7822
918.2380, 50.36719
919.3610, 27.05371
920.4850, 7.492188
921.6080, 18.05176
922.7310, 12.42578
923.8540, 28.93750
924.9760, 55.47168
926.0990, 22.03906
927.2210, 20.63184
928.3440, 85.91992
929.4660, 115.8750
930.5880, 234.5283
931.7090, 321.2031
932.8310, 416.8984
933.9520, 548.6162
935.0740, 526.3545
936.1950, 716.1152
937.3160, 713.9014
938.4360, 960.7070
939.5570, 1046.535
940.6780, 1146.385
941.7980, 1345.255
942.9180, 1584.147
944.0380, 2034.061
945.1580, 2304.998
946.2780, 2830.956
947.3970, 3285.936
948.5170, 3923.936
949.6360, 4730.957
950.7550, 5572.010
951.8740, 6338.082
952.9930, 7022.176
954.1110, 7512.113
955.2300, 7965.432
956.3480, 8141.607
957.4660, 8270.807
958.5840, 8199.026
959.7020, 8546.271
960.8190, 8740.537
961.9370, 9195.830
963.0540, 9500.145
964.1710, 10049.48
965.2880, 10121.84
966.4050, 10316.22
967.5220, 10418.63
968.6380, 10289.06
969.7550, 10315.51
970.8710, 10282.98
971.9870, 10282.47
973.1030, 10369.99
974.2190, 10441.64
975.3340, 10611.20
976.4500, 10966.79
977.5650, 11562.40
978.6800, 11617.03
979.7950, 11737.69
980.9100, 11679.37
982.0250, 11245.06
983.1390, 10780.79
984.2530, 9995.530
985.3680, 8412.299
986.4820, 7399.086
987.5950, 6226.898
988.7090, 5454.732
989.8230, 4633.588
990.9360, 3901.465
992.0490, 3499.365
993.1620, 2978.290
994.2750, 2824.234
995.3880, 2556.001
996.5010, 2620.992
997.6130, 2712.258
998.7250, 2690.293
999.8370, 2728.351
1000.949, 2964.428
1002.061, 3264.495
1003.173, 3515.616
1004.284, 4067.831
1005.396, 4401.059
1006.507, 4818.930
1007.618, 5264.441
1008.729, 5614.660
1009.839, 5702.898
1010.950, 5981.801
1012.060, 5827.120
1013.171, 5659.410
1014.281, 5597.076
1015.391, 4713.397
1016.500, 4292.731
1017.610, 3805.291
1018.719, 3216.939
1019.829, 2856.643
1020.938, 2474.028
1022.047, 2183.869
1023.156, 1815.701
1024.264, 1518.654
1025.373, 1524.731
1026.481, 1359.469
1027.589, 1167.411
1028.697, 1074.948
1029.805, 974.2246
1030.913, 1014.877
1032.020, 1011.205
1033.128, 1023.364
1034.235, 1091.383
1035.342, 1106.461
1036.449, 1066.713
1037.556, 1100.371
1038.663, 1042.526
1039.769, 1075.634
1040.875, 1136.754
1041.981, 952.6553
1043.087, 1082.157
1044.193, 1123.516
1045.299, 1066.683
1046.404, 1140.564
1047.510, 918.4668
1048.615, 861.4834
1049.720, 813.3848
1050.825, 790.3926
1051.930, 637.5381
1053.034, 704.0684
1054.139, 604.6406
1055.243, 663.7031
1056.347, 534.4648
1057.451, 659.3672
1058.555, 480.4297
1059.658, 525.2285
1060.762, 634.9932
1061.865, 397.0215
1062.968, 497.0898
1064.071, 506.1094
1065.174, 613.9199
1066.277, 678.9238
1067.380, 602.0322
1068.482, 690.7207
1069.584, 649.4668
1070.686, 720.4941
1071.788, 636.3545
1072.890, 599.1025
1073.992, 663.8994
1075.093, 749.7285
1076.194, 701.5781
1077.295, 667.6689
1078.396, 742.3799
1079.497, 579.1201
1080.598, 678.6582
1081.698, 636.3105
1082.799, 535.6953
1083.899, 542.2324
1084.999, 464.9971
1086.099, 364.8574
1087.199, 339.4688
1088.298, 290.9629
1089.398, 273.3818
1090.497, 234.1182
1091.596, 231.8789
1092.695, 192.6367
1093.794, 199.8105
1094.892, 187.5332
1095.991, 215.1230
1097.089, 158.9971
1098.187, 152.6543
1099.285, 167.1904
1100.383, 67.94531
1101.481, 217.5537
1102.579, 36.02246
1103.676, 123.5723
1104.773, 77.03125
1105.870, 0.5205080
1106.967, 145.5684
1108.064, 87.01367
1109.161, 77.45312
1110.257, 112.1436
1111.353, 154.5684
1112.449, 59.98633
1113.545, 30.51953
1114.641, 62.93066
1115.737, 148.3281
1116.832, 178.7178
1117.928, 204.0986
1119.023, 142.4824
1120.118, 165.8574
1121.213, 158.5029
1122.308, 180.5986
1123.402, 130.3027
1124.497, 146.6445
1125.591, 63.97754
1126.685, 6.699219
1127.779, 72.81738
1128.873, 60.88867
1129.967, 112.5234
1131.060, 159.7559
1132.153, 88.97754
1133.247, 22.81250
1134.340, 131.7148
1135.433, 22.88281
1136.525, 27.03809
1137.618, 97.18262
1138.710, 96.31348
1139.802, 101.4316
1140.895, 99.49023
1141.987, 62.36523
1143.078, 40.67285
1144.170, 58.81836
1145.261, 7.830078
1146.353, 142.9365
1147.444, 98.91699
1148.535, 16.88672
1149.626, 54.16113
1150.716, 118.2607
1151.807, 71.55566
1152.897, 87.64258
1153.988, 10.40332
1155.078, 8.884766
1156.168, 5.957031
1157.257, 36.38086
1158.347, 10.24023
1159.436, 53.83691
1160.526, 62.54785
1161.615, 3.127930
1162.704, 32.30859
1163.793, 29.63574
1164.881, 54.54688
1165.970, 62.40625
1167.058, 38.13477
1168.147, 15.64648
1169.235, 70.05371
1170.323, 19.22363
1171.410, 118.1533
1172.498, 154.5400
1173.585, 59.83496
1174.673, 9.489258
1175.760, 233.8232
1176.847, 96.14160
1177.934, 52.78125
1179.020, 62.18555
1180.107, 57.50977
1181.193, 24.83203
1182.279, 45.18457
1183.365, 103.5215
1184.451, 93.85742
1185.537, 8.801758
1186.623, 44.40039
1187.708, 35.97656
1188.793, 32.67676
1189.878, 3.739258
1190.963, 58.87695
1192.048, 29.03125
1193.133, 27.21777
1194.217, 31.29297
1195.302, 54.37207
1196.386, 33.97852
1197.470, 27.39746
1198.554, 26.46582
1199.638, 13.41016
1200.721, 55.51758
1201.805, 53.41797
1202.888, 75.54492
1203.971, 65.19922
1205.054, 59.44727
1206.137, 57.81738
1207.219, 33.60840
1208.302, 88.79590
1209.384, 82.66406
1210.466, 150.3906
1211.548, 104.0957
1212.630, 0.7451170
1213.712, 140.1855
1214.794, 80.87598
1215.875, 63.03613
1216.956, 118.6221
1218.037, 25.80566
1219.118, 57.71680
1220.199, 88.52637
1221.280, 83.43262
1222.360, 84.18848
1223.441, 34.60742
1224.521, 92.43652
1225.601, 123.8086
1226.681, 63.56641
1227.760, 107.3164
1228.840, 135.6201
1229.919, 83.14844
1230.999, 117.8193
1232.078, 156.2490
1233.157, 130.8096
1234.236, 229.0039
1235.314, 237.1865
1236.393, 43.75098
1237.471, 278.2803
1238.549, 297.5781
1239.627, 95.69141
1240.705, 181.2129
1241.783, 169.5430
1242.860, 130.7324
1243.938, 159.5947
1245.015, 271.7715
1246.092, 210.9199
1247.169, 274.0732
1248.246, 263.7871
1249.323, 227.9902
1250.399, 248.2783
1251.475, 164.7041
1252.552, 84.95703
1253.628, 288.9062
1254.703, 237.0703
1255.779, 227.9639
1256.855, 119.9775
1257.930, 277.8281
1259.005, 128.2949
1260.080, 252.9902
1261.155, 171.7480
1262.230, 233.3975
1263.305, 86.05664
1264.379, 186.9482
1265.454, 294.4629
1266.528, 234.3721
1267.602, 193.9023
1268.676, 271.4092
1269.750, 171.8936
1270.823, 234.4062
1271.897, 329.1992
1272.970, 141.5664
1274.043, 282.1572
1275.116, 144.5508
1276.189, 216.0938
1277.261, 185.7422
1278.334, 209.8311
1279.406, 184.8975
1280.478, 183.4102
1281.550, 176.6406
1282.622, 82.71582
1283.694, 171.6348
1284.766, 6.257813
1285.837, 169.8467
1286.908, 153.6533
1287.979, 213.5771
1289.050, 124.5547
1290.121, 152.5977
1291.192, 154.3125
1292.262, 118.6035
1293.333, 234.8105
1294.403, 130.4590
1295.473, 204.3711
1296.543, 59.80273
1297.613, 231.2100
1298.682, 71.12500
1299.752, 173.5840
1300.821, 139.5566
1301.890, 99.19434
1302.959, 194.2100
1304.028, 231.2461
1305.096, 173.5791
1306.165, 73.53711
1307.233, 128.3887
1308.301, 181.5312
1309.370, 278.6377
1310.437, 148.9707
1311.505, 256.1074
1312.573, 148.2109
1313.640, 142.8818
1314.708, 119.3770
1315.775, 109.3555
1316.842, 111.6436
1317.908, 108.3330
1318.975, 111.4883
1320.042, 130.7637
1321.108, 117.6221
1322.174, 138.9961
1323.240, 133.0098
1324.306, 181.9121
1325.372, 141.7393
1326.438, 123.2021
1327.503, 175.9150
1328.568, 103.6396
1329.634, 157.5527
1330.699, 88.56641
1331.763, 45.53125
1332.828, 248.6992
1333.893, 69.54004
1334.957, 277.3643
1336.021, 47.90430
1337.085, 120.2354
1338.149, 172.5420
1339.213, 174.5732
1340.277, 9.162109
1341.340, 80.96777
1342.404, 134.1836
1343.467, 31.15625
1344.530, 168.8779
1345.593, 146.6738
1346.655, 144.0547
1347.718, 69.58789
1348.780, 42.23047
1349.843, 72.02441
1350.905, 195.6895
1351.967, 42.97363
1353.028, 198.7285
1354.090, 49.42188
1355.152, 45.96582
1356.213, 171.6660
1357.274, 88.27930
1358.335, 49.16797
1359.396, 102.0908
1360.457, 65.69629
1361.517, 162.1934
1362.578, 170.9248
1363.638, 27.37793
1364.698, 56.86035
1365.758, 114.6260
1366.818, 193.1055
1367.878, 50.37109
1368.937, 91.26270
1369.997, 119.6846
1371.056, 4.903320
1372.115, 113.2842
1373.174, 114.5938
1374.232, 107.8711
1375.291, 30.18848
1376.350, 86.20117
1377.408, 60.71094
1378.466, 34.42676
1379.524, 58.53809
1380.582, 128.4736
1381.640, 71.71973
1382.697, 130.9219
1383.754, 144.9502
1384.812, 129.8877
1385.869, 189.1113
1386.926, 191.6406
1387.983, 134.8721
1389.039, 202.8115
1390.096, 158.7197
1391.152, 85.41699
1392.208, 152.4375
1393.264, 55.35840
1394.320, 301.1914
1395.376, 197.9824
1396.431, 234.3604
1397.487, 142.6191
1398.542, 194.5469
1399.597, 191.2871
1400.652, 107.3770
1401.707, 62.41602
1402.762, 108.0713
1403.816, 76.60449
1404.871, 194.4092
1405.925, 135.8867
1406.979, 28.60938
1408.033, 235.0732
1409.086, 78.81348
1410.140, 115.1611
1411.194, 166.5498
1412.247, 126.9561
1413.300, 207.0830
1414.353, 72.72070
1415.406, 174.4336
1416.458, 138.5254
1417.511, 28.77441
1418.563, 53.01367
1419.616, 104.1562
1420.668, 93.26660
1421.720, 134.6348
1422.772, 134.2188
1423.823, 189.0449
1424.875, 120.0146
1425.926, 143.6152
1426.977, 110.5801
1428.028, 97.64258
1429.079, 90.26465
1430.130, 113.9492
1431.180, 14.41016
1432.231, 84.17773
1433.281, 59.40137
1434.331, 17.07227
1435.381, 15.23828
1436.431, 23.41211
1437.481, 0.8750000
1438.530, 27.11914
1439.580, 100.5166
1440.629, 161.4736
1441.678, 23.49902
1442.727, 204.5186
1443.776, 109.6514
1444.824, 159.8252
1445.873, 124.0664
1446.921, 140.2109
1447.969, 34.27051
1449.017, 127.2393
1450.065, 17.01367
1451.113, 165.8242
1452.160, 9.409180
1453.208, 142.5654
1454.255, 10.25684
1455.302, 167.1660
1456.349, 120.2500
1457.396, 283.9844
1458.443, 90.20703
1459.489, 190.7773
1460.535, 150.3564
1461.582, 181.8965
1462.628, 53.12500
1463.674, 47.47363
1464.719, 184.4443
1465.765, 63.75195
1466.810, 275.3857
1467.856, 93.32031
1468.901, 90.84863
1469.946, 123.1670
1470.991, 244.9863
1472.035, 154.7559
1473.080, 133.1152
1474.124, 143.0732
1475.169, 96.44043
1476.213, 122.8467
1477.257, 109.2695
1478.300, 99.80078
1479.344, 140.8848
1480.388, 102.7793
1481.431, 112.2686
1482.474, 162.6699
1483.517, 40.83496
1484.560, 54.38770
1485.603, 175.3076
1486.645, 206.6699
1487.688, 19.43750
1488.730, 122.6855
1489.772, 6.103516
1490.814, 52.29102
1491.856, 183.9932
1492.898, 144.2812
1493.939, 52.06348
1494.981, 213.2744
1496.022, 2.632813
1497.063, 137.4492
1498.104, 219.7021
1499.145, 238.1426
1500.186, 14.50684
1501.226, 101.8799
1502.266, 65.89551
1503.307, 27.08301
1504.347, 162.9453
1505.387, 23.80469
1506.426, 110.0488
1507.466, 114.8213
1508.505, 175.4258
1509.545, 111.3379
1510.584, 84.89746
1511.623, 188.1982
1512.662, 220.8770
1513.700, 143.6631
1514.739, 209.4531
1515.777, 108.5498
1516.815, 109.7578
1517.854, 127.9150
1518.892, 144.4932
1519.929, 139.3203
1520.967, 170.3926
1522.004, 135.2119
1523.042, 101.3252
1524.079, 213.6289
1525.116, 35.46680
1526.153, 62.11621
1527.190, 110.1123
1528.226, 142.4785
1529.263, 55.90625
1530.299, 147.8047
1531.335, 61.64453
1532.371, 159.1357
1533.407, 49.22754
1534.443, 64.37109
1535.478, 108.0400
1536.514, 59.43652
1537.549, 9.587891
1538.584, 28.78516
1539.619, 14.91992
1540.654, 193.3857
1541.689, 95.09570
1542.723, 91.46777
1543.757, 74.91797
1544.792, 218.4746
1545.826, 292.9014
1546.860, 311.1777
1547.893, 84.77734
1548.927, 172.9199
1549.960, 132.2529
1550.994, 88.76367
1552.027, 211.5117
1553.060, 16.20996
1554.093, 143.6484
1555.126, 142.3271
1556.158, 201.3291
1557.191, 131.4678
1558.223, 100.4805
1559.255, 190.0371
1560.287, 216.9658
1561.319, 133.1514
1562.350, 194.0234
1563.382, 0.8623050
1564.413, 0.0000000E+00
##END=



