##NAMES=Analcime
##RRUFFID=R040128
##IDEAL CHEMISTRY=NaAlSi_2_O_6_&#183;H_2_O
##LOCALITY=Mont Saint-Hilaire, Rouville County, Quebec, Canada
##OWNER=RRUFF
##SOURCE=Bob Downs
##DESCRIPTION=White trapezohedra associated with black arfvedsonite, R040127
##STATUS=The identification of this mineral has been confirmed by X-ray diffraction and chemical analysis
##URL=rruff.info/R040128
##MEASURED CHEMISTRY=Na_0.93_(Si_2.04_Al_0.99_)O_6_Â·H_2_O
##PIN_ID=L00542
##ORIENTATION=Laser parallel to -a [-1 0 0]. Fiducial mark perpendicular to laser is parallel to -b* (0 -1 0)
100.418, 0.000
101.812, 11.928
103.206, 52.708
104.600, 166.982
105.994, 289.181
107.387, 485.116
108.781, 733.257
110.174, 1765.199
111.566, 1498.748
112.959, 1698.840
114.351, 1520.120
115.744, 1474.741
117.136, 1653.485
118.527, 1633.437
119.919, 1494.876
121.310, 1521.560
122.701, 1523.778
124.092, 1616.556
125.482, 1573.282
126.873, 1680.283
128.263, 1777.056
129.653, 1703.221
131.042, 1752.485
132.432, 1796.625
133.821, 1842.463
135.210, 1860.860
136.599, 1929.704
137.987, 1921.904
139.376, 1937.685
140.764, 1924.397
142.152, 1919.729
143.539, 1915.638
144.927, 1871.942
146.314, 1907.402
147.701, 1960.153
149.088, 1820.732
150.474, 1887.242
151.861, 1743.788
153.247, 1747.463
154.633, 1577.350
156.018, 1630.522
157.404, 1595.041
158.789, 1401.965
160.174, 1455.345
161.559, 1340.226
162.943, 1349.647
164.327, 1253.646
165.711, 1217.543
167.095, 1187.484
168.479, 1161.375
169.862, 1124.943
171.246, 1145.211
172.628, 1089.196
174.011, 1064.918
175.394, 1087.393
176.776, 1081.938
178.158, 1135.499
179.540, 1264.231
180.922, 1361.489
182.303, 1447.731
183.684, 1528.369
185.065, 1756.155
186.446, 1886.045
187.826, 1946.689
189.207, 2071.486
190.587, 2062.241
191.967, 2331.579
193.346, 2305.364
194.726, 2281.978
196.105, 2243.213
197.484, 2118.630
198.862, 2045.758
200.241, 1973.987
201.619, 1812.915
202.997, 1681.002
204.375, 1552.243
205.753, 1444.267
207.130, 1293.149
208.507, 1246.800
209.884, 1159.571
211.261, 1041.456
212.638, 973.450
214.014, 1005.546
215.390, 987.740
216.766, 922.027
218.141, 870.402
219.517, 851.863
220.892, 787.405
222.267, 837.025
223.642, 743.715
225.016, 826.462
226.391, 816.255
227.765, 829.078
229.139, 818.920
230.512, 717.777
231.886, 772.647
233.259, 685.533
234.632, 657.434
236.005, 616.352
237.377, 614.286
238.749, 567.709
240.122, 502.209
241.493, 491.200
242.865, 406.212
244.237, 359.246
245.608, 317.302
246.979, 252.381
248.350, 202.486
249.720, 158.275
251.090, 141.771
252.461, 66.954
253.830, 39.165
255.200, 13.595
256.570, 94.325
257.939, 52.016
259.308, 94.679
260.677, 126.343
262.045, 242.093
263.414, 134.952
264.782, 255.009
266.150, 229.089
267.517, 190.333
268.885, 186.264
270.252, 296.474
271.619, 264.163
272.986, 249.439
274.353, 265.388
275.719, 221.078
277.085, 185.551
278.451, 236.839
279.817, 186.996
281.182, 176.035
282.548, 112.978
283.913, 118.832
285.278, 44.615
286.642, 69.677
288.007, 186.048
289.371, 360.486
290.735, 483.977
292.099, 748.509
293.462, 1132.075
294.826, 1245.667
296.189, 1657.281
297.552, 1771.911
298.914, 1895.556
300.277, 1693.211
301.639, 1507.875
303.001, 1297.546
304.363, 1066.221
305.724, 921.889
307.086, 813.536
308.447, 711.524
309.808, 643.701
311.168, 622.194
312.529, 596.623
313.889, 595.992
315.249, 590.553
316.609, 623.571
317.969, 604.789
319.328, 622.926
320.687, 586.099
322.046, 640.198
323.405, 636.262
324.764, 638.294
326.122, 720.298
327.480, 690.273
328.838, 796.223
330.196, 773.148
331.553, 718.051
332.910, 841.934
334.267, 901.797
335.624, 880.642
336.981, 932.470
338.337, 969.282
339.693, 1013.080
341.049, 1061.242
342.405, 1119.582
343.760, 1129.166
345.116, 1173.580
346.471, 1216.920
347.826, 1331.643
349.180, 1323.312
350.535, 1381.675
351.889, 1474.763
353.243, 1486.636
354.597, 1561.284
355.950, 1666.790
357.304, 1682.193
358.657, 1756.621
360.010, 1847.077
361.362, 1953.558
362.715, 2081.066
364.067, 2214.600
365.419, 2290.157
366.771, 2524.739
368.123, 2629.344
369.474, 2828.991
370.825, 2886.660
372.176, 3151.364
373.527, 3293.088
374.877, 3541.838
376.228, 3648.628
377.578, 3883.437
378.928, 3964.284
380.277, 4379.166
381.627, 4374.073
382.976, 4559.040
384.325, 4884.024
385.674, 4899.059
387.023, 5404.123
388.371, 5249.205
389.719, 5464.348
391.067, 5499.511
392.415, 5594.738
393.762, 5659.985
395.110, 5675.269
396.457, 5700.588
397.804, 5645.946
399.150, 5498.205
400.497, 5236.807
401.843, 5052.270
403.189, 4907.773
404.535, 4573.320
405.881, 4318.868
407.226, 3994.547
408.571, 3702.157
409.916, 3394.859
411.261, 2966.393
412.605, 2711.094
413.950, 2528.816
415.294, 2261.420
416.638, 2100.390
417.981, 1834.952
419.325, 1705.038
420.668, 1576.586
422.011, 1361.743
423.354, 1353.118
424.697, 1075.666
426.039, 1233.628
427.381, 1090.488
428.723, 1133.023
430.065, 1090.918
431.406, 1074.053
432.748, 1060.417
434.089, 1014.785
435.430, 1109.037
436.770, 1111.247
438.111, 1098.182
439.451, 1276.176
440.791, 1202.022
442.131, 1312.850
443.471, 1403.272
444.810, 1422.339
446.149, 1590.013
447.488, 1694.982
448.827, 1909.990
450.166, 2128.328
451.504, 2302.673
452.842, 2550.027
454.180, 2779.386
455.518, 3152.752
456.855, 3462.124
458.193, 3968.502
459.530, 4424.886
460.867, 4991.274
462.203, 5757.668
463.540, 6614.068
464.876, 7600.475
466.212, 8686.888
467.548, 10073.300
468.883, 11809.720
470.219, 13826.146
471.554, 16532.578
472.889, 18819.012
474.224, 22655.459
475.558, 26021.900
476.892, 30148.355
478.227, 34144.820
479.561, 37201.301
480.894, 40167.758
482.228, 41004.242
483.561, 39760.727
484.894, 39367.227
486.227, 35293.727
487.559, 31600.232
488.892, 28076.752
490.224, 24033.268
491.556, 21049.799
492.888, 18016.336
494.220, 15382.885
495.551, 13289.433
496.882, 11705.995
498.213, 10022.558
499.544, 8579.135
500.874, 7835.717
502.205, 6692.305
503.535, 6018.903
504.865, 5373.217
506.194, 4802.120
507.524, 4368.744
508.853, 3805.380
510.182, 3472.028
511.511, 3248.690
512.840, 2867.368
514.168, 2693.063
515.496, 2381.773
516.824, 2230.501
518.152, 1994.247
519.480, 1855.011
520.807, 1864.793
522.134, 1483.595
523.461, 1424.413
524.788, 1392.247
526.114, 1189.098
527.441, 1167.964
528.767, 1039.059
530.093, 1014.957
531.418, 866.439
532.744, 891.498
534.069, 760.201
535.394, 831.055
536.719, 719.320
538.044, 747.352
539.368, 616.846
540.693, 514.174
542.017, 444.128
543.340, 514.162
544.664, 346.235
545.987, 363.320
547.311, 399.793
548.634, 324.993
549.956, 321.715
551.279, 293.801
552.601, 184.699
553.923, 218.753
555.245, 104.175
556.567, 77.595
557.889, 140.708
559.210, 145.600
560.531, 28.321
561.852, 20.777
563.173, 3.223
564.493, 22.009
565.813, 6.637
567.133, 73.028
568.453, 2.412
569.773, 49.274
571.092, 31.310
572.412, 52.578
573.731, 53.139
575.049, 39.832
576.368, 81.701
577.686, 65.227
579.005, 88.179
580.323, 84.505
581.640, 172.721
582.958, 204.630
584.275, 130.551
585.593, 205.980
586.909, 127.764
588.226, 266.967
589.543, 173.946
590.859, 174.560
592.175, 307.555
593.491, 266.722
594.807, 360.792
596.122, 366.077
597.438, 318.898
598.753, 415.130
600.068, 361.705
601.382, 462.333
602.697, 433.808
604.011, 404.480
605.325, 552.612
606.639, 516.438
607.952, 513.564
609.266, 461.251
610.579, 413.846
611.892, 502.553
613.205, 371.146
614.518, 554.584
615.830, 426.039
617.142, 429.514
618.454, 485.957
619.766, 381.391
621.078, 495.962
622.389, 421.380
623.700, 466.791
625.011, 555.193
626.322, 467.587
627.632, 607.973
628.943, 533.350
630.253, 462.717
631.563, 449.076
632.872, 365.424
634.182, 530.764
635.491, 530.094
636.800, 486.414
638.109, 555.724
639.418, 474.024
640.726, 520.313
642.035, 421.592
643.343, 507.860
644.651, 462.117
645.958, 425.363
647.266, 490.598
648.573, 409.822
649.880, 383.034
651.187, 421.233
652.494, 258.422
653.800, 418.598
655.106, 346.762
656.412, 333.912
657.718, 281.050
659.024, 292.176
660.329, 368.289
661.634, 394.388
662.939, 346.474
664.244, 424.579
665.549, 337.858
666.853, 424.095
668.157, 366.285
669.461, 269.586
670.765, 329.948
672.069, 212.935
673.372, 435.907
674.675, 289.113
675.978, 352.141
677.281, 350.671
678.583, 168.047
679.886, 165.940
681.188, 198.017
682.490, 133.902
683.792, 116.746
685.093, 51.284
686.394, 202.486
687.696, 23.453
688.997, 54.267
690.297, 8.201
691.598, 42.135
692.898, 36.476
694.198, 42.935
695.498, 33.402
696.798, 2.080
698.097, 118.472
699.397, 110.880
700.696, 102.588
701.995, 6.345
703.293, 40.898
704.592, 133.922
705.890, 29.149
707.188, 144.806
708.486, 20.125
709.784, 32.974
711.081, 38.115
712.378, 53.330
713.675, 127.471
714.972, 4.139
716.269, 41.710
717.565, 51.456
718.862, 15.027
720.158, 8.448
721.453, 64.148
722.749, 52.093
724.045, 50.606
725.340, 28.574
726.635, 19.088
727.930, 24.263
729.224, 16.407
730.519, 15.161
731.813, 36.774
733.107, 78.203
734.401, 46.179
735.694, 9.799
736.988, 86.740
738.281, 58.293
739.574, 64.991
740.867, 20.631
742.160, 105.030
743.452, 45.539
744.744, 93.021
746.036, 15.553
747.328, 10.073
748.620, 100.515
749.911, 11.983
751.202, 109.349
752.493, 57.686
753.784, 34.148
755.075, 33.081
756.365, 10.269
757.655, 14.407
758.945, 11.496
760.235, 23.951
761.525, 91.527
762.814, 63.487
764.103, 114.411
765.392, 137.187
766.681, 110.889
767.969, 140.091
769.258, 194.888
770.546, 229.950
771.834, 174.687
773.122, 252.770
774.409, 252.445
775.697, 148.091
776.984, 306.704
778.271, 230.287
779.558, 286.839
780.844, 307.416
782.131, 251.908
783.417, 330.370
784.703, 392.802
785.989, 254.204
787.274, 433.575
788.560, 314.917
789.845, 339.228
791.130, 400.509
792.415, 318.761
793.699, 363.981
794.983, 270.172
796.268, 349.333
797.552, 357.464
798.835, 211.564
800.119, 299.636
801.402, 229.677
802.686, 244.689
803.969, 245.670
805.251, 207.622
806.534, 211.544
807.816, 197.548
809.098, 189.863
810.380, 201.133
811.662, 194.937
812.944, 240.711
814.225, 265.833
815.506, 234.172
816.787, 294.859
818.068, 175.516
819.349, 130.144
820.629, 136.741
821.909, 144.308
823.189, 113.844
824.469, 98.349
825.749, 189.821
827.028, 184.266
828.307, 120.681
829.586, 159.066
830.865, 69.421
832.144, 82.743
833.422, 283.032
834.700, 130.293
835.978, 171.524
837.256, 208.727
838.534, 141.902
839.811, 196.835
841.088, 97.954
842.365, 166.472
843.642, 110.404
844.919, 251.677
846.195, 187.787
847.472, 173.473
848.748, 208.380
850.023, 168.812
851.299, 187.396
852.575, 156.342
853.850, 96.194
855.125, 141.994
856.400, 123.768
857.674, 160.142
858.949, 262.776
860.223, 138.874
861.497, 228.699
862.771, 215.491
864.045, 102.217
865.318, 172.562
866.591, 61.896
867.864, 101.522
869.137, 121.357
870.410, 13.349
871.682, 75.590
872.955, 99.829
874.227, 94.711
875.499, 180.015
876.770, 140.806
878.042, 119.058
879.313, 124.534
880.584, 6.544
881.855, 46.856
883.126, 30.139
884.396, 44.713
885.667, 59.380
886.937, 38.392
888.207, 19.000
889.476, 1.250
890.746, 3.368
892.015, 22.654
893.284, 54.896
894.553, 65.371
895.822, 20.656
897.090, 24.948
898.359, 43.821
899.627, 7.111
900.895, 69.092
902.163, 0.967
903.430, 67.999
904.698, 81.879
905.965, 48.723
907.232, 60.300
908.499, 72.038
909.765, 16.770
911.032, 64.697
912.298, 25.453
913.564, 48.784
914.830, 90.431
916.095, 25.768
917.361, 31.473
918.626, 30.639
919.891, 43.937
921.156, 41.860
922.420, 115.204
923.685, 27.677
924.949, 18.476
926.213, 48.396
927.477, 66.262
928.740, 52.975
930.004, 65.841
931.267, 50.701
932.530, 3.446
933.793, 101.415
935.056, 14.270
936.318, 52.119
937.581, 143.962
938.843, 63.801
940.104, 115.635
941.366, 90.464
942.628, 24.288
943.889, 134.109
945.150, 5.927
946.411, 135.739
947.672, 83.550
948.932, 82.356
950.193, 203.160
951.453, 59.960
952.713, 120.756
953.973, 200.551
955.232, 33.342
956.491, 177.132
957.751, 14.920
959.010, 143.706
960.268, 201.492
961.527, 104.275
962.785, 140.057
964.044, 98.856
965.302, 51.653
966.559, 222.449
967.817, 170.244
969.075, 148.038
970.332, 136.799
971.589, 123.370
972.846, 259.970
974.102, 153.605
975.359, 212.114
976.615, 239.549
977.871, 212.342
979.127, 248.137
980.383, 258.683
981.638, 267.391
982.893, 253.584
984.149, 327.921
985.404, 452.726
986.658, 404.332
987.913, 422.123
989.167, 459.940
990.421, 349.616
991.675, 440.459
992.929, 481.997
994.183, 422.899
995.436, 439.574
996.689, 474.498
997.942, 418.443
999.195, 570.394
1000.448, 528.365
1001.700, 775.371
1002.952, 806.386
1004.204, 630.448
1005.456, 742.315
1006.708, 501.421
1007.959, 692.538
1009.210, 650.702
1010.461, 638.915
1011.712, 668.137
1012.963, 676.409
1014.213, 697.705
1015.464, 793.009
1016.714, 606.350
1017.964, 866.578
1019.214, 838.996
1020.463, 713.428
1021.712, 977.578
1022.962, 863.041
1024.210, 983.538
1025.459, 1041.048
1026.708, 887.591
1027.956, 1048.146
1029.204, 914.729
1030.452, 915.322
1031.700, 1161.732
1032.948, 996.329
1034.195, 1144.293
1035.442, 1099.925
1036.689, 1105.604
1037.936, 1315.271
1039.183, 1299.111
1040.429, 1321.643
1041.676, 1534.150
1042.922, 1485.972
1044.168, 1686.095
1045.413, 1648.917
1046.659, 1640.949
1047.904, 1873.812
1049.149, 1768.626
1050.394, 1941.487
1051.639, 2005.017
1052.884, 1858.022
1054.128, 2090.960
1055.372, 2033.917
1056.616, 2025.021
1057.860, 2088.017
1059.104, 1941.543
1060.347, 2164.574
1061.590, 2067.635
1062.833, 2011.569
1064.076, 2144.662
1065.319, 2087.881
1066.561, 2161.015
1067.803, 2263.277
1069.046, 2215.852
1070.287, 2447.643
1071.529, 2360.823
1072.771, 2498.738
1074.012, 2731.947
1075.253, 2696.795
1076.494, 2830.042
1077.735, 2893.275
1078.975, 3059.723
1080.216, 3332.996
1081.456, 3406.276
1082.696, 3532.644
1083.936, 3745.952
1085.175, 3819.271
1086.415, 4132.601
1087.654, 4265.938
1088.893, 4209.428
1090.132, 4542.778
1091.371, 4426.137
1092.609, 4739.942
1093.847, 4813.315
1095.085, 4616.691
1096.323, 4840.293
1097.561, 4813.684
1098.799, 4717.266
1100.036, 4960.668
1101.273, 4624.076
1102.510, 4817.922
1103.747, 4721.357
1104.983, 4464.887
1106.220, 4828.682
1107.456, 4422.154
1108.692, 4336.029
1109.928, 4379.516
1111.163, 4203.005
1112.399, 4180.957
1113.634, 4064.461
1114.869, 3737.968
1116.104, 3891.497
1117.339, 3595.017
1118.573, 3458.542
1119.808, 3362.072
1121.042, 3185.607
1122.276, 3399.801
1123.509, 3163.356
1124.743, 2886.917
1125.976, 2810.488
1127.210, 2354.061
1128.443, 2437.639
1129.675, 2421.447
1130.908, 1895.038
1132.141, 2039.711
1133.373, 1843.324
1134.605, 1706.939
1135.837, 1742.317
1137.068, 1565.941
1138.300, 1369.909
1139.531, 1503.873
1140.762, 1237.507
1141.993, 1333.553
1143.224, 1237.299
1144.455, 1021.042
1145.685, 1305.032
1146.915, 948.688
1148.145, 832.630
1149.375, 939.105
1150.605, 762.766
1151.834, 877.443
1153.063, 641.324
1154.292, 604.987
1155.521, 807.813
1156.750, 520.477
1157.978, 615.295
1159.207, 539.475
1160.435, 473.136
1161.663, 579.805
1162.891, 454.464
1164.118, 352.162
1165.345, 530.854
1166.573, 274.506
1167.800, 444.155
1169.026, 399.321
1170.253, 281.967
1171.480, 302.154
1172.706, 184.925
1173.932, 252.558
1175.158, 244.062
1176.383, 166.687
1177.609, 329.307
1178.834, 193.157
1180.059, 133.768
1181.284, 312.684
1182.509, 78.514
1183.734, 85.167
1184.958, 258.350
1186.182, 37.019
1187.406, 146.555
1188.630, 173.593
1189.854, 103.155
1191.077, 133.908
1192.301, 79.772
1193.524, 60.329
1194.747, 113.235
1195.969, 47.504
1197.192, 206.016
1198.414, 17.502
1199.636, 2.330
1200.858, 123.815
1202.080, 87.050
1203.302, 60.516
1204.523, 92.224
1205.744, 12.428
1206.966, 107.014
1208.186, 85.670
1209.407, 19.889
1210.628, 106.513
1211.848, 34.580
1213.068, 86.974
1214.288, 134.180
1215.508, 1.371
1216.727, 224.722
1217.947, 73.433
1219.166, 66.739
1220.385, 244.099
1221.604, 33.761
1222.822, 67.557
1224.041, 244.863
1225.259, 48.752
1226.477, 227.702
1227.695, 137.941
1228.913, 45.167
1230.130, 147.091
1231.348, 153.768
1232.565, 229.334
1233.782, 282.479
1234.999, 59.234
1236.215, 120.351
1237.432, 302.453
1238.648, 3.037
1239.864, 279.118
1241.080, 192.191
1242.296, 49.259
1243.511, 278.319
1244.726, 58.373
1245.942, 114.417
1247.156, 227.454
1248.371, 15.601
1249.586, 326.601
1250.800, 89.594
1252.014, 37.504
1253.228, 330.481
1254.442, 27.447
1255.656, 136.621
1256.869, 269.569
1258.083, 52.491
1259.296, 305.665
1260.509, 138.553
1261.722, 121.638
1262.934, 264.504
1264.147, 137.298
1265.359, 130.202
1266.571, 272.973
1267.783, 15.718
1268.994, 330.389
1270.206, 253.053
1271.417, 146.101
1272.628, 348.738
1273.839, 141.347
1275.050, 84.449
1276.260, 297.031
1277.471, 9.599
1278.681, 154.065
1279.891, 226.575
1281.101, 0.852
1282.310, 291.622
1283.520, 64.079
1284.729, 66.519
1285.938, 288.941
1287.147, 168.652
1288.356, 124.092
1289.564, 126.386
1290.773, 68.653
1291.981, 311.774
1293.189, 83.982
1294.397, 13.826
1295.604, 278.330
1296.812, 20.447
1298.019, 102.504
1299.226, 214.537
1300.433, 113.452
1301.640, 258.461
1302.846, 120.351
1304.053, 52.222
1305.259, 174.024
1306.465, 14.222
1307.671, 177.495
1308.876, 149.182
1310.082, 150.844
1311.287, 242.481
1312.492, 244.101
1313.697, 55.699
1314.902, 217.274
1316.106, 21.199
1317.310, 130.289
1318.515, 261.707
1319.719, 33.101
1320.922, 244.466
1322.126, 175.805
1323.329, 107.116
1324.533, 178.401
1325.736, 89.661
1326.939, 110.874
1328.141, 152.056
1329.344, 53.208
1330.546, 154.331
1331.748, 244.163
1332.950, 65.208
1334.152, 176.225
1335.354, 117.213
1336.555, 31.833
1337.757, 169.060
1338.958, 79.926
1340.159, 10.762
1341.359, 179.625
1342.560, 30.397
1343.760, 80.521
1344.960, 181.097
1346.160, 8.216
1347.360, 252.437
1348.560, 103.062
1349.759, 33.660
1350.959, 233.717
1352.158, 15.736
1353.357, 154.773
1354.555, 164.403
1355.754, 55.133
1356.952, 155.192
1358.151, 35.592
1359.349, 35.969
1360.546, 236.065
1361.744, 0.438
1362.941, 10.122
1364.139, 280.159
1365.336, 40.438
1366.533, 248.697
1367.730, 328.934
1368.926, 60.811
1370.123, 106.235
1371.319, 236.464
1372.515, 23.491
1373.711, 133.404
1374.906, 53.403
1376.102, 13.380
1377.297, 253.321
1378.492, 43.270
1379.687, 263.093
1380.882, 223.125
1382.077, 53.304
1383.271, 434.890
1384.465, 196.677
1385.659, 178.469
1386.853, 400.431
1388.047, 201.905
1389.240, 163.326
1390.434, 314.720
1391.627, 13.494
1392.820, 403.449
1394.013, 415.126
1395.205, 43.206
1396.398, 468.436
1397.590, 179.316
1398.782, 100.883
1399.974, 342.426
1401.166, 163.685
1402.357, 93.907
1403.549, 333.271
1404.740, 104.255
1405.931, 315.216
1407.122, 261.371
1408.313, 111.984
1409.503, 362.741
1410.693, 190.297
1411.883, 0.247
1413.073, 359.021
1414.263, 49.649
1415.453, 179.773
1416.642, 286.567
1417.831, 37.160
1419.020, 217.836
1420.209, 337.778
1421.398, 6.686
1422.587, 342.633
1423.775, 103.136
1424.963, 123.281
1426.151, 482.968
1427.339, 202.463
1428.526, 142.805
1429.714, 242.490
1430.901, 36.019
1432.088, 355.735
1433.275, 363.306
1434.462, 11.451
1435.648, 447.211
1436.835, 176.925
1438.021, 175.543
1439.207, 450.174
1440.393, 250.531
1441.579, 438.892
1442.764, 497.231
1443.949, 197.532
1445.135, 555.647
1446.320, 495.173
1447.504, 193.042
1448.689, 775.492
1449.873, 453.654
1451.058, 420.141
1452.242, 718.053
1453.426, 316.150
1454.609, 565.146
1455.793, 714.037
1456.976, 322.829
1458.159, 514.804
1459.342, 543.346
1460.525, 330.766
1461.708, 718.368
1462.890, 456.319
1464.073, 363.584
1465.255, 660.819
1466.437, 348.416
1467.619, 346.221
1468.800, 649.084
1469.982, 155.800
1471.163, 532.138
1472.344, 499.675
1473.525, 151.760
1474.706, 608.814
1475.886, 415.958
1477.066, 122.954
1478.247, 668.623
1479.427, 202.733
1480.607, 279.550
1481.786, 476.306
1482.966, 113.259
1484.145, 320.254
1485.324, 247.285
1486.503, 134.645
1487.682, 402.076
1488.860, 249.496
1490.039, 116.817
1491.217, 414.151
1492.395, 251.736
1493.573, 89.511
1494.751, 387.311
1495.928, 125.125
1497.106, 243.194
1498.283, 431.384
1499.460, 159.927
1500.637, 318.613
1501.814, 257.635
1502.990, 63.014
1504.166, 296.621
1505.342, 166.570
1506.518, 116.852
1507.694, 337.545
1508.870, 118.711
1510.045, 190.428
1511.221, 382.801
1512.396, 35.930
1513.571, 195.557
1514.745, 224.691
1515.920, 113.300
1517.094, 280.729
1518.269, 125.577
1519.443, 38.597
1520.616, 344.384
1521.790, 79.163
1522.964, 0.000
##END=



