##NAMES=Analcime
##RRUFFID=R060023
##IDEAL CHEMISTRY=NaAlSi_2_O_6_&#183;H_2_O
##LOCALITY=Dallas, Oregon, USA
##OWNER=RRUFF
##SOURCE=Bob Downs
##DESCRIPTION=White trapezohedral crystal associated with levyne-Na, R060021
##STATUS=The identification of this mineral has been confirmed by X-ray diffraction and chemical analysis
##URL=rruff.info/R060023
##MEASURED CHEMISTRY=(Na_0.98_[box]_0.02_)_Σ=1_(Si_2.02_Al_0.98_)O_6_·H_2_O
##PIN_ID=M00322
##ORIENTATION=Laser parallel to a* (1 0 0). Fiducial mark perpendicular to laser is parallel to c [0 0 1]
168.1040, 0.0000000E+00
169.3320, 0.6025390
170.5590, 150.6973
171.7860, 61.60107
173.0130, 6.162598
174.2400, 18.05322
175.4670, 29.90723
176.6930, 107.9512
177.9200, 112.4575
179.1460, 156.2319
180.3720, 156.4341
181.5980, 150.6372
182.8230, 169.0933
184.0490, 249.8218
185.2740, 279.7788
186.5000, 341.9043
187.7250, 482.2910
188.9500, 502.8022
190.1740, 525.3560
191.3990, 462.8359
192.6230, 582.7900
193.8480, 598.1816
195.0720, 768.6562
196.2960, 768.9180
197.5200, 825.1548
198.7430, 906.3501
199.9670, 1001.855
201.1900, 938.9668
202.4130, 979.9395
203.6360, 926.9951
204.8590, 1020.328
206.0820, 1001.231
207.3050, 990.6299
208.5270, 1161.263
209.7490, 1114.568
210.9710, 1188.148
212.1930, 1215.950
213.4150, 1326.810
214.6370, 1314.746
215.8580, 1427.441
217.0790, 1491.513
218.3010, 1565.328
219.5210, 1606.690
220.7420, 1636.849
221.9630, 1678.207
223.1830, 1687.892
224.4040, 1536.405
225.6240, 1625.357
226.8440, 1495.908
228.0640, 1341.518
229.2840, 1299.172
230.5030, 1370.850
231.7230, 1236.539
232.9420, 1044.229
234.1610, 1083.924
235.3800, 921.6313
236.5990, 883.3542
237.8170, 921.0979
239.0360, 887.8643
240.2540, 706.6572
241.4720, 720.5308
242.6900, 596.6299
243.9080, 470.9434
245.1250, 386.4602
246.3430, 336.1682
247.5600, 280.0535
248.7770, 237.1038
249.9940, 190.6594
251.2110, 137.6433
252.4280, 123.1094
253.6450, 56.46826
254.8610, 78.93896
256.0770, 83.09790
257.2930, 69.92603
258.5090, 12.74048
259.7250, 5.515625
260.9400, 34.21875
262.1560, 64.36328
263.3710, 44.33447
264.5860, 116.6267
265.8010, 51.46191
267.0160, 87.36279
268.2310, 67.10278
269.4450, 128.9456
270.6600, 126.8049
271.8740, 120.6794
273.0880, 57.56592
274.3020, 45.46313
275.5150, 44.36890
276.7290, 25.28296
277.9420, 25.44141
279.1550, 42.87207
280.3680, 157.9253
281.5810, 241.9463
282.7940, 336.9185
284.0070, 510.1184
285.2190, 642.6460
286.4310, 895.3794
287.6430, 1096.969
288.8550, 1353.376
290.0670, 1709.574
291.2790, 2164.586
292.4900, 2766.373
293.7020, 3232.956
294.9130, 3680.418
296.1240, 3969.833
297.3350, 3973.259
298.5450, 3891.751
299.7560, 3616.316
300.9660, 3221.325
302.1760, 3078.689
303.3860, 2271.446
304.5960, 1874.264
305.8060, 1667.147
307.0150, 1442.084
308.2250, 1151.073
309.4340, 1083.105
310.6430, 905.1812
311.8520, 852.3003
313.0610, 818.4634
314.2700, 795.1489
315.4780, 771.5068
316.6860, 772.4512
317.8940, 751.4448
319.1020, 751.7417
320.3100, 765.1113
321.5180, 688.4165
322.7250, 767.6460
323.9330, 751.7944
325.1400, 763.8574
326.3470, 817.8298
327.5540, 792.7012
328.7600, 840.9492
329.9670, 875.1191
331.1730, 895.6641
332.3800, 925.1040
333.5860, 931.4417
334.7920, 1001.676
335.9970, 949.8027
337.2030, 1065.813
338.4080, 1131.693
339.6140, 1169.427
340.8190, 1159.005
342.0240, 1218.567
343.2290, 1190.724
344.4330, 1307.890
345.6380, 1324.944
346.8420, 1408.896
348.0460, 1505.755
349.2500, 1494.530
350.4540, 1510.227
351.6580, 1558.845
352.8610, 1594.368
354.0650, 1661.784
355.2680, 1804.072
356.4710, 1844.204
357.6740, 1908.192
358.8760, 2066.992
360.0790, 2136.010
361.2810, 2241.859
362.4840, 2375.863
363.6860, 2466.602
364.8880, 2616.020
366.0900, 2710.193
367.2910, 2891.199
368.4930, 3082.114
369.6940, 3252.002
370.8950, 3483.901
372.0960, 3593.827
373.2970, 3780.778
374.4980, 3954.094
375.6980, 4275.759
376.8980, 4344.788
378.0990, 4557.843
379.2990, 4868.925
380.4980, 4930.031
381.6980, 5175.164
382.8980, 5273.323
384.0970, 5413.507
385.2960, 5434.717
386.4950, 5477.952
387.6940, 5441.186
388.8930, 5344.940
390.0920, 5347.389
391.2900, 5160.663
392.4880, 4910.530
393.6860, 4607.104
394.8840, 4437.257
396.0820, 4165.770
397.2800, 3818.132
398.4770, 3621.068
399.6750, 3278.735
400.8720, 3061.608
402.0690, 2854.265
403.2660, 2649.432
404.4620, 2426.190
405.6590, 2216.283
406.8550, 2140.619
408.0510, 1906.346
409.2480, 1810.669
410.4430, 1727.212
411.6390, 1493.633
412.8350, 1462.456
414.0300, 1330.528
415.2250, 1225.866
416.4200, 1250.720
417.6150, 1163.665
418.8100, 1108.225
420.0050, 980.8037
421.1990, 987.8696
422.3940, 961.7319
423.5880, 925.0742
424.7820, 941.1709
425.9750, 864.8359
427.1690, 854.0054
428.3630, 833.8198
429.5560, 787.3975
430.7490, 848.3257
431.9420, 918.1763
433.1350, 804.5684
434.3280, 868.7432
435.5200, 972.9839
436.7130, 1026.227
437.9050, 963.0801
439.0970, 1078.504
440.2890, 1136.893
441.4810, 1233.315
442.6720, 1294.804
443.8640, 1401.311
445.0550, 1468.487
446.2460, 1638.108
447.4370, 1740.647
448.6280, 1912.224
449.8180, 2084.837
451.0090, 2238.477
452.1990, 2507.166
453.3890, 2693.892
454.5790, 2957.649
455.7690, 3379.436
456.9590, 3770.252
458.1480, 4288.069
459.3380, 4721.889
460.5270, 5436.711
461.7160, 5954.540
462.9050, 6738.385
464.0940, 7919.242
465.2820, 9015.111
466.4700, 10267.99
467.6590, 11746.87
468.8470, 13330.77
470.0350, 15568.66
471.2220, 17898.58
472.4100, 20872.49
473.5970, 23455.41
474.7850, 26900.35
475.9720, 30377.31
477.1590, 33389.27
478.3460, 36540.25
479.5320, 38857.25
480.7190, 40451.23
481.9050, 40947.26
483.0910, 40365.29
484.2770, 38571.34
485.4630, 36654.40
486.6490, 33683.47
487.8340, 30601.55
489.0200, 27720.64
490.2050, 24357.73
491.3900, 21444.84
492.5750, 18806.96
493.7600, 16533.08
494.9440, 14568.22
496.1290, 12848.38
497.3130, 11432.54
498.4970, 9829.718
499.6810, 8841.908
500.8650, 7727.110
502.0480, 6927.329
503.2320, 6179.563
504.4150, 5472.815
505.5980, 4910.085
506.7810, 4383.374
507.9640, 4109.683
509.1460, 3842.015
510.3290, 3361.368
511.5110, 3178.744
512.6930, 2744.143
513.8750, 2678.565
515.0570, 2361.009
516.2390, 2262.477
517.4210, 2072.965
518.6020, 1979.477
519.7830, 1855.010
520.9640, 1707.112
522.1450, 1596.285
523.3260, 1435.740
524.5060, 1343.359
525.6870, 1205.000
526.8670, 1084.662
528.0470, 995.6582
529.2270, 963.0469
530.4070, 857.7715
531.5870, 819.5176
532.7660, 851.2871
533.9450, 763.0820
535.1240, 626.9028
536.3030, 642.7510
537.4820, 503.6279
538.6610, 498.5371
539.8390, 388.4785
541.0180, 537.4590
542.1960, 434.4746
543.3740, 377.5244
544.5520, 256.6099
545.7290, 306.7461
546.9070, 274.9312
548.0840, 188.1724
549.2620, 119.5542
550.4390, 177.9160
551.6160, 141.3516
552.7920, 139.8457
553.9690, 65.43066
555.1450, 71.27197
556.3220, 22.10303
557.4980, 47.02490
558.6740, 13.02490
559.8490, 16.76514
561.0250, 9.382813
562.2000, 95.81641
563.3760, 31.64062
564.5510, 28.31641
565.7260, 93.76367
566.9010, 63.66650
568.0750, 65.38037
569.2500, 69.56250
570.4240, 27.98486
571.5980, 118.7065
572.7720, 66.09570
573.9460, 14.78760
575.1200, 71.82471
576.2930, 0.2817380
577.4670, 23.27930
578.6400, 27.39453
579.8130, 73.14355
580.9860, 42.95264
582.1590, 2.119141
583.3310, 4.675293
584.5040, 62.53369
585.6760, 56.78418
586.8480, 4.641602
588.0200, 62.83838
589.1920, 38.42432
590.3630, 47.74561
591.5350, 80.07031
592.7060, 114.5508
593.8770, 85.03369
595.0480, 102.8984
596.2190, 120.6592
597.3900, 146.7510
598.5600, 81.45850
599.7310, 203.1948
600.9010, 134.2114
602.0710, 121.0732
603.2410, 169.1284
604.4100, 190.5273
605.5800, 221.8291
606.7490, 329.5513
607.9190, 309.7700
609.0880, 369.6860
610.2570, 438.6289
611.4250, 405.7036
612.5940, 435.2910
613.7620, 384.7480
614.9310, 426.8477
616.0990, 488.6807
617.2670, 326.0667
618.4340, 409.7214
619.6020, 361.0293
620.7690, 383.7290
621.9370, 411.0935
623.1040, 339.2786
624.2710, 357.3484
625.4380, 340.9336
626.6040, 327.5120
627.7710, 390.8818
628.9370, 360.2600
630.1030, 327.7336
631.2690, 265.1118
632.4350, 322.4902
633.6010, 220.8877
634.7660, 237.2847
635.9320, 307.7073
637.0970, 274.1294
638.2620, 311.1863
639.4270, 319.9690
640.5920, 318.3928
641.7560, 274.8259
642.9210, 236.2578
644.0850, 242.6904
645.2490, 253.1235
646.4130, 272.5547
647.5770, 286.4673
648.7400, 239.4119
649.9040, 311.8364
651.0670, 329.2576
652.2300, 314.6746
653.3930, 215.0957
654.5560, 278.5120
655.7190, 257.9250
656.8810, 234.3325
658.0440, 330.7354
659.2060, 283.1328
660.3680, 383.5242
661.5300, 346.9102
662.6910, 410.2896
663.8530, 424.6626
665.0140, 439.0293
666.1750, 450.3923
667.3360, 471.7483
668.4970, 511.0969
669.6580, 499.4380
670.8190, 498.7710
671.9790, 464.0962
673.1390, 474.4133
674.2990, 497.7219
675.4590, 536.0217
676.6190, 497.3130
677.7790, 460.5945
678.9380, 411.8667
680.0970, 378.2104
681.2570, 273.4626
682.4160, 288.7046
683.5740, 213.9585
684.7330, 259.2935
685.8920, 186.6675
687.0500, 133.0925
688.2080, 75.47412
689.3660, 137.8958
690.5240, 143.1213
691.6820, 138.4050
692.8390, 94.56250
693.9960, 124.6892
695.1540, 31.86938
696.3110, 69.22095
697.4680, 69.46582
698.6240, 9.585449
699.7810, 36.48877
700.9370, 29.50928
702.0940, 71.81982
703.2500, 43.31079
704.4060, 41.31738
705.5610, 101.9565
706.7170, 57.19629
707.8720, 18.33105
709.0280, 24.29004
710.1830, 60.48779
711.3380, 47.66138
712.4920, 44.50562
713.6470, 32.00757
714.8020, 13.64966
715.9560, 13.82837
717.1100, 55.68872
718.2640, 75.64307
719.4180, 87.23511
720.5720, 15.73633
721.7250, 32.32886
722.8780, 22.03247
724.0320, 65.58545
725.1850, 61.07471
726.3380, 33.32837
727.4900, 12.36987
728.6430, 7.501465
729.7950, 80.89868
730.9470, 56.67798
732.1000, 8.391113
733.2510, 1.976318
734.4030, 27.38989
735.5550, 18.94580
736.7060, 31.89917
737.8570, 32.63721
739.0090, 24.53442
740.1600, 6.075439
741.3100, 28.66309
742.4610, 1.854980
743.6110, 16.03857
744.7620, 11.35742
745.9120, 2.314941
747.0620, 9.154541
748.2120, 34.85718
749.3610, 9.343018
750.5110, 72.42383
751.6600, 105.0439
752.8090, 24.29248
753.9580, 34.75171
755.1070, 133.1768
756.2560, 73.30249
757.4050, 7.650879
758.5530, 1.173340
759.7010, 7.333740
760.8490, 13.12573
761.9970, 15.88770
763.1450, 103.1421
764.2920, 105.3416
765.4400, 162.3477
766.5870, 178.1953
767.7340, 135.1465
768.8810, 181.2500
770.0280, 196.2654
771.1740, 245.7441
772.3210, 180.7056
773.4670, 169.6611
774.6130, 217.6348
775.7590, 223.4487
776.9050, 255.1970
778.0510, 178.2754
779.1960, 294.5684
780.3420, 300.4097
781.4870, 310.6047
782.6320, 440.9302
783.7770, 360.6775
784.9210, 405.3528
786.0660, 377.4795
787.2100, 457.9912
788.3540, 406.5049
789.4980, 505.9675
790.6420, 408.1506
791.7860, 372.5549
792.9300, 377.1323
794.0730, 435.4827
795.2160, 405.8062
796.3590, 381.1025
797.5020, 375.3721
798.6450, 353.6143
799.7880, 360.8296
800.9300, 339.0405
802.0720, 298.2017
803.2150, 387.9536
804.3560, 286.0603
805.4980, 299.1401
806.6400, 256.1924
807.7810, 313.2178
808.9230, 295.2161
810.0640, 262.1870
811.2050, 209.1309
812.3460, 293.0476
813.4860, 208.9370
814.6270, 227.7991
815.7670, 213.6343
816.9070, 157.4424
818.0470, 199.2227
819.1870, 228.9756
820.3270, 170.7014
821.4670, 148.4001
822.6060, 136.0710
823.7450, 120.7886
824.8840, 128.0598
826.0230, 114.8337
827.1620, 158.3896
828.3010, 140.9185
829.4390, 167.4194
830.5770, 170.8682
831.7150, 154.3154
832.8530, 108.3774
833.9910, 129.3274
835.1290, 154.8240
836.2660, 134.8481
837.4030, 162.9573
838.5410, 143.4375
839.6780, 119.5476
840.8140, 204.5112
841.9510, 128.2466
843.0870, 152.4207
844.2240, 183.3901
845.3600, 184.8120
846.4960, 287.4539
847.6320, 159.3816
848.7680, 88.94751
849.9030, 122.7952
851.0380, 128.3254
852.1740, 187.5625
853.3090, 148.1201
854.4440, 131.8999
855.5780, 83.73975
856.7130, 21.61670
857.8470, 85.82837
858.9820, 14.41577
860.1160, 124.2864
861.2500, 142.9590
862.3830, 72.36255
863.5170, 116.8457
864.6500, 27.20923
865.7840, 68.82056
866.9170, 57.41455
868.0500, 68.83911
869.1830, 37.24609
870.3150, 29.25586
871.4480, 20.35449
872.5800, 0.1054690
873.7120, 2.619385
874.8440, 109.2856
875.9760, 14.05737
877.1080, 22.96582
878.2390, 94.66528
879.3710, 5.006836
880.5020, 103.4072
881.6330, 21.41479
882.7640, 21.11011
883.8940, 59.64355
885.0250, 28.35571
886.1550, 21.92114
887.2850, 49.95898
888.4160, 7.888184
889.5450, 24.39722
890.6750, 1.663330
891.8050, 21.49902
892.9340, 57.37305
894.0630, 4.578857
895.1930, 54.62329
896.3220, 0.4797360
897.4500, 11.74609
898.5790, 15.11279
899.7070, 20.94922
900.8360, 59.77734
901.9640, 28.19971
903.0920, 119.7925
904.2200, 15.67480
905.3470, 29.63672
906.4750, 73.41553
907.6020, 28.47852
908.7290, 98.64111
909.8560, 11.17236
910.9830, 41.97168
912.1100, 71.75732
913.2360, 24.46924
914.3630, 44.72266
915.4890, 5.989258
916.6150, 12.31299
917.7410, 15.63379
918.8670, 6.026855
919.9920, 15.67334
921.1180, 14.69238
922.2430, 39.92383
923.3680, 31.52881
924.4930, 36.12158
925.6180, 36.29590
926.7420, 41.25879
927.8670, 3.197754
928.9910, 87.33301
930.1150, 34.85400
931.2390, 90.36426
932.3630, 73.86426
933.4860, 29.35449
934.6100, 52.83447
935.7330, 19.30518
936.8560, 34.76562
937.9790, 20.78320
939.1020, 52.65283
940.2250, 82.07959
941.3470, 18.49756
942.4700, 88.90674
943.5920, 134.3086
944.7140, 133.7021
945.8360, 59.08691
946.9570, 135.4644
948.0790, 143.8330
949.2000, 15.19482
950.3220, 94.54883
951.4430, 76.89551
952.5640, 114.1533
953.6840, 142.4858
954.8050, 156.8110
955.9250, 110.1167
957.0460, 150.3267
958.1660, 69.47998
959.2860, 157.5684
960.4050, 91.68359
961.5250, 86.73828
962.6440, 167.9731
963.7640, 181.1304
964.8830, 155.3945
966.0020, 109.6699
967.1210, 147.8726
968.2390, 181.8936
969.3580, 188.0005
970.4760, 227.2119
971.5940, 187.3481
972.7120, 208.6597
973.8300, 168.8701
974.9480, 193.0098
976.0650, 212.3247
977.1830, 169.5347
978.3000, 280.8447
979.4170, 261.1777
980.5340, 318.5112
981.6500, 374.8442
982.7670, 380.1782
983.8830, 253.2754
985.0000, 338.5254
986.1160, 341.8262
987.2320, 352.2002
988.3470, 388.5840
989.4630, 390.4961
990.5780, 429.0698
991.6940, 415.3574
992.8090, 406.5259
993.9240, 417.5908
995.0380, 414.8110
996.1530, 390.3784
997.2680, 422.5117
998.3820, 413.3262
999.4960, 401.7642
1000.610, 448.0049
1001.724, 407.2012
1002.837, 504.4917
1003.951, 461.6714
1005.064, 438.7891
1006.177, 483.7407
1007.291, 506.9399
1008.403, 479.9961
1009.516, 437.5479
1010.629, 531.4321
1011.741, 413.5679
1012.853, 475.1187
1013.965, 436.9229
1015.077, 454.5562
1016.189, 557.8843
1017.300, 518.3008
1018.412, 445.8413
1019.523, 568.2598
1020.634, 475.6782
1021.745, 559.2217
1022.856, 537.7012
1023.966, 452.2656
1025.077, 506.4121
1026.187, 519.3394
1027.297, 568.0225
1028.407, 666.5010
1029.517, 648.0405
1030.627, 575.0107
1031.736, 656.6016
1032.845, 656.2271
1033.955, 648.9033
1035.064, 699.7524
1036.172, 738.7412
1037.281, 683.6045
1038.390, 757.2964
1039.498, 669.0542
1040.606, 750.3291
1041.714, 772.0996
1042.822, 763.8564
1043.930, 874.5742
1045.037, 749.4307
1046.145, 796.3335
1047.252, 939.8853
1048.359, 859.2017
1049.466, 956.9497
1050.573, 960.3232
1051.679, 967.5449
1052.786, 928.3262
1053.892, 898.1587
1054.998, 966.5195
1056.104, 912.4766
1057.210, 1000.411
1058.315, 963.3804
1059.421, 1057.610
1060.526, 1094.599
1061.631, 1087.394
1062.736, 1069.396
1063.841, 1120.406
1064.946, 1150.422
1066.050, 1174.932
1067.154, 1212.874
1068.258, 1247.514
1069.362, 1271.535
1070.466, 1306.346
1071.570, 1333.036
1072.674, 1417.110
1073.777, 1505.197
1074.880, 1563.292
1075.983, 1650.574
1077.086, 1709.593
1078.189, 1805.802
1079.291, 1803.927
1080.394, 1904.060
1081.496, 1900.201
1082.598, 2027.350
1083.700, 2019.506
1084.802, 2141.670
1085.903, 2152.843
1087.005, 2387.023
1088.106, 2391.403
1089.207, 2460.123
1090.308, 2558.328
1091.409, 2529.509
1092.509, 2561.731
1093.610, 2532.962
1094.710, 2570.512
1095.810, 2710.638
1096.910, 2688.894
1098.010, 2716.158
1099.110, 2873.431
1100.209, 2862.421
1101.309, 2791.711
1102.408, 2756.009
1103.507, 2820.317
1104.606, 2863.632
1105.704, 2858.179
1106.803, 2778.343
1107.901, 2790.097
1108.999, 2714.033
1110.097, 2730.390
1111.195, 2640.496
1112.293, 2605.868
1113.391, 2550.248
1114.488, 2504.248
1115.585, 2469.642
1116.682, 2359.374
1117.779, 2321.130
1118.876, 2343.203
1119.973, 2195.629
1121.069, 2188.062
1122.165, 2133.913
1123.261, 2097.559
1124.357, 2041.050
1125.453, 1973.496
1126.549, 1918.900
1127.644, 1889.389
1128.739, 1846.887
1129.835, 1817.153
1130.930, 1736.664
1132.024, 1660.275
1133.119, 1576.802
1134.214, 1479.881
1135.308, 1439.488
1136.402, 1474.039
1137.496, 1457.678
1138.590, 1391.241
1139.684, 1227.768
1140.777, 1230.467
1141.871, 1165.073
1142.964, 1128.687
1144.057, 1136.308
1145.150, 1050.761
1146.243, 1011.957
1147.335, 940.6641
1148.428, 865.3105
1149.520, 913.2896
1150.612, 849.9565
1151.704, 808.6328
1152.796, 769.4453
1153.887, 691.1704
1154.979, 712.9692
1156.070, 721.6929
1157.161, 617.4062
1158.252, 625.1318
1159.343, 524.8647
1160.433, 501.7373
1161.524, 576.4961
1162.614, 604.2563
1163.704, 519.1475
1164.794, 509.8823
1165.884, 448.1284
1166.974, 415.0117
1168.063, 390.7983
1169.153, 419.5874
1170.242, 433.3804
1171.331, 400.1782
1172.420, 321.9985
1173.508, 359.8281
1174.597, 225.6812
1175.685, 207.5366
1176.774, 251.3955
1177.862, 239.2568
1178.950, 281.1270
1180.037, 270.0107
1181.125, 210.8979
1182.212, 213.7900
1183.300, 179.7769
1184.387, 177.6772
1185.474, 202.5806
1186.560, 110.5718
1187.647, 172.4819
1188.733, 180.5137
1189.820, 119.5845
1190.906, 183.5083
1191.992, 153.4346
1193.078, 104.3623
1194.163, 133.2930
1195.249, 152.2231
1196.334, 47.20215
1197.419, 63.22900
1198.504, 106.1738
1199.589, 76.11963
1200.674, 74.06689
1201.758, 59.51953
1202.843, 145.4712
1203.927, 108.7412
1205.011, 46.69434
1206.095, 9.351563
1207.179, 85.60107
1208.262, 58.61914
1209.345, 111.5723
1210.429, 79.52539
1211.512, 50.47900
1212.595, 39.43262
1213.677, 83.38574
1214.760, 15.33936
1215.842, 90.29346
1216.925, 106.2944
1218.007, 45.75244
1219.089, 15.81934
1220.171, 49.10791
1221.252, 23.96484
1222.334, 169.9521
1223.415, 45.86865
1224.496, 6.214844
1225.577, 121.7622
1226.658, 6.675781
1227.738, 56.58789
1228.819, 45.50049
1229.899, 49.58838
1230.979, 79.29736
1232.060, 62.18213
1233.139, 27.25195
1234.219, 81.13330
1235.299, 23.86133
1236.378, 16.77832
1237.457, 46.08447
1238.536, 67.94580
1239.615, 39.80518
1240.694, 30.33691
1241.772, 111.5903
1242.851, 143.5581
1243.929, 10.51318
1245.007, 84.31885
1246.085, 37.85107
1247.163, 44.95703
1248.240, 19.76221
1249.318, 52.68994
1250.395, 116.4971
1251.472, 4.698242
1252.549, 33.60889
1253.626, 72.29785
1254.703, 22.12012
1255.779, 44.10938
1256.855, 35.63281
1257.931, 25.48242
1259.007, 8.727539
1260.083, 30.99756
1261.159, 29.28027
1262.234, 64.41943
1263.310, 3.883301
1264.385, 14.80469
1265.460, 42.51172
1266.535, 12.24414
1267.610, 39.89453
1268.684, 8.790527
1269.758, 26.12451
1270.833, 122.4873
1271.907, 73.09424
1272.981, 85.69775
1274.054, 20.65527
1275.128, 32.07617
1276.201, 24.49951
1277.275, 122.0684
1278.348, 43.35449
1279.421, 96.27734
1280.493, 41.85693
1281.566, 11.35742
1282.638, 33.85205
1283.711, 19.34229
1284.783, 21.17432
1285.855, 73.28662
1286.927, 61.81689
1287.998, 46.26855
1289.070, 14.81934
1290.141, 47.25879
1291.212, 91.69336
1292.283, 19.12305
1293.354, 50.38379
1294.425, 6.001953
1295.495, 25.37744
1296.566, 92.74707
1297.636, 96.11035
1298.706, 58.46875
1299.776, 52.85889
1300.845, 72.39893
1301.915, 52.89160
1302.984, 85.22559
1304.054, 71.55420
1305.123, 87.63721
1306.191, 108.2485
1307.260, 111.6167
1308.329, 121.9243
1309.397, 123.2251
1310.465, 116.1489
1311.534, 37.80615
1312.602, 85.08496
1313.669, 78.35693
1314.737, 40.62012
1315.804, 83.99219
1316.872, 0.7656250
1317.939, 24.46582
1319.006, 68.69141
1320.073, 73.95654
1321.139, 105.1694
1322.206, 105.4062
1323.272, 101.6006
1324.338, 58.14746
1325.404, 47.32324
1326.470, 87.49219
1327.536, 78.65479
1328.601, 128.8105
1329.667, 4.039063
1330.732, 169.0962
1331.797, 0.7734380
1332.862, 139.3438
1333.926, 125.4541
1334.991, 123.3789
1336.055, 55.47607
1337.120, 127.5664
1338.184, 130.6499
1339.248, 149.7256
1340.311, 182.1812
1341.375, 96.85303
1342.438, 175.9062
1343.502, 163.9521
1344.565, 62.99023
1345.628, 97.02197
1346.691, 112.8540
1347.753, 141.3472
1348.816, 156.1606
1349.878, 94.41895
1350.940, 155.4111
1352.002, 118.3970
1353.064, 58.18799
1354.126, 85.44727
1355.187, 86.43799
1356.248, 105.5190
1357.310, 145.4526
1358.371, 101.6709
1359.431, 127.5854
1360.492, 31.50439
1361.553, 126.4097
1362.613, 44.50684
1363.673, 28.68750
1364.733, 84.17822
1365.793, 166.0562
1366.853, 174.9268
1367.912, 119.8955
1368.972, 52.10791
1370.031, 43.66455
1371.090, 52.55273
1372.149, 92.77832
1373.208, 82.72754
1374.267, 138.3042
1375.325, 105.1216
1376.383, 45.30273
1377.441, 117.2534
1378.499, 113.0527
1379.557, 22.57129
1380.615, 41.16064
1381.672, 60.93994
1382.730, 130.7061
1383.787, 70.60547
1384.844, 44.34570
1385.901, 58.07666
1386.957, 127.0430
1388.014, 184.7651
1389.070, 183.3892
1390.126, 75.10059
1391.182, 111.2607
1392.238, 96.89502
1393.294, 42.63086
1394.349, 86.33350
1395.405, 3.017090
1396.460, 19.25488
1397.515, 92.30664
1398.570, 141.9595
1399.625, 70.60498
1400.679, 54.24609
1401.734, 103.0503
1402.788, 56.51172
1403.842, 57.25928
1404.896, 54.28076
1405.950, 30.56055
1407.003, 42.14160
1408.057, 60.71094
1409.110, 101.1436
1410.163, 60.78418
1411.216, 79.20557
1412.269, 79.70996
1413.322, 41.34863
1414.374, 101.8569
1415.427, 34.39062
1416.479, 107.7495
1417.531, 124.2358
1418.583, 105.9478
1419.634, 43.29541
1420.686, 62.25439
1421.737, 80.45508
1422.788, 98.82471
1423.839, 62.27100
1424.890, 98.71191
1425.941, 48.14648
1426.992, 14.57031
1428.042, 20.98584
1429.092, 121.3887
1430.142, 164.7930
1431.192, 142.1816
1432.242, 43.52930
1433.291, 44.87598
1434.341, 94.33740
1435.390, 127.7173
1436.439, 132.0210
1437.488, 106.3135
1438.537, 122.3452
1439.586, 62.55371
1440.634, 69.48242
1441.682, 31.05908
1442.731, 111.6094
1443.779, 211.1074
1444.826, 62.75098
1445.874, 48.38281
1446.922, 137.8579
1447.969, 52.44336
1449.016, 116.4180
1450.063, 31.44824
1451.110, 141.0728
1452.157, 127.5107
1453.203, 72.00732
1454.250, 112.4907
1455.296, 72.96143
1456.342, 139.3647
1457.388, 96.81934
1458.433, 114.2788
1459.479, 149.7349
1460.524, 161.1045
1461.570, 150.5347
1462.615, 111.9507
1463.660, 120.3828
1464.705, 123.5737
1465.749, 58.56592
1466.794, 82.96680
1467.838, 127.3545
1468.882, 113.4736
1469.926, 76.73340
1470.970, 104.1094
1472.013, 108.3228
1473.057, 62.66943
1474.100, 108.4517
1475.143, 50.73047
1476.186, 67.94629
1477.229, 60.23242
1478.272, 75.60010
1479.314, 5.974609
1480.357, 52.21533
1481.399, 27.62988
1482.441, 67.01367
1483.483, 82.38135
1484.525, 102.6792
1485.566, 116.0181
1486.608, 176.1958
1487.649, 13.51367
1488.690, 4.056641
1489.731, 2.617188
1490.771, 121.7085
1491.812, 78.97607
1492.853, 32.41162
1493.893, 34.74951
1494.933, 6.765137
1495.973, 47.71875
1497.013, 189.7861
1498.052, 29.98389
1499.092, 39.45459
1500.131, 89.70752
1501.170, 16.84277
1502.209, 24.60840
1503.248, 121.0664
1504.287, 27.30029
1505.325, 115.7910
1506.363, 101.1797
1507.402, 97.59375
1508.440, 39.01465
1509.478, 99.44482
1510.515, 89.86914
1511.553, 84.28955
1512.590, 86.70605
1513.627, 86.11816
1514.664, 85.02637
1515.701, 64.93359
1516.738, 81.34766
1517.775, 48.76318
1518.811, 36.18115
1519.847, 117.6016
1520.883, 76.95020
1521.919, 108.3867
1522.955, 134.9951
1523.991, 92.97217
1525.026, 84.48145
1526.061, 112.9951
1527.096, 91.71973
1528.131, 59.28174
1529.166, 82.70410
1530.201, 138.4326
1531.235, 114.1553
1532.270, 103.0308
1533.304, 78.01611
1534.338, 22.34912
1535.372, 77.84619
1536.405, 148.8452
1537.439, 28.57812
1538.472, 79.68164
1539.505, 50.75146
1540.538, 121.7842
1541.571, 148.7754
1542.604, 14.97656
1543.637, 130.8315
1544.669, 0.3593750
1545.701, 18.41650
1546.733, 56.11572
1547.765, 114.8760
1548.797, 109.7168
1549.829, 185.6089
1550.860, 147.6753
1551.891, 151.8149
1552.922, 139.6523
1553.953, 130.9399
1554.984, 149.3848
1556.015, 89.94775
1557.045, 64.66309
1558.076, 5.592285
1559.106, 53.92432
1560.136, 150.9175
1561.165, 148.3833
1562.195, 50.55029
1563.225, 8.451660
1564.254, 78.51660
1565.283, 0.0000000E+00
##END=



