##NAMES=Analcime
##RRUFFID=R060023
##IDEAL CHEMISTRY=NaAlSi_2_O_6_&#183;H_2_O
##LOCALITY=Dallas, Oregon, USA
##OWNER=RRUFF
##SOURCE=Bob Downs
##DESCRIPTION=White trapezohedral crystal associated with levyne-Na, R060021
##STATUS=The identification of this mineral has been confirmed by X-ray diffraction and chemical analysis
##URL=rruff.info/R060023
##MEASURED CHEMISTRY=(Na_0.98_[box]_0.02_)_Σ=1_(Si_2.02_Al_0.98_)O_6_·H_2_O
##PIN_ID=M00322
##ORIENTATION=Laser parallel to a* (1 0 0). Fiducial mark perpendicular to laser is parallel to c [0 0 1]
176.6930, 0.0000000E+00
177.9200, 50.29346
179.1460, 84.87939
180.3720, 19.78760
181.5980, 47.87207
182.8230, 148.8354
184.0490, 190.3906
185.2740, 158.1426
186.5000, 185.5605
187.7250, 234.1055
188.9500, 257.6553
190.1740, 299.1929
191.3990, 332.6479
192.6230, 370.8696
193.8480, 407.0347
195.0720, 422.2695
196.2960, 458.6890
197.5200, 467.2515
198.7430, 478.5508
199.9670, 529.8799
201.1900, 510.7095
202.4130, 613.1675
203.6360, 555.8477
204.8590, 497.8354
206.0820, 546.4712
207.3050, 513.8223
208.5270, 482.6450
209.7490, 441.6333
210.9710, 403.8726
212.1930, 514.4834
213.4150, 522.9854
214.6370, 514.9971
215.8580, 529.6514
217.0790, 544.6416
218.3010, 553.2632
219.5210, 597.0625
220.7420, 585.5701
221.9630, 637.9382
223.1830, 675.6467
224.4040, 664.4729
225.6240, 662.3650
226.8440, 677.2246
228.0640, 632.6475
229.2840, 541.5732
230.5030, 529.4988
231.7230, 492.5020
232.9420, 460.5723
234.1610, 456.6970
235.3800, 426.8611
236.5990, 298.0535
237.8170, 320.2700
239.0360, 282.5085
240.2540, 198.7729
241.4720, 229.0679
242.6900, 149.3953
243.9080, 158.7598
245.1250, 130.1626
246.3430, 96.60474
247.5600, 57.08765
248.7770, 41.15259
249.9940, 10.21216
251.2110, 13.27100
252.4280, 2.482422
253.6450, 0.6477050
254.8610, 7.252441
256.0770, 49.66797
257.2930, 44.30688
258.5090, 57.17651
259.7250, 70.18066
260.9400, 56.26685
262.1560, 90.17773
263.3710, 52.10864
264.5860, 91.95947
265.8010, 52.74854
267.0160, 19.51709
268.2310, 78.17114
269.4450, 23.17676
270.6600, 10.54956
271.8740, 24.93359
273.0880, 19.67920
274.3020, 37.29248
275.5150, 64.91089
276.7290, 12.46729
277.9420, 35.84302
279.1550, 69.21753
280.3680, 79.58496
281.5810, 197.9417
282.7940, 288.2815
284.0070, 476.5989
285.2190, 614.2319
286.4310, 773.1128
287.6430, 998.2515
288.8550, 1226.310
290.0670, 1515.250
291.2790, 1828.055
292.4900, 2270.720
293.7020, 2588.247
294.9130, 2829.681
296.1240, 2811.049
297.3350, 2636.412
298.5450, 2442.778
299.7560, 2185.094
300.9660, 1861.442
302.1760, 1496.899
303.3860, 1313.424
304.5960, 1192.997
305.8060, 877.6104
307.0150, 811.3101
308.2250, 655.0688
309.4340, 612.8682
310.6430, 533.7285
311.8520, 535.6230
313.0610, 473.5586
314.2700, 472.5288
315.4780, 422.5352
316.6860, 412.5771
317.8940, 499.6567
319.1020, 425.7725
320.3100, 475.9253
321.5180, 439.1157
322.7250, 553.6270
323.9330, 476.3442
325.1400, 493.1416
326.3470, 621.9590
327.5540, 585.7622
328.7600, 624.5273
329.9670, 703.2378
331.1730, 733.8828
332.3800, 782.4541
333.5860, 794.9414
334.7920, 844.5039
335.9970, 877.3755
337.2030, 930.8325
338.4080, 950.9351
339.6140, 995.9412
340.8190, 1031.847
342.0240, 997.6438
343.2290, 1074.320
344.4330, 1206.863
345.6380, 1192.273
346.8420, 1245.557
348.0460, 1326.719
349.2500, 1313.773
350.4540, 1259.431
351.6580, 1342.810
352.8610, 1419.715
354.0650, 1490.767
355.2680, 1528.504
356.4710, 1616.573
357.6740, 1688.963
358.8760, 1763.683
360.0790, 1867.886
361.2810, 1926.737
362.4840, 2036.778
363.6860, 2130.655
364.8880, 2236.389
366.0900, 2326.228
367.2910, 2425.752
368.4930, 2559.517
369.6940, 2693.249
370.8950, 2922.892
372.0960, 3074.453
373.2970, 3240.012
374.4980, 3386.585
375.6980, 3615.182
376.8980, 3679.804
378.0990, 3951.451
379.2990, 4099.124
380.4980, 4297.821
381.6980, 4419.082
382.8980, 4558.480
384.0970, 4740.769
385.2960, 4778.764
386.4950, 4901.822
387.6940, 4836.435
388.8930, 4876.190
390.0920, 4825.765
391.2900, 4738.995
392.4880, 4497.631
393.6860, 4476.983
394.8840, 4110.284
396.0820, 3941.297
397.2800, 3701.123
398.4770, 3394.196
399.6750, 3284.981
400.8720, 2965.229
402.0690, 2704.937
403.2660, 2478.955
404.4620, 2233.274
405.6590, 2076.581
406.8550, 1902.872
408.0510, 1755.444
409.2480, 1633.062
410.4430, 1511.029
411.6390, 1378.246
412.8350, 1260.837
414.0300, 1285.297
415.2250, 1147.596
416.4200, 1120.236
417.6150, 957.5527
418.8100, 981.1543
420.0050, 921.1807
421.1990, 958.0630
422.3940, 962.0884
423.5880, 839.3018
424.7820, 890.9468
425.9750, 902.5190
427.1690, 939.7925
428.3630, 867.6216
429.5560, 868.9019
430.7490, 962.5093
431.9420, 966.3926
433.1350, 1024.047
434.3280, 1040.745
435.5200, 1117.386
436.7130, 1272.339
437.9050, 1258.082
439.0970, 1268.848
440.2890, 1452.521
441.4810, 1340.370
442.6720, 1513.213
443.8640, 1653.087
445.0550, 1633.000
446.2460, 1876.331
447.4370, 1991.301
448.6280, 2218.294
449.8180, 2535.312
451.0090, 2735.368
452.1990, 2935.466
453.3890, 3323.605
454.5790, 3646.773
455.7690, 4064.963
456.9590, 4705.181
458.1480, 5298.430
459.3380, 5956.699
460.5270, 6821.004
461.7160, 7665.348
462.9050, 8736.715
464.0940, 9825.102
465.2820, 11300.52
466.4700, 12973.95
467.6590, 14913.39
468.8470, 17078.84
470.0350, 19549.30
471.2220, 22316.78
472.4100, 25254.26
473.5970, 28320.75
474.7850, 31508.25
475.9720, 34635.75
477.1590, 36923.28
478.3460, 38988.80
479.5320, 40386.33
480.7190, 40688.86
481.9050, 40244.40
483.0910, 38134.93
484.2770, 35763.49
485.4630, 32957.03
486.6490, 29956.59
487.8340, 26543.15
489.0200, 23651.71
490.2050, 20678.30
491.3900, 18190.88
492.5750, 15846.47
493.7600, 14162.07
494.9440, 12325.68
496.1290, 10757.29
497.3130, 9742.921
498.4970, 8474.556
499.6810, 7594.200
500.8650, 6666.855
502.0480, 6105.523
503.2320, 5369.201
504.4150, 4842.891
505.5980, 4368.596
506.7810, 4095.314
507.9640, 3648.049
509.1460, 3401.799
510.3290, 2994.566
511.5110, 2916.351
512.6930, 2546.153
513.8750, 2525.972
515.0570, 2274.810
516.2390, 2077.665
517.4210, 1871.539
518.6020, 1691.429
519.7830, 1587.338
520.9640, 1516.264
522.1450, 1413.207
523.3260, 1255.167
524.5060, 1269.147
525.6870, 1127.145
526.8670, 1038.161
528.0470, 1012.197
529.2270, 943.2524
530.4070, 885.3291
531.5870, 812.4268
532.7660, 750.5454
533.9450, 643.6880
535.1240, 673.8555
536.3030, 628.0508
537.4820, 453.2773
538.6610, 537.5410
539.8390, 490.8384
541.0180, 464.1675
542.1960, 357.5308
543.3740, 294.9375
544.5520, 276.3877
545.7290, 164.8833
546.9070, 279.4277
548.0840, 203.0156
549.2620, 151.6562
550.4390, 81.33789
551.6160, 72.07080
552.7920, 135.8442
553.9690, 2.640137
555.1450, 78.53467
556.3220, 4.404785
557.4980, 27.53613
558.6740, 82.53857
559.8490, 65.16357
561.0250, 49.89355
562.2000, 10.70410
563.3760, 34.92627
564.5510, 56.78467
565.7260, 125.5410
566.9010, 112.3120
568.0750, 29.11523
569.2500, 12.32861
570.4240, 27.48340
571.5980, 19.67969
572.7720, 11.38330
573.9460, 9.141602
575.1200, 103.6821
576.2930, 59.73828
577.4670, 41.54199
578.6400, 17.38916
579.8130, 4.521973
580.9860, 31.30176
582.1590, 60.46045
583.3310, 29.38330
584.5040, 64.73682
585.6760, 94.61084
586.8480, 14.25781
588.0200, 72.99194
589.1920, 39.52637
590.3630, 53.51221
591.5350, 84.82471
592.7060, 82.40283
593.8770, 103.3723
595.0480, 37.85791
596.2190, 71.07471
597.3900, 69.76440
598.5600, 156.2375
599.7310, 92.55518
600.9010, 148.9321
602.0710, 149.8083
603.2410, 178.0090
604.4100, 243.1228
605.5800, 242.1636
606.7490, 262.4829
607.9190, 243.5056
609.0880, 249.5510
610.2570, 273.4553
611.4250, 262.3625
612.5940, 281.3914
613.7620, 259.8052
614.9310, 287.1624
616.0990, 282.9810
617.2670, 257.0476
618.4340, 279.7498
619.6020, 209.9570
620.7690, 235.5542
621.9370, 299.6387
623.1040, 214.7539
624.2710, 239.8774
625.4380, 229.1843
626.6040, 218.3674
627.7710, 199.8174
628.9370, 285.3696
630.1030, 258.5227
631.2690, 289.6807
632.4350, 256.8362
633.6010, 250.9937
634.7660, 299.1538
635.9320, 326.3740
637.0970, 280.6301
638.2620, 272.7817
639.4270, 298.9294
640.5920, 200.0732
641.7560, 291.2324
642.9210, 252.3875
644.0850, 204.5498
645.2490, 206.7078
646.4130, 218.8608
647.5770, 206.0098
648.7400, 239.1548
649.9040, 269.2996
651.0670, 325.4458
652.2300, 338.6008
653.3930, 315.7515
654.5560, 265.8958
655.7190, 335.0332
656.8810, 357.1641
658.0440, 303.2874
659.2060, 392.4038
660.3680, 390.5127
661.5300, 460.6140
662.6910, 518.7070
663.8530, 521.7920
665.0140, 571.8696
666.1750, 574.9375
667.3360, 515.9971
668.4970, 586.0476
669.6580, 599.0894
670.8190, 663.1213
671.9790, 607.1594
673.1390, 658.3760
674.2990, 627.3787
675.4590, 631.4861
676.6190, 618.5918
677.7790, 529.5625
678.9380, 481.6292
680.0970, 454.2505
681.2570, 396.5144
682.4160, 374.5464
683.5740, 372.6250
684.7330, 291.8669
685.8920, 231.9495
687.0500, 247.9736
688.2080, 145.9136
689.3660, 228.7598
690.5240, 142.6472
691.6820, 189.4651
692.8390, 110.3328
693.9960, 87.22632
695.1540, 53.99829
696.3110, 88.93506
697.4680, 98.67285
698.6240, 30.79810
699.7810, 69.62476
700.9370, 31.30762
702.0940, 29.05420
703.2500, 67.80127
704.4060, 42.99048
705.5610, 35.85352
706.7170, 34.27466
707.8720, 13.56909
709.0280, 12.79028
710.1830, 48.02539
711.3380, 11.68091
712.4920, 21.86597
713.6470, 54.28101
714.8020, 134.6953
715.9560, 37.42310
717.1100, 111.5471
718.2640, 54.94360
719.4180, 47.26440
720.5720, 10.93579
721.7250, 9.439209
722.8780, 0.8649900
724.0320, 38.77808
725.1850, 5.659912
726.3380, 3.704834
727.4900, 21.10913
728.6430, 120.2781
729.7950, 43.33984
730.9470, 47.13062
732.1000, 52.97534
733.2510, 2.904297
734.4030, 64.94922
735.5550, 3.165283
736.7060, 7.836182
737.8570, 49.94604
739.0090, 25.12061
740.1600, 47.53613
741.3100, 88.87915
742.4610, 18.47534
743.6110, 0.3505860
744.7620, 14.19946
745.9120, 30.66992
747.0620, 1.047119
748.2120, 26.61328
749.3610, 31.91406
750.5110, 2.497559
751.6600, 6.255371
752.8090, 75.75488
753.9580, 29.89038
755.1070, 38.58545
756.2560, 40.75000
757.4050, 117.0806
758.5530, 46.35449
759.7010, 27.49438
760.8490, 177.7288
761.9970, 165.8848
763.1450, 98.17114
764.2920, 132.9250
765.4400, 75.07178
766.5870, 59.73975
767.7340, 162.5754
768.8810, 184.0796
770.0280, 163.1343
771.1740, 175.8965
772.3210, 163.9307
773.4670, 139.7932
774.6130, 130.7324
775.7590, 231.6685
776.9050, 286.3369
778.0510, 209.0454
779.1960, 265.0378
780.3420, 254.5386
781.4870, 266.0449
782.6320, 256.7917
783.7770, 309.3118
784.9210, 306.0200
786.0660, 244.8235
787.2100, 267.4089
788.3540, 321.3223
789.4980, 205.1113
790.6420, 348.8296
791.7860, 277.1719
792.9300, 382.4890
794.0730, 306.7803
795.2160, 280.0459
796.3590, 229.2859
797.5020, 282.4998
798.6450, 285.6885
799.7880, 200.8508
800.9300, 317.9878
802.0720, 283.0986
803.2150, 215.1838
804.3560, 250.2432
805.4980, 172.2771
806.6400, 234.2849
807.7810, 197.2666
808.9230, 164.2229
810.0640, 119.1533
811.2050, 171.0559
812.3460, 139.9329
813.4860, 137.7832
814.6270, 227.6069
815.7670, 141.4045
816.9070, 215.1758
818.0470, 189.9214
819.1870, 140.6414
820.3270, 126.3347
821.4670, 84.00122
822.6060, 118.6392
823.7450, 129.2500
824.8840, 145.8342
826.0230, 208.3923
827.1620, 150.9253
828.3010, 185.4324
829.4390, 147.9146
830.5770, 135.3706
831.7150, 162.6353
832.8530, 98.95581
833.9910, 197.2783
835.1290, 147.6111
836.2660, 144.4858
837.4030, 161.6763
838.5410, 116.5371
839.6780, 123.0146
840.8140, 86.11646
841.9510, 87.57666
843.0870, 115.0596
844.2240, 59.02173
845.3600, 142.3740
846.4960, 67.65259
847.6320, 106.5935
848.7680, 164.7461
849.9030, 150.2952
851.0380, 140.1787
852.1740, 79.26245
853.3090, 184.0686
854.4440, 135.1191
855.5780, 147.9536
856.7130, 86.72876
857.8470, 83.81909
858.9820, 146.8816
860.1160, 67.41919
861.2500, 74.41919
862.3830, 67.14551
863.5170, 13.73486
864.6500, 19.01807
865.7840, 58.82935
866.9170, 82.29639
868.0500, 76.48169
869.1830, 137.2581
870.3150, 73.50269
871.4480, 8.999023
872.5800, 25.76782
873.7120, 7.200439
874.8440, 65.53442
875.9760, 25.20825
877.1080, 7.519775
878.2390, 45.09692
879.3710, 30.33911
880.5020, 26.82959
881.6330, 9.022949
882.7640, 29.49316
883.8940, 53.92236
885.0250, 3.525146
886.1550, 63.75098
887.2850, 28.15430
888.4160, 20.36450
889.5450, 48.37769
890.6750, 28.40625
891.8050, 68.17041
892.9340, 20.77563
894.0630, 27.85791
895.1930, 52.53296
896.3220, 20.97144
897.4500, 28.17651
898.5790, 1.909180
899.7070, 39.20728
900.8360, 46.22974
901.9640, 7.549805
903.0920, 26.99390
904.2200, 22.50024
905.3470, 9.834229
906.4750, 12.28247
907.6020, 17.42285
908.7290, 35.41040
909.8560, 10.16602
910.9830, 3.867676
912.1100, 88.65552
913.2360, 44.42944
914.3630, 72.81030
915.4890, 37.89722
916.6150, 41.40942
917.7410, 7.249023
918.8670, 79.89282
919.9920, 2.523682
921.1180, 4.859131
922.2430, 21.25806
923.3680, 27.35522
924.4930, 58.12769
925.6180, 6.617188
926.7420, 52.87793
927.8670, 51.36182
928.9910, 71.98926
930.1150, 98.29590
931.2390, 83.74658
932.3630, 60.18652
933.4860, 107.6152
934.6100, 61.03369
935.7330, 61.44189
936.8560, 96.83984
937.9790, 111.2285
939.1020, 103.6069
940.2250, 57.97607
941.3470, 133.3369
942.4700, 94.68750
943.5920, 55.02930
944.7140, 92.34619
945.8360, 110.4658
946.9570, 89.78027
948.0790, 97.97168
949.2000, 122.1479
950.3220, 48.43994
951.4430, 20.62793
952.5640, 161.9160
953.6840, 93.19629
954.8050, 102.3633
955.9250, 95.46436
957.0460, 124.3882
958.1660, 151.4507
959.2860, 108.5591
960.4050, 81.73145
961.5250, 194.9824
962.6440, 80.17627
963.7640, 134.4243
964.8830, 227.6221
966.0020, 156.7783
967.1210, 206.0449
968.2390, 182.0522
969.3580, 151.3242
970.4760, 290.5322
971.5940, 198.7275
972.7120, 243.9868
973.8300, 260.0654
974.9480, 267.1987
976.0650, 292.7490
977.1830, 277.6548
978.3000, 320.2539
979.4170, 270.0220
980.5340, 278.2349
981.6500, 320.1328
982.7670, 323.2148
983.8830, 447.4883
985.0000, 427.7603
986.1160, 491.9893
987.2320, 471.9629
988.3470, 566.2275
989.4630, 490.4326
990.5780, 539.6914
991.6940, 498.6938
992.8090, 519.6943
993.9240, 637.9590
995.0380, 579.9067
996.1530, 643.9150
997.2680, 567.9009
998.3820, 704.8896
999.4960, 683.0889
1000.610, 689.0542
1001.724, 636.1538
1002.837, 671.2656
1003.951, 709.6113
1005.064, 620.7651
1006.177, 719.0557
1007.291, 660.8745
1008.403, 726.2090
1009.516, 708.3701
1010.629, 760.8501
1011.741, 819.4580
1012.853, 838.8643
1013.965, 819.9668
1015.077, 714.0669
1016.189, 777.8594
1017.300, 749.0308
1018.412, 843.3228
1019.523, 772.6865
1020.634, 866.0674
1021.745, 746.0815
1022.856, 814.3320
1023.966, 867.7061
1025.077, 656.9209
1026.187, 878.4243
1027.297, 839.7422
1028.407, 772.0967
1029.517, 834.5635
1030.627, 848.9106
1031.736, 776.3164
1032.845, 895.5708
1033.955, 890.3379
1035.064, 852.6919
1036.172, 929.5039
1037.281, 995.1333
1038.390, 893.0742
1039.498, 985.4453
1040.606, 1042.089
1041.714, 1072.440
1042.822, 980.9443
1043.930, 1038.353
1045.037, 1050.743
1046.145, 1157.383
1047.252, 1218.964
1048.359, 1165.034
1049.466, 1178.607
1050.573, 1205.717
1051.679, 1238.184
1052.786, 1252.059
1053.892, 1279.009
1054.998, 1279.683
1056.104, 1318.241
1057.210, 1314.452
1058.315, 1328.768
1059.421, 1428.137
1060.526, 1405.861
1061.631, 1410.073
1062.736, 1454.330
1063.841, 1404.074
1064.946, 1539.829
1066.050, 1647.591
1067.154, 1664.359
1068.258, 1687.136
1069.362, 1822.919
1070.466, 1859.711
1071.570, 1812.510
1072.674, 2012.535
1073.777, 2061.347
1074.880, 2074.168
1075.983, 2199.995
1077.086, 2247.829
1078.189, 2339.671
1079.291, 2301.521
1080.394, 2513.380
1081.496, 2637.692
1082.598, 2816.567
1083.700, 2709.941
1084.802, 2921.045
1085.903, 2941.942
1087.005, 3027.121
1088.106, 3143.033
1089.207, 3323.271
1090.308, 3379.203
1091.409, 3388.675
1092.509, 3557.622
1093.610, 3580.935
1094.710, 3659.694
1095.810, 3627.000
1096.910, 3650.622
1098.010, 3759.269
1099.110, 3700.275
1100.209, 3717.659
1101.309, 3679.553
1102.408, 3678.905
1103.507, 3794.668
1104.606, 3685.710
1105.704, 3665.498
1106.803, 3672.567
1107.901, 3539.646
1108.999, 3486.021
1110.097, 3518.114
1111.195, 3394.213
1112.293, 3415.323
1113.391, 3315.412
1114.488, 3389.938
1115.585, 3298.070
1116.682, 3110.207
1117.779, 3235.351
1118.876, 3143.595
1119.973, 2935.754
1121.069, 2983.918
1122.165, 2800.131
1123.261, 2823.309
1124.357, 2679.354
1125.453, 2688.546
1126.549, 2676.745
1127.644, 2507.952
1128.739, 2295.167
1129.835, 2367.388
1130.930, 2190.621
1132.024, 2211.866
1133.119, 2096.119
1134.214, 2055.401
1135.308, 1976.800
1136.402, 1898.892
1137.496, 1831.447
1138.590, 1750.786
1139.684, 1672.132
1140.777, 1587.489
1141.871, 1541.858
1142.964, 1482.245
1144.057, 1422.642
1145.150, 1451.402
1146.243, 1273.828
1147.335, 1239.377
1148.428, 1151.255
1149.520, 1181.788
1150.612, 1066.410
1151.704, 1023.874
1152.796, 957.3418
1153.887, 895.2007
1154.979, 821.7510
1156.070, 862.3735
1157.161, 737.8833
1158.252, 862.1528
1159.343, 762.7847
1160.433, 632.3306
1161.524, 761.8613
1162.614, 621.3965
1163.704, 576.9463
1164.794, 508.5020
1165.884, 535.1841
1166.974, 477.7739
1168.063, 427.9463
1169.153, 425.6006
1170.242, 362.2974
1171.331, 359.9287
1172.420, 316.5625
1173.508, 372.2070
1174.597, 300.9946
1175.685, 351.7510
1176.774, 293.5630
1177.862, 207.4341
1178.950, 262.1479
1180.037, 282.8330
1181.125, 232.8604
1182.212, 134.5635
1183.300, 202.2705
1184.387, 204.1025
1185.474, 245.4531
1186.560, 132.2012
1187.647, 99.01660
1188.733, 163.8813
1189.820, 135.6338
1190.906, 136.3896
1191.992, 37.14844
1193.078, 13.90869
1194.163, 160.6714
1195.249, 113.3589
1196.334, 177.1689
1197.419, 127.9585
1198.504, 114.8516
1199.589, 63.62354
1200.674, 48.72559
1201.758, 66.50098
1202.843, 10.72266
1203.927, 130.0532
1205.011, 109.8296
1206.095, 100.6079
1207.179, 73.38672
1208.262, 107.1675
1209.345, 84.08984
1210.429, 84.02002
1211.512, 16.19580
1212.595, 70.58496
1213.677, 53.63379
1214.760, 8.873535
1215.842, 46.88428
1216.925, 10.35742
1218.007, 80.39844
1219.089, 31.84521
1220.171, 60.26562
1221.252, 34.98975
1222.334, 61.74121
1223.415, 31.19287
1224.496, 20.30469
1225.577, 30.05176
1226.658, 83.00391
1227.738, 66.99072
1228.819, 4.982910
1229.899, 45.39062
1230.979, 19.78711
1232.060, 51.80859
1233.139, 0.5976560
1234.219, 33.20215
1235.299, 16.20752
1236.378, 119.4204
1237.457, 21.12158
1238.536, 5.299316
1239.615, 108.2925
1240.694, 21.88525
1241.772, 18.45654
1242.851, 49.97363
1243.929, 6.625488
1245.007, 46.87744
1246.085, 76.62158
1247.163, 83.88623
1248.240, 1.336914
1249.318, 34.75537
1250.395, 21.69580
1251.472, 6.739258
1252.549, 56.48389
1253.626, 12.99658
1254.703, 35.70947
1255.779, 37.22656
1256.855, 60.33594
1257.931, 36.84180
1259.007, 27.62646
1260.083, 65.18506
1261.159, 76.84424
1262.234, 47.79443
1263.310, 77.74072
1264.385, 6.580078
1265.460, 19.32471
1266.535, 68.26855
1267.610, 47.68945
1268.684, 73.02686
1269.758, 78.57520
1270.833, 5.987793
1271.907, 67.15625
1272.981, 71.44434
1274.054, 6.191406
1275.128, 72.82275
1276.201, 17.37646
1277.275, 5.348145
1278.348, 26.16309
1279.421, 12.74902
1280.493, 53.29736
1281.566, 95.11719
1282.638, 24.48047
1283.711, 35.89648
1284.783, 20.26709
1285.855, 79.63184
1286.927, 2.440430
1287.998, 26.78662
1289.070, 49.12549
1290.141, 71.45850
1291.212, 70.79785
1292.283, 59.27295
1293.354, 67.58740
1294.425, 30.89746
1295.495, 75.19971
1296.566, 8.416992
1297.636, 48.85791
1298.706, 42.12744
1299.776, 59.38916
1300.845, 76.64404
1301.915, 61.89307
1302.984, 29.13428
1304.054, 38.36768
1305.123, 26.59277
1306.191, 21.81006
1307.260, 53.01758
1308.329, 153.2173
1309.397, 18.41504
1310.465, 85.69922
1311.534, 89.87891
1312.602, 39.05176
1313.669, 5.785645
1314.737, 62.35352
1315.804, 48.48291
1316.872, 39.60547
1317.939, 134.7217
1319.006, 131.8320
1320.073, 74.93262
1321.139, 122.0273
1322.206, 86.13232
1323.272, 8.212891
1324.338, 64.34570
1325.404, 70.40967
1326.470, 46.46729
1327.536, 143.5166
1328.601, 25.55957
1329.667, 77.59424
1330.732, 130.6230
1331.797, 143.4263
1332.862, 177.9683
1333.926, 137.4463
1334.991, 168.4414
1336.055, 151.4287
1337.120, 47.40088
1338.184, 46.62305
1339.248, 131.7007
1340.311, 110.2822
1341.375, 194.2109
1342.438, 121.7339
1343.502, 82.43457
1344.565, 207.3433
1345.628, 138.9727
1346.691, 188.8213
1347.753, 25.59277
1348.816, 189.4741
1349.878, 129.8174
1350.940, 26.68555
1352.002, 40.18945
1353.064, 17.24805
1354.126, 23.72852
1355.187, 36.97266
1356.248, 7.629883
1357.310, 78.50879
1358.371, 88.86426
1359.431, 111.8750
1360.492, 99.58740
1361.553, 26.23730
1362.613, 75.93408
1363.673, 33.11670
1364.733, 43.55322
1365.793, 102.2119
1366.853, 68.57227
1367.912, 68.39307
1368.972, 119.0293
1370.031, 86.65771
1371.090, 56.30469
1372.149, 72.70264
1373.208, 103.3096
1374.267, 87.26123
1375.325, 150.8540
1376.383, 120.2388
1377.441, 119.4009
1378.499, 79.47705
1379.557, 107.9990
1380.615, 75.64307
1381.672, 109.3330
1382.730, 144.8770
1383.787, 135.0044
1384.844, 38.94141
1385.901, 132.4629
1386.957, 117.0342
1388.014, 77.89648
1389.070, 241.4800
1390.126, 70.96045
1391.182, 111.4976
1392.238, 89.83789
1393.294, 92.22949
1394.349, 81.33594
1395.405, 71.06396
1396.460, 64.45605
1397.515, 142.8403
1398.570, 1.787109
1399.625, 121.5742
1400.679, 91.92529
1401.734, 150.9268
1402.788, 31.26318
1403.842, 115.4771
1404.896, 107.3657
1405.950, 74.59668
1407.003, 140.7393
1408.057, 128.0269
1409.110, 105.4224
1410.163, 95.38086
1411.216, 84.65723
1412.269, 112.7314
1413.322, 13.92773
1414.374, 179.3599
1415.427, 246.4185
1416.479, 140.5566
1417.531, 76.70703
1418.583, 42.84814
1419.634, 84.97998
1420.686, 141.3267
1421.737, 141.3296
1422.788, 59.43359
1423.839, 132.9536
1424.890, 147.1982
1425.941, 201.2144
1426.992, 115.2891
1428.042, 128.3389
1429.092, 129.3813
1430.142, 189.2788
1431.192, 191.2065
1432.242, 142.0654
1433.291, 223.8628
1434.341, 163.8022
1435.390, 127.9321
1436.439, 57.71582
1437.488, 117.6899
1438.537, 113.6636
1439.586, 131.2573
1440.634, 126.1709
1441.682, 143.7964
1442.731, 145.2988
1443.779, 159.3174
1444.826, 159.7954
1445.874, 120.3066
1446.922, 141.6831
1447.969, 75.98389
1449.016, 167.0513
1450.063, 65.45166
1451.110, 94.84033
1452.157, 141.2163
1453.203, 194.2603
1454.250, 227.6055
1455.296, 202.9512
1456.342, 115.2993
1457.388, 87.63818
1458.433, 127.5537
1459.479, 158.5015
1460.524, 276.0044
1461.570, 178.7583
1462.615, 139.3110
1463.660, 29.71631
1464.705, 52.86377
1465.749, 56.48877
1466.794, 135.6914
1467.838, 56.99072
1468.882, 152.3276
1469.926, 116.6050
1470.970, 143.9492
1472.013, 180.2852
1473.057, 44.59766
1474.100, 131.8760
1475.143, 81.16602
1476.186, 123.2241
1477.229, 122.4951
1478.272, 127.7490
1479.314, 147.1577
1480.357, 160.3066
1481.399, 6.387695
1482.441, 5.308105
1483.483, 95.63135
1484.525, 27.62305
1485.566, 94.25000
1486.608, 112.3662
1487.649, 139.1553
1488.690, 133.1294
1489.731, 184.1104
1490.771, 130.3486
1491.812, 70.31836
1492.853, 25.99756
1493.893, 95.94678
1494.933, 102.7373
1495.973, 105.6934
1497.013, 12.35693
1498.052, 158.5879
1499.092, 8.529297
1500.131, 82.47168
1501.170, 53.40234
1502.209, 87.13574
1503.248, 39.94824
1504.287, 101.0068
1505.325, 46.95361
1506.363, 97.88818
1507.402, 87.77588
1508.440, 124.5518
1509.478, 69.44141
1510.515, 151.3164
1511.553, 54.17041
1512.590, 9.006836
1513.627, 47.84229
1514.664, 51.69531
1515.701, 75.61719
1516.738, 80.11377
1517.775, 79.65381
1518.811, 88.73730
1519.847, 69.14258
1520.883, 86.91699
1521.919, 78.66992
1522.955, 182.4902
1523.991, 87.38672
1525.026, 210.3062
1526.061, 98.91602
1527.096, 152.0298
1528.131, 197.1470
1529.166, 89.28809
1530.201, 201.8276
1531.235, 121.9761
1532.270, 86.76904
1533.304, 39.46045
1534.338, 53.21436
1535.372, 29.35352
1536.405, 89.54932
1537.439, 90.06592
1538.472, 148.5498
1539.505, 103.0591
1540.538, 93.64453
1541.571, 134.9326
1542.604, 108.1753
1543.637, 91.37451
1544.669, 16.50635
1545.701, 99.62939
1546.733, 96.69092
1547.765, 89.61719
1548.797, 19.41602
1549.829, 54.44189
1550.860, 54.09473
1551.891, 121.5664
1552.922, 144.0913
1553.953, 148.7700
1554.984, 121.5000
1556.015, 139.5010
1557.045, 71.12305
1558.076, 169.3833
1559.106, 5.333984
1560.136, 40.24561
1561.165, 143.9180
1562.195, 132.2412
1563.225, 59.89404
1564.254, 77.14551
1565.283, 0.0000000E+00
##END=



