##NAMES=Anatase
##RRUFFID=R060277
##IDEAL CHEMISTRY=Ti^4+^O_2_
##LOCALITY=Taftan, near Dalbandi, Baluchistan Province, Pakistan
##OWNER=RRUFF
##SOURCE=Herb Obodda
##DESCRIPTION=Dark brown tetragonal tabular crystals
##STATUS=The identification of this mineral is confirmed by single-crystal X-ray diffraction and chemical analysis.
##URL=rruff.info/R060277
##MEASURED CHEMISTRY=Ti_1.00_O_2_
##PIN_ID=L01956
##ORIENTATION=Laser parallel to -a* (-1 0 0). Fiducial mark perpendicular to laser is parallel to -c [0 0 -1]
50.72400, 0.0000000E+00
51.97000, 0.6052860
53.21600, 19.62204
54.46200, 4.217133
55.70800, 3.907288
56.95400, 0.6389160
58.19900, 10.60095
59.44500, 0.4334720
60.69000, 6.194855
61.93500, 2.241211
63.17900, 8.013977
64.42400, 15.09583
65.66800, 3.401672
66.91300, 24.45883
68.15700, 20.00708
69.40100, 47.97400
70.64400, 75.29224
71.88800, 86.90393
73.13100, 116.7621
74.37400, 137.8551
75.61700, 183.2200
76.86000, 193.9136
78.10300, 237.9587
79.34500, 266.3395
80.58800, 293.0056
81.83000, 354.8885
83.07200, 356.9320
84.31400, 400.0916
85.55500, 449.3314
86.79700, 473.6229
88.03800, 558.9434
89.27900, 601.2782
90.52000, 668.6172
91.76100, 697.9529
93.00100, 747.2795
94.24200, 798.5933
95.48200, 871.9350
96.72200, 864.4189
97.96200, 938.1974
99.20200, 1036.322
100.4410, 1064.978
101.6810, 1164.098
102.9200, 1233.650
104.1590, 1289.480
105.3980, 1431.469
106.6360, 1547.613
107.8750, 1583.751
109.1130, 1691.739
110.3510, 1876.504
111.5890, 1936.058
112.8270, 2175.416
114.0650, 2384.587
115.3020, 2542.582
116.5390, 2761.410
117.7770, 3041.079
119.0130, 3431.600
120.2500, 3856.978
121.4870, 4398.222
122.7230, 4939.337
123.9590, 5711.332
125.1950, 6824.222
126.4310, 8453.044
127.6670, 10292.81
128.9030, 12857.50
130.1380, 16542.14
131.3730, 20755.74
132.6080, 25709.28
133.8430, 30502.77
135.0780, 35212.23
136.3120, 39861.64
137.5470, 45061.03
138.7810, 49947.75
140.0150, 54716.68
141.2480, 57397.56
142.4820, 58230.09
143.7160, 56481.02
144.9490, 51470.81
146.1820, 43736.23
147.4150, 34957.53
148.6480, 26577.64
149.8800, 20165.78
151.1130, 15365.76
152.3450, 11735.27
153.5770, 9179.370
154.8090, 7402.302
156.0410, 6066.254
157.2720, 5045.589
158.5040, 4301.375
159.7350, 3656.802
160.9660, 3290.109
162.1970, 2826.078
163.4270, 2498.642
164.6580, 2223.611
165.8880, 2020.779
167.1180, 1773.868
168.3480, 1677.959
169.5780, 1480.053
170.8080, 1399.148
172.0370, 1266.243
173.2670, 1160.338
174.4960, 1089.429
175.7250, 978.5162
176.9540, 911.5964
178.1820, 828.6684
179.4110, 792.7313
180.6390, 731.7842
181.8670, 705.8799
183.0950, 689.8621
184.3230, 687.8939
185.5500, 710.9286
186.7780, 744.9648
188.0050, 811.0026
189.2320, 810.0340
190.4590, 822.0593
191.6850, 875.0798
192.9120, 976.0954
194.1380, 1051.108
195.3650, 1101.116
196.5910, 1129.123
197.8160, 1090.128
199.0420, 907.5329
200.2680, 750.8503
201.4930, 599.1710
202.7180, 455.4280
203.9430, 411.7189
205.1680, 295.9341
206.3930, 275.2798
207.6170, 205.5710
208.8410, 197.9829
210.0660, 216.3672
211.2890, 177.8292
212.5130, 160.8307
213.7370, 146.3303
214.9600, 114.8442
216.1840, 124.3702
217.4070, 127.9062
218.6300, 88.45068
219.8520, 103.0019
221.0750, 87.55878
222.2970, 94.12018
223.5200, 70.68481
224.7420, 67.25110
225.9640, 44.81732
227.1850, 38.28900
228.4070, 28.93909
229.6280, 29.49042
230.8490, 17.03406
232.0700, 24.56744
233.2910, 9.001587
234.5120, 4.603516
235.7320, 4.897888
236.9530, 10.94769
238.1730, 12.94891
239.3930, 14.50031
240.6130, 9.069214
241.8320, 1.345764
243.0520, 16.25281
244.2710, 46.86975
245.4900, 47.51434
246.7090, 39.18805
247.9280, 60.89093
249.1470, 40.63049
250.3650, 41.40320
251.5840, 28.21027
252.8020, 29.95038
254.0200, 49.92010
255.2370, 43.82874
256.4550, 49.77234
257.6720, 70.75122
258.8900, 34.76947
260.1070, 19.81696
261.3240, 33.88892
262.5400, 17.73889
263.7570, 29.10815
264.9730, 20.25232
266.1900, 30.41699
267.4060, 31.60376
268.6220, 33.27765
269.8370, 32.04144
271.0530, 29.29077
272.2680, 36.55859
273.4830, 10.84607
274.6980, 2.146423
275.9130, 12.45679
277.1280, 9.779297
278.3420, 11.88739
279.5570, 3.548706
280.7710, 38.20325
281.9850, 37.85504
283.1990, 86.50433
284.4120, 77.15137
285.6260, 83.79407
286.8390, 111.4265
288.0520, 114.0445
289.2650, 139.0412
290.4780, 152.2181
291.6910, 174.7558
292.9030, 209.2598
294.1160, 208.7351
295.3280, 234.1528
296.5400, 243.5131
297.7510, 277.8253
298.9630, 280.1005
300.1740, 323.3276
301.3860, 319.4991
302.5970, 364.6408
303.8080, 361.7553
305.0180, 397.8455
306.2290, 405.9086
307.4390, 392.9456
308.6500, 401.9579
309.8600, 435.9646
311.0700, 437.0755
312.2790, 406.0802
313.4890, 434.0978
314.6980, 427.1777
315.9080, 444.3237
317.1170, 445.7071
318.3250, 476.1938
319.5340, 468.5782
320.7430, 466.0472
321.9510, 423.9305
323.1590, 441.0582
324.3670, 415.2444
325.5750, 397.4019
326.7830, 389.5750
327.9900, 403.7637
329.1980, 389.3986
330.4050, 376.1897
331.6120, 376.4270
332.8190, 368.6813
334.0250, 349.9523
335.2320, 372.2404
336.4380, 367.5458
337.6440, 369.8688
338.8500, 353.2096
340.0560, 378.5684
341.2620, 363.9454
342.4670, 398.3409
343.6730, 441.7551
344.8780, 458.1818
346.0830, 427.6216
347.2870, 489.0750
348.4920, 501.5422
349.6970, 519.0232
350.9010, 599.5187
352.1050, 617.0281
353.3090, 612.5520
354.5130, 659.0896
355.7160, 728.6414
356.9200, 808.2073
358.1230, 811.7897
359.3260, 905.3862
360.5290, 961.9969
361.7320, 1033.622
362.9340, 1128.261
364.1370, 1234.916
365.3390, 1396.584
366.5410, 1538.268
367.7430, 1713.967
368.9450, 1885.680
370.1460, 2108.410
371.3480, 2376.931
372.5490, 2651.328
373.7500, 2894.486
374.9510, 3319.695
376.1520, 3712.477
377.3520, 4220.583
378.5520, 4744.067
379.7530, 5296.359
380.9530, 5983.136
382.1530, 6625.595
383.3520, 7522.972
384.5520, 8365.293
385.7510, 9299.970
386.9500, 10376.30
388.1490, 11301.64
389.3480, 12371.18
390.5470, 13195.73
391.7450, 14030.84
392.9440, 14976.66
394.1420, 15456.78
395.3400, 15553.89
396.5380, 15699.83
397.7350, 15277.72
398.9330, 14693.49
400.1300, 13775.66
401.3270, 12819.54
402.5240, 11397.20
403.7210, 10178.06
404.9180, 9072.866
406.1140, 7822.901
407.3110, 6736.941
408.5070, 5852.376
409.7030, 5030.391
410.8990, 4389.872
412.0940, 3832.346
413.2900, 3405.787
414.4850, 2888.365
415.6800, 2483.171
416.8750, 2256.617
418.0700, 1970.637
419.2650, 1804.226
420.4590, 1572.291
421.6530, 1426.582
422.8470, 1279.040
424.0410, 1123.184
425.2350, 1032.948
426.4290, 891.7424
427.6220, 853.5667
428.8160, 661.4214
430.0090, 606.3064
431.2020, 484.2219
432.3940, 449.1685
433.5870, 419.1460
434.7790, 382.1550
435.9720, 318.1959
437.1640, 266.2703
438.3560, 288.3770
439.5470, 237.5162
440.7390, 231.6902
441.9300, 149.9030
443.1220, 152.1537
444.3130, 128.4412
445.5040, 100.7745
446.6940, 85.15735
447.8850, 56.58984
449.0750, 74.06519
450.2660, 63.59106
451.4560, 36.16455
452.6460, 14.78650
453.8350, 13.53369
455.0250, 13.20044
456.2140, 33.99023
457.4040, 6.163940
458.5930, 74.26379
459.7820, 32.32068
460.9700, 38.32568
462.1590, 30.27710
463.3470, 54.17163
464.5350, 41.20752
465.7240, 13.17554
466.9110, 5.567383
468.0990, 22.73560
469.2870, 91.09155
470.4740, 37.50000
471.6610, 93.96606
472.8480, 164.4844
474.0350, 175.0464
475.2220, 168.6541
476.4090, 282.3053
477.5950, 290.0039
478.7810, 299.7484
479.9670, 344.5450
481.1530, 425.3848
482.3390, 422.2639
483.5240, 539.1807
484.7100, 645.1388
485.8950, 690.1345
487.0800, 808.1693
488.2650, 893.2417
489.4490, 1040.352
490.6340, 1143.499
491.8180, 1286.685
493.0030, 1478.034
494.1870, 1633.169
495.3700, 1909.467
496.5540, 2192.803
497.7380, 2471.177
498.9210, 2831.589
500.1040, 3200.039
501.2870, 3844.527
502.4700, 4331.052
503.6530, 5051.615
504.8350, 5799.216
506.0180, 6522.854
507.2000, 7499.531
508.3820, 8277.244
509.5640, 9321.998
510.7450, 10220.79
511.9270, 10976.62
513.1080, 11518.48
514.2890, 11754.39
515.4700, 11733.33
516.6510, 11705.32
517.8320, 11188.34
519.0130, 10809.42
520.1930, 10352.53
521.3730, 9721.682
522.5530, 8929.880
523.7330, 8385.134
524.9130, 7616.430
526.0920, 6996.776
527.2710, 6317.172
528.4510, 5868.617
529.6300, 5207.105
530.8080, 4700.646
531.9870, 4282.243
533.1660, 4020.898
534.3440, 3594.608
535.5220, 3419.378
536.7000, 3150.203
537.8780, 2760.084
539.0560, 2566.016
540.2330, 2430.000
541.4110, 2096.041
542.5880, 2006.137
543.7650, 1863.289
544.9420, 1720.502
546.1180, 1539.768
547.2950, 1392.082
548.4710, 1271.814
549.6470, 1233.860
550.8230, 1065.323
551.9990, 1033.833
553.1750, 979.3923
554.3500, 866.0022
555.5260, 800.6614
556.7010, 761.3701
557.8760, 706.1270
559.0510, 626.9338
560.2250, 581.7839
561.4000, 563.6750
562.5740, 508.6094
563.7480, 544.5857
564.9220, 478.5991
566.0960, 505.6512
567.2700, 459.2439
568.4430, 375.8591
569.6170, 376.0151
570.7900, 330.2056
571.9630, 296.4302
573.1360, 334.6888
574.3080, 315.9814
575.4810, 283.3081
576.6530, 282.6682
577.8250, 269.0649
578.9980, 270.5040
580.1690, 249.1033
581.3410, 273.7146
582.5130, 242.2773
583.6840, 215.5793
584.8550, 232.5309
586.0260, 215.5732
587.1970, 283.4531
588.3680, 171.3182
589.5380, 248.5358
590.7080, 219.5879
591.8790, 239.8981
593.0490, 230.3450
594.2190, 244.6313
595.3880, 298.1145
596.5580, 300.2657
597.7270, 308.5574
598.8960, 376.5457
600.0650, 404.1393
601.2340, 417.9446
602.4030, 429.2476
603.5710, 519.2679
604.7400, 606.5735
605.9080, 640.5259
607.0760, 654.9448
608.2440, 752.0992
609.4120, 810.7354
610.5790, 877.2878
611.7460, 973.1316
612.9140, 1103.638
614.0810, 1192.219
615.2480, 1366.214
616.4140, 1480.822
617.5810, 1641.301
618.7470, 1949.428
619.9130, 2150.018
621.0790, 2385.605
622.2450, 2678.332
623.4110, 3124.777
624.5770, 3454.023
625.7420, 3930.508
626.9070, 4419.253
628.0720, 4905.776
629.2370, 5341.319
630.4020, 6006.877
631.5660, 6412.458
632.7310, 6933.054
633.8950, 7337.669
635.0590, 7709.302
636.2230, 7895.951
637.3870, 7894.620
638.5500, 7777.308
639.7140, 7629.013
640.8770, 7221.733
642.0400, 6887.472
643.2030, 6386.226
644.3660, 5865.997
645.5280, 5392.784
646.6910, 4897.585
647.8530, 4439.404
649.0150, 3935.238
650.1770, 3574.087
651.3390, 3176.951
652.5000, 2849.830
653.6620, 2600.723
654.8230, 2339.630
655.9840, 2069.552
657.1450, 1892.488
658.3060, 1845.437
659.4660, 1671.399
660.6270, 1553.373
661.7870, 1381.360
662.9470, 1313.360
664.1070, 1182.373
665.2670, 1072.398
666.4260, 1009.435
667.5860, 916.4841
668.7450, 813.5437
669.9040, 826.6140
671.0630, 752.6951
672.2220, 704.7858
673.3800, 702.8861
674.5390, 630.9966
675.6970, 569.1163
676.8550, 534.2446
678.0130, 504.3827
679.1710, 454.5288
680.3290, 433.6863
681.4860, 406.8508
682.6430, 401.0226
683.8000, 343.2019
684.9570, 385.3882
686.1140, 334.5807
687.2710, 294.7789
688.4270, 345.9829
689.5840, 318.1919
690.7400, 310.4061
691.8960, 278.6249
693.0520, 244.8480
694.2070, 247.0750
695.3630, 270.3054
696.5180, 255.5388
697.6730, 248.7750
698.8280, 249.0140
699.9830, 259.2555
701.1380, 210.5004
702.2920, 209.7495
703.4470, 174.0015
704.6010, 152.2562
705.7550, 173.5125
706.9090, 135.7699
708.0620, 127.0287
709.2160, 99.28796
710.3690, 95.54773
711.5220, 119.8079
712.6750, 48.06775
713.8280, 75.32715
714.9810, 74.58618
716.1340, 5.844177
717.2860, 27.09760
718.4380, 40.34924
719.5900, 9.599426
720.7420, 8.155151
721.8940, 1.922668
723.0450, 6.298706
724.1970, 29.48773
725.3480, 42.29993
726.4990, 40.58392
727.6500, 11.02039
728.8010, 40.91431
729.9510, 26.84235
731.1020, 27.79779
732.2520, 64.78204
733.4020, 54.81409
734.5520, 52.88861
735.7020, 54.00488
736.8510, 48.41931
738.0010, 41.35797
739.1500, 47.58911
740.2990, 55.86108
741.4480, 64.17883
742.5970, 24.54791
743.7450, 36.94556
744.8940, 56.38031
746.0420, 7.865417
747.1900, 31.37616
748.3380, 28.92535
749.4860, 48.51221
750.6330, 26.14758
751.7810, 8.179993
752.9280, 1.487000
754.0750, 9.789917
755.2220, 4.946167
756.3690, 1.929138
757.5160, 21.50378
758.6620, 14.66711
759.8090, 41.84796
760.9550, 63.98608
762.1010, 27.11993
763.2470, 72.28644
764.3920, 48.40240
765.5380, 80.52081
766.6830, 103.6011
767.8280, 97.67218
768.9730, 97.73315
770.1180, 160.8218
771.2630, 118.8625
772.4070, 205.9075
773.5520, 196.0692
774.6960, 218.2625
775.8400, 233.4702
776.9840, 269.7338
778.1280, 245.7098
779.2710, 289.8944
780.4140, 298.9965
781.5580, 331.9388
782.7010, 364.9956
783.8440, 367.9143
784.9860, 394.0229
786.1290, 434.9176
787.2710, 462.0972
788.4140, 433.0575
789.5560, 483.0259
790.6980, 455.9105
791.8390, 531.9074
792.9810, 504.0638
794.1220, 464.9196
795.2640, 490.7683
796.4050, 485.5767
797.5460, 505.4031
798.6860, 499.2308
799.8270, 484.1906
800.9680, 474.1108
802.1080, 486.2948
803.2480, 487.2135
804.3880, 482.9954
805.5280, 491.7529
806.6670, 427.5111
807.8070, 452.3853
808.9460, 440.0291
810.0850, 372.7469
811.2240, 415.6547
812.3630, 344.4231
813.5020, 409.0419
814.6400, 365.0054
815.7790, 369.7205
816.9170, 369.1044
818.0550, 378.6487
819.1930, 366.3223
820.3300, 365.0526
821.4680, 311.7804
822.6050, 327.3748
823.7430, 287.9019
824.8800, 317.4723
826.0170, 304.9734
827.1530, 331.5714
828.2900, 321.0387
829.4260, 308.4974
830.5620, 307.9389
831.6990, 287.3287
832.8340, 318.6495
833.9700, 292.0059
835.1060, 262.3699
836.2410, 313.7822
837.3760, 253.3810
838.5120, 300.2097
839.6470, 291.7806
840.7810, 281.3933
841.9160, 267.7512
843.0500, 256.0787
844.1850, 255.3030
845.3190, 271.7797
846.4530, 265.0640
847.5870, 257.3363
848.7200, 280.5753
849.8540, 254.7740
850.9870, 239.0021
852.1200, 243.1157
853.2530, 231.0664
854.3860, 249.0826
855.5190, 248.2148
856.6510, 222.1246
857.7840, 270.1404
858.9160, 227.3457
860.0480, 226.9700
861.1800, 241.4576
862.3110, 250.1091
863.4430, 209.3101
864.5740, 187.7195
865.7060, 185.9549
866.8370, 209.6462
867.9680, 172.8229
869.0980, 192.8227
870.2290, 184.3162
871.3590, 171.1058
872.4900, 181.5782
873.6200, 168.2799
874.7500, 159.2686
875.8790, 164.9275
877.0090, 156.9197
878.1380, 146.3248
879.2680, 143.2919
880.3970, 125.3594
881.5260, 103.1049
882.6550, 113.7338
883.7830, 117.9154
884.9120, 95.15808
886.0400, 96.15503
887.1680, 66.53748
888.2960, 89.81274
889.4240, 49.65613
890.5520, 52.89667
891.6790, 72.31030
892.8070, 68.05383
893.9340, 56.36566
895.0610, 38.66650
896.1880, 53.87268
897.3140, 44.36469
898.4410, 35.07825
899.5670, 41.54907
900.6940, 37.78101
901.8200, 46.19519
902.9450, 53.76233
904.0710, 51.48950
905.1970, 36.57855
906.3220, 46.98853
907.4470, 40.35522
908.5730, 27.75653
909.6980, 25.09686
910.8220, 23.47571
911.9470, 19.79083
913.0710, 60.09253
914.1960, 22.55280
915.3200, 26.83099
916.4440, 78.09698
917.5680, 28.35229
918.6910, 46.59558
919.8150, 22.85577
920.9380, 43.07581
922.0610, 17.33228
923.1840, 30.59503
924.3070, 28.80170
925.4300, 36.01508
926.5520, 24.21851
927.6750, 14.42871
928.7970, 34.60620
929.9190, 33.74927
931.0410, 36.86597
932.1630, 32.97217
933.2840, 31.09985
934.4060, 19.18433
935.5270, 20.48145
936.6480, 7.375549
937.7690, 18.44214
938.8900, 27.57452
940.0100, 28.63434
941.1310, 26.64917
942.2510, 16.68359
943.3710, 36.67719
944.4910, 25.68909
945.6110, 11.66187
946.7310, 18.62939
947.8500, 31.57837
948.9690, 6.517761
950.0890, 18.44623
951.2080, 3.630188
952.3260, 32.32446
953.4450, 17.21503
954.5640, 12.13617
955.6820, 11.02289
956.8000, 18.87958
957.9180, 23.77783
959.0360, 17.63464
960.1540, 22.53772
961.2710, 12.37830
962.3890, 22.39539
963.5060, 21.19080
964.6230, 21.03680
965.7400, 24.93335
966.8570, 33.63586
967.9730, 24.43945
969.0900, 21.25677
970.2060, 14.07642
971.3220, 1.881592
972.4380, 3.249451
973.5540, 1.098267
974.6700, 0.6856080
975.7850, 10.01483
976.9010, 10.68530
978.0160, 2.367432
979.1310, 12.01776
980.2460, 8.850952
981.3600, 8.946716
982.4750, 9.833618
983.5890, 11.47198
984.7030, 7.137451
985.8170, 16.76276
986.9310, 15.39050
988.0450, 26.97028
989.1590, 7.542297
990.2720, 17.10565
991.3850, 11.66229
992.4980, 25.21613
993.6110, 14.76672
994.7240, 26.40320
995.8370, 33.95258
996.9490, 6.490417
998.0620, 14.11414
999.1740, 28.67383
1000.286, 6.241638
1001.398, 23.16443
1002.509, 11.74146
1003.621, 15.35663
1004.732, 3.979919
1005.843, 16.97296
1006.954, 11.68005
1008.065, 39.34705
1009.176, 7.984924
1010.286, 25.65765
1011.397, 32.20331
1012.507, 2.007141
1013.617, 7.782166
1014.727, 16.57312
1015.837, 13.29565
1016.946, 18.05743
1018.056, 33.78064
1019.165, 17.53278
1020.274, 9.335205
1021.383, 19.50348
1022.492, 29.32434
1023.601, 31.10468
1024.709, 17.99347
1025.817, 25.27325
1026.926, 20.44806
1028.034, 25.44641
1029.141, 17.23206
1030.249, 18.08569
1031.357, 14.88531
1032.464, 17.62360
1033.571, 14.40442
1034.678, 41.17737
1035.785, 1.044861
1036.892, 36.76434
1037.999, 15.51929
1039.105, 16.44696
1040.211, 24.27600
1041.317, 14.75720
1042.423, 46.33905
1043.529, 13.90576
1044.635, 49.42377
1045.740, 26.87274
1046.845, 1.412476
1047.951, 27.09259
1049.056, 30.62518
1050.160, 47.33716
1051.265, 34.88745
1052.370, 18.55389
1053.474, 32.01373
1054.578, 13.68530
1055.682, 9.394409
1056.786, 19.97253
1057.890, 15.50507
1058.993, 15.18762
1060.097, 10.57355
1061.200, 14.86945
1062.303, 20.48944
1063.406, 31.08948
1064.509, 31.57336
1065.612, 16.27539
1066.714, 27.80908
1067.816, 28.23572
1068.919, 9.674561
1070.021, 19.33704
1071.122, 2.708374
1072.224, 15.19812
1073.326, 35.69421
1074.427, 16.50354
1075.528, 27.84668
1076.629, 16.40204
1077.730, 24.86475
1078.831, 21.11969
1079.931, 32.49542
1081.032, 29.10358
1082.132, 24.77863
1083.232, 21.17249
1084.332, 8.858826
1085.432, 30.40112
1086.531, 11.76514
1087.631, 17.04889
1088.730, 31.35681
1089.829, 8.739136
1090.928, 16.16968
1092.027, 9.537964
1093.126, 7.956543
1094.224, 3.740906
1095.323, 21.68317
1096.421, 6.086304
1097.519, 38.53900
1098.617, 7.014282
1099.715, 9.505249
1100.812, 3.934143
1101.910, 1.335999
1103.007, 2.072327
1104.104, 2.201660
1105.201, 0.3229370
1106.298, 9.805847
1107.394, 5.861877
1108.491, 20.15320
1109.587, 13.45575
1110.683, 26.63220
1111.779, 8.973694
1112.875, 14.73834
1113.971, 4.538879
1115.066, 11.83008
1116.162, 3.142151
1117.257, 10.40546
1118.352, 7.763977
1119.447, 38.11218
1120.542, 19.53003
1121.636, 45.81274
1122.731, 29.18079
1123.825, 37.50500
1124.919, 21.91406
1126.013, 0.7321170
1127.107, 23.68036
1128.200, 24.10443
1129.294, 6.006531
1130.387, 24.35992
1131.480, 18.77795
1132.573, 6.931702
1133.666, 22.45966
1134.759, 10.79315
1135.851, 2.149963
1136.944, 7.742371
1138.036, 6.551575
1139.128, 5.880310
1140.220, 19.27386
1141.312, 9.571838
1142.403, 16.04083
1143.495, 1.661438
1144.586, 1.500061
1145.677, 1.221436
1146.768, 12.10663
1147.859, 3.418823
1148.950, 17.74841
1150.040, 10.10919
1151.130, 1.432007
1152.221, 8.285767
1153.311, 3.4790002E-02
1154.401, 4.379578
1155.490, 2.278564
1156.580, 2.025696
1157.669, 3.357300
1158.759, 1.665649
1159.848, 4.268799
1160.937, 0.7197880
1162.025, 4.568726
1163.114, 6.840942
1164.202, 5.123596
1165.291, 2.389954
1166.379, 6.700806
1167.467, 0.1542970
1168.555, 9.150940
1169.642, 4.589111
1170.730, 1.330322
1171.817, 14.04248
1172.905, 11.19373
1173.992, 3.476440
1175.078, 7.705933
1176.165, 6.984558
1177.252, 8.261597
1178.338, 4.366638
1179.425, 13.63916
1180.511, 4.909729
1181.597, 12.17914
1182.682, 19.44647
1183.768, 27.68451
1184.854, 10.08112
1185.939, 6.704285
1187.024, 8.488281
1188.109, 15.72339
1189.194, 22.93829
1190.279, 20.15149
1191.363, 12.34436
1192.448, 2.555603
1193.532, 4.788086
1194.616, 7.033752
1195.700, 8.277222
1196.784, 22.48621
1197.867, 2.725647
1198.951, 4.963440
1200.034, 9.858521
1201.117, 19.35510
1202.200, 18.49133
1203.283, 20.68762
1204.366, 6.083130
1205.448, 17.11264
1206.531, 14.34406
1207.613, 18.53818
1208.695, 17.75919
1209.777, 30.97217
1210.859, 0.8087160
1211.940, 9.592133
1213.022, 7.619812
1214.103, 20.82437
1215.184, 3.982605
1216.265, 11.19333
1217.346, 20.36124
1218.427, 2.551178
1219.507, 12.75873
1220.587, 24.91293
1221.668, 20.09702
1222.748, 21.25269
1223.828, 40.40073
1224.907, 9.389832
1225.987, 33.58975
1227.066, 0.7277830
1228.146, 1.924408
1229.225, 10.06329
1230.304, 14.21118
1231.382, 24.33478
1232.461, 17.44540
1233.540, 12.55951
1234.618, 41.59802
1235.696, 8.716003
1236.774, 30.86755
1237.852, 23.00421
1238.930, 23.19397
1240.007, 34.36154
1241.085, 7.549957
1242.162, 32.69861
1243.239, 32.05966
1244.316, 28.18939
1245.393, 60.34915
1246.469, 20.47192
1247.546, 14.62479
1248.622, 45.76566
1249.698, 29.06296
1250.774, 39.24249
1251.850, 28.42105
1252.926, 15.60312
1254.001, 26.80899
1255.077, 30.98410
1256.152, 45.06702
1257.227, 27.23962
1258.302, 18.41086
1259.377, 25.54520
1260.451, 26.71631
1261.526, 37.92706
1262.600, 51.74625
1263.674, 34.91513
1264.748, 38.05899
1265.822, 53.18756
1266.896, 36.97363
1267.969, 48.10681
1269.043, 47.23615
1270.116, 33.43317
1271.189, 33.68369
1272.262, 39.96698
1273.335, 36.02206
1274.407, 29.08200
1275.480, 33.17358
1276.552, 18.32309
1277.624, 54.43539
1278.696, 49.61447
1279.768, 40.77258
1280.840, 29.87332
1281.911, 38.61588
1282.982, 53.70499
1284.054, 30.84750
1285.125, 37.88220
1286.196, 37.98349
1287.266, 23.09668
1288.337, 39.19211
1289.407, 48.30386
1290.478, 44.37704
1291.548, 40.50510
1292.618, 40.74628
1293.688, 34.74426
1294.757, 33.28210
1295.827, 26.60873
1296.896, 23.68140
1297.965, 22.80188
1299.034, 25.71964
1300.103, 25.78641
1301.172, 36.17111
1302.241, 25.29703
1303.309, 24.38977
1304.377, 14.50577
1305.445, 28.61801
1306.513, 26.77661
1307.581, 27.87088
1308.649, 26.00293
1309.716, 32.45352
1310.784, 34.57809
1311.851, 24.89017
1312.918, 1.981812
1313.985, 34.17502
1315.052, 20.00323
1316.118, 39.11072
1317.185, 27.23373
1318.251, 23.72043
1319.317, 20.84692
1320.383, 33.97772
1321.449, 22.05188
1322.514, 20.13507
1323.580, 19.73502
1324.645, 11.32855
1325.711, 15.50684
1326.776, 9.579895
1327.840, 13.67993
1328.905, 32.29095
1329.970, 14.80481
1331.034, 45.95358
1332.099, 13.19614
1333.163, 12.02405
1334.227, 7.335754
1335.290, 21.46140
1336.354, 18.58661
1337.418, 32.70285
1338.481, 18.84784
1339.544, 27.91617
1340.607, 24.54160
1341.670, 9.681702
1342.733, 39.84976
1343.795, 16.92456
1344.858, 24.02930
1345.920, 32.14612
1346.982, 19.23038
1348.044, 22.33890
1349.106, 27.44730
1350.168, 23.55469
1351.229, 26.70297
1352.291, 26.80988
1353.352, 16.95624
1354.413, 31.06348
1355.474, 13.11884
1356.534, 21.21249
1357.595, 12.36115
1358.656, 23.51703
1359.716, 27.62292
1360.776, 21.72815
1361.836, 22.84598
1362.896, 3.951385
1363.955, 11.04471
1365.015, 13.14978
1366.074, 13.25476
1367.134, 16.63034
1368.193, 21.46835
1369.252, 16.59851
1370.310, 18.74091
1371.369, 13.86630
1372.427, 27.99438
1373.486, 10.09589
1374.544, 20.19693
1375.602, 21.29761
1376.660, 1.589722
1377.717, 11.52640
1378.775, 17.62537
1379.832, 8.721191
1380.889, 2.815125
1381.946, 22.97812
1383.003, 11.11487
1384.060, 14.21588
1385.117, 17.34180
1386.173, 8.475830
1387.230, 13.56363
1388.286, 1.046173
1389.342, 22.12897
1390.398, 15.21133
1391.453, 13.29089
1392.509, 5.369781
1393.564, 7.447937
1394.619, 24.54108
1395.675, 26.61789
1396.729, 3.740051
1397.784, 1.179962
1398.839, 19.92026
1399.893, 16.99725
1400.948, 21.08038
1402.002, 5.172119
1403.056, 12.24683
1404.110, 19.32025
1405.163, 6.392914
1406.217, 6.471588
1407.270, 11.54584
1408.324, 13.66193
1409.377, 11.73193
1410.430, 3.800659
1411.483, 7.868530
1412.535, 10.94476
1413.588, 9.312836
1414.640, 21.14645
1415.692, 10.25629
1416.744, 9.317780
1417.796, 6.386322
1418.848, 6.561829
1419.900, 4.487396
1420.951, 2.574097
1422.002, 3.379028
1423.053, 20.83304
1424.104, 22.87552
1425.155, 8.949646
1426.206, 3.990265
1427.256, 7.032562
1428.307, 22.07263
1429.357, 13.11136
1430.407, 11.14853
1431.457, 11.19522
1432.507, 1.225555
1433.556, 29.27725
1434.606, 20.32999
1435.655, 5.653442
1436.704, 14.42004
1437.753, 2.529907
1438.802, 25.47543
1439.851, 2.344482
1440.899, 0.3411250
1441.948, 12.33359
1442.996, 13.34467
1444.044, 5.683441
1445.092, 12.49579
1446.140, 10.48737
1447.187, 14.15302
1448.235, 26.27206
1449.282, 1.391022
1450.329, 24.51001
1451.376, 10.63144
1452.423, 17.75137
1453.470, 9.871277
1454.517, 5.983185
1455.563, 5.897919
1456.609, 6.220917
1457.655, 1.110016
1458.701, 3.513794
1459.747, 2.409180
1460.793, 11.71445
1461.838, 11.83813
1462.884, 13.96161
1463.929, 7.084869
1464.974, 1.208832
1466.019, 4.332397
1467.064, 3.455872
1468.108, 1.552917
1469.153, 16.67645
1470.197, 24.80020
1471.241, 13.92395
1472.285, 12.04715
1473.329, 29.17032
1474.373, 20.29373
1475.416, 29.26694
1476.460, 6.382904
1477.503, 24.46588
1478.546, 4.587036
1479.589, 24.69879
1480.632, 22.76361
1481.674, 9.880035
1482.717, 4.966217
1483.759, 5.064301
1484.801, 20.13937
1485.843, 17.10062
1486.885, 14.21652
1487.927, 22.48041
1488.968, 23.38293
1490.010, 27.46967
1491.051, 27.58673
1492.092, 24.63083
1493.133, 16.72885
1494.174, 7.836487
1495.215, 8.900635
1496.255, 6.320068
1497.296, 24.00327
1498.336, 23.10681
1499.376, 19.12656
1500.416, 24.19186
1501.456, 15.28668
1502.495, 14.29590
1503.535, 33.40311
1504.574, 21.85291
1505.613, 20.60873
1506.652, 2.513123
1507.691, 7.604523
1508.730, 14.97531
1509.768, 9.040894
1510.807, 7.029266
1511.845, 28.09164
1512.883, 4.856506
1513.921, 36.29718
1514.959, 23.00958
1515.996, 22.52286
1517.034, 23.51147
1518.071, 29.46637
1519.109, 14.25684
1520.146, 26.02420
1521.183, 7.042358
1522.219, 16.99628
1523.256, 12.00287
1524.292, 29.89957
1525.329, 16.76389
1526.365, 14.75247
1527.401, 41.51483
1528.437, 30.34314
1529.472, 25.27069
1530.508, 17.22757
1531.543, 18.17648
1532.579, 8.101349
1533.614, 28.76492
1534.649, 24.54300
1535.683, 23.47559
1536.718, 17.35614
1537.753, 4.207733
1538.787, 21.13351
1539.821, 8.610138
1540.855, 32.33679
1541.889, 18.05319
1542.923, 20.24283
1543.956, 26.11456
1544.990, 9.986328
1546.023, 19.78824
1547.056, 1.604340
1548.089, 22.10013
1549.122, 11.80331
1550.155, 33.62344
1551.187, 19.38986
1552.220, 20.86172
1553.252, 40.63525
1554.284, 21.32932
1555.316, 17.52740
1556.348, 20.84921
1557.379, 15.50604
1558.411, 14.90546
1559.442, 30.88779
1560.474, 7.075897
1561.505, 11.51614
1562.535, 24.94470
1563.566, 39.10873
1564.597, 23.00665
1565.627, 35.73370
1566.658, 15.31827
1567.688, 28.79907
1568.718, 0.1423340
1569.748, 14.74737
1570.777, 0.0000000E+00
##END=



