##NAMES=Anatase
##RRUFFID=R060277
##IDEAL CHEMISTRY=Ti^4+^O_2_
##LOCALITY=Taftan, near Dalbandi, Baluchistan Province, Pakistan
##OWNER=RRUFF
##SOURCE=Herb Obodda
##DESCRIPTION=Dark brown tetragonal tabular crystals
##STATUS=The identification of this mineral is confirmed by single-crystal X-ray diffraction and chemical analysis.
##URL=rruff.info/R060277
##MEASURED CHEMISTRY=Ti_1.00_O_2_
##PIN_ID=L01956
##ORIENTATION=Laser parallel to -a* (-1 0 0). Fiducial mark perpendicular to laser is parallel to -c [0 0 -1]
50.72400, 0.0000000E+00
51.97000, 17.55240
53.21600, 7.799744
54.46200, 20.30908
55.70800, 20.04141
56.95400, 10.37668
58.19900, 0.2041930
59.44500, 2.279236
60.69000, 2.652863
61.93500, 9.591888
63.17900, 2.623383
64.42400, 1.359680
65.66800, 14.34454
66.91300, 12.45316
68.15700, 10.92493
69.40100, 15.71860
70.64400, 28.45544
71.88800, 26.12274
73.13100, 61.66907
74.37400, 87.40973
75.61700, 103.3322
76.86000, 113.4384
78.10300, 145.7439
79.34500, 164.2545
80.58800, 183.9540
81.83000, 234.8145
83.07200, 260.8105
84.31400, 273.9210
85.55500, 321.1292
86.79700, 374.4208
88.03800, 369.7843
89.27900, 441.2092
90.52000, 488.6868
91.76100, 527.2097
93.00100, 601.7724
94.24200, 600.3712
95.48200, 647.0022
96.72200, 675.6633
97.96200, 730.3549
99.20200, 784.1550
100.4410, 853.0311
101.6810, 900.0580
102.9200, 994.2872
104.1590, 1020.738
105.3980, 1092.390
106.6360, 1185.194
107.8750, 1297.053
109.1130, 1372.930
110.3510, 1488.770
111.5890, 1568.559
112.8270, 1703.302
114.0650, 1863.000
115.3020, 2033.658
116.5390, 2179.277
117.7770, 2391.860
119.0130, 2696.411
120.2500, 3002.932
121.4870, 3367.424
122.7230, 3779.891
123.9590, 4411.330
125.1950, 5102.746
126.4310, 6197.139
127.6670, 7439.508
128.9030, 9159.853
130.1380, 11542.17
131.3730, 14207.48
132.6080, 17491.77
133.8430, 21055.06
135.0780, 25025.33
136.3120, 29758.60
137.5470, 35593.88
138.7810, 41970.14
140.0150, 48516.39
141.2480, 54809.64
142.4820, 59313.90
143.7160, 61415.14
144.9490, 59646.52
146.1820, 53505.65
147.4150, 44190.65
148.6480, 33754.24
149.8800, 25133.63
151.1130, 18806.76
152.3450, 14077.12
153.5770, 10854.77
154.8090, 8602.309
156.0410, 6817.903
157.2720, 5710.239
158.5040, 4756.247
159.7350, 3889.685
160.9660, 3386.280
162.1970, 3057.051
163.4270, 2627.074
164.6580, 2249.815
165.8880, 2039.701
167.1180, 1819.668
168.3480, 1626.353
169.5780, 1459.651
170.8080, 1307.739
172.0370, 1174.441
173.2670, 1079.147
174.4960, 984.8581
175.7250, 903.5729
176.9540, 829.2910
178.1820, 789.0115
179.4110, 759.7346
180.6390, 686.4594
181.8670, 641.1910
183.0950, 579.9294
184.3230, 565.6785
185.5500, 538.4431
186.7780, 554.2243
188.0050, 549.0133
189.2320, 578.8047
190.4590, 633.8393
191.6850, 696.5374
192.9120, 791.1812
194.1380, 883.9723
195.3650, 1007.763
196.5910, 1129.554
197.8160, 1165.346
199.0420, 1119.217
200.2680, 898.0565
201.4930, 687.8627
202.7180, 508.6570
203.9430, 372.4481
205.1680, 320.2679
206.3930, 261.8933
207.6170, 231.6028
208.8410, 203.4442
210.0660, 191.4103
211.2890, 155.3668
212.5130, 155.3714
213.7370, 145.4106
214.9600, 97.46979
216.1840, 104.5471
217.4070, 84.64102
218.6300, 82.75000
219.8520, 79.87274
221.0750, 80.00818
222.2970, 68.15533
223.5200, 52.31323
224.7420, 49.48096
225.9640, 49.65756
227.1850, 59.84195
228.4070, 50.03320
229.6280, 44.23059
230.8490, 23.43338
232.0700, 27.64099
233.2910, 13.85297
234.5120, 20.06876
235.7320, 20.28812
236.9530, 23.51077
238.1730, 8.736389
239.3930, 7.964172
240.6130, 11.80615
241.8320, 3.579285
243.0520, 1.353394
244.2710, 8.871887
245.4900, 6.349426
246.7090, 5.325439
247.9280, 2.447845
249.1470, 2.223907
250.3650, 16.00360
251.5840, 2.208618
252.8020, 23.58368
254.0200, 12.38763
255.2370, 13.20062
256.4550, 22.02307
257.6720, 26.85706
258.8900, 24.31918
260.1070, 14.56165
261.3240, 25.42871
262.5400, 11.30731
263.7570, 25.19373
264.9730, 21.09125
266.1900, 6.998657
267.4060, 32.91229
268.6220, 21.83862
269.8370, 21.77466
271.0530, 8.720093
272.2680, 0.3282470
273.4830, 7.627136
274.6980, 4.588196
275.9130, 6.553894
277.1280, 2.524719
278.3420, 1.499451
279.5570, 3.522156
280.7710, 4.458618
281.9850, 5.556458
283.1990, 30.56976
284.4120, 47.58258
285.6260, 43.59515
286.8390, 28.60742
288.0520, 18.61938
289.2650, 35.63098
290.4780, 46.64246
291.6910, 53.65283
292.9030, 46.65405
294.1160, 64.64636
295.3280, 41.63647
296.5400, 62.62042
297.7510, 70.59100
298.9630, 81.54712
300.1740, 81.48773
301.3860, 87.40479
302.5970, 61.30231
303.8080, 94.18164
305.0180, 105.0398
306.2290, 121.0828
307.4390, 88.90326
308.6500, 108.7164
309.8600, 88.81244
311.0700, 103.2036
312.2790, 107.0635
313.4890, 102.3811
314.6980, 121.3141
315.9080, 115.4377
317.1170, 109.7935
318.3250, 109.2493
319.5340, 118.5043
320.7430, 137.3137
321.9510, 111.8049
323.1590, 116.8730
324.3670, 135.7430
325.5750, 128.7629
326.7830, 128.9274
327.9900, 136.4695
329.1980, 114.3003
330.4050, 114.1342
331.6120, 106.9713
332.8190, 103.8114
334.0250, 103.3922
335.2320, 108.5012
336.4380, 100.3510
337.6440, 101.2042
338.8500, 95.06067
340.0560, 97.87354
341.2620, 96.78412
342.4670, 111.6512
343.6730, 107.5217
344.8780, 128.3959
346.0830, 148.2739
347.2870, 161.1558
348.4920, 160.0417
349.6970, 162.9317
350.9010, 156.8257
352.1050, 189.7244
353.3090, 165.6279
354.5130, 196.5353
355.7160, 199.4460
356.9200, 198.3604
358.1230, 231.2780
359.3260, 247.1987
360.5290, 253.1225
361.7320, 307.0493
362.9340, 290.9791
364.1370, 308.9118
365.3390, 333.8474
366.5410, 398.7858
367.7430, 412.7271
368.9450, 474.6713
370.1460, 540.6183
371.3480, 571.5679
372.5490, 693.5206
373.7500, 708.4761
374.9510, 791.4342
376.1520, 886.3954
377.3520, 1010.359
378.5520, 1163.324
379.7530, 1309.294
380.9530, 1438.267
382.1530, 1612.242
383.3520, 1826.141
384.5520, 2016.024
385.7510, 2280.884
386.9500, 2540.225
388.1490, 2711.693
389.3480, 2995.595
390.5470, 3210.428
391.7450, 3548.227
392.9440, 3706.623
394.1420, 3777.030
395.3400, 3890.628
396.5380, 3989.289
397.7350, 3868.441
398.9330, 3807.249
400.1300, 3522.009
401.3270, 3283.252
402.5240, 2906.201
403.7210, 2642.311
404.9180, 2264.995
406.1140, 2029.042
407.3110, 1698.921
408.5070, 1473.989
409.7030, 1305.302
410.8990, 1128.443
412.0940, 966.0414
413.2900, 851.3220
414.4850, 711.6113
415.6800, 680.6707
416.8750, 602.2656
418.0700, 459.4005
419.2650, 445.7194
420.4590, 379.9298
421.6530, 347.3827
422.8470, 334.9026
424.0410, 288.7092
425.2350, 220.0699
426.4290, 234.9802
427.6220, 177.1295
428.8160, 175.2851
430.0090, 148.4472
431.2020, 136.6157
432.3940, 113.7908
433.5870, 103.2559
434.7790, 93.96570
435.9720, 84.35565
437.1640, 71.55731
438.3560, 61.76587
439.5470, 30.98120
440.7390, 31.20349
441.9300, 25.43286
443.1220, 46.66943
444.3130, 24.91321
445.5040, 25.16467
446.6940, 9.423645
447.8850, 4.690369
449.0750, 9.033203
450.2660, 3.248901
451.4560, 3.540771
452.6460, 12.15131
453.8350, 20.83813
455.0250, 3.522339
456.2140, 19.19159
457.4040, 6.857422
458.5930, 38.51294
459.7820, 20.17047
460.9700, 22.82251
462.1590, 41.46948
463.3470, 10.88184
464.5350, 23.75562
465.7240, 11.38806
466.9110, 3.013000
468.0990, 9.626709
469.2870, 3.231812
470.4740, 25.17346
471.6610, 10.59088
472.8480, 33.02203
474.0350, 7.469421
475.2220, 33.93347
476.4090, 56.41516
477.5950, 46.91010
478.7810, 73.42310
479.9670, 79.94946
481.1530, 97.48907
482.3390, 109.0414
483.5240, 141.6025
484.7100, 133.1744
485.8950, 150.7555
487.0800, 187.3473
488.2650, 198.9480
489.4490, 226.5577
490.6340, 231.1786
491.8180, 284.8086
493.0030, 342.4476
494.1870, 356.0956
495.3700, 439.7526
496.5540, 484.4187
497.7380, 518.0939
498.9210, 661.7786
500.1040, 783.4719
501.2870, 885.1746
502.4700, 1008.886
503.6530, 1146.607
504.8350, 1358.337
506.0180, 1531.076
507.2000, 1805.825
508.3820, 2009.583
509.5640, 2289.349
510.7450, 2439.125
511.9270, 2670.912
513.1080, 2834.706
514.2890, 2879.510
515.4700, 2914.323
516.6510, 2890.146
517.8320, 2816.978
519.0130, 2637.819
520.1930, 2598.670
521.3730, 2425.530
522.5530, 2224.399
523.7330, 2050.278
524.9130, 1886.167
526.0920, 1748.065
527.2710, 1549.973
528.4510, 1464.897
529.6300, 1314.833
530.8080, 1151.780
531.9870, 1062.738
533.1660, 948.7070
534.3440, 893.6862
535.5220, 797.6779
536.7000, 750.6822
537.8780, 697.7025
539.0560, 595.7341
540.2330, 576.7839
541.4110, 576.8486
542.5880, 534.9284
543.7650, 460.0262
544.9420, 428.1426
546.1180, 376.2772
547.2950, 319.4276
548.4710, 328.5964
549.6470, 286.7802
550.8230, 297.9823
551.9990, 271.2019
553.1750, 271.4354
554.3500, 224.6893
555.5260, 222.9607
556.7010, 203.2495
557.8760, 202.5527
559.0510, 164.8679
560.2250, 155.1970
561.4000, 117.5395
562.5740, 151.8955
563.7480, 135.2643
564.9220, 146.6454
566.0960, 140.0378
567.2700, 141.2215
568.4430, 128.8593
569.6170, 135.2847
570.7900, 127.7194
571.9630, 100.1635
573.1360, 121.6166
574.3080, 117.0791
575.4810, 98.55078
576.6530, 116.0317
577.8250, 144.5217
578.9980, 114.0208
580.1690, 128.5292
581.3410, 168.0465
582.5130, 126.5730
583.6840, 144.1084
584.8550, 133.6530
586.0260, 139.2079
587.1970, 137.7703
588.3680, 171.3417
589.5380, 174.2954
590.7080, 183.6811
591.8790, 178.5920
593.0490, 178.0135
594.2190, 202.3379
595.3880, 204.7883
596.5580, 234.6295
597.7270, 247.7446
598.8960, 289.0103
600.0650, 337.6371
601.2340, 346.2090
602.4030, 375.8093
603.5710, 447.6041
604.7400, 446.8472
605.9080, 494.4776
607.0760, 512.2172
608.2440, 592.5761
609.4120, 668.5331
610.5790, 745.7297
611.7460, 828.2231
612.9140, 896.0768
614.0810, 944.5251
615.2480, 1125.099
616.4140, 1253.879
617.5810, 1283.642
618.7470, 1528.557
619.9130, 1661.335
621.0790, 1895.122
622.2450, 2083.744
623.4110, 2431.561
624.5770, 2812.735
625.7420, 3076.586
626.9070, 3500.784
628.0720, 3849.631
629.2370, 4340.485
630.4020, 4739.797
631.5660, 5329.663
632.7310, 5778.538
633.8950, 6221.419
635.0590, 6682.309
636.2230, 6901.203
637.3870, 7084.111
638.5500, 7190.023
639.7140, 7092.943
640.8770, 6861.867
642.0400, 6479.800
643.2030, 5997.737
644.3660, 5604.680
645.5280, 5091.630
646.6910, 4598.588
647.8530, 4191.552
649.0150, 3681.521
650.1770, 3424.499
651.3390, 3166.480
652.5000, 2774.468
653.6620, 2531.462
654.8230, 2237.462
655.9840, 2126.468
657.1450, 1913.479
658.3060, 1721.497
659.4660, 1583.519
660.6270, 1470.546
661.7870, 1346.579
662.9470, 1249.684
664.1070, 1137.661
665.2670, 1064.713
666.4260, 993.7708
667.5860, 894.8331
668.7450, 837.9004
669.9040, 806.9730
671.0630, 740.0502
672.2220, 659.1348
673.3800, 628.2245
674.5390, 618.3194
675.6970, 605.4187
676.8550, 546.5223
678.0130, 500.6300
679.1710, 459.7422
680.3290, 399.8586
681.4860, 373.9794
682.6430, 347.6464
683.8000, 339.2374
684.9570, 313.3723
686.1140, 319.5106
687.2710, 298.6527
688.4270, 278.7988
689.5840, 267.9485
690.7400, 270.1014
691.8960, 233.2580
693.0520, 243.4177
694.2070, 226.9924
695.3630, 199.7467
696.5180, 205.9153
697.6730, 201.0865
698.8280, 186.2606
699.9830, 184.4371
701.1380, 172.6160
702.2920, 160.7983
703.4470, 139.9827
704.6010, 142.1699
705.7550, 139.3593
706.9090, 95.55054
708.0620, 105.7438
709.2160, 100.9388
710.3690, 76.13580
711.5220, 83.33484
712.6750, 88.53552
713.8280, 80.73810
714.9810, 63.94257
716.1340, 85.14880
717.2860, 28.35638
718.4380, 34.56592
719.5900, 54.77679
720.7420, 37.98889
721.8940, 19.20239
723.0450, 28.41687
724.1970, 2.632751
725.3480, 10.84955
726.4990, 14.06726
727.6500, 4.713806
728.8010, 20.50208
729.9510, 3.271423
731.1020, 29.05609
732.2520, 7.143921
733.4020, 5.384644
734.5520, 26.40991
735.7020, 5.781555
736.8510, 10.02417
738.0010, 1.835693
739.1500, 4.644165
740.2990, 6.454346
741.4480, 5.967712
742.5970, 5.639771
743.7450, 6.446594
744.8940, 0.7135620
746.0420, 7.532288
747.1900, 2.860657
748.3380, 4.176147
749.4860, 8.009277
750.6330, 13.84973
751.7810, 23.70032
752.9280, 25.49615
754.0750, 28.45465
755.2220, 11.12805
756.3690, 30.03125
757.5160, 10.86816
758.6620, 10.78851
759.8090, 7.727905
760.9550, 18.31635
762.1010, 0.3725590
763.2470, 10.41174
764.3920, 0.4497070
765.5380, 20.39233
766.6830, 28.49341
767.8280, 0.4754030
768.9730, 18.59283
770.1180, 14.81793
771.2630, 37.18829
772.4070, 41.21082
773.5520, 47.50397
774.6960, 58.80597
775.8400, 69.65308
776.9840, 62.66968
778.1280, 59.73346
779.2710, 44.77814
780.4140, 53.68524
781.5580, 76.84033
782.7010, 74.87537
783.8440, 100.4453
784.9860, 126.5845
786.1290, 93.60950
787.2710, 116.8420
788.4140, 101.8408
789.5560, 107.8398
790.6980, 121.8736
791.8390, 101.1812
792.9810, 121.2905
794.1220, 112.3221
795.2640, 143.3138
796.4050, 134.3409
797.5460, 129.3283
798.6860, 126.3863
799.8270, 139.3619
800.9680, 113.4595
802.1080, 140.1970
803.2480, 120.3509
804.3880, 116.3249
805.5280, 106.2994
806.6670, 109.3738
807.8070, 121.3852
808.9460, 122.9800
810.0850, 101.0542
811.2240, 123.1990
812.3630, 99.15796
813.5020, 89.09958
814.6400, 113.0382
815.7790, 90.06104
816.9170, 114.0344
818.0550, 91.07910
819.1930, 110.5602
820.3300, 77.49777
821.4680, 62.46802
822.6050, 51.38742
823.7430, 43.67670
824.8800, 77.43192
826.0170, 47.39032
827.1530, 63.30173
828.2900, 71.36539
829.4260, 59.26102
830.5620, 60.29828
831.6990, 50.18655
832.8340, 38.07111
833.9700, 52.95187
835.1060, 67.89435
836.2410, 82.76782
837.3760, 84.64423
838.5120, 87.72968
839.6470, 73.59161
840.7810, 66.59406
841.9160, 81.44855
843.0500, 78.29904
844.1850, 54.14700
845.3190, 82.98950
846.4530, 68.85144
847.5870, 72.75427
848.7200, 70.58466
849.8540, 72.47253
850.9870, 67.39526
852.1200, 73.24316
853.2530, 61.05685
854.3860, 59.99243
855.5190, 82.81335
856.6510, 73.61420
857.7840, 65.43622
858.9160, 48.22839
860.0480, 66.07428
861.1800, 55.91943
862.3110, 78.70160
863.4430, 56.54169
864.5740, 64.93857
865.7060, 33.72839
866.8370, 62.17676
867.9680, 54.11890
869.0980, 27.89130
870.2290, 54.66174
871.3590, 49.71674
872.4900, 37.45581
873.6200, 51.44189
874.7500, 55.87885
875.8790, 51.14536
877.0090, 57.29166
878.1380, 38.45230
879.2680, 50.61752
880.3970, 42.72186
881.5260, 41.64594
882.6550, 48.65582
883.7830, 26.92471
884.9120, 33.10193
886.0400, 50.05582
887.1680, 43.63794
888.2960, 17.62933
889.4240, 12.52313
890.5520, 18.21768
891.6790, 19.90894
892.8070, 10.46530
893.9340, 15.14981
895.0610, 15.89954
896.1880, 28.77151
897.3140, 14.46860
898.4410, 21.76706
899.5670, 27.39243
900.6940, 9.325012
901.8200, 9.317261
902.9450, 30.94522
904.0710, 11.11749
905.1970, 2.761597
906.3220, 0.4910280
907.4470, 20.11731
908.5730, 0.7221370
909.6980, 12.67877
910.8220, 18.90707
911.9470, 23.49487
913.0710, 11.07401
914.1960, 12.64920
915.3200, 25.22650
916.4440, 11.84943
917.5680, 13.41330
918.6910, 4.026642
919.8150, 5.582581
920.9380, 14.12930
922.0610, 1.672821
923.1840, 17.21069
924.3070, 16.74783
925.4300, 12.29047
926.5520, 0.1799620
927.6750, 6.343140
928.7970, 11.86166
929.9190, 16.37619
931.0410, 11.88708
932.1630, 16.39404
933.2840, 8.897400
934.4060, 27.43161
935.5270, 5.927124
936.6480, 7.561249
937.7690, 2.919312
938.8900, 16.39487
940.0100, 15.88525
941.1310, 6.353516
942.2510, 10.81726
943.3710, 5.723053
944.4910, 5.727448
945.6110, 2.173340
946.7310, 15.62799
947.8500, 22.07394
948.9690, 22.51959
950.0890, 7.949860
951.2080, 12.57709
952.3260, 5.999237
953.4450, 4.583130
954.5640, 15.85529
955.6820, 11.26831
956.8000, 18.75412
957.9180, 9.152466
959.0360, 3.559998
960.1540, 10.94946
961.2710, 17.34286
962.3890, 2.724945
963.5060, 28.10220
964.6230, 3.485748
965.7400, 24.85495
966.8570, 23.22076
967.9730, 19.58322
969.0900, 8.942352
970.2060, 21.36426
971.3220, 17.72116
972.4380, 6.9641002E-02
973.5540, 38.45627
974.6700, 2.803131
975.7850, 24.22211
976.9010, 20.55411
978.0160, 18.89612
979.1310, 26.22983
980.2460, 13.58047
981.3600, 7.906036
982.4750, 20.24396
983.5890, 8.555817
984.7030, 4.863953
985.8170, 12.16806
986.9310, 21.46878
988.0450, 2.766357
989.1590, 15.05975
990.2720, 27.34988
991.3850, 12.63696
992.4980, 32.92078
993.6110, 8.201477
994.7240, 7.486023
995.8370, 17.76868
996.9490, 7.039429
998.0620, 29.30667
999.1740, 12.57281
1000.286, 24.82718
1001.398, 19.08887
1002.509, 13.35565
1003.621, 12.58075
1004.732, 16.84140
1005.843, 22.10660
1006.954, 16.36902
1008.065, 34.90439
1009.176, 29.20270
1010.286, 25.65964
1011.397, 25.10992
1012.507, 19.45782
1013.617, 17.74014
1014.727, 5.998840
1015.837, 33.25659
1016.946, 34.51981
1018.056, 34.76572
1019.165, 14.02087
1020.274, 25.30304
1021.383, 20.59763
1022.492, 12.01645
1023.601, 11.40982
1024.709, 24.10004
1025.817, 14.42261
1026.926, 17.61905
1028.034, 4.885071
1029.141, 11.47940
1030.249, 8.527283
1031.357, 21.79788
1032.464, 21.08032
1033.571, 24.38019
1034.678, 14.75281
1035.785, 41.02362
1036.892, 27.29935
1037.999, 11.53583
1039.105, 0.3929750
1040.211, 36.52823
1041.317, 26.79352
1042.423, 26.87009
1043.529, 21.02222
1044.635, 14.35889
1045.740, 25.61487
1046.845, 20.83762
1047.951, 14.07089
1049.056, 4.320190
1050.160, 23.52625
1051.265, 16.76819
1052.370, 3.446716
1053.474, 33.55853
1054.578, 15.90881
1055.682, 19.91800
1056.786, 15.81534
1057.890, 13.05286
1058.993, 19.24246
1060.097, 15.75479
1061.200, 17.86008
1062.303, 16.46228
1063.406, 20.68317
1064.509, 19.86679
1065.612, 22.07660
1066.714, 6.216492
1067.816, 30.42902
1068.919, 9.515045
1070.021, 16.95657
1071.122, 16.02441
1072.224, 9.220306
1073.326, 19.41101
1074.427, 15.49933
1075.528, 14.64407
1076.629, 22.20059
1077.730, 13.27304
1078.831, 9.299316
1079.931, 10.47754
1081.032, 9.668182
1082.132, 13.88138
1083.232, 3.018707
1084.332, 18.12500
1085.432, 19.19244
1086.531, 4.818695
1087.631, 9.997375
1088.730, 0.8755190
1089.829, 19.29715
1090.928, 8.401123
1092.027, 17.42175
1093.126, 9.540497
1094.224, 19.70160
1095.323, 17.70850
1096.421, 8.875366
1097.519, 16.76767
1098.617, 12.05972
1099.715, 15.22260
1100.812, 15.38412
1101.910, 0.5211790
1103.007, 9.637115
1104.104, 14.78726
1105.201, 0.7232970
1106.298, 8.877411
1107.394, 1.114044
1108.491, 15.03687
1109.587, 7.186523
1110.683, 8.333466
1111.779, 3.480652
1112.875, 8.603027
1113.971, 4.681946
1115.066, 23.82788
1116.162, 13.91113
1117.257, 18.95441
1118.352, 11.07104
1119.447, 27.21283
1120.542, 42.22742
1121.636, 19.35138
1122.731, 27.49014
1123.825, 15.60242
1124.919, 13.73917
1126.013, 7.816986
1127.107, 7.404083
1128.200, 13.01938
1129.294, 10.08701
1130.387, 13.21912
1131.480, 13.32638
1132.573, 12.93372
1133.666, 13.35760
1134.759, 12.69498
1135.851, 11.80014
1136.944, 10.92255
1138.036, 10.04865
1139.128, 4.832275
1140.220, 0.2897030
1141.312, 3.569550
1142.403, 3.448883
1143.495, 1.355988
1144.586, 3.758362
1145.677, 8.870392
1146.768, 15.48282
1147.859, 6.596863
1148.950, 15.71042
1150.040, 16.82321
1151.130, 1.919464
1152.221, 3.0304000E-02
1153.311, 4.297119
1154.401, 4.777069
1155.490, 7.699463
1156.580, 0.5995790
1157.669, 6.483856
1158.759, 20.58044
1159.848, 10.60434
1160.937, 1.326508
1162.025, 12.74316
1163.114, 14.83719
1164.202, 2.930206
1165.291, 7.022064
1166.379, 0.8934940
1167.467, 7.200104
1168.555, 6.292786
1169.642, 7.361145
1170.730, 8.320801
1171.817, 18.41342
1172.905, 1.494904
1173.992, 6.596375
1175.078, 1.308441
1176.165, 10.78000
1177.252, 2.872681
1178.338, 3.964569
1179.425, 7.049774
1180.511, 24.08511
1181.597, 1.174927
1182.682, 19.26385
1183.768, 5.296814
1184.854, 2.612762
1185.939, 5.475769
1187.024, 11.43106
1188.109, 4.651245
1189.194, 11.72372
1190.279, 9.804718
1191.363, 0.8864440
1192.448, 7.967834
1193.532, 5.048737
1194.616, 4.389832
1195.700, 14.20840
1196.784, 5.287415
1197.867, 13.33090
1198.951, 16.40881
1200.034, 11.46597
1201.117, 0.4515690
1202.200, 17.62875
1203.283, 14.69037
1204.366, 5.783661
1205.448, 16.87701
1206.531, 19.95654
1207.613, 23.03824
1208.695, 0.1199040
1209.777, 18.18759
1210.859, 14.25986
1211.940, 0.3450620
1213.022, 8.424744
1214.103, 14.30310
1215.184, 12.38232
1216.265, 14.67865
1217.346, 2.514160
1218.427, 14.58887
1219.507, 6.586578
1220.587, 13.67249
1221.668, 22.74011
1222.748, 7.827423
1223.828, 10.00607
1224.907, 5.086578
1225.987, 11.16727
1227.066, 17.24747
1228.146, 22.33737
1229.225, 15.41733
1230.304, 20.49680
1231.382, 18.57581
1232.461, 8.587891
1233.540, 17.66129
1234.618, 9.739227
1235.696, 11.63510
1236.774, 11.23245
1237.852, 11.83984
1238.930, 11.91782
1240.007, 7.982178
1241.085, 16.05106
1242.162, 20.09943
1243.239, 24.79575
1244.316, 22.84918
1245.393, 19.92523
1246.469, 31.02469
1247.546, 5.100616
1248.622, 20.17621
1249.698, 30.25787
1250.774, 15.33331
1251.850, 23.40842
1252.926, 13.48325
1254.001, 21.55948
1255.077, 10.63364
1256.152, 20.70056
1257.227, 26.77124
1258.302, 20.85873
1259.377, 23.94604
1260.451, 21.89423
1261.526, 32.09232
1262.600, 15.16489
1263.674, 28.23727
1264.748, 21.30942
1265.822, 18.38150
1266.896, 9.453247
1267.969, 13.52469
1269.043, 7.344421
1270.116, 7.990967
1271.189, 24.25378
1272.262, 16.13501
1273.335, 9.239899
1274.407, 27.28818
1275.480, 18.36121
1276.552, 17.02100
1277.624, 9.199341
1278.696, 8.615143
1279.768, 11.00748
1280.840, 13.39142
1281.911, 14.42477
1282.982, 16.24026
1284.054, 19.10199
1285.125, 18.73352
1286.196, 18.04169
1287.266, 23.96387
1288.337, 13.03326
1289.407, 6.102692
1290.478, 1.092804
1291.548, 22.16193
1292.618, 17.23077
1293.688, 27.27954
1294.757, 30.34540
1295.827, 21.35062
1296.896, 23.43237
1297.965, 19.50192
1299.034, 20.56912
1300.103, 21.63712
1301.172, 8.704834
1302.241, 20.68665
1303.309, 22.75107
1304.377, 15.73950
1305.445, 6.806091
1306.513, 22.85449
1307.581, 24.93170
1308.649, 16.02597
1309.716, 22.09207
1310.784, 8.133606
1311.851, 8.215210
1312.918, 19.27426
1313.985, 31.20456
1315.052, 4.280182
1316.118, 17.68079
1317.185, 17.74466
1318.251, 29.81332
1319.317, 14.87720
1320.383, 12.94284
1321.449, 13.00504
1322.514, 21.06064
1323.580, 6.113586
1324.645, 18.21133
1325.711, 21.27036
1326.776, 16.33267
1327.840, 21.82138
1328.905, 4.484283
1329.970, 14.50107
1331.034, 19.64725
1332.099, 1.709564
1333.163, 1.897003
1334.227, 12.96088
1335.290, 11.02301
1336.354, 11.08511
1337.418, 12.11761
1338.481, 13.17914
1339.544, 1.240662
1340.607, 8.288116
1341.670, 21.36804
1342.733, 8.444702
1343.795, 32.53809
1344.858, 18.70062
1345.920, 15.95724
1346.982, 10.01639
1348.044, 4.497589
1349.106, 8.135071
1350.168, 4.234192
1351.229, 1.706573
1352.291, 11.35214
1353.352, 22.40784
1354.413, 3.466309
1355.474, 3.556427
1356.534, 8.614746
1357.595, 7.673065
1358.656, 15.73135
1359.716, 19.78943
1360.776, 14.84784
1361.836, 24.90543
1362.896, 12.95923
1363.955, 12.01242
1365.015, 14.09021
1366.074, 11.16000
1367.134, 13.23816
1368.193, 28.29022
1369.252, 17.34219
1370.310, 10.59280
1371.369, 21.46118
1372.427, 12.55292
1373.486, 0.6018980
1374.544, 9.650696
1375.602, 6.695526
1376.660, 4.761993
1377.717, 14.82428
1378.775, 15.88239
1379.832, 15.88541
1380.889, 6.009033
1381.946, 13.05875
1383.003, 10.17004
1384.060, 5.217163
1385.117, 3.264038
1386.173, 3.310760
1387.230, 8.357025
1388.286, 18.40292
1389.342, 21.44876
1390.398, 17.52737
1391.453, 20.41922
1392.509, 18.67883
1393.564, 13.73160
1394.619, 10.79684
1395.675, 1.862152
1396.729, 19.93634
1397.784, 19.97601
1398.839, 14.01642
1399.893, 1.942993
1400.948, 12.09723
1402.002, 6.136963
1403.056, 9.823547
1404.110, 1.786865
1405.163, 9.249054
1406.217, 12.31229
1407.270, 5.347351
1408.324, 23.42343
1409.377, 6.458008
1410.430, 3.540070
1411.483, 15.57556
1412.535, 2.338104
1413.588, 4.697815
1414.640, 18.87778
1415.692, 12.91663
1416.744, 17.95004
1417.796, 13.98026
1418.848, 25.01340
1419.900, 19.06894
1420.951, 21.08395
1422.002, 14.11316
1423.053, 4.141663
1424.104, 6.169800
1425.155, 9.254395
1426.206, 15.28464
1427.256, 11.31113
1428.307, 13.33618
1429.357, 15.46243
1430.407, 12.03732
1431.457, 16.39819
1432.507, 8.426056
1433.556, 2.479828
1434.606, 1.534149
1435.655, 9.589386
1436.704, 11.64630
1437.753, 4.699066
1438.802, 19.74017
1439.851, 23.74356
1440.899, 4.775604
1441.948, 14.76062
1442.996, 6.778473
1444.044, 7.744690
1445.092, 20.75665
1446.140, 2.840485
1447.187, 15.50555
1448.235, 18.58450
1449.282, 23.66357
1450.329, 0.7427370
1451.376, 8.819855
1452.423, 14.89923
1453.470, 2.949036
1454.517, 10.02698
1455.563, 9.105316
1456.609, 0.8341370
1457.655, 14.24463
1458.701, 1.676758
1459.747, 9.399963
1460.793, 13.47061
1461.838, 18.53973
1462.884, 22.09204
1463.929, 11.55890
1464.974, 24.62277
1466.019, 7.697754
1467.064, 5.772949
1468.108, 6.848389
1469.153, 2.924011
1470.197, 1.000458
1471.241, 2.924652
1472.285, 23.36722
1473.329, 15.40509
1474.373, 15.47275
1475.416, 0.5321040
1476.460, 18.59967
1477.503, 11.66510
1478.546, 10.72507
1479.589, 13.75562
1480.632, 2.822998
1481.674, 19.89053
1482.717, 13.95776
1483.759, 17.02496
1484.801, 17.06223
1485.843, 23.12918
1486.885, 11.01810
1487.927, 17.20453
1488.968, 18.08731
1490.010, 4.128693
1491.051, 6.176361
1492.092, 4.204193
1493.133, 18.01590
1494.174, 16.06241
1495.215, 7.109100
1496.255, 9.155884
1497.296, 0.2029110
1498.336, 16.21219
1499.376, 16.25842
1500.416, 19.30502
1501.456, 6.352081
1502.495, 7.399658
1503.535, 8.350952
1504.574, 3.396240
1505.613, 20.41138
1506.652, 10.42535
1507.691, 0.5454100
1508.730, 11.49219
1509.768, 11.48874
1510.807, 12.53885
1511.845, 19.50967
1512.883, 11.49875
1513.921, 13.53891
1514.959, 3.397644
1515.996, 5.147034
1517.034, 2.177704
1518.071, 9.208923
1519.109, 6.214386
1520.146, 6.162079
1521.183, 3.861633
1522.219, 28.35956
1523.256, 20.37680
1524.292, 25.28708
1525.329, 13.29684
1526.365, 24.21741
1527.401, 13.21973
1528.437, 14.21875
1529.472, 12.21661
1530.508, 5.238037
1531.543, 23.13205
1532.579, 2.072845
1533.614, 12.04980
1534.649, 0.9071350
1535.683, 14.91754
1536.718, 0.8612370
1537.753, 16.77713
1538.787, 2.341278
1539.821, 11.39249
1540.855, 27.37473
1541.889, 9.353760
1542.923, 13.33063
1543.956, 11.04572
1544.990, 13.79495
1546.023, 24.53778
1547.056, 22.34930
1548.089, 14.32675
1549.122, 1.304382
1550.155, 13.28049
1551.187, 31.08438
1552.220, 23.78186
1553.252, 20.40826
1554.284, 19.97952
1555.316, 16.76920
1556.348, 11.56513
1557.379, 5.248291
1558.411, 5.010803
1559.442, 4.769531
1560.474, 3.891754
1561.505, 4.518768
1562.535, 7.159180
1563.566, 19.86176
1564.597, 8.663025
1565.627, 18.39279
1566.658, 8.078583
1567.688, 18.05524
1568.718, 5.717133
1569.748, 7.2296001E-02
1570.777, 0.0000000E+00
##END=



