##NAMES=Anatase
##RRUFFID=R060277
##IDEAL CHEMISTRY=Ti^4+^O_2_
##LOCALITY=Taftan, near Dalbandi, Baluchistan Province, Pakistan
##OWNER=RRUFF
##SOURCE=Herb Obodda
##DESCRIPTION=Dark brown tetragonal tabular crystals
##STATUS=The identification of this mineral is confirmed by single-crystal X-ray diffraction and chemical analysis.
##URL=rruff.info/R060277
##MEASURED CHEMISTRY=Ti_1.00_O_2_
##PIN_ID=L01480
##ORIENTATION=Laser parallel to c* (0 0 1). Fiducial mark perpendicular to laser is parallel to [1 1 0]
50.72400, 0.0000000E+00
51.97000, 5.277069
53.21600, 18.39288
54.46200, 14.44730
55.70800, 3.432251
56.95400, 36.76746
58.19900, 27.44507
59.44500, 6.533875
60.69000, 16.49304
61.93500, 3.980377
63.17900, 8.969849
64.42400, 8.530212
65.66800, 7.551819
66.91300, 0.9342040
68.15700, 9.992249
69.40100, 8.237000
70.64400, 44.71136
71.88800, 24.34619
73.13100, 72.11829
74.37400, 96.06165
75.61700, 97.28790
76.86000, 130.9132
78.10300, 164.9916
79.34500, 176.4992
80.58800, 197.3288
81.83000, 229.8900
83.07200, 270.4844
84.31400, 301.6377
85.55500, 357.7572
86.79700, 416.7971
88.03800, 476.7230
89.27900, 505.5193
90.52000, 557.1818
91.76100, 602.7720
93.00100, 649.1913
94.24200, 695.7162
95.48200, 725.3240
96.72200, 773.2798
97.96200, 846.7200
99.20200, 898.0035
100.4410, 916.1370
101.6810, 981.9846
102.9200, 1017.592
104.1590, 1086.623
105.3980, 1114.937
106.6360, 1201.367
107.8750, 1280.594
109.1130, 1357.298
110.3510, 1406.482
111.5890, 1495.176
112.8270, 1555.406
114.0650, 1648.200
115.3020, 1789.579
116.5390, 1915.564
117.7770, 2027.175
119.0130, 2185.430
120.2500, 2462.346
121.4870, 2607.939
122.7230, 2907.227
123.9590, 3289.223
125.1950, 3642.977
126.4310, 4231.610
127.6670, 4971.123
128.9030, 5988.517
130.1380, 7215.792
131.3730, 8656.946
132.6080, 10497.99
133.8430, 12509.23
135.0780, 15210.62
136.3120, 18659.14
137.5470, 23354.30
138.7810, 30060.97
140.0150, 37404.97
141.2480, 46300.18
142.4820, 53515.34
143.7160, 55312.70
144.9490, 50727.52
146.1820, 41193.30
147.4150, 31333.21
148.6480, 22839.10
149.8800, 16776.21
151.1130, 12625.72
152.3450, 9745.815
153.5770, 7751.509
154.8090, 6258.310
156.0410, 5117.784
157.2720, 4404.304
158.5040, 3774.266
159.7350, 3323.325
160.9660, 2921.208
162.1970, 2644.409
163.4270, 2392.378
164.6580, 2143.680
165.8880, 1940.103
167.1180, 1761.357
168.3480, 1695.925
169.5780, 1489.321
170.8080, 1430.708
172.0370, 1359.081
173.2670, 1211.438
174.4960, 1133.777
175.7250, 1076.093
176.9540, 995.3834
178.1820, 961.6464
179.4110, 920.8802
180.6390, 891.0839
181.8670, 851.2578
183.0950, 795.4034
184.3230, 743.5227
185.5500, 693.6183
186.7780, 708.6916
188.0050, 652.7450
189.2320, 629.7808
190.4590, 665.8005
191.6850, 673.8058
192.9120, 725.7987
194.1380, 857.7812
195.3650, 1069.755
196.5910, 1266.723
197.8160, 1227.686
199.0420, 1033.786
200.2680, 766.8192
201.4930, 581.7794
202.7180, 440.6783
203.9430, 393.4602
205.1680, 323.1914
206.3930, 273.9268
207.6170, 251.5322
208.8410, 234.2573
210.0660, 213.5629
211.2890, 226.6365
212.5130, 165.3480
213.7370, 175.0486
214.9600, 130.6923
216.1840, 110.3640
217.4070, 126.0166
218.6300, 76.65063
219.8520, 81.26068
221.0750, 99.84705
222.2970, 86.41138
223.5200, 89.95129
224.7420, 65.46552
225.9640, 67.94934
227.1850, 65.40161
228.4070, 69.82080
229.6280, 33.20715
230.8490, 12.55432
232.0700, 26.14148
233.2910, 19.11035
234.5120, 41.32190
235.7320, 9.499023
236.9530, 52.36426
238.1730, 46.28235
239.3930, 21.25256
240.6130, 77.26758
241.8320, 62.34167
243.0520, 72.47095
244.2710, 73.65894
245.4900, 62.90759
246.7090, 100.2172
247.9280, 84.60059
249.1470, 59.05627
250.3650, 64.58032
251.5840, 88.17517
252.8020, 112.8477
254.0200, 104.6040
255.2370, 118.1284
256.4550, 88.35754
257.6720, 102.3444
258.8900, 103.4015
260.1070, 60.52612
261.3240, 49.70532
262.5400, 90.93372
263.7570, 95.21863
264.9730, 88.55884
266.1900, 81.95020
267.4060, 53.38879
268.6220, 88.86548
269.8370, 69.38672
271.0530, 47.94543
272.2680, 75.53455
273.4830, 52.15942
274.6980, 25.81311
275.9130, 3.487671
277.1280, 1.177002
278.3420, 40.12061
279.5570, 53.90063
280.7710, 60.68616
281.9850, 92.94238
283.1990, 134.1791
284.4120, 140.3979
285.6260, 182.5927
286.8390, 229.7661
288.0520, 293.8958
289.2650, 384.9647
290.4780, 417.9983
291.6910, 444.9435
292.9030, 538.8053
294.1160, 551.5747
295.3280, 556.2566
296.5400, 677.8381
297.7510, 692.3484
298.9630, 751.7634
300.1740, 814.0818
301.3860, 852.3204
302.5970, 874.4948
303.8080, 907.6439
305.0180, 947.6775
306.2290, 948.6975
307.4390, 1001.675
308.6500, 1033.624
309.8600, 1049.565
311.0700, 1123.523
312.2790, 1094.511
313.4890, 1118.529
314.6980, 1106.579
315.9080, 1161.661
317.1170, 1158.775
318.3250, 1121.923
319.5340, 1123.105
320.7430, 1083.321
321.9510, 1084.573
323.1590, 1071.860
324.3670, 1050.185
325.5750, 984.5471
326.7830, 938.9475
327.9900, 996.3866
329.1980, 951.8657
330.4050, 962.3850
331.6120, 918.9448
332.8190, 960.5466
334.0250, 906.1904
335.2320, 961.8770
336.4380, 852.6064
337.6440, 929.3801
338.8500, 926.1978
340.0560, 978.0601
341.2620, 986.9680
342.4670, 998.9214
343.6730, 1012.921
344.8780, 1058.948
346.0830, 1087.004
347.2870, 1127.493
348.4920, 1141.204
349.6970, 1241.350
350.9010, 1298.527
352.1050, 1412.736
353.3090, 1411.977
354.5130, 1491.251
355.7160, 1592.562
356.9200, 1613.907
358.1230, 1832.287
359.3260, 1912.702
360.5290, 2071.945
361.7320, 2219.908
362.9340, 2417.222
364.1370, 2513.517
365.3390, 2822.037
366.5410, 3130.103
367.7430, 3375.938
368.9450, 3771.951
370.1460, 4226.365
371.3480, 4651.962
372.5490, 5278.575
373.7500, 5844.421
374.9510, 6589.019
376.1520, 7325.721
377.3520, 8354.268
378.5520, 9327.533
379.7530, 10574.93
380.9530, 11940.92
382.1530, 13517.38
383.3520, 15405.35
384.5520, 17417.94
385.7510, 19621.26
386.9500, 22008.67
388.1490, 24914.59
389.3480, 27353.59
390.5470, 30702.39
391.7450, 33323.05
392.9440, 36616.85
394.1420, 39007.29
395.3400, 40906.58
396.5380, 43025.62
397.7350, 43386.33
398.9330, 42373.72
400.1300, 40747.46
401.3270, 38187.12
402.5240, 34603.13
403.7210, 31097.25
404.9180, 27140.04
406.1140, 23636.65
407.3110, 20471.02
408.5070, 17705.31
409.7030, 15346.17
410.8990, 13154.60
412.0940, 11275.90
413.2900, 10000.30
414.4850, 8637.023
415.6800, 7516.201
416.8750, 6615.951
418.0700, 5764.267
419.2650, 5277.198
420.4590, 4614.461
421.6530, 4129.984
422.8470, 3753.201
424.0410, 3410.490
425.2350, 2931.852
426.4290, 2735.287
427.6220, 2410.797
428.8160, 2220.380
430.0090, 1931.038
431.2020, 1717.772
432.3940, 1594.582
433.5870, 1276.467
434.7790, 1244.430
435.9720, 970.4702
437.1640, 1010.594
438.3560, 804.8098
439.5470, 719.1211
440.7390, 742.5337
441.9300, 654.0388
443.1220, 657.6523
444.3130, 490.3770
445.5040, 504.2192
446.6940, 491.1665
447.8850, 352.2295
449.0750, 357.4106
450.2660, 332.7173
451.4560, 182.1382
452.6460, 238.6787
453.8350, 228.3418
455.0250, 71.12476
456.2140, 97.03638
457.4040, 81.08154
458.5930, 63.25317
459.7820, 12.55811
460.9700, 17.98682
462.1590, 27.54102
463.3470, 32.22827
464.5350, 100.0486
465.7240, 13.00049
466.9110, 11.08423
468.0990, 66.29834
469.2870, 113.6379
470.4740, 212.1030
471.6610, 260.6885
472.8480, 302.3850
474.0350, 353.1943
475.2220, 451.1086
476.4090, 587.1323
477.5950, 517.2617
478.7810, 708.4932
479.9670, 664.8242
481.1530, 891.2500
482.3390, 924.7725
483.5240, 1157.386
484.7100, 1298.089
485.8950, 1470.883
487.0800, 1614.765
488.2650, 1772.736
489.4490, 1932.797
490.6340, 2292.948
491.8180, 2578.187
493.0030, 2886.517
494.1870, 3149.936
495.3700, 3712.445
496.5540, 4104.042
497.7380, 4586.730
498.9210, 5424.506
500.1040, 6033.374
501.2870, 6937.330
502.4700, 8130.375
503.6530, 9510.513
504.8350, 10817.74
506.0180, 12747.06
507.2000, 14817.48
508.3820, 17141.00
509.5640, 19895.59
510.7450, 23012.29
511.9270, 25705.08
513.1080, 28058.97
514.2890, 29773.95
515.4700, 30198.03
516.6510, 30691.21
517.8320, 29917.47
519.0130, 29166.85
520.1930, 28138.35
521.3730, 26360.94
522.5530, 24312.63
523.7330, 22674.42
524.9130, 20869.34
526.0920, 18873.37
527.2710, 17254.50
528.4510, 15608.77
529.6300, 14378.15
530.8080, 13122.66
531.9870, 11934.28
533.1660, 10690.03
534.3440, 9766.899
535.5220, 8962.895
536.7000, 8256.001
537.8780, 7622.231
539.0560, 6984.578
540.2330, 6483.052
541.4110, 5875.651
542.5880, 5483.377
543.7650, 4967.223
544.9420, 4623.192
546.1180, 4279.280
547.2950, 3897.493
548.4710, 3500.786
549.6470, 3282.208
550.8230, 2966.747
551.9990, 2752.400
553.1750, 2585.165
554.3500, 2467.035
555.5260, 2224.016
556.7010, 2141.104
557.8760, 1842.292
559.0510, 1813.588
560.2250, 1725.982
561.4000, 1556.470
562.5740, 1394.045
563.7480, 1314.706
564.9220, 1269.448
566.0960, 1133.271
567.2700, 1085.174
568.4430, 995.1580
569.6170, 1019.221
570.7900, 937.3635
571.9630, 870.5850
573.1360, 867.8855
574.3080, 783.2642
575.4810, 736.7212
576.6530, 639.2549
577.8250, 697.4932
578.9980, 644.7930
580.1690, 607.5359
581.3410, 503.7197
582.5130, 564.6616
583.6840, 415.3501
584.8550, 468.5278
586.0260, 458.1333
587.1970, 408.7749
588.3680, 334.6660
589.5380, 339.2856
590.7080, 307.6304
591.8790, 368.0745
593.0490, 303.8367
594.2190, 245.3914
595.3880, 284.1584
596.5580, 206.1265
597.7270, 280.1785
598.8960, 310.5762
600.0650, 351.7397
601.2340, 383.6924
602.4030, 417.0408
603.5710, 367.0723
604.7400, 420.3569
605.9080, 443.2063
607.0760, 530.1946
608.2440, 580.9199
609.4120, 661.4780
610.5790, 651.9863
611.7460, 758.3804
612.9140, 751.7080
614.0810, 891.3892
615.2480, 943.3179
616.4140, 1032.376
617.5810, 1067.559
618.7470, 1251.957
619.9130, 1415.933
621.0790, 1596.740
622.2450, 1779.204
623.4110, 2001.370
624.5770, 2204.419
625.7420, 2451.488
626.9070, 2726.576
628.0720, 3053.707
629.2370, 3445.878
630.4020, 3841.090
631.5660, 4250.342
632.7310, 4622.633
633.8950, 5093.964
635.0590, 5486.333
636.2230, 5917.737
637.3870, 6150.183
638.5500, 6019.663
639.7140, 5845.181
640.8770, 5729.733
642.0400, 5396.321
643.2030, 5066.944
644.3660, 4536.602
645.5280, 4157.292
646.6910, 3700.015
647.8530, 3339.770
649.0150, 2992.556
650.1770, 2719.375
651.3390, 2395.224
652.5000, 2146.104
653.6620, 1963.013
654.8230, 1695.953
655.9840, 1530.920
657.1450, 1353.927
658.3060, 1220.939
659.4660, 1065.989
660.6270, 1020.066
661.7870, 936.1682
662.9470, 795.2981
664.1070, 681.4517
665.2670, 663.6299
666.4260, 666.8311
667.5860, 585.0540
668.7450, 565.2998
669.9040, 494.5659
671.0630, 450.8513
672.2220, 402.5989
673.3800, 362.2725
674.5390, 323.8320
675.6970, 307.1958
676.8550, 326.5759
678.0130, 324.9727
679.1710, 324.3843
680.3290, 266.8103
681.4860, 270.2498
682.6430, 225.7043
683.8000, 252.1716
684.9570, 303.6499
686.1140, 299.1396
687.2710, 269.6406
688.4270, 249.1505
689.5840, 296.6731
690.7400, 302.2034
691.8960, 315.7407
693.0520, 270.2847
694.2070, 320.8351
695.3630, 306.3914
696.5180, 346.9520
697.6730, 304.5200
698.8280, 377.0909
699.9830, 361.6674
701.1380, 375.2463
702.2920, 290.8273
703.4470, 291.4086
704.6010, 254.9900
705.7550, 257.5745
706.9090, 163.1578
708.0620, 153.7396
709.2160, 149.3201
710.3690, 152.8976
711.5220, 110.4720
712.6750, 102.7852
713.8280, 55.61121
714.9810, 52.17407
716.1340, 1.731812
717.2860, 33.72656
718.4380, 38.21692
719.5900, 59.74194
720.7420, 16.31616
721.8940, 77.92004
723.0450, 82.58582
724.1970, 103.3151
725.3480, 49.12146
726.4990, 83.97949
727.6500, 92.90833
728.8010, 118.9141
729.9510, 66.01147
731.1020, 85.17480
732.2520, 95.41565
733.4020, 78.74023
734.5520, 113.1405
735.7020, 127.6375
736.8510, 97.23926
738.0010, 122.9309
739.1500, 83.72729
740.2990, 87.61108
741.4480, 111.5809
742.5970, 112.6553
743.7450, 102.8367
744.8940, 102.2249
746.0420, 95.27551
747.1900, 73.98730
748.3380, 70.56396
749.4860, 50.23242
750.6330, 12.98364
751.7810, 16.71338
752.9280, 16.31738
754.0750, 1.617310
755.2220, 16.38708
756.3690, 35.33704
757.5160, 48.24011
758.6620, 87.10010
759.8090, 68.92712
760.9550, 126.7158
762.1010, 143.4783
763.2470, 150.2166
764.3920, 223.9301
765.5380, 277.6318
766.6830, 300.2969
767.8280, 313.9374
768.9730, 295.6462
770.1180, 359.2383
771.2630, 413.8047
772.4070, 402.4076
773.5520, 487.9222
774.6960, 563.4106
775.8400, 593.9957
776.9840, 626.4910
778.1280, 720.9420
779.2710, 732.3220
780.4140, 835.7004
781.5580, 849.0841
782.7010, 881.3800
783.8440, 1009.647
784.9860, 1034.886
786.1290, 1084.095
787.2710, 1052.413
788.4140, 1188.596
789.5560, 1207.921
790.6980, 1237.143
791.8390, 1276.374
792.9810, 1278.403
794.1220, 1327.589
795.2640, 1317.557
796.4050, 1305.647
797.5460, 1316.880
798.6860, 1256.951
799.8270, 1332.380
800.9680, 1253.188
802.1080, 1270.421
803.2480, 1291.230
804.3880, 1261.027
805.5280, 1243.054
806.6670, 1197.749
807.8070, 1163.367
808.9460, 1184.632
810.0850, 1174.390
811.2240, 1143.177
812.3630, 1099.048
813.5020, 1079.752
814.6400, 1005.388
815.7790, 968.8018
816.9170, 1034.352
818.0550, 951.7740
819.1930, 935.6702
820.3300, 917.1021
821.4680, 876.4333
822.6050, 882.9441
823.7430, 862.3817
824.8800, 828.6169
826.0170, 834.6711
827.1530, 791.8090
828.2900, 786.8896
829.4260, 816.9880
830.5620, 768.2039
831.6990, 768.3638
832.8340, 741.3751
833.9700, 741.0291
835.1060, 726.9250
836.2410, 770.4144
837.3760, 718.4177
838.5120, 780.3522
839.6470, 754.0504
840.7810, 728.7406
841.9160, 711.1484
843.0500, 726.7812
844.1850, 724.4011
845.3190, 725.1003
846.4530, 673.5537
847.5870, 682.0410
848.7200, 720.6343
849.8540, 657.2468
850.9870, 691.5933
852.1200, 665.9485
853.2530, 634.4937
854.3860, 635.3959
855.5190, 650.0974
856.6510, 636.9450
857.7840, 653.0853
858.9160, 580.4217
860.0480, 590.7639
861.1800, 601.3506
862.3110, 549.0789
863.4430, 596.4955
864.5740, 525.1494
865.7060, 515.0093
866.8370, 550.1602
867.9680, 516.7922
869.0980, 496.7664
870.2290, 522.8018
871.3590, 484.3029
872.4900, 474.8771
873.6200, 456.2798
874.7500, 400.0105
875.8790, 399.5703
877.0090, 347.8580
878.1380, 359.5737
879.2680, 292.9114
880.3970, 333.0133
881.5260, 281.7363
882.6550, 313.7041
883.7830, 277.9320
884.9120, 226.1315
886.0400, 205.4263
887.1680, 210.8118
888.2960, 202.9205
889.4240, 214.9207
890.5520, 184.9146
891.6790, 183.5431
892.8070, 174.0835
893.9340, 174.0166
895.0610, 168.0840
896.1880, 158.1135
897.3140, 127.3329
898.4410, 137.3385
899.5670, 118.2236
900.6940, 103.1835
901.8200, 146.0452
902.9450, 107.9434
904.0710, 86.94678
905.1970, 105.9865
906.3220, 134.8649
907.4470, 89.61243
908.5730, 134.4207
909.6980, 155.1565
910.8220, 81.90808
911.9470, 88.56067
913.0710, 92.27893
914.1960, 123.9585
915.3200, 95.54102
916.4440, 87.18555
917.5680, 106.8246
918.6910, 101.3545
919.8150, 103.9243
920.9380, 101.0286
922.0610, 77.93213
923.1840, 90.39673
924.3070, 71.80530
925.4300, 77.21838
926.5520, 73.62646
927.6750, 102.0505
928.7970, 71.47949
929.9190, 94.81177
931.0410, 73.20764
932.1630, 59.45447
933.2840, 68.67700
934.4060, 44.05347
935.5270, 108.2260
936.6480, 49.52930
937.7690, 79.65588
938.8900, 76.77264
940.0100, 53.98706
941.1310, 80.13013
942.2510, 85.24170
943.3710, 34.32642
944.4910, 61.45032
945.6110, 36.58313
946.7310, 75.62744
947.8500, 55.54956
948.9690, 57.47662
950.0890, 76.47668
951.2080, 57.33459
952.3260, 65.75409
953.4450, 30.20728
954.5640, 56.02740
955.6820, 61.85468
956.8000, 42.81702
957.9180, 45.00134
959.0360, 58.78278
960.1540, 12.46826
961.2710, 60.16736
962.3890, 61.80554
963.5060, 54.47626
964.6230, 41.00092
965.7400, 41.60059
966.8570, 50.40826
967.9730, 11.94727
969.0900, 53.63330
970.2060, 13.26855
971.3220, 34.76251
972.4380, 36.25708
973.5540, 55.70551
974.6700, 51.36267
975.7850, 5.842407
976.9010, 47.30627
978.0160, 44.93701
979.1310, 32.40649
980.2460, 53.78186
981.3600, 44.22375
982.4750, 28.79901
983.5890, 23.16760
984.7030, 44.50098
985.8170, 37.85114
986.9310, 59.17615
988.0450, 15.37964
989.1590, 4.655396
990.2720, 34.87616
991.3850, 32.09766
992.4980, 42.37683
993.6110, 3.581360
994.7240, 28.85663
995.8370, 14.17548
996.9490, 21.42395
998.0620, 28.67548
999.1740, 43.11072
1000.286, 4.406433
1001.398, 24.55042
1002.509, 13.78546
1003.621, 0.7850950
1004.732, 25.66760
1005.843, 11.17291
1006.954, 0.7095950
1008.065, 1.750366
1009.176, 33.82611
1010.286, 13.63739
1011.397, 9.944031
1012.507, 27.53522
1013.617, 0.8982540
1014.727, 14.12054
1015.837, 29.52319
1016.946, 20.20691
1018.056, 38.36023
1019.165, 52.74677
1020.274, 55.59656
1021.383, 39.97882
1022.492, 20.38361
1023.601, 8.202271
1024.709, 60.31012
1025.817, 27.07562
1026.926, 38.91400
1028.034, 60.85474
1029.141, 40.67523
1030.249, 47.53912
1031.357, 24.36511
1032.464, 55.19794
1033.571, 34.22339
1034.678, 52.08264
1035.785, 38.11707
1036.892, 16.21246
1037.999, 9.301819
1039.105, 27.07440
1040.211, 63.91730
1041.317, 32.49988
1042.423, 44.25677
1043.529, 34.90405
1044.635, 55.43121
1045.740, 31.02905
1046.845, 34.68121
1047.951, 72.26337
1049.056, 31.89038
1050.160, 27.38770
1051.265, 47.95679
1052.370, 34.26044
1053.474, 32.90497
1054.578, 66.73999
1055.682, 45.23120
1056.786, 71.69519
1057.890, 45.97925
1058.993, 41.37341
1060.097, 31.67267
1061.200, 25.15393
1062.303, 42.52795
1063.406, 21.98547
1064.509, 68.34058
1065.612, 70.53070
1066.714, 13.77356
1067.816, 55.63965
1068.919, 16.14630
1070.021, 56.13538
1071.122, 47.45300
1072.224, 18.84503
1073.326, 29.86285
1074.427, 32.17206
1075.528, 33.51575
1076.629, 17.25641
1077.730, 12.37671
1078.831, 24.09650
1079.931, 54.39539
1081.032, 41.44397
1082.132, 18.53741
1083.232, 60.85504
1084.332, 19.93176
1085.432, 22.09344
1086.531, 39.73895
1087.631, 32.80627
1088.730, 3.931580
1089.829, 6.165405
1090.928, 27.78882
1092.027, 60.87964
1093.126, 35.10901
1094.224, 47.21204
1095.323, 32.32947
1096.421, 14.58972
1097.519, 39.30286
1098.617, 0.7916870
1099.715, 49.21832
1100.812, 5.542969
1101.910, 9.581970
1103.007, 36.98376
1104.104, 31.82892
1105.201, 37.95312
1106.298, 1.236938
1107.394, 21.80469
1108.491, 19.07135
1109.587, 20.93042
1110.683, 9.031982
1111.779, 26.87134
1112.875, 6.913147
1113.971, 3.122498
1115.066, 15.69141
1116.162, 19.44250
1117.257, 11.41626
1118.352, 13.33771
1119.447, 43.39893
1120.542, 21.07458
1121.636, 32.54150
1122.731, 33.45398
1123.825, 18.34717
1124.919, 39.33008
1126.013, 23.84882
1127.107, 17.72650
1128.200, 35.45673
1129.294, 47.27844
1130.387, 1.164063
1131.480, 42.14648
1132.573, 14.23389
1133.666, 15.38922
1134.759, 17.34351
1135.851, 14.82886
1136.944, 8.672729
1138.036, 8.384460
1139.128, 12.54315
1140.220, 10.33771
1141.312, 25.33313
1142.403, 17.12854
1143.495, 21.83423
1144.586, 35.68646
1145.677, 0.7695920
1146.768, 17.96570
1147.859, 24.87152
1148.950, 8.364868
1150.040, 28.50690
1151.130, 1.380554
1152.221, 11.73944
1153.311, 11.92175
1154.401, 14.76959
1155.490, 5.646545
1156.580, 30.19202
1157.669, 12.91821
1158.759, 1.313049
1159.848, 15.50378
1160.937, 4.266174
1162.025, 11.05023
1163.114, 6.726318
1164.202, 4.483276
1165.291, 0.7781370
1166.379, 5.164185
1167.467, 6.714050
1168.555, 8.735291
1169.642, 4.763123
1170.730, 1.606750
1171.817, 30.12360
1172.905, 0.7632450
1173.992, 24.44733
1175.078, 21.08643
1176.165, 16.79419
1177.252, 5.406494
1178.338, 30.02826
1179.425, 10.71765
1180.511, 31.31616
1181.597, 25.89069
1182.682, 13.45428
1183.768, 3.128845
1184.854, 22.29980
1185.939, 2.336975
1187.024, 41.93677
1188.109, 36.56458
1189.194, 20.15912
1190.279, 37.73010
1191.363, 26.25964
1192.448, 4.757446
1193.532, 27.32556
1194.616, 12.80292
1195.700, 8.401855
1196.784, 24.99719
1197.867, 19.41089
1198.951, 4.999268
1200.034, 17.42987
1201.117, 31.01837
1202.200, 5.580444
1203.283, 57.01776
1204.366, 32.49902
1205.448, 44.98901
1206.531, 9.480225
1207.613, 45.90515
1208.695, 39.29492
1209.777, 18.74530
1210.859, 37.29236
1211.940, 24.80847
1213.022, 14.22595
1214.103, 55.76068
1215.184, 45.17700
1216.265, 35.59882
1217.346, 46.09479
1218.427, 55.55878
1219.507, 36.87463
1220.587, 22.93298
1221.668, 41.36945
1222.748, 59.87805
1223.828, 69.34534
1224.907, 32.85010
1225.987, 22.29926
1227.066, 46.87128
1228.146, 56.34460
1229.225, 43.58771
1230.304, 58.07684
1231.382, 56.39325
1232.461, 56.73804
1233.540, 79.19922
1234.618, 33.63702
1235.696, 65.09845
1236.774, 23.33136
1237.852, 35.73621
1238.930, 73.11530
1240.007, 65.30621
1241.085, 43.63751
1242.162, 57.04156
1243.239, 93.35901
1244.316, 62.54645
1245.393, 81.89581
1246.469, 42.26910
1247.546, 78.59656
1248.622, 68.92944
1249.698, 72.36969
1250.774, 84.73065
1251.850, 57.14026
1252.926, 86.55103
1254.001, 87.92389
1255.077, 110.3522
1256.152, 79.85840
1257.227, 120.2540
1258.302, 73.67944
1259.377, 103.0987
1260.451, 98.34906
1261.526, 101.7787
1262.600, 92.35187
1263.674, 92.84894
1264.748, 109.2427
1265.822, 78.55298
1266.896, 93.83496
1267.969, 82.11383
1269.043, 130.4504
1270.116, 95.75635
1271.189, 93.15466
1272.262, 54.47186
1273.335, 95.80682
1274.407, 107.1956
1275.480, 88.47809
1276.552, 91.83820
1277.624, 100.2418
1278.696, 90.17145
1279.768, 81.85748
1280.840, 77.09705
1281.911, 78.81152
1282.982, 109.5126
1284.054, 98.80054
1285.125, 107.3971
1286.196, 59.25043
1287.266, 99.55548
1288.337, 86.78351
1289.407, 64.42194
1290.478, 71.76904
1291.548, 43.07928
1292.618, 57.50269
1293.688, 74.53241
1294.757, 53.73505
1295.827, 83.72894
1296.896, 53.85699
1297.965, 65.72424
1299.034, 84.13800
1300.103, 58.31250
1301.172, 69.64679
1302.241, 72.40442
1303.309, 67.73950
1304.377, 53.02057
1305.445, 80.33966
1306.513, 24.60895
1307.581, 39.91254
1308.649, 63.17841
1309.716, 69.48328
1310.784, 41.77094
1311.851, 40.32056
1312.918, 39.58411
1313.985, 47.80530
1315.052, 49.50128
1316.118, 69.83942
1317.185, 57.17932
1318.251, 63.47931
1319.317, 54.46387
1320.383, 29.89130
1321.449, 26.59625
1322.514, 38.93256
1323.580, 47.31177
1324.645, 48.71045
1325.711, 55.00281
1326.776, 49.33325
1327.840, 49.50061
1328.905, 15.74066
1329.970, 56.01172
1331.034, 36.17889
1332.099, 51.44763
1333.163, 20.48834
1334.227, 29.81458
1335.290, 30.43109
1336.354, 65.69586
1337.418, 51.96326
1338.481, 88.20105
1339.544, 52.48596
1340.607, 56.78784
1341.670, 76.98480
1342.733, 73.38062
1343.795, 53.63818
1344.858, 46.89490
1345.920, 44.16614
1346.982, 16.57159
1348.044, 20.88220
1349.106, 59.11401
1350.168, 47.40277
1351.229, 58.65558
1352.291, 39.91595
1353.352, 45.20782
1354.413, 52.43164
1355.474, 33.74548
1356.534, 64.29553
1357.595, 53.59485
1358.656, 44.84326
1359.716, 38.09076
1360.776, 39.33752
1361.836, 27.87653
1362.896, 29.82745
1363.955, 19.07019
1365.015, 15.36877
1366.074, 28.68036
1367.134, 55.92151
1368.193, 37.16650
1369.252, 68.43274
1370.310, 66.70178
1371.369, 13.93964
1372.427, 22.17743
1373.486, 17.43494
1374.544, 35.74500
1375.602, 36.03015
1376.660, 23.25702
1377.717, 34.54010
1378.775, 28.76398
1379.832, 28.01154
1380.889, 13.30835
1381.946, 41.63232
1383.003, 1.047974
1384.060, 6.164612
1385.117, 16.40948
1386.173, 37.63556
1387.230, 24.82587
1388.286, 16.08228
1389.342, 63.30383
1390.398, 33.49341
1391.453, 2.705688
1392.509, 31.88416
1393.564, 33.11591
1394.619, 20.29083
1395.675, 10.46307
1396.729, 15.63379
1397.784, 7.801086
1398.839, 38.96582
1399.893, 33.13507
1400.948, 33.29535
1402.002, 1.452820
1403.056, 26.61993
1404.110, 6.773560
1405.163, 12.92468
1406.217, 34.07538
1407.270, 36.22900
1408.324, 42.38940
1409.377, 21.58020
1410.430, 31.76917
1411.483, 11.91650
1412.535, 6.085938
1413.588, 13.22711
1414.640, 6.363892
1415.692, 5.505249
1416.744, 0.3142700
1417.796, 7.807983
1418.848, 2.007935
1419.900, 29.10590
1420.951, 13.26355
1422.002, 38.37268
1423.053, 2.411316
1424.104, 9.700500
1425.155, 2.194702
1426.206, 10.90656
1427.256, 17.00562
1428.307, 8.898499
1429.357, 10.19043
1430.407, 19.29041
1431.457, 5.372864
1432.507, 5.530701
1433.556, 28.62256
1434.606, 10.69092
1435.655, 21.80414
1436.704, 19.94470
1437.753, 18.00122
1438.802, 2.055786
1439.851, 2.893616
1440.899, 7.849182
1441.948, 11.24628
1442.996, 10.26636
1444.044, 8.277771
1445.092, 10.45123
1446.140, 1.105225
1447.187, 7.755432
1448.235, 5.469666
1449.282, 1.261719
1450.329, 1.994507
1451.376, 13.26288
1452.423, 0.5304570
1453.470, 24.79456
1454.517, 18.05255
1455.563, 33.30841
1456.609, 44.56384
1457.655, 29.81860
1458.701, 10.92816
1459.747, 9.324585
1460.793, 5.436707
1461.838, 28.81299
1462.884, 23.06207
1463.929, 19.31030
1464.974, 18.55615
1466.019, 9.799438
1467.064, 27.04224
1468.108, 0.2846070
1469.153, 26.50317
1470.197, 27.74310
1471.241, 20.98242
1472.285, 0.1909790
1473.329, 11.41644
1474.373, 37.65240
1475.416, 16.88757
1476.460, 29.12201
1477.503, 23.31818
1478.546, 15.28388
1479.589, 47.49036
1480.632, 10.69385
1481.674, 2.080078
1482.717, 14.04388
1483.759, 26.26898
1484.801, 29.40814
1485.843, 35.00549
1486.885, 37.78406
1487.927, 28.89337
1488.968, 26.98669
1490.010, 10.21338
1491.051, 10.44104
1492.092, 29.61237
1493.133, 45.69489
1494.174, 21.25079
1495.215, 20.19257
1496.255, 28.10162
1497.296, 29.26392
1498.336, 22.04694
1499.376, 8.844116
1500.416, 13.04205
1501.456, 33.13434
1502.495, 13.09186
1503.535, 27.20532
1504.574, 21.38916
1505.613, 9.404541
1506.652, 3.143250
1507.691, 3.598816
1508.730, 23.82825
1509.768, 13.59088
1510.807, 17.22424
1511.845, 38.81903
1512.883, 8.712524
1513.921, 16.76556
1514.959, 40.85651
1515.996, 17.08069
1517.034, 43.13062
1518.071, 10.09058
1519.109, 31.89551
1520.146, 27.55115
1521.183, 33.52069
1522.219, 36.05896
1523.256, 29.84930
1524.292, 21.67657
1525.329, 39.44360
1526.365, 39.16083
1527.401, 19.04724
1528.437, 44.87775
1529.472, 42.69037
1530.508, 30.48529
1531.543, 27.82520
1532.579, 20.56409
1533.614, 13.12335
1534.649, 13.58398
1535.683, 26.20142
1536.718, 16.70123
1537.753, 28.16272
1538.787, 39.42053
1539.821, 28.21252
1540.855, 6.643433
1541.889, 24.17529
1542.923, 6.379333
1543.956, 32.88477
1544.990, 11.29901
1546.023, 27.94708
1547.056, 0.5827640
1548.089, 21.17346
1549.122, 52.78162
1550.155, 23.32568
1551.187, 29.93597
1552.220, 31.49298
1553.252, 26.56885
1554.284, 19.97827
1555.316, 38.57080
1556.348, 5.694763
1557.379, 19.75989
1558.411, 27.95813
1559.442, 12.44031
1560.474, 6.863098
1561.505, 25.32111
1562.535, 43.76996
1563.566, 43.98865
1564.597, 54.63251
1565.627, 13.78711
1566.658, 39.56970
1567.688, 46.70264
1568.718, 0.2175290
1569.748, 21.34296
1570.777, 0.0000000E+00
##END=



