##NAMES=Anatase
##RRUFFID=R060277
##IDEAL CHEMISTRY=Ti^4+^O_2_
##LOCALITY=Taftan, near Dalbandi, Baluchistan Province, Pakistan
##OWNER=RRUFF
##SOURCE=Herb Obodda
##DESCRIPTION=Dark brown tetragonal tabular crystals
##STATUS=The identification of this mineral is confirmed by single-crystal X-ray diffraction and chemical analysis.
##URL=rruff.info/R060277
##MEASURED CHEMISTRY=Ti_1.00_O_2_
##PIN_ID=L01956
##ORIENTATION=Laser parallel to -a* (-1 0 0). Fiducial mark perpendicular to laser is parallel to -c [0 0 -1]
50.72400, 0.0000000E+00
51.97000, 11.97382
53.21600, 14.35046
54.46200, 13.61273
55.70800, 16.10309
56.95400, 17.51254
58.19900, 6.029572
59.44500, 1.509949
60.69000, 6.583466
61.93500, 7.187469
63.17900, 4.738922
64.42400, 8.246155
65.66800, 1.372101
66.91300, 0.8498840
68.15700, 13.38626
69.40100, 24.20514
70.64400, 21.27716
71.88800, 35.57553
73.13100, 58.07642
74.37400, 72.75909
75.61700, 103.6086
76.86000, 116.6242
78.10300, 113.8034
79.34500, 158.1412
80.58800, 190.6298
81.83000, 218.2545
83.07200, 211.9992
84.31400, 246.8508
85.55500, 306.7979
86.79700, 317.8314
88.03800, 399.9427
89.27900, 415.1239
90.52000, 447.3668
91.76100, 479.6648
93.00100, 525.0126
94.24200, 558.4063
95.48200, 630.8428
96.72200, 661.3190
97.96200, 754.8327
99.20200, 777.3931
100.4410, 815.0410
101.6810, 897.8263
102.9200, 938.7097
104.1590, 980.6746
105.3980, 1059.724
106.6360, 1148.838
107.8750, 1308.063
109.1130, 1342.306
110.3510, 1495.586
111.5890, 1541.864
112.8270, 1636.136
114.0650, 1781.402
115.3020, 1963.663
116.5390, 2193.923
117.7770, 2314.181
119.0130, 2648.441
120.2500, 2936.699
121.4870, 3327.960
122.7230, 3799.220
123.9590, 4430.481
125.1950, 5207.741
126.4310, 6242.992
127.6670, 7502.232
128.9030, 9178.459
130.1380, 11587.68
131.3730, 14356.89
132.6080, 17605.10
133.8430, 21133.30
135.0780, 25301.50
136.3120, 29527.71
137.5470, 34613.92
138.7810, 40437.14
140.0150, 46858.35
141.2480, 52716.58
142.4820, 56922.81
143.7160, 59519.04
144.9490, 57229.29
146.1820, 51151.53
147.4150, 41889.42
148.6480, 32123.08
149.8800, 23922.44
151.1130, 17753.01
152.3450, 13388.78
153.5770, 10424.27
154.8090, 8138.450
156.0410, 6578.514
157.2720, 5410.243
158.5040, 4590.005
159.7350, 3832.396
160.9660, 3280.326
162.1970, 2818.782
163.4270, 2434.320
164.6580, 2236.037
165.8880, 1913.315
167.1180, 1746.221
168.3480, 1565.477
169.5780, 1413.204
170.8080, 1269.309
172.0370, 1146.128
173.2670, 1031.549
174.4960, 947.6903
175.7250, 883.8389
176.9540, 818.9987
178.1820, 764.1899
179.4110, 697.3932
180.6390, 648.6100
181.8670, 606.8466
183.0950, 588.1120
184.3230, 540.3861
185.5500, 531.6630
186.7780, 588.9421
188.0050, 573.2246
189.2320, 585.5119
190.4590, 590.8044
191.6850, 631.0989
192.9120, 741.3955
194.1380, 852.6941
195.3650, 970.9948
196.5910, 1093.297
197.8160, 1093.602
199.0420, 1084.633
200.2680, 916.6675
201.4930, 636.7001
202.7180, 497.7218
203.9430, 362.7457
205.1680, 318.7811
206.3930, 250.7204
207.6170, 253.6427
208.8410, 188.7525
210.0660, 164.8923
211.2890, 170.8799
212.5130, 143.7846
213.7370, 134.9813
214.9600, 124.2195
216.1840, 100.4777
217.4070, 89.75458
218.6300, 102.0489
219.8520, 87.35938
221.0750, 82.68506
222.2970, 62.02505
223.5200, 51.37839
224.7420, 51.74432
225.9640, 50.12201
227.1850, 49.51059
228.4070, 46.00684
229.6280, 45.24118
230.8490, 38.73465
232.0700, 39.16006
233.2910, 37.59332
234.5120, 28.03397
235.7320, 13.48163
236.9530, 29.93591
238.1730, 6.396576
239.3930, 5.863281
240.6130, 10.33578
241.8320, 1.186096
243.0520, 4.703491
244.2710, 3.217285
245.4900, 11.72748
246.7090, 0.2362670
247.9280, 4.258545
249.1470, 22.24304
250.3650, 14.74744
251.5840, 17.25336
252.8020, 2.238220
254.0200, 25.26843
255.2370, 1.219543
256.4550, 5.708435
257.6720, 9.198547
258.8900, 15.31012
260.1070, 3.822021
261.3240, 9.334412
262.5400, 5.848633
263.7570, 13.36389
264.9730, 1.881958
266.1900, 3.599915
267.4060, 12.91718
268.6220, 7.437073
269.8370, 8.041504
271.0530, 12.52142
272.2680, 26.99731
273.4830, 19.52234
274.6980, 19.05176
275.9130, 3.414490
277.1280, 4.118042
278.3420, 1.348755
279.5570, 28.81641
280.7710, 13.28571
281.9850, 7.243286
283.1990, 4.773682
284.4120, 3.599609
285.6260, 4.836426
286.8390, 13.63110
288.0520, 25.10028
289.2650, 24.57098
290.4780, 30.04327
291.6910, 27.51715
292.9030, 30.45148
294.1160, 21.01556
295.3280, 40.04431
296.5400, 38.51251
297.7510, 56.96722
298.9630, 41.49298
300.1740, 53.93304
301.3860, 63.29095
302.5970, 63.12128
303.8080, 54.79126
305.0180, 60.21448
306.2290, 61.87329
307.4390, 63.29065
308.6500, 66.25867
309.8600, 64.22028
311.0700, 71.09174
312.2790, 79.52313
313.4890, 70.91077
314.6980, 95.30054
315.9080, 97.68909
317.1170, 93.07971
318.3250, 104.5105
319.5340, 86.90491
320.7430, 107.3011
321.9510, 106.7434
323.1590, 99.14319
324.3670, 86.54462
325.5750, 90.49481
326.7830, 87.90277
327.9900, 84.53845
329.1980, 100.7162
330.4050, 88.12494
331.6120, 77.53510
332.8190, 90.94659
334.0250, 97.35950
335.2320, 107.7738
336.4380, 73.18945
337.6440, 70.60651
338.8500, 96.02496
340.0560, 84.44482
341.2620, 97.86615
342.4670, 86.28894
343.6730, 93.71313
344.8780, 91.14038
346.0830, 87.57056
347.2870, 76.00378
348.4920, 88.44006
349.6970, 103.8794
350.9010, 119.3217
352.1050, 66.76746
353.3090, 110.2167
354.5130, 94.66876
355.7160, 135.1233
356.9200, 118.5811
358.1230, 136.0425
359.3260, 133.5063
360.5290, 144.9722
361.7320, 163.4401
362.9340, 169.9099
364.1370, 141.3815
365.3390, 151.8550
366.5410, 172.3302
367.7430, 151.8071
368.9450, 207.2855
370.1460, 183.7655
371.3480, 223.2471
372.5490, 246.7302
373.7500, 281.2147
374.9510, 267.7006
376.1520, 327.1879
377.3520, 350.6766
378.5520, 391.1667
379.7530, 449.6581
380.9530, 498.1508
382.1530, 567.6449
383.3520, 626.1401
384.5520, 630.6367
385.7510, 725.1345
386.9500, 794.5280
388.1490, 813.7247
389.3480, 972.9973
390.5470, 1009.790
391.7450, 1016.214
392.9440, 1115.720
394.1420, 1117.879
395.3400, 1128.470
396.5380, 1110.910
397.7350, 1076.414
398.9330, 1012.372
400.1300, 965.8406
401.3270, 880.3564
402.5240, 831.8735
403.7210, 733.3947
404.9180, 591.5720
406.1140, 560.4335
407.3110, 481.4928
408.5070, 408.1093
409.7030, 381.3772
410.8990, 321.8910
412.0940, 247.5212
413.2900, 229.4686
414.4850, 184.0037
415.6800, 188.5406
416.8750, 166.3313
418.0700, 112.5565
419.2650, 135.8063
420.4590, 108.3033
421.6530, 104.4213
422.8470, 78.83374
424.0410, 68.38586
425.2350, 66.94031
426.4290, 52.86633
427.6220, 37.93475
428.8160, 41.06958
430.0090, 45.13019
431.2020, 21.69647
432.3940, 18.26526
433.5870, 35.83655
434.7790, 4.410217
435.9720, 7.013550
437.1640, 0.4391480
438.3560, 9.180603
439.5470, 2.709290
440.7390, 2.284668
441.9300, 0.1373900
443.1220, 8.442078
444.3130, 15.97565
445.5040, 24.39880
446.6940, 21.83148
447.8850, 14.72772
449.0750, 3.710022
450.2660, 12.85272
451.4560, 27.58099
452.6460, 10.02533
453.8350, 8.471741
455.0250, 30.91956
456.2140, 23.37933
457.4040, 13.15271
458.5930, 12.68805
459.7820, 6.227539
460.9700, 0.2280270
462.1590, 13.31958
463.3470, 6.872681
464.5350, 0.5700680
465.7240, 11.98981
466.9110, 14.55548
468.0990, 10.87292
469.2870, 0.6970210
470.4740, 4.273254
471.6610, 10.85834
472.8480, 27.44702
474.0350, 29.04285
475.2220, 25.64514
476.4090, 16.25104
477.5950, 22.86060
478.7810, 16.47858
479.9670, 23.10175
481.1530, 22.73090
482.3390, 43.36365
483.5240, 56.00146
484.7100, 71.64526
485.8950, 42.29297
487.0800, 71.94440
488.2650, 61.59967
489.4490, 75.25867
490.6340, 94.92157
491.8180, 93.58826
493.0030, 108.2588
494.1870, 115.9331
495.3700, 131.6115
496.5540, 141.2935
497.7380, 175.9794
498.9210, 203.6693
500.1040, 226.3630
501.2870, 279.0607
502.4700, 292.7623
503.6530, 370.4679
504.8350, 405.1774
506.0180, 472.8908
507.2000, 550.6083
508.3820, 590.3296
509.5640, 655.0553
510.7450, 733.7846
511.9270, 781.5182
513.1080, 819.2559
514.2890, 833.9973
515.4700, 803.7433
516.6510, 778.4930
517.8320, 741.2471
519.0130, 703.7174
520.1930, 666.7676
521.3730, 626.5341
522.5530, 589.3049
523.7330, 565.0798
524.9130, 512.8591
526.0920, 471.6423
527.2710, 439.4300
528.4510, 386.2219
529.6300, 360.0190
530.8080, 362.8220
531.9870, 321.6305
533.1660, 256.4468
534.3440, 209.2682
535.5220, 238.0939
536.7000, 203.9299
537.8780, 218.7747
539.0560, 169.6287
540.2330, 156.4873
541.4110, 110.3574
542.5880, 130.2324
543.7650, 113.1119
544.9420, 108.9958
546.1180, 103.8888
547.2950, 95.78809
548.4710, 71.69513
549.6470, 88.60895
550.8230, 61.53149
551.9990, 72.46002
553.1750, 61.39337
554.3500, 53.33545
555.5260, 56.28485
556.7010, 41.23895
557.8760, 40.19763
559.0510, 32.16864
560.2250, 43.15009
561.4000, 45.14191
562.5740, 66.13885
563.7480, 27.14252
564.9220, 58.15179
566.0960, 29.16565
567.2700, 74.18420
568.4430, 65.21045
569.6170, 39.24371
570.7900, 43.28387
571.9630, 76.33112
573.1360, 16.38306
574.3080, 55.43976
575.4810, 72.50104
576.6530, 39.56702
577.8250, 73.18915
578.9980, 86.16327
580.1690, 87.68243
581.3410, 86.76740
582.5130, 102.8572
583.6840, 110.8749
584.8550, 115.9744
586.0260, 90.16260
587.1970, 146.8762
588.3680, 125.7494
589.5380, 107.8685
590.7080, 143.7530
591.8790, 176.9752
593.0490, 202.5503
594.2190, 218.1238
595.3880, 229.7913
596.5580, 226.2021
597.7270, 259.0657
598.8960, 293.2261
600.0650, 311.5355
601.2340, 360.0361
602.4030, 379.2648
603.5710, 395.8748
604.7400, 416.2177
605.9080, 490.3655
607.0760, 520.0466
608.2440, 596.8063
609.4120, 658.4695
610.5790, 729.3556
611.7460, 826.7861
612.9140, 913.0163
614.0810, 972.0322
615.2480, 1070.909
616.4140, 1234.151
617.5810, 1407.397
618.7470, 1553.733
619.9130, 1816.308
621.0790, 1987.062
622.2450, 2217.332
623.4110, 2631.848
624.5770, 2944.656
625.7420, 3162.942
626.9070, 3572.233
628.0720, 4055.529
629.2370, 4612.833
630.4020, 5041.142
631.5660, 5574.455
632.7310, 6039.775
633.8950, 6483.100
635.0590, 6833.432
636.2230, 7135.770
637.3870, 7401.112
638.5500, 7486.458
639.7140, 7311.812
640.8770, 7062.171
642.0400, 6733.538
643.2030, 6275.907
644.3660, 5869.284
645.5280, 5248.665
646.6910, 4861.049
647.8530, 4339.440
649.0150, 4015.835
650.1770, 3663.237
651.3390, 3242.642
652.5000, 2904.052
653.6620, 2721.468
654.8230, 2444.889
655.9840, 2205.316
657.1450, 1983.749
658.3060, 1852.187
659.4660, 1701.630
660.6270, 1631.077
661.7870, 1454.529
662.9470, 1301.985
664.1070, 1244.446
665.2670, 1153.911
666.4260, 1077.380
667.5860, 1005.855
668.7450, 922.3330
669.9040, 850.8165
671.0630, 789.3043
672.2220, 754.7964
673.3800, 700.2930
674.5390, 656.7950
675.6970, 629.3010
676.8550, 565.8112
678.0130, 556.3267
679.1710, 520.8461
680.3290, 454.3727
681.4860, 459.9031
682.6430, 401.4375
683.8000, 357.9758
684.9570, 385.5180
686.1140, 364.0642
687.2710, 329.6155
688.4270, 311.1705
689.5840, 309.7292
690.7400, 264.2916
691.8960, 299.8582
693.0520, 264.4287
694.2070, 248.0032
695.3630, 237.5813
696.5180, 246.1628
697.6730, 186.7479
698.8280, 206.3363
699.9830, 213.9282
701.1380, 171.5233
702.2920, 193.1218
703.4470, 150.7234
704.6010, 124.3287
705.7550, 135.9374
706.9090, 128.5493
708.0620, 144.1643
709.2160, 104.7825
710.3690, 83.40552
711.5220, 131.0316
712.6750, 127.6607
713.8280, 84.29279
714.9810, 59.92780
716.1340, 71.56567
717.2860, 64.20862
718.4380, 53.85529
719.5900, 44.50745
720.7420, 62.16241
721.8940, 38.82043
723.0450, 53.48206
724.1970, 52.14636
725.3480, 20.81781
726.4990, 40.49805
727.6500, 46.18646
728.8010, 45.87756
729.9510, 3.427612
731.1020, 13.26874
732.2520, 17.97449
733.4020, 7.685547
734.5520, 23.40192
735.7020, 13.12836
736.8510, 5.862976
738.0010, 4.399902
739.1500, 8.377014
740.2990, 2.924805
741.4480, 10.18604
742.5970, 4.449097
743.7450, 7.288452
744.8940, 10.97125
746.0420, 12.23334
747.1900, 14.08514
748.3380, 14.02124
749.4860, 23.28564
750.6330, 0.4418330
751.7810, 15.82904
752.9280, 13.10504
754.0750, 6.640259
755.2220, 15.36530
756.3690, 20.44067
757.5160, 6.719666
758.6620, 9.870178
759.8090, 5.843079
760.9550, 4.883789
762.1010, 10.16962
763.2470, 5.541504
764.3920, 14.30676
765.5380, 9.108887
766.6830, 4.399231
767.8280, 5.116394
768.9730, 9.868896
770.1180, 15.28925
771.2630, 12.83807
772.4070, 30.20416
773.5520, 40.93494
774.6960, 40.66125
775.8400, 45.38873
776.9840, 41.91382
778.1280, 36.67181
779.2710, 37.57849
780.4140, 41.36700
781.5580, 36.28351
782.7010, 51.26349
783.8440, 58.99817
784.9860, 55.74420
786.1290, 41.60480
787.2710, 78.63800
788.4140, 87.47229
789.5560, 95.21033
790.6980, 81.00519
791.8390, 96.02972
792.9810, 85.27295
794.1220, 73.01306
795.2640, 97.19214
796.4050, 100.9329
797.5460, 106.7188
798.6860, 114.9315
799.8270, 74.20569
800.9680, 107.9476
802.1080, 91.73773
803.2480, 59.52216
804.3880, 67.34412
805.5280, 99.09143
806.6670, 73.02783
807.8070, 84.77600
808.9460, 91.55884
810.0850, 69.37848
811.2240, 54.36859
812.3630, 38.12012
813.5020, 68.86273
814.6400, 79.88531
815.7790, 77.66058
816.9170, 45.12592
818.0550, 45.86768
819.1930, 57.60913
820.3300, 65.36096
821.4680, 50.11749
822.6050, 64.92175
823.7430, 52.95502
824.8800, 49.69446
826.0170, 45.43634
827.1530, 48.17621
828.2900, 45.04926
829.4260, 51.87289
830.5620, 33.72495
831.6990, 46.46088
832.8340, 39.19638
833.9700, 48.93112
835.1060, 48.66953
836.2410, 69.40997
837.3760, 45.14410
838.5120, 15.88019
839.6470, 38.61096
840.7810, 43.44028
841.9160, 37.22144
843.0500, 54.95483
844.1850, 49.68420
845.3190, 44.42798
846.4530, 17.56784
847.5870, 39.29407
848.7200, 33.03391
849.8540, 27.75806
850.9870, 46.48102
852.1200, 29.20282
853.2530, 32.92334
854.3860, 20.67578
855.5190, 26.39493
856.6510, 31.12405
857.7840, 35.85547
858.9160, 23.63702
860.0480, 43.34930
861.1800, 22.11893
862.3110, 47.82819
863.4430, 37.54108
864.5740, 15.24713
865.7060, 49.95160
866.8370, 25.56128
867.9680, 34.26242
869.0980, 14.00867
870.2290, 23.84265
871.3590, 33.54767
872.4900, 21.24167
873.6200, 14.97803
874.7500, 22.52444
875.8790, 15.92221
877.0090, 19.51895
878.1380, 20.78107
879.2680, 39.31232
880.3970, 22.03229
881.5260, 14.23810
882.6550, 3.637421
883.7830, 4.036896
884.9120, 16.04160
886.0400, 17.59000
887.1680, 24.25424
888.2960, 19.13611
889.4240, 7.247833
890.5520, 10.22830
891.6790, 3.188232
892.8070, 9.384949
893.9340, 1.721558
895.0610, 10.88040
896.1880, 5.472351
897.3140, 9.928040
898.4410, 10.11105
899.5670, 3.747589
900.6940, 2.429840
901.8200, 5.938751
902.9450, 11.68564
904.0710, 5.308380
905.1970, 5.070740
906.3220, 17.54349
907.4470, 6.830566
908.5730, 8.774200
909.6980, 11.73520
910.8220, 13.33578
911.9470, 9.015808
913.0710, 6.573883
914.1960, 2.839111
915.3200, 10.74197
916.4440, 11.02991
917.5680, 0.1026000
918.6910, 11.50787
919.8150, 9.077698
920.9380, 2.645111
922.0610, 0.7909240
923.1840, 3.772339
924.3070, 24.38199
925.4300, 5.935394
926.5520, 0.5140990
927.6750, 3.968536
928.7970, 20.57025
929.9190, 2.893311
931.0410, 12.63687
932.1630, 7.164612
933.2840, 11.69452
934.4060, 14.21698
935.5270, 14.73700
936.6480, 7.254547
937.7690, 7.809387
938.8900, 5.412628
940.0100, 11.85474
941.1310, 1.360840
942.2510, 11.86267
943.3710, 8.361938
944.4910, 5.858337
945.6110, 0.3514710
946.7310, 11.83984
947.8500, 19.35913
948.9690, 0.1433410
950.0890, 9.334747
951.2080, 7.190002
952.3260, 14.30557
953.4450, 19.78934
954.5640, 12.25067
955.6820, 11.74023
956.8000, 7.196075
957.9180, 0.3218690
959.0360, 22.12561
960.1540, 13.57043
961.2710, 14.03979
962.3890, 3.493134
963.5060, 5.929535
964.6230, 4.382813
965.7400, 16.83603
966.8570, 27.32907
967.9730, 20.75250
969.0900, 14.25388
970.2060, 13.67194
971.3220, 15.08725
972.4380, 14.49994
973.5540, 23.90988
974.6700, 5.355255
975.7850, 8.758972
976.9010, 15.72626
978.0160, 30.12411
979.1310, 13.51929
980.2460, 2.064972
981.3600, 22.32098
982.4750, 13.70422
983.5890, 18.14761
984.7030, 30.54208
985.8170, 28.92474
986.9310, 18.29700
988.0450, 11.66653
989.1590, 17.03302
990.2720, 14.39682
991.3850, 13.76221
992.4980, 8.120270
993.6110, 19.48248
994.7240, 8.834564
995.8370, 28.18335
996.9490, 16.52945
998.0620, 18.87280
999.1740, 24.22607
1000.286, 18.56403
1001.398, 19.92371
1002.509, 10.25681
1003.621, 3.586761
1004.732, 15.92267
1005.843, 22.25940
1006.954, 10.57999
1008.065, 18.92661
1009.176, 11.47672
1010.286, 25.80627
1011.397, 19.03076
1012.507, 23.34210
1013.617, 12.66925
1014.727, 17.98450
1015.837, 22.32379
1016.946, 21.04602
1018.056, 17.19507
1019.165, 6.498444
1020.274, 22.04254
1021.383, 22.38040
1022.492, 6.790222
1023.601, 23.10242
1024.709, 0.4209290
1025.817, 30.26001
1026.926, 32.55417
1028.034, 19.72861
1029.141, 20.02573
1030.249, 21.76196
1031.357, 7.077057
1032.464, 19.38269
1033.571, 9.624237
1034.678, 24.86960
1035.785, 20.60867
1036.892, 22.96533
1037.999, 23.32382
1039.105, 24.10373
1040.211, 14.42831
1041.317, 38.08295
1042.423, 2.637634
1043.529, 31.63913
1044.635, 7.921356
1045.740, 16.40820
1046.845, 18.63629
1047.951, 16.48438
1049.056, 20.73367
1050.160, 30.98315
1051.265, 7.983734
1052.370, 24.24551
1053.474, 21.47693
1054.578, 30.59219
1055.682, 14.53342
1056.786, 5.679260
1057.890, 15.91220
1058.993, 29.09464
1060.097, 31.03931
1061.200, 21.78177
1062.303, 28.00943
1063.406, 14.79837
1064.509, 19.01999
1065.612, 13.19489
1066.714, 23.40857
1067.816, 22.62402
1068.919, 18.83737
1070.021, 6.000824
1071.122, 19.16782
1072.224, 8.295441
1073.326, 37.49695
1074.427, 28.50696
1075.528, 19.70334
1076.629, 16.86298
1077.730, 18.98392
1078.831, 18.93231
1079.931, 6.117279
1081.032, 10.30902
1082.132, 17.21857
1083.232, 33.37341
1084.332, 5.836273
1085.432, 8.025665
1086.531, 23.20782
1087.631, 5.382019
1088.730, 14.54483
1089.829, 5.657532
1090.928, 13.53888
1092.027, 26.71185
1093.126, 5.880280
1094.224, 9.048279
1095.323, 12.08084
1096.421, 7.160461
1097.519, 6.209229
1098.617, 0.3717040
1099.715, 20.53195
1100.812, 0.3094480
1101.910, 21.84268
1103.007, 13.99033
1104.104, 13.14185
1105.201, 20.28894
1106.298, 3.438904
1107.394, 16.48761
1108.491, 8.418030
1109.587, 13.71915
1110.683, 24.85776
1111.779, 5.979492
1112.875, 18.70236
1113.971, 13.83640
1115.066, 4.5837000E-02
1116.162, 7.084839
1117.257, 9.213959
1118.352, 19.34164
1119.447, 20.46796
1120.542, 30.55963
1121.636, 35.68192
1122.731, 9.791534
1123.825, 30.89603
1124.919, 8.947632
1126.013, 18.06570
1127.107, 20.12357
1128.200, 18.23904
1129.294, 25.34796
1130.387, 7.460876
1131.480, 11.57819
1132.573, 4.688477
1133.666, 18.79733
1134.759, 22.85812
1135.851, 7.828217
1136.944, 6.924133
1138.036, 15.02798
1139.128, 3.087067
1140.220, 3.810455
1141.312, 6.251190
1142.403, 14.64996
1143.495, 17.43875
1144.586, 5.527740
1145.677, 7.581543
1146.768, 1.662628
1147.859, 16.74860
1148.950, 15.83612
1150.040, 10.91626
1151.130, 4.086182
1152.221, 0.9978640
1153.311, 1.825470
1154.401, 1.071442
1155.490, 4.149567
1156.580, 5.985504
1157.669, 10.06326
1158.759, 6.139923
1159.848, 11.39783
1160.937, 10.47296
1162.025, 3.549500
1163.114, 5.554016
1164.202, 7.628174
1165.291, 0.3467100
1166.379, 1.556274
1167.467, 1.233887
1168.555, 2.120636
1169.642, 0.9510800
1170.730, 0.5687870
1171.817, 1.990417
1172.905, 4.154907
1173.992, 4.868591
1175.078, 2.940430
1176.165, 1.967621
1177.252, 13.04050
1178.338, 6.127380
1179.425, 14.20059
1180.511, 7.272888
1181.597, 19.34430
1182.682, 3.377502
1183.768, 14.44824
1184.854, 17.51828
1185.939, 9.588013
1187.024, 5.653931
1188.109, 8.669800
1189.194, 6.085419
1190.279, 12.15384
1191.363, 3.222778
1192.448, 7.084717
1193.532, 6.564117
1194.616, 11.43390
1195.700, 12.50677
1196.784, 19.57419
1197.867, 16.56070
1198.951, 16.50378
1200.034, 14.78714
1201.117, 8.816711
1202.200, 14.88593
1203.283, 6.929871
1204.366, 22.16809
1205.448, 14.23648
1206.531, 23.30429
1207.613, 21.37161
1208.695, 20.43860
1209.777, 17.50751
1210.859, 17.60925
1211.940, 14.24896
1213.022, 15.65936
1214.103, 10.75302
1215.184, 5.792664
1216.265, 8.840790
1217.346, 5.921722
1218.427, 6.957825
1219.507, 14.02426
1220.587, 15.06110
1221.668, 20.13687
1222.748, 24.26514
1223.828, 28.27951
1224.907, 28.34671
1225.987, 24.41153
1227.066, 17.45578
1228.146, 17.49646
1229.225, 20.49408
1230.304, 28.55823
1231.382, 16.54132
1232.461, 22.60449
1233.540, 35.66718
1234.618, 22.72949
1235.696, 18.79144
1236.774, 8.814941
1237.852, 16.87650
1238.930, 21.37115
1240.007, 20.43207
1241.085, 24.49255
1242.162, 25.92441
1243.239, 24.40979
1244.316, 29.66632
1245.393, 20.67715
1246.469, 22.73666
1247.546, 19.78928
1248.622, 12.84927
1249.698, 15.91541
1250.774, 15.97470
1251.850, 26.03369
1252.926, 11.08807
1254.001, 20.14661
1255.077, 29.19785
1256.152, 14.25620
1257.227, 18.31458
1258.302, 7.372620
1259.377, 22.43027
1260.451, 4.474976
1261.526, 31.54620
1262.600, 19.57889
1263.674, 18.63510
1264.748, 13.69113
1265.822, 15.73761
1266.896, 14.78198
1267.969, 19.00705
1269.043, 21.13892
1270.116, 28.09720
1271.189, 21.20685
1272.262, 24.37604
1273.335, 19.45749
1274.407, 18.65414
1275.480, 13.69983
1276.552, 14.75192
1277.624, 10.29691
1278.696, 24.88269
1279.768, 9.936279
1280.840, 4.751221
1281.911, 18.76959
1282.982, 28.71667
1284.054, 11.74655
1285.125, 34.77899
1286.196, 7.820892
1287.266, 25.87479
1288.337, 4.082764
1289.407, 15.98401
1290.478, 27.03568
1291.548, 22.06509
1292.618, 15.11011
1293.688, 13.18478
1294.757, 21.57776
1295.827, 11.59970
1296.896, 4.575806
1297.965, 21.51346
1299.034, 15.53271
1300.103, 24.56509
1301.172, 7.588623
1302.241, 22.62122
1303.309, 13.85922
1304.377, 3.889221
1305.445, 24.91522
1306.513, 1.965607
1307.581, 19.00879
1308.649, 18.05844
1309.716, 27.10620
1310.784, 28.27231
1311.851, 17.19568
1312.918, 25.25778
1313.985, 16.30615
1315.052, 11.35440
1316.118, 19.39499
1317.185, 6.556946
1318.251, 23.48141
1319.317, 9.525787
1320.383, 21.56729
1321.449, 21.68564
1322.514, 9.759918
1323.580, 16.41992
1324.645, 13.48746
1325.711, 14.53815
1326.776, 25.58878
1327.840, 29.63000
1328.905, 7.675720
1329.970, 14.71689
1331.034, 6.757996
1332.099, 3.184845
1333.163, 15.85532
1334.227, 18.91696
1335.290, 16.95688
1336.354, 11.99661
1337.418, 6.037292
1338.481, 17.07663
1339.544, 27.11609
1340.607, 23.15549
1341.670, 0.1948550
1342.733, 9.234009
1343.795, 13.26941
1344.858, 3.314362
1345.920, 18.36725
1346.982, 22.40616
1348.044, 8.444885
1349.106, 4.483673
1350.168, 3.522308
1351.229, 0.7252500
1352.291, 2.887482
1353.352, 6.637512
1354.413, 9.699310
1355.474, 17.73746
1356.534, 23.77563
1357.595, 12.82959
1358.656, 17.86679
1359.716, 13.90280
1360.776, 16.94260
1361.836, 7.002563
1362.896, 16.06671
1363.955, 12.13510
1365.015, 23.16843
1366.074, 11.20776
1367.134, 21.24326
1368.193, 23.28506
1369.252, 7.366272
1370.310, 6.412476
1371.369, 4.494415
1372.427, 4.105927
1373.486, 3.435699
1374.544, 10.59344
1375.602, 7.624786
1376.660, 5.654419
1377.717, 17.68384
1378.775, 7.731140
1379.832, 14.79941
1380.889, 16.82816
1381.946, 19.92404
1383.003, 21.95898
1384.060, 11.01914
1385.117, 9.046417
1386.173, 11.07236
1387.230, 18.11502
1388.286, 4.129883
1389.342, 13.15018
1390.398, 11.17020
1391.453, 18.18973
1392.509, 12.20898
1393.564, 7.227966
1394.619, 2.753296
1395.675, 1.504089
1396.729, 2.159943
1397.784, 0.6975710
1398.839, 1.327454
1399.893, 1.347107
1400.948, 2.492493
1402.002, 16.52701
1403.056, 0.5716250
1404.110, 2.588593
1405.163, 21.61630
1406.217, 9.631256
1407.270, 29.64572
1408.324, 9.677460
1409.377, 9.714783
1410.430, 5.764648
1411.483, 16.77762
1412.535, 26.79474
1413.588, 13.80676
1414.640, 28.81772
1415.692, 4.665619
1416.744, 8.691101
1417.796, 11.69839
1418.848, 6.732819
1419.900, 1.755035
1420.951, 6.182526
1422.002, 9.821869
1423.053, 10.82684
1424.104, 18.82761
1425.155, 13.84882
1426.206, 0.8482060
1427.256, 14.86200
1428.307, 15.88046
1429.357, 3.124115
1430.407, 18.86966
1431.457, 17.85638
1432.507, 20.88885
1433.556, 12.86395
1434.606, 13.85568
1435.655, 10.86484
1436.704, 10.84732
1437.753, 6.841736
1438.802, 5.845795
1439.851, 11.85120
1440.899, 16.87177
1441.948, 16.72845
1442.996, 17.79156
1444.044, 15.56003
1445.092, 12.51862
1446.140, 5.536346
1447.187, 0.8143010
1448.235, 0.7245790
1449.282, 9.715027
1450.329, 3.331604
1451.376, 7.378204
1452.423, 7.424774
1453.470, 11.29224
1454.517, 8.336945
1455.563, 11.38000
1456.609, 11.42468
1457.655, 5.439392
1458.701, 10.38049
1459.747, 4.513184
1460.793, 13.55722
1461.838, 11.57660
1462.884, 9.574066
1463.929, 19.61710
1464.974, 13.66022
1466.019, 15.70316
1467.064, 10.74612
1468.108, 11.78870
1469.153, 9.830872
1470.197, 8.873016
1471.241, 5.914856
1472.285, 25.93906
1473.329, 18.94427
1474.373, 27.98486
1475.416, 27.13071
1476.460, 13.05722
1477.503, 19.09702
1478.546, 13.13629
1479.589, 5.175446
1480.632, 19.19519
1481.674, 17.23450
1482.717, 7.274139
1483.759, 17.07187
1484.801, 14.76141
1485.843, 9.654266
1486.885, 4.411469
1487.927, 3.391998
1488.968, 2.383728
1490.010, 16.40927
1491.051, 9.434570
1492.092, 18.44333
1493.133, 9.467987
1494.174, 0.4700320
1495.215, 8.496887
1496.255, 0.4669190
1497.296, 13.84421
1498.336, 9.860840
1499.376, 13.82172
1500.416, 26.83743
1501.456, 23.49966
1502.495, 19.51050
1503.535, 6.521637
1504.574, 1.532928
1505.613, 20.50192
1506.652, 0.4874270
1507.691, 9.522675
1508.730, 3.538879
1509.768, 20.37106
1510.807, 9.054474
1511.845, 4.977966
1512.883, 13.95187
1513.921, 18.93317
1514.959, 18.48944
1515.996, 15.82217
1517.034, 21.80554
1518.071, 16.78467
1519.109, 19.76373
1520.146, 15.74863
1521.183, 18.69482
1522.219, 9.618042
1523.256, 8.584106
1524.292, 12.54666
1525.329, 2.494690
1526.365, 10.39529
1527.401, 4.300446
1528.437, 30.25418
1529.472, 8.125000
1530.508, 29.88672
1531.543, 15.81952
1532.579, 6.746033
1533.614, 5.501160
1534.649, 2.401062
1535.683, 13.21503
1536.718, 10.15970
1537.753, 12.03876
1538.787, 21.82928
1539.821, 6.469543
1540.855, 7.257233
1541.889, 16.10468
1542.923, 5.056641
1543.956, 8.007629
1544.990, 4.3731999E-02
1546.023, 15.90161
1547.056, 11.82404
1548.089, 12.71878
1549.122, 6.862457
1550.155, 16.60379
1551.187, 8.427094
1552.220, 7.200958
1553.252, 25.68402
1554.284, 21.51605
1555.316, 29.37555
1556.348, 2.942871
1557.379, 18.55627
1558.411, 11.68933
1559.442, 7.414001
1560.474, 13.91269
1561.505, 10.45456
1562.535, 7.871094
1563.566, 7.523773
1564.597, 3.833740
1565.627, 5.273407
1566.658, 2.393829
1567.688, 6.774139
1568.718, 10.04382
1569.748, 7.1686000E-02
1570.777, 0.0000000E+00
##END=



