##NAMES=Andalusite
##RRUFFID=R060212
##IDEAL CHEMISTRY=Al_2_SiO_5_
##LOCALITY=Brazil
##OWNER=RRUFF
##SOURCE=Marcus Origlieri
##DESCRIPTION=Transparent yellow-green water-worn pebble
##STATUS=The identification of this mineral is confirmed by single-crystal X-ray diffraction and chemical analysis.
##URL=rruff.info/R060212
##MEASURED CHEMISTRY=(Al_1.98_Fe^3+^_0.02_)_Î£=2_Si_1.00_O_5_
##PIN_ID=M00278
##ORIENTATION=Laser parallel to c* (0 0 1). Fiducial mark perpendicular to laser is parallel to -a [-1 0 0]
99.64900, 0.0000000E+00
100.8830, 0.9091800
102.1160, 101.4097
103.3490, 17.30566
104.5820, 36.86328
105.8150, 235.9668
107.0470, 542.3062
108.2800, 911.6289
109.5120, 1036.703
110.7440, 650.7681
111.9760, 160.5796
113.2080, 131.8813
114.4400, 228.4893
115.6710, 460.1934
116.9030, 284.5298
118.1340, 227.9907
119.3650, 214.7993
120.5960, 70.40283
121.8270, 53.43652
123.0580, 24.68164
124.2880, 9.996582
125.5190, 17.08057
126.7490, 8.128418
127.9790, 17.31445
129.2090, 76.78809
130.4390, 110.8604
131.6680, 119.7715
132.8980, 49.59961
134.1270, 141.3062
135.3560, 69.99463
136.5850, 60.76758
137.8140, 95.73486
139.0430, 312.1367
140.2710, 233.6729
141.5000, 266.6240
142.7280, 154.0464
143.9560, 144.9897
145.1840, 71.49707
146.4120, 87.60498
147.6390, 39.34766
148.8670, 51.76416
150.0940, 115.8892
151.3210, 182.7451
152.5490, 199.3496
153.7750, 135.9893
155.0020, 138.4917
156.2290, 122.5728
157.4550, 87.87842
158.6810, 89.55518
159.9080, 155.9922
161.1340, 246.5215
162.3590, 433.3945
163.5850, 578.8804
164.8110, 580.3057
166.0360, 493.2695
167.2610, 516.6533
168.4860, 577.0449
169.7110, 631.4380
170.9360, 507.8340
172.1610, 496.2339
173.3850, 452.6714
174.6100, 349.2241
175.8340, 333.8877
177.0580, 254.6533
178.2820, 401.5137
179.5050, 515.4604
180.7290, 375.4854
181.9520, 318.5815
183.1760, 439.7417
184.3990, 596.9604
185.6220, 678.2246
186.8450, 811.5229
188.0670, 1082.856
189.2900, 1224.230
190.5120, 1382.637
191.7340, 1255.070
192.9560, 1006.527
194.1780, 1175.013
195.4000, 1087.563
196.6220, 1020.286
197.8430, 1013.163
199.0640, 1020.083
200.2860, 1197.030
201.5070, 1388.981
202.7270, 1496.920
203.9480, 1121.842
205.1690, 812.7510
206.3890, 455.6450
207.6090, 236.5249
208.8290, 135.3926
210.0490, 134.2490
211.2690, 14.90479
212.4890, 23.92920
213.7080, 31.24561
214.9280, 19.42871
216.1470, 28.38184
217.3660, 67.81396
218.5850, 38.01562
219.8030, 76.22119
221.0220, 121.4307
222.2400, 60.64355
223.4590, 126.8589
224.6770, 73.07568
225.8950, 39.29297
227.1120, 103.5098
228.3300, 7.735352
229.5480, 111.9741
230.7650, 197.5908
231.9820, 164.1260
233.1990, 314.5322
234.4160, 423.7695
235.6330, 623.8428
236.8490, 681.7954
238.0660, 861.6855
239.2820, 1000.593
240.4980, 995.5225
241.7140, 1093.475
242.9300, 886.4482
244.1460, 802.4458
245.3610, 746.4658
246.5770, 534.4067
247.7920, 411.6045
249.0070, 361.1260
250.2220, 456.5654
251.4370, 348.0049
252.6510, 382.3906
253.8660, 425.7134
255.0800, 393.9775
256.2940, 370.1851
257.5080, 492.3340
258.7220, 706.3823
259.9360, 941.3364
261.1490, 765.2305
262.3630, 607.0815
263.5760, 643.8774
264.7890, 674.6094
266.0020, 808.2944
267.2150, 853.9390
268.4270, 947.4688
269.6400, 1182.804
270.8520, 1275.544
272.0640, 1622.676
273.2760, 1870.358
274.4880, 2104.382
275.7000, 2585.599
276.9120, 3007.842
278.1230, 3786.031
279.3340, 4600.872
280.5450, 5849.958
281.7560, 7318.732
282.9670, 8704.383
284.1780, 10639.14
285.3880, 12755.07
286.5980, 16962.96
287.8090, 17818.83
289.0190, 19991.64
290.2290, 20943.34
291.4380, 19922.30
292.6480, 17200.01
293.8570, 13781.07
295.0670, 10710.74
296.2760, 8379.228
297.4850, 6182.775
298.6930, 4827.471
299.9020, 3639.979
301.1110, 2967.472
302.3190, 2439.735
303.5270, 2219.463
304.7350, 1987.886
305.9430, 2115.542
307.1510, 2361.287
308.3580, 2860.071
309.5660, 3799.715
310.7730, 4778.327
311.9800, 6180.950
313.1870, 7619.587
314.3940, 9493.236
315.6010, 12123.90
316.8070, 15396.57
318.0130, 18766.27
319.2200, 20424.04
320.4260, 19799.75
321.6310, 17525.48
322.8370, 14360.90
324.0430, 11490.65
325.2480, 8829.416
326.4540, 6839.064
327.6590, 4990.983
328.8640, 3836.782
330.0680, 3232.593
331.2730, 2691.414
332.4780, 2456.246
333.6820, 2200.088
334.8860, 2161.941
336.0900, 2057.805
337.2940, 1935.678
338.4980, 1970.562
339.7010, 2004.664
340.9050, 2230.364
342.1080, 2272.279
343.3110, 2508.217
344.5140, 2772.171
345.7170, 3398.138
346.9200, 4206.149
348.1220, 5414.110
349.3240, 6474.115
350.5270, 8023.160
351.7290, 9689.233
352.9310, 11488.24
354.1320, 13664.71
355.3340, 15450.21
356.5350, 16842.30
357.7370, 16708.62
358.9380, 15898.82
360.1390, 13734.81
361.3400, 11689.49
362.5400, 9572.564
363.7410, 7825.575
364.9410, 6418.247
366.1410, 5192.144
367.3410, 4459.918
368.5410, 3697.599
369.7410, 3215.717
370.9400, 2822.028
372.1400, 2424.389
373.3390, 2194.820
374.5380, 1811.637
375.7370, 1539.928
376.9360, 1468.104
378.1350, 1245.494
379.3330, 1116.900
380.5310, 1061.323
381.7300, 922.7642
382.9280, 942.2227
384.1260, 937.6987
385.3230, 867.1924
386.5210, 824.7041
387.7180, 823.2329
388.9160, 896.7793
390.1130, 1079.343
391.3100, 1116.909
392.5060, 879.4780
393.7030, 687.0508
394.9000, 500.6265
396.0960, 427.2065
397.2920, 361.7900
398.4880, 282.3784
399.6840, 315.9707
400.8800, 295.5674
402.0750, 426.1699
403.2710, 490.7778
404.4660, 401.3921
405.6610, 634.0127
406.8560, 664.6401
408.0510, 830.2754
409.2450, 856.9180
410.4400, 1111.568
411.6340, 1334.227
412.8280, 1650.893
414.0220, 2013.568
415.2160, 2444.257
416.4100, 2738.955
417.6030, 2737.667
418.7970, 2402.389
419.9900, 2088.120
421.1830, 1498.863
422.3760, 1044.615
423.5690, 740.3789
424.7610, 592.1543
425.9540, 365.9414
427.1460, 220.7417
428.3380, 158.5542
429.5300, 162.3789
430.7220, 60.21582
431.9140, 36.06543
433.1050, 140.0728
434.2970, 151.0132
435.4880, 110.4756
436.6790, 175.7236
437.8700, 78.02637
439.0610, 37.66211
440.2510, 82.63379
441.4420, 100.0566
442.6320, 162.7617
443.8220, 417.7295
445.0120, 398.4639
446.2020, 533.2139
447.3910, 721.9829
448.5810, 1059.620
449.7700, 1412.428
450.9600, 1480.253
452.1490, 1052.637
453.3370, 802.4990
454.5260, 431.3848
455.7150, 264.2900
456.9030, 214.2134
458.0910, 103.1562
459.2800, 66.11719
460.4670, 74.09717
461.6550, 1.903320
462.8430, 9.113281
464.0300, 238.1484
465.2180, 105.2026
466.4050, 233.2764
467.5920, 202.3691
468.7790, 483.4805
469.9650, 488.6104
471.1520, 627.7593
472.3380, 778.9272
473.5250, 798.1128
474.7110, 967.3184
475.8970, 1127.542
477.0820, 1237.784
478.2680, 1246.044
479.4540, 1381.333
480.6390, 1411.653
481.8240, 1461.078
483.0090, 1529.442
484.1940, 1321.826
485.3780, 1106.984
486.5630, 1087.128
487.7470, 896.2554
488.9320, 748.7139
490.1160, 453.2153
491.3000, 563.3721
492.4830, 334.1611
493.6670, 307.5322
494.8500, 185.1123
496.0340, 148.7607
497.2170, 86.92871
498.4000, 178.6206
499.5820, 149.8926
500.7650, 271.1514
501.9480, 175.9751
503.1300, 261.8403
504.3120, 233.7334
505.4940, 281.6777
506.6760, 341.6655
507.8580, 370.7065
509.0390, 421.2793
510.2210, 388.9658
511.4020, 472.1851
512.5830, 439.6343
513.7640, 391.5098
514.9450, 253.8818
516.1250, 422.2861
517.3060, 426.7085
518.4860, 362.1470
519.6660, 181.6011
520.8460, 291.0708
522.0260, 179.5557
523.2060, 191.0552
524.3850, 201.5703
525.5650, 193.1006
526.7440, 202.6455
527.9230, 194.0557
529.1020, 193.7793
530.2810, 175.3687
531.4590, 173.9722
532.6380, 160.5898
533.8160, 296.2217
534.9940, 342.8691
536.1720, 189.5298
537.3500, 449.2051
538.5270, 457.8965
539.7050, 615.6045
540.8820, 878.3379
542.0590, 1169.086
543.2360, 1608.873
544.4130, 1928.674
545.5900, 2354.508
546.7660, 2991.376
547.9430, 3306.268
549.1190, 3590.172
550.2950, 3761.092
551.4710, 3632.024
552.6470, 3292.971
553.8220, 2635.932
554.9980, 2030.905
556.1730, 1707.893
557.3480, 1313.894
558.5230, 1080.908
559.6980, 848.9351
560.8730, 775.9761
562.0470, 667.0293
563.2220, 631.0962
564.3960, 488.1763
565.5700, 498.2710
566.7440, 419.3784
567.9170, 478.4990
569.0910, 477.6509
570.2640, 478.8516
571.4380, 379.0835
572.6110, 265.3276
573.7840, 280.5981
574.9570, 262.9526
576.1290, 307.6743
577.3020, 201.7925
578.4740, 252.0615
579.6460, 83.84424
580.8180, 62.28125
581.9900, 112.8936
583.1620, 47.35693
584.3330, 39.16602
585.5040, 33.31152
586.6760, 38.80225
587.8470, 60.30566
589.0180, 52.17773
590.1880, 27.33350
591.3590, 79.85693
592.5290, 44.60693
593.7000, 192.9268
594.8700, 70.35840
596.0400, 32.91602
597.2090, 202.4854
598.3790, 178.0659
599.5490, 252.6592
600.7180, 222.2622
601.8870, 462.8784
603.0560, 440.4429
604.2250, 529.0801
605.3940, 462.7280
606.5620, 379.3877
607.7300, 396.0576
608.8990, 382.7383
610.0670, 342.7524
611.2350, 333.7905
612.4020, 289.8418
613.5700, 250.5630
614.7370, 216.2944
615.9050, 184.4126
617.0720, 162.7852
618.2390, 147.5454
619.4060, 101.2461
620.5720, 122.8687
621.7390, 0.3432620
622.9050, 82.11523
624.0710, 122.9170
625.2370, 60.84863
626.4030, 40.02051
627.5690, 15.80957
628.7340, 22.91992
629.9000, 20.38770
631.0650, 36.07324
632.2300, 118.2939
633.3950, 93.06934
634.5600, 94.18945
635.7240, 36.35449
636.8890, 7.254883
638.0530, 41.53320
639.2170, 114.7051
640.3810, 161.3779
641.5450, 244.2520
642.7080, 284.3564
643.8720, 297.0430
645.0350, 218.7344
646.1980, 220.4287
647.3610, 180.3975
648.5240, 124.8281
649.6870, 73.53223
650.8490, 87.24023
652.0120, 37.05078
653.1740, 61.35938
654.3360, 144.3018
655.4980, 210.9639
656.6600, 458.6279
657.8210, 533.2930
658.9830, 667.9609
660.1440, 881.6289
661.3050, 1002.298
662.4660, 1123.968
663.6270, 896.6387
664.7870, 738.3105
665.9480, 500.9834
667.1080, 505.6553
668.2680, 329.3291
669.4280, 423.0039
670.5880, 424.6777
671.7480, 344.3506
672.9070, 499.0254
674.0670, 594.7002
675.2260, 551.3740
676.3850, 607.0479
677.5440, 708.0400
678.7030, 580.0918
679.8610, 625.1230
681.0200, 819.8926
682.1780, 710.0303
683.3360, 693.7852
684.4940, 723.6230
685.6520, 789.8496
686.8090, 941.4512
687.9670, 931.1123
689.1240, 970.7920
690.2810, 752.4287
691.4380, 950.0840
692.5950, 788.7344
693.7520, 738.3838
694.9080, 808.0293
696.0650, 749.6719
697.2210, 832.3115
698.3770, 913.9492
699.5330, 967.5820
700.6880, 884.2119
701.8440, 1047.838
702.9990, 1104.461
704.1550, 1150.429
705.3100, 1288.045
706.4650, 1483.656
707.6190, 1735.398
708.7740, 1794.486
709.9290, 2029.263
711.0830, 2166.858
712.2370, 2455.546
713.3910, 2478.146
714.5450, 2422.291
715.6980, 2594.552
716.8520, 2358.157
718.0050, 2062.828
719.1580, 1772.512
720.3110, 1351.188
721.4640, 1205.871
722.6170, 898.5479
723.7700, 523.9678
724.9220, 476.6299
726.0740, 311.2832
727.2260, 304.9287
728.3780, 165.7188
729.5300, 159.3506
730.6810, 59.97461
731.8330, 228.0498
732.9840, 22.65820
734.1350, 87.24902
735.2860, 194.8330
736.4370, 151.4092
737.5880, 233.9766
738.7380, 129.5361
739.8880, 178.0879
741.0390, 227.6309
742.1890, 297.1670
743.3380, 304.6953
744.4880, 385.2148
745.6380, 363.7256
746.7870, 390.2285
747.9360, 362.2764
749.0850, 275.2080
750.2340, 253.6846
751.3830, 191.1523
752.5310, 95.61230
753.6800, 114.0635
754.8280, 109.5039
755.9760, 135.9375
757.1240, 6.361328
758.2720, 8.241211
759.4190, 90.12012
760.5670, 11.38672
761.7140, 76.71387
762.8610, 42.03223
764.0080, 57.58203
765.1550, 19.84375
766.3020, 50.74023
767.4480, 10.00098
768.5950, 27.22266
769.7410, 89.79199
770.8870, 10.26172
772.0330, 39.89941
773.1780, 69.75586
774.3240, 14.30371
775.4690, 32.85059
776.6140, 48.11621
777.7590, 65.86914
778.9040, 29.84668
780.0490, 21.81543
781.1940, 54.77148
782.3380, 52.62988
783.4820, 62.66016
784.6260, 121.5928
785.7700, 141.5176
786.9140, 224.4355
788.0580, 329.3457
789.2010, 416.2490
790.3450, 441.9658
791.4880, 251.2910
792.6310, 395.1719
793.7730, 433.0459
794.9160, 390.9131
796.0590, 510.7734
797.2010, 301.6270
798.3430, 400.4727
799.4850, 501.3125
800.6270, 445.1445
801.7690, 536.9707
802.9100, 579.7910
804.0520, 587.6045
805.1930, 598.4111
806.3340, 552.4785
807.4750, 546.0059
808.6160, 412.7939
809.7560, 334.5762
810.8970, 235.4199
812.0370, 146.1221
813.1770, 96.88672
814.3170, 16.64453
815.4570, 14.39355
816.5960, 20.63086
817.7360, 25.84180
818.8750, 70.45508
820.0140, 26.19336
821.1530, 50.16504
822.2920, 56.56641
823.4310, 15.01465
824.5690, 167.5127
825.7070, 260.0352
826.8460, 224.5518
827.9840, 324.0635
829.1220, 306.5693
830.2590, 334.0693
831.3970, 426.5645
832.5340, 418.0547
833.6710, 371.5391
834.8080, 392.0186
835.9450, 310.4932
837.0820, 288.9609
838.2190, 172.4248
839.3550, 265.8828
840.4910, 8.335938
841.6270, 87.77930
842.7630, 90.21875
843.8990, 54.34766
845.0350, 123.8223
846.1700, 55.50781
847.3060, 64.78125
848.4410, 38.95215
849.5760, 101.7197
850.7100, 78.55176
851.8450, 80.43750
852.9800, 22.37793
854.1140, 30.65820
855.2480, 84.25293
856.3820, 83.28027
857.5160, 153.3018
858.6500, 22.31738
859.7830, 96.32812
860.9170, 185.3418
862.0500, 135.3506
863.1830, 255.3535
864.3160, 202.3516
865.4480, 245.3555
866.5810, 338.3555
867.7130, 462.3496
868.8460, 354.3477
869.9780, 331.4551
871.1100, 345.4443
872.2410, 297.4297
873.3730, 411.4131
874.5050, 454.3906
875.6360, 326.3643
876.7670, 458.3359
877.8980, 384.3027
879.0290, 435.2666
880.1590, 453.2256
881.2900, 502.1826
882.4200, 419.1357
883.5500, 507.0869
884.6800, 513.0332
885.8100, 594.9775
886.9400, 708.9189
888.0690, 810.8584
889.1990, 806.7930
890.3280, 847.7246
891.4570, 969.6562
892.5860, 1164.584
893.7140, 1177.577
894.8430, 1459.656
895.9710, 1501.577
897.1000, 1830.840
898.2280, 2048.766
899.3560, 2244.267
900.4830, 2614.176
901.6110, 2961.700
902.7380, 3327.549
903.8660, 3940.998
904.9930, 4761.228
906.1200, 5682.215
907.2460, 6835.736
908.3730, 8635.585
909.5000, 10961.75
910.6260, 14054.10
911.7520, 18015.05
912.8780, 22701.64
914.0040, 28576.74
915.1290, 34404.65
916.2550, 40346.36
917.3800, 44505.46
918.5050, 44506.58
919.6300, 40871.71
920.7550, 34864.87
921.8800, 29541.02
923.0040, 24987.19
924.1290, 21573.37
925.2530, 19797.55
926.3770, 17952.75
927.5010, 16316.97
928.6250, 14413.19
929.7480, 12508.42
930.8720, 10606.66
931.9950, 9100.898
933.1180, 7605.176
934.2410, 6381.454
935.3640, 5502.756
936.4860, 4778.058
937.6090, 4246.367
938.7310, 3779.697
939.8530, 3319.066
940.9750, 3131.437
942.0970, 2862.843
943.2180, 2701.252
944.3400, 2715.667
945.4610, 2844.109
946.5820, 2790.554
947.7030, 2859.003
948.8240, 2854.453
949.9450, 2706.594
951.0650, 2442.677
952.1860, 1996.782
953.3060, 1959.157
954.4260, 1543.170
955.5460, 1331.568
956.6650, 1006.885
957.7850, 808.8145
958.9040, 786.3711
960.0230, 595.8691
961.1420, 559.3721
962.2610, 502.8779
963.3800, 368.3896
964.4990, 369.9043
965.6170, 384.4258
966.7350, 334.9492
967.8530, 293.4785
968.9710, 235.0117
970.0890, 188.5479
971.2070, 184.0908
972.3240, 258.6367
973.4410, 243.1895
974.5580, 166.7451
975.6750, 238.9580
976.7920, 166.5234
977.9090, 88.09473
979.0250, 12.46387
980.1410, 114.6328
981.2580, 3.9062999E-02
982.3740, 115.6289
983.4890, 125.1270
984.6050, 148.7129
985.7200, 30.78125
986.8360, 234.7656
987.9510, 87.42480
989.0660, 73.94531
990.1810, 148.6777
991.2950, 104.3066
992.4100, 114.9434
993.5240, 109.5889
994.6390, 90.24023
995.7530, 137.1592
996.8660, 183.5674
997.9800, 207.2422
999.0940, 212.9238
1000.207, 210.6143
1001.320, 311.3115
1002.433, 484.0176
1003.546, 383.7295
1004.659, 322.4551
1005.772, 487.1895
1006.884, 505.9297
1007.996, 540.6797
1009.108, 679.4355
1010.220, 774.6494
1011.332, 1020.973
1012.444, 1114.750
1013.555, 1376.538
1014.666, 1656.332
1015.777, 1912.135
1016.888, 1962.944
1017.999, 2169.763
1019.110, 2085.588
1020.220, 1976.423
1021.331, 1808.264
1022.441, 1520.113
1023.551, 1428.972
1024.661, 1310.836
1025.770, 1040.710
1026.880, 1027.592
1027.989, 825.4893
1029.098, 867.4746
1030.207, 660.8486
1031.316, 668.8320
1032.425, 618.7822
1033.533, 558.2861
1034.642, 542.3311
1035.750, 350.3223
1036.858, 301.5361
1037.966, 284.1172
1039.073, 441.1426
1040.181, 367.1738
1041.288, 416.2246
1042.396, 484.3018
1043.503, 376.0176
1044.610, 369.1719
1045.716, 404.0879
1046.823, 255.2402
1047.929, 433.9854
1049.036, 380.1641
1050.142, 503.3389
1051.248, 546.4082
1052.353, 822.5938
1053.459, 862.9355
1054.564, 1088.392
1055.670, 1070.172
1056.775, 1668.145
1057.880, 1930.358
1058.985, 2574.844
1060.089, 3095.125
1061.194, 3518.399
1062.298, 4101.976
1063.402, 4198.691
1064.506, 3971.853
1065.610, 3475.918
1066.713, 2841.168
1067.817, 2476.251
1068.920, 2019.508
1070.023, 1537.604
1071.126, 1240.473
1072.229, 1155.632
1073.332, 991.9004
1074.435, 949.7783
1075.537, 908.0518
1076.639, 812.7881
1077.741, 764.1572
1078.843, 746.4375
1079.945, 632.7197
1081.046, 656.0029
1082.148, 731.3799
1083.249, 613.6670
1084.350, 696.9834
1085.451, 713.8359
1086.551, 569.0723
1087.652, 621.5127
1088.752, 653.8467
1089.853, 577.2002
1090.953, 553.5752
1092.053, 536.9619
1093.152, 476.3477
1094.252, 530.7363
1095.351, 707.1250
1096.451, 607.5146
1097.550, 615.9062
1098.649, 739.2969
1099.748, 692.6963
1100.846, 633.0967
1101.945, 716.4980
1103.043, 796.8994
1104.141, 876.3018
1105.239, 922.7051
1106.337, 934.1084
1107.434, 970.5117
1108.532, 1113.919
1109.629, 964.3262
1110.726, 1024.734
1111.823, 819.0254
1112.920, 635.4902
1114.017, 649.9531
1115.113, 536.4365
1116.210, 600.9336
1117.306, 786.4629
1118.402, 739.0146
1119.498, 842.5928
1120.593, 982.1787
1121.689, 888.2031
1122.784, 912.7900
1123.879, 909.3779
1124.974, 946.9658
1126.069, 875.5527
1127.164, 786.1396
1128.259, 602.7266
1129.353, 407.3145
1130.447, 473.9014
1131.541, 398.4883
1132.635, 264.0742
1133.729, 271.6602
1134.822, 240.2461
1135.916, 108.8311
1137.009, 161.4150
1138.102, 164.8789
1139.195, 220.5820
1140.288, 253.1641
1141.380, 215.7461
1142.473, 204.3262
1143.565, 216.9062
1144.657, 172.7041
1145.749, 205.0615
1146.841, 137.6377
1147.932, 134.2129
1149.024, 175.7871
1150.115, 114.3594
1151.206, 52.93164
1152.297, 50.50195
1153.388, 21.07031
1154.479, 24.63672
1155.569, 282.2021
1156.659, 66.76660
1157.750, 78.32910
1158.839, 152.8877
1159.929, 4.446289
1161.019, 19.99805
1162.108, 12.54004
1163.198, 147.0762
1164.287, 20.39062
1165.376, 6.126953
1166.465, 113.6406
1167.553, 61.84863
1168.642, 3.377930
1169.730, 93.08398
1170.818, 95.54199
1171.906, 119.9980
1172.994, 53.45117
1174.082, 50.09766
1175.170, 23.31641
1176.257, 68.27148
1177.344, 43.09473
1178.431, 32.54395
1179.518, 31.79102
1180.605, 68.12207
1181.691, 20.54980
1182.778, 109.7568
1183.864, 71.94043
1184.950, 9.685547
1186.036, 30.44824
1187.122, 17.23828
1188.207, 41.95215
1189.292, 8.861328
1190.378, 27.30859
1191.463, 30.47363
1192.548, 9.365234
1193.632, 4.777344
1194.717, 18.08887
1195.801, 95.97656
1196.886, 67.07227
1197.970, 63.88184
1199.054, 50.11621
1200.137, 0.1093750
1201.221, 43.91016
1202.305, 127.9648
1203.388, 61.89844
1204.471, 107.2402
1205.554, 88.54980
1206.637, 7.335938
1207.719, 82.88770
1208.802, 232.8320
1209.884, 58.54785
1210.966, 98.25879
1212.048, 3.034180
1213.130, 69.65820
1214.212, 43.34570
1215.293, 6.027344
1216.374, 0.2998050
1217.456, 23.82812
1218.536, 184.0107
1219.617, 124.6592
1220.698, 169.3027
1221.778, 265.9424
1222.859, 213.5762
1223.939, 213.2061
1225.019, 366.8311
1226.099, 313.4512
1227.178, 310.0674
1228.258, 530.6777
1229.337, 457.9688
1230.417, 623.5703
1231.496, 667.1680
1232.574, 672.7598
1233.653, 691.3477
1234.732, 711.9365
1235.810, 660.5215
1236.888, 656.1074
1237.966, 480.6895
1239.044, 595.2666
1240.122, 663.8369
1241.199, 554.4170
1242.277, 712.9951
1243.354, 747.5664
1244.431, 935.1387
1245.508, 961.7070
1246.585, 948.2773
1247.661, 846.8428
1248.738, 892.4346
1249.814, 867.8828
1250.890, 927.5156
1251.966, 882.0732
1253.042, 939.6279
1254.117, 937.1758
1255.193, 778.7402
1256.268, 750.2979
1257.343, 924.8506
1258.418, 743.4004
1259.493, 783.9434
1260.567, 736.4805
1261.642, 914.0137
1262.716, 865.5420
1263.790, 882.0654
1264.864, 812.5830
1265.938, 814.0957
1267.011, 790.6035
1268.085, 859.1064
1269.158, 791.6055
1270.231, 708.0996
1271.304, 551.5889
1272.377, 647.0723
1273.450, 592.5527
1274.522, 567.0273
1275.594, 501.4971
1276.666, 477.9629
1277.738, 514.4238
1278.810, 457.8799
1279.882, 341.3320
1280.953, 548.7803
1282.025, 456.2217
1283.096, 337.6592
1284.167, 426.0928
1285.238, 408.5215
1286.308, 406.9443
1287.379, 424.3623
1288.449, 442.7656
1289.519, 332.1162
1290.589, 457.0713
1291.659, 469.4297
1292.729, 366.8223
1293.798, 457.6670
1294.868, 554.9736
1295.937, 596.3516
1297.006, 605.2715
1298.075, 448.3135
1299.143, 539.6797
1300.212, 524.0391
1301.280, 423.3945
1302.348, 537.7461
1303.416, 498.4854
1304.484, 493.7930
1305.552, 457.3418
1306.620, 463.0752
1307.687, 503.4209
1308.754, 475.7393
1309.821, 547.2969
1310.888, 559.5020
1311.955, 639.8223
1313.021, 644.9893
1314.088, 704.0430
1315.154, 421.7764
1316.220, 622.3184
1317.286, 475.6240
1318.352, 605.6602
1319.417, 528.9043
1320.483, 532.1562
1321.548, 460.1045
1322.613, 462.9160
1323.678, 508.2842
1324.743, 366.7490
1325.807, 485.0342
1326.872, 494.4873
1327.936, 318.7695
1329.000, 356.2178
1330.064, 282.8916
1331.128, 326.2822
1332.191, 222.5645
1333.255, 119.2432
1334.318, 211.5283
1335.381, 184.3545
1336.444, 100.5518
1337.507, 253.8389
1338.569, 176.1309
1339.632, 165.4131
1340.694, 298.6074
1341.756, 92.89355
1342.818, 155.1582
1343.880, 73.89941
1344.941, 227.2627
1346.003, 181.4502
1347.064, 233.7471
1348.125, 244.0449
1349.186, 61.34473
1350.247, 195.6475
1351.308, 73.95117
1352.368, 227.2578
1353.428, 118.5654
1354.489, 59.87793
1355.549, 94.19043
1356.608, 47.49316
1357.668, 174.8154
1358.727, 101.1270
1359.787, 188.4424
1360.846, 88.75977
1361.905, 79.55469
1362.964, 64.20703
1364.022, 29.42090
1365.081, 5.750000
1366.139, 36.08105
1367.197, 29.41602
1368.255, 158.6748
1369.313, 160.0156
1370.371, 191.4922
1371.428, 265.0391
1372.486, 251.5293
1373.543, 48.35059
1374.600, 159.7080
1375.657, 177.6172
1376.713, 174.9824
1377.770, 265.3525
1378.826, 165.7939
1379.882, 191.1719
1380.938, 131.5537
1381.994, 136.6621
1383.050, 131.0537
1384.106, 82.45020
1385.161, 110.9277
1386.216, 70.32422
1387.271, 126.7354
1388.326, 131.1523
1389.381, 108.5742
1390.435, 71.00195
1391.490, 296.4365
1392.544, 179.8760
1393.598, 229.3213
1394.652, 192.7725
1395.705, 134.2305
1396.759, 103.6943
1397.812, 90.73145
1398.866, 55.44824
1399.919, 48.16406
1400.972, 114.6553
1402.024, 26.18555
1403.077, 55.80273
1404.129, 139.2070
1405.181, 95.71289
1406.233, 131.2070
1407.285, 273.7090
1408.337, 355.1777
1409.389, 288.6514
1410.440, 273.1133
1411.491, 130.5576
1412.542, 205.9971
1413.593, 217.4248
1414.644, 333.8574
1415.695, 141.2148
1416.745, 124.5752
1417.795, 94.94336
1418.845, 146.3145
1419.895, 153.6855
1420.945, 115.0645
1421.995, 166.4434
1423.044, 160.0830
1424.093, 182.2861
1425.142, 177.6797
1426.191, 97.07031
1427.240, 68.45508
1428.289, 233.8379
1429.337, 90.21777
1430.385, 109.6104
1431.433, 295.0020
1432.481, 413.4180
1433.529, 231.8359
1434.577, 281.2861
1435.624, 278.7188
1436.672, 328.1572
1437.719, 481.6113
1438.766, 402.0703
1439.812, 362.5625
1440.859, 484.0713
1441.905, 437.5088
1442.952, 443.9492
1443.998, 492.0879
1445.044, 597.5049
1446.090, 689.6729
1447.135, 696.6104
1448.181, 562.1104
1449.226, 490.6631
1450.271, 597.2715
1451.316, 826.9102
1452.361, 571.6318
1453.405, 697.4346
1454.450, 667.2812
1455.494, 652.1963
1456.538, 665.1221
1457.582, 756.0684
1458.626, 751.0283
1459.670, 482.0146
1460.713, 733.0137
1461.757, 565.0234
1462.800, 422.0459
1463.843, 508.0801
1464.886, 447.1611
1465.928, 418.2002
1466.971, 344.2510
1468.013, 324.3008
1469.055, 459.3477
1470.097, 414.4082
1471.139, 330.4492
1472.181, 193.4951
1473.222, 362.5361
1474.263, 130.5781
1475.305, 252.6289
1476.346, 273.6797
1477.386, 291.7158
1478.427, 384.7363
1479.468, 227.7686
1480.508, 306.8135
1481.548, 87.86719
1482.588, 101.9346
1483.628, 107.0137
1484.668, 81.10547
1485.707, 56.20801
1486.747, 23.67773
1487.786, 74.45020
1488.825, 21.41211
1489.864, 92.74023
1490.902, 139.9062
1491.941, 41.08789
1492.979, 45.71289
1494.017, 86.50195
1495.055, 11.73730
1496.093, 17.00781
1497.131, 12.26855
1498.168, 20.36426
1499.206, 115.8828
1500.243, 4.774414
1501.280, 70.59180
1502.317, 101.9824
1503.354, 11.61035
1504.390, 207.8135
1505.426, 173.2637
1506.463, 68.26172
1507.499, 80.24023
1508.535, 70.75879
1509.570, 43.31738
1510.606, 123.9121
1511.641, 86.53516
1512.676, 87.18457
1513.711, 240.8584
1514.746, 275.5518
1515.781, 274.7666
1516.816, 281.4326
1517.850, 210.7598
1518.884, 217.5811
1519.918, 107.4248
1520.952, 146.2949
1521.986, 68.19141
1523.019, 169.1172
1524.053, 83.07129
1525.086, 99.06055
1526.119, 76.08496
1527.152, 95.99316
1528.185, 136.2422
1529.217, 144.2656
1530.250, 206.4102
1531.282, 175.4180
1532.314, 216.1465
1533.346, 203.5293
1534.377, 174.8477
1535.409, 154.4805
1536.440, 193.1016
1537.472, 231.6816
1538.503, 194.0527
1539.534, 214.2236
1540.564, 121.3252
1541.595, 225.9258
1542.625, 195.4326
1543.656, 186.8301
1544.686, 115.0996
1545.716, 316.2197
1546.745, 47.99219
1547.775, 185.7285
1548.804, 242.0635
1549.834, 156.2734
1550.863, 290.4912
1551.892, 333.7451
1552.920, 302.1045
1553.949, 385.6865
1554.977, 253.3350
1556.006, 252.0400
1557.034, 225.7314
1558.062, 7.577148
1559.089, 70.43652
1560.117, 266.2754
1561.144, 70.39648
1562.172, 86.88281
1563.199, 97.79492
1564.226, 86.02930
1565.252, 119.6191
1566.279, 176.9678
1567.305, 0.7685550
1568.332, 150.6357
1569.358, 43.20020
1570.384, 0.0000000E+00
##END=



