##NAMES=Andalusite
##RRUFFID=R060212
##IDEAL CHEMISTRY=Al_2_SiO_5_
##LOCALITY=Brazil
##OWNER=RRUFF
##SOURCE=Marcus Origlieri
##DESCRIPTION=Transparent yellow-green water-worn pebble
##STATUS=The identification of this mineral is confirmed by single-crystal X-ray diffraction and chemical analysis.
##URL=rruff.info/R060212
##MEASURED CHEMISTRY=(Al_1.98_Fe^3+^_0.02_)_Î£=2_Si_1.00_O_5_
##PIN_ID=M00061
##ORIENTATION=Laser parallel to -a* (-1 0 0). Fiducial mark perpendicular to laser is parallel to -b [0 -1 0]
99.64900, 0.0000000E+00
100.8830, 1.340820
102.1160, 46.43262
103.3490, 1.786133
104.5820, 32.73730
105.8150, 264.7734
107.0470, 500.6680
108.2800, 559.7881
109.5120, 736.6895
110.7440, 338.7764
111.9760, 66.87305
113.2080, 112.8281
114.4400, 172.6006
115.6710, 301.2588
116.9030, 133.7461
118.1340, 255.5010
119.3650, 39.70508
120.5960, 45.38965
121.8270, 135.4775
123.0580, 118.9053
124.2880, 137.6289
125.5190, 96.61719
126.7490, 216.8447
127.9790, 175.5869
129.2090, 193.3945
130.4390, 111.6748
131.6680, 188.0469
132.8980, 29.31445
134.1270, 11.49707
135.3560, 103.6182
136.5850, 40.30957
137.8140, 267.7217
139.0430, 170.7197
140.2710, 119.6924
141.5000, 110.6465
142.7280, 99.58691
143.9560, 123.5225
145.1840, 38.45410
146.4120, 71.39551
147.6390, 104.3594
148.8670, 197.3643
150.0940, 208.4189
151.3210, 243.5225
152.5490, 166.6719
153.7750, 170.8652
155.0020, 230.4785
156.2290, 267.6846
157.4550, 190.5840
158.6810, 239.4922
159.9080, 278.2656
161.1340, 345.2715
162.3590, 394.3154
163.5850, 269.6270
164.8110, 493.0146
166.0360, 332.4795
167.2610, 432.0166
168.4860, 477.6201
169.7110, 432.2871
170.9360, 437.2246
172.1610, 514.8018
173.3850, 334.6299
174.6100, 352.4668
175.8340, 309.3223
177.0580, 185.2051
178.2820, 324.1191
179.5050, 372.0684
180.7290, 421.0527
181.9520, 379.0771
183.1760, 296.1377
184.3990, 572.2373
185.6220, 608.3750
186.8450, 991.5518
188.0670, 1152.766
189.2900, 1277.018
190.5120, 1402.309
191.7340, 1121.710
192.9560, 1041.273
194.1780, 884.9531
195.4000, 845.8145
196.6220, 759.8818
197.8430, 676.1250
199.0640, 561.4277
200.2860, 720.7451
201.5070, 654.0752
202.7270, 716.4150
203.9480, 432.7656
205.1690, 257.1211
206.3890, 106.4834
207.6090, 60.85449
208.8290, 0.2304690
210.0490, 8.383789
211.2690, 91.99023
212.4890, 17.41211
213.7080, 77.17969
214.9280, 35.23926
216.1470, 39.66699
217.3660, 87.89844
218.5850, 106.5449
219.8030, 77.99707
221.0220, 52.54297
222.2400, 64.07422
223.4590, 25.59668
224.6770, 161.1113
225.8950, 67.38379
227.1120, 27.90918
228.3300, 264.5078
229.5480, 378.1133
230.7650, 561.7178
231.9820, 687.3457
233.1990, 1007.991
234.4160, 1338.605
235.6330, 1940.164
236.8490, 2263.711
238.0660, 2955.266
239.2820, 3253.828
240.4980, 3211.399
241.7140, 2990.983
242.9300, 2667.574
244.1460, 2147.178
245.3610, 1872.790
246.5770, 1628.031
247.7920, 1439.418
249.0070, 1365.041
250.2220, 1317.809
251.4370, 1131.696
252.6510, 1286.684
253.8660, 1180.759
255.0800, 1240.909
256.2940, 1225.124
257.5080, 1338.396
258.7220, 1569.722
259.9360, 1611.098
261.1490, 1482.519
262.3630, 1434.980
263.5760, 1675.479
264.7890, 1658.978
266.0020, 1801.511
267.2150, 2071.075
268.4270, 2339.669
269.6400, 2609.291
270.8520, 2849.940
272.0640, 3309.615
273.2760, 3687.313
274.4880, 4472.033
275.7000, 4985.772
276.9120, 5836.524
278.1230, 7319.123
279.3340, 9200.543
280.5450, 11039.96
281.7560, 13402.36
282.9670, 16271.62
284.1780, 21106.91
285.3880, 23511.01
286.5980, 28325.38
287.8090, 32859.34
289.0190, 36531.03
290.2290, 38335.10
291.4380, 36925.23
292.6480, 32435.99
293.8570, 26169.67
295.0670, 20286.28
296.2760, 15252.19
297.4850, 11477.25
298.6930, 8322.304
299.9020, 6351.238
301.1110, 5023.173
302.3190, 3996.065
303.5270, 3394.928
304.7350, 2735.754
305.9430, 2728.589
307.1510, 2756.377
308.3580, 2772.080
309.5660, 3632.794
310.7730, 4482.518
311.9800, 5628.254
313.1870, 6986.998
314.3940, 8260.752
315.6010, 10569.51
316.8070, 13111.29
318.0130, 15569.28
319.2200, 16786.07
320.4260, 16376.87
321.6310, 14249.67
322.8370, 11677.49
324.0430, 9129.314
325.2480, 6994.143
326.4540, 5419.117
327.6590, 4298.964
328.8640, 3632.816
330.0680, 3158.678
331.2730, 2787.545
332.4780, 2372.419
333.6820, 2445.299
334.8860, 2262.187
336.0900, 2165.081
337.2940, 2272.980
338.4980, 2264.885
339.7010, 2231.795
340.9050, 2665.710
342.1080, 2741.627
343.3110, 3200.547
344.5140, 3780.470
345.7170, 4882.395
346.9200, 5929.320
348.1220, 7467.251
349.3240, 9428.185
350.5270, 11714.35
351.7290, 14381.28
352.9310, 17043.43
354.1320, 20169.11
355.3340, 23111.05
356.5350, 24583.78
357.7370, 24491.57
358.9380, 22696.20
360.1390, 19957.17
361.3400, 16533.34
362.5400, 13482.97
363.7410, 10656.26
364.9410, 8689.213
366.1410, 6848.881
367.3410, 5538.131
368.5410, 4554.016
369.7410, 3651.834
370.9400, 3181.588
372.1400, 2626.553
373.3390, 2231.516
374.5380, 1874.481
375.7370, 1871.572
376.9360, 1645.586
378.1350, 1551.552
379.3330, 1452.940
380.5310, 1360.184
381.7300, 1323.179
382.9280, 1352.175
384.1260, 1244.162
385.3230, 1228.796
386.5210, 1143.788
387.7180, 1267.794
388.9160, 1285.220
390.1130, 1408.254
391.3100, 1466.280
392.5060, 1156.313
393.7030, 968.3564
394.9000, 796.4072
396.0960, 668.4590
397.2920, 553.5156
398.4880, 404.5752
399.6840, 352.6416
400.8800, 433.7100
402.0750, 351.7822
403.2710, 417.8594
404.4660, 378.9375
405.6610, 370.0166
406.8560, 315.0986
408.0510, 257.1816
409.2450, 416.2646
410.4400, 250.3516
411.6340, 123.4365
412.8280, 167.5215
414.0220, 288.6084
415.2160, 229.6943
416.4100, 324.7812
417.6030, 176.8662
418.7970, 206.9521
419.9900, 131.0361
421.1830, 39.11816
422.3760, 28.19727
423.5690, 45.27148
424.7610, 43.65820
425.9540, 43.28418
427.1460, 70.62207
428.3380, 69.67090
429.5300, 41.77148
430.7220, 29.09082
431.9140, 126.0508
433.1050, 68.27441
434.2970, 148.5488
435.4880, 14.91699
436.6790, 109.3076
437.8700, 91.77246
439.0610, 109.6992
440.2510, 29.16602
441.4420, 34.62598
442.6320, 234.0791
443.8220, 465.5273
445.0120, 699.9697
446.2020, 757.4082
447.3910, 943.8408
448.5810, 1316.271
449.7700, 1776.701
450.9600, 1791.130
452.1490, 1551.558
453.3370, 987.9824
454.5260, 801.4062
455.7150, 512.8281
456.9030, 196.2471
458.0910, 220.6631
459.2800, 111.0762
460.4670, 27.48633
461.6550, 114.8896
462.8430, 315.2920
464.0300, 100.6895
465.2180, 114.0840
466.4050, 250.4766
467.5920, 104.8643
468.7790, 51.26074
469.9650, 283.6494
471.1520, 260.0537
472.3380, 460.4795
473.5250, 326.8818
474.7110, 471.2822
475.8970, 523.6768
477.0820, 542.0713
478.2680, 715.4609
479.4540, 887.9111
480.6390, 687.3584
481.8240, 897.8223
483.0090, 953.3555
484.1940, 804.8848
485.3780, 717.4424
486.5630, 429.0244
487.7470, 358.5957
488.9320, 213.1670
490.1160, 172.7480
491.3000, 373.3223
492.4830, 47.92090
493.6670, 136.5645
494.8500, 52.79102
496.0340, 15.19238
497.2170, 71.59668
498.4000, 96.95508
499.5820, 46.43359
500.7650, 64.13965
501.9480, 1.280273
503.1300, 60.27734
504.3120, 76.17188
505.4940, 38.33398
506.6760, 119.8652
507.8580, 207.3857
509.0390, 84.90527
510.2210, 251.4268
511.4020, 220.9443
512.5830, 12.51465
513.7640, 309.9980
514.9450, 147.4971
516.1250, 345.9824
517.3060, 98.45410
518.4860, 117.9111
519.6660, 143.4922
520.8460, 31.06250
522.0260, 67.62695
523.2060, 123.3086
524.3850, 239.3076
525.5650, 167.8291
526.7440, 13.02832
527.9230, 251.7666
529.1020, 305.1885
530.2810, 47.35742
531.4590, 142.4678
532.6380, 185.5791
533.8160, 313.2246
534.9940, 317.7227
536.1720, 294.6348
537.3500, 470.8311
538.5270, 549.6582
539.7050, 706.8330
540.8820, 959.4893
542.0590, 1287.629
543.2360, 1621.683
544.4130, 2034.824
545.5900, 2480.064
546.7660, 2738.455
547.9430, 3172.299
549.1190, 3393.707
550.2950, 3385.533
551.4710, 3267.965
552.6470, 2899.262
553.8220, 2598.699
554.9980, 2144.482
556.1730, 1908.506
557.3480, 1393.307
558.5230, 1150.387
559.6980, 1249.789
560.8730, 1289.961
562.0470, 1034.186
563.2220, 1157.982
564.3960, 1225.709
565.5700, 1353.479
566.7440, 1555.635
567.9170, 1687.787
569.0910, 1842.188
570.2640, 2084.621
571.4380, 2043.775
572.6110, 2132.332
573.7840, 1607.160
574.9570, 1555.592
576.1290, 1184.961
577.3020, 833.6953
578.4740, 819.4844
579.6460, 738.3574
580.8180, 627.8984
581.9900, 562.2773
583.1620, 385.6562
584.3330, 242.1367
585.5040, 615.5957
586.6760, 480.1309
587.8470, 418.9961
589.0180, 434.9238
590.1880, 386.3359
591.3590, 390.4785
592.5290, 339.1836
593.7000, 392.1055
594.8700, 458.2500
596.0400, 450.2773
597.2090, 493.0918
598.3790, 476.7422
599.5490, 542.2637
600.7180, 413.0039
601.8870, 458.7031
603.0560, 394.9004
604.2250, 359.4746
605.3940, 426.2070
606.5620, 429.3867
607.7300, 435.0918
608.8990, 362.4141
610.0670, 397.6680
611.2350, 263.9922
612.4020, 166.2109
613.5700, 253.8359
614.7370, 326.7852
615.9050, 461.3223
617.0720, 555.7734
618.2390, 799.5703
619.4060, 743.3203
620.5720, 700.5723
621.7390, 936.8281
622.9050, 1039.168
624.0710, 1135.176
625.2370, 1409.242
626.4030, 1512.475
627.5690, 1548.096
628.7340, 1142.666
629.9000, 981.4766
631.0650, 978.6504
632.2300, 699.0938
633.3950, 625.6406
634.5600, 693.2031
635.7240, 633.2207
636.8890, 630.6445
638.0530, 558.8965
639.2170, 710.6230
640.3810, 756.6543
641.5450, 915.3848
642.7080, 898.1270
643.8720, 1071.119
645.0350, 1156.990
646.1980, 1010.480
647.3610, 786.1680
648.5240, 793.3516
649.6870, 798.6309
650.8490, 599.5527
652.0120, 733.4355
653.1740, 365.1016
654.3360, 490.9141
655.4980, 407.6895
656.6600, 371.4316
657.8210, 364.0078
658.9830, 248.6270
660.1440, 248.4023
661.3050, 246.5703
662.4660, 214.8516
663.6270, 24.32031
664.7870, 7.787109
665.9480, 85.19336
667.1080, 187.9160
668.2680, 7.759766
669.4280, 15.50000
670.5880, 88.29297
671.7480, 86.43555
672.9070, 192.5547
674.0670, 43.90234
675.2260, 122.1133
676.3850, 303.0977
677.5440, 138.0664
678.7030, 312.4766
679.8610, 31.34180
681.0200, 320.1602
682.1780, 81.06250
683.3360, 69.28320
684.4940, 266.2500
685.6520, 227.3516
686.8090, 115.1562
687.9670, 215.2695
689.1240, 111.9141
690.2810, 201.3906
691.4380, 228.8555
692.5950, 191.3867
693.7520, 103.8379
694.9080, 281.1445
696.0650, 91.41211
697.2210, 257.6328
698.3770, 176.8164
699.5330, 227.0703
700.6880, 209.1680
701.8440, 339.8398
702.9990, 306.3223
704.1550, 356.5391
705.3100, 361.4395
706.4650, 384.1895
707.6190, 319.0859
708.7740, 418.4551
709.9290, 615.5605
711.0830, 565.9043
712.2370, 614.6133
713.3910, 876.7148
714.5450, 722.8203
715.6980, 774.6133
716.8520, 768.4883
718.0050, 725.2656
719.1580, 726.0176
720.3110, 576.7285
721.4640, 528.6133
722.6170, 419.0391
723.7700, 351.6641
724.9220, 285.8105
726.0740, 201.3809
727.2260, 182.3105
728.3780, 76.77148
729.5300, 79.18750
730.6810, 64.55664
731.8330, 163.8750
732.9840, 106.1484
734.1350, 128.3750
735.2860, 114.5566
736.4370, 191.6914
737.5880, 81.78320
738.7380, 175.8262
739.8880, 131.3984
741.0390, 74.35352
742.1890, 200.2598
743.3380, 157.1230
744.4880, 67.94141
745.6380, 151.7109
746.7870, 7.566406
747.9360, 216.0918
749.0850, 40.29492
750.2340, 245.2305
751.3830, 3.691406
752.5310, 60.11328
753.6800, 150.4863
754.8280, 28.81445
755.9760, 82.09180
757.1240, 209.6797
758.2720, 34.37500
759.4190, 43.62109
760.5670, 252.7051
761.7140, 44.01562
762.8610, 90.31445
764.0080, 77.75586
765.1550, 299.7012
766.3020, 12.11914
767.4480, 25.52148
768.5950, 143.7617
769.7410, 84.99609
770.8870, 170.8613
772.0330, 7.123047
773.1780, 97.05078
774.3240, 54.04883
775.4690, 2.773438
776.6140, 159.4395
777.7590, 17.20312
778.9040, 123.8145
780.0490, 155.3809
781.1940, 54.91602
782.3380, 174.4043
783.4820, 102.1191
784.6260, 135.2461
785.7700, 246.5723
786.9140, 178.8594
788.0580, 59.10938
789.2010, 365.3184
790.3450, 142.4922
791.4880, 323.6348
792.6310, 461.7441
793.7730, 353.8184
794.9160, 395.8574
796.0590, 329.8672
797.2010, 247.7051
798.3430, 581.5020
799.4850, 385.2598
800.6270, 668.8496
801.7690, 531.0742
802.9100, 613.7285
804.0520, 608.6582
805.1930, 605.0000
806.3340, 626.0879
807.4750, 570.6094
808.6160, 505.2441
809.7560, 505.0195
810.8970, 199.2129
812.0370, 219.5020
813.1770, 324.3340
814.3170, 8.169922
815.4570, 138.6406
816.5960, 267.0527
817.7360, 392.9355
818.8750, 11.71289
820.0140, 137.6660
821.1530, 47.08789
822.2920, 142.9844
823.4310, 202.8594
824.5690, 117.2363
825.7070, 218.5254
826.8460, 246.2891
827.9840, 237.9316
829.1220, 210.6562
830.2590, 219.1973
831.3970, 430.3398
832.5340, 279.1973
833.6710, 369.2266
834.8080, 251.9277
835.9450, 208.2637
837.0820, 290.7812
838.2190, 86.19531
839.3550, 120.9609
840.4910, 173.6992
841.6270, 6.406250
842.7630, 29.07812
843.8990, 226.7207
845.0350, 108.3359
846.1700, 166.9199
847.3060, 103.4766
848.4410, 52.99414
849.5760, 148.4727
850.7100, 142.9102
851.8450, 221.3203
852.9800, 188.7051
854.1140, 209.7754
855.2480, 267.3887
856.3820, 238.1660
857.5160, 340.9238
858.6500, 420.1816
859.7830, 401.9453
860.9170, 560.1543
862.0500, 418.2559
863.1830, 447.9648
864.3160, 352.5684
865.4480, 341.6445
866.5810, 519.7148
867.7130, 346.6465
868.8460, 377.0840
869.9780, 413.2637
871.1100, 326.5156
872.2410, 305.6953
873.3730, 365.1816
874.5050, 335.1406
875.6360, 58.51172
876.7670, 369.6699
877.8980, 220.4980
879.0290, 470.9023
880.1590, 455.1016
881.2900, 499.8145
882.4200, 405.9688
883.5500, 337.4648
884.6800, 634.8457
885.8100, 497.2520
886.9400, 661.7168
888.0690, 549.9141
889.1990, 527.5117
890.3280, 844.6133
891.4570, 766.7598
892.5860, 889.5410
893.7140, 914.3496
894.8430, 971.6113
895.9710, 1120.982
897.1000, 1418.906
898.2280, 1495.293
899.3560, 1689.576
900.4830, 2092.650
901.6110, 2265.289
902.7380, 2522.941
903.8660, 2869.312
904.9930, 3359.295
906.1200, 4279.969
907.2460, 5120.309
908.3730, 6426.820
909.5000, 8034.625
910.6260, 10467.33
911.7520, 13492.64
912.8780, 17258.83
914.0040, 21303.88
915.1290, 25982.85
916.2550, 29973.98
917.3800, 33013.62
918.5050, 32961.85
919.6300, 30012.82
920.7550, 25257.89
921.8800, 20042.43
923.0040, 15655.69
924.1290, 12339.40
925.2530, 10147.12
926.3770, 8128.219
927.5010, 7100.922
928.6250, 6083.629
929.7480, 5505.332
930.8720, 5090.031
931.9950, 5046.721
933.1180, 4688.262
934.2410, 4892.943
935.3640, 5048.613
936.4860, 5528.281
937.6090, 5822.967
938.7310, 6521.656
939.8530, 7108.342
940.9750, 8153.025
942.0970, 9574.713
943.2180, 11365.41
944.3400, 13693.10
945.4610, 16096.80
946.5820, 18421.23
947.7030, 21130.76
948.8240, 23150.46
949.9450, 23118.15
951.0650, 22106.35
952.1860, 19519.05
953.3060, 16471.76
954.4260, 13964.33
955.5460, 10999.55
956.6650, 8762.979
957.7850, 6823.229
958.9040, 5632.766
960.0230, 4595.916
961.1420, 3829.492
962.2610, 3267.189
963.3800, 2846.857
964.4990, 2281.412
965.6170, 1938.010
966.7350, 1708.701
967.8530, 1444.389
968.9710, 1110.080
970.0890, 982.9902
971.2070, 806.3438
972.3240, 732.0273
973.4410, 578.0957
974.5580, 545.3145
975.6750, 400.7578
976.7920, 403.4727
977.9090, 313.3145
979.0250, 333.9883
980.1410, 113.1680
981.2580, 79.59766
982.3740, 153.7637
983.4890, 10.52539
984.6050, 150.8867
985.7200, 77.23242
986.8360, 200.8906
987.9510, 158.4355
989.0660, 26.92578
990.1810, 11.72461
991.2950, 27.62500
992.4100, 121.0176
993.5240, 171.3398
994.6390, 83.24414
995.7530, 49.17188
996.8660, 117.4004
997.9800, 55.97461
999.0940, 55.97852
1000.207, 333.7227
1001.320, 546.6973
1002.433, 292.2832
1003.546, 558.4277
1004.659, 241.3770
1005.772, 261.1367
1006.884, 260.9570
1007.996, 285.5566
1009.108, 474.1562
1010.220, 523.1855
1011.332, 661.0176
1012.444, 1130.629
1013.555, 1344.238
1014.666, 1428.410
1015.777, 1986.602
1016.888, 1857.576
1017.999, 2313.213
1019.110, 2058.848
1020.220, 2058.506
1021.331, 2029.168
1022.441, 1944.842
1023.551, 1465.119
1024.661, 1201.795
1025.770, 924.3555
1026.880, 735.6094
1027.989, 763.3594
1029.098, 879.3281
1030.207, 461.1426
1031.316, 513.6309
1032.425, 201.8633
1033.533, 357.7773
1034.642, 172.8867
1035.750, 304.8809
1036.858, 199.0215
1037.966, 364.6152
1039.073, 162.5625
1040.181, 256.7578
1041.288, 224.7930
1042.396, 397.0820
1043.503, 419.1230
1044.610, 109.2480
1045.716, 193.6309
1046.823, 387.7539
1047.929, 272.1777
1049.036, 589.4004
1050.142, 621.6523
1051.248, 726.8848
1052.353, 983.6484
1053.459, 1023.908
1054.564, 1343.752
1055.670, 1695.205
1056.775, 2039.859
1057.880, 2490.609
1058.985, 3213.746
1060.089, 4018.502
1061.194, 4899.523
1062.298, 5478.699
1063.402, 6011.816
1064.506, 5818.020
1065.610, 5066.121
1066.713, 4059.219
1067.817, 3260.312
1068.920, 2680.545
1070.023, 2041.025
1071.126, 1507.100
1072.229, 1430.164
1073.332, 1182.672
1074.435, 799.7246
1075.537, 834.7695
1076.639, 632.8066
1077.741, 288.4258
1078.843, 550.6641
1079.945, 695.6992
1081.046, 449.5742
1082.148, 559.5781
1083.249, 351.5820
1084.350, 645.1289
1085.451, 267.1211
1086.551, 336.1035
1087.652, 444.6465
1088.752, 346.6250
1089.853, 244.6152
1090.953, 119.5996
1092.053, 174.7109
1093.152, 177.6797
1094.252, 136.6582
1095.351, 225.6113
1096.451, 207.5586
1097.550, 422.4941
1098.649, 219.4199
1099.748, 344.3379
1100.846, 503.2500
1101.945, 442.1504
1103.043, 647.9941
1104.141, 429.9277
1105.239, 886.8008
1106.337, 992.6699
1107.434, 1013.529
1108.532, 832.3809
1109.629, 865.4082
1110.726, 869.0684
1111.823, 703.9023
1112.920, 730.7266
1114.017, 605.5430
1115.113, 433.3496
1116.210, 532.1660
1117.306, 456.9727
1118.402, 448.7734
1119.498, 612.5625
1120.593, 400.3418
1121.689, 463.6523
1122.784, 403.4121
1123.879, 368.6855
1124.974, 424.4258
1126.069, 469.6270
1127.164, 442.3457
1128.259, 266.0430
1129.353, 584.7422
1130.447, 47.42969
1131.541, 112.1094
1132.635, 8.228516
1133.729, 201.4121
1134.822, 9.958984
1135.916, 68.64453
1137.009, 18.76367
1138.102, 3.203125
1139.195, 212.3379
1140.288, 200.8672
1141.380, 244.4883
1142.473, 104.9004
1143.565, 179.4023
1144.657, 216.8906
1145.749, 28.36914
1146.841, 37.12695
1147.932, 78.33398
1149.024, 340.7793
1150.115, 272.2129
1151.206, 232.6367
1152.297, 232.9512
1153.388, 483.3125
1154.479, 66.43359
1155.569, 210.7559
1156.659, 86.06445
1157.750, 48.95703
1158.839, 205.0957
1159.929, 120.1348
1161.019, 162.5840
1162.108, 16.81445
1163.198, 83.18359
1164.287, 168.1660
1165.376, 129.1777
1166.465, 10.17578
1167.553, 124.1895
1168.642, 62.81055
1169.730, 197.1270
1170.818, 150.9492
1171.906, 213.8652
1172.994, 118.6641
1174.082, 205.4492
1175.170, 35.78320
1176.257, 151.0625
1177.344, 237.5430
1178.431, 38.86328
1179.518, 83.32422
1180.605, 19.86328
1181.691, 19.44336
1182.778, 11.88086
1183.864, 155.2656
1184.950, 12.41602
1186.036, 107.8633
1187.122, 59.12305
1188.207, 35.36523
1189.292, 298.5879
1190.378, 32.79492
1191.463, 0.9785160
1192.548, 17.12891
1193.632, 181.2559
1194.717, 159.5781
1195.801, 222.2422
1196.886, 208.5410
1197.970, 210.6035
1199.054, 146.6523
1200.137, 22.31445
1201.221, 363.6719
1202.305, 291.6426
1203.388, 74.59766
1204.471, 279.5371
1205.554, 200.4590
1206.637, 356.3633
1207.719, 7.255859
1208.802, 2.884766
1209.884, 177.9414
1210.966, 2.751953
1212.048, 206.5293
1213.130, 205.2891
1214.212, 51.03711
1215.293, 335.7656
1216.374, 185.4785
1217.456, 8.175781
1218.536, 250.8418
1219.617, 477.4941
1220.698, 529.1309
1221.778, 148.7207
1222.859, 316.3242
1223.939, 176.9160
1225.019, 388.4922
1226.099, 559.0527
1227.178, 577.5996
1228.258, 407.1309
1229.337, 1082.646
1230.417, 1317.148
1231.496, 1147.637
1232.574, 534.1074
1233.653, 641.5645
1234.732, 647.0078
1235.810, 679.4355
1236.888, 728.8496
1237.966, 687.2461
1239.044, 853.6465
1240.122, 579.0312
1241.199, 749.4023
1242.277, 829.7559
1243.354, 730.0977
1244.431, 946.4199
1245.508, 895.7305
1246.585, 902.0234
1247.661, 927.4043
1248.738, 935.6699
1249.814, 782.9180
1250.890, 831.1523
1251.966, 965.3730
1253.042, 718.5801
1254.117, 929.7715
1255.193, 678.9492
1256.268, 808.1426
1257.343, 838.3184
1258.418, 534.4863
1259.493, 874.6367
1260.567, 758.3457
1261.642, 730.3066
1262.716, 915.0254
1263.790, 801.2520
1264.864, 1072.775
1265.938, 630.6504
1267.011, 825.8965
1268.085, 867.0352
1269.158, 685.4922
1270.231, 837.6465
1271.304, 816.6426
1272.377, 638.6855
1273.450, 889.6562
1274.522, 748.6621
1275.594, 984.4941
1276.666, 764.0566
1277.738, 618.6152
1278.810, 806.5195
1279.882, 720.4082
1280.953, 650.2832
1282.025, 617.1504
1283.096, 845.0117
1284.167, 566.2559
1285.238, 514.0918
1286.308, 842.0352
1287.379, 679.2754
1288.449, 566.2754
1289.519, 568.8516
1290.589, 738.4844
1291.659, 659.6855
1292.729, 837.0645
1293.798, 1076.584
1294.868, 560.1309
1295.937, 890.8457
1297.006, 778.5625
1298.075, 680.8945
1299.143, 650.5918
1300.212, 604.4648
1301.280, 546.9395
1302.348, 576.3594
1303.416, 882.0137
1304.484, 822.6016
1305.552, 1012.930
1306.620, 622.5547
1307.687, 949.8828
1308.754, 797.3984
1309.821, 1004.875
1310.888, 919.3594
1311.955, 855.3125
1313.021, 979.7852
1314.088, 966.6680
1315.154, 763.9297
1316.220, 739.9805
1317.286, 927.9297
1318.352, 1015.480
1319.417, 773.4062
1320.483, 832.0625
1321.548, 784.5469
1322.613, 750.0742
1323.678, 842.5117
1324.743, 965.0312
1325.807, 981.5508
1326.872, 838.0625
1327.936, 598.4180
1329.000, 752.5195
1330.064, 739.0195
1331.128, 693.5195
1332.191, 398.5625
1333.255, 510.0508
1334.318, 535.5352
1335.381, 752.0195
1336.444, 423.9102
1337.507, 442.1758
1338.569, 477.6328
1339.632, 327.2461
1340.694, 644.7109
1341.756, 667.1797
1342.818, 525.1016
1343.880, 620.5703
1344.941, 529.0312
1346.003, 611.9375
1347.064, 462.3984
1348.125, 494.8594
1349.186, 446.3125
1350.247, 581.6367
1351.308, 573.0938
1352.368, 466.5352
1353.428, 287.9883
1354.489, 493.4453
1355.549, 461.9023
1356.608, 457.3516
1357.668, 657.8086
1358.727, 322.2578
1359.787, 405.6992
1360.846, 429.1484
1361.905, 219.5898
1362.964, 254.9766
1364.022, 268.3633
1365.081, 375.7461
1366.139, 427.6367
1367.197, 300.0234
1368.255, 216.4141
1369.313, 332.8047
1370.371, 557.1523
1371.428, 335.4375
1372.486, 109.6484
1373.543, 325.8594
1374.600, 62.06250
1375.657, 233.2695
1376.713, 346.4727
1377.770, 268.6719
1378.826, 197.8789
1379.882, 273.0820
1380.938, 176.2812
1381.994, 552.4883
1383.050, 211.7344
1384.106, 367.9766
1385.161, 167.1758
1386.216, 341.3789
1387.271, 249.5859
1388.326, 124.7891
1389.381, 132.9961
1390.435, 50.20703
1391.490, 94.42188
1392.544, 40.58594
1393.598, 0.9804690
1394.652, 4.093750
1395.705, 2.289063
1396.759, 46.94922
1397.812, 234.1992
1398.866, 11.75391
1399.919, 181.9883
1400.972, 68.22266
1402.024, 158.5312
1403.077, 30.66797
1404.129, 154.8828
1405.181, 265.0938
1406.233, 81.30859
1407.285, 260.7266
1408.337, 203.9688
1409.389, 216.2109
1410.440, 233.4492
1411.491, 120.8555
1412.542, 226.1328
1413.593, 86.44531
1414.644, 31.78516
1415.695, 230.1289
1416.745, 37.51953
1417.795, 57.17188
1418.845, 294.1836
1419.895, 164.4531
1420.945, 99.87891
1421.995, 168.7930
1423.044, 27.50781
1424.093, 13.81250
1425.142, 92.56250
1426.191, 30.91016
1427.240, 188.3164
1428.289, 200.6680
1429.337, 479.0273
1430.385, 325.3984
1431.433, 348.8320
1432.481, 398.2930
1433.529, 193.7734
1434.577, 154.2773
1435.624, 472.8320
1436.672, 162.3438
1437.719, 531.8828
1438.766, 419.4531
1439.812, 550.0352
1440.859, 516.6484
1441.905, 621.2734
1442.952, 774.9414
1443.998, 1035.645
1445.044, 668.3750
1446.090, 836.2070
1447.135, 834.1602
1448.181, 1073.031
1449.226, 883.9102
1450.271, 887.7930
1451.316, 811.6992
1452.361, 917.6250
1453.405, 892.8438
1454.450, 974.5039
1455.494, 957.4844
1456.538, 983.4922
1457.582, 1058.523
1458.626, 717.5625
1459.670, 800.6211
1460.713, 712.6992
1461.757, 830.7852
1462.800, 757.8867
1463.843, 678.0000
1464.886, 673.1172
1465.928, 466.2500
1466.971, 390.3945
1468.013, 678.5508
1469.055, 385.7266
1470.097, 725.8711
1471.139, 471.0312
1472.181, 350.2109
1473.222, 480.4062
1474.263, 713.4922
1475.305, 527.7266
1476.346, 407.9766
1477.386, 489.2500
1478.427, 471.5430
1479.468, 359.8594
1480.508, 371.2031
1481.548, 385.3867
1482.588, 322.7109
1483.628, 300.9766
1484.668, 253.5664
1485.707, 442.5859
1486.747, 409.9688
1487.786, 240.1133
1488.825, 438.4414
1489.864, 288.7930
1490.902, 54.86328
1491.941, 324.5078
1492.979, 409.9062
1494.017, 427.0000
1495.055, 123.3789
1496.093, 163.5898
1497.131, 96.92578
1498.168, 293.0234
1499.206, 89.57422
1500.243, 244.4961
1501.280, 258.4297
1502.317, 344.3672
1503.354, 340.0898
1504.390, 471.2773
1505.426, 239.2422
1506.463, 225.2070
1507.499, 75.17969
1508.535, 78.14062
1509.570, 169.0898
1510.606, 173.0508
1511.641, 334.0039
1512.676, 193.9648
1513.711, 135.9141
1514.746, 441.8516
1515.781, 163.7812
1516.816, 289.6953
1517.850, 556.5938
1518.884, 144.4805
1519.918, 4.343750
1520.952, 108.1875
1521.986, 93.01172
1523.019, 21.80859
1524.053, 178.5781
1525.086, 164.3125
1526.119, 98.00781
1527.152, 142.6719
1528.185, 277.3320
1529.217, 114.9609
1530.250, 180.9062
1531.282, 36.95312
1532.314, 45.46094
1533.346, 136.1914
1534.377, 252.6289
1535.409, 68.35547
1536.440, 339.1250
1537.472, 363.9219
1538.503, 230.7539
1539.534, 266.4453
1540.564, 287.1992
1541.595, 317.1523
1542.625, 395.1484
1543.656, 346.4922
1544.686, 269.3359
1545.716, 282.6641
1546.745, 315.7734
1547.775, 318.1797
1548.804, 22.35547
1549.834, 296.1094
1550.863, 229.7188
1551.892, 224.0977
1552.920, 588.8672
1553.949, 345.7344
1554.977, 131.5977
1556.006, 382.5547
1557.034, 272.5938
1558.062, 175.7031
1559.089, 393.0391
1560.117, 299.4727
1561.144, 159.4766
1562.172, 201.9453
1563.199, 349.0000
1564.226, 205.4297
1565.252, 232.6406
1566.279, 433.2617
1567.305, 348.3320
1568.332, 1.781250
1569.358, 319.1719
1570.384, 0.0000000E+00
##END=



