##NAMES=Andalusite
##RRUFFID=R050449
##IDEAL CHEMISTRY=Al_2_SiO_5_
##LOCALITY=Itinga, Minas Gerais, Brazil
##OWNER=RRUFF
##SOURCE=Marcus Origlieri
##DESCRIPTION=Green fragment
##STATUS=The identification of this mineral has been confirmed by X-ray diffraction and chemical analysis
##URL=rruff.info/R050449
##MEASURED CHEMISTRY=Al_2.00_Fe^3+^_0.01_Si_0.99_O_5_
##PIN_ID=L01352
##ORIENTATION=Laser parallel to -c* (0 0 -1). Fiducial mark perpendicular to laser is parallel to a [1 0 0]
92.24600, 0.0000000E+00
93.48000, 164.1675
94.71400, 141.0454
95.94800, 235.1309
97.18200, 104.4946
98.41600, 98.13281
99.64900, 44.56982
100.8830, 89.61426
102.1160, 91.48730
103.3490, 6.693359
104.5820, 22.18896
105.8150, 15.60889
107.0470, 176.9453
108.2800, 578.7344
109.5120, 883.9604
110.7440, 1301.761
111.9760, 844.1353
113.2080, 390.2314
114.4400, 403.1851
115.6710, 554.0762
116.9030, 654.9492
118.1340, 657.8408
119.3650, 570.7783
120.5960, 405.7856
121.8270, 280.8809
123.0580, 220.0811
124.2880, 179.5640
125.5190, 175.6719
126.7490, 229.8105
127.9790, 299.6787
129.2090, 326.4956
130.4390, 343.6094
131.6680, 382.1641
132.8980, 462.6499
134.1270, 442.7715
135.3560, 444.2217
136.5850, 452.0054
137.8140, 551.9766
139.0430, 634.1221
140.2710, 803.4375
141.5000, 850.9199
142.7280, 761.5669
143.9560, 679.3750
145.1840, 488.3433
146.4120, 368.4707
147.6390, 334.7559
148.8670, 231.1880
150.0940, 138.7686
151.3210, 111.5054
152.5490, 159.4155
153.7750, 301.5088
155.0020, 159.7847
156.2290, 181.2388
157.4550, 61.86816
158.6810, 60.66943
159.9080, 39.36084
161.1340, 117.2246
162.3590, 125.9238
163.5850, 87.46240
164.8110, 48.15967
166.0360, 137.9146
167.2610, 160.7324
168.4860, 123.6108
169.7110, 129.5454
170.9360, 103.5405
172.1610, 136.5771
173.3850, 107.6670
174.6100, 76.66992
175.8340, 118.5996
177.0580, 106.7612
178.2820, 124.7295
179.5050, 289.3057
180.7290, 195.4512
181.9520, 221.2710
183.1760, 304.0068
184.3990, 208.6133
185.6220, 466.3032
186.8450, 550.0771
188.0670, 737.9375
189.2900, 980.8848
190.5120, 1196.920
191.7340, 1204.044
192.9560, 1155.259
194.1780, 1037.564
195.4000, 1151.960
196.6220, 1157.448
197.8430, 1203.029
199.0640, 1201.703
200.2860, 1182.443
201.5070, 1302.281
202.7270, 1539.051
203.9480, 1679.919
205.1690, 1622.886
206.3890, 1084.974
207.6090, 702.2627
208.8290, 431.7397
210.0490, 235.4570
211.2690, 113.5112
212.4890, 93.90625
213.7080, 188.5117
214.9280, 219.2197
216.1470, 270.0054
217.3660, 236.8711
218.5850, 177.8159
219.8030, 174.8408
221.0220, 139.9448
222.2400, 156.6050
223.4590, 151.3979
224.6770, 223.7461
225.8950, 198.1763
227.1120, 259.6885
228.3300, 211.2832
229.5480, 270.9609
230.7650, 116.7207
231.9820, 219.5640
233.1990, 107.4893
234.4160, 120.4985
235.6330, 132.5908
236.8490, 204.7651
238.0660, 399.0234
239.2820, 555.7500
240.4980, 690.5435
241.7140, 515.3682
242.9300, 611.1777
244.1460, 504.0483
245.3610, 383.7705
246.5770, 415.5254
247.7920, 311.4873
249.0070, 164.5615
250.2220, 130.2817
251.4370, 87.63330
252.6510, 147.9795
253.8660, 41.45703
255.0800, 72.97021
256.2940, 13.68311
257.5080, 70.58887
258.7220, 87.79492
259.9360, 97.06641
261.1490, 264.0068
262.3630, 180.0264
263.5760, 52.12598
264.7890, 27.69434
266.0020, 74.43799
267.2150, 107.8906
268.4270, 14.70020
269.6400, 78.78711
270.8520, 231.3545
272.0640, 264.0020
273.2760, 273.6025
274.4880, 520.1240
275.7000, 742.7334
276.9120, 1010.429
278.1230, 1100.211
279.3340, 1444.076
280.5450, 1955.026
281.7560, 2638.057
282.9670, 3549.170
284.1780, 4765.361
285.3880, 6139.632
286.5980, 8194.981
287.8090, 10677.41
289.0190, 13557.92
290.2290, 16707.50
291.4380, 18171.17
292.6480, 17214.91
293.8570, 14530.72
295.0670, 11108.61
296.2760, 8054.580
297.4850, 5695.623
298.6930, 4006.742
299.9020, 2776.934
301.1110, 1861.199
302.3190, 1110.539
303.5270, 696.9512
304.7350, 407.4360
305.9430, 193.3999
307.1510, 3.861328
308.3580, 7.978516
309.5660, 177.1797
310.7730, 777.0181
311.9800, 1352.928
313.1870, 2241.907
314.3940, 3143.958
315.6010, 4770.078
316.8070, 6859.268
318.0130, 10154.53
319.2200, 13650.67
320.4260, 16410.59
321.6310, 16443.32
322.8370, 14064.75
324.0430, 11042.12
325.2480, 8205.925
326.4540, 5230.465
327.6590, 3620.760
328.8640, 2471.150
330.0680, 1669.438
331.2730, 1162.815
332.4780, 947.4370
333.6820, 813.6655
334.8860, 612.5259
336.0900, 502.7505
337.2940, 436.0420
338.4980, 416.3999
339.7010, 449.8247
340.9050, 530.3154
342.1080, 523.8726
343.3110, 696.4961
344.5140, 823.1865
345.7170, 1068.941
346.9200, 1343.762
348.1220, 1689.650
349.3240, 2168.605
350.5270, 3164.627
351.7290, 4188.715
352.9310, 5552.870
354.1320, 7404.089
355.3340, 9336.372
356.5350, 11526.72
357.7370, 13012.13
358.9380, 13155.60
360.1390, 12898.14
361.3400, 11170.73
362.5400, 9447.388
363.7410, 7622.104
364.9410, 6385.883
366.1410, 5207.721
367.3410, 4530.622
368.5410, 3785.581
369.7410, 3435.602
370.9400, 3103.683
372.1400, 2915.825
373.3390, 2630.027
374.5380, 2346.289
375.7370, 2288.611
376.9360, 2119.993
378.1350, 1781.435
379.3330, 1700.936
380.5310, 1573.496
381.7300, 1580.115
382.9280, 1584.795
384.1260, 1536.545
385.3230, 1813.365
386.5210, 1728.258
387.7180, 1898.221
388.9160, 1879.256
390.1130, 2208.362
391.3100, 2369.542
392.5060, 2376.793
393.7030, 2166.113
394.9000, 2091.509
396.0960, 1910.983
397.2920, 1735.527
398.4880, 1599.154
399.6840, 1437.014
400.8800, 1338.853
402.0750, 1469.991
403.2710, 1369.627
404.4660, 1497.741
405.6610, 1597.965
406.8560, 1564.288
408.0510, 1712.699
409.2450, 1692.715
410.4400, 1820.454
411.6340, 1842.163
412.8280, 2036.713
414.0220, 2155.563
415.2160, 2575.482
416.4100, 2856.470
417.6030, 3197.526
418.7970, 3160.650
419.9900, 2949.844
421.1830, 2501.104
422.3760, 2179.434
423.5690, 1740.832
424.7610, 1547.298
425.9540, 1327.830
427.1460, 1211.431
428.3380, 1091.098
429.5300, 967.8311
430.7220, 883.6318
431.9140, 741.4990
433.1050, 659.4326
434.2970, 547.4326
435.4880, 599.4980
436.6790, 665.6289
437.8700, 697.8252
439.0610, 875.0889
440.2510, 919.4180
441.4420, 1082.813
442.6320, 1196.275
443.8220, 1450.803
445.0120, 1395.398
446.2020, 1585.060
447.3910, 1650.789
448.5810, 1669.585
449.7700, 1804.457
450.9600, 1971.400
452.1490, 1846.349
453.3370, 1583.486
454.5260, 1201.692
455.7150, 729.9658
456.9030, 511.3066
458.0910, 386.7148
459.2800, 366.1914
460.4670, 125.7354
461.6550, 98.65430
462.8430, 92.01367
464.0300, 155.3398
465.2180, 51.65625
466.4050, 143.9238
467.5920, 130.1709
468.7790, 231.3984
469.9650, 264.6455
471.1520, 284.9258
472.3380, 301.2480
473.5250, 199.6191
474.7110, 159.9990
475.8970, 56.37500
477.0820, 16.70605
478.2680, 72.01758
479.4540, 77.80859
480.6390, 171.6641
481.8240, 115.5830
483.0090, 194.5664
484.1940, 143.6416
485.3780, 118.7842
486.5630, 124.0078
487.7470, 47.31934
488.9320, 149.7119
490.1160, 175.1934
491.3000, 137.7598
492.4830, 384.4150
493.6670, 320.2510
494.8500, 343.9658
496.0340, 392.8564
497.2170, 674.8252
498.4000, 817.8574
499.5820, 960.9521
500.7650, 1191.110
501.9480, 1239.327
503.1300, 1459.603
504.3120, 1497.937
505.4940, 1870.330
506.6760, 1896.780
507.8580, 2166.979
509.0390, 2221.854
510.2210, 2580.479
511.4020, 2596.158
512.5830, 2638.896
513.7640, 2596.688
514.9450, 2701.537
516.1250, 2478.442
517.3060, 2432.402
518.4860, 2449.418
519.6660, 2413.488
520.8460, 2406.613
522.0260, 2480.793
523.2060, 2514.026
524.3850, 2554.313
525.5650, 2560.654
526.7440, 2694.048
527.9230, 2604.493
529.1020, 2834.991
530.2810, 2951.542
531.4590, 3196.144
532.6380, 3411.798
533.8160, 3631.501
534.9940, 3932.256
536.1720, 4243.061
537.3500, 4676.914
538.5270, 4915.817
539.7050, 5455.037
540.8820, 5834.506
542.0590, 6262.709
543.2360, 6724.467
544.4130, 7250.328
545.5900, 7688.287
546.7660, 8183.421
547.9430, 8479.101
549.1190, 9127.952
550.2950, 9575.264
551.4710, 10032.91
552.6470, 9975.033
553.8220, 9634.153
554.9980, 9016.713
556.1730, 8578.312
557.3480, 7999.951
558.5230, 7730.625
559.6980, 7240.338
560.8730, 6955.088
562.0470, 6575.875
563.2220, 6342.698
564.3960, 6374.557
565.5700, 6399.451
566.7440, 6291.381
567.9170, 6454.344
569.0910, 6342.341
570.2640, 6612.373
571.4380, 6523.438
572.6110, 6515.535
573.7840, 6272.666
574.9570, 6259.836
576.1290, 6092.051
577.3020, 5831.329
578.4740, 5764.689
579.6460, 5197.144
580.8180, 5103.680
581.9900, 4731.363
583.1620, 4449.133
584.3330, 4304.041
585.5040, 3985.074
586.6760, 4044.233
587.8470, 3706.522
589.0180, 3658.932
590.1880, 3442.452
591.3590, 3360.075
592.5290, 3390.787
593.7000, 3212.580
594.8700, 3218.451
596.0400, 3065.384
597.2090, 3174.366
598.3790, 3187.396
599.5490, 3249.465
600.7180, 3180.563
601.8870, 3285.688
603.0560, 3495.027
604.2250, 3582.657
605.3940, 3776.566
606.5620, 4040.343
607.7300, 4250.205
608.8990, 4501.939
610.0670, 4780.570
611.2350, 5024.977
612.4020, 5248.336
613.5700, 5562.967
614.7370, 5657.892
615.9050, 5887.879
617.0720, 6338.207
618.2390, 6334.068
619.4060, 6565.009
620.5720, 6631.445
621.7390, 6656.211
622.9050, 6729.730
624.0710, 6845.669
625.2370, 6999.760
626.4030, 7102.490
627.5690, 7270.464
628.7340, 7409.579
629.9000, 7449.644
631.0650, 7553.463
632.2300, 7571.125
633.3950, 7624.610
634.5600, 7453.209
635.7240, 7458.505
636.8890, 7135.895
638.0530, 7176.322
639.2170, 6969.449
640.3810, 6632.715
641.5450, 6578.340
642.7080, 6559.965
643.8720, 6362.596
645.0350, 6508.229
646.1980, 6127.862
647.3610, 6212.498
648.5240, 6173.135
649.6870, 5954.771
650.8490, 5693.410
652.0120, 5141.046
653.1740, 4688.682
654.3360, 4275.314
655.4980, 3639.947
656.6600, 3361.576
657.8210, 3153.203
658.9830, 2806.825
660.1440, 2717.442
661.3050, 2597.057
662.4660, 2365.664
663.6270, 2058.266
664.7870, 1786.862
665.9480, 1365.451
667.1080, 842.0332
668.2680, 839.6074
669.4280, 497.1738
670.5880, 440.7314
671.7480, 297.2793
672.9070, 180.8174
674.0670, 156.3467
675.2260, 149.8633
676.3850, 94.37012
677.5440, 161.8652
678.7030, 27.65234
679.8610, 119.2080
681.0200, 129.8428
682.1780, 32.56738
683.3360, 86.33301
684.4940, 86.16797
685.6520, 130.0703
686.8090, 104.0645
687.9670, 45.13867
689.1240, 120.2646
690.2810, 107.4795
691.4380, 62.77832
692.5950, 10.86133
693.7520, 69.47168
694.9080, 126.0645
696.0650, 103.6377
697.2210, 154.9170
698.3770, 204.7246
699.5330, 200.2393
700.6880, 308.7324
701.8440, 347.2051
702.9990, 376.6553
704.1550, 438.0850
705.3100, 550.4922
706.4650, 543.8770
707.6190, 794.2393
708.7740, 920.5771
709.9290, 873.8916
711.0830, 990.1826
712.2370, 1350.585
713.3910, 1456.107
714.5450, 1662.111
715.6980, 1964.393
716.8520, 1837.446
718.0050, 1808.469
719.1580, 1675.059
720.3110, 1374.427
721.4640, 1183.457
722.6170, 813.8291
723.7700, 509.1758
724.9220, 423.8291
726.0740, 452.2373
727.2260, 237.8984
728.3780, 311.8779
729.5300, 244.9922
730.6810, 305.6445
731.8330, 408.8770
732.9840, 334.4004
734.1350, 527.3955
735.2860, 398.6191
736.4370, 534.1455
737.5880, 473.9297
738.7380, 507.1670
739.8880, 430.0039
741.0390, 414.6582
742.1890, 342.2725
743.3380, 308.9443
744.4880, 256.6221
745.6380, 202.2090
746.7870, 265.3721
747.9360, 262.4658
749.0850, 248.5469
750.2340, 252.6182
751.3830, 247.6855
752.5310, 336.7520
753.6800, 295.8018
754.8280, 315.8242
755.9760, 305.8037
757.1240, 267.7314
758.2720, 384.5967
759.4190, 292.4102
760.5670, 332.1631
761.7140, 65.86230
762.8610, 258.4482
764.0080, 118.9707
765.1550, 86.39746
766.3020, 109.7207
767.4480, 85.94531
768.5950, 92.81055
769.7410, 73.07715
770.8870, 131.9795
772.0330, 100.7900
773.1780, 175.4971
774.3240, 137.1230
775.4690, 269.6572
776.6140, 292.1250
777.7590, 282.5293
778.9040, 418.8691
780.0490, 406.1523
781.1940, 380.3760
782.3380, 460.5430
783.4820, 604.6514
784.6260, 566.7012
785.7700, 758.6943
786.9140, 738.6289
788.0580, 730.5049
789.2010, 870.3223
790.3450, 1000.083
791.4880, 1103.785
792.6310, 1098.428
793.7730, 1273.013
794.9160, 1434.538
796.0590, 1540.005
797.2010, 1843.414
798.3430, 1874.765
799.4850, 2141.057
800.6270, 2413.290
801.7690, 2571.466
802.9100, 2899.582
804.0520, 3258.639
805.1930, 3796.638
806.3340, 4044.577
807.4750, 4612.459
808.6160, 5086.282
809.7560, 5371.047
810.8970, 5958.753
812.0370, 6518.400
813.1770, 7365.988
814.3170, 8048.520
815.4570, 8965.992
816.5960, 9606.138
817.7360, 10243.02
818.8750, 10640.18
820.0140, 10965.77
821.1530, 10995.25
822.2920, 10716.63
823.4310, 9983.339
824.5690, 9472.467
825.7070, 8558.926
826.8460, 7729.909
827.9840, 7084.545
829.1220, 6194.709
830.2590, 5522.856
831.3970, 4948.553
832.5340, 4613.198
833.6710, 4112.791
834.8080, 3594.331
835.9450, 3333.820
837.0820, 2881.256
838.2190, 2594.642
839.3550, 2018.974
840.4910, 1762.256
841.6270, 1439.486
842.7630, 1145.665
843.8990, 806.7949
845.0350, 714.8721
846.1700, 547.8984
847.3060, 522.8760
848.4410, 248.8027
849.5760, 147.6777
850.7100, 78.48828
851.8450, 9.776367
852.9800, 71.15723
854.1140, 135.6855
855.2480, 82.39355
856.3820, 335.2539
857.5160, 108.3984
858.6500, 306.7051
859.7830, 260.2803
860.9170, 267.0967
862.0500, 281.1582
863.1830, 255.4707
864.3160, 215.0195
865.4480, 155.7812
866.5810, 182.7354
867.7130, 114.8730
868.8460, 106.1680
869.9780, 52.61523
871.1100, 11.18359
872.2410, 2.852539
873.3730, 23.39453
874.5050, 57.56836
875.6360, 135.6846
876.7670, 146.7568
877.8980, 143.2227
879.0290, 127.7656
880.1590, 119.6729
881.2900, 120.0596
882.4200, 161.4639
883.5500, 238.8457
884.6800, 354.1426
885.8100, 463.2100
886.9400, 459.2754
888.0690, 518.2197
889.1990, 667.8281
890.3280, 816.1777
891.4570, 871.6289
892.5860, 915.9609
893.7140, 1233.896
894.8430, 1411.315
895.9710, 1682.390
897.1000, 1970.687
898.2280, 2212.757
899.3560, 2653.234
900.4830, 3054.363
901.6110, 3665.031
902.7380, 4116.633
903.8660, 4625.271
904.9930, 5385.133
906.1200, 5883.132
907.2460, 6889.290
908.3730, 8073.314
909.5000, 9637.621
910.6260, 11342.82
911.7520, 13493.96
912.8780, 16197.38
914.0040, 19649.64
915.1290, 24217.53
916.2550, 29528.40
917.3800, 35323.24
918.5050, 39774.07
919.6300, 40760.88
920.7550, 38183.66
921.8800, 33311.43
923.0040, 28262.18
924.1290, 24078.91
925.2530, 21641.63
926.3770, 19955.32
927.5010, 18398.01
928.6250, 16924.68
929.7480, 15198.33
930.8720, 13185.97
931.9950, 11173.60
933.1180, 9487.211
934.2410, 8046.812
935.3640, 6862.403
936.4860, 6015.983
937.6090, 5166.553
938.7310, 4624.113
939.8530, 4205.664
940.9750, 3758.205
942.0970, 3400.738
943.2180, 3285.265
944.3400, 2796.783
945.4610, 2922.297
946.5820, 2957.805
947.7030, 2829.306
948.8240, 2725.803
949.9450, 2759.295
951.0650, 2429.785
952.1860, 2508.282
953.3060, 2304.812
954.4260, 2260.377
955.5460, 2079.953
956.6650, 1695.556
957.7850, 1599.186
958.9040, 1539.853
960.0230, 1277.553
961.1420, 1413.271
962.2610, 1384.026
963.3800, 1252.818
964.4990, 1294.634
965.6170, 1373.458
966.7350, 1225.285
967.8530, 1186.117
968.9710, 1384.954
970.0890, 1411.797
971.2070, 1300.644
972.3240, 1523.496
973.4410, 1690.356
974.5580, 1648.222
975.6750, 1659.096
976.7920, 1718.979
977.9090, 1731.870
979.0250, 1751.770
980.1410, 1753.779
981.2580, 1728.819
982.3740, 1735.530
983.4890, 1674.334
984.6050, 1674.007
985.7200, 1680.183
986.8360, 1707.101
987.9510, 1806.172
989.0660, 1871.292
990.1810, 1934.832
991.2950, 2145.582
992.4100, 2195.657
993.5240, 2318.377
994.6390, 2656.111
995.7530, 3074.527
996.8660, 3363.176
997.9800, 4120.559
999.0940, 4851.611
1000.207, 5932.521
1001.320, 7058.880
1002.433, 8284.647
1003.546, 9514.111
1004.659, 10590.09
1005.772, 10685.84
1006.884, 10553.56
1007.996, 9607.128
1009.108, 8129.516
1010.220, 7239.559
1011.332, 5855.826
1012.444, 4979.667
1013.555, 4456.962
1014.666, 4076.234
1015.777, 3674.594
1016.888, 3555.518
1017.999, 3499.460
1019.110, 3570.384
1020.220, 3339.354
1021.331, 2997.371
1022.441, 3004.438
1023.551, 2679.550
1024.661, 2488.708
1025.770, 2249.912
1026.880, 2204.165
1027.989, 1836.467
1029.098, 1824.911
1030.207, 1878.322
1031.316, 1715.905
1032.425, 1570.480
1033.533, 1509.128
1034.642, 1493.848
1035.750, 1480.659
1036.858, 1360.568
1037.966, 1508.582
1039.073, 1684.710
1040.181, 1416.954
1041.288, 1386.293
1042.396, 1070.749
1043.503, 1141.312
1044.610, 841.9971
1045.716, 768.7725
1046.823, 830.6455
1047.929, 830.6064
1049.036, 661.6416
1050.142, 678.7617
1051.248, 659.9355
1052.353, 547.2148
1053.459, 557.5557
1054.564, 712.9609
1055.670, 749.4551
1056.775, 1100.005
1057.880, 1226.614
1058.985, 1528.298
1060.089, 2412.061
1061.194, 2580.901
1062.298, 3189.840
1063.402, 3675.848
1064.506, 3989.920
1065.610, 3728.050
1066.713, 3524.240
1067.817, 2972.512
1068.920, 2433.853
1070.023, 2044.250
1071.126, 1650.729
1072.229, 1479.267
1073.332, 1232.877
1074.435, 1119.549
1075.537, 1015.279
1076.639, 1064.066
1077.741, 949.9189
1078.843, 775.8281
1079.945, 703.7998
1081.046, 843.8281
1082.148, 727.9150
1083.249, 727.0605
1084.350, 586.2695
1085.451, 396.5371
1086.551, 558.8672
1087.652, 397.2549
1088.752, 406.7002
1089.853, 246.2031
1090.953, 280.7646
1092.053, 335.3828
1093.152, 330.0586
1094.252, 164.7920
1095.351, 207.5830
1096.451, 258.4316
1097.550, 119.3369
1098.649, 176.2988
1099.748, 151.3174
1100.846, 142.3232
1101.945, 188.5283
1103.043, 205.7188
1104.141, 277.9668
1105.239, 374.2715
1106.337, 386.6348
1107.434, 370.0547
1108.532, 242.5312
1109.629, 512.0664
1110.726, 376.6582
1111.823, 267.3086
1112.920, 391.0146
1114.017, 110.7783
1115.113, 164.5986
1116.210, 206.4785
1117.306, 250.4209
1118.402, 248.4346
1119.498, 207.5381
1120.593, 328.7480
1121.689, 270.0801
1122.784, 398.5205
1123.879, 458.1357
1124.974, 392.8652
1126.069, 444.7607
1127.164, 475.8105
1128.259, 367.0156
1129.353, 417.3789
1130.447, 535.2920
1131.541, 944.5459
1132.635, 727.3232
1133.729, 498.2305
1134.822, 292.2490
1135.916, 129.5156
1137.009, 20.41797
1138.102, 102.0996
1139.195, 107.7295
1140.288, 66.05176
1141.380, 81.61719
1142.473, 6.713867
1143.565, 53.69824
1144.657, 6.0547002E-02
1145.749, 76.63379
1146.841, 10.38281
1147.932, 15.81348
1149.024, 86.95801
1150.115, 61.93945
1151.206, 32.88965
1152.297, 72.88965
1153.388, 102.9414
1154.479, 33.04492
1155.569, 79.19824
1156.659, 88.40234
1157.750, 134.6582
1158.839, 18.96191
1159.929, 10.32520
1161.019, 27.07910
1162.108, 11.45996
1163.198, 255.7979
1164.287, 246.1855
1165.376, 243.5234
1166.465, 309.9492
1167.553, 275.6387
1168.642, 268.2061
1169.730, 336.6650
1170.818, 263.5117
1171.906, 269.7334
1172.994, 244.6152
1174.082, 305.7686
1175.170, 334.6475
1176.257, 348.6855
1177.344, 419.4492
1178.431, 408.3896
1179.518, 396.1689
1180.605, 440.5615
1181.691, 445.9727
1182.778, 405.0928
1183.864, 544.4629
1184.950, 418.2949
1186.036, 527.2939
1187.122, 444.8652
1188.207, 594.4150
1189.292, 495.9395
1190.378, 457.5273
1191.463, 503.3174
1192.548, 424.4873
1193.632, 482.9736
1194.717, 528.1748
1195.801, 544.0703
1196.886, 668.9658
1197.970, 413.5400
1199.054, 527.9941
1200.137, 420.8330
1201.221, 517.1484
1202.305, 536.1455
1203.388, 429.1670
1204.471, 892.1787
1205.554, 604.1621
1206.637, 715.7734
1207.719, 407.9912
1208.802, 471.9590
1209.884, 575.5898
1210.966, 424.4580
1212.048, 280.3447
1213.130, 389.2480
1214.212, 178.6152
1215.293, 290.6377
1216.374, 358.1611
1217.456, 244.3652
1218.536, 358.3486
1219.617, 424.3477
1220.698, 288.3604
1221.778, 348.3877
1222.859, 315.4277
1223.939, 178.4805
1225.019, 331.5469
1226.099, 289.6260
1227.178, 96.71484
1228.258, 120.8164
1229.337, 94.92871
1230.417, 172.0537
1231.496, 217.1895
1232.574, 243.3359
1233.653, 94.49316
1234.732, 144.6777
1235.810, 177.8721
1236.888, 42.07422
1237.966, 143.2871
1239.044, 40.51465
1240.122, 181.7510
1241.199, 153.9980
1242.277, 190.2559
1243.354, 224.8271
1244.431, 120.8057
1245.508, 228.0908
1246.585, 187.3848
1247.661, 149.6875
1248.738, 19.99316
1249.814, 195.3027
1250.890, 35.61426
1251.966, 205.9268
1253.042, 183.2666
1254.117, 242.6074
1255.193, 176.9541
1256.268, 199.3008
1257.343, 212.6475
1258.418, 170.9932
1259.493, 270.3398
1260.567, 260.6846
1261.642, 154.0439
1262.716, 279.3965
1263.790, 238.7412
1264.864, 292.0840
1265.938, 252.4170
1267.011, 201.7432
1268.085, 155.7695
1269.158, 293.6641
1270.231, 270.2656
1271.304, 233.5908
1272.377, 143.8506
1273.450, 219.5742
1274.522, 263.7812
1275.594, 187.0127
1276.666, 235.2295
1277.738, 210.3057
1278.810, 164.4277
1279.882, 78.60059
1280.953, 200.7578
1282.025, 45.89844
1283.096, 138.0205
1284.167, 209.1240
1285.238, 113.2100
1286.308, 46.27734
1287.379, 48.39258
1288.449, 15.45020
1289.519, 39.62891
1290.589, 69.41211
1291.659, 15.62402
1292.729, 30.79102
1293.798, 22.98438
1294.868, 25.81055
1295.937, 59.13086
1297.006, 70.41699
1298.075, 97.90332
1299.143, 101.4824
1300.212, 41.18652
1301.280, 112.9561
1302.348, 114.8408
1303.416, 139.9541
1304.484, 68.97754
1305.552, 109.2080
1306.620, 54.55762
1307.687, 17.99707
1308.754, 57.51074
1309.821, 80.88086
1310.888, 128.7617
1311.955, 55.45996
1313.021, 25.63672
1314.088, 57.24414
1315.154, 99.77539
1316.220, 62.75879
1317.286, 3.697266
1318.352, 11.43652
1319.417, 12.89941
1320.483, 80.94531
1321.548, 30.63867
1322.613, 62.15918
1323.678, 115.6377
1324.743, 76.06250
1325.807, 0.4433590
1326.872, 41.74902
1327.936, 153.9951
1329.000, 6.787109
1330.064, 139.3721
1331.128, 37.50000
1332.191, 91.58398
1333.255, 216.6260
1334.318, 208.6367
1335.381, 92.61816
1336.444, 189.5645
1337.507, 121.4814
1338.569, 240.3643
1339.632, 269.2158
1340.694, 314.0361
1341.756, 102.8271
1342.818, 220.5791
1343.880, 148.2988
1344.941, 190.7637
1346.003, 354.6328
1347.064, 294.2490
1348.125, 374.8320
1349.186, 339.3799
1350.247, 429.8926
1351.308, 321.3691
1352.368, 360.8086
1353.428, 354.2119
1354.489, 477.5781
1355.549, 368.9072
1356.608, 380.2920
1357.668, 526.1016
1358.727, 466.3613
1359.787, 537.1582
1360.846, 523.2891
1361.905, 577.8076
1362.964, 473.1533
1364.022, 615.3662
1365.081, 403.1758
1366.139, 629.6523
1367.197, 572.2197
1368.255, 613.3652
1369.313, 669.9268
1370.371, 674.1230
1371.428, 659.1572
1372.486, 617.5918
1373.543, 725.5166
1374.600, 485.2930
1375.657, 687.1025
1376.713, 667.9316
1377.770, 583.5195
1378.826, 665.1660
1379.882, 619.8701
1380.938, 606.6475
1381.994, 643.8057
1383.050, 693.8066
1384.106, 580.6514
1385.161, 658.9238
1386.216, 736.5771
1387.271, 490.3799
1388.326, 535.2207
1389.381, 649.7588
1390.435, 600.9170
1391.490, 494.5234
1392.544, 610.4150
1393.598, 682.8311
1394.652, 461.6846
1395.705, 622.4717
1396.759, 686.2441
1397.812, 539.9678
1398.866, 616.9033
1399.919, 540.7021
1400.972, 576.5605
1402.024, 581.7119
1403.077, 493.2549
1404.129, 563.3467
1405.181, 514.8018
1406.233, 501.1641
1407.285, 529.4766
1408.337, 440.7197
1409.389, 565.8945
1410.440, 494.9912
1411.491, 438.0176
1412.542, 469.9893
1413.593, 383.9033
1414.644, 587.6729
1415.695, 324.9990
1416.745, 421.6143
1417.795, 509.1250
1418.845, 440.7393
1419.895, 469.2021
1420.945, 285.6729
1421.995, 591.0293
1423.044, 356.1055
1424.093, 555.2793
1425.142, 502.5303
1426.191, 476.3535
1427.240, 504.7568
1428.289, 454.4658
1429.337, 485.1602
1430.385, 503.3740
1431.433, 509.4277
1432.481, 556.6387
1433.529, 533.1064
1434.577, 520.7021
1435.624, 562.6553
1436.672, 526.5586
1437.719, 567.7178
1438.766, 625.5986
1439.812, 682.9883
1440.859, 529.1826
1441.905, 745.7842
1442.952, 642.3867
1443.998, 765.3496
1445.044, 676.8838
1446.090, 656.2158
1447.135, 744.0420
1448.181, 736.4346
1449.226, 831.8926
1450.271, 683.9053
1451.316, 695.1025
1452.361, 691.1504
1453.405, 643.4531
1454.450, 705.3662
1455.494, 685.6045
1456.538, 755.5625
1457.582, 820.2832
1458.626, 784.9541
1459.670, 741.9443
1460.713, 721.4355
1461.757, 634.8564
1462.800, 643.8574
1463.843, 534.4844
1464.886, 635.6904
1465.928, 611.8232
1466.971, 607.8740
1468.013, 661.8271
1469.055, 673.6777
1470.097, 483.4355
1471.139, 420.0957
1472.181, 450.6494
1473.222, 392.1064
1474.263, 533.4600
1475.305, 460.5410
1476.346, 368.8975
1477.386, 412.9199
1478.427, 288.8281
1479.468, 285.6328
1480.508, 344.3232
1481.548, 213.8643
1482.588, 124.2969
1483.628, 222.6240
1484.668, 113.8535
1485.707, 308.9873
1486.747, 15.98242
1487.786, 157.9414
1488.825, 177.7578
1489.864, 86.46484
1490.902, 44.06934
1491.941, 95.57129
1492.979, 51.96875
1494.017, 85.15527
1495.055, 9.882813
1496.093, 133.1152
1497.131, 78.41602
1498.168, 42.62305
1499.206, 45.98047
1500.243, 135.4980
1501.280, 119.2129
1502.317, 165.1846
1503.354, 140.5146
1504.390, 61.28613
1505.426, 101.1787
1506.463, 12.75684
1507.499, 67.46875
1508.535, 77.22656
1509.570, 42.17578
1510.606, 22.30957
1511.641, 69.53711
1512.676, 39.14453
1513.711, 90.24805
1514.746, 151.6172
1515.781, 15.94824
1516.816, 319.2559
1517.850, 86.50684
1518.884, 188.7041
1519.918, 292.8496
1520.952, 192.9492
1521.986, 291.0078
1523.019, 137.0332
1524.053, 161.0312
1525.086, 138.0098
1526.119, 82.48926
1527.152, 232.6875
1528.185, 78.95605
1529.217, 254.1133
1530.250, 354.1152
1531.282, 260.5684
1532.314, 307.1885
1533.346, 262.0039
1534.377, 348.2051
1535.409, 200.2656
1536.440, 162.0117
1537.472, 217.0020
1538.503, 214.4189
1539.534, 211.3721
1540.564, 197.2627
1541.595, 180.6133
1542.625, 238.9199
1543.656, 185.1318
1544.686, 143.4395
1545.716, 298.7793
1546.745, 218.2158
1547.775, 246.8906
1548.804, 225.0693
1549.834, 285.2822
1550.863, 309.3242
1551.892, 232.5205
1552.920, 364.3271
1553.949, 314.9492
1554.977, 363.9482
1556.006, 289.6777
1557.034, 287.4883
1558.062, 357.3213
1559.089, 253.4570
1560.117, 197.3174
1561.144, 191.2812
1562.172, 115.7939
1563.199, 132.6289
1564.226, 123.0469
1565.252, 100.0908
1566.279, 22.70605
1567.305, 3.787109
1568.332, 139.8330
1569.358, 25.70020
1570.384, 196.1025
1571.409, 0.0000000E+00
##END=



