##NAMES=Andalusite
##RRUFFID=R050258
##IDEAL CHEMISTRY=Al_2_SiO_5_
##LOCALITY=Bautista Canyon, near Hemet, Riverside County, California, USA
##OWNER=RRUFF
##SOURCE=Marcus Origlieri
##DESCRIPTION=Brown fragment
##STATUS=The identification of this mineral has been confirmed by X-ray diffraction and chemical analysis
##URL=rruff.info/R050258
##MEASURED CHEMISTRY=Al_2.00_Si_1.00_O_5_
##PIN_ID=L01170
##ORIENTATION=Laser parallel to a* (1 0 0). Fiducial mark perpendicular to laser is parallel to -b [0 -1 0]
113.2080, 0.0000000E+00
114.4400, 0.7548830
115.6710, 207.5791
116.9030, 52.59570
118.1340, 123.3271
119.3650, 209.3105
120.5960, 15.88379
121.8270, 21.83496
123.0580, 110.5156
124.2880, 35.45312
125.5190, 257.6074
126.7490, 112.6768
127.9790, 143.4248
129.2090, 183.6611
130.4390, 191.2227
131.6680, 258.9775
132.8980, 233.8135
134.1270, 393.6289
135.3560, 325.3311
136.5850, 247.8418
137.8140, 316.0967
139.0430, 184.0381
140.2710, 388.6172
141.5000, 394.7910
142.7280, 240.5195
143.9560, 427.7695
145.1840, 294.5098
146.4120, 233.7129
147.6390, 304.3574
148.8670, 425.4189
150.0940, 360.8779
151.3210, 413.7031
152.5490, 355.8613
153.7750, 400.3262
155.0020, 367.2285
156.2290, 342.0977
157.4550, 312.3740
158.6810, 334.8975
159.9080, 318.6621
161.1340, 423.6680
162.3590, 391.9053
163.5850, 227.3643
164.8110, 364.0371
166.0360, 302.9150
167.2610, 460.9941
168.4860, 339.2705
169.7110, 395.7354
170.9360, 416.3828
172.1610, 281.2051
173.3850, 246.2021
174.6100, 303.3662
175.8340, 250.0879
177.0580, 400.2012
178.2820, 286.8682
179.5050, 285.6973
180.7290, 330.6816
181.9520, 434.8164
183.1760, 470.1006
184.3990, 238.5303
185.6220, 368.0986
186.8450, 375.7666
188.0670, 615.4102
189.2900, 506.0547
190.5120, 568.7168
191.7340, 569.3984
192.9560, 607.1191
194.1780, 580.8828
195.4000, 471.6992
196.6220, 616.5703
197.8430, 729.5039
199.0640, 576.4980
200.2860, 418.5586
201.5070, 453.6855
202.7270, 614.8906
203.9480, 623.3086
205.1690, 590.8418
206.3890, 572.4668
207.6090, 414.2676
208.8290, 486.1875
210.0490, 321.1680
211.2690, 86.21289
212.4890, 139.3203
213.7080, 218.4941
214.9280, 139.7305
216.1470, 306.0430
217.3660, 274.4316
218.5850, 421.8965
219.8030, 164.4785
221.0220, 107.1406
222.2400, 178.8574
223.4590, 122.6348
224.6770, 246.4688
225.8950, 94.36133
227.1120, 194.3125
228.3300, 121.3184
229.5480, 252.3828
230.7650, 311.5078
231.9820, 272.7461
233.1990, 375.0391
234.4160, 338.3848
235.6330, 494.8672
236.8490, 483.4785
238.0660, 573.1836
239.2820, 646.0449
240.4980, 569.9492
241.7140, 698.9082
242.9300, 574.9082
244.1460, 534.9980
245.3610, 568.1562
246.5770, 519.3555
247.7920, 533.5918
249.0070, 430.8691
250.2220, 584.1895
251.4370, 374.6152
252.6510, 305.0762
253.8660, 476.5762
255.0800, 355.1113
256.2940, 449.6816
257.5080, 468.2891
258.7220, 417.9316
259.9360, 398.6641
261.1490, 533.6699
262.3630, 720.5117
263.5760, 667.6094
264.7890, 628.8945
266.0020, 591.3945
267.2150, 689.0879
268.4270, 688.6152
269.6400, 871.6465
270.8520, 870.8262
272.0640, 1036.146
273.2760, 1459.596
274.4880, 1588.170
275.7000, 2068.855
276.9120, 2407.656
278.1230, 2686.557
279.3340, 2908.559
280.5450, 3303.656
281.7560, 4119.844
282.9670, 4898.115
284.1780, 6225.473
285.3880, 7527.910
286.5980, 9031.424
287.8090, 11050.02
289.0190, 13125.70
290.2290, 15567.61
291.4380, 17615.65
292.6480, 18017.48
293.8570, 16465.76
295.0670, 14637.72
296.2760, 11834.77
297.4850, 9269.129
298.6930, 7167.191
299.9020, 5400.697
301.1110, 3835.027
302.3190, 2970.346
303.5270, 2317.715
304.7350, 2015.133
305.9430, 1831.598
307.1510, 1574.111
308.3580, 1259.672
309.5660, 1227.273
310.7730, 1701.922
311.9800, 1798.613
313.1870, 2304.346
314.3940, 2925.119
315.6010, 3579.934
316.8070, 4241.787
318.0130, 5465.715
319.2200, 6739.646
320.4260, 8166.611
321.6310, 9000.613
322.8370, 8336.910
324.0430, 7755.668
325.2480, 6596.645
326.4540, 5491.785
327.6590, 4445.957
328.8640, 3722.162
330.0680, 2974.396
331.2730, 2784.660
332.4780, 2513.955
333.6820, 2421.277
334.8860, 2361.633
336.0900, 2257.016
337.2940, 2188.432
338.4980, 2024.875
339.7010, 2226.348
340.9050, 1951.852
342.1080, 1836.383
343.3110, 1577.945
344.5140, 1669.729
345.7170, 1657.348
346.9200, 1606.994
348.1220, 1966.186
349.3240, 1793.887
350.5270, 2367.611
351.7290, 2750.363
352.9310, 3265.141
354.1320, 3915.938
355.3340, 4687.002
356.5350, 5474.131
357.7370, 6450.953
358.9380, 6612.510
360.1390, 6746.426
361.3400, 6216.600
362.5400, 5308.525
363.7410, 4780.508
364.9410, 3879.510
366.1410, 3092.531
367.3410, 2434.277
368.5410, 2054.338
369.7410, 1698.418
370.9400, 1479.514
372.1400, 1382.381
373.3390, 1132.516
374.5380, 915.9258
375.7370, 959.0977
376.9360, 862.2832
378.1350, 730.4863
379.3330, 613.7051
380.5310, 589.9414
381.7300, 554.0098
382.9280, 419.4512
384.1260, 575.7305
385.3230, 562.7227
386.5210, 565.3535
387.7180, 543.5176
388.9160, 493.2441
390.1130, 417.5820
391.3100, 394.9336
392.5060, 391.2949
393.7030, 302.8477
394.9000, 260.6602
396.0960, 170.5020
397.2920, 163.9453
398.4880, 128.4062
399.6840, 184.8789
400.8800, 173.4375
402.0750, 207.7520
403.2710, 189.4219
404.4660, 253.0098
405.6610, 230.6289
406.8560, 186.2734
408.0510, 167.9453
409.2450, 296.6445
410.4400, 110.3691
411.6340, 291.1152
412.8280, 449.8906
414.0220, 445.7129
415.2160, 415.5586
416.4100, 544.4648
417.6030, 521.3926
418.7970, 721.3398
419.9900, 563.3047
421.1830, 668.2871
422.3760, 353.2832
423.5690, 237.2969
424.7610, 211.3555
425.9540, 372.4297
427.1460, 207.5176
428.3380, 272.6191
429.5300, 179.7715
430.7220, 132.6602
431.9140, 1.996094
433.1050, 5.853516
434.2970, 7.695313
435.4880, 185.5312
436.6790, 58.43359
437.8700, 49.34375
439.0610, 11.73242
440.2510, 32.17969
441.4420, 23.09570
442.6320, 70.01172
443.8220, 165.9473
445.0120, 160.2480
446.2020, 321.2559
447.3910, 200.2734
448.5810, 262.2988
449.7700, 270.3301
450.9600, 569.3672
452.1490, 580.4121
453.3370, 545.4727
454.5260, 405.5449
455.7150, 368.7344
456.9030, 434.8164
458.0910, 162.9082
459.2800, 93.00781
460.4670, 37.88867
461.6550, 38.20117
462.8430, 107.2949
464.0300, 24.39453
465.2180, 39.49805
466.4050, 27.40625
467.5920, 50.32422
468.7790, 131.7402
469.9650, 229.8086
471.1520, 197.8984
472.3380, 143.9922
473.5250, 107.0898
474.7110, 80.66211
475.8970, 31.29492
477.0820, 51.40234
478.2680, 154.5156
479.4540, 190.6289
480.6390, 57.75000
481.8240, 218.8750
483.0090, 164.0000
484.1940, 270.1289
485.3780, 168.2559
486.5630, 16.51562
487.7470, 159.6445
488.9320, 155.7695
490.1160, 84.09961
491.3000, 121.9961
492.4830, 32.09180
493.6670, 95.18750
494.8500, 206.2930
496.0340, 49.40039
497.2170, 74.48828
498.4000, 74.42188
499.5820, 4.609375
500.7650, 111.3711
501.9480, 59.57812
503.1300, 0.8007810
504.3120, 145.4297
505.4940, 109.4199
506.6760, 55.26562
507.8580, 432.1191
509.0390, 14.96680
510.2210, 82.80078
511.4020, 222.6309
512.5830, 142.4570
513.7640, 56.01953
514.9450, 224.7539
516.1250, 12.20312
517.3060, 171.5352
518.4860, 111.2656
519.6660, 124.3164
520.8460, 105.0352
522.0260, 192.7441
523.2060, 150.9512
524.3850, 114.3555
525.5650, 89.03906
526.7440, 24.78125
527.9230, 74.55859
529.1020, 233.4121
530.2810, 49.00000
531.4590, 171.5762
532.6380, 101.1914
533.8160, 174.1133
534.9940, 174.6660
536.1720, 234.8008
537.3500, 255.3301
538.5270, 310.8262
539.7050, 420.8672
540.8820, 486.7402
542.0590, 783.2266
543.2360, 1016.881
544.4130, 1048.424
545.5900, 1487.260
546.7660, 2246.062
547.9430, 2522.486
549.1190, 2675.264
550.2950, 2875.502
551.4710, 2869.160
552.6470, 2837.988
553.8220, 2673.162
554.9980, 2450.707
556.1730, 2134.027
557.3480, 1601.520
558.5230, 1227.830
559.6980, 1094.102
560.8730, 960.5918
562.0470, 881.8262
563.2220, 921.3828
564.3960, 634.5801
565.5700, 771.7461
566.7440, 629.9121
567.9170, 626.0566
569.0910, 578.1992
570.2640, 569.4824
571.4380, 597.5898
572.6110, 580.7168
573.7840, 622.8301
574.9570, 744.8105
576.1290, 493.7441
577.3020, 518.9590
578.4740, 531.7715
579.6460, 375.9531
580.8180, 413.0840
581.9900, 451.9473
583.1620, 295.1504
584.3330, 157.1309
585.5040, 88.94336
586.6760, 192.9922
587.8470, 308.0215
589.0180, 278.0332
590.1880, 279.0254
591.3590, 280.9766
592.5290, 176.9863
593.7000, 202.2480
594.8700, 193.0879
596.0400, 113.2539
597.2090, 185.0469
598.3790, 199.6348
599.5490, 293.0527
600.7180, 379.2793
601.8870, 471.0781
603.0560, 531.1504
604.2250, 420.0625
605.3940, 595.4961
606.5620, 588.0371
607.7300, 505.7559
608.8990, 564.9902
610.0670, 568.8691
611.2350, 466.9941
612.4020, 364.7520
613.5700, 242.7676
614.7370, 265.1016
615.9050, 222.5977
617.0720, 267.1895
618.2390, 253.4219
619.4060, 396.2910
620.5720, 427.1270
621.7390, 458.4668
622.9050, 354.4160
624.0710, 339.9355
625.2370, 245.6895
626.4030, 156.2559
627.5690, 242.0645
628.7340, 477.9043
629.9000, 425.7852
631.0650, 460.3320
632.2300, 490.4277
633.3950, 517.1738
634.5600, 307.5957
635.7240, 534.6309
636.8890, 266.1621
638.0530, 293.4824
639.2170, 243.1719
640.3810, 346.6211
641.5450, 452.9160
642.7080, 132.1094
643.8720, 77.90625
645.0350, 457.6094
646.1980, 446.8320
647.3610, 206.3516
648.5240, 287.2734
649.6870, 363.3125
650.8490, 292.3711
652.0120, 343.5645
653.1740, 82.57227
654.3360, 439.7891
655.4980, 133.3828
656.6600, 303.6836
657.8210, 202.3730
658.9830, 122.8750
660.1440, 329.4512
661.3050, 485.9824
662.4660, 153.3906
663.6270, 381.7773
664.7870, 355.1250
665.9480, 193.4453
667.1080, 380.0273
668.2680, 115.2891
669.4280, 209.8945
670.5880, 285.9590
671.7480, 197.1230
672.9070, 124.0898
674.0670, 280.4277
675.2260, 55.50391
676.3850, 281.5664
677.5440, 5.515625
678.7030, 32.40820
679.8610, 127.5723
681.0200, 249.3848
682.1780, 0.8339840
683.3360, 126.7246
684.4940, 128.8711
685.6520, 135.4316
686.8090, 402.9570
687.9670, 136.6367
689.1240, 76.09375
690.2810, 97.51172
691.4380, 237.8965
692.5950, 69.24805
693.7520, 65.44141
694.9080, 335.7754
696.0650, 113.0410
697.2210, 66.02539
698.3770, 253.0508
699.5330, 175.0430
700.6880, 410.0020
701.8440, 151.9238
702.9990, 318.8164
704.1550, 78.90820
705.3100, 254.3223
706.4650, 341.0469
707.6190, 414.3105
708.7740, 200.0879
709.9290, 270.2988
711.0830, 421.2012
712.2370, 473.1816
713.3910, 626.1855
714.5450, 865.4668
715.6980, 813.6582
716.8520, 953.2324
718.0050, 941.1387
719.1580, 976.8145
720.3110, 914.5332
721.4640, 830.8496
722.6170, 967.7383
723.7700, 737.0586
724.9220, 577.5918
726.0740, 541.0020
727.2260, 582.3477
728.3780, 358.9727
729.5300, 479.3965
730.6810, 357.3457
731.8330, 37.56641
732.9840, 109.8711
734.1350, 226.8359
735.2860, 222.3359
736.4370, 219.5918
737.5880, 166.5254
738.7380, 207.7910
739.8880, 379.8457
741.0390, 206.1777
742.1890, 461.5566
743.3380, 143.6367
744.4880, 103.3848
745.6380, 142.0781
746.7870, 79.26758
747.9360, 250.8262
749.0850, 6.976563
750.2340, 268.8105
751.3830, 201.2520
752.5310, 132.6699
753.6800, 212.9922
754.8280, 158.2773
755.9760, 128.8691
757.1240, 205.7188
758.2720, 76.87695
759.4190, 111.9883
760.5670, 168.0566
761.7140, 264.0840
762.8610, 201.0723
764.0080, 239.3262
765.1550, 134.8047
766.3020, 160.6758
767.4480, 143.5078
768.5950, 1.699219
769.7410, 109.0488
770.8870, 155.7520
772.0330, 30.41602
773.1780, 43.02539
774.3240, 65.58398
775.4690, 171.0918
776.6140, 5.414063
777.7590, 195.0332
778.9040, 347.4473
780.0490, 27.85938
781.1940, 260.9473
782.3380, 116.4453
783.4820, 199.7754
784.6260, 14.07227
785.7700, 257.3066
786.9140, 444.5039
788.0580, 210.6738
789.2010, 170.8066
790.3450, 207.9043
791.4880, 208.2559
792.6310, 395.3008
793.7730, 359.7461
794.9160, 252.0215
796.0590, 392.9727
797.2010, 263.5645
798.3430, 266.4473
799.4850, 320.2988
800.6270, 285.8984
801.7690, 326.6816
802.9100, 291.4336
804.0520, 305.0859
805.1930, 177.7754
806.3340, 194.0820
807.4750, 359.7285
808.6160, 495.3418
809.7560, 100.8770
810.8970, 226.0625
812.0370, 404.5703
813.1770, 255.4531
814.3170, 472.8965
815.4570, 283.5332
816.5960, 197.1816
817.7360, 660.1562
818.8750, 430.4727
820.0140, 176.5820
821.1530, 431.7578
822.2920, 308.5938
823.4310, 340.4238
824.5690, 213.5898
825.7070, 445.3555
826.8460, 327.6152
827.9840, 411.0938
829.1220, 442.1387
830.2590, 453.1934
831.3970, 449.9707
832.5340, 358.9316
833.6710, 466.6777
834.8080, 560.5605
835.9450, 245.4355
837.0820, 258.0488
838.2190, 538.8711
839.3550, 388.3262
840.4910, 133.0938
841.6270, 112.8496
842.7630, 296.5605
843.8990, 33.75781
845.0350, 195.8691
846.1700, 87.75000
847.3060, 124.6836
848.4410, 78.98828
849.5760, 144.0195
850.7100, 117.5059
851.8450, 85.17969
852.9800, 11.90039
854.1140, 109.9473
855.2480, 157.9629
856.3820, 17.04883
857.5160, 18.89258
858.6500, 81.79883
859.7830, 210.6797
860.9170, 4.328125
862.0500, 181.7461
863.1830, 3.539063
864.3160, 111.6836
865.4480, 50.58594
866.5810, 28.08203
867.7130, 178.7227
868.8460, 143.0234
869.9780, 6.699219
871.1100, 48.00000
872.2410, 118.7461
873.3730, 188.3750
874.5050, 98.24609
875.6360, 138.2656
876.7670, 63.62109
877.8980, 41.58203
879.0290, 103.8867
880.1590, 171.5078
881.2900, 4.281250
882.4200, 46.27344
883.5500, 238.0977
884.6800, 24.13281
885.8100, 99.86719
886.9400, 171.9258
888.0690, 166.6797
889.1990, 362.0703
890.3280, 460.8359
891.4570, 372.3477
892.5860, 470.6523
893.7140, 320.3320
894.8430, 659.0039
895.9710, 794.1797
897.1000, 577.7266
898.2280, 776.6680
899.3560, 699.3242
900.4830, 1104.121
901.6110, 818.4414
902.7380, 1187.875
903.8660, 1330.223
904.9930, 1566.367
906.1200, 1830.441
907.2460, 2289.836
908.3730, 2754.508
909.5000, 3080.523
910.6260, 4055.996
911.7520, 5040.391
912.8780, 6619.336
914.0040, 8625.805
915.1290, 10651.73
916.2550, 13219.36
917.3800, 15874.12
918.5050, 18822.20
919.6300, 19991.67
920.7550, 19725.82
921.8800, 17987.51
923.0040, 15247.33
924.1290, 12506.80
925.2530, 10322.09
926.3770, 8933.523
927.5010, 7303.945
928.6250, 6600.703
929.7480, 5672.449
930.8720, 5179.023
931.9950, 4531.742
933.1180, 3887.355
934.2410, 3171.977
935.3640, 2669.680
936.4860, 2811.355
937.6090, 2258.035
938.7310, 2550.695
939.8530, 2254.344
940.9750, 2696.527
942.0970, 2776.773
943.2180, 2991.383
944.3400, 3482.984
945.4610, 4041.738
946.5820, 4429.078
947.7030, 5140.641
948.8240, 5810.133
949.9450, 6304.711
951.0650, 6307.285
952.1860, 6332.539
953.3060, 5831.102
954.4260, 4850.656
955.5460, 4107.824
956.6650, 3651.430
957.7850, 2841.027
958.9040, 2363.625
960.0230, 1916.027
961.1420, 1643.609
962.2610, 1133.188
963.3800, 1123.754
964.4990, 1046.312
965.6170, 569.8633
966.7350, 773.4414
967.8530, 405.0078
968.9710, 168.6133
970.0890, 353.2109
971.2070, 516.8008
972.3240, 331.3828
973.4410, 416.9609
974.5580, 239.5273
975.6750, 509.6719
976.7920, 221.7852
977.9090, 145.3594
979.0250, 268.3555
980.1410, 61.19531
981.2580, 262.7617
982.3740, 18.98828
983.4890, 156.0938
984.6050, 60.13672
985.7200, 317.8672
986.8360, 71.64844
987.9510, 207.0508
989.0660, 229.0898
990.1810, 174.3281
991.2950, 108.4844
992.4100, 73.42969
993.5240, 155.9883
994.6390, 6.476563
995.7530, 46.44141
996.8660, 37.91406
997.9800, 14.99609
999.0940, 182.3477
1000.207, 108.5664
1001.320, 248.2227
1002.433, 462.5703
1003.546, 241.7773
1004.659, 249.2930
1005.772, 449.3516
1006.884, 555.4922
1007.996, 637.9102
1009.108, 889.8555
1010.220, 1022.191
1011.332, 1294.332
1012.444, 1460.168
1013.555, 1787.766
1014.666, 2092.871
1015.777, 2539.582
1016.888, 2808.980
1017.999, 3328.949
1019.110, 3738.758
1020.220, 4052.227
1021.331, 4219.695
1022.441, 3448.426
1023.551, 3191.934
1024.661, 2725.441
1025.770, 2022.953
1026.880, 1680.988
1027.989, 1454.020
1029.098, 1111.805
1030.207, 1169.129
1031.316, 1004.207
1032.425, 967.7344
1033.533, 533.2578
1034.642, 658.7852
1035.750, 519.3086
1036.858, 217.8398
1037.966, 753.7227
1039.073, 527.2695
1040.181, 305.2500
1041.288, 423.8047
1042.396, 361.3633
1043.503, 294.9297
1044.610, 414.5000
1045.716, 543.0742
1046.823, 325.6680
1047.929, 391.2812
1049.036, 599.8750
1050.142, 739.4766
1051.248, 595.3281
1052.353, 474.9336
1053.459, 704.8281
1054.564, 740.6680
1055.670, 960.3594
1056.775, 1006.973
1057.880, 1543.586
1058.985, 1865.195
1060.089, 2183.938
1061.194, 2820.961
1062.298, 3249.574
1063.402, 4177.188
1064.506, 4672.031
1065.610, 5149.438
1066.713, 5181.473
1067.817, 4911.285
1068.920, 3987.902
1070.023, 3033.512
1071.126, 2727.125
1072.229, 2039.738
1073.332, 1512.348
1074.435, 1283.961
1075.537, 1018.582
1076.639, 609.1914
1077.741, 634.8086
1078.843, 790.6914
1079.945, 588.3047
1081.046, 588.9570
1082.148, 602.7266
1083.249, 484.3438
1084.350, 366.9570
1085.451, 74.67969
1086.551, 273.2969
1087.652, 64.17188
1088.752, 115.4883
1089.853, 340.3594
1090.953, 560.7422
1092.053, 379.5156
1093.152, 200.1406
1094.252, 252.7734
1095.351, 175.7852
1096.451, 107.4180
1097.550, 263.3242
1098.649, 315.9531
1099.748, 451.5859
1100.846, 429.5820
1101.945, 689.2070
1103.043, 462.8359
1104.141, 776.7070
1105.239, 1012.598
1106.337, 1302.211
1107.434, 1218.836
1108.532, 1293.453
1109.629, 1377.070
1110.726, 1662.688
1111.823, 1715.316
1112.920, 1522.500
1114.017, 1304.129
1115.113, 1069.562
1116.210, 1026.340
1117.306, 859.0742
1118.402, 759.3516
1119.498, 514.4609
1120.593, 643.2734
1121.689, 787.2148
1122.784, 446.0195
1123.879, 652.9258
1124.974, 329.7422
1126.069, 129.5586
1127.164, 124.2383
1128.259, 308.8047
1129.353, 351.6250
1130.447, 224.0547
1131.541, 275.1250
1132.635, 224.7148
1133.729, 173.7188
1134.822, 137.5625
1135.916, 121.4023
1137.009, 25.29297
1138.102, 271.1836
1139.195, 156.2070
1140.288, 286.1289
1141.380, 219.1445
1142.473, 31.06250
1143.565, 169.9805
1144.657, 167.9023
1145.749, 62.81641
1146.841, 1.734375
1147.932, 73.35547
1149.024, 88.50781
1150.115, 89.35547
1151.206, 15.19531
1152.297, 113.1523
1153.388, 24.85156
1154.479, 213.6797
1155.569, 104.5000
1156.659, 103.3203
1157.750, 1.132813
1158.839, 38.06250
1159.929, 177.1562
1161.019, 89.93750
1162.108, 19.85156
1163.198, 109.7812
1164.287, 191.6562
1165.376, 345.2812
1166.465, 181.9102
1167.553, 228.5430
1168.642, 96.82812
1169.730, 238.7461
1170.818, 65.68359
1171.906, 218.8438
1172.994, 288.3633
1174.082, 323.9102
1175.170, 226.4531
1176.257, 327.0000
1177.344, 141.5430
1178.431, 200.9219
1179.518, 178.4961
1180.605, 110.9180
1181.691, 46.33203
1182.778, 263.7773
1183.864, 37.21094
1184.950, 53.64453
1186.036, 90.06641
1187.122, 224.4844
1188.207, 168.8945
1189.292, 279.3008
1190.378, 80.70703
1191.463, 13.10156
1192.548, 239.4883
1193.632, 351.8672
1194.717, 58.65234
1195.801, 50.47266
1196.886, 12.85938
1197.970, 68.17969
1199.054, 281.4883
1200.137, 293.8047
1201.221, 326.5664
1202.305, 335.5078
1203.388, 260.8008
1204.471, 261.1367
1205.554, 139.5469
1206.637, 164.8203
1207.719, 155.0938
1208.802, 56.35547
1209.884, 263.6094
1210.966, 111.8594
1212.048, 84.37500
1213.130, 258.9297
1214.212, 122.1602
1215.293, 97.49219
1216.374, 338.7148
1217.456, 67.55469
1218.536, 27.24219
1219.617, 69.92969
1220.698, 12.07422
1221.778, 95.90234
1222.859, 160.0352
1223.939, 190.1602
1225.019, 424.3008
1226.099, 38.49219
1227.178, 64.88281
1228.258, 190.1680
1229.337, 192.8086
1230.417, 44.88281
1231.496, 298.9492
1232.574, 296.0039
1233.653, 75.04688
1234.732, 71.08594
1235.810, 308.1133
1236.888, 268.1328
1237.966, 138.1445
1239.044, 277.1523
1240.122, 206.1484
1241.199, 387.1328
1242.277, 176.1133
1243.354, 206.0938
1244.431, 479.1016
1245.508, 121.1172
1246.585, 323.0820
1247.661, 22.11328
1248.738, 69.05469
1249.814, 386.1250
1250.890, 111.0352
1251.966, 194.2070
1253.042, 75.66797
1254.117, 319.1562
1255.193, 192.9727
1256.268, 281.7773
1257.343, 569.6016
1258.418, 265.4102
1259.493, 221.2188
1260.567, 204.2305
1261.642, 318.0469
1262.716, 111.3906
1263.790, 341.3047
1264.864, 371.4258
1265.938, 215.9336
1267.011, 424.5430
1268.085, 137.7422
1269.158, 434.5938
1270.231, 140.3086
1271.304, 313.0977
1272.377, 266.9492
1273.450, 381.6289
1274.522, 175.2930
1275.594, 234.4023
1276.666, 335.6211
1277.738, 512.3359
1278.810, 371.0859
1279.882, 458.9570
1280.953, 327.2305
1282.025, 467.0820
1283.096, 372.3672
1284.167, 251.9570
1285.238, 243.6602
1286.308, 365.1797
1287.379, 342.6836
1288.449, 133.6641
1289.519, 426.8828
1290.589, 293.1641
1291.659, 645.2500
1292.729, 97.29297
1293.798, 427.0586
1294.868, 466.0234
1295.937, 403.2344
1297.006, 594.1367
1298.075, 350.6484
1299.143, 521.1445
1300.212, 458.4453
1301.280, 380.9531
1302.348, 418.4805
1303.416, 407.7852
1304.484, 405.7773
1305.552, 266.5430
1306.620, 320.7969
1307.687, 277.0156
1308.754, 411.2422
1309.821, 217.3555
1310.888, 348.4180
1311.955, 307.3906
1313.021, 385.4766
1314.088, 431.3945
1315.154, 296.4453
1316.220, 327.8242
1317.286, 269.6172
1318.352, 327.7227
1319.417, 181.6523
1320.483, 228.2891
1321.548, 205.3750
1322.613, 65.38672
1323.678, 41.39844
1324.743, 180.2266
1325.807, 294.7852
1326.872, 309.0859
1327.936, 316.8438
1329.000, 139.7969
1330.064, 307.0781
1331.128, 450.4336
1332.191, 153.5430
1333.255, 133.5547
1334.318, 403.5586
1335.381, 174.4414
1336.444, 229.5508
1337.507, 400.4219
1338.569, 302.9102
1339.632, 104.1758
1340.694, 93.41406
1341.756, 326.7852
1342.818, 144.0977
1343.880, 442.0117
1344.941, 37.12500
1346.003, 180.4023
1347.064, 468.5820
1348.125, 177.8281
1349.186, 17.82422
1350.247, 290.4258
1351.308, 223.2383
1352.368, 166.9531
1353.428, 151.6602
1354.489, 102.3477
1355.549, 126.1562
1356.608, 39.05859
1357.668, 226.0391
1358.727, 202.2539
1359.787, 330.9102
1360.846, 195.4727
1361.905, 320.7773
1362.964, 407.4336
1364.022, 392.9453
1365.081, 434.2734
1366.139, 340.7578
1367.197, 428.2305
1368.255, 268.6914
1369.313, 302.8281
1370.371, 189.6445
1371.428, 172.0273
1372.486, 167.5938
1373.543, 191.1094
1374.600, 162.4297
1375.657, 179.9688
1376.713, 146.8320
1377.770, 198.3164
1378.826, 118.3789
1379.882, 128.0117
1380.938, 192.0234
1381.994, 235.9727
1383.050, 263.0430
1384.106, 187.5781
1385.161, 480.6172
1386.216, 361.7852
1387.271, 144.2734
1388.326, 253.2930
1389.381, 62.74609
1390.435, 161.5977
1391.490, 111.5234
1392.544, 146.4492
1393.598, 171.3945
1394.652, 84.76562
1395.705, 165.4766
1396.759, 520.2500
1397.812, 172.9102
1398.866, 102.6406
1399.919, 211.6445
1400.972, 261.5039
1402.024, 61.18359
1403.077, 204.8359
1404.129, 51.47656
1405.181, 16.88281
1406.233, 130.7422
1407.285, 395.3438
1408.337, 129.0391
1409.389, 213.6797
1410.440, 186.2227
1411.491, 155.9844
1412.542, 235.6602
1413.593, 74.12891
1414.644, 302.2070
1415.695, 488.5156
1416.745, 51.45312
1417.795, 73.23438
1418.845, 54.98828
1419.895, 118.5234
1420.945, 67.50781
1421.995, 3.554688
1423.044, 78.91406
1424.093, 82.28906
1425.142, 168.4102
1426.191, 65.41406
1427.240, 377.5000
1428.289, 89.57812
1429.337, 487.2695
1430.385, 1.929688
1431.433, 83.93359
1432.481, 376.6055
1433.529, 200.2383
1434.577, 236.8711
1435.624, 21.42188
1436.672, 116.0977
1437.719, 190.3320
1438.766, 150.3633
1439.812, 353.6523
1440.859, 327.8906
1441.905, 138.0898
1442.952, 342.2422
1443.998, 43.33594
1445.044, 340.5430
1446.090, 289.0352
1447.135, 188.0000
1448.181, 411.0117
1449.226, 148.9062
1450.271, 58.32812
1451.316, 303.6289
1452.361, 83.01562
1453.405, 41.19531
1454.450, 271.5430
1455.494, 129.8867
1456.538, 112.9141
1457.582, 168.8672
1458.626, 190.0195
1459.670, 184.0352
1460.713, 293.4922
1461.757, 155.9805
1462.800, 148.1836
1463.843, 65.96094
1464.886, 105.2578
1465.928, 80.98047
1466.971, 86.03125
1468.013, 97.80078
1469.055, 167.9531
1470.097, 203.0898
1471.139, 346.2188
1472.181, 198.2930
1473.222, 61.32422
1474.263, 259.2969
1475.305, 338.1914
1476.346, 202.6133
1477.386, 329.7422
1478.427, 318.1953
1479.468, 262.8945
1480.508, 319.6016
1481.548, 271.6445
1482.588, 127.0977
1483.628, 261.0859
1484.668, 199.6602
1485.707, 349.7148
1486.747, 553.4336
1487.786, 129.3203
1488.825, 342.1719
1489.864, 180.3984
1490.902, 70.59766
1491.941, 287.8750
1492.979, 319.6680
1494.017, 338.2656
1495.055, 191.7930
1496.093, 559.6797
1497.131, 164.1484
1498.168, 10.80469
1499.206, 365.9336
1500.243, 207.6758
1501.280, 284.8008
1502.317, 407.0195
1503.354, 306.1094
1504.390, 70.10547
1505.426, 197.4336
1506.463, 22.27344
1507.499, 284.5977
1508.535, 69.98828
1509.570, 210.7188
1510.606, 164.0664
1511.641, 85.48047
1512.676, 9.410156
1513.711, 80.25391
1514.746, 182.4492
1515.781, 459.4336
1516.816, 170.3047
1517.850, 494.5391
1518.884, 67.35156
1519.918, 193.9219
1520.952, 209.1953
1521.986, 236.8008
1523.019, 252.6445
1524.053, 130.0000
1525.086, 160.4766
1526.119, 262.8242
1527.152, 401.1953
1528.185, 329.4531
1529.217, 296.8320
1530.250, 327.0156
1531.282, 315.7305
1532.314, 173.8125
1533.346, 181.5898
1534.377, 338.0742
1535.409, 138.8984
1536.440, 156.2656
1537.472, 281.5938
1538.503, 61.41797
1539.534, 405.6914
1540.564, 53.99219
1541.595, 149.9141
1542.625, 152.9414
1543.656, 26.89062
1544.686, 275.3789
1545.716, 14.51562
1546.745, 59.14844
1547.775, 74.02734
1548.804, 131.1719
1549.834, 149.0156
1550.863, 127.2578
1551.892, 230.6211
1552.920, 216.6680
1553.949, 324.7305
1554.977, 119.3203
1556.006, 270.9219
1557.034, 248.2812
1558.062, 220.5430
1559.089, 358.2422
1560.117, 184.0156
1561.144, 141.0430
1562.172, 14.25000
1563.199, 183.2695
1564.226, 157.2734
1565.252, 176.8672
1566.279, 199.2422
1567.305, 152.1367
1568.332, 115.4453
1569.358, 1.121094
1570.384, 0.0000000E+00
##END=



