##NAMES=Andalusite
##RRUFFID=R060212
##IDEAL CHEMISTRY=Al_2_SiO_5_
##LOCALITY=Brazil
##OWNER=RRUFF
##SOURCE=Marcus Origlieri
##DESCRIPTION=Transparent yellow-green water-worn pebble
##STATUS=The identification of this mineral is confirmed by single-crystal X-ray diffraction and chemical analysis.
##URL=rruff.info/R060212
##MEASURED CHEMISTRY=(Al_1.98_Fe^3+^_0.02_)_Î£=2_Si_1.00_O_5_
##PIN_ID=L00827
##ORIENTATION=Laser parallel to -b* (0 -1 0). Fiducial mark perpendicular to laser is parallel to c [0 0 1]
99.64900, 0.0000000E+00
100.8830, 98.47168
102.1160, 9.720703
103.3490, 22.36621
104.5820, 12.59863
105.8150, 190.0908
107.0470, 363.6660
108.2800, 593.9297
109.5120, 537.2969
110.7440, 785.3721
111.9760, 455.4102
113.2080, 337.7646
114.4400, 443.1299
115.6710, 669.2998
116.9030, 548.1055
118.1340, 536.3496
119.3650, 508.8730
120.5960, 325.5400
121.8270, 302.2266
123.0580, 312.0781
124.2880, 438.2627
125.5190, 415.4561
126.7490, 431.3564
127.9790, 524.9082
129.2090, 564.2021
130.4390, 779.1250
131.6680, 895.0312
132.8980, 974.4043
134.1270, 1240.185
135.3560, 1292.354
136.5850, 1479.894
137.8140, 1731.828
139.0430, 1998.121
140.2710, 2235.693
141.5000, 2238.388
142.7280, 2181.608
143.9560, 2102.927
145.1840, 2042.471
146.4120, 1839.236
147.6390, 1378.217
148.8670, 1292.424
150.0940, 905.8604
151.3210, 929.5264
152.5490, 910.4111
153.7750, 668.5049
155.0020, 581.8008
156.2290, 620.2959
157.4550, 350.1543
158.6810, 519.4854
159.9080, 307.4395
161.1340, 363.5703
162.3590, 342.6455
163.5850, 578.7148
164.8110, 366.1113
166.0360, 652.6768
167.2610, 443.4043
168.4860, 484.2861
169.7110, 473.3184
170.9360, 431.4961
172.1610, 442.8174
173.3850, 394.2324
174.6100, 388.6230
175.8340, 350.0781
177.0580, 348.4326
178.2820, 355.8232
179.5050, 413.2578
180.7290, 389.7461
181.9520, 538.2939
183.1760, 567.9043
184.3990, 572.5859
185.6220, 573.3369
186.8450, 716.1621
188.0670, 751.0645
189.2900, 829.0439
190.5120, 1092.101
191.7340, 1139.236
192.9560, 1027.470
194.1780, 891.9062
195.4000, 954.5010
196.6220, 927.3818
197.8430, 1141.498
199.0640, 1075.828
200.2860, 922.3125
201.5070, 1216.857
202.7270, 1036.464
203.9480, 1018.128
205.1690, 762.8525
206.3890, 433.6377
207.6090, 254.4795
208.8290, 225.4336
210.0490, 34.45215
211.2690, 170.5430
212.4890, 10.70996
213.7080, 39.06738
214.9280, 158.2109
216.1470, 29.54492
217.3660, 82.06738
218.5850, 109.3760
219.8030, 44.87207
221.0220, 58.42090
222.2400, 90.02441
223.4590, 46.32031
224.6770, 162.6113
225.8950, 54.84570
227.1120, 90.98047
228.3300, 101.8887
229.5480, 114.8789
230.7650, 29.91406
231.9820, 119.9922
233.1990, 219.1113
234.4160, 264.2773
235.6330, 424.4648
236.8490, 356.6738
238.0660, 487.9277
239.2820, 527.2285
240.4980, 715.5762
241.7140, 536.9707
242.9300, 479.4102
244.1460, 271.8945
245.3610, 379.4199
246.5770, 183.3359
247.7920, 145.5586
249.0070, 36.99023
250.2220, 85.15234
251.4370, 108.7031
252.6510, 55.09180
253.8660, 156.7051
255.0800, 204.5176
256.2940, 244.3652
257.5080, 356.8203
258.7220, 320.0000
259.9360, 505.4668
261.1490, 442.0703
262.3630, 393.8008
263.5760, 249.6484
264.7890, 402.6113
266.0020, 311.6777
267.2150, 450.8496
268.4270, 501.3066
269.6400, 559.4766
270.8520, 676.9277
272.0640, 879.4609
273.2760, 1045.078
274.4880, 1211.775
275.7000, 1723.551
276.9120, 1888.395
278.1230, 2095.311
279.3340, 2696.291
280.5450, 3314.336
281.7560, 4324.445
282.9670, 5528.615
284.1780, 6846.021
285.3880, 7982.311
286.5980, 9626.164
287.8090, 11286.55
289.0190, 13315.00
290.2290, 14670.02
291.4380, 14447.79
292.6480, 13393.53
293.8570, 11293.05
295.0670, 8546.574
296.2760, 6381.326
297.4850, 4935.703
298.6930, 3487.119
299.9020, 2934.027
301.1110, 2126.977
302.3190, 1831.992
303.5270, 1270.057
304.7350, 1325.148
305.9430, 1270.277
307.1510, 1235.469
308.3580, 1361.650
309.5660, 1686.863
310.7730, 2360.111
311.9800, 2900.398
313.1870, 3895.723
314.3940, 4648.084
315.6010, 6028.182
316.8070, 7626.721
318.0130, 9166.195
319.2200, 10677.71
320.4260, 11394.26
321.6310, 10658.04
322.8370, 9115.156
324.0430, 7271.785
325.2480, 5838.445
326.4540, 4106.141
327.6590, 3131.869
328.8640, 2347.631
330.0680, 2033.426
331.2730, 1637.254
332.4780, 1624.109
333.6820, 1456.000
334.8860, 1237.920
336.0900, 1181.871
337.2940, 1126.854
338.4980, 1107.867
339.7010, 1121.912
340.9050, 1097.982
342.1080, 1118.082
343.3110, 1045.207
344.5140, 1205.357
345.7170, 1541.535
346.9200, 1774.736
348.1220, 2240.963
349.3240, 2775.213
350.5270, 3384.359
351.7290, 4182.660
352.9310, 5114.750
354.1320, 6125.422
355.3340, 6926.773
356.5350, 7967.939
357.7370, 8233.355
358.9380, 8290.373
360.1390, 7013.832
361.3400, 6382.562
362.5400, 5061.654
363.7410, 4057.180
364.9410, 3472.727
366.1410, 2797.297
367.3410, 2456.889
368.5410, 2082.887
369.7410, 1705.486
370.9400, 1503.346
372.1400, 1203.018
373.3390, 915.7109
374.5380, 954.4219
375.7370, 910.1543
376.9360, 885.9043
378.1350, 519.6758
379.3330, 611.4609
380.5310, 536.2695
381.7300, 468.1094
382.9280, 461.9512
384.1260, 507.8145
385.3230, 337.6953
386.5210, 314.5918
387.7180, 368.5059
388.9160, 538.4375
390.1130, 444.3887
391.3100, 509.3789
392.5060, 547.4043
393.7030, 476.4688
394.9000, 262.9629
396.0960, 227.0918
397.2920, 52.25586
398.4880, 22.45117
399.6840, 263.6777
400.8800, 310.9316
402.0750, 340.4043
403.2710, 249.5254
404.4660, 337.8633
405.6610, 301.2305
406.8560, 198.6191
408.0510, 496.0371
409.2450, 336.4785
410.4400, 791.9414
411.6340, 729.4336
412.8280, 1050.947
414.0220, 1081.480
415.2160, 1523.037
416.4100, 1645.619
417.6030, 1807.223
418.7970, 1651.848
419.9900, 1504.492
421.1830, 953.1562
422.3760, 753.8418
423.5690, 604.5488
424.7610, 331.2734
425.9540, 64.01953
427.1460, 13.98633
428.3380, 118.5527
429.5300, 136.6582
430.7220, 49.91602
431.9140, 36.81641
433.1050, 171.4336
434.2970, 165.3809
435.4880, 70.75977
436.6790, 65.15820
437.8700, 244.5723
439.0610, 134.9102
440.2510, 169.5879
441.4420, 35.90625
442.6320, 80.51953
443.8220, 247.9609
445.0120, 358.8457
446.2020, 274.5840
447.3910, 669.4492
448.5810, 734.9570
449.7700, 1044.738
450.9600, 1018.281
452.1490, 878.8438
453.3370, 499.4336
454.5260, 220.0527
455.7150, 152.6836
456.9030, 92.01953
458.0910, 48.32227
459.2800, 3.089844
460.4670, 200.7305
461.6550, 39.38477
462.8430, 152.0488
464.0300, 18.27148
465.2180, 18.06641
466.4050, 78.07227
467.5920, 78.75977
468.7790, 203.4551
469.9650, 316.1680
471.1520, 265.8887
472.3380, 513.6191
473.5250, 512.3906
474.7110, 507.1445
475.8970, 766.9121
477.0820, 560.6914
478.2680, 897.4805
479.4540, 700.2891
480.6390, 934.1094
481.8240, 1028.941
483.0090, 969.7832
484.1940, 653.6387
485.3780, 739.5137
486.5630, 678.4199
487.7470, 371.3652
488.9320, 463.3281
490.1160, 281.3027
491.3000, 249.3281
492.4830, 15.36133
493.6670, 127.4043
494.8500, 18.73047
496.0340, 5.812500
497.2170, 6.089844
498.4000, 2.001953
499.5820, 64.07422
500.7650, 50.16016
501.9480, 166.2578
503.1300, 39.41797
504.3120, 253.5820
505.4940, 180.7598
506.6760, 244.9492
507.8580, 386.1484
509.0390, 163.3730
510.2210, 506.6133
511.4020, 171.8633
512.5830, 330.1387
513.7640, 447.4238
514.9450, 344.7148
516.1250, 218.0098
517.3060, 373.3105
518.4860, 276.6172
519.6660, 424.9277
520.8460, 266.2422
522.0260, 169.5625
523.2060, 62.88477
524.3850, 163.2109
525.5650, 78.25391
526.7440, 134.5586
527.9230, 177.2168
529.1020, 129.5605
530.2810, 425.9062
531.4590, 214.2578
532.6380, 138.6094
533.8160, 908.9688
534.9940, 305.3281
536.1720, 557.6953
537.3500, 388.0840
538.5270, 403.4746
539.7050, 485.8926
540.8820, 690.3125
542.0590, 744.7344
543.2360, 1104.162
544.4130, 1109.594
545.5900, 1558.025
546.7660, 1835.463
547.9430, 2144.906
549.1190, 2671.350
550.2950, 2694.795
551.4710, 2586.242
552.6470, 2349.686
553.8220, 2117.131
554.9980, 1689.572
556.1730, 1558.016
557.3480, 1130.457
558.5230, 896.8984
559.6980, 679.3359
560.8730, 573.7734
562.0470, 372.2109
563.2220, 282.6465
564.3960, 382.0781
565.5700, 301.5078
566.7440, 272.9395
567.9170, 172.3672
569.0910, 315.6172
570.2640, 366.0449
571.4380, 216.9688
572.6110, 282.4180
573.7840, 215.8535
574.9570, 41.81445
576.1290, 440.0703
577.3020, 134.4141
578.4740, 205.0371
579.6460, 191.7441
580.8180, 156.2754
581.9900, 60.76758
583.1620, 155.1758
584.3330, 62.66992
585.5040, 95.83789
586.6760, 30.40039
587.8470, 10.01758
589.0180, 61.38281
590.1880, 78.17773
591.3590, 66.77734
592.5290, 194.8672
593.7000, 36.25781
594.8700, 107.7148
596.0400, 190.1270
597.2090, 3.539063
598.3790, 44.93750
599.5490, 17.36719
600.7180, 112.9102
601.8870, 229.2812
603.0560, 445.6387
604.2250, 449.5020
605.3940, 367.1387
606.5620, 407.9727
607.7300, 447.3242
608.8990, 253.6699
610.0670, 447.0137
611.2350, 314.3516
612.4020, 400.6836
613.5700, 35.01367
614.7370, 343.3359
615.9050, 184.2480
617.0720, 292.5605
618.2390, 190.8672
619.4060, 156.5879
620.5720, 217.9883
621.7390, 271.8828
622.9050, 169.2559
624.0710, 222.9688
625.2370, 194.5488
626.4030, 131.8730
627.5690, 136.1758
628.7340, 322.3906
629.9000, 181.6289
631.0650, 336.5000
632.2300, 154.7988
633.3950, 218.7305
634.5600, 39.59375
635.7240, 338.0195
636.8890, 429.8477
638.0530, 508.0742
639.2170, 616.5020
640.3810, 445.8164
641.5450, 668.5762
642.7080, 469.7871
643.8720, 414.0742
645.0350, 457.1797
646.1980, 194.7988
647.3610, 281.7031
648.5240, 329.8281
649.6870, 294.9180
650.8490, 374.1035
652.0120, 324.2949
653.1740, 412.3145
654.3360, 253.3223
655.4980, 437.3164
656.6600, 659.2988
657.8210, 346.2656
658.9830, 615.2188
660.1440, 992.1562
661.3050, 795.0820
662.4660, 1111.994
663.6270, 834.8770
664.7870, 923.7598
665.9480, 336.6309
667.1080, 699.4844
668.2680, 357.3242
669.4280, 411.1504
670.5880, 291.9609
671.7480, 298.7578
672.9070, 377.8691
674.0670, 501.8594
675.2260, 285.1445
676.3850, 467.6680
677.5440, 512.3867
678.7030, 404.0645
679.8610, 585.7539
681.0200, 330.4258
682.1780, 296.6895
683.3360, 496.3086
684.4940, 460.9688
685.6520, 551.5156
686.8090, 452.5742
687.9670, 342.4434
689.1240, 658.9961
690.2810, 684.5332
691.4380, 407.0508
692.5950, 462.6816
693.7520, 414.1641
694.9080, 427.6309
696.0650, 579.0801
697.2210, 485.5117
698.3770, 581.9238
699.5330, 646.3184
700.6880, 577.9160
701.8440, 579.3008
702.9990, 580.6699
704.1550, 614.0195
705.3100, 685.5391
706.4650, 747.0098
707.6190, 883.8262
708.7740, 963.7773
709.9290, 1096.135
711.0830, 1288.322
712.2370, 1514.992
713.3910, 1528.887
714.5450, 1472.104
715.6980, 1663.254
716.8520, 1529.303
718.0050, 1178.781
719.1580, 1112.775
720.3110, 866.1230
721.4640, 795.3613
722.6170, 668.8496
723.7700, 496.5078
724.9220, 642.5645
726.0740, 314.6191
727.2260, 57.35352
728.3780, 306.6016
729.5300, 23.57812
730.6810, 18.77930
731.8330, 246.0000
732.9840, 56.86719
734.1350, 299.7539
735.2860, 182.8008
736.4370, 368.1348
737.5880, 339.1387
738.7380, 344.5234
739.8880, 204.5020
741.0390, 450.4609
742.1890, 252.3945
743.3380, 317.3066
744.4880, 442.2090
745.6380, 348.0898
746.7870, 298.9492
747.9360, 456.7871
749.0850, 256.6035
750.2340, 386.3945
751.3830, 556.1660
752.5310, 272.8867
753.6800, 89.61523
754.8280, 213.3145
755.9760, 206.9922
757.1240, 4.644531
758.2720, 160.2539
759.4190, 90.84180
760.5670, 165.4004
761.7140, 107.9355
762.8610, 7.445313
764.0080, 37.08984
765.1550, 68.69141
766.3020, 17.62500
767.4480, 271.9004
768.5950, 125.8457
769.7410, 175.2949
770.8870, 32.40820
772.0330, 78.50781
773.1780, 202.2441
774.3240, 35.77930
775.4690, 188.1406
776.6140, 286.0430
777.7590, 149.9336
778.9040, 89.80078
780.0490, 165.3594
781.1940, 116.3438
782.3380, 325.0234
783.4820, 103.6836
784.6260, 77.31250
785.7700, 38.08594
786.9140, 13.44922
788.0580, 168.9434
789.2010, 165.1328
790.3450, 228.5293
791.4880, 338.2832
792.6310, 314.6855
793.7730, 406.0664
794.9160, 521.4238
796.0590, 385.7578
797.2010, 498.0723
798.3430, 318.3633
799.4850, 325.6328
800.6270, 394.8770
801.7690, 319.1016
802.9100, 487.3047
804.0520, 506.4863
805.1930, 672.6445
806.3340, 402.7812
807.4750, 496.8945
808.6160, 361.9863
809.7560, 127.0527
810.8970, 152.1016
812.0370, 101.1211
813.1770, 5.886719
814.3170, 255.0586
815.4570, 57.01172
816.5960, 205.8359
817.7360, 377.6680
818.8750, 90.47266
820.0140, 57.25781
821.1530, 197.0039
822.2920, 59.73438
823.4310, 26.42969
824.5690, 134.0938
825.7070, 385.7305
826.8460, 468.3477
827.9840, 242.9414
829.1220, 174.5195
830.2590, 255.0664
831.3970, 469.5977
832.5340, 506.1055
833.6710, 699.7422
834.8080, 335.2109
835.9450, 489.6562
837.0820, 151.0781
838.2190, 497.6602
839.3550, 218.1445
840.4910, 302.5039
841.6270, 95.46484
842.7630, 181.7734
843.8990, 341.4102
845.0350, 91.67188
846.1700, 6.914063
847.3060, 67.11328
848.4410, 128.2852
849.5760, 98.57031
850.7100, 37.48047
851.8450, 11.50000
852.9800, 37.51953
854.1140, 60.60156
855.2480, 20.76172
856.3820, 210.0273
857.5160, 180.7891
858.6500, 177.5508
859.7830, 131.2891
860.9170, 383.0039
862.0500, 34.72266
863.1830, 73.28125
864.3160, 295.4102
865.4480, 360.0430
866.5810, 318.0781
867.7130, 40.96094
868.8460, 265.5078
869.9780, 72.03516
871.1100, 250.4180
872.2410, 340.8477
873.3730, 215.2578
874.5050, 155.6523
875.6360, 280.0312
876.7670, 439.3984
877.8980, 300.7422
879.0290, 489.2109
880.1590, 273.5234
881.2900, 620.8828
882.4200, 384.2227
883.5500, 303.5781
884.6800, 262.9531
885.8100, 371.3086
886.9400, 467.6406
888.0690, 564.9570
889.1990, 510.2539
890.3280, 331.9336
891.4570, 572.2227
892.5860, 790.4961
893.7140, 672.3594
894.8430, 842.5156
895.9710, 915.1680
897.1000, 812.3164
898.2280, 1249.098
899.3560, 1325.035
900.4830, 1581.207
901.6110, 1904.379
902.7380, 2060.613
903.8660, 2005.828
904.9930, 2561.391
906.1200, 3237.492
907.2460, 3584.070
908.3730, 4578.559
909.5000, 5324.699
910.6260, 7468.848
911.7520, 9446.914
912.8780, 12115.01
914.0040, 15246.89
915.1290, 18669.29
916.2550, 22115.27
917.3800, 24946.90
918.5050, 25866.95
919.6300, 24774.45
920.7550, 22207.64
921.8800, 18693.59
923.0040, 15947.55
924.1290, 13704.39
925.2530, 12603.19
926.3770, 11776.14
927.5010, 11001.09
928.6250, 10011.01
929.7480, 8638.930
930.8720, 7503.836
931.9950, 6634.727
933.1180, 5343.609
934.2410, 4295.480
935.3640, 3916.336
936.4860, 3101.184
937.6090, 2809.020
938.7310, 2382.844
939.8530, 2205.656
940.9750, 1996.461
942.0970, 1921.254
943.2180, 1861.039
944.3400, 1777.805
945.4610, 1719.234
946.5820, 1871.766
947.7030, 2048.973
948.8240, 1568.918
949.9450, 1881.641
951.0650, 1822.379
952.1860, 1432.086
953.3060, 1470.773
954.4260, 1272.852
955.5460, 831.5469
956.6650, 890.1797
957.7850, 628.8945
958.9040, 453.0742
960.0230, 383.4180
961.1420, 454.0508
962.2610, 96.67969
963.3800, 368.2969
964.4990, 470.7812
965.6170, 301.3828
966.7350, 127.9805
967.8530, 30.57031
968.9710, 267.1562
970.0890, 184.7305
971.2070, 277.2969
972.3240, 110.3633
973.4410, 38.13281
974.5580, 154.6250
975.6750, 149.8906
976.7920, 97.90234
977.9090, 3.839844
979.0250, 312.5469
980.1410, 498.2969
981.2580, 266.6172
982.3740, 132.1133
983.4890, 165.1211
984.6050, 219.8711
985.7200, 217.9609
986.8360, 268.7266
987.9510, 277.1133
989.0660, 283.3047
990.1810, 258.0156
991.2950, 159.3516
992.4100, 147.5625
993.5240, 225.7656
994.6390, 122.7695
995.7530, 262.0938
996.8660, 39.77734
997.9800, 210.6914
999.0940, 57.99609
1000.207, 364.2852
1001.320, 122.5820
1002.433, 281.8281
1003.546, 119.1250
1004.659, 182.8906
1005.772, 55.21094
1006.884, 245.5312
1007.996, 190.8516
1009.108, 489.0117
1010.220, 616.3242
1011.332, 684.6445
1012.444, 823.8242
1013.555, 1086.746
1014.666, 1272.676
1015.777, 1552.773
1016.888, 1898.020
1017.999, 1908.895
1019.110, 2386.211
1020.220, 1803.523
1021.331, 1451.836
1022.441, 1475.145
1023.551, 1442.453
1024.661, 1163.320
1025.770, 1094.809
1026.880, 1123.238
1027.989, 719.5586
1029.098, 827.8281
1030.207, 484.1445
1031.316, 409.4688
1032.425, 497.1914
1033.533, 437.5195
1034.642, 486.8711
1035.750, 427.2500
1036.858, 310.6562
1037.966, 163.0430
1039.073, 188.1367
1040.181, 150.6289
1041.288, 237.3438
1042.396, 264.8203
1043.503, 337.2891
1044.610, 319.7422
1045.716, 472.0000
1046.823, 288.4922
1047.929, 346.9805
1049.036, 382.4727
1050.142, 651.2344
1051.248, 798.7852
1052.353, 661.3359
1053.459, 813.8906
1054.564, 930.4453
1055.670, 935.0273
1056.775, 1289.617
1057.880, 1510.211
1058.985, 1935.797
1060.089, 2729.387
1061.194, 3065.980
1062.298, 3679.578
1063.402, 3983.168
1064.506, 4306.766
1065.610, 3875.355
1066.713, 3198.957
1067.817, 2688.555
1068.920, 2156.156
1070.023, 1896.754
1071.126, 1486.355
1072.229, 1307.957
1073.332, 1078.887
1074.435, 721.1758
1075.537, 740.7852
1076.639, 595.3945
1077.741, 435.0117
1078.843, 616.6250
1079.945, 378.2500
1081.046, 821.8750
1082.148, 639.5156
1083.249, 466.1562
1084.350, 612.8281
1085.451, 879.5039
1086.551, 718.1797
1087.652, 618.8633
1088.752, 399.5508
1089.853, 476.2461
1090.953, 404.9492
1092.053, 249.6602
1093.152, 259.3789
1094.252, 155.0977
1095.351, 207.8164
1096.451, 351.5469
1097.550, 294.2734
1098.649, 297.0078
1099.748, 160.7422
1100.846, 454.3359
1101.945, 250.0820
1103.043, 657.8281
1104.141, 716.5820
1105.239, 461.1562
1106.337, 365.8164
1107.434, 935.5859
1108.532, 836.7344
1109.629, 756.5117
1110.726, 788.9531
1111.823, 504.7383
1112.920, 547.5352
1114.017, 432.3477
1115.113, 725.1680
1116.210, 702.0000
1117.306, 706.8750
1118.402, 625.7578
1119.498, 588.6523
1120.593, 467.5781
1121.689, 862.5312
1122.784, 522.5156
1123.879, 732.5000
1124.974, 514.4922
1126.069, 521.4922
1127.164, 497.4961
1128.259, 247.5117
1129.353, 270.2422
1130.447, 70.30078
1131.541, 54.33984
1132.635, 98.41797
1133.729, 15.51953
1134.822, 21.59766
1135.916, 75.69922
1137.009, 47.83594
1138.102, 239.9805
1139.195, 204.1328
1140.288, 236.2969
1141.380, 18.53516
1142.473, 273.6328
1143.565, 296.1953
1144.657, 132.8281
1145.749, 308.8594
1146.841, 185.9023
1147.932, 138.0547
1149.024, 148.0703
1150.115, 204.8438
1151.206, 31.76953
1152.297, 224.6953
1153.388, 213.6250
1154.479, 35.56641
1155.569, 100.4883
1156.659, 42.58203
1157.750, 93.66797
1158.839, 31.22266
1159.929, 56.84766
1161.019, 46.06250
1162.108, 186.9727
1163.198, 194.1016
1164.287, 117.7266
1165.376, 185.5625
1166.465, 342.4023
1167.553, 124.7500
1168.642, 165.0430
1169.730, 135.8438
1170.818, 344.6602
1171.906, 157.4727
1172.994, 95.29688
1174.082, 42.12891
1175.170, 176.9688
1176.257, 14.18750
1177.344, 207.6914
1178.431, 148.5742
1179.518, 297.4648
1180.605, 63.63672
1181.691, 381.2383
1182.778, 144.1211
1183.864, 205.0039
1184.950, 243.9141
1186.036, 235.8281
1187.122, 370.7734
1188.207, 207.7227
1189.292, 437.6758
1190.378, 363.6328
1191.463, 244.5977
1192.548, 278.5742
1193.632, 274.7500
1194.717, 395.5352
1195.801, 320.5195
1196.886, 438.5195
1197.970, 340.5234
1199.054, 272.5430
1200.137, 408.5703
1201.221, 150.6094
1202.305, 220.6484
1203.388, 506.6914
1204.471, 312.7617
1205.554, 149.8516
1206.637, 39.94922
1207.719, 306.0430
1208.802, 247.1484
1209.884, 425.2852
1210.966, 322.4258
1212.048, 434.5703
1213.130, 277.7266
1214.212, 208.9453
1215.293, 330.1641
1216.374, 424.3828
1217.456, 536.6172
1218.536, 504.1133
1219.617, 457.9844
1220.698, 377.3398
1221.778, 270.5938
1222.859, 148.8516
1223.939, 140.1172
1225.019, 529.3906
1226.099, 506.6719
1227.178, 512.9570
1228.258, 501.2461
1229.337, 453.6484
1230.417, 555.8516
1231.496, 344.1641
1232.574, 546.4766
1233.653, 498.7969
1234.732, 344.1211
1235.810, 289.4766
1236.888, 475.8398
1237.966, 615.2031
1239.044, 460.6094
1240.122, 353.0234
1241.199, 543.4453
1242.277, 301.9102
1243.354, 349.3789
1244.431, 593.8555
1245.508, 659.3438
1246.585, 641.8320
1247.661, 459.3242
1248.738, 525.8203
1249.814, 533.4180
1250.890, 559.0742
1251.966, 515.0078
1253.042, 402.0938
1254.117, 424.6094
1255.193, 480.1289
1256.268, 524.0117
1257.343, 551.5391
1258.418, 537.0664
1259.493, 558.1172
1260.567, 524.2773
1261.642, 456.0156
1262.716, 465.5664
1263.790, 474.6680
1264.864, 483.9453
1265.938, 476.5391
1267.011, 316.4297
1268.085, 272.2812
1269.158, 378.1250
1270.231, 256.5312
1271.304, 517.0977
1272.377, 246.6914
1273.450, 391.4883
1274.522, 545.0820
1275.594, 519.0234
1276.666, 603.0430
1277.738, 573.2852
1278.810, 588.3867
1279.882, 648.0195
1280.953, 633.1562
1282.025, 553.5156
1283.096, 477.8359
1284.167, 320.4453
1285.238, 156.5000
1286.308, 24.37109
1287.379, 783.5273
1288.449, 350.6797
1289.519, 451.7695
1290.589, 588.3789
1291.659, 343.9805
1292.729, 538.1875
1293.798, 520.7930
1294.868, 241.3945
1295.937, 606.0000
1297.006, 550.1445
1298.075, 721.1094
1299.143, 788.4961
1300.212, 773.3750
1301.280, 627.1719
1302.348, 405.8555
1303.416, 635.4492
1304.484, 605.6953
1305.552, 570.8008
1306.620, 256.3789
1307.687, 455.7031
1308.754, 546.6719
1309.821, 928.0391
1310.888, 345.6758
1311.955, 713.5273
1313.021, 550.9883
1314.088, 853.5391
1315.154, 808.1602
1316.220, 747.8711
1317.286, 870.5508
1318.352, 823.1875
1319.417, 838.7188
1320.483, 666.3867
1321.548, 462.8906
1322.613, 551.8242
1323.678, 728.3359
1324.743, 455.8008
1325.807, 878.3242
1326.872, 826.3633
1327.936, 704.6328
1329.000, 846.6914
1330.064, 815.6250
1331.128, 672.2109
1332.191, 836.4688
1333.255, 692.7188
1334.318, 479.2812
1335.381, 752.0625
1336.444, 398.3750
1337.507, 719.2031
1338.569, 811.7891
1339.632, 617.9180
1340.694, 668.0000
1341.756, 697.5508
1342.818, 595.6875
1343.880, 637.7500
1344.941, 482.7773
1346.003, 594.3867
1347.064, 530.9961
1348.125, 762.9805
1349.186, 472.5938
1350.247, 752.7500
1351.308, 694.3711
1352.368, 447.1914
1353.428, 838.8125
1354.489, 652.4375
1355.549, 523.8633
1356.608, 546.2109
1357.668, 434.8320
1358.727, 642.4844
1359.787, 268.1016
1360.846, 587.7266
1361.905, 546.3477
1362.964, 299.9727
1364.022, 486.5938
1365.081, 376.3320
1366.139, 291.9570
1367.197, 110.8867
1368.255, 515.6250
1369.313, 317.9414
1370.371, 176.4570
1371.428, 488.2422
1372.486, 365.8242
1373.543, 579.3320
1374.600, 392.8320
1375.657, 150.4531
1376.713, 107.9453
1377.770, 95.10938
1378.826, 515.7891
1379.882, 234.9922
1380.938, 302.3750
1381.994, 364.0078
1383.050, 54.34375
1384.106, 303.7188
1385.161, 446.0430
1386.216, 21.35938
1387.271, 64.66406
1388.326, 34.93750
1389.381, 255.1992
1390.435, 120.8359
1391.490, 128.1875
1392.544, 186.0352
1393.598, 87.14453
1394.652, 98.39844
1395.705, 101.9492
1396.759, 69.27344
1397.812, 71.19531
1398.866, 243.1055
1399.919, 151.9883
1400.972, 310.9297
1402.024, 84.84375
1403.077, 217.7305
1404.129, 219.6016
1405.181, 157.4922
1406.233, 164.3984
1407.285, 192.7227
1408.337, 312.1797
1409.389, 443.8906
1410.440, 299.9492
1411.491, 305.5898
1412.542, 86.76953
1413.593, 26.17188
1414.644, 103.6055
1415.695, 83.09375
1416.745, 224.5625
1417.795, 224.0039
1418.845, 228.4180
1419.895, 278.7188
1420.945, 233.5898
1421.995, 230.5039
1423.044, 59.19531
1424.093, 108.6172
1425.142, 26.01953
1426.191, 131.0859
1427.240, 150.1133
1428.289, 178.0312
1429.337, 331.9062
1430.385, 45.72656
1431.433, 109.4961
1432.481, 307.1953
1433.529, 37.83984
1434.577, 110.4336
1435.624, 322.2148
1436.672, 190.6680
1437.719, 140.0703
1438.766, 38.00391
1439.812, 360.2891
1440.859, 55.97656
1441.905, 172.0820
1442.952, 251.0781
1443.998, 155.5469
1445.044, 19.18750
1446.090, 181.8555
1447.135, 267.3359
1448.181, 117.4336
1449.226, 338.5352
1450.271, 32.62500
1451.316, 375.7031
1452.361, 9.214844
1453.405, 63.80469
1454.450, 107.8242
1455.494, 346.8086
1456.538, 134.7734
1457.582, 40.32422
1458.626, 7.480469
1459.670, 276.3633
1460.713, 193.1992
1461.757, 79.03125
1462.800, 45.14062
1463.843, 248.6797
1464.886, 124.4922
1465.928, 137.2969
1466.971, 164.8984
1468.013, 283.9062
1469.055, 476.7031
1470.097, 162.5000
1471.139, 415.2383
1472.181, 347.9258
1473.222, 181.6016
1474.263, 522.2773
1475.305, 145.6289
1476.346, 343.2930
1477.386, 58.94531
1478.427, 393.1172
1479.468, 315.0703
1480.508, 107.6094
1481.548, 119.0664
1482.588, 412.4531
1483.628, 286.2031
1484.668, 436.8281
1485.707, 298.7969
1486.747, 333.2422
1487.786, 376.2617
1488.825, 407.7070
1489.864, 280.1953
1490.902, 697.7305
1491.941, 240.2773
1492.979, 261.4141
1494.017, 102.9961
1495.055, 470.2383
1496.093, 234.4844
1497.131, 89.74609
1498.168, 478.4609
1499.206, 459.9141
1500.243, 278.6875
1501.280, 367.8203
1502.317, 435.3242
1503.354, 525.3789
1504.390, 126.3750
1505.426, 360.6602
1506.463, 64.04688
1507.499, 409.6992
1508.535, 288.2539
1509.570, 559.0078
1510.606, 406.1875
1511.641, 342.2109
1512.676, 443.2539
1513.711, 354.8633
1514.746, 58.26172
1515.781, 29.36719
1516.816, 43.50000
1517.850, 393.5469
1518.884, 254.8555
1519.918, 323.1875
1520.952, 358.9961
1521.986, 597.6992
1523.019, 495.3008
1524.053, 440.2773
1525.086, 467.2695
1526.119, 318.0625
1527.152, 294.7969
1528.185, 356.2773
1529.217, 377.6484
1530.250, 598.8086
1531.282, 169.3789
1532.314, 24.72266
1533.346, 288.7188
1534.377, 152.1562
1535.409, 309.7070
1536.440, 597.5195
1537.472, 455.8828
1538.503, 301.0391
1539.534, 189.0820
1540.564, 389.4883
1541.595, 471.6758
1542.625, 290.6719
1543.656, 595.9766
1544.686, 224.9102
1545.716, 121.0195
1546.745, 78.07812
1547.775, 132.6914
1548.804, 137.0312
1549.834, 342.8828
1550.863, 202.1875
1551.892, 528.7852
1552.920, 438.3984
1553.949, 261.1016
1554.977, 725.2891
1556.006, 352.5117
1557.034, 293.6406
1558.062, 435.7344
1559.089, 10.42188
1560.117, 340.0156
1561.144, 197.7148
1562.172, 44.49219
1563.199, 258.0664
1564.226, 58.67969
1565.252, 436.9961
1566.279, 281.8984
1567.305, 40.69141
1568.332, 345.5938
1569.358, 0.8281250
1570.384, 0.0000000E+00
##END=



