##NAMES=Andalusite
##RRUFFID=R060212
##IDEAL CHEMISTRY=Al_2_SiO_5_
##LOCALITY=Brazil
##OWNER=RRUFF
##SOURCE=Marcus Origlieri
##DESCRIPTION=Transparent yellow-green water-worn pebble
##STATUS=The identification of this mineral is confirmed by single-crystal X-ray diffraction and chemical analysis.
##URL=rruff.info/R060212
##MEASURED CHEMISTRY=(Al_1.98_Fe^3+^_0.02_)_Î£=2_Si_1.00_O_5_
##PIN_ID=M00061
##ORIENTATION=Laser parallel to -a* (-1 0 0). Fiducial mark perpendicular to laser is parallel to -b [0 -1 0]
99.64900, 0.0000000E+00
100.8830, 6.7382999E-02
102.1160, 17.44238
103.3490, 7.299316
104.5820, 1.547852
105.8150, 176.0366
107.0470, 321.1956
108.2800, 616.7815
109.5120, 678.3926
110.7440, 366.0811
111.9760, 87.06079
113.2080, 72.69727
114.4400, 227.2803
115.6710, 241.0781
116.9030, 228.1848
118.1340, 94.91870
119.3650, 60.78125
120.5960, 45.73169
121.8270, 98.96997
123.0580, 85.98291
124.2880, 124.7507
125.5190, 41.99658
126.7490, 11.76831
127.9790, 85.30078
129.2090, 97.60181
130.4390, 103.5908
131.6680, 109.2065
132.8980, 87.03760
134.1270, 63.92334
135.3560, 42.91748
136.5850, 29.10962
137.8140, 98.09058
139.0430, 88.63184
140.2710, 125.7732
141.5000, 114.4902
142.7280, 134.7549
143.9560, 101.6086
145.1840, 57.08691
146.4120, 80.22168
147.6390, 114.0391
148.8670, 49.56519
150.0940, 2.179932
151.3210, 142.8225
152.5490, 77.58960
153.7750, 95.58423
155.0020, 34.93823
156.2290, 101.7903
157.4550, 130.0779
158.6810, 194.2725
159.9080, 228.5906
161.1340, 234.7915
162.3590, 309.0691
163.5850, 364.3435
164.8110, 409.3005
166.0360, 386.4297
167.2610, 463.7385
168.4860, 486.0562
169.7110, 453.3767
170.9360, 421.7012
172.1610, 410.0339
173.3850, 366.4116
174.6100, 387.9312
175.8340, 233.5784
177.0580, 365.3413
178.2820, 304.2083
179.5050, 379.1685
180.7290, 290.2090
181.9520, 332.3206
183.1760, 413.4927
184.3990, 401.7148
185.6220, 424.9834
186.8450, 647.2747
188.0670, 711.5859
189.2900, 885.9238
190.5120, 931.2812
191.7340, 813.6436
192.9560, 804.0144
194.1780, 720.3977
195.4000, 802.7922
196.6220, 691.1914
197.8430, 625.5972
199.0640, 706.9795
200.2860, 753.3635
201.5070, 751.7354
202.7270, 741.1016
203.9480, 571.4617
205.1690, 278.8145
206.3890, 185.1611
207.6090, 133.5017
208.8290, 75.83740
210.0490, 15.83154
211.2690, 5.494629
212.4890, 57.18506
213.7080, 44.86841
214.9280, 8.552979
216.1470, 9.239258
217.3660, 73.92578
218.5850, 42.38745
219.8030, 103.2986
221.0220, 31.98389
222.2400, 78.66870
223.4590, 49.35107
224.6770, 21.03223
225.8950, 101.7109
227.1120, 27.38232
228.3300, 8.938721
229.5480, 84.27588
230.7650, 118.5835
231.9820, 237.8420
233.1990, 363.0105
234.4160, 463.0588
235.6330, 698.0051
236.8490, 856.8403
238.0660, 1151.646
239.2820, 1198.461
240.4980, 1197.302
241.7140, 1195.169
242.9300, 921.1108
244.1460, 816.1069
245.3610, 695.1255
246.5770, 593.4238
247.7920, 548.5103
249.0070, 395.5293
250.2220, 438.4370
251.4370, 420.1709
252.6510, 373.8906
253.8660, 442.4956
255.0800, 374.9917
256.2940, 365.3711
257.5080, 476.6362
258.7220, 546.8047
259.9360, 636.7852
261.1490, 605.6689
262.3630, 605.4639
263.5760, 549.1602
264.7890, 602.5659
266.0020, 613.0615
267.2150, 714.2397
268.4270, 708.5566
269.6400, 786.7119
270.8520, 931.9150
272.0640, 1077.577
273.2760, 1137.884
274.4880, 1400.609
275.7000, 1600.308
276.9120, 1933.953
278.1230, 2456.541
279.3340, 3123.961
280.5450, 4052.130
281.7560, 5145.002
282.9670, 6512.587
284.1780, 7684.812
285.3880, 9507.913
286.5980, 11510.16
287.8090, 13577.33
289.0190, 15527.55
290.2290, 16236.58
291.4380, 15441.16
292.6480, 13363.45
293.8570, 10650.48
295.0670, 8286.875
296.2760, 6182.743
297.4850, 4639.836
298.6930, 3558.496
299.9020, 2759.282
301.1110, 2104.130
302.3190, 1871.544
303.5270, 1696.937
304.7350, 1707.472
305.9430, 1797.951
307.1510, 2256.232
308.3580, 2781.660
309.5660, 3920.078
310.7730, 5353.479
311.9800, 7020.887
313.1870, 9133.307
314.3940, 11776.74
315.6010, 15261.18
316.8070, 19516.63
318.0130, 23590.10
319.2200, 26099.58
320.4260, 25025.07
321.6310, 21188.17
322.8370, 16606.68
324.0430, 12445.13
325.2480, 9035.659
326.4540, 6596.092
327.6590, 4988.638
328.8640, 3857.194
330.0680, 3181.760
331.2730, 2673.333
332.4780, 2236.916
333.6820, 2023.505
334.8860, 1782.104
336.0900, 1633.711
337.2940, 1569.326
338.4980, 1651.950
339.7010, 1724.582
340.9050, 1856.224
342.1080, 1998.874
343.3110, 2319.533
344.5140, 3002.202
345.7170, 3503.880
346.9200, 4497.567
348.1220, 5999.266
349.3240, 7584.974
350.5270, 9645.691
351.7290, 12161.82
352.9310, 15037.22
354.1320, 18125.77
355.3340, 20860.20
356.5350, 22632.97
357.7370, 22889.11
358.9380, 21445.89
360.1390, 18879.66
361.3400, 15810.49
362.5400, 13176.47
363.7410, 10323.74
364.9410, 8510.005
366.1410, 7135.812
367.3410, 5700.753
368.5410, 4931.597
369.7410, 4117.282
370.9400, 3572.967
372.1400, 3132.379
373.3390, 2790.062
374.5380, 2485.338
375.7370, 2159.927
376.9360, 1843.904
378.1350, 1528.895
379.3330, 1422.718
380.5310, 1288.738
381.7300, 991.9346
382.9280, 1013.702
384.1260, 958.3516
385.3230, 964.3701
386.5210, 878.4658
387.7180, 966.6851
388.9160, 885.5703
390.1130, 947.6333
391.3100, 916.7847
392.5060, 865.6011
393.7030, 690.7310
394.9000, 552.8594
396.0960, 426.9858
397.2920, 351.2310
398.4880, 259.2373
399.6840, 275.3623
400.8800, 219.4883
402.0750, 237.6152
403.2710, 214.7432
404.4660, 274.8740
405.6610, 239.0078
406.8560, 245.1440
408.0510, 356.2847
409.2450, 260.4297
410.4400, 382.5801
411.6340, 440.7363
412.8280, 434.8979
414.0220, 582.0664
415.2160, 566.2407
416.4100, 706.4238
417.6030, 722.6201
418.7970, 628.8262
419.9900, 461.0396
421.1830, 432.2627
422.3760, 348.4941
423.5690, 225.7358
424.7610, 176.9883
425.9540, 211.2529
427.1460, 88.53125
428.3380, 52.82031
429.5300, 140.1211
430.7220, 54.43262
431.9140, 37.75488
433.1050, 8.088867
434.2970, 45.43408
435.4880, 17.20557
436.6790, 37.16064
437.8700, 83.53955
439.0610, 84.93359
440.2510, 242.3486
441.4420, 434.7764
442.6320, 710.2173
443.8220, 996.6719
445.0120, 1409.145
446.2020, 1830.632
447.3910, 2507.134
448.5810, 3533.651
449.7700, 4403.185
450.9600, 4472.732
452.1490, 3448.296
453.3370, 2356.876
454.5260, 1388.471
455.7150, 915.0815
456.9030, 466.7075
458.0910, 319.3491
459.2800, 215.0063
460.4670, 176.6797
461.6550, 199.3682
462.8430, 194.0723
464.0300, 219.7920
465.2180, 237.5137
466.4050, 261.2817
467.5920, 294.0508
468.7790, 364.8350
469.9650, 420.6357
471.1520, 452.4517
472.3380, 578.2832
473.5250, 578.1309
474.7110, 672.9937
475.8970, 685.8726
477.0820, 760.7666
478.2680, 813.6792
479.4540, 868.6216
480.6390, 919.6152
481.8240, 825.6406
483.0090, 791.7051
484.1940, 765.8062
485.3780, 646.9507
486.5630, 540.1270
487.7470, 368.3516
488.9320, 392.6230
490.1160, 254.9341
491.3000, 201.2954
492.4830, 182.7134
493.6670, 22.84326
494.8500, 9.344238
496.0340, 30.80859
497.2170, 57.25830
498.4000, 114.6714
499.5820, 153.0996
500.7650, 56.54736
501.9480, 89.97266
503.1300, 49.38428
504.3120, 15.21875
505.4940, 7.870117
506.6760, 57.43750
507.8580, 55.27295
509.0390, 100.0396
510.2210, 126.8555
511.4020, 114.7129
512.5830, 54.60303
513.7640, 190.5479
514.9450, 63.52734
516.1250, 134.5322
517.3060, 60.55420
518.4860, 82.59326
519.6660, 78.28857
520.8460, 47.28613
522.0260, 27.77881
523.2060, 4.141602
524.3850, 104.0508
525.5650, 62.98730
526.7440, 69.93408
527.9230, 11.10645
529.1020, 1.838379
530.2810, 21.77197
531.4590, 48.69971
532.6380, 50.63135
533.8160, 19.56836
534.9940, 39.50098
536.1720, 107.5845
537.3500, 182.6816
538.5270, 141.7930
539.7050, 379.9189
540.8820, 497.0586
542.0590, 866.2124
543.2360, 1167.381
544.4130, 1398.563
545.5900, 2066.759
546.7660, 2544.970
547.9430, 2979.194
549.1190, 3582.434
550.2950, 3671.687
551.4710, 3796.954
552.6470, 3328.234
553.8220, 2764.529
554.9980, 2128.839
556.1730, 1699.162
557.3480, 1400.500
558.5230, 1032.851
559.6980, 941.2163
560.8730, 610.5952
562.0470, 555.9883
563.2220, 531.3950
564.3960, 499.8154
565.5700, 386.2495
566.7440, 428.6973
567.9170, 409.1587
569.0910, 296.6333
570.2640, 296.1211
571.4380, 373.6226
572.6110, 428.1377
573.7840, 511.6660
574.9570, 398.2075
576.1290, 339.7632
577.3020, 281.8276
578.4740, 366.4102
579.6460, 359.0054
580.8180, 383.6138
581.9900, 348.2354
583.1620, 379.8711
584.3330, 351.5190
585.5040, 296.1807
586.6760, 343.8555
587.8470, 318.5430
589.0180, 282.2437
590.1880, 321.9575
591.3590, 277.6841
592.5290, 364.4233
593.7000, 295.1758
594.8700, 382.9409
596.0400, 324.7192
597.2090, 364.5088
598.3790, 334.3115
599.5490, 402.1274
600.7180, 346.9551
601.8870, 421.7949
603.0560, 360.6475
604.2250, 278.5112
605.3940, 436.3877
606.5620, 211.2764
607.7300, 380.1768
608.8990, 244.0889
610.0670, 210.0122
611.2350, 306.9482
612.4020, 195.8950
613.5700, 247.8540
614.7370, 240.8237
615.9050, 401.8057
617.0720, 397.7979
618.2390, 397.2129
619.4060, 438.1919
620.5720, 465.3789
621.7390, 502.9331
622.9050, 554.0586
624.0710, 606.8159
625.2370, 666.0859
626.4030, 590.6685
627.5690, 617.0894
628.7340, 492.3354
629.9000, 412.7119
631.0650, 438.8032
632.2300, 471.2930
633.3950, 381.3345
634.5600, 318.5396
635.7240, 261.3706
636.8890, 337.1943
638.0530, 382.2217
639.2170, 428.3135
640.3810, 568.2056
641.5450, 492.1919
642.7080, 622.1147
643.8720, 762.4336
645.0350, 744.5962
646.1980, 560.7632
647.3610, 612.9346
648.5240, 538.1104
649.6870, 547.2886
650.8490, 500.4707
652.0120, 535.6567
653.1740, 463.8447
654.3360, 420.0356
655.4980, 447.2300
656.6600, 416.4268
657.8210, 399.6255
658.9830, 475.8267
660.1440, 424.0303
661.3050, 572.4194
662.4660, 595.6284
663.6270, 646.6768
664.7870, 657.1719
665.9480, 705.0342
667.1080, 711.0830
668.2680, 783.3032
669.4280, 892.4170
670.5880, 912.8813
671.7480, 1080.185
672.9070, 1217.399
674.0670, 1190.948
675.2260, 1252.184
676.3850, 1459.422
677.5440, 1404.662
678.7030, 1448.906
679.8610, 1487.151
681.0200, 1655.399
682.1780, 1696.649
683.3360, 1634.901
684.4940, 1674.156
685.6520, 1592.412
686.8090, 1683.670
687.9670, 1739.930
689.1240, 1793.191
690.2810, 1725.455
691.4380, 1878.721
692.5950, 1726.988
693.7520, 1915.257
694.9080, 1781.527
696.0650, 1833.798
697.2210, 1838.071
698.3770, 1867.345
699.5330, 1857.621
700.6880, 1880.897
701.8440, 2081.175
702.9990, 2095.453
704.1550, 2183.733
705.3100, 2437.015
706.4650, 2608.299
707.6190, 2985.586
708.7740, 3391.877
709.9290, 3487.172
711.0830, 3908.468
712.2370, 4355.767
713.3910, 4514.067
714.5450, 4541.396
715.6980, 4473.725
716.8520, 4156.058
718.0050, 3626.392
719.1580, 3176.726
720.3110, 2554.060
721.4640, 1995.412
722.6170, 1682.765
723.7700, 1302.117
724.9220, 1045.492
726.0740, 895.8999
727.2260, 610.3066
728.3780, 442.7129
729.5300, 469.1187
730.6810, 373.5249
731.8330, 366.9297
732.9840, 369.3340
734.1350, 297.7378
735.2860, 185.1406
736.4370, 314.5425
737.5880, 204.9438
738.7380, 350.3438
739.8880, 281.7432
741.0390, 278.1416
742.1890, 146.5386
743.3380, 128.9341
744.4880, 208.3286
745.6380, 266.7222
746.7870, 172.1143
747.9360, 170.5054
749.0850, 153.8945
750.2340, 111.2827
751.3830, 109.6689
752.5310, 89.05371
753.6800, 48.43750
754.8280, 115.8188
755.9760, 24.19873
757.1240, 23.42822
758.2720, 104.0850
759.4190, 33.81396
760.5670, 56.57861
761.7140, 50.39160
762.8610, 74.24805
764.0080, 31.16211
765.1550, 92.11084
766.3020, 89.12598
767.4480, 59.20605
768.5950, 102.3354
769.7410, 124.5366
770.8870, 5.822266
772.0330, 147.1289
773.1780, 54.52686
774.3240, 16.02979
775.4690, 56.41797
776.6140, 41.09668
777.7590, 40.63037
778.9040, 122.1934
780.0490, 33.23633
781.1940, 152.3164
782.3380, 147.8760
783.4820, 132.4341
784.6260, 228.9897
785.7700, 356.5435
786.9140, 396.0952
788.0580, 499.6450
789.2010, 512.1934
790.3450, 554.8428
791.4880, 655.2827
792.6310, 574.8252
793.7730, 580.3647
794.9160, 534.9033
796.0590, 577.4395
797.2010, 556.9741
798.3430, 636.5068
799.4850, 622.0464
800.6270, 712.5850
801.7690, 810.1226
802.9100, 862.6797
804.0520, 869.2471
805.1930, 871.8262
806.3340, 814.4043
807.4750, 849.9819
808.6160, 713.5610
809.7560, 602.1489
810.8970, 432.7446
812.0370, 496.3433
813.1770, 311.9409
814.3170, 239.5371
815.4570, 247.1323
816.5960, 136.7271
817.7360, 123.3203
818.8750, 227.9121
820.0140, 68.50293
821.1530, 332.0938
822.2920, 208.6826
823.4310, 343.2705
824.5690, 423.8574
825.7070, 503.4429
826.8460, 510.0273
827.9840, 605.6113
829.1220, 714.1943
830.2590, 895.7764
831.3970, 863.3574
832.5340, 1001.938
833.6710, 860.5166
834.8080, 819.0947
835.9450, 627.6719
837.0820, 634.2485
838.2190, 623.8232
839.3550, 418.3975
840.4910, 543.9712
841.6270, 420.5444
842.7630, 409.6792
843.8990, 368.4766
845.0350, 328.4951
846.1700, 219.8110
847.3060, 268.3794
848.4410, 268.3975
849.5760, 369.9634
850.7100, 336.8457
851.8450, 318.6392
852.9800, 370.2017
854.1140, 431.7632
855.2480, 370.3232
856.3820, 518.8818
857.5160, 551.7637
858.6500, 510.3198
859.7830, 593.8740
860.9170, 641.5137
862.0500, 544.4775
863.1830, 494.0264
864.3160, 441.5728
865.4480, 432.7520
866.5810, 483.6597
867.7130, 467.1997
868.8460, 590.7373
869.9780, 632.2739
871.1100, 608.0156
872.2410, 529.3398
873.3730, 554.8696
874.5050, 573.3989
875.6360, 550.9258
876.7670, 564.4531
877.8980, 642.9785
879.0290, 537.5015
880.1590, 567.0229
881.2900, 698.5688
882.4200, 672.1133
883.5500, 709.6558
884.6800, 691.2026
885.8100, 836.7480
886.9400, 940.2964
888.0690, 905.8442
889.1990, 976.3896
890.3280, 1171.934
891.4570, 1213.476
892.5860, 1303.605
893.7140, 1459.180
894.8430, 1584.679
895.9710, 1846.575
897.1000, 2138.032
898.2280, 2458.878
899.3560, 2696.220
900.4830, 3030.260
901.6110, 3508.489
902.7380, 3817.903
903.8660, 4487.195
904.9930, 5123.781
906.1200, 6172.977
907.2460, 7532.632
908.3730, 9680.426
909.5000, 12244.04
910.6260, 15914.92
911.7520, 20789.44
912.8780, 26541.95
914.0040, 33389.44
915.1290, 40925.06
916.2550, 47988.07
917.3800, 52066.69
918.5050, 52041.32
919.6300, 46915.97
920.7550, 38834.61
921.8800, 30697.26
923.0040, 23617.92
924.1290, 18448.57
925.2530, 14571.25
926.3770, 12055.93
927.5010, 9987.609
928.6250, 8340.297
929.7480, 6987.990
930.8720, 5958.687
931.9950, 5112.387
933.1180, 4486.092
934.2410, 3880.803
935.3640, 3394.518
936.4860, 2951.251
937.6090, 2675.990
938.7310, 2464.740
939.8530, 2285.505
940.9750, 2085.277
942.0970, 1931.068
943.2180, 1969.880
944.3400, 1877.719
945.4610, 1943.563
946.5820, 2027.690
947.7030, 2038.759
948.8240, 2136.253
949.9450, 2097.166
951.0650, 1851.082
952.1860, 1707.002
953.3060, 1393.927
954.4260, 1186.856
955.5460, 1019.790
956.6650, 905.7280
957.7850, 747.6870
958.9040, 650.5674
960.0230, 519.5679
961.1420, 486.5229
962.2610, 422.4824
963.3800, 392.4463
964.4990, 272.4146
965.6170, 186.3872
966.7350, 266.3638
967.8530, 344.3447
968.9710, 144.3296
970.0890, 171.3198
971.2070, 61.31348
972.3240, 48.31201
973.4410, 65.31445
974.5580, 37.32129
975.6750, 26.49561
976.7920, 20.65234
977.9090, 10.63965
979.0250, 17.62549
980.1410, 24.61230
981.2580, 20.39697
982.3740, 17.58984
983.4890, 8.421875
984.6050, 117.5620
985.7200, 10.59717
986.8360, 50.36865
987.9510, 12.33936
989.0660, 122.3140
990.1810, 61.29248
991.2950, 85.72461
992.4100, 13.22412
993.5240, 36.17725
994.6390, 97.86572
995.7530, 134.9502
996.8660, 45.90576
997.9800, 176.7656
999.0940, 327.6299
1000.207, 471.4980
1001.320, 443.3711
1002.433, 591.2480
1003.546, 416.1294
1004.659, 245.0151
1005.772, 228.9048
1006.884, 195.7988
1007.996, 75.83887
1009.108, 272.7412
1010.220, 174.9399
1011.332, 281.8516
1012.444, 317.7671
1013.555, 566.6875
1014.666, 515.7100
1015.777, 668.6382
1016.888, 625.5703
1017.999, 736.9023
1019.110, 859.8423
1020.220, 725.6416
1021.331, 676.7139
1022.441, 607.6650
1023.551, 704.6201
1024.661, 647.5791
1025.770, 585.5420
1026.880, 623.5107
1027.989, 420.4976
1029.098, 394.5229
1030.207, 315.5693
1031.316, 280.1963
1032.425, 157.2944
1033.533, 289.4233
1034.642, 56.14502
1035.750, 330.3296
1036.858, 123.5493
1037.966, 204.7959
1039.073, 213.0806
1040.181, 48.40918
1041.288, 158.7510
1042.396, 110.1426
1043.503, 112.5591
1044.610, 170.9834
1045.716, 112.4336
1046.823, 168.3955
1047.929, 77.64404
1049.036, 225.1055
1050.142, 224.5859
1051.248, 240.7134
1052.353, 279.1992
1053.459, 225.4839
1054.564, 412.9756
1055.670, 464.7920
1056.775, 476.2886
1057.880, 673.0322
1058.985, 801.9741
1060.089, 1025.477
1061.194, 1231.981
1062.298, 1393.489
1063.402, 1456.999
1064.506, 1410.511
1065.610, 1118.024
1066.713, 1157.540
1067.817, 993.0571
1068.920, 742.9009
1070.023, 654.4263
1071.126, 478.5732
1072.229, 489.1367
1073.332, 445.5005
1074.435, 557.9912
1075.537, 413.4175
1076.639, 452.2456
1077.741, 486.9224
1078.843, 398.7915
1079.945, 590.5063
1081.046, 610.0898
1082.148, 596.6260
1083.249, 601.1621
1084.350, 478.7012
1085.451, 470.2397
1086.551, 448.7783
1087.652, 449.3154
1088.752, 526.8525
1089.853, 321.3892
1090.953, 525.9243
1092.053, 345.4595
1093.152, 373.9937
1094.252, 380.5273
1095.351, 301.0605
1096.451, 309.5938
1097.550, 377.1270
1098.649, 297.6592
1099.748, 230.1909
1100.846, 296.7217
1101.945, 304.2510
1103.043, 331.7798
1104.141, 352.8110
1105.239, 349.8335
1106.337, 365.3589
1107.434, 378.8828
1108.532, 367.4058
1109.629, 360.3643
1110.726, 342.8115
1111.823, 251.7310
1112.920, 281.5029
1114.017, 259.0205
1115.113, 205.0859
1116.210, 275.6006
1117.306, 365.7974
1118.402, 228.0806
1119.498, 443.5928
1120.593, 354.1035
1121.689, 493.6138
1122.784, 455.1235
1123.879, 453.3066
1124.974, 390.8145
1126.069, 366.0815
1127.164, 322.7407
1128.259, 284.8335
1129.353, 242.4717
1130.447, 207.9307
1131.541, 150.3491
1132.635, 143.8545
1133.729, 94.35938
1134.822, 81.86426
1135.916, 98.36963
1137.009, 71.87354
1138.102, 82.37744
1139.195, 6.881348
1140.288, 49.38232
1141.380, 3.882813
1142.473, 31.37891
1143.565, 80.87451
1144.657, 94.37012
1145.749, 88.13623
1146.841, 80.30566
1147.932, 61.74609
1149.024, 12.81396
1150.115, 224.6123
1151.206, 3.961914
1152.297, 9.454590
1153.388, 42.86768
1154.479, 117.2803
1155.569, 63.69238
1156.659, 34.10352
1157.750, 65.51465
1158.839, 92.92432
1159.929, 90.33301
1161.019, 83.74072
1162.108, 29.85254
1163.198, 121.5303
1164.287, 51.91162
1165.376, 61.70850
1166.465, 87.63037
1167.553, 30.96631
1168.642, 69.30127
1169.730, 73.63379
1170.818, 29.96436
1171.906, 137.2930
1172.994, 58.61816
1174.082, 151.9414
1175.170, 56.26221
1176.257, 120.5801
1177.344, 46.89453
1178.431, 8.206543
1179.518, 72.51221
1180.605, 43.81494
1181.691, 29.88525
1182.778, 141.3877
1183.864, 0.3422850
1184.950, 71.91650
1186.036, 8.172852
1187.122, 56.42188
1188.207, 7.331543
1189.292, 5.899902
1190.378, 22.12305
1191.463, 52.34375
1192.548, 44.56055
1193.632, 60.77490
1194.717, 67.46045
1195.801, 78.19531
1196.886, 58.40088
1197.970, 51.67432
1199.054, 40.19678
1200.137, 18.97021
1201.221, 13.10840
1202.305, 19.72070
1203.388, 0.5971680
1204.471, 34.48438
1205.554, 49.40186
1206.637, 71.79004
1207.719, 12.64111
1208.802, 120.3672
1209.884, 22.10596
1210.966, 4.143555
1212.048, 150.8486
1213.130, 100.7568
1214.212, 55.36865
1215.293, 132.2407
1216.374, 145.1099
1217.456, 233.9761
1218.536, 334.8389
1219.617, 176.6992
1220.698, 251.5562
1221.778, 307.4102
1222.859, 378.2612
1223.939, 402.1099
1225.019, 474.0493
1226.099, 520.9541
1227.178, 575.0352
1228.258, 711.8716
1229.337, 928.7056
1230.417, 892.5376
1231.496, 1210.367
1232.574, 1056.192
1233.653, 1212.016
1234.732, 1187.836
1235.810, 1152.654
1236.888, 1007.470
1237.966, 1017.282
1239.044, 997.0928
1240.122, 943.9033
1241.199, 1051.714
1242.277, 1164.525
1243.354, 1264.337
1244.431, 1358.146
1245.508, 1366.956
1246.585, 1443.764
1247.661, 1391.598
1248.738, 1536.430
1249.814, 1434.260
1250.890, 1435.089
1251.966, 1471.914
1253.042, 1386.738
1254.117, 1352.580
1255.193, 1190.419
1256.268, 1202.256
1257.343, 1132.115
1258.418, 1104.002
1259.493, 1117.889
1260.567, 1148.773
1261.642, 1038.705
1262.716, 1128.586
1263.790, 1177.470
1264.864, 1242.353
1265.938, 1026.234
1267.011, 1012.114
1268.085, 955.9922
1269.158, 951.7266
1270.231, 960.6025
1271.304, 781.1846
1272.377, 818.0576
1273.450, 826.9287
1274.522, 692.7969
1275.594, 545.5674
1276.666, 564.4346
1277.738, 624.3018
1278.810, 493.7715
1279.882, 501.6367
1280.953, 461.6455
1282.025, 411.3857
1283.096, 396.2490
1284.167, 536.1123
1285.238, 340.9756
1286.308, 434.8379
1287.379, 444.6992
1288.449, 383.5605
1289.519, 426.4229
1290.589, 443.2842
1291.659, 418.5918
1292.729, 499.4541
1293.798, 386.3154
1294.868, 507.6055
1295.937, 483.4678
1297.006, 552.3311
1298.075, 534.7539
1299.143, 556.0615
1300.212, 442.9277
1301.280, 445.7949
1302.348, 344.6631
1303.416, 419.5459
1304.484, 347.4316
1305.552, 260.3164
1306.620, 471.2031
1307.687, 536.7930
1308.754, 567.6816
1309.821, 564.5732
1310.888, 589.8223
1311.955, 558.7168
1313.021, 529.8174
1314.088, 557.7148
1315.154, 439.2910
1316.220, 543.1895
1317.286, 590.8457
1318.352, 498.3066
1319.417, 430.2129
1320.483, 437.1182
1321.548, 434.0215
1322.613, 350.9238
1323.678, 440.8271
1324.743, 342.7295
1325.807, 250.6338
1326.872, 246.5371
1327.936, 169.1172
1329.000, 151.0195
1330.064, 203.2998
1331.128, 182.1621
1332.191, 204.2236
1333.255, 169.7275
1334.318, 53.16797
1335.381, 70.77441
1336.444, 47.53711
1337.507, 16.89160
1338.569, 5.164063
1339.632, 38.72656
1340.694, 2.390625
1341.756, 29.47363
1342.818, 25.44238
1343.880, 118.3613
1344.941, 27.28516
1346.003, 11.21191
1347.064, 96.14258
1348.125, 43.07812
1349.186, 14.01758
1350.247, 70.95996
1351.308, 96.90820
1352.368, 7.139648
1353.428, 5.184570
1354.489, 14.22363
1355.549, 57.73926
1356.608, 88.70703
1357.668, 61.67969
1358.727, 62.65625
1359.787, 53.64844
1360.846, 34.87500
1361.905, 25.61719
1362.964, 43.61426
1364.022, 39.61523
1365.081, 40.20508
1366.139, 52.63574
1367.197, 54.65234
1368.255, 101.6768
1369.313, 146.7051
1370.371, 139.7402
1371.428, 114.7803
1372.486, 59.82617
1373.543, 61.87793
1374.600, 105.9355
1375.657, 38.99805
1376.713, 36.06738
1377.770, 59.14160
1378.826, 142.2227
1379.882, 154.3086
1380.938, 82.40039
1381.994, 99.56543
1383.050, 77.66895
1384.106, 136.7793
1385.161, 56.89551
1386.216, 66.01758
1387.271, 156.1455
1388.326, 4.720703
1389.381, 120.4209
1390.435, 179.7764
1391.490, 188.0928
1392.544, 133.2549
1393.598, 102.4238
1394.652, 32.61035
1395.705, 26.89258
1396.759, 16.41992
1397.812, 7.777344
1398.866, 32.54004
1399.919, 50.75879
1400.972, 60.98633
1402.024, 129.3721
1403.077, 89.64355
1404.129, 83.92188
1405.181, 159.2109
1406.233, 86.51465
1407.285, 120.8291
1408.337, 85.15723
1409.389, 17.49512
1410.440, 189.8438
1411.491, 54.23730
1412.542, 277.6074
1413.593, 119.9873
1414.644, 286.3779
1415.695, 143.7783
1416.745, 246.1904
1417.795, 205.6152
1418.845, 126.1406
1419.895, 209.5732
1420.945, 196.0195
1421.995, 173.4932
1423.044, 246.9795
1424.093, 272.4775
1425.142, 226.3340
1426.191, 204.8545
1427.240, 210.3877
1428.289, 328.9824
1429.337, 373.7998
1430.385, 382.4746
1431.433, 281.9600
1432.481, 335.5635
1433.529, 428.3184
1434.577, 294.9512
1435.624, 495.6025
1436.672, 530.2559
1437.719, 586.1416
1438.766, 551.6475
1439.812, 638.1514
1440.859, 682.6309
1441.905, 709.0869
1442.952, 782.4766
1443.998, 781.0566
1445.044, 812.1113
1446.090, 797.3760
1447.135, 950.7910
1448.181, 912.0361
1449.226, 899.2881
1450.271, 852.5430
1451.316, 1024.835
1452.361, 860.1582
1453.405, 982.5205
1454.450, 864.9639
1455.494, 871.1123
1456.538, 839.4277
1457.582, 879.1865
1458.626, 827.7852
1459.670, 719.3945
1460.713, 821.0166
1461.757, 686.6504
1462.800, 813.1875
1463.843, 662.4951
1464.886, 531.1611
1465.928, 421.8408
1466.971, 462.5322
1468.013, 431.2363
1469.055, 434.9541
1470.097, 516.6846
1471.139, 289.4287
1472.181, 457.1846
1473.222, 404.9561
1474.263, 377.7402
1475.305, 421.5400
1476.346, 340.3535
1477.386, 303.1807
1478.427, 303.0225
1479.468, 239.8799
1480.508, 265.6846
1481.548, 263.5625
1482.588, 184.4482
1483.628, 297.3477
1484.668, 217.2617
1485.707, 303.1904
1486.747, 124.1338
1487.786, 243.0928
1488.825, 209.0654
1489.864, 235.0527
1490.902, 128.0566
1491.941, 41.07422
1492.979, 159.1064
1494.017, 170.1523
1495.055, 134.2139
1496.093, 44.28809
1497.131, 38.37793
1498.168, 32.48242
1499.206, 32.91504
1500.243, 22.72168
1501.280, 88.81152
1502.317, 125.9141
1503.354, 149.0264
1504.390, 135.1494
1505.426, 119.4482
1506.463, 7.425781
1507.499, 26.59082
1508.535, 101.7676
1509.570, 32.97070
1510.606, 85.20996
1511.641, 107.4814
1512.676, 35.78223
1513.711, 171.1143
1514.746, 27.49023
1515.781, 1.060547
1516.816, 55.39648
1517.850, 153.8867
1518.884, 36.40918
1519.918, 16.96191
1520.952, 226.5439
1521.986, 33.15527
1523.019, 123.7988
1524.053, 63.47461
1525.086, 125.1807
1526.119, 13.92188
1527.152, 132.6992
1528.185, 128.5117
1529.217, 86.36133
1530.250, 92.25000
1531.282, 145.1768
1532.314, 154.1455
1533.346, 255.1562
1534.377, 157.2100
1535.409, 58.31152
1536.440, 131.4619
1537.472, 143.6670
1538.503, 84.93262
1539.534, 103.9941
1540.564, 79.38477
1541.595, 123.8330
1542.625, 63.35742
1543.656, 84.77832
1544.686, 110.2080
1545.716, 192.1709
1546.745, 254.4795
1547.775, 126.0557
1548.804, 25.85840
1549.834, 204.5166
1550.863, 237.2354
1551.892, 90.01367
1552.920, 33.15039
1553.949, 223.5000
1554.977, 186.4326
1556.006, 213.4307
1557.034, 83.77051
1558.062, 168.3086
1559.089, 177.0342
1560.117, 155.9854
1561.144, 84.73340
1562.172, 180.1641
1563.199, 237.0537
1564.226, 201.0664
1565.252, 118.7520
1566.279, 154.2568
1567.305, 40.02539
1568.332, 0.1386720
1569.358, 80.46973
1570.384, 0.0000000E+00
##END=



