##NAMES=Andalusite
##RRUFFID=R050626
##IDEAL CHEMISTRY=Al_2_SiO_5_
##LOCALITY=Minas Gerais, Brazil
##OWNER=RRUFF
##SOURCE=Gemological Center
##DESCRIPTION=Grayish brown fragment
##STATUS=The identification of this mineral has been confirmed by X-ray diffraction and chemical analysis
##URL=rruff.info/R050626
##MEASURED CHEMISTRY=(Al_1.99_Fe^3+^_0.01_)_Î£=1_Si_1.00_O_5_
##PIN_ID=L00923
##ORIENTATION=Laser parallel to a* (1 0 0). Fiducial mark perpendicular to laser is parallel to -b [0 -1 0]
123.0580, 0.0000000E+00
124.2880, 33.92285
125.5190, 25.55273
126.7490, 82.01318
127.9790, 2.289795
129.2090, 70.52808
130.4390, 68.56372
131.6680, 192.6716
132.8980, 32.54248
134.1270, 77.78223
135.3560, 22.06665
136.5850, 2.216553
137.8140, 72.52002
139.0430, 149.4458
140.2710, 201.1304
141.5000, 230.3762
142.7280, 56.18359
143.9560, 40.60742
145.1840, 39.54980
146.4120, 14.96143
147.6390, 57.03662
148.8670, 41.27588
150.0940, 35.35303
151.3210, 45.81030
152.5490, 108.6748
153.7750, 131.0229
155.0020, 227.9177
156.2290, 153.4136
157.4550, 90.55615
158.6810, 5.615479
159.9080, 19.93481
161.1340, 7.239258
162.3590, 34.32666
163.5850, 60.22314
164.8110, 162.9504
166.0360, 208.9709
167.2610, 251.2202
168.4860, 280.6814
169.7110, 255.1914
170.9360, 308.6877
172.1610, 366.4873
173.3850, 342.7561
174.6100, 282.7593
175.8340, 295.5303
177.0580, 326.3799
178.2820, 267.9575
179.5050, 368.5725
180.7290, 359.2224
181.9520, 333.9065
183.1760, 309.6233
184.3990, 434.3708
185.6220, 393.1455
186.8450, 479.9419
188.0670, 584.7600
189.2900, 650.6003
190.5120, 709.4629
191.7340, 777.3484
192.9560, 893.2568
194.1780, 913.1890
195.4000, 973.1450
196.6220, 992.1377
197.8430, 1015.193
199.0640, 943.2983
200.2860, 993.4492
201.5070, 1036.646
202.7270, 1045.884
203.9480, 1102.188
205.1690, 900.5266
206.3890, 568.9023
207.6090, 161.3108
208.8290, 64.76221
210.0490, 5.762695
211.2690, 10.26538
212.4890, 18.25366
213.7080, 22.79346
214.9280, 21.33228
216.1470, 1.122559
217.3660, 18.56152
218.5850, 40.01709
219.8030, 30.38818
221.0220, 21.77954
222.2400, 12.83911
223.4590, 15.53516
224.6770, 76.90259
225.8950, 85.26318
227.1120, 55.61572
228.3300, 24.04028
229.5480, 72.70459
230.7650, 0.3781740
231.9820, 180.0610
233.1990, 257.7534
234.4160, 385.4563
235.6330, 594.1694
236.8490, 864.8975
238.0660, 1381.640
239.2820, 1983.394
240.4980, 3146.146
241.7140, 4226.894
242.9300, 4976.651
244.1460, 5107.395
245.3610, 4638.114
246.5770, 4006.833
247.7920, 3261.469
249.0070, 2721.046
250.2220, 2194.656
251.4370, 2008.280
252.6510, 1704.920
253.8660, 1609.580
255.0800, 1476.257
256.2940, 1476.954
257.5080, 1431.669
258.7220, 1444.405
259.9360, 1509.159
261.1490, 1469.514
262.3630, 1468.666
263.5760, 1494.542
264.7890, 1461.376
266.0020, 1558.230
267.2150, 1680.104
268.4270, 1753.998
269.6400, 1809.420
270.8520, 1936.611
272.0640, 2043.563
273.2760, 2268.551
274.4880, 2480.050
275.7000, 2799.978
276.9120, 3134.864
278.1230, 3572.731
279.3340, 4124.540
280.5450, 4834.352
281.7560, 5859.043
282.9670, 7034.395
284.1780, 8575.127
285.3880, 10952.85
286.5980, 13691.55
287.8090, 17309.19
289.0190, 22361.40
290.2290, 29312.91
291.4380, 38622.40
292.6480, 49082.00
293.8570, 57090.55
295.0670, 58696.99
296.2760, 53200.46
297.4850, 42174.88
298.6930, 30587.39
299.9020, 21067.89
301.1110, 14685.38
302.3190, 10255.86
303.5270, 7428.332
304.7350, 5482.538
305.9430, 4191.604
307.1510, 3467.427
308.3580, 2867.637
309.5660, 2410.002
310.7730, 2264.465
311.9800, 2401.926
313.1870, 2458.333
314.3940, 2921.726
315.6010, 3407.099
316.8070, 4325.443
318.0130, 5797.719
319.2200, 8059.971
320.4260, 11890.09
321.6310, 17170.16
322.8370, 22166.23
324.0430, 23694.32
325.2480, 21305.43
326.4540, 16654.55
327.6590, 11930.68
328.8640, 8347.828
330.0680, 6044.986
331.2730, 4573.159
332.4780, 3576.348
333.6820, 2931.549
334.8860, 2462.764
336.0900, 2093.993
337.2940, 1848.174
338.4980, 1709.490
339.7010, 1683.759
340.9050, 1662.041
342.1080, 1758.335
343.3110, 1764.644
344.5140, 1921.964
345.7170, 2104.298
346.9200, 2493.643
348.1220, 3108.002
349.3240, 3815.931
350.5270, 4804.313
351.7290, 6236.752
352.9310, 7927.158
354.1320, 10562.44
355.3340, 13961.49
356.5350, 18627.25
357.7370, 24197.09
358.9380, 30844.54
360.1390, 36178.54
361.3400, 37949.17
362.5400, 36700.25
363.7410, 32012.56
364.9410, 26134.00
366.1410, 20324.71
367.3410, 15894.73
368.5410, 12302.16
369.7410, 9720.862
370.9400, 7620.092
372.1400, 6183.227
373.3390, 4967.587
374.5380, 4077.239
375.7370, 3529.025
376.9360, 3052.665
378.1350, 2553.316
379.3330, 2100.978
380.5310, 1964.664
381.7300, 1809.361
382.9280, 1727.093
384.1260, 1858.842
385.3230, 1929.622
386.5210, 1739.418
387.7180, 1569.236
388.9160, 1366.066
390.1130, 1158.908
391.3100, 1119.762
392.5060, 939.6406
393.7030, 892.5376
394.9000, 684.4722
396.0960, 752.4189
397.2920, 553.3789
398.4880, 541.3516
399.6840, 502.3354
400.8800, 436.3325
402.0750, 345.3428
403.2710, 379.3701
404.4660, 292.4102
405.6610, 278.4609
406.8560, 230.5273
408.0510, 225.6108
409.2450, 238.7065
410.4400, 260.8130
411.6340, 192.9346
412.8280, 185.0669
414.0220, 170.2090
415.2160, 101.3579
416.4100, 109.5132
417.6030, 131.6753
418.7970, 36.84619
419.9900, 93.02393
421.1830, 18.20801
422.3760, 25.39990
423.5690, 51.59961
424.7610, 1.817383
425.9540, 53.95312
427.1460, 8.272949
428.3380, 13.50537
429.5300, 55.74609
430.7220, 70.10156
431.9140, 24.74951
433.1050, 59.50830
434.2970, 33.77490
435.4880, 40.95020
436.6790, 0.3222660
437.8700, 17.60254
439.0610, 4.108398
440.2510, 0.8115230
441.4420, 39.49365
442.6320, 21.80713
443.8220, 25.12988
445.0120, 125.4600
446.2020, 221.7993
447.3910, 290.1465
448.5810, 320.5083
449.7700, 465.8804
450.9600, 800.2642
452.1490, 1394.657
453.3370, 2179.059
454.5260, 2493.469
455.7150, 2071.887
456.9030, 1346.320
458.0910, 846.7715
459.2800, 459.2319
460.4670, 296.7007
461.6550, 213.1792
462.8430, 106.6787
464.0300, 44.18896
465.2180, 41.70850
466.4050, 82.25830
467.5920, 77.81836
468.7790, 23.38867
469.9650, 91.96826
471.1520, 49.55957
472.3380, 55.16113
473.5250, 100.7710
474.7110, 113.3911
475.8970, 165.0200
477.0820, 153.9165
478.2680, 38.30713
479.4540, 107.9639
480.6390, 113.6343
481.8240, 39.31738
483.0090, 73.01221
484.1940, 72.72119
485.3780, 95.44482
486.5630, 148.1953
487.7470, 89.96533
488.9320, 5.766113
490.1160, 90.57959
491.3000, 20.59814
492.4830, 17.23340
493.6670, 1.917969
494.8500, 33.93994
496.0340, 17.81250
497.2170, 41.30566
498.4000, 15.41504
499.5820, 13.49902
500.7650, 17.57617
501.9480, 19.35254
503.1300, 41.70801
504.3120, 34.23047
505.4940, 4.186523
506.6760, 42.15039
507.8580, 44.86230
509.0390, 10.12744
510.2210, 27.87207
511.4020, 21.13574
512.5830, 92.17480
513.7640, 31.24902
514.9450, 14.34912
516.1250, 50.54346
517.3060, 27.55469
518.4860, 83.66797
519.6660, 54.78809
520.8460, 69.91309
522.0260, 53.65332
523.2060, 19.79834
524.3850, 67.40967
525.5650, 85.52539
526.7440, 82.29102
527.9230, 118.4355
529.1020, 99.97852
530.2810, 63.15234
531.4590, 204.4136
532.6380, 90.59521
533.8160, 117.8447
534.9940, 202.1270
536.1720, 197.2441
537.3500, 163.4390
538.5270, 233.9521
539.7050, 270.1528
540.8820, 431.3564
542.0590, 483.7070
543.2360, 454.3555
544.4130, 669.5894
545.5900, 820.0122
546.7660, 1087.227
547.9430, 1288.066
549.1190, 1706.812
550.2950, 2028.032
551.4710, 2724.253
552.6470, 3287.299
553.8220, 3623.523
554.9980, 3650.690
556.1730, 3462.166
557.3480, 2879.395
558.5230, 2451.622
559.6980, 1930.852
560.8730, 1637.082
562.0470, 1430.313
563.2220, 1294.581
564.3960, 1213.901
565.5700, 1252.614
566.7440, 1258.659
567.9170, 1427.962
569.0910, 1561.195
570.2640, 1797.427
571.4380, 2143.658
572.6110, 2524.895
573.7840, 2845.501
574.9570, 3040.736
576.1290, 2964.977
577.3020, 2548.947
578.4740, 2124.176
579.6460, 1689.420
580.8180, 1265.600
581.9900, 1081.826
583.1620, 808.0728
584.3330, 659.3184
585.5040, 662.5645
586.6760, 553.8091
587.8470, 556.0522
589.0180, 488.2241
590.1880, 438.0361
591.3590, 387.7744
592.5290, 356.0137
593.7000, 345.2505
594.8700, 327.4873
596.0400, 319.2749
597.2090, 314.7944
598.3790, 313.4702
599.5490, 324.6987
600.7180, 316.9248
601.8870, 204.1494
603.0560, 237.9746
604.2250, 226.2788
605.3940, 205.9395
606.5620, 277.3184
607.7300, 213.5288
608.8990, 250.7354
610.0670, 238.9746
611.2350, 280.4937
612.4020, 272.6904
613.5700, 305.8843
614.7370, 217.0737
615.9050, 256.2598
617.0720, 168.4692
618.2390, 319.6470
619.4060, 265.8208
620.5720, 465.8521
621.7390, 470.8076
622.9050, 460.4883
624.0710, 584.7627
625.2370, 647.2549
626.4030, 821.5811
627.5690, 890.1562
628.7340, 928.4502
629.9000, 1148.652
631.0650, 1326.778
632.2300, 1278.750
633.3950, 1176.913
634.5600, 969.3403
635.7240, 779.0703
636.8890, 567.1660
638.0530, 470.1328
639.2170, 331.4331
640.3810, 314.5088
641.5450, 204.1045
642.7080, 255.1665
643.8720, 184.7227
645.0350, 182.7705
646.1980, 205.8120
647.3610, 163.3936
648.5240, 225.7363
649.6870, 205.9795
650.8490, 232.0825
652.0120, 184.0889
653.1740, 206.2637
654.3360, 173.2544
655.4980, 145.2373
656.6600, 60.84375
657.8210, 56.80664
658.9830, 110.7661
660.1440, 77.71777
661.3050, 15.33936
662.4660, 63.42871
663.6270, 59.66748
664.7870, 14.18066
665.9480, 45.98828
667.1080, 13.79443
668.2680, 10.44043
669.4280, 100.2954
670.5880, 48.02295
671.7480, 114.7407
672.9070, 21.54980
674.0670, 11.12500
675.2260, 67.21973
676.3850, 120.3760
677.5440, 33.96387
678.7030, 87.54053
679.8610, 60.10791
681.0200, 42.66699
682.1780, 28.21631
683.3360, 11.75293
684.4940, 38.27100
685.6520, 72.77930
686.8090, 21.27832
687.9670, 1.763184
689.1240, 61.22510
690.2810, 69.67871
691.4380, 15.12402
692.5950, 105.5527
693.7520, 11.97363
694.9080, 34.37695
696.0650, 115.7690
697.2210, 122.1533
698.3770, 127.5293
699.5330, 121.9570
700.6880, 69.25684
701.8440, 46.60742
702.9990, 41.95020
704.1550, 15.71680
705.3100, 12.58594
706.4650, 9.872559
707.6190, 112.1509
708.7740, 105.4214
709.9290, 188.6836
711.0830, 192.8477
712.2370, 193.0947
713.3910, 148.3354
714.5450, 332.6055
715.6980, 378.3765
716.8520, 445.6230
718.0050, 434.7119
719.1580, 378.7305
720.3110, 384.4097
721.4640, 347.5601
722.6170, 317.3071
723.7700, 271.5698
724.9220, 243.7388
726.0740, 154.8999
727.2260, 158.0527
728.3780, 106.1987
729.5300, 177.4146
730.6810, 134.5630
731.8330, 110.7192
732.9840, 101.0117
734.1350, 40.11963
735.2860, 9.218750
736.4370, 18.69727
737.5880, 81.35791
738.7380, 59.40576
739.8880, 115.4468
741.0390, 22.52002
742.1890, 30.48291
743.3380, 44.47705
744.4880, 55.53516
745.6380, 56.40576
746.7870, 37.33984
747.9360, 30.26660
749.0850, 17.18652
750.2340, 61.09619
751.3830, 46.99902
752.5310, 67.89551
753.6800, 80.78516
754.8280, 26.66943
755.9760, 60.54639
757.1240, 64.41699
758.2720, 1.282227
759.4190, 2.132324
760.5670, 6.968262
761.7140, 4.206543
762.8610, 8.398438
764.0080, 55.60791
765.1550, 27.85986
766.3020, 72.13916
767.4480, 5.468750
768.5950, 48.18604
769.7410, 12.16357
770.8870, 23.52930
772.0330, 5.082031
773.1780, 17.31543
774.3240, 44.26758
775.4690, 13.15381
776.6140, 35.58594
777.7590, 31.95752
778.9040, 17.49658
780.0490, 69.03418
781.1940, 16.56836
782.3380, 29.10547
783.4820, 83.63916
784.6260, 3.830566
785.7700, 119.6904
786.9140, 1.215820
788.0580, 51.73486
789.2010, 33.25635
790.3450, 0.7739260
791.4880, 35.28711
792.6310, 67.79736
793.7730, 9.694824
794.9160, 16.18701
796.0590, 91.30957
797.2010, 47.80322
798.3430, 35.29541
799.4850, 33.82275
800.6270, 42.64844
801.7690, 32.65869
802.9100, 133.1685
804.0520, 86.03223
805.1930, 122.5220
806.3340, 239.6172
807.4750, 211.0859
808.6160, 252.4717
809.7560, 97.94238
810.8970, 256.3481
812.0370, 139.7261
813.1770, 141.2744
814.3170, 113.7485
815.4570, 21.91113
816.5960, 87.38867
817.7360, 72.86963
818.8750, 64.20801
820.0140, 39.25293
821.1530, 97.71777
822.2920, 107.9985
823.4310, 128.4927
824.5690, 119.3677
825.7070, 142.3071
826.8460, 124.6494
827.9840, 184.3569
829.1220, 103.0498
830.2590, 130.5693
831.3970, 148.1499
832.5340, 219.4292
833.6710, 273.9609
834.8080, 270.4980
835.9450, 190.0405
837.0820, 286.5869
838.2190, 232.1392
839.3550, 263.6597
840.4910, 323.1343
841.6270, 214.2227
842.7630, 164.9810
843.8990, 52.64258
845.0350, 136.2300
846.1700, 13.82324
847.3060, 38.57666
848.4410, 90.02148
849.5760, 54.62646
850.7100, 42.76172
851.8450, 28.15283
852.9800, 1.541016
854.1140, 38.92383
855.2480, 37.30615
856.3820, 41.31055
857.5160, 157.9355
858.6500, 8.568359
859.7830, 7.790527
860.9170, 101.8574
862.0500, 89.51367
863.1830, 109.1787
864.3160, 119.8530
865.4480, 7.464844
866.5810, 8.225586
867.7130, 81.92578
868.8460, 17.36377
869.9780, 78.35400
871.1100, 130.0693
872.2410, 121.9790
873.3730, 97.28076
874.5050, 186.0386
875.6360, 174.8062
876.7670, 125.5840
877.8980, 200.7700
879.0290, 147.4858
880.1590, 160.2979
881.2900, 213.5117
882.4200, 273.3472
883.5500, 204.1929
884.6800, 281.0166
885.8100, 314.5679
886.9400, 402.4507
888.0690, 400.3457
889.1990, 484.2534
890.3280, 550.1729
891.4570, 462.0781
892.5860, 603.0239
893.7140, 724.9819
894.8430, 774.0928
895.9710, 938.2891
897.1000, 998.7690
898.2280, 1214.666
899.3560, 1350.355
900.4830, 1467.226
901.6110, 1746.857
902.7380, 1884.780
903.8660, 2178.806
904.9930, 2407.918
906.1200, 2770.655
907.2460, 3129.779
908.3730, 3663.611
909.5000, 4181.197
910.6260, 5264.440
911.7520, 6290.371
912.8780, 7972.039
914.0040, 9779.336
915.1290, 12765.65
916.2550, 16364.98
917.3800, 21155.33
918.5050, 27538.70
919.6300, 33861.09
920.7550, 38465.95
921.8800, 38622.39
923.0040, 34839.62
924.1290, 28340.10
925.2530, 21631.61
926.3770, 16195.95
927.5010, 12359.49
928.6250, 9794.045
929.7480, 7936.949
930.8720, 6448.547
931.9950, 5690.158
933.1180, 5199.787
934.2410, 4961.435
935.3640, 4907.258
936.4860, 4826.956
937.6090, 4926.697
938.7310, 5217.468
939.8530, 5603.287
940.9750, 6230.131
942.0970, 7107.009
943.2180, 8355.905
944.3400, 9844.824
945.4610, 11813.76
946.5820, 14400.73
947.7030, 17947.73
948.8240, 22368.77
949.9450, 27026.84
951.0650, 31508.95
952.1860, 34595.07
953.3060, 35026.22
954.4260, 33310.38
955.5460, 28978.59
956.6650, 24295.83
957.7850, 19609.10
958.9040, 15478.39
960.0230, 12241.70
961.1420, 9715.047
962.2610, 7701.915
963.3800, 6407.298
964.4990, 5149.706
965.6170, 4337.134
966.7350, 3671.586
967.8530, 3123.062
968.9710, 2784.556
970.0890, 2410.074
971.2070, 2046.613
972.3240, 1732.175
973.4410, 1557.756
974.5580, 1380.359
975.6750, 1285.983
976.7920, 1034.641
977.9090, 954.3213
979.0250, 1019.028
980.1410, 827.7559
981.2580, 796.5044
982.3740, 658.3633
983.4890, 654.1538
984.6050, 540.9658
985.7200, 559.7612
986.8360, 451.0791
987.9510, 389.9409
989.0660, 436.9741
990.1810, 355.0908
991.2950, 370.0396
992.4100, 263.0098
993.5240, 286.0005
994.6390, 364.9453
995.7530, 283.9980
996.8660, 223.0781
997.9800, 191.1909
999.0940, 187.3252
1000.207, 259.4023
1001.320, 198.5801
1002.433, 267.1006
1003.546, 210.0923
1004.659, 243.3335
1005.772, 309.5972
1006.884, 164.8862
1007.996, 215.2070
1009.108, 190.5498
1010.220, 252.9194
1011.332, 259.3101
1012.444, 162.0000
1013.555, 339.4458
1014.666, 319.9131
1015.777, 477.4219
1016.888, 583.9517
1017.999, 761.5024
1019.110, 881.0757
1020.220, 997.6714
1021.331, 1041.378
1022.441, 1047.836
1023.551, 1040.586
1024.661, 940.2661
1025.770, 869.9673
1026.880, 734.6904
1027.989, 637.4819
1029.098, 466.2515
1030.207, 436.1787
1031.316, 336.7090
1032.425, 244.2866
1033.533, 227.4517
1034.642, 270.3613
1035.750, 255.4854
1036.858, 300.4692
1037.966, 319.1572
1039.073, 262.1953
1040.181, 254.6802
1041.288, 370.6279
1042.396, 248.9546
1043.503, 356.8804
1044.610, 391.0342
1045.716, 331.0117
1046.823, 363.3579
1047.929, 441.5864
1049.036, 484.1836
1050.142, 589.2646
1051.248, 614.7900
1052.353, 730.9272
1053.459, 685.4624
1054.564, 891.3242
1055.670, 897.0610
1056.775, 1089.396
1057.880, 1371.003
1058.985, 1639.425
1060.089, 2045.863
1061.194, 2695.319
1062.298, 3473.792
1063.402, 4460.288
1064.506, 5521.803
1065.610, 6546.339
1066.713, 7160.890
1067.817, 7219.458
1068.920, 6349.053
1070.023, 5230.946
1071.126, 3923.733
1072.229, 3174.374
1073.332, 2436.325
1074.435, 1813.716
1075.537, 1485.409
1076.639, 1054.117
1077.741, 924.8413
1078.843, 784.5815
1079.945, 510.3364
1081.046, 603.1074
1082.148, 399.5024
1083.249, 298.0947
1084.350, 289.9858
1085.451, 276.6724
1086.551, 142.5195
1087.652, 109.4951
1088.752, 92.68213
1089.853, 107.5713
1090.953, 143.8979
1092.053, 3.007324
1093.152, 90.94141
1094.252, 30.11133
1095.351, 27.84424
1096.451, 100.8125
1097.550, 21.79346
1098.649, 97.78760
1099.748, 107.7954
1100.846, 71.81543
1101.945, 139.2529
1103.043, 239.2993
1104.141, 152.6748
1105.239, 77.74561
1106.337, 230.8286
1107.434, 229.9233
1108.532, 329.0293
1109.629, 337.1465
1110.726, 335.2754
1111.823, 482.4141
1112.920, 401.5645
1114.017, 554.7256
1115.113, 475.9014
1116.210, 224.0879
1117.306, 489.2847
1118.402, 372.7407
1119.498, 434.9648
1120.593, 429.1997
1121.689, 423.4482
1122.784, 447.7100
1123.879, 400.9814
1124.974, 381.2632
1126.069, 491.6743
1127.164, 398.1655
1128.259, 374.5903
1129.353, 390.5742
1130.447, 154.9839
1131.541, 210.3174
1132.635, 73.68945
1133.729, 15.96045
1134.822, 104.3955
1135.916, 118.7622
1137.009, 40.13770
1138.102, 54.52002
1139.195, 44.91016
1140.288, 31.30713
1141.380, 90.97852
1142.473, 42.38867
1143.565, 12.19434
1144.657, 36.29102
1145.749, 74.72607
1146.841, 133.1680
1147.932, 7.615234
1149.024, 90.07812
1150.115, 95.54688
1151.206, 53.02148
1152.297, 103.5088
1153.388, 34.00049
1154.479, 46.49902
1155.569, 101.0020
1156.659, 63.51025
1157.750, 7.022461
1158.839, 1.460449
1159.929, 51.06006
1161.019, 4.413086
1162.108, 8.116211
1163.198, 12.34668
1164.287, 29.81055
1165.376, 77.71777
1166.465, 4.744141
1167.553, 27.79492
1168.642, 15.66260
1169.730, 75.12402
1170.818, 47.61865
1171.906, 18.13184
1172.994, 24.65137
1174.082, 52.18018
1175.170, 21.26855
1176.257, 15.27002
1177.344, 0.8144530
1178.431, 22.64062
1179.518, 0.9028320
1180.605, 19.55420
1181.691, 1.988770
1182.778, 13.53223
1183.864, 20.08350
1184.950, 6.645020
1186.036, 22.21143
1187.122, 31.79004
1188.207, 0.6137700
1189.292, 7.017578
1190.378, 75.42041
1191.463, 64.82373
1192.548, 71.22656
1193.632, 33.62939
1194.717, 54.03076
1195.801, 42.18457
1196.886, 72.83252
1197.970, 34.23145
1199.054, 17.62988
1200.137, 3.079102
1201.221, 12.31299
1202.305, 26.14795
1203.388, 4.213379
1204.471, 3.430664
1205.554, 70.95605
1206.637, 37.30176
1207.719, 18.64551
1208.802, 114.9873
1209.884, 49.32666
1210.966, 55.66406
1212.048, 49.00098
1213.130, 1.447754
1214.212, 15.84326
1215.293, 18.87012
1216.374, 46.88916
1217.456, 38.76221
1218.536, 25.51221
1219.617, 44.71777
1220.698, 9.617188
1221.778, 15.42334
1222.859, 33.62939
1223.939, 81.83105
1225.019, 63.55811
1226.099, 99.51123
1227.178, 135.9434
1228.258, 109.1304
1229.337, 121.7505
1230.417, 60.92969
1231.496, 13.28809
1232.574, 59.67773
1233.653, 16.84082
1234.732, 53.15576
1235.810, 83.40918
1236.888, 39.55518
1237.966, 46.69629
1239.044, 68.83301
1240.122, 115.9634
1241.199, 93.08984
1242.277, 97.21045
1243.354, 112.3267
1244.431, 80.43652
1245.508, 162.5410
1246.585, 72.64014
1247.661, 14.26611
1248.738, 108.8018
1249.814, 98.86328
1250.890, 64.91895
1251.966, 71.96826
1253.042, 67.01172
1254.117, 53.36914
1255.193, 41.88477
1256.268, 33.10400
1257.343, 7.227539
1258.418, 17.80957
1259.493, 41.12451
1260.567, 122.0503
1261.642, 46.96924
1262.716, 134.9370
1263.790, 86.97363
1264.864, 80.21338
1265.938, 110.3784
1267.011, 85.26562
1268.085, 86.17676
1269.158, 78.04541
1270.231, 7.919922
1271.304, 88.76221
1272.377, 94.59668
1273.450, 49.15820
1274.522, 127.9302
1275.594, 132.8521
1276.666, 133.6553
1277.738, 224.9438
1278.810, 65.73047
1279.882, 118.5088
1280.953, 135.0640
1282.025, 168.8252
1283.096, 184.4697
1284.167, 185.7632
1285.238, 191.2822
1286.308, 189.0532
1287.379, 163.7720
1288.449, 184.4810
1289.519, 162.7295
1290.589, 134.3481
1291.659, 156.6265
1292.729, 150.2026
1293.798, 164.6768
1294.868, 193.9653
1295.937, 176.5640
1297.006, 205.2100
1298.075, 187.1680
1299.143, 182.2505
1300.212, 173.2637
1301.280, 156.7266
1302.348, 139.1958
1303.416, 103.9976
1304.484, 82.21484
1305.552, 158.1587
1306.620, 76.58984
1307.687, 170.1475
1308.754, 176.7363
1309.821, 166.2773
1310.888, 167.7715
1311.955, 185.4688
1313.021, 228.8301
1314.088, 222.4434
1315.154, 198.9526
1316.220, 209.4941
1317.286, 192.3159
1318.352, 137.7856
1319.417, 129.2490
1320.483, 185.7007
1321.548, 117.1416
1322.613, 118.5752
1323.678, 123.0015
1324.743, 94.42041
1325.807, 92.83203
1326.872, 126.2373
1327.936, 64.63428
1329.000, 214.7417
1330.064, 172.9653
1331.128, 80.37598
1332.191, 169.4536
1333.255, 64.09814
1334.318, 200.4492
1335.381, 105.7905
1336.444, 153.1221
1337.507, 82.46045
1338.569, 115.7778
1339.632, 122.6260
1340.694, 42.77686
1341.756, 109.2773
1342.818, 120.4844
1343.880, 26.90430
1344.941, 57.79932
1346.003, 116.0938
1347.064, 114.9448
1348.125, 28.23486
1349.186, 11.05127
1350.247, 92.09082
1351.308, 165.3120
1352.368, 62.52686
1353.428, 122.7368
1354.489, 94.94043
1355.549, 105.2080
1356.608, 28.43262
1357.668, 87.60938
1358.727, 46.77930
1359.787, 43.53809
1360.846, 108.6938
1361.905, 49.51465
1362.964, 56.64453
1364.022, 77.17627
1365.081, 142.8408
1366.139, 103.9219
1367.197, 92.99658
1368.255, 103.0649
1369.313, 95.75977
1370.371, 113.7549
1371.428, 113.2036
1372.486, 145.2212
1373.543, 149.2319
1374.600, 147.2368
1375.657, 188.9893
1376.713, 99.95996
1377.770, 166.9224
1378.826, 166.8765
1379.882, 93.82227
1380.938, 139.7607
1381.994, 70.69238
1383.050, 136.4907
1384.106, 50.21240
1385.161, 75.02344
1386.216, 161.3184
1387.271, 141.1274
1388.326, 79.01367
1389.381, 59.86426
1390.435, 21.73730
1391.490, 29.05664
1392.544, 34.46191
1393.598, 73.31201
1394.652, 66.15625
1395.705, 103.9932
1396.759, 71.81738
1397.812, 82.35840
1398.866, 103.1235
1399.919, 100.8813
1400.972, 15.31152
1402.024, 51.42285
1403.077, 84.14795
1404.129, 24.13525
1405.181, 109.5630
1406.233, 89.25342
1407.285, 13.06396
1408.337, 140.6035
1409.389, 38.26318
1410.440, 87.91504
1411.491, 79.55957
1412.542, 65.19727
1413.593, 121.8281
1414.644, 64.45166
1415.695, 15.28418
1416.745, 64.05908
1417.795, 0.8286130
1418.845, 69.49658
1419.895, 54.12939
1420.945, 11.20215
1421.995, 50.40332
1423.044, 142.0957
1424.093, 78.75684
1425.142, 101.3335
1426.191, 78.89990
1427.240, 159.4717
1428.289, 57.04443
1429.337, 123.6182
1430.385, 27.79932
1431.433, 45.76904
1432.481, 140.2881
1433.529, 173.7930
1434.577, 41.58105
1435.624, 105.1519
1436.672, 41.61572
1437.719, 199.5127
1438.766, 67.00732
1439.812, 180.4736
1440.859, 104.9668
1441.905, 106.3618
1442.952, 14.58887
1443.998, 248.7915
1445.044, 134.8755
1446.090, 198.8037
1447.135, 215.5894
1448.181, 132.4839
1449.226, 103.3672
1450.271, 217.2388
1451.316, 170.9829
1452.361, 84.92188
1453.405, 230.7603
1454.450, 105.6323
1455.494, 154.4941
1456.538, 74.34473
1457.582, 104.9497
1458.626, 128.2905
1459.670, 93.07227
1460.713, 174.4585
1461.757, 115.3979
1462.800, 78.21973
1463.843, 198.0728
1464.886, 84.40820
1465.928, 161.0229
1466.971, 108.5830
1468.013, 178.0854
1469.055, 91.89258
1470.097, 9.691406
1471.139, 36.51758
1472.181, 0.7944340
1473.222, 73.04541
1474.263, 121.8286
1475.305, 134.6191
1476.346, 174.4048
1477.386, 115.1382
1478.427, 157.7705
1479.468, 146.6187
1480.508, 68.48096
1481.548, 76.63672
1482.588, 169.6265
1483.628, 136.4092
1484.668, 205.2266
1485.707, 145.0776
1486.747, 160.0664
1487.786, 143.7178
1488.825, 213.7852
1489.864, 116.8374
1490.902, 261.2285
1491.941, 95.95947
1492.979, 181.6216
1494.017, 168.3975
1495.055, 161.5479
1496.093, 208.0132
1497.131, 216.7573
1498.168, 196.3877
1499.206, 194.9873
1500.243, 199.7876
1501.280, 117.4600
1502.317, 196.7173
1503.354, 126.8984
1504.390, 106.0645
1505.426, 295.4746
1506.463, 76.98242
1507.499, 152.4336
1508.535, 143.9326
1509.570, 70.44775
1510.606, 60.95703
1511.641, 179.4517
1512.676, 180.9312
1513.711, 151.3940
1514.746, 122.7773
1515.781, 170.2207
1516.816, 157.6641
1517.850, 142.0664
1518.884, 95.49414
1519.918, 149.9141
1520.952, 130.7720
1521.986, 59.91504
1523.019, 169.9136
1524.053, 90.98877
1525.086, 39.03174
1526.119, 76.84375
1527.152, 91.72559
1528.185, 140.6738
1529.217, 67.61182
1530.250, 102.5913
1531.282, 83.65283
1532.314, 117.6802
1533.346, 130.7153
1534.377, 126.4336
1535.409, 69.85596
1536.440, 107.9668
1537.472, 159.1333
1538.503, 111.2915
1539.534, 10.55908
1540.564, 32.49219
1541.595, 32.33643
1542.625, 48.39746
1543.656, 55.87939
1544.686, 46.74658
1545.716, 58.36084
1546.745, 37.37549
1547.775, 42.79248
1548.804, 62.56934
1549.834, 85.29346
1550.863, 118.5991
1551.892, 158.0913
1552.920, 186.6890
1553.949, 210.3359
1554.977, 213.9849
1556.006, 242.4058
1557.034, 164.2393
1558.062, 19.79590
1559.089, 43.73486
1560.117, 138.6699
1561.144, 9.335449
1562.172, 55.24951
1563.199, 60.24658
1564.226, 53.33105
1565.252, 77.20166
1566.279, 66.70898
1567.305, 19.39307
1568.332, 8.032227
1569.358, 37.73096
1570.384, 0.0000000E+00
##END=



