##NAMES=Andalusite
##RRUFFID=R050561
##IDEAL CHEMISTRY=Al_2_SiO_5_
##LOCALITY=Cargo Muchacho Mountain, Imperial County, California
##OWNER=RRUFF
##SOURCE=Dave Bunk Minerals
##DESCRIPTION=Brown coarsely crystalline massive
##STATUS=The identification of this mineral has been confirmed by X-ray diffraction and chemical analysis
##URL=rruff.info/R050561
##MEASURED CHEMISTRY=(Al_1.98_Fe^3+^_0.02_)_Î£=2_Si_1.00_O_5_
##PIN_ID=M00417
##ORIENTATION=Laser parallel to a* (1 0 0). Fiducial mark perpendicular to laser is parallel to b [0 1 0]
99.64900, 0.0000000E+00
100.8830, 32.98438
102.1160, 108.6816
103.3490, 14.45312
104.5820, 51.22510
105.8150, 252.7424
107.0470, 462.6060
108.2800, 687.8425
109.5120, 594.3345
110.7440, 903.8523
111.9760, 400.4626
113.2080, 192.2087
114.4400, 206.7905
115.6710, 480.3157
116.9030, 519.7393
118.1340, 401.6807
119.3650, 347.8574
120.5960, 228.0571
121.8270, 319.1191
123.0580, 401.9219
124.2880, 415.3716
125.5190, 319.3979
126.7490, 379.9438
127.9790, 439.0410
129.2090, 456.9575
130.4390, 571.3467
131.6680, 524.9780
132.8980, 492.7324
134.1270, 438.3706
135.3560, 315.9312
136.5850, 331.4458
137.8140, 402.9307
139.0430, 528.3955
140.2710, 506.8530
141.5000, 528.3149
142.7280, 444.7939
143.9560, 386.3008
145.1840, 404.8511
146.4120, 465.4614
147.6390, 505.1489
148.8670, 322.9199
150.0940, 386.7778
151.3210, 362.7261
152.5490, 559.7671
153.7750, 538.9023
155.0020, 383.1318
156.2290, 318.4741
157.4550, 355.8335
158.6810, 254.3730
159.9080, 297.0659
161.1340, 407.9819
162.3590, 408.4707
163.5850, 560.6133
164.8110, 688.4600
166.0360, 832.5103
167.2610, 724.7539
168.4860, 765.1758
169.7110, 753.7695
170.9360, 799.5327
172.1610, 714.4609
173.3850, 576.5264
174.6100, 495.6367
175.8340, 495.7676
177.0580, 458.9648
178.2820, 434.2397
179.5050, 477.6001
180.7290, 477.0527
181.9520, 538.6011
183.1760, 647.2480
184.3990, 746.9971
185.6220, 953.8486
186.8450, 1217.805
188.0670, 1545.875
189.2900, 1569.112
190.5120, 1698.521
191.7340, 1653.104
192.9560, 1560.902
194.1780, 1351.889
195.4000, 1259.988
196.6220, 1102.177
197.8430, 1127.456
199.0640, 1059.822
200.2860, 971.2783
201.5070, 1172.823
202.7270, 1195.454
203.9480, 1011.167
205.1690, 728.9565
206.3890, 234.8203
207.6090, 132.7588
208.8290, 113.7729
210.0490, 20.86279
211.2690, 18.02881
212.4890, 37.72998
213.7080, 21.58936
214.9280, 22.98438
216.1470, 35.54297
217.3660, 120.9937
218.5850, 127.3667
219.8030, 142.6626
221.0220, 187.8813
222.2400, 189.0229
223.4590, 186.0874
224.6770, 128.0742
225.8950, 147.9810
227.1120, 4.288574
228.3300, 139.8364
229.5480, 284.6084
230.7650, 745.5430
231.9820, 1007.525
233.1990, 1517.477
234.4160, 2287.358
235.6330, 2839.177
236.8490, 3657.991
238.0660, 4301.879
239.2820, 4746.842
240.4980, 4902.880
241.7140, 4771.992
242.9300, 4336.179
244.1460, 3779.440
245.3610, 3379.778
246.5770, 2756.456
247.7920, 2405.856
249.0070, 2274.070
250.2220, 1895.863
251.4370, 1803.663
252.6510, 1810.703
253.8660, 1737.958
255.0800, 1687.408
256.2940, 1696.033
257.5080, 1714.822
258.7220, 2051.761
259.9360, 2219.841
261.1490, 2315.052
262.3630, 2226.387
263.5760, 2407.835
264.7890, 2529.391
266.0020, 2837.048
267.2150, 3124.804
268.4270, 3529.651
269.6400, 3834.589
270.8520, 4340.613
272.0640, 5063.723
273.2760, 5929.915
274.4880, 6792.185
275.7000, 7940.738
276.9120, 9262.226
278.1230, 11219.60
279.3340, 13700.62
280.5450, 17203.20
281.7560, 21012.96
282.9670, 25671.22
284.1780, 30630.47
285.3880, 35819.95
286.5980, 41678.68
287.8090, 46676.60
289.0190, 50349.84
290.2290, 51695.87
291.4380, 49680.95
292.6480, 45362.08
293.8570, 39183.27
295.0670, 32314.51
296.2760, 25415.81
297.4850, 19322.16
298.6930, 14492.57
299.9020, 10898.04
301.1110, 8328.553
302.3190, 6697.107
303.5270, 5468.716
304.7350, 4534.312
305.9430, 4283.849
307.1510, 4242.279
308.3580, 4751.639
309.5660, 5599.999
310.7730, 7123.420
311.9800, 9006.905
313.1870, 11009.45
314.3940, 13172.05
315.6010, 15912.72
316.8070, 19030.44
318.0130, 21233.22
319.2200, 22242.06
320.4260, 21470.95
321.6310, 19504.90
322.8370, 16623.92
324.0430, 13352.99
325.2480, 10497.12
326.4540, 7837.300
327.6590, 5896.540
328.8640, 4831.838
330.0680, 3952.191
331.2730, 3534.604
332.4780, 3199.071
333.6820, 2920.593
334.8860, 2710.171
336.0900, 2717.803
337.2940, 2816.489
338.4980, 2869.228
339.7010, 3082.020
340.9050, 3571.863
342.1080, 4035.758
343.3110, 4911.707
344.5140, 6049.707
345.7170, 7560.758
346.9200, 9653.864
348.1220, 12210.02
349.3240, 15399.22
350.5270, 18783.69
351.7290, 22578.94
352.9310, 26674.20
354.1320, 30506.99
355.3340, 33882.39
356.5350, 35316.43
357.7370, 34846.85
358.9380, 32930.05
360.1390, 29510.37
361.3400, 25667.00
362.5400, 21342.13
363.7410, 17239.02
364.9410, 13555.26
366.1410, 10719.36
367.3410, 8608.469
368.5410, 7137.786
369.7410, 5744.938
370.9400, 4623.234
372.1400, 3960.362
373.3390, 3322.551
374.5380, 2876.787
375.7370, 2453.067
376.9360, 2227.392
378.1350, 1895.762
379.3330, 1849.178
380.5310, 1736.640
381.7300, 1717.147
382.9280, 1785.721
384.1260, 1810.365
385.3230, 1824.345
386.5210, 1886.779
387.7180, 1859.652
388.9160, 1939.523
390.1130, 1951.438
391.3100, 1879.411
392.5060, 1707.443
393.7030, 1478.536
394.9000, 991.6953
396.0960, 938.9116
397.2920, 596.1851
398.4880, 530.5137
399.6840, 416.8979
400.8800, 413.3359
402.0750, 440.8271
403.2710, 558.3721
404.4660, 519.9692
405.6610, 421.6182
406.8560, 362.3188
408.0510, 316.0703
409.2450, 326.8726
410.4400, 314.7246
411.6340, 285.9419
412.8280, 188.5791
414.0220, 213.5806
415.2160, 173.6309
416.4100, 80.72998
417.6030, 111.8774
418.7970, 22.92627
419.9900, 43.69629
421.1830, 39.43945
422.3760, 75.15332
423.5690, 13.14648
424.7610, 88.50781
425.9540, 31.15381
427.1460, 74.76904
428.3380, 161.3706
429.5300, 60.99414
430.7220, 62.40234
431.9140, 24.15527
433.1050, 123.3203
434.2970, 32.84277
435.4880, 16.41211
436.6790, 135.0269
437.8700, 307.6895
439.0610, 260.3984
440.2510, 423.1538
441.4420, 576.9561
442.6320, 744.8052
443.8220, 1016.701
445.0120, 1148.643
446.2020, 1489.631
447.3910, 1779.667
448.5810, 2319.749
449.7700, 2753.887
450.9600, 2539.082
452.1490, 2438.334
453.3370, 1898.641
454.5260, 1579.017
455.7150, 1074.443
456.9030, 789.9175
458.0910, 895.4385
459.2800, 919.0068
460.4670, 847.6216
461.6550, 886.2832
462.8430, 1032.991
464.0300, 1223.745
465.2180, 1086.545
466.4050, 843.3911
467.5920, 883.2822
468.7790, 706.2178
469.9650, 648.1992
471.1520, 463.2261
472.3380, 495.2974
473.5250, 430.4126
474.7110, 627.5732
475.8970, 714.7827
477.0820, 791.0400
478.2680, 975.3413
479.4540, 995.7031
480.6390, 1144.114
481.8240, 1108.595
483.0090, 1194.128
484.1940, 1003.734
485.3780, 900.4072
486.5630, 717.1616
487.7470, 435.9771
488.9320, 272.8833
490.1160, 238.8447
491.3000, 189.8936
492.4830, 3.060059
493.6670, 81.71533
494.8500, 218.4712
496.0340, 227.2505
497.2170, 141.0693
498.4000, 172.8970
499.5820, 162.7485
500.7650, 94.62158
501.9480, 53.49463
503.1300, 9.649414
504.3120, 32.83740
505.4940, 133.0850
506.6760, 197.3926
507.8580, 252.7632
509.0390, 322.0298
510.2210, 374.7217
511.4020, 409.3081
512.5830, 423.2295
513.7640, 431.5625
514.9450, 400.4072
516.1250, 401.1890
517.3060, 355.0068
518.4860, 308.8604
519.6660, 354.7490
520.8460, 213.6738
522.0260, 169.6328
523.2060, 205.6274
524.3850, 290.6514
525.5650, 292.4746
526.7440, 305.2529
527.9230, 364.0664
529.1020, 320.8071
530.2810, 376.6807
531.4590, 502.9072
532.6380, 486.1655
533.8160, 431.4551
534.9940, 578.7759
536.1720, 638.1270
537.3500, 750.5083
538.5270, 1093.920
539.7050, 1387.361
540.8820, 1824.832
542.0590, 2167.332
543.2360, 2685.861
544.4130, 3363.418
545.5900, 3893.004
546.7660, 4511.618
547.9430, 5026.259
549.1190, 5309.928
550.2950, 5348.623
551.4710, 5190.345
552.6470, 4792.093
553.8220, 4251.868
554.9980, 3697.669
556.1730, 3005.495
557.3480, 2605.347
558.5230, 2418.224
559.6980, 2177.125
560.8730, 2070.849
562.0470, 2019.721
563.2220, 2197.792
564.3960, 2532.286
565.5700, 2708.311
566.7440, 2876.229
567.9170, 3327.735
569.0910, 3527.348
570.2640, 3892.838
571.4380, 4072.201
572.6110, 3844.491
573.7840, 3516.558
574.9570, 3271.952
576.1290, 2994.390
577.3020, 2551.874
578.4740, 2113.422
579.6460, 1850.019
580.8180, 1623.669
581.9900, 1550.376
583.1620, 1311.129
584.3330, 1213.931
585.5040, 1191.756
586.6760, 1147.614
587.8470, 1134.508
589.0180, 1076.667
590.1880, 1114.137
591.3590, 1106.194
592.5290, 1028.925
593.7000, 1118.167
594.8700, 1078.012
596.0400, 1090.512
597.2090, 1101.621
598.3790, 1109.130
599.5490, 1156.454
600.7180, 1154.896
601.8870, 1261.018
603.0560, 1279.154
604.2250, 1337.304
605.3940, 1337.468
606.5620, 1333.646
607.7300, 1399.836
608.8990, 1454.040
610.0670, 1447.255
611.2350, 1477.475
612.4020, 1506.665
613.5700, 1456.973
614.7370, 1565.308
615.9050, 1518.680
617.0720, 1551.637
618.2390, 1552.994
619.4060, 1598.946
620.5720, 1716.639
621.7390, 1622.629
622.9050, 1870.138
624.0710, 1825.297
625.2370, 1903.879
626.4030, 2061.222
627.5690, 1896.668
628.7340, 1803.208
629.9000, 1910.562
631.0650, 1608.237
632.2300, 1464.642
633.3950, 1472.675
634.5600, 1329.368
635.7240, 1353.145
636.8890, 1375.444
638.0530, 1350.923
639.2170, 1423.118
640.3810, 1605.464
641.5450, 1666.790
642.7080, 1649.398
643.8720, 1742.146
645.0350, 1709.513
646.1980, 1491.880
647.3610, 1362.246
648.5240, 1157.619
649.6870, 1051.980
650.8490, 794.3389
652.0120, 601.6948
653.1740, 535.0469
654.3360, 280.3950
655.4980, 326.7383
656.6600, 247.0781
657.8210, 216.4121
658.9830, 154.7407
660.1440, 112.0649
661.3050, 43.38281
662.4660, 101.6943
663.6270, 63.99951
664.7870, 93.73828
665.9480, 40.53662
667.1080, 40.36816
668.2680, 38.23340
669.4280, 3.132813
670.5880, 92.95068
671.7480, 61.02539
672.9070, 149.0928
674.0670, 169.1509
675.2260, 281.2002
676.3850, 186.2397
677.5440, 204.2695
678.7030, 224.2905
679.8610, 212.3008
681.0200, 238.3008
682.1780, 334.2900
683.3360, 232.2690
684.4940, 402.2368
685.6520, 396.1934
686.8090, 446.1387
687.9670, 382.0723
689.1240, 497.9932
690.2810, 427.9023
691.4380, 461.7993
692.5950, 437.6836
693.7520, 536.5547
694.9080, 509.4131
696.0650, 380.2583
697.2210, 459.0889
698.3770, 458.9072
699.5330, 513.7100
700.6880, 504.5059
701.8440, 488.2979
702.9990, 581.0845
704.1550, 490.2095
705.3100, 560.0654
706.4650, 519.3989
707.6190, 731.3413
708.7740, 825.6006
709.9290, 817.1250
711.0830, 865.6362
712.2370, 894.7578
713.3910, 962.7402
714.5450, 861.0205
715.6980, 838.8091
716.8520, 701.9092
718.0050, 727.8682
719.1580, 568.3936
720.3110, 458.0527
721.4640, 296.0830
722.6170, 136.8770
723.7700, 189.1094
724.9220, 130.3521
726.0740, 161.0508
727.2260, 99.97168
728.3780, 35.71875
729.5300, 21.56543
730.6810, 30.91406
731.8330, 47.24268
732.9840, 23.46777
734.1350, 89.75049
735.2860, 129.9375
736.4370, 205.0967
737.5880, 150.2295
738.7380, 280.3345
739.8880, 220.4131
741.0390, 377.4639
742.1890, 347.4878
743.3380, 267.4834
744.4880, 310.4517
745.6380, 303.3926
746.7870, 322.3047
747.9360, 260.1890
749.0850, 272.0454
750.2340, 172.8730
751.3830, 217.6729
752.5310, 139.4434
753.6800, 65.18457
754.8280, 86.88574
755.9760, 144.5513
757.1240, 0.1870120
758.2720, 55.75977
759.4190, 31.71094
760.5670, 29.73828
761.7140, 49.86279
762.8610, 24.55371
764.0080, 84.32324
765.1550, 6.200684
766.3020, 119.1455
767.4480, 11.78174
768.5950, 105.3491
769.7410, 228.5996
770.8870, 19.03467
772.0330, 6.458008
773.1780, 58.09229
774.3240, 10.68896
775.4690, 9.695313
776.6140, 24.05127
777.7590, 75.39258
778.9040, 101.7305
780.0490, 82.05322
781.1940, 116.3511
782.3380, 188.6167
783.4820, 283.8521
784.6260, 246.0586
785.7700, 166.2354
786.9140, 308.3813
788.0580, 249.4985
789.2010, 298.5859
790.3450, 369.6440
791.4880, 433.6729
792.6310, 482.6714
793.7730, 632.6406
794.9160, 683.5806
796.0590, 750.4912
797.2010, 798.3726
798.3430, 1096.225
799.4850, 1252.047
800.6270, 1451.840
801.7690, 1746.609
802.9100, 1946.583
804.0520, 2071.608
805.1930, 2242.602
806.3340, 2155.673
807.4750, 2079.617
808.6160, 1951.211
809.7560, 1984.779
810.8970, 1820.318
812.0370, 1600.831
813.1770, 1652.315
814.3170, 1530.773
815.4570, 1375.204
816.5960, 1310.606
817.7360, 1435.983
818.8750, 1277.332
820.0140, 1302.654
821.1530, 1121.949
822.2920, 1081.218
823.4310, 1109.460
824.5690, 1055.675
825.7070, 1002.864
826.8460, 967.7402
827.9840, 891.1631
829.1220, 817.2734
830.2590, 753.3579
831.3970, 611.4165
832.5340, 633.4497
833.6710, 551.4570
834.8080, 475.4395
835.9450, 492.3965
837.0820, 300.3281
838.2190, 285.2349
839.3550, 207.1162
840.4910, 90.97266
841.6270, 120.8008
842.7630, 69.60205
843.8990, 35.62646
845.0350, 88.91992
846.1700, 109.3042
847.3060, 77.79053
848.4410, 88.36230
849.5760, 55.02393
850.7100, 44.75879
851.8450, 53.78271
852.9800, 123.4312
854.1140, 74.40967
855.2480, 84.46924
856.3820, 103.6133
857.5160, 62.85303
858.6500, 76.16504
859.7830, 43.44336
860.9170, 21.97803
862.0500, 30.44824
863.1830, 58.02734
864.3160, 33.76660
865.4480, 54.10938
866.5810, 9.391602
867.7130, 228.9927
868.8460, 298.0801
869.9780, 213.5610
871.1100, 251.3853
872.2410, 193.5942
873.3730, 256.8325
874.5050, 338.0547
875.6360, 310.2632
876.7670, 318.4526
877.8980, 365.6245
879.0290, 471.7778
880.1590, 579.9185
881.2900, 535.0420
882.4200, 592.1475
883.5500, 755.2363
884.6800, 727.3081
885.8100, 838.3623
886.9400, 943.4009
888.0690, 1056.423
889.1990, 1135.357
890.3280, 1171.253
891.4570, 1287.559
892.5860, 1467.459
893.7140, 1540.757
894.8430, 1767.311
895.9710, 2133.564
897.1000, 2272.294
898.2280, 2506.371
899.3560, 2946.020
900.4830, 3303.899
901.6110, 3842.686
902.7380, 4485.371
903.8660, 5003.235
904.9930, 5935.781
906.1200, 7009.586
907.2460, 8542.550
908.3730, 10624.12
909.5000, 13590.64
910.6260, 17278.15
911.7520, 22176.95
912.8780, 28157.41
914.0040, 35179.24
915.1290, 40705.49
916.2550, 45800.42
917.3800, 49220.86
918.5050, 47222.69
919.6300, 42963.52
920.7550, 36832.33
921.8800, 30313.15
923.0040, 24117.97
924.1290, 19410.79
925.2530, 15719.61
926.3770, 13412.43
927.5010, 11404.24
928.6250, 10004.05
929.7480, 9124.858
930.8720, 8551.665
931.9950, 8266.470
933.1180, 8016.276
934.2410, 8321.078
935.3640, 8645.879
936.4860, 9069.683
937.6090, 9559.504
938.7310, 10609.35
939.8530, 11471.21
940.9750, 13099.09
942.0970, 15430.98
943.2180, 18280.88
944.3400, 21612.79
945.4610, 25523.70
946.5820, 29192.61
947.7030, 33072.53
948.8240, 35657.46
949.9450, 36492.38
951.0650, 35729.30
952.1860, 32902.24
953.3060, 29073.17
954.4260, 24723.11
955.5460, 19987.04
956.6650, 16337.99
957.7850, 13186.94
958.9040, 10727.91
960.0230, 8926.881
961.1420, 7202.888
962.2610, 5997.902
963.3800, 5045.925
964.4990, 4325.979
965.6170, 3850.035
966.7350, 3294.098
967.8530, 2807.166
968.9710, 2422.239
970.0890, 2288.317
971.2070, 2016.401
972.3240, 1898.491
973.4410, 1705.587
974.5580, 1667.689
975.6750, 1519.462
976.7920, 1358.495
977.9090, 1315.062
979.0250, 1244.020
980.1410, 1026.669
981.2580, 1088.078
982.3740, 921.5059
983.4890, 874.3203
984.6050, 866.2729
985.7200, 803.8179
986.8360, 758.0464
987.9510, 743.8574
989.0660, 737.8062
990.1810, 639.1875
991.2950, 637.4268
992.4100, 559.2861
993.5240, 601.3735
994.6390, 639.0127
995.7530, 708.6333
996.8660, 719.7891
997.9800, 743.7124
999.0940, 839.7993
1000.207, 1111.773
1001.320, 1206.382
1002.433, 1348.876
1003.546, 1503.393
1004.659, 1472.015
1005.772, 1660.603
1006.884, 1604.208
1007.996, 1571.353
1009.108, 1554.200
1010.220, 1643.875
1011.332, 1688.652
1012.444, 1745.364
1013.555, 1919.421
1014.666, 2144.182
1015.777, 2213.967
1016.888, 2499.822
1017.999, 2598.652
1019.110, 2568.500
1020.220, 2507.533
1021.331, 2300.419
1022.441, 2099.544
1023.551, 1807.358
1024.661, 1720.309
1025.770, 1451.286
1026.880, 1306.283
1027.989, 1193.318
1029.098, 1103.234
1030.207, 1007.340
1031.316, 956.0317
1032.425, 904.5513
1033.533, 852.6772
1034.642, 837.1802
1035.750, 744.5078
1036.858, 686.9053
1037.966, 607.5024
1039.073, 722.0063
1040.181, 627.6084
1041.288, 637.5972
1042.396, 639.2773
1043.503, 599.5503
1044.610, 676.3242
1045.716, 729.8101
1046.823, 768.1133
1047.929, 862.2861
1049.036, 929.2070
1050.142, 1080.775
1051.248, 1192.713
1052.353, 1415.424
1053.459, 1650.412
1054.564, 2046.418
1055.670, 2651.681
1056.775, 3286.727
1057.880, 4303.793
1058.985, 5243.880
1060.089, 6337.987
1061.194, 7312.112
1062.298, 8033.256
1063.402, 8120.423
1064.506, 7626.045
1065.610, 6544.248
1066.713, 5445.471
1067.817, 4375.714
1068.920, 3276.976
1070.023, 2541.060
1071.126, 2098.361
1072.229, 1641.682
1073.332, 1411.029
1074.435, 1107.408
1075.537, 1049.707
1076.639, 790.1230
1077.741, 676.7085
1078.843, 619.7627
1079.945, 617.0635
1081.046, 580.8369
1082.148, 421.3638
1083.249, 402.9106
1084.350, 399.4751
1085.451, 489.0576
1086.551, 278.4971
1087.652, 335.1230
1088.752, 312.7720
1089.853, 253.4375
1090.953, 255.2651
1092.053, 198.9688
1093.152, 267.7856
1094.252, 124.6479
1095.351, 119.9604
1096.451, 124.1206
1097.550, 261.9170
1098.649, 280.7549
1099.748, 309.5850
1100.846, 239.4316
1101.945, 399.2974
1103.043, 422.1758
1104.141, 580.0703
1105.239, 547.9810
1106.337, 742.9077
1107.434, 651.8516
1108.532, 643.8125
1109.629, 598.7900
1110.726, 500.7852
1111.823, 492.8652
1112.920, 448.9438
1114.017, 338.0767
1115.113, 361.3867
1116.210, 434.6123
1117.306, 394.9209
1118.402, 519.2207
1119.498, 590.9746
1120.593, 711.8716
1121.689, 677.6025
1122.784, 863.3232
1123.879, 766.8545
1124.974, 862.4248
1126.069, 744.0366
1127.164, 732.6655
1128.259, 590.3213
1129.353, 455.0049
1130.447, 250.7041
1131.541, 142.9458
1132.635, 10.27393
1133.729, 4.175781
1134.822, 56.05518
1135.916, 5.161133
1137.009, 22.37891
1138.102, 80.18262
1139.195, 27.91553
1140.288, 50.05420
1141.380, 34.02295
1142.473, 6.147461
1143.565, 125.1025
1144.657, 51.43359
1145.749, 43.34668
1146.841, 11.67188
1147.932, 2.667480
1149.024, 55.08057
1150.115, 35.96191
1151.206, 10.07520
1152.297, 27.83008
1153.388, 12.25732
1154.479, 35.33594
1155.569, 6.599121
1156.659, 14.68945
1157.750, 47.64795
1158.839, 54.67480
1159.929, 32.37256
1161.019, 10.57764
1162.108, 29.46484
1163.198, 11.49121
1164.287, 12.45508
1165.376, 83.57617
1166.465, 56.37012
1167.553, 11.32227
1168.642, 36.81201
1169.730, 79.17676
1170.818, 29.26807
1171.906, 12.64697
1172.994, 26.30957
1174.082, 64.62305
1175.170, 10.41797
1176.257, 45.21924
1177.344, 14.59277
1178.431, 9.549805
1179.518, 28.64502
1180.605, 18.69727
1181.691, 68.78223
1182.778, 20.56885
1183.864, 31.37598
1184.950, 75.25830
1186.036, 51.65967
1187.122, 68.20312
1188.207, 44.33398
1189.292, 22.19629
1190.378, 90.05859
1191.463, 97.91992
1192.548, 24.91211
1193.632, 18.82324
1194.717, 8.284668
1195.801, 47.56885
1196.886, 52.42041
1197.970, 118.3096
1199.054, 89.18311
1200.137, 14.85205
1201.221, 8.032715
1202.305, 21.28467
1203.388, 69.49658
1204.471, 47.54297
1205.554, 32.49561
1206.637, 19.30811
1207.719, 17.89160
1208.802, 6.106445
1209.884, 9.251953
1210.966, 3.025391
1212.048, 58.58350
1213.130, 47.72607
1214.212, 24.47314
1215.293, 44.30566
1216.374, 5.958008
1217.456, 80.48096
1218.536, 44.18799
1219.617, 25.90137
1220.698, 55.91797
1221.778, 87.74707
1222.859, 101.5708
1223.939, 14.96875
1225.019, 11.44727
1226.099, 71.80957
1227.178, 61.69873
1228.258, 22.57471
1229.337, 111.0679
1230.417, 87.55518
1231.496, 32.03418
1232.574, 50.50635
1233.653, 92.08301
1234.732, 112.5527
1235.810, 40.31934
1236.888, 57.88086
1237.966, 57.32617
1239.044, 76.78809
1240.122, 125.2163
1241.199, 36.63574
1242.277, 137.0454
1243.354, 110.4458
1244.431, 6.836426
1245.508, 77.20654
1246.585, 46.56592
1247.661, 92.91406
1248.738, 25.25195
1249.814, 3.574219
1250.890, 7.871094
1251.966, 33.14404
1253.042, 82.58545
1254.117, 100.8315
1255.193, 89.06592
1256.268, 128.2061
1257.343, 118.8076
1258.418, 146.6914
1259.493, 77.87354
1260.567, 32.10938
1261.642, 78.74023
1262.716, 7.208496
1263.790, 56.34131
1264.864, 83.37354
1265.938, 8.652344
1267.011, 163.3276
1268.085, 22.29297
1269.158, 78.87695
1270.231, 0.3764650
1271.304, 100.6025
1272.377, 42.39355
1273.450, 12.25439
1274.522, 26.76416
1275.594, 14.97754
1276.666, 31.75928
1277.738, 30.16162
1278.810, 108.9839
1279.882, 84.33984
1280.953, 190.3330
1282.025, 150.0195
1283.096, 108.2197
1284.167, 101.1416
1285.238, 26.10596
1286.308, 101.9253
1287.379, 88.52148
1288.449, 231.1011
1289.519, 230.8096
1290.589, 170.4116
1291.659, 132.3579
1292.729, 194.0454
1293.798, 121.7222
1294.868, 112.1206
1295.937, 132.7642
1297.006, 10.23828
1298.075, 103.6094
1299.143, 81.01123
1300.212, 84.40479
1301.280, 140.4370
1302.348, 91.00049
1303.416, 91.11182
1304.484, 53.55371
1305.552, 40.44043
1306.620, 88.00098
1307.687, 31.08398
1308.754, 110.1538
1309.821, 139.7271
1310.888, 56.93652
1311.955, 25.37354
1313.021, 133.5322
1314.088, 71.85791
1315.154, 147.1807
1316.220, 62.79443
1317.286, 213.8799
1318.352, 199.0034
1319.417, 124.0527
1320.483, 88.08496
1321.548, 108.0972
1322.613, 113.0933
1323.678, 157.6353
1324.743, 164.6016
1325.807, 113.5518
1326.872, 117.4785
1327.936, 95.91650
1329.000, 112.4531
1330.064, 56.29883
1331.128, 19.12646
1332.191, 13.06934
1333.255, 76.70459
1334.318, 140.5479
1335.381, 161.4546
1336.444, 177.0146
1337.507, 29.76367
1338.569, 128.2153
1339.632, 64.58350
1340.694, 58.20068
1341.756, 143.8003
1342.818, 105.3823
1343.880, 137.9478
1344.941, 8.658691
1346.003, 29.18457
1347.064, 146.9766
1348.125, 53.67432
1349.186, 150.0039
1350.247, 120.4590
1351.308, 1.198730
1352.368, 150.0996
1353.428, 100.9482
1354.489, 171.9507
1355.549, 47.31738
1356.608, 165.6426
1357.668, 117.9766
1358.727, 201.2964
1359.787, 249.7119
1360.846, 95.06396
1361.905, 174.3364
1362.964, 58.59375
1364.022, 93.83496
1365.081, 182.0469
1366.139, 114.2388
1367.197, 154.4121
1368.255, 138.5698
1369.313, 183.6626
1370.371, 173.7886
1371.428, 260.8975
1372.486, 318.8574
1373.543, 130.9331
1374.600, 181.9502
1375.657, 187.9946
1376.713, 158.6055
1377.770, 197.1699
1378.826, 182.8652
1379.882, 75.60010
1380.938, 195.5591
1381.994, 170.5034
1383.050, 270.4321
1384.106, 168.3452
1385.161, 164.2837
1386.216, 150.1685
1387.271, 104.0381
1388.326, 195.3799
1389.381, 192.1851
1390.435, 91.37891
1391.490, 178.0850
1392.544, 106.8838
1393.598, 156.9219
1394.652, 124.6948
1395.705, 71.36816
1396.759, 104.0762
1397.812, 86.55811
1398.866, 192.2827
1399.919, 106.5835
1400.972, 164.6689
1402.024, 79.48926
1403.077, 179.7002
1404.129, 133.5723
1405.181, 81.50391
1406.233, 7.891113
1407.285, 27.62744
1408.337, 152.5200
1409.389, 12.08057
1410.440, 65.62695
1411.491, 39.15186
1412.542, 52.53271
1413.593, 111.0239
1414.644, 115.4434
1415.695, 105.9326
1416.745, 88.43701
1417.795, 54.44531
1418.845, 60.90723
1419.895, 59.35645
1420.945, 70.94580
1421.995, 59.38623
1423.044, 95.81543
1424.093, 73.36182
1425.142, 125.7344
1426.191, 111.0151
1427.240, 165.2744
1428.289, 51.64600
1429.337, 38.90088
1430.385, 72.16357
1431.433, 159.0991
1432.481, 184.7563
1433.529, 69.96680
1434.577, 4.299805
1435.624, 114.9282
1436.672, 202.2896
1437.719, 163.1572
1438.766, 145.2695
1439.812, 90.41895
1440.859, 216.3398
1441.905, 73.41602
1442.952, 155.3096
1443.998, 83.28906
1445.044, 104.2246
1446.090, 103.3159
1447.135, 96.72559
1448.181, 147.3633
1449.226, 162.0654
1450.271, 182.9658
1451.316, 204.6768
1452.361, 192.9131
1453.405, 192.9736
1454.450, 193.2319
1455.494, 200.0781
1456.538, 191.8589
1457.582, 202.9019
1458.626, 230.2446
1459.670, 171.6646
1460.713, 41.50732
1461.757, 111.8662
1462.800, 50.06982
1463.843, 49.41553
1464.886, 119.4175
1465.928, 175.8311
1466.971, 111.0889
1468.013, 95.06055
1469.055, 197.2427
1470.097, 254.5029
1471.139, 139.7729
1472.181, 24.02246
1473.222, 33.26514
1474.263, 121.4878
1475.305, 114.7051
1476.346, 167.6914
1477.386, 90.89600
1478.427, 116.0820
1479.468, 182.2480
1480.508, 101.3081
1481.548, 105.4165
1482.588, 180.6074
1483.628, 99.84863
1484.668, 50.83154
1485.707, 41.04248
1486.747, 122.2080
1487.786, 89.32031
1488.825, 154.4697
1489.864, 166.5562
1490.902, 89.62500
1491.941, 143.0708
1492.979, 263.9365
1494.017, 123.1152
1495.055, 131.8696
1496.093, 174.4424
1497.131, 120.0601
1498.168, 204.9556
1499.206, 87.06055
1500.243, 151.7847
1501.280, 199.0952
1502.317, 60.15381
1503.354, 156.4268
1504.390, 161.4551
1505.426, 118.4878
1506.463, 213.4668
1507.499, 127.3081
1508.535, 151.2285
1509.570, 62.25830
1510.606, 209.2749
1511.641, 87.26758
1512.676, 119.3032
1513.711, 293.3901
1514.746, 57.51123
1515.781, 185.6514
1516.816, 231.4087
1517.850, 182.9634
1518.884, 95.14160
1519.918, 125.3164
1520.952, 109.4883
1521.986, 115.9326
1523.019, 114.5430
1524.053, 133.6709
1525.086, 125.6313
1526.119, 56.91504
1527.152, 94.03125
1528.185, 95.80713
1529.217, 21.86621
1530.250, 108.7275
1531.282, 88.66748
1532.314, 7.630859
1533.346, 121.5879
1534.377, 107.5581
1535.409, 147.5298
1536.440, 60.51074
1537.472, 137.3164
1538.503, 93.34473
1539.534, 154.3716
1540.564, 59.24072
1541.595, 1.740234
1542.625, 191.2695
1543.656, 102.0112
1544.686, 29.00537
1545.716, 88.98877
1546.745, 135.9648
1547.775, 56.95654
1548.804, 170.5879
1549.834, 23.47510
1550.863, 205.7598
1551.892, 191.0630
1552.920, 152.3516
1553.949, 319.5435
1554.977, 240.8838
1556.006, 200.0596
1557.034, 93.68945
1558.062, 111.3027
1559.089, 15.23438
1560.117, 55.71094
1561.144, 158.1992
1562.172, 147.2344
1563.199, 194.3525
1564.226, 98.50586
1565.252, 37.84961
1566.279, 7.612305
1567.305, 132.2490
1568.332, 62.68945
1569.358, 0.3066410
1570.384, 0.0000000E+00
##END=



