##NAMES=Andalusite
##RRUFFID=R050258
##IDEAL CHEMISTRY=Al_2_SiO_5_
##LOCALITY=Bautista Canyon, near Hemet, Riverside County, California, USA
##OWNER=RRUFF
##SOURCE=Marcus Origlieri
##DESCRIPTION=Brown fragment
##STATUS=The identification of this mineral has been confirmed by X-ray diffraction and chemical analysis
##URL=rruff.info/R050258
##MEASURED CHEMISTRY=Al_2.00_Si_1.00_O_5_
##PIN_ID=M00252
##ORIENTATION=Laser parallel to b* (0 1 0). Fiducial mark perpendicular to laser is parallel to c [0 0 1]
111.9760, 0.0000000E+00
113.2080, 161.5859
114.4400, 146.6641
115.6710, 320.5195
116.9030, 126.8887
118.1340, 216.0469
119.3650, 138.6602
120.5960, 55.62109
121.8270, 30.84961
123.0580, 9.667969
124.2880, 222.7305
125.5190, 223.9902
126.7490, 333.7500
127.9790, 125.0449
129.2090, 454.4336
130.4390, 328.1836
131.6680, 307.1641
132.8980, 383.2637
134.1270, 323.3750
135.3560, 185.4141
136.5850, 270.3047
137.8140, 58.98047
139.0430, 221.3887
140.2710, 195.4766
141.5000, 396.2070
142.7280, 228.5312
143.9560, 322.4199
145.1840, 306.8438
146.4120, 367.7715
147.6390, 398.2148
148.8670, 375.0605
150.0940, 408.3633
151.3210, 347.0547
152.5490, 246.1094
153.7750, 468.5039
155.0020, 218.2207
156.2290, 177.2500
157.4550, 302.5742
158.6810, 317.1914
159.9080, 278.0820
161.1340, 401.2383
162.3590, 342.6504
163.5850, 488.3125
164.8110, 247.2148
166.0360, 344.3535
167.2610, 318.7227
168.4860, 430.3887
169.7110, 337.2012
170.9360, 304.2266
172.1610, 350.4609
173.3850, 456.9004
174.6100, 395.5469
175.8340, 314.3945
177.0580, 390.4355
178.2820, 292.6699
179.5050, 164.0957
180.7290, 262.7148
181.9520, 289.5137
183.1760, 301.5000
184.3990, 325.6621
185.6220, 312.9648
186.8450, 543.2734
188.0670, 400.5957
189.2900, 483.9434
190.5120, 433.3262
191.7340, 410.7598
192.9560, 595.2539
194.1780, 501.8320
195.4000, 569.4863
196.6220, 328.2168
197.8430, 311.0762
199.0640, 533.1465
200.2860, 521.2988
201.5070, 569.5547
202.7270, 442.9238
203.9480, 372.3887
205.1690, 247.9434
206.3890, 337.5879
207.6090, 381.3262
208.8290, 73.15430
210.0490, 149.0781
211.2690, 31.09375
212.4890, 59.20508
213.7080, 396.4102
214.9280, 251.7070
216.1470, 475.1504
217.3660, 80.68555
218.5850, 350.3359
219.8030, 199.0742
221.0220, 115.9395
222.2400, 262.8984
223.4590, 76.95117
224.6770, 2.908203
225.8950, 240.3242
227.1120, 141.6465
228.3300, 186.0605
229.5480, 365.5605
230.7650, 208.1504
231.9820, 249.8438
233.1990, 431.6426
234.4160, 534.6270
235.6330, 480.7070
236.8490, 635.8809
238.0660, 856.1387
239.2820, 564.4805
240.4980, 713.9238
241.7140, 599.4492
242.9300, 615.0566
244.1460, 540.7656
245.3610, 503.6348
246.5770, 532.5859
247.7920, 509.6172
249.0070, 331.7441
250.2220, 444.9629
251.4370, 561.2617
252.6510, 403.6367
253.8660, 279.0938
255.0800, 593.6230
256.2940, 327.2324
257.5080, 474.9180
258.7220, 480.0391
259.9360, 650.7617
261.1490, 497.8203
262.3630, 597.1699
263.5760, 617.6953
264.7890, 784.4785
266.0020, 751.4961
267.2150, 884.7305
268.4270, 895.3906
269.6400, 983.2461
270.8520, 1164.035
272.0640, 1281.990
273.2760, 1482.098
274.4880, 1525.291
275.7000, 1841.686
276.9120, 1963.217
278.1230, 2065.877
279.3340, 2973.660
280.5450, 3613.562
281.7560, 4426.723
282.9670, 5506.852
284.1780, 6532.617
285.3880, 7769.963
286.5980, 8858.406
287.8090, 10263.95
289.0190, 11113.59
290.2290, 11762.75
291.4380, 11433.58
292.6480, 10403.40
293.8570, 9254.406
295.0670, 7844.498
296.2760, 6232.672
297.4850, 4600.932
298.6930, 3307.270
299.9020, 2444.688
301.1110, 1801.189
302.3190, 1588.768
303.5270, 1342.422
304.7350, 1399.150
305.9430, 1119.953
307.1510, 894.8281
308.3580, 784.7773
309.5660, 1066.795
310.7730, 1451.885
311.9800, 1692.041
313.1870, 2273.270
314.3940, 2795.561
315.6010, 3353.920
316.8070, 3744.346
318.0130, 4538.061
319.2200, 4964.617
320.4260, 4880.234
321.6310, 4470.916
322.8370, 4175.184
324.0430, 3616.990
325.2480, 3180.855
326.4540, 2450.781
327.6590, 2185.377
328.8640, 1762.422
330.0680, 1809.523
331.2730, 1473.029
332.4780, 1376.246
333.6820, 1210.523
334.8860, 1382.857
336.0900, 1347.262
337.2940, 1308.711
338.4980, 1317.219
339.7010, 1038.785
340.9050, 1091.406
342.1080, 1152.088
343.3110, 1307.826
344.5140, 1252.617
345.7170, 1438.469
346.9200, 1651.982
348.1220, 1854.334
349.3240, 2280.350
350.5270, 2648.625
351.7290, 3176.467
352.9310, 3702.648
354.1320, 4610.299
355.3340, 4988.586
356.5350, 5240.336
357.7370, 5418.984
358.9380, 5542.443
360.1390, 5027.953
361.3400, 4329.514
362.5400, 3913.131
363.7410, 3083.797
364.9410, 2610.514
366.1410, 1743.955
367.3410, 1634.775
368.5410, 1158.645
369.7410, 1145.537
370.9400, 849.5078
372.1400, 650.5273
373.3390, 653.9863
374.5380, 571.4863
375.7370, 534.7754
376.9360, 476.9941
378.1350, 596.4805
379.3330, 401.7969
380.5310, 214.1934
381.7300, 646.6055
382.9280, 580.0645
384.1260, 270.7637
385.3230, 471.3145
386.5210, 260.9141
387.7180, 508.5547
388.9160, 195.2441
390.1130, 133.9902
391.3100, 159.7773
392.5060, 310.6309
393.7030, 257.5234
394.9000, 89.46094
396.0960, 77.48828
397.2920, 111.5605
398.4880, 92.68945
399.6840, 127.8613
400.8800, 29.07617
402.0750, 64.66602
403.2710, 85.64062
404.4660, 80.01562
405.6610, 129.4551
406.8560, 92.95898
408.0510, 121.6035
409.2450, 106.1504
410.4400, 105.8379
411.6340, 86.58594
412.8280, 11.60156
414.0220, 310.2637
415.2160, 71.19141
416.4100, 350.1816
417.6030, 33.77344
418.7970, 163.3203
419.9900, 221.4668
421.1830, 124.6719
422.3760, 296.9297
423.5690, 277.2402
424.7610, 87.39453
425.9540, 110.9961
427.1460, 204.5586
428.3380, 181.8633
429.5300, 182.3398
430.7220, 71.86914
431.9140, 105.4473
433.1050, 66.92188
434.2970, 227.7344
435.4880, 27.55273
436.6790, 10.19922
437.8700, 242.0000
439.0610, 65.85156
440.2510, 53.75586
441.4420, 235.7070
442.6320, 253.7070
443.8220, 246.5273
445.0120, 290.6270
446.2020, 301.7734
447.3910, 247.9707
448.5810, 324.3223
449.7700, 633.5059
450.9600, 412.8477
452.1490, 617.2344
453.3370, 651.6680
454.5260, 408.1504
455.7150, 322.6797
456.9030, 99.25195
458.0910, 80.87500
459.2800, 144.5430
460.4670, 96.74219
461.6550, 161.9805
462.8430, 64.74805
464.0300, 18.56250
465.2180, 33.57617
466.4050, 245.3145
467.5920, 106.2500
468.7790, 184.2324
469.9650, 57.74023
471.1520, 212.3086
472.3380, 30.47070
473.5250, 1.392578
474.7110, 151.7832
475.8970, 247.0059
477.0820, 188.2715
478.2680, 11.58008
479.4540, 324.9316
480.6390, 105.3301
481.8240, 220.7695
483.0090, 66.25195
484.1940, 29.77930
485.3780, 331.3477
486.5630, 94.96484
487.7470, 282.6230
488.9320, 204.3242
490.1160, 148.0684
491.3000, 233.8809
492.4830, 40.24805
493.6670, 5.355469
494.8500, 30.57227
496.0340, 187.4609
497.2170, 97.46680
498.4000, 3.435547
499.5820, 16.55859
500.7650, 119.8281
501.9480, 195.9414
503.1300, 98.09766
504.3120, 327.2930
505.4940, 124.5449
506.6760, 145.8379
507.8580, 22.83203
509.0390, 48.52344
510.2210, 143.9180
511.4020, 132.3516
512.5830, 127.7871
513.7640, 171.3359
514.9450, 14.31055
516.1250, 10.29102
517.3060, 152.0762
518.4860, 56.53906
519.6660, 17.18945
520.8460, 214.8770
522.0260, 27.98242
523.2060, 101.7441
524.3850, 279.5430
525.5650, 50.55859
526.7440, 207.2871
527.9230, 154.1699
529.1020, 122.0918
530.2810, 333.0488
531.4590, 136.4375
532.6380, 183.4746
533.8160, 325.0059
534.9940, 272.1172
536.1720, 305.2656
537.3500, 411.3945
538.5270, 417.6133
539.7050, 413.0117
540.8820, 421.2969
542.0590, 740.6211
543.2360, 823.0059
544.4130, 1151.555
545.5900, 1230.008
546.7660, 1353.516
547.9430, 1606.061
549.1190, 1504.641
550.2950, 1382.256
551.4710, 1428.900
552.6470, 1403.578
553.8220, 1280.494
554.9980, 953.0000
556.1730, 988.0781
557.3480, 533.4395
558.5230, 358.2773
559.6980, 588.2109
560.8730, 545.1113
562.0470, 359.0430
563.2220, 550.0059
564.3960, 489.0137
565.5700, 297.0508
566.7440, 379.9824
567.9170, 282.0840
569.0910, 489.6855
570.2640, 351.8535
571.4380, 452.0723
572.6110, 584.3223
573.7840, 423.6016
574.9570, 646.5098
576.1290, 351.8711
577.3020, 267.3535
578.4740, 270.7734
579.6460, 409.2207
580.8180, 240.6992
581.9900, 410.2031
583.1620, 240.7422
584.3330, 12.30273
585.5040, 335.8887
586.6760, 107.5000
587.8470, 425.1387
589.0180, 82.89258
590.1880, 431.5898
591.3590, 427.3203
592.5290, 85.07422
593.7000, 453.8672
594.8700, 302.6875
596.0400, 235.5352
597.2090, 209.4102
598.3790, 176.9492
599.5490, 512.2539
600.7180, 218.2148
601.8870, 475.9883
603.0560, 541.0117
604.2250, 62.05859
605.3940, 226.1328
606.5620, 260.7070
607.7300, 356.8516
608.8990, 143.2422
610.0670, 109.4414
611.2350, 59.06250
612.4020, 46.31250
613.5700, 239.5859
614.7370, 313.5430
615.9050, 253.8633
617.0720, 384.2109
618.2390, 393.5820
619.4060, 355.9688
620.5720, 268.6289
621.7390, 587.0703
622.9050, 312.5352
624.0710, 373.0234
625.2370, 210.5352
626.4030, 509.9531
627.5690, 158.5078
628.7340, 480.0859
629.9000, 513.2812
631.0650, 417.5547
632.2300, 146.9805
633.3950, 143.4414
634.5600, 257.4062
635.7240, 291.1133
636.8890, 130.4258
638.0530, 466.1719
639.2170, 140.5352
640.3810, 19.92969
641.5450, 179.7109
642.7080, 99.10547
643.8720, 297.9297
645.0350, 190.4258
646.1980, 206.2930
647.3610, 237.1758
648.5240, 246.4102
649.6870, 208.3320
650.8490, 249.2773
652.0120, 219.2383
653.1740, 248.2188
654.3360, 20.57812
655.4980, 172.0430
656.6600, 108.6914
657.8210, 218.8984
658.9830, 278.1055
660.1440, 393.9688
661.3050, 33.06641
662.4660, 98.14453
663.6270, 129.2734
664.7870, 55.41797
665.9480, 194.3867
667.1080, 332.5664
668.2680, 173.7617
669.4280, 300.9688
670.5880, 17.31641
671.7480, 88.90625
672.9070, 36.65625
674.0670, 174.5664
675.2260, 241.8047
676.3850, 170.9414
677.5440, 185.2344
678.7030, 30.39062
679.8610, 365.7891
681.0200, 107.9805
682.1780, 286.6992
683.3360, 91.10156
684.4940, 239.3477
685.6520, 221.4727
686.8090, 181.4922
687.9670, 209.7812
689.1240, 175.6172
690.2810, 144.9453
691.4380, 167.7227
692.5950, 53.05859
693.7520, 83.41016
694.9080, 8.773438
696.0650, 34.12109
697.2210, 161.5117
698.3770, 142.9023
699.5330, 196.3047
700.6880, 338.7148
701.8440, 433.1445
702.9990, 298.6953
704.1550, 323.1484
705.3100, 307.2852
706.4650, 280.0430
707.6190, 257.2695
708.7740, 345.8633
709.9290, 370.7188
711.0830, 521.3047
712.2370, 380.8984
713.3910, 411.3789
714.5450, 374.0156
715.6980, 661.7070
716.8520, 547.3828
718.0050, 723.0703
719.1580, 753.8477
720.3110, 496.5508
721.4640, 576.2617
722.6170, 703.9805
723.7700, 603.9414
724.9220, 459.6758
726.0740, 355.4219
727.2260, 78.18359
728.3780, 398.4102
729.5300, 517.8320
730.6810, 423.6133
731.8330, 243.1367
732.9840, 302.9336
734.1350, 155.7383
735.2860, 400.5508
736.4370, 156.2539
737.5880, 256.0820
738.7380, 558.9180
739.8880, 173.6836
741.0390, 204.5508
742.1890, 264.4219
743.3380, 116.3008
744.4880, 273.1875
745.6380, 194.9609
746.7870, 79.38281
747.9360, 457.2969
749.0850, 336.2148
750.2340, 202.1523
751.3830, 119.0273
752.5310, 269.9727
753.6800, 213.9258
754.8280, 332.8867
755.9760, 122.8594
757.1240, 274.8320
758.2720, 78.80469
759.4190, 296.7891
760.5670, 129.7734
761.7140, 238.7695
762.8610, 184.7617
764.0080, 37.76172
765.1550, 362.7617
766.3020, 114.7695
767.4480, 53.77344
768.5950, 57.22266
769.7410, 25.25781
770.8870, 183.6797
772.0330, 186.6250
773.1780, 182.5859
774.3240, 359.5469
775.4690, 298.5547
776.6140, 133.5625
777.7590, 375.5781
778.9040, 112.7461
780.0490, 52.20703
781.1940, 150.1602
782.3380, 23.88281
783.4820, 189.0430
784.6260, 245.9727
785.7700, 327.9102
786.9140, 277.8555
788.0580, 260.8047
789.2010, 127.7578
790.3450, 188.7188
791.4880, 2.324219
792.6310, 10.76953
793.7730, 246.7617
794.9160, 1.304688
796.0590, 90.64062
797.2010, 319.5938
798.3430, 201.5508
799.4850, 286.1328
800.6270, 304.0938
801.7690, 335.0625
802.9100, 517.9727
804.0520, 240.9609
805.1930, 371.9492
806.3340, 475.9414
807.4750, 14.93750
808.6160, 365.5352
809.7560, 80.52344
810.8970, 168.0586
812.0370, 292.0547
813.1770, 184.0508
814.3170, 368.0977
815.4570, 69.10547
816.5960, 280.9609
817.7360, 288.9727
818.8750, 84.01562
820.0140, 66.94922
821.1530, 303.9102
822.2920, 39.12109
823.4310, 3.183594
824.5690, 222.7383
825.7070, 251.6680
826.8460, 452.5938
827.9840, 305.5312
829.1220, 99.46875
830.2590, 255.2109
831.3970, 115.2617
832.5340, 214.7969
833.6710, 143.1992
834.8080, 94.15234
835.9450, 244.1094
837.0820, 194.0703
838.2190, 117.0352
839.3550, 29.00000
840.4910, 262.9453
841.6270, 28.89062
842.7630, 112.8359
843.8990, 457.7812
845.0350, 9.730469
846.1700, 67.32812
847.3060, 89.57422
848.4410, 332.9766
849.5760, 59.11719
850.7100, 170.1914
851.8450, 92.76172
852.9800, 158.6836
854.1140, 195.5547
855.2480, 81.42969
856.3820, 138.3008
857.5160, 99.56641
858.6500, 155.0508
859.7830, 130.9336
860.9170, 227.8125
862.0500, 389.7070
863.1830, 331.5898
864.3160, 45.39844
865.4480, 32.28125
866.5810, 98.17188
867.7130, 22.93750
868.8460, 225.9375
869.9780, 162.8203
871.1100, 278.7109
872.2410, 9.398438
873.3730, 213.4766
874.5050, 273.4062
875.6360, 10.66406
876.7670, 198.2461
877.8980, 411.1641
879.0290, 295.0781
880.1590, 199.0000
881.2900, 45.08203
882.4200, 22.19531
883.5500, 232.4609
884.6800, 287.3281
885.8100, 134.1992
886.9400, 298.0664
888.0690, 362.9414
889.1990, 227.8164
890.3280, 194.6953
891.4570, 194.5977
892.5860, 185.5000
893.7140, 338.4102
894.8430, 391.0742
895.9710, 417.9805
897.1000, 586.8945
898.2280, 446.8125
899.3560, 813.7266
900.4830, 681.7578
901.6110, 470.6758
902.7380, 869.5977
903.8660, 963.9258
904.9930, 1030.199
906.1200, 1324.695
907.2460, 1497.633
908.3730, 1980.617
909.5000, 2265.559
910.6260, 2878.500
911.7520, 4235.441
912.8780, 4897.391
914.0040, 6303.340
915.1290, 7417.449
916.2550, 8817.820
917.3800, 9437.797
918.5050, 9718.133
919.6300, 8801.117
920.7550, 7956.102
921.8800, 6583.086
923.0040, 5535.082
924.1290, 4344.082
925.2530, 3365.086
926.3770, 2973.090
927.5010, 2482.793
928.6250, 2076.020
929.7480, 1799.090
930.8720, 1501.887
931.9950, 1583.820
933.1180, 1242.922
934.2410, 1493.023
935.3640, 1178.137
936.4860, 1244.250
937.6090, 1610.371
938.7310, 1816.496
939.8530, 1748.621
940.9750, 2161.754
942.0970, 2357.887
943.2180, 2787.547
944.3400, 3248.707
945.4610, 3860.668
946.5820, 4454.891
947.7030, 5006.109
948.8240, 5043.336
949.9450, 5371.613
951.0650, 5058.703
952.1860, 4689.000
953.3060, 3901.297
954.4260, 3422.086
955.5460, 3043.402
956.6650, 2466.359
957.7850, 1931.250
958.9040, 1612.816
960.0230, 1323.141
961.1420, 1026.469
962.2610, 549.7969
963.3800, 951.1328
964.4990, 892.4688
965.6170, 373.8086
966.7350, 521.1562
967.8530, 295.5117
968.9710, 465.8711
970.0890, 452.2305
971.2070, 339.6133
972.3240, 256.0000
973.4410, 234.2812
974.5580, 314.6641
975.6750, 220.0664
976.7920, 277.7852
977.9090, 395.1914
979.0250, 415.5938
980.1410, 236.9609
981.2580, 271.0703
982.3740, 73.52344
983.4890, 206.8672
984.6050, 57.62109
985.7200, 79.24609
986.8360, 7.074219
987.9510, 40.42578
989.0660, 44.78516
990.1810, 211.0547
991.2950, 268.4180
992.4100, 220.0469
993.5240, 26.15625
994.6390, 89.52734
995.7530, 171.9180
996.8660, 104.3086
997.9800, 309.7031
999.0940, 194.6367
1000.207, 57.66016
1001.320, 181.4141
1002.433, 12.08984
1003.546, 344.8477
1004.659, 233.2656
1005.772, 334.6875
1006.884, 454.3125
1007.996, 468.4648
1009.108, 381.8945
1010.220, 715.4062
1011.332, 852.8398
1012.444, 1018.281
1013.555, 1488.719
1014.666, 1541.168
1015.777, 1797.742
1016.888, 1784.680
1017.999, 1880.711
1019.110, 2207.590
1020.220, 1919.055
1021.331, 1784.527
1022.441, 1681.004
1023.551, 1286.555
1024.661, 1005.281
1025.770, 1092.434
1026.880, 627.9219
1027.989, 445.4102
1029.098, 570.9023
1030.207, 437.3984
1031.316, 442.2969
1032.425, 380.7969
1033.533, 320.1211
1034.642, 263.8125
1035.750, 215.3203
1036.858, 116.8320
1037.966, 38.35547
1039.073, 13.10156
1040.181, 25.39062
1041.288, 7.957031
1042.396, 41.52734
1043.503, 31.10156
1044.610, 136.6719
1045.716, 81.25000
1046.823, 432.8281
1047.929, 255.4102
1049.036, 341.0312
1050.142, 263.4570
1051.248, 183.0859
1052.353, 350.7578
1053.459, 381.4062
1054.564, 413.0547
1055.670, 666.2266
1056.775, 743.8789
1057.880, 970.8086
1058.985, 1064.465
1060.089, 1481.590
1061.194, 1935.258
1062.298, 2249.961
1063.402, 2552.664
1064.506, 2409.379
1065.610, 2051.383
1066.713, 2025.070
1067.817, 1807.789
1068.920, 1503.516
1070.023, 1260.473
1071.126, 1037.199
1072.229, 517.9609
1073.332, 631.4766
1074.435, 531.2109
1075.537, 225.8789
1076.639, 328.9961
1077.741, 477.7383
1078.843, 60.31250
1079.945, 284.0508
1081.046, 349.7891
1082.148, 176.5273
1083.249, 327.2578
1084.350, 239.9922
1085.451, 98.72656
1086.551, 158.4609
1087.652, 3.582031
1088.752, 27.39062
1089.853, 213.0977
1090.953, 138.8672
1092.053, 103.6367
1093.152, 367.4141
1094.252, 146.5898
1095.351, 395.3633
1096.451, 351.1289
1097.550, 320.1367
1098.649, 441.8984
1099.748, 443.8516
1100.846, 514.3164
1101.945, 505.6484
1103.043, 629.2227
1104.141, 778.3242
1105.239, 780.0703
1106.337, 893.9609
1107.434, 762.8047
1108.532, 937.5586
1109.629, 1076.840
1110.726, 921.6328
1111.823, 659.3789
1112.920, 741.1406
1114.017, 348.5391
1115.113, 552.8242
1116.210, 483.6016
1117.306, 234.9531
1118.402, 133.0352
1119.498, 192.7695
1120.593, 476.5547
1121.689, 127.3359
1122.784, 201.1172
1123.879, 356.8984
1124.974, 297.6719
1126.069, 383.7773
1127.164, 467.9023
1128.259, 396.6680
1129.353, 188.4297
1130.447, 88.18750
1131.541, 13.94922
1132.635, 5.703125
1133.729, 149.4531
1134.822, 65.80078
1135.916, 83.91797
1137.009, 218.6289
1138.102, 40.33984
1139.195, 182.5586
1140.288, 161.0508
1141.380, 98.66016
1142.473, 532.2695
1143.565, 257.8789
1144.657, 171.4766
1145.749, 129.3555
1146.841, 353.9531
1147.932, 209.5586
1149.024, 176.1719
1150.115, 380.8906
1151.206, 122.4922
1152.297, 71.65625
1153.388, 125.5742
1154.479, 54.16016
1155.569, 76.25781
1156.659, 3.1250000E-02
1157.750, 448.7852
1158.839, 76.29688
1159.929, 148.8047
1161.019, 219.3125
1162.108, 19.81250
1163.198, 267.2969
1164.287, 268.7812
1165.376, 401.2656
1166.465, 437.5039
1167.553, 211.2344
1168.642, 346.7031
1169.730, 257.1680
1170.818, 21.07422
1171.906, 338.5742
1172.994, 396.9531
1174.082, 213.7852
1175.170, 494.1953
1176.257, 233.1602
1177.344, 101.5859
1178.431, 145.0000
1179.518, 299.4180
1180.605, 33.18359
1181.691, 270.2891
1182.778, 96.84766
1183.864, 182.2422
1184.950, 214.7734
1186.036, 11.84766
1187.122, 215.5117
1188.207, 53.85938
1189.292, 142.1953
1190.378, 185.4727
1191.463, 298.7383
1192.548, 242.8477
1193.632, 126.0469
1194.717, 213.2422
1195.801, 52.57812
1196.886, 1.558594
1197.970, 134.6719
1199.054, 0.9882810
1200.137, 73.55469
1201.221, 132.6641
1202.305, 122.1523
1203.388, 10.23438
1204.471, 166.3320
1205.554, 4.632813
1206.637, 57.69922
1207.719, 169.8008
1208.802, 138.1133
1209.884, 217.8828
1210.966, 500.8711
1212.048, 288.8477
1213.130, 165.8125
1214.212, 140.7695
1215.293, 335.7461
1216.374, 345.6797
1217.456, 1.992188
1218.536, 368.8359
1219.617, 151.6406
1220.698, 330.5117
1221.778, 147.3906
1222.859, 161.2422
1223.939, 64.08203
1225.019, 329.0117
1226.099, 422.8398
1227.178, 94.66406
1228.258, 378.4727
1229.337, 109.2695
1230.417, 87.05859
1231.496, 359.8242
1232.574, 23.41406
1233.653, 76.31250
1234.732, 440.0156
1235.810, 267.7070
1236.888, 104.3906
1237.966, 206.0547
1239.044, 57.70703
1240.122, 154.2773
1241.199, 399.8945
1242.277, 262.0391
1243.354, 50.64453
1244.431, 179.4609
1245.508, 274.5430
1246.585, 383.1133
1247.661, 391.1992
1248.738, 348.3164
1249.814, 383.0391
1250.890, 477.5859
1251.966, 503.1172
1253.042, 244.9258
1254.117, 319.4297
1255.193, 464.9219
1256.268, 17.85938
1257.343, 290.5703
1258.418, 459.0195
1259.493, 335.5938
1260.567, 525.9883
1261.642, 441.6055
1262.716, 269.6211
1263.790, 407.9688
1264.864, 384.6953
1265.938, 312.0078
1267.011, 526.6523
1268.085, 93.67188
1269.158, 369.9648
1270.231, 258.2422
1271.304, 579.4727
1272.377, 378.6836
1273.450, 440.8828
1274.522, 113.0625
1275.594, 250.9492
1276.666, 317.3789
1277.738, 489.6836
1278.810, 156.7969
1279.882, 336.8867
1280.953, 4.031250
1282.025, 108.0117
1283.096, 424.2031
1284.167, 592.1953
1285.238, 216.2656
1286.308, 338.3555
1287.379, 315.3750
1288.449, 295.1289
1289.519, 476.6445
1290.589, 343.7930
1291.659, 308.6797
1292.729, 280.5547
1293.798, 379.5117
1294.868, 328.3516
1295.937, 440.5625
1297.006, 366.8945
1298.075, 618.6953
1299.143, 58.47266
1300.212, 142.2969
1301.280, 389.0312
1302.348, 98.60156
1303.416, 615.2969
1304.484, 71.11328
1305.552, 242.8789
1306.620, 278.6680
1307.687, 249.2812
1308.754, 455.3906
1309.821, 181.7422
1310.888, 169.0312
1311.955, 382.6875
1313.021, 179.2344
1314.088, 353.3359
1315.154, 468.8945
1316.220, 374.3320
1317.286, 216.0312
1318.352, 367.4258
1319.417, 299.3203
1320.483, 56.78906
1321.548, 411.5078
1322.613, 370.0273
1323.678, 286.3203
1324.743, 538.4219
1325.807, 484.1680
1326.872, 155.5547
1327.936, 35.26953
1329.000, 270.8320
1330.064, 120.9766
1331.128, 316.5078
1332.191, 268.5938
1333.255, 169.6992
1334.318, 233.5195
1335.381, 382.8750
1336.444, 342.9414
1337.507, 331.5078
1338.569, 547.5469
1339.632, 316.7422
1340.694, 413.9180
1341.756, 287.2109
1342.818, 217.9492
1343.880, 257.1758
1344.941, 130.1406
1346.003, 200.7148
1347.064, 253.6328
1348.125, 279.5391
1349.186, 225.1055
1350.247, 387.9844
1351.308, 413.3516
1352.368, 206.9766
1353.428, 718.7656
1354.489, 435.4102
1355.549, 246.9336
1356.608, 465.7188
1357.668, 330.2969
1358.727, 276.7578
1359.787, 362.4648
1360.846, 239.3555
1361.905, 607.7148
1362.964, 384.3984
1364.022, 388.0742
1365.081, 487.4961
1366.139, 269.1367
1367.197, 56.23828
1368.255, 275.0977
1369.313, 10.32031
1370.371, 239.2383
1371.428, 186.1406
1372.486, 123.6445
1373.543, 307.4453
1374.600, 229.9219
1375.657, 318.0234
1376.713, 206.4648
1377.770, 278.1328
1378.826, 320.4844
1379.882, 178.0391
1380.938, 335.2812
1381.994, 547.5078
1383.050, 84.71484
1384.106, 300.2070
1385.161, 241.8789
1386.216, 33.01953
1387.271, 286.1406
1388.326, 127.2461
1389.381, 447.2617
1390.435, 283.1953
1391.490, 86.10938
1392.544, 271.2383
1393.598, 168.0156
1394.652, 75.76562
1395.705, 84.25391
1396.759, 245.0000
1397.812, 278.7344
1398.866, 445.6914
1399.919, 264.3594
1400.972, 416.9609
1402.024, 89.23828
1403.077, 185.7695
1404.129, 211.2578
1405.181, 304.7227
1406.233, 370.0469
1407.285, 440.6836
1408.337, 306.4961
1409.389, 214.5195
1410.440, 240.8359
1411.491, 177.1094
1412.542, 84.36328
1413.593, 239.5781
1414.644, 79.76172
1415.695, 112.9062
1416.745, 196.2305
1417.795, 157.3008
1418.845, 430.8672
1419.895, 16.12500
1420.945, 387.2148
1421.995, 165.5781
1423.044, 135.0430
1424.093, 262.9062
1425.142, 633.0156
1426.191, 355.4219
1427.240, 568.1992
1428.289, 78.84766
1429.337, 518.1328
1430.385, 226.8086
1431.433, 79.10156
1432.481, 223.4844
1433.529, 265.2148
1434.577, 135.6289
1435.624, 119.8789
1436.672, 57.01562
1437.719, 15.89453
1438.766, 248.9453
1439.812, 109.7656
1440.859, 111.3086
1441.905, 326.1250
1442.952, 125.8789
1443.998, 429.7969
1445.044, 537.3281
1446.090, 131.1445
1447.135, 56.04688
1448.181, 194.4258
1449.226, 247.8086
1450.271, 222.9844
1451.316, 135.7188
1452.361, 211.5781
1453.405, 295.5352
1454.450, 96.33594
1455.494, 284.7656
1456.538, 156.8867
1457.582, 73.00781
1458.626, 407.0273
1459.670, 104.5156
1460.713, 134.4297
1461.757, 341.5781
1462.800, 30.47266
1463.843, 307.4219
1464.886, 226.3398
1465.928, 228.2422
1466.971, 198.1367
1468.013, 334.0312
1469.055, 373.9102
1470.097, 416.3438
1471.139, 381.3359
1472.181, 400.8125
1473.222, 369.9453
1474.263, 109.5977
1475.305, 326.0938
1476.346, 151.4023
1477.386, 228.0742
1478.427, 23.25000
1479.468, 94.43359
1480.508, 78.72656
1481.548, 340.3281
1482.588, 287.8945
1483.628, 551.8086
1484.668, 80.23438
1485.707, 287.7617
1486.747, 342.2852
1487.786, 414.3125
1488.825, 523.5469
1489.864, 483.1211
1490.902, 356.2969
1491.941, 462.2109
1492.979, 212.3906
1494.017, 289.6211
1495.055, 391.0234
1496.093, 306.3477
1497.131, 708.0625
1498.168, 52.49609
1499.206, 388.8086
1500.243, 129.6445
1501.280, 390.7227
1502.317, 206.0078
1503.354, 464.2266
1504.390, 207.6875
1505.426, 615.6875
1506.463, 277.2539
1507.499, 339.1094
1508.535, 412.0664
1509.570, 147.9648
1510.606, 425.3672
1511.641, 361.0039
1512.676, 414.5547
1513.711, 404.8789
1514.746, 329.6680
1515.781, 281.3789
1516.816, 150.1992
1517.850, 371.6016
1518.884, 268.2109
1519.918, 190.7695
1520.952, 455.8984
1521.986, 528.9883
1523.019, 164.2461
1524.053, 398.7656
1525.086, 262.3320
1526.119, 381.7500
1527.152, 389.5508
1528.185, 562.0078
1529.217, 278.7422
1530.250, 274.3164
1531.282, 2.687500
1532.314, 316.9297
1533.346, 477.9258
1534.377, 381.8398
1535.409, 311.9727
1536.440, 422.9609
1537.472, 290.2188
1538.503, 282.7148
1539.534, 345.0703
1540.564, 146.1055
1541.595, 336.8711
1542.625, 26.39062
1543.656, 279.9414
1544.686, 103.5117
1545.716, 88.71875
1546.745, 26.57812
1547.775, 217.6445
1548.804, 126.7422
1549.834, 132.6914
1550.863, 170.7188
1551.892, 184.8086
1552.920, 249.3438
1553.949, 245.1914
1554.977, 435.2344
1556.006, 298.6406
1557.034, 116.5859
1558.062, 454.6523
1559.089, 230.6875
1560.117, 291.5664
1561.144, 237.7773
1562.172, 271.7852
1563.199, 233.9609
1564.226, 23.03516
1565.252, 234.9297
1566.279, 359.8242
1567.305, 106.9336
1568.332, 398.2852
1569.358, 1.121094
1570.384, 0.0000000E+00
##END=



