##NAMES=Andalusite
##RRUFFID=R050449
##IDEAL CHEMISTRY=Al_2_SiO_5_
##LOCALITY=Itinga, Minas Gerais, Brazil
##OWNER=RRUFF
##SOURCE=Marcus Origlieri
##DESCRIPTION=Green fragment
##STATUS=The identification of this mineral has been confirmed by X-ray diffraction and chemical analysis
##URL=rruff.info/R050449
##MEASURED CHEMISTRY=Al_2.00_Fe^3+^_0.01_Si_0.99_O_5_
##PIN_ID=L01352
##ORIENTATION=Laser parallel to -c* (0 0 -1). Fiducial mark perpendicular to laser is parallel to a [1 0 0]
92.24600, 0.0000000E+00
93.48000, 224.0142
94.71400, 95.38818
95.94800, 210.5088
97.18200, 138.3345
98.41600, 149.2939
99.64900, 175.3257
100.8830, 215.3369
102.1160, 130.6626
103.3490, 73.54980
104.5820, 32.53125
105.8150, 152.1162
107.0470, 307.3071
108.2800, 659.9302
109.5120, 928.5732
110.7440, 1471.677
111.9760, 1004.238
113.2080, 563.3989
114.4400, 481.3115
115.6710, 564.0483
116.9030, 750.6606
118.1340, 652.1909
119.3650, 450.6709
120.5960, 461.1270
121.8270, 295.5840
123.0580, 350.0620
124.2880, 384.6572
125.5190, 362.5830
126.7490, 361.7749
127.9790, 262.9385
129.2090, 378.7046
130.4390, 459.6450
131.6680, 368.7920
132.8980, 428.1328
134.1270, 402.0562
135.3560, 391.2393
136.5850, 392.6001
137.8140, 492.0859
139.0430, 504.6953
140.2710, 623.4268
141.5000, 747.2783
142.7280, 669.2510
143.9560, 596.3413
145.1840, 444.5508
146.4120, 369.8750
147.6390, 257.3062
148.8670, 235.8462
150.0940, 193.1689
151.3210, 149.2744
152.5490, 165.1929
153.7750, 254.2539
155.0020, 243.4551
156.2290, 164.2319
157.4550, 56.35742
158.6810, 58.97705
159.9080, 143.3931
161.1340, 49.63086
162.3590, 76.45557
163.5850, 68.50928
164.8110, 62.60156
166.0360, 12.80322
167.2610, 192.0649
168.4860, 190.3877
169.7110, 192.7666
170.9360, 221.2036
172.1610, 205.6807
173.3850, 208.2002
174.6100, 138.3975
175.8340, 143.6440
177.0580, 221.1333
178.2820, 117.6963
179.5050, 119.6533
180.7290, 274.3486
181.9520, 217.1211
183.1760, 185.9668
184.3990, 244.8813
185.6220, 321.8643
186.8450, 504.9189
188.0670, 724.0435
189.2900, 978.2407
190.5120, 1144.510
191.7340, 1176.854
192.9560, 1096.270
194.1780, 1046.761
195.4000, 1041.326
196.6220, 1061.967
197.8430, 1161.684
199.0640, 1018.436
200.2860, 1150.154
201.5070, 1288.885
202.7270, 1466.696
203.9480, 1658.586
205.1690, 1547.556
206.3890, 1130.646
207.6090, 533.9766
208.8290, 342.5820
210.0490, 110.4678
211.2690, 93.59570
212.4890, 132.8667
213.7080, 25.22998
214.9280, 35.66895
216.1470, 52.16943
217.3660, 65.73145
218.5850, 14.35693
219.8030, 46.95508
221.0220, 42.79688
222.2400, 83.61377
223.4590, 127.4946
224.6770, 41.56006
225.8950, 194.4507
227.1120, 98.52686
228.3300, 12.66797
229.5480, 115.8667
230.7650, 50.87646
231.9820, 135.4395
233.1990, 42.81543
234.4160, 116.2578
235.6330, 27.75146
236.8490, 147.3115
238.0660, 255.9385
239.2820, 387.7803
240.4980, 438.7109
241.7140, 459.8120
242.9300, 533.8545
244.1460, 448.9463
245.3610, 476.8447
246.5770, 293.8555
247.7920, 278.0732
249.0070, 190.1763
250.2220, 138.4688
251.4370, 123.1162
252.6510, 22.56836
253.8660, 35.09668
255.0800, 53.30127
256.2940, 99.64551
257.5080, 123.9561
258.7220, 98.76660
259.9360, 130.5439
261.1490, 122.2549
262.3630, 449.2681
263.5760, 25.21729
264.7890, 103.2256
266.0020, 33.70752
267.2150, 64.41553
268.4270, 290.5986
269.6400, 305.8418
270.8520, 375.1450
272.0640, 481.4448
273.2760, 794.6099
274.4880, 839.7661
275.7000, 1236.990
276.9120, 1650.283
278.1230, 1867.643
279.3340, 2209.069
280.5450, 2685.562
281.7560, 3676.116
282.9670, 4754.734
284.1780, 6269.416
285.3880, 7878.160
286.5980, 9812.965
287.8090, 12605.83
289.0190, 15632.76
290.2290, 18568.75
291.4380, 20758.80
292.6480, 20232.91
293.8570, 17822.08
295.0670, 14228.31
296.2760, 11027.61
297.4850, 8415.957
298.6930, 6065.365
299.9020, 4373.834
301.1110, 3164.361
302.3190, 2335.929
303.5270, 1456.299
304.7350, 1196.969
305.9430, 808.8340
307.1510, 578.7949
308.3580, 568.4062
309.5660, 572.2881
310.7730, 963.2275
311.9800, 1462.211
313.1870, 2480.262
314.3940, 3154.369
315.6010, 4481.532
316.8070, 6450.752
318.0130, 9194.026
319.2200, 11963.06
320.4260, 14504.08
321.6310, 14845.08
322.8370, 13284.86
324.0430, 11146.92
325.2480, 8555.971
326.4540, 6086.275
327.6590, 4314.592
328.8640, 3077.991
330.0680, 2284.146
331.2730, 1914.945
332.4780, 1545.958
333.6820, 1190.088
334.8860, 1219.048
336.0900, 946.0615
337.2940, 1072.128
338.4980, 987.2471
339.7010, 906.4180
340.9050, 1041.644
342.1080, 939.9199
343.3110, 972.2500
344.5140, 1072.633
345.7170, 1131.068
346.9200, 1335.558
348.1220, 1578.102
349.3240, 2187.698
350.5270, 2920.348
351.7290, 3810.051
352.9310, 4916.807
354.1320, 6201.613
355.3340, 7794.469
356.5350, 9657.376
357.7370, 10846.33
358.9380, 11370.33
360.1390, 10758.39
361.3400, 9597.491
362.5400, 7969.642
363.7410, 6715.842
364.9410, 5636.577
366.1410, 4587.873
367.3410, 3834.216
368.5410, 3327.607
369.7410, 2860.775
370.9400, 2695.263
372.1400, 2439.798
373.3390, 2194.381
374.5380, 1953.011
375.7370, 1917.108
376.9360, 1569.834
378.1350, 1420.605
379.3330, 1423.425
380.5310, 1242.291
381.7300, 1231.205
382.9280, 1317.165
384.1260, 1426.180
385.3230, 1395.250
386.5210, 1406.375
387.7180, 1359.555
388.9160, 1659.790
390.1130, 1771.079
391.3100, 1765.425
392.5060, 2014.825
393.7030, 1849.281
394.9000, 1591.790
396.0960, 1328.366
397.2920, 1306.996
398.4880, 1119.685
399.6840, 1014.925
400.8800, 932.3604
402.0750, 959.8164
403.2710, 953.8311
404.4660, 1047.861
405.6610, 1106.057
406.8560, 1217.350
408.0510, 1399.704
409.2450, 1334.113
410.4400, 1429.808
411.6340, 1424.355
412.8280, 1592.981
414.0220, 1933.660
415.2160, 2278.400
416.4100, 2681.194
417.6030, 2860.039
418.7970, 3087.938
419.9900, 2702.890
421.1830, 2423.895
422.3760, 1895.951
423.5690, 1615.062
424.7610, 1293.223
425.9540, 990.4355
427.1460, 959.7002
428.3380, 839.0166
429.5300, 634.3838
430.7220, 514.8037
431.9140, 471.2725
433.1050, 277.7939
434.2970, 452.3643
435.4880, 389.9854
436.6790, 294.6572
437.8700, 381.3799
439.0610, 575.1514
440.2510, 654.9736
441.4420, 714.8467
442.6320, 797.7695
443.8220, 929.4746
445.0120, 1215.769
446.2020, 1189.843
447.3910, 1385.982
448.5810, 1467.174
449.7700, 1802.448
450.9600, 2055.789
452.1490, 2301.198
453.3370, 1725.659
454.5260, 1414.171
455.7150, 793.7324
456.9030, 566.3447
458.0910, 329.0078
459.2800, 196.7207
460.4670, 31.48242
461.6550, 164.7041
462.8430, 163.8887
464.0300, 204.0693
465.2180, 198.2754
466.4050, 242.5068
467.5920, 241.2480
468.7790, 164.0957
469.9650, 184.4160
471.1520, 224.7402
472.3380, 67.08887
473.5250, 46.59766
474.7110, 34.65820
475.8970, 62.87500
477.0820, 76.93359
478.2680, 168.7900
479.4540, 211.6934
480.6390, 286.6553
481.8240, 272.6641
483.0090, 386.7334
484.1940, 290.8691
485.3780, 204.0762
486.5630, 347.3633
487.7470, 276.7275
488.9320, 207.1719
490.1160, 37.67383
491.3000, 182.2402
492.4830, 137.8896
493.6670, 201.5938
494.8500, 216.3496
496.0340, 351.1641
497.2170, 424.0547
498.4000, 537.9590
499.5820, 654.9355
500.7650, 778.9600
501.9480, 926.0283
503.1300, 1034.141
504.3120, 1318.294
505.4940, 1282.489
506.6760, 1291.724
507.8580, 1644.008
509.0390, 1624.331
510.2210, 1911.694
511.4020, 1875.099
512.5830, 1970.547
513.7640, 1976.035
514.9450, 2006.562
516.1250, 1894.129
517.3060, 1909.732
518.4860, 1915.381
519.6660, 1858.069
520.8460, 1903.794
522.0260, 1881.555
523.2060, 1976.354
524.3850, 2000.190
525.5650, 1907.062
526.7440, 1897.970
527.9230, 2049.914
529.1020, 2174.893
530.2810, 2371.906
531.4590, 2523.956
532.6380, 2567.038
533.8160, 2807.154
534.9940, 2935.305
536.1720, 3215.488
537.3500, 3496.333
538.5270, 3937.953
539.7050, 4137.811
540.8820, 4542.131
542.0590, 4875.482
543.2360, 5406.260
544.4130, 5854.803
545.5900, 6253.988
546.7660, 6893.797
547.9430, 7397.339
549.1190, 7819.404
550.2950, 8161.073
551.4710, 8689.354
552.6470, 8551.994
553.8220, 8293.362
554.9980, 7671.050
556.1730, 7370.395
557.3480, 6751.126
558.5230, 6341.881
559.6980, 5942.656
560.8730, 5589.453
562.0470, 5282.271
563.2220, 5021.108
564.3960, 4951.967
565.5700, 4869.846
566.7440, 4824.744
567.9170, 4932.662
569.0910, 4898.600
570.2640, 5043.553
571.4380, 5026.527
572.6110, 4968.518
573.7840, 4860.525
574.9570, 4781.551
576.1290, 4667.609
577.3020, 4430.702
578.4740, 4284.852
579.6460, 4101.880
580.8180, 3902.400
581.9900, 3682.749
583.1620, 3523.214
584.3330, 3327.604
585.5040, 3177.388
586.6760, 2993.900
587.8470, 2851.622
589.0180, 2731.386
590.1880, 2482.204
591.3590, 2436.358
592.5290, 2492.297
593.7000, 2333.295
594.8700, 2449.336
596.0400, 2234.389
597.2090, 2404.450
598.3790, 2351.531
599.5490, 2300.634
600.7180, 2506.763
601.8870, 2592.230
603.0560, 2688.354
604.2250, 2762.013
605.3940, 2970.094
606.5620, 3146.926
607.7300, 3354.646
608.8990, 3562.784
610.0670, 3522.307
611.2350, 3697.312
612.4020, 3787.934
613.5700, 4061.160
614.7370, 4296.728
615.9050, 4430.645
617.0720, 4644.832
618.2390, 4850.074
619.4060, 4776.542
620.5720, 4941.973
621.7390, 5014.730
622.9050, 5086.139
624.0710, 5187.742
625.2370, 5314.906
626.4030, 5388.612
627.5690, 5481.905
628.7340, 5559.205
629.9000, 5586.636
631.0650, 5719.309
632.2300, 5685.180
633.3950, 5627.698
634.5600, 5628.751
635.7240, 5391.579
636.8890, 5355.691
638.0530, 5359.229
639.2170, 4945.365
640.3810, 5130.985
641.5450, 5077.458
642.7080, 4900.164
643.8720, 4895.342
645.0350, 4826.512
646.1980, 4761.672
647.3610, 4531.820
648.5240, 4694.959
649.6870, 4580.085
650.8490, 4293.199
652.0120, 3822.302
653.1740, 3560.391
654.3360, 3366.469
655.4980, 2796.532
656.6600, 2641.581
657.8210, 2305.618
658.9830, 2289.638
660.1440, 2268.645
661.3050, 2085.635
662.4660, 1944.609
663.6270, 1804.567
664.7870, 1465.509
665.9480, 1343.434
667.1080, 848.3418
668.2680, 664.2314
669.4280, 580.1035
670.5880, 331.9570
671.7480, 326.7920
672.9070, 332.6074
674.0670, 301.4033
675.2260, 173.1787
676.3850, 168.9336
677.5440, 28.66895
678.7030, 0.6181640
679.8610, 25.06445
681.0200, 42.72363
682.1780, 97.63867
683.3360, 108.0811
684.4940, 212.6123
685.6520, 221.2861
686.8090, 152.1094
687.9670, 12.04590
689.1240, 26.97559
690.2810, 65.02930
691.4380, 19.10352
692.5950, 80.22363
693.7520, 52.57617
694.9080, 11.64844
696.0650, 66.08105
697.2210, 91.78613
698.3770, 231.4629
699.5330, 150.1133
700.6880, 186.7363
701.8440, 279.3330
702.9990, 322.9004
704.1550, 271.4414
705.3100, 294.9521
706.4650, 420.4355
707.6190, 582.8896
708.7740, 644.3154
709.9290, 750.7119
711.0830, 1014.078
712.2370, 1176.498
713.3910, 1322.804
714.5450, 1302.194
715.6980, 1525.612
716.8520, 1549.705
718.0050, 1690.800
719.1580, 1490.149
720.3110, 1314.691
721.4640, 977.8623
722.6170, 729.1514
723.7700, 563.1426
724.9220, 430.6592
726.0740, 317.2168
727.2260, 219.1201
728.3780, 210.7656
729.5300, 149.8408
730.6810, 225.3916
731.8330, 281.1230
732.9840, 314.2461
734.1350, 465.2305
735.2860, 415.8184
736.4370, 428.2773
737.5880, 384.2158
738.7380, 332.7666
739.8880, 201.0479
741.0390, 85.43359
742.1890, 70.74902
743.3380, 187.0186
744.4880, 300.2754
745.6380, 227.5225
746.7870, 135.7686
747.9360, 159.0000
749.0850, 65.20312
750.2340, 76.11230
751.3830, 99.48926
752.5310, 102.5576
753.6800, 175.5576
754.8280, 232.5068
755.9760, 265.4160
757.1240, 229.2783
758.2720, 112.0898
759.4190, 205.8320
760.5670, 79.52051
761.7140, 48.13281
762.8610, 16.65625
764.0080, 8.292969
765.1550, 7.617188
766.3020, 11.42676
767.4480, 80.64453
768.5950, 47.63867
769.7410, 26.45605
770.8870, 112.3232
772.0330, 132.0332
773.1780, 68.67676
774.3240, 90.23828
775.4690, 110.7246
776.6140, 126.8984
777.7590, 151.5859
778.9040, 237.7715
780.0490, 213.0039
781.1940, 314.1816
782.3380, 383.3115
783.4820, 305.3896
784.6260, 424.4209
785.7700, 361.4014
786.9140, 528.3330
788.0580, 577.2158
789.2010, 670.0498
790.3450, 607.8340
791.4880, 785.5693
792.6310, 825.2559
793.7730, 798.8916
794.9160, 967.4805
796.0590, 1180.020
797.2010, 1284.510
798.3430, 1467.951
799.4850, 1588.345
800.6270, 1674.689
801.7690, 1839.985
802.9100, 2315.232
804.0520, 2434.432
805.1930, 2891.582
806.3340, 3058.686
807.4750, 3461.739
808.6160, 3756.746
809.7560, 4166.705
810.8970, 4486.615
812.0370, 5046.479
813.1770, 5549.295
814.3170, 6097.062
815.4570, 6577.782
816.5960, 7199.881
817.7360, 7776.498
818.8750, 8197.078
820.0140, 8477.229
821.1530, 8633.623
822.2920, 8357.353
823.4310, 8006.446
824.5690, 7308.793
825.7070, 6696.596
826.8460, 6107.780
827.9840, 5536.334
829.1220, 5008.518
830.2590, 4472.953
831.3970, 4164.055
832.5340, 3893.479
833.6710, 3494.499
834.8080, 2989.478
835.9450, 2903.419
837.0820, 2554.317
838.2190, 2074.178
839.3550, 1799.999
840.4910, 1557.780
841.6270, 1100.523
842.7630, 887.2266
843.8990, 809.8916
845.0350, 570.5186
846.1700, 336.1074
847.3060, 265.6582
848.4410, 153.1719
849.5760, 214.6465
850.7100, 3.083008
851.8450, 14.54883
852.9800, 90.25684
854.1140, 219.0811
855.2480, 81.08789
856.3820, 181.2051
857.5160, 256.4854
858.6500, 20.96484
859.7830, 97.52148
860.9170, 203.1924
862.0500, 225.0352
863.1830, 66.05859
864.3160, 115.1768
865.4480, 12.41699
866.5810, 261.0322
867.7130, 138.5342
868.8460, 83.16309
869.9780, 66.10840
871.1100, 160.3428
872.2410, 0.5546880
873.3730, 9.286133
874.5050, 37.17676
875.6360, 35.13281
876.7670, 93.54102
877.8980, 114.8350
879.0290, 89.59863
880.1590, 136.9766
881.2900, 120.8613
882.4200, 168.6035
883.5500, 241.9648
884.6800, 304.7246
885.8100, 242.0283
886.9400, 345.6680
888.0690, 486.9922
889.1990, 367.3613
890.3280, 652.2021
891.4570, 652.6885
892.5860, 903.3232
893.7140, 1161.711
894.8430, 1181.115
895.9710, 1336.174
897.1000, 1745.562
898.2280, 2004.734
899.3560, 2396.324
900.4830, 2649.353
901.6110, 2971.396
902.7380, 3578.170
903.8660, 4097.417
904.9930, 4718.400
906.1200, 5380.164
907.2460, 6071.266
908.3730, 7257.811
909.5000, 8716.559
910.6260, 10280.00
911.7520, 12647.01
912.8780, 15305.39
914.0040, 18956.28
915.1290, 22933.28
916.2550, 28382.04
917.3800, 33595.30
918.5050, 37816.56
919.6300, 39769.80
920.7550, 37660.04
921.8800, 33396.27
923.0040, 28826.51
924.1290, 24898.72
925.2530, 21755.93
926.3770, 19866.13
927.5010, 18496.34
928.6250, 16609.53
929.7480, 14972.72
930.8720, 13183.90
931.9950, 11234.08
933.1180, 9386.267
934.2410, 8030.442
935.3640, 6817.615
936.4860, 6031.787
937.6090, 5075.958
938.7310, 4636.129
939.8530, 4240.297
940.9750, 3806.467
942.0970, 3562.638
943.2180, 3626.809
944.3400, 3358.979
945.4610, 3461.152
946.5820, 3634.328
947.7030, 4268.506
948.8240, 3939.689
949.9450, 4004.876
951.0650, 3834.066
952.1860, 3704.269
953.3060, 3278.479
954.4260, 3133.692
955.5460, 2550.941
956.6650, 2132.229
957.7850, 2164.584
958.9040, 1732.010
960.0230, 1427.486
961.1420, 1470.980
962.2610, 1278.500
963.3800, 1133.052
964.4990, 1155.623
965.6170, 1153.230
966.7350, 1143.848
967.8530, 1024.483
968.9710, 1099.130
970.0890, 1002.787
971.2070, 1117.457
972.3240, 1167.139
973.4410, 1228.839
974.5580, 1235.580
975.6750, 1168.328
976.7920, 1220.101
977.9090, 1187.886
979.0250, 1213.684
980.1410, 1135.498
981.2580, 1133.326
982.3740, 1215.171
983.4890, 1163.267
984.6050, 1177.821
985.7200, 1203.600
986.8360, 1269.335
987.9510, 1388.381
989.0660, 1291.412
990.1810, 1491.178
991.2950, 1287.752
992.4100, 1672.684
993.5240, 1680.485
994.6390, 1816.571
995.7530, 2010.118
996.8660, 2448.396
997.9800, 2992.756
999.0940, 3574.139
1000.207, 4378.081
1001.320, 5213.535
1002.433, 6318.396
1003.546, 7289.253
1004.659, 8220.237
1005.772, 8490.306
1006.884, 8291.824
1007.996, 7540.329
1009.108, 6689.533
1010.220, 5766.246
1011.332, 5228.506
1012.444, 4617.441
1013.555, 4157.195
1014.666, 4099.871
1015.777, 4133.585
1016.888, 4260.336
1017.999, 4531.135
1019.110, 4515.670
1020.220, 4346.561
1021.331, 4314.775
1022.441, 3990.768
1023.551, 3551.810
1024.661, 3147.894
1025.770, 2730.016
1026.880, 2460.177
1027.989, 2041.380
1029.098, 1957.656
1030.207, 1732.977
1031.316, 1615.396
1032.425, 1631.881
1033.533, 1669.480
1034.642, 1575.167
1035.750, 1422.944
1036.858, 1373.799
1037.966, 1491.707
1039.073, 1306.698
1040.181, 1152.789
1041.288, 1232.957
1042.396, 1050.176
1043.503, 919.4766
1044.610, 980.8340
1045.716, 843.2617
1046.823, 800.7676
1047.929, 821.3428
1049.036, 839.9717
1050.142, 836.6641
1051.248, 865.4150
1052.353, 963.2158
1053.459, 986.0664
1054.564, 1232.962
1055.670, 1355.899
1056.775, 1568.888
1057.880, 2073.936
1058.985, 2715.027
1060.089, 3258.162
1061.194, 4181.366
1062.298, 4992.615
1063.402, 5870.920
1064.506, 6419.268
1065.610, 6346.666
1066.713, 5770.127
1067.817, 5089.634
1068.920, 4212.186
1070.023, 3411.787
1071.126, 2843.434
1072.229, 2283.131
1073.332, 1819.884
1074.435, 1627.684
1075.537, 1441.537
1076.639, 1346.461
1077.741, 1136.437
1078.843, 1058.457
1079.945, 1041.525
1081.046, 910.6396
1082.148, 748.7988
1083.249, 716.0078
1084.350, 783.0771
1085.451, 535.3965
1086.551, 604.7637
1087.652, 572.1758
1088.752, 472.6328
1089.853, 346.1348
1090.953, 428.6797
1092.053, 394.2715
1093.152, 309.9072
1094.252, 421.4238
1095.351, 337.1465
1096.451, 262.9150
1097.550, 335.7285
1098.649, 475.5840
1099.748, 492.4834
1100.846, 636.4258
1101.945, 539.4121
1103.043, 512.4414
1104.141, 607.5127
1105.239, 675.4902
1106.337, 913.2266
1107.434, 929.5557
1108.532, 1089.798
1109.629, 1090.464
1110.726, 1055.413
1111.823, 992.7842
1112.920, 891.1973
1114.017, 712.6523
1115.113, 715.1494
1116.210, 688.6904
1117.306, 547.2734
1118.402, 307.9150
1119.498, 406.6182
1120.593, 422.4023
1121.689, 573.3027
1122.784, 411.2021
1123.879, 454.2861
1124.974, 543.4932
1126.069, 451.7627
1127.164, 433.1133
1128.259, 283.2988
1129.353, 251.0029
1130.447, 259.5176
1131.541, 125.2471
1132.635, 38.03320
1133.729, 46.06055
1134.822, 106.9297
1135.916, 118.9932
1137.009, 93.90137
1138.102, 0.7744140
1139.195, 85.59668
1140.288, 56.38184
1141.380, 106.1162
1142.473, 51.81348
1143.565, 29.47852
1144.657, 106.1113
1145.749, 20.27441
1146.841, 92.08594
1147.932, 23.54883
1149.024, 81.67188
1150.115, 89.79004
1151.206, 11.77148
1152.297, 108.6309
1153.388, 18.98145
1154.479, 8.629883
1155.569, 205.3135
1156.659, 105.0322
1157.750, 77.78516
1158.839, 19.57324
1159.929, 170.5645
1161.019, 30.42090
1162.108, 115.7568
1163.198, 126.9238
1164.287, 73.83789
1165.376, 226.9775
1166.465, 18.76562
1167.553, 278.8135
1168.642, 151.8926
1169.730, 84.91504
1170.818, 210.1465
1171.906, 194.3516
1172.994, 141.5703
1174.082, 209.3330
1175.170, 181.6211
1176.257, 258.7529
1177.344, 303.4922
1178.431, 338.0088
1179.518, 266.4561
1180.605, 321.1768
1181.691, 232.6230
1182.778, 341.5820
1183.864, 248.1416
1184.950, 228.6924
1186.036, 435.4199
1187.122, 310.9971
1188.207, 355.7852
1189.292, 369.4727
1190.378, 189.0215
1191.463, 404.3525
1192.548, 260.0146
1193.632, 356.9199
1194.717, 367.5420
1195.801, 298.3115
1196.886, 414.5518
1197.970, 324.2227
1199.054, 351.1328
1200.137, 264.3291
1201.221, 272.2734
1202.305, 230.3652
1203.388, 275.6436
1204.471, 230.5977
1205.554, 220.4521
1206.637, 266.1045
1207.719, 170.1123
1208.802, 224.0371
1209.884, 330.4209
1210.966, 351.3799
1212.048, 305.2266
1213.130, 175.8047
1214.212, 23.42090
1215.293, 327.3047
1216.374, 123.6182
1217.456, 249.5059
1218.536, 81.40332
1219.617, 121.3086
1220.698, 179.2227
1221.778, 73.21191
1222.859, 13.14062
1223.939, 90.86230
1225.019, 141.0469
1226.099, 62.41992
1227.178, 91.34180
1228.258, 93.26953
1229.337, 58.58301
1230.417, 30.14355
1231.496, 47.08984
1232.574, 51.04199
1233.653, 93.99902
1234.732, 39.03809
1235.810, 75.08984
1236.888, 65.17090
1237.966, 122.7256
1239.044, 135.6504
1240.122, 123.5762
1241.199, 38.50879
1242.277, 72.44629
1243.354, 36.07129
1244.431, 129.3662
1245.508, 45.35059
1246.585, 101.3652
1247.661, 176.3584
1248.738, 227.3535
1249.814, 87.34961
1250.890, 90.34961
1251.966, 66.65137
1253.042, 89.31152
1254.117, 82.27344
1255.193, 258.2383
1256.268, 194.2051
1257.343, 2.167969
1258.418, 240.1201
1259.493, 173.0684
1260.567, 166.0107
1261.642, 188.9473
1262.716, 134.8799
1263.790, 135.8232
1264.864, 139.5010
1265.938, 120.0312
1267.011, 139.2295
1268.085, 185.0869
1269.158, 165.4619
1270.231, 153.3418
1271.304, 108.2842
1272.377, 89.39160
1273.450, 69.88672
1274.522, 52.60547
1275.594, 17.08984
1276.666, 57.93359
1277.738, 12.95117
1278.810, 201.7344
1279.882, 362.4932
1280.953, 234.2559
1282.025, 55.73438
1283.096, 346.5508
1284.167, 94.27344
1285.238, 47.98047
1286.308, 99.73633
1287.379, 61.41406
1288.449, 69.92480
1289.519, 73.87891
1290.589, 135.5479
1291.659, 13.29004
1292.729, 141.2734
1293.798, 15.73340
1294.868, 24.45703
1295.937, 73.09082
1297.006, 159.4736
1298.075, 39.33887
1299.143, 25.21680
1300.212, 55.15137
1301.280, 64.84082
1302.348, 45.18945
1303.416, 67.71094
1304.484, 16.41309
1305.552, 56.59180
1306.620, 19.84961
1307.687, 15.83105
1308.754, 16.53027
1309.821, 2.952148
1310.888, 31.24316
1311.955, 43.05957
1313.021, 82.51172
1314.088, 74.93652
1315.154, 48.33789
1316.220, 2.703125
1317.286, 86.01270
1318.352, 139.2949
1319.417, 34.44727
1320.483, 108.7354
1321.548, 25.89062
1322.613, 195.9941
1323.678, 58.07520
1324.743, 11.88672
1325.807, 252.1104
1326.872, 100.0820
1327.936, 87.01953
1329.000, 103.8994
1330.064, 58.75293
1331.128, 29.57715
1332.191, 113.3662
1333.255, 42.11133
1334.318, 26.17676
1335.381, 69.48926
1336.444, 138.1279
1337.507, 97.74414
1338.569, 140.1543
1339.632, 238.9014
1340.694, 94.44531
1341.756, 87.96484
1342.818, 10.64355
1343.880, 113.0967
1344.941, 227.5244
1346.003, 279.9277
1347.064, 277.3086
1348.125, 201.6650
1349.186, 174.9961
1350.247, 197.3018
1351.308, 180.5820
1352.368, 249.9990
1353.428, 121.2275
1354.489, 235.4287
1355.549, 213.6035
1356.608, 396.7520
1357.668, 376.3330
1358.727, 375.5791
1359.787, 436.7803
1360.846, 246.9502
1361.905, 346.2881
1362.964, 280.4072
1364.022, 420.0811
1365.081, 263.2637
1366.139, 477.1748
1367.197, 419.0293
1368.255, 535.8770
1369.313, 359.1104
1370.371, 271.4209
1371.428, 318.9854
1372.486, 512.8379
1373.543, 230.3223
1374.600, 379.3047
1375.657, 416.2285
1376.713, 328.1562
1377.770, 394.9287
1378.826, 619.7236
1379.882, 388.8418
1380.938, 550.8340
1381.994, 333.9561
1383.050, 375.4629
1384.106, 462.2764
1385.161, 464.5449
1386.216, 330.2461
1387.271, 447.7773
1388.326, 393.3232
1389.381, 505.1689
1390.435, 415.7002
1391.490, 434.9590
1392.544, 374.3516
1393.598, 485.5195
1394.652, 456.6875
1395.705, 355.4111
1396.759, 506.8496
1397.812, 344.9404
1398.866, 298.1582
1399.919, 476.2285
1400.972, 399.4180
1402.024, 423.6016
1403.077, 153.5723
1404.129, 220.5635
1405.181, 412.9805
1406.233, 156.5117
1407.285, 399.3828
1408.337, 277.1514
1409.389, 256.8848
1410.440, 400.6426
1411.491, 280.1455
1412.542, 263.6221
1413.593, 303.0391
1414.644, 306.4023
1415.695, 224.5264
1416.745, 326.7607
1417.795, 182.4941
1418.845, 307.3857
1419.895, 205.5078
1420.945, 333.3916
1421.995, 174.6143
1423.044, 209.5449
1424.093, 351.4258
1425.142, 346.3408
1426.191, 286.0127
1427.240, 321.6582
1428.289, 339.2441
1429.337, 526.2588
1430.385, 466.7168
1431.433, 328.3057
1432.481, 346.2607
1433.529, 550.4141
1434.577, 292.6094
1435.624, 485.7568
1436.672, 431.6494
1437.719, 313.2520
1438.766, 439.2275
1439.812, 524.1924
1440.859, 672.6807
1441.905, 539.5957
1442.952, 649.2666
1443.998, 538.1357
1445.044, 622.9180
1446.090, 630.5479
1447.135, 678.0654
1448.181, 753.5547
1449.226, 673.4170
1450.271, 667.7070
1451.316, 790.8379
1452.361, 839.0156
1453.405, 712.9297
1454.450, 700.2529
1455.494, 608.4199
1456.538, 635.1982
1457.582, 735.8779
1458.626, 644.0908
1459.670, 619.9355
1460.713, 696.2070
1461.757, 683.3545
1462.800, 550.4600
1463.843, 561.1025
1464.886, 449.2148
1465.928, 514.2793
1466.971, 411.2900
1468.013, 625.2480
1469.055, 523.1943
1470.097, 452.1104
1471.139, 280.9414
1472.181, 257.7061
1473.222, 305.3291
1474.263, 202.8398
1475.305, 266.9287
1476.346, 376.7266
1477.386, 362.1182
1478.427, 395.3682
1479.468, 292.6738
1480.508, 324.8633
1481.548, 284.9873
1482.588, 127.0459
1483.628, 119.0459
1484.668, 163.9844
1485.707, 163.8535
1486.747, 116.6592
1487.786, 225.4004
1488.825, 120.7227
1489.864, 101.2891
1490.902, 62.20508
1491.941, 228.1094
1492.979, 39.38574
1494.017, 92.69824
1495.055, 12.69434
1496.093, 77.47656
1497.131, 3.268555
1498.168, 2.484375
1499.206, 104.0566
1500.243, 110.7334
1501.280, 102.4658
1502.317, 22.24414
1503.354, 120.1611
1504.390, 75.16504
1505.426, 77.25781
1506.463, 3.378906
1507.499, 27.67969
1508.535, 88.68750
1509.570, 63.92578
1510.606, 98.25000
1511.641, 132.6201
1512.676, 123.1816
1513.711, 69.47656
1514.746, 115.0146
1515.781, 175.5850
1516.816, 138.1807
1517.850, 230.7441
1518.884, 182.4990
1519.918, 68.80469
1520.952, 108.2920
1521.986, 192.7529
1523.019, 153.1924
1524.053, 184.0811
1525.086, 150.0400
1526.119, 148.4551
1527.152, 100.8740
1528.185, 30.65723
1529.217, 163.2158
1530.250, 66.65527
1531.282, 217.9980
1532.314, 400.7549
1533.346, 316.1133
1534.377, 112.6084
1535.409, 167.4580
1536.440, 140.7275
1537.472, 138.6250
1538.503, 234.4795
1539.534, 225.3320
1540.564, 256.1885
1541.595, 327.5820
1542.625, 303.6309
1543.656, 336.4092
1544.686, 258.6982
1545.716, 349.4844
1546.745, 313.4297
1547.775, 310.5283
1548.804, 354.8789
1549.834, 348.5586
1550.863, 310.8193
1551.892, 361.8730
1552.920, 334.8574
1553.949, 338.9023
1554.977, 314.2109
1556.006, 340.9473
1557.034, 250.1768
1558.062, 234.2480
1559.089, 239.0117
1560.117, 281.7109
1561.144, 136.3301
1562.172, 143.9219
1563.199, 92.06055
1564.226, 5.521484
1565.252, 85.16602
1566.279, 179.3789
1567.305, 65.39844
1568.332, 180.5879
1569.358, 0.3242190
1570.384, 83.40820
1571.409, 0.0000000E+00
##END=



