##NAMES=Andalusite
##RRUFFID=R050626
##IDEAL CHEMISTRY=Al_2_SiO_5_
##LOCALITY=Minas Gerais, Brazil
##OWNER=RRUFF
##SOURCE=Gemological Center
##DESCRIPTION=Grayish brown fragment
##STATUS=The identification of this mineral has been confirmed by X-ray diffraction and chemical analysis
##URL=rruff.info/R050626
##MEASURED CHEMISTRY=(Al_1.99_Fe^3+^_0.01_)_Î£=1_Si_1.00_O_5_
##PIN_ID=L00621
##ORIENTATION=Laser parallel to -c* (0 0 -1). Fiducial mark perpendicular to laser is parallel to -a [-1 0 0]
132.8980, 0.0000000E+00
134.1270, 120.6665
135.3560, 1.224609
136.5850, 58.45166
137.8140, 125.6519
139.0430, 288.9546
140.2710, 459.5361
141.5000, 318.2539
142.7280, 100.2388
143.9560, 7.878418
145.1840, 58.34766
146.4120, 70.17383
147.6390, 223.1904
148.8670, 163.3145
150.0940, 36.40186
151.3210, 151.3740
152.5490, 351.7202
153.7750, 246.4844
155.0020, 164.9224
156.2290, 47.45215
157.4550, 58.04199
158.6810, 25.57324
159.9080, 7.212402
161.1340, 73.76562
162.3590, 109.3330
163.5850, 257.0205
164.8110, 402.2354
166.0360, 592.0449
167.2610, 531.5059
168.4860, 588.6680
169.7110, 455.5732
170.9360, 572.3057
172.1610, 505.7109
173.3850, 452.9336
174.6100, 463.0781
175.8340, 511.3359
177.0580, 643.4990
178.2820, 496.3184
179.5050, 635.0391
180.7290, 615.1143
181.9520, 707.3154
183.1760, 704.6401
184.3990, 736.0820
185.6220, 808.6396
186.8450, 929.1562
188.0670, 1141.086
189.2900, 1251.968
190.5120, 1477.954
191.7340, 1658.042
192.9560, 1640.225
194.1780, 1725.496
195.4000, 1817.859
196.6220, 1802.311
197.8430, 1676.852
199.0640, 1512.480
200.2860, 1615.196
201.5070, 1753.997
202.7270, 1823.883
203.9480, 1461.854
205.1690, 846.9082
206.3890, 337.0518
207.6090, 134.2695
208.8290, 14.44922
210.0490, 83.09619
211.2690, 3.328125
212.4890, 112.8159
213.7080, 47.37207
214.9280, 101.9941
216.1470, 116.6826
217.3660, 116.5659
218.5850, 15.75342
219.8030, 110.8862
221.0220, 93.96484
222.2400, 136.9883
223.4590, 75.04346
224.6770, 48.87305
225.8950, 119.2617
227.1120, 112.4429
228.3300, 299.6670
229.5480, 485.9834
230.7650, 725.3340
231.9820, 966.7197
233.1990, 1478.141
234.4160, 2051.626
235.6330, 2846.147
236.8490, 3951.706
238.0660, 4722.302
239.2820, 5333.939
240.4980, 5428.613
241.7140, 5280.328
242.9300, 4713.094
244.1460, 4211.906
245.3610, 3520.671
246.5770, 3076.548
247.7920, 2600.571
249.0070, 2356.612
250.2220, 2038.574
251.4370, 2113.469
252.6510, 1957.388
253.8660, 1903.360
255.0800, 1798.380
256.2940, 1770.473
257.5080, 1867.616
258.7220, 2059.807
259.9360, 2035.335
261.1490, 2114.210
262.3630, 2148.661
263.5760, 2192.039
264.7890, 2333.465
266.0020, 2480.935
267.2150, 2634.452
268.4270, 2857.016
269.6400, 3055.626
270.8520, 3520.281
272.0640, 3681.984
273.2760, 4279.734
274.4880, 5036.528
275.7000, 5846.369
276.9120, 6798.256
278.1230, 8386.189
279.3340, 10205.11
280.5450, 12776.11
281.7560, 16257.18
282.9670, 20585.11
284.1780, 25822.21
285.3880, 31008.30
286.5980, 37769.42
287.8090, 46105.59
289.0190, 54064.78
290.2290, 56989.56
291.4380, 56976.79
292.6480, 56143.05
293.8570, 48915.32
295.0670, 39931.59
296.2760, 31167.88
297.4850, 23429.19
298.6930, 17233.53
299.9020, 12699.88
301.1110, 9887.216
302.3190, 6697.551
303.5270, 5457.877
304.7350, 4533.098
305.9430, 3943.162
307.1510, 3559.496
308.3580, 3584.840
309.5660, 3894.193
310.7730, 4685.561
311.9800, 5978.945
313.1870, 7390.346
314.3940, 9262.766
315.6010, 11707.20
316.8070, 15481.62
318.0130, 19780.94
319.2200, 23369.28
320.4260, 24378.65
321.6310, 22915.90
322.8370, 19791.99
324.0430, 16470.09
325.2480, 12719.08
326.4540, 9638.112
327.6590, 6965.220
328.8640, 5651.336
330.0680, 4518.495
331.2730, 3721.693
332.4780, 3227.934
333.6820, 3049.217
334.8860, 2821.537
336.0900, 2531.895
337.2940, 2544.293
338.4980, 2587.728
339.7010, 2661.202
340.9050, 2816.714
342.1080, 3299.266
343.3110, 3725.852
344.5140, 4761.478
345.7170, 5732.140
346.9200, 7333.839
348.1220, 9447.574
349.3240, 11949.35
350.5270, 15215.71
351.7290, 19346.56
352.9310, 24026.16
354.1320, 29256.69
355.3340, 35044.15
356.5350, 39443.81
357.7370, 41032.79
358.9380, 40228.11
360.1390, 36942.14
361.3400, 32235.53
362.5400, 27082.51
363.7410, 21807.35
364.9410, 17397.97
366.1410, 13717.77
367.3410, 10933.65
368.5410, 8718.688
369.7410, 7014.672
370.9400, 5901.146
372.1400, 4869.578
373.3390, 4172.043
374.5380, 3656.541
375.7370, 3169.072
376.9360, 2772.057
378.1350, 2758.654
379.3330, 2653.282
380.5310, 2628.354
381.7300, 2452.052
382.9280, 2367.262
384.1260, 2425.543
385.3230, 2154.337
386.5210, 2020.160
387.7180, 1977.017
388.9160, 1636.905
390.1130, 1678.825
391.3100, 1742.775
392.5060, 1588.757
393.7030, 1448.771
394.9000, 1365.812
396.0960, 1408.886
397.2920, 1382.991
398.4880, 1217.127
399.6840, 1264.595
400.8800, 1194.833
402.0750, 1248.722
403.2710, 1135.981
404.4660, 1163.271
405.6610, 1120.590
406.8560, 1027.938
408.0510, 1067.316
409.2450, 899.7236
410.4400, 889.9912
411.6340, 736.6279
412.8280, 793.1250
414.0220, 633.6475
415.2160, 576.2012
416.4100, 541.7822
417.6030, 472.3936
418.7970, 331.0303
419.9900, 283.6963
421.1830, 369.3906
422.3760, 378.1123
423.5690, 238.8594
424.7610, 353.6338
425.9540, 371.4404
427.1460, 168.2754
428.3380, 137.1387
429.5300, 95.03027
430.7220, 122.9502
431.9140, 172.8965
433.1050, 152.8721
434.2970, 45.87598
435.4880, 139.0371
436.6790, 84.76660
437.8700, 150.0537
439.0610, 198.1670
440.2510, 237.5889
441.4420, 298.4766
442.6320, 431.6719
443.8220, 499.8936
445.0120, 714.1436
446.2020, 832.4199
447.3910, 1130.732
448.5810, 1853.071
449.7700, 2225.443
450.9600, 2575.842
452.1490, 2195.287
453.3370, 1837.762
454.5260, 1240.264
455.7150, 1006.811
456.9030, 508.3848
458.0910, 426.9902
459.2800, 228.6318
460.4670, 97.32031
461.6550, 78.06934
462.8430, 16.87793
464.0300, 7.761719
465.2180, 88.70215
466.4050, 105.3086
467.5920, 27.67676
468.7790, 152.7002
469.9650, 0.7607420
471.1520, 36.84961
472.3380, 117.9678
473.5250, 97.11426
474.7110, 27.28711
475.8970, 57.51172
477.0820, 9.698242
478.2680, 137.9346
479.4540, 111.2090
480.6390, 208.5205
481.8240, 154.8809
483.0090, 139.2754
484.1940, 217.7295
485.3780, 150.2295
486.5630, 85.75879
487.7470, 51.33691
488.9320, 172.9541
490.1160, 76.59668
491.3000, 85.30957
492.4830, 17.91309
493.6670, 3.912109
494.8500, 47.23633
496.0340, 51.65430
497.2170, 1.410156
498.4000, 22.41211
499.5820, 94.39355
500.7650, 100.3740
501.9480, 113.3291
503.1300, 99.32227
504.3120, 93.33105
505.4940, 36.30859
506.6760, 22.73047
507.8580, 62.83984
509.0390, 17.99414
510.2210, 43.76758
511.4020, 23.49414
512.5830, 28.20898
513.7640, 24.09863
514.9450, 14.42578
516.1250, 82.77539
517.3060, 24.14551
518.4860, 57.46582
519.6660, 9.920898
520.8460, 76.32812
522.0260, 9.153320
523.2060, 13.89355
524.3850, 73.35254
525.5650, 19.83105
526.7440, 87.32812
527.9230, 71.84473
529.1020, 86.37891
530.2810, 80.93066
531.4590, 177.5010
532.6380, 179.0879
533.8160, 395.6934
534.9940, 263.3154
536.1720, 355.9561
537.3500, 536.6113
538.5270, 719.2842
539.7050, 782.9736
540.8820, 1052.679
542.0590, 1207.762
543.2360, 1469.139
544.4130, 1822.892
545.5900, 2208.659
546.7660, 2978.443
547.9430, 3372.242
549.1190, 3897.056
550.2950, 4449.884
551.4710, 4455.727
552.6470, 4344.585
553.8220, 3931.455
554.9980, 3451.339
556.1730, 2999.238
557.3480, 2536.148
558.5230, 2129.074
559.6980, 1984.400
560.8730, 1806.412
562.0470, 1881.925
563.2220, 1815.900
564.3960, 1920.889
565.5700, 2099.888
566.7440, 2382.900
567.9170, 2641.923
569.0910, 3054.957
570.2640, 3358.002
571.4380, 3596.059
572.6110, 3569.127
573.7840, 3204.204
574.9570, 2895.293
576.1290, 2377.396
577.3020, 1992.508
578.4740, 1582.631
579.6460, 1368.764
580.8180, 917.9062
581.9900, 764.0576
583.1620, 585.2197
584.3330, 650.3906
585.5040, 417.5693
586.6760, 460.7568
587.8470, 361.5850
589.0180, 408.7881
590.1880, 395.5703
591.3590, 282.7900
592.5290, 263.8291
593.7000, 438.0625
594.8700, 325.3008
596.0400, 389.6670
597.2090, 321.9170
598.3790, 359.2188
599.5490, 312.1758
600.7180, 277.0547
601.8870, 275.6416
603.0560, 219.6309
604.2250, 406.6367
605.3940, 250.8115
606.5620, 424.6621
607.7300, 241.5166
608.8990, 251.8096
610.0670, 223.1045
611.2350, 387.4424
612.4020, 284.7305
613.5700, 332.0205
614.7370, 409.3096
615.9050, 401.5986
617.0720, 486.7139
618.2390, 583.3506
619.4060, 617.6191
620.5720, 712.0771
621.7390, 773.2988
622.9050, 942.1484
624.0710, 1076.031
625.2370, 1224.664
626.4030, 1422.805
627.5690, 1482.157
628.7340, 1553.268
629.9000, 1352.648
631.0650, 1171.452
632.2300, 1095.394
633.3950, 820.9834
634.5600, 664.7363
635.7240, 563.4053
636.8890, 385.5889
638.0530, 339.1807
639.2170, 313.6221
640.3810, 376.4473
641.5450, 378.4092
642.7080, 411.3389
643.8720, 500.2734
645.0350, 491.1328
646.1980, 453.8643
647.3610, 293.2559
648.5240, 358.7139
649.6870, 264.6123
650.8490, 306.3369
652.0120, 410.4580
653.1740, 175.4941
654.3360, 359.5977
655.4980, 126.6895
656.6600, 151.7705
657.8210, 176.8418
658.9830, 156.4814
660.1440, 250.5293
661.3050, 74.56738
662.4660, 50.18262
663.6270, 151.1904
664.7870, 133.1875
665.9480, 121.1738
667.1080, 174.1475
668.2680, 165.1104
669.4280, 199.0605
670.5880, 306.0000
671.7480, 243.2070
672.9070, 124.8418
674.0670, 174.7451
675.2260, 240.6357
676.3850, 212.5137
677.5440, 251.3799
678.7030, 188.2334
679.8610, 204.0742
681.0200, 294.9023
682.1780, 129.7178
683.3360, 264.5195
684.4940, 363.3086
685.6520, 203.0840
686.8090, 346.8477
687.9670, 289.5967
689.1240, 253.3330
690.2810, 289.0576
691.4380, 206.7656
692.5950, 352.4619
693.7520, 336.1445
694.9080, 277.8125
696.0650, 240.4668
697.2210, 255.1074
698.3770, 247.7344
699.5330, 227.5879
700.6880, 210.9463
701.8440, 218.5303
702.9990, 211.1006
704.1550, 253.6572
705.3100, 309.1992
706.4650, 330.7275
707.6190, 413.2402
708.7740, 476.7383
709.9290, 375.2227
711.0830, 527.6924
712.2370, 448.1475
713.3910, 602.5879
714.5450, 859.8105
715.6980, 614.2217
716.8520, 670.6182
718.0050, 651.9990
719.1580, 547.5381
720.3110, 459.0117
721.4640, 297.3477
722.6170, 335.6689
723.7700, 362.9766
724.9220, 242.2676
726.0740, 21.54297
727.2260, 164.7891
728.3780, 56.01855
729.5300, 113.2285
730.6810, 33.57812
731.8330, 164.5586
732.9840, 181.6777
734.1350, 23.21680
735.2860, 105.8359
736.4370, 34.87402
737.5880, 16.88574
738.7380, 32.13281
739.8880, 75.54980
741.0390, 82.22559
742.1890, 130.6035
743.3380, 69.94922
744.4880, 33.37012
745.6380, 44.15234
746.7870, 6.671875
747.9360, 6.156250
749.0850, 80.60645
750.2340, 105.0400
751.3830, 113.3301
752.5310, 124.6260
753.6800, 125.2578
754.8280, 75.63379
755.9760, 75.00488
757.1240, 2.360352
758.2720, 1.319336
759.4190, 45.98340
760.5670, 8.193359
761.7140, 89.60938
762.8610, 38.49414
764.0080, 23.56934
765.1550, 51.39160
766.3020, 16.41016
767.4480, 61.53027
768.5950, 140.5439
769.7410, 111.7236
770.8870, 83.99316
772.0330, 29.66699
773.1780, 89.69043
774.3240, 7.116211
775.4690, 16.57324
776.6140, 74.93457
777.7590, 99.56543
778.9040, 56.87402
780.0490, 13.32031
781.1940, 122.7686
782.3380, 7.775391
783.4820, 105.6699
784.6260, 34.88867
785.7700, 4.487305
786.9140, 7.113281
788.0580, 87.75879
789.2010, 102.5361
790.3450, 85.82129
791.4880, 43.10156
792.6310, 52.37109
793.7730, 91.63086
794.9160, 93.88086
796.0590, 134.4912
797.2010, 121.3623
798.3430, 161.5957
799.4850, 133.7266
800.6270, 40.33789
801.7690, 328.5469
802.9100, 228.7471
804.0520, 150.9404
805.1930, 432.1250
806.3340, 506.3018
807.4750, 396.4727
808.6160, 194.6348
809.7560, 308.7900
810.8970, 279.9385
812.0370, 207.0820
813.1770, 235.2178
814.3170, 238.3477
815.4570, 266.4717
816.5960, 263.5889
817.7360, 416.7012
818.8750, 84.80762
820.0140, 273.9092
821.1530, 163.0059
822.2920, 266.0977
823.4310, 314.1855
824.5690, 259.2686
825.7070, 326.3467
826.8460, 335.4209
827.9840, 341.4922
829.1220, 306.5605
830.2590, 383.6260
831.3970, 335.6865
832.5340, 337.7451
833.6710, 485.8018
834.8080, 442.8535
835.9450, 324.9053
837.0820, 427.9541
838.2190, 393.0010
839.3550, 265.0449
840.4910, 379.0898
841.6270, 153.1318
842.7630, 215.1729
843.8990, 188.2129
845.0350, 48.25195
846.1700, 104.2900
847.3060, 141.3281
848.4410, 44.36816
849.5760, 34.40625
850.7100, 42.55566
851.8450, 109.4756
852.9800, 101.5088
854.1140, 61.54004
855.2480, 15.42578
856.3820, 11.39160
857.5160, 79.63965
858.6500, 27.67578
859.7830, 92.71191
860.9170, 170.7500
862.0500, 57.79199
863.1830, 99.20215
864.3160, 66.24902
865.4480, 62.72656
866.5810, 124.7803
867.7130, 92.03320
868.8460, 108.7031
869.9780, 120.1787
871.1100, 116.1445
872.2410, 66.24023
873.3730, 94.58691
874.5050, 123.5996
875.6360, 154.2119
876.7670, 240.0146
877.8980, 222.4268
879.0290, 315.8340
880.1590, 205.0840
881.2900, 204.6709
882.4200, 377.1621
883.5500, 557.3301
884.6800, 431.5107
885.8100, 674.6250
886.9400, 733.8311
888.0690, 883.0488
889.1990, 736.2773
890.3280, 935.5166
891.4570, 933.6797
892.5860, 1083.854
893.7140, 1211.148
894.8430, 1399.267
895.9710, 1588.543
897.1000, 1862.383
898.2280, 2057.117
899.3560, 2285.112
900.4830, 2613.611
901.6110, 3030.855
902.7380, 3538.501
903.8660, 4118.816
904.9930, 4710.722
906.1200, 5484.499
907.2460, 6529.085
908.3730, 8077.072
909.5000, 9961.441
910.6260, 12534.06
911.7520, 15710.20
912.8780, 20145.82
914.0040, 25593.91
915.1290, 31558.54
916.2550, 38352.55
917.3800, 44015.25
918.5050, 46259.35
919.6300, 45418.15
920.7550, 40334.82
921.8800, 33579.34
923.0040, 26512.79
924.1290, 20504.38
925.2530, 16107.28
926.3770, 12582.21
927.5010, 10676.16
928.6250, 8949.132
929.7480, 7804.137
930.8720, 7175.164
931.9950, 6900.215
933.1180, 6732.311
934.2410, 6761.895
935.3640, 7002.619
936.4860, 7457.818
937.6090, 8145.060
938.7310, 9055.361
939.8530, 10378.69
940.9750, 12143.04
942.0970, 14362.42
943.2180, 17200.82
944.3400, 21210.25
945.4610, 25484.72
946.5820, 30686.21
947.7030, 35453.73
948.8240, 39851.30
949.9450, 42406.89
951.0650, 42314.52
952.1860, 39543.20
953.3060, 35493.90
954.4260, 29872.61
955.5460, 24584.36
956.6650, 20155.14
957.7850, 15976.93
958.9040, 12804.76
960.0230, 10347.63
961.1420, 8681.531
962.2610, 7190.541
963.3800, 5860.492
964.4990, 4991.479
965.6170, 4191.495
966.7350, 3645.536
967.8530, 3265.614
968.9710, 2685.719
970.0890, 2481.851
971.2070, 2242.011
972.3240, 1902.199
973.4410, 1752.415
974.5580, 1589.790
975.6750, 1473.932
976.7920, 1405.232
977.9090, 1276.561
979.0250, 1228.916
980.1410, 1045.302
981.2580, 866.7148
982.3740, 991.1729
983.4890, 799.6592
984.6050, 720.1738
985.7200, 707.9199
986.8360, 686.4932
987.9510, 554.0928
989.0660, 551.7227
990.1810, 530.2090
991.2950, 486.0449
992.4100, 485.8223
993.5240, 476.2393
994.6390, 464.0156
995.7530, 493.8223
996.8660, 492.2588
997.9800, 406.5332
999.0940, 449.4365
1000.207, 448.3740
1001.320, 443.3838
1002.433, 473.4033
1003.546, 452.8301
1004.659, 473.8730
1005.772, 391.0410
1006.884, 469.1982
1007.996, 352.3887
1009.108, 488.6172
1010.220, 540.8975
1011.332, 673.2383
1012.444, 684.6436
1013.555, 811.1250
1014.666, 911.6553
1015.777, 1070.247
1016.888, 1334.873
1017.999, 1502.538
1019.110, 1330.243
1020.220, 1398.979
1021.331, 1279.745
1022.441, 1300.540
1023.551, 1035.364
1024.661, 918.2188
1025.770, 932.1035
1026.880, 720.0186
1027.989, 668.9736
1029.098, 568.2812
1030.207, 556.3281
1031.316, 480.5449
1032.425, 397.6924
1033.533, 617.8877
1034.642, 360.8389
1035.750, 671.2334
1036.858, 712.5586
1037.966, 497.9131
1039.073, 560.3438
1040.181, 527.8418
1041.288, 422.7275
1042.396, 484.3164
1043.503, 541.1260
1044.610, 575.8115
1045.716, 688.9082
1046.823, 830.6650
1047.929, 690.4824
1049.036, 927.3271
1050.142, 963.2041
1051.248, 1153.357
1052.353, 1359.849
1053.459, 1568.302
1054.564, 1886.334
1055.670, 2153.377
1056.775, 2807.736
1057.880, 3325.867
1058.985, 4207.025
1060.089, 5276.209
1061.194, 6750.421
1062.298, 7439.266
1063.402, 8706.531
1064.506, 9066.819
1065.610, 8574.059
1066.713, 7590.748
1067.817, 6501.291
1068.920, 5221.682
1070.023, 4094.229
1071.126, 3123.958
1072.229, 2454.422
1073.332, 1776.910
1074.435, 1585.421
1075.537, 1207.955
1076.639, 1035.540
1077.741, 803.8418
1078.843, 688.4814
1079.945, 656.1084
1081.046, 459.9111
1082.148, 536.5820
1083.249, 415.4170
1084.350, 306.1318
1085.451, 119.8662
1086.551, 158.8691
1087.652, 228.6475
1088.752, 218.4473
1089.853, 106.2666
1090.953, 44.10840
1092.053, 19.21777
1093.152, 173.9395
1094.252, 9.158203
1095.351, 82.76367
1096.451, 165.3125
1097.550, 143.2754
1098.649, 78.25488
1099.748, 84.07227
1100.846, 214.0918
1101.945, 291.1289
1103.043, 292.1855
1104.141, 330.2617
1105.239, 379.3555
1106.337, 344.4668
1107.434, 478.5977
1108.532, 569.7480
1109.629, 518.9131
1110.726, 512.0986
1111.823, 574.3408
1112.920, 413.5605
1114.017, 481.0518
1115.113, 333.3057
1116.210, 448.5762
1117.306, 488.8623
1118.402, 715.1719
1119.498, 741.4980
1120.593, 804.8398
1121.689, 871.1982
1122.784, 983.5742
1123.879, 856.9658
1124.974, 1003.373
1126.069, 779.7969
1127.164, 867.2334
1128.259, 576.6865
1129.353, 273.1543
1130.447, 254.6357
1131.541, 200.4619
1132.635, 68.02734
1133.729, 13.47754
1134.822, 94.99707
1135.916, 49.47168
1137.009, 40.93848
1138.102, 200.5977
1139.195, 177.1455
1140.288, 293.7080
1141.380, 133.2812
1142.473, 122.8672
1143.565, 12.46582
1144.657, 128.0830
1145.749, 35.28906
1146.841, 186.3408
1147.932, 140.1582
1149.024, 113.8105
1150.115, 16.47266
1151.206, 100.1445
1152.297, 143.8311
1153.388, 102.5273
1154.479, 127.2344
1155.569, 59.95020
1156.659, 103.6748
1157.750, 100.4082
1158.839, 9.152344
1159.929, 10.09277
1161.019, 13.67480
1162.108, 29.54883
1163.198, 91.22559
1164.287, 29.52539
1165.376, 77.19531
1166.465, 26.42383
1167.553, 38.34277
1168.642, 8.137695
1169.730, 17.94629
1170.818, 28.76270
1171.906, 5.394531
1172.994, 105.4492
1174.082, 145.7021
1175.170, 79.08203
1176.257, 44.13086
1177.344, 69.63965
1178.431, 54.41504
1179.518, 27.19629
1180.605, 37.03125
1181.691, 140.2266
1182.778, 24.50293
1183.864, 2.791992
1184.950, 13.08301
1186.036, 140.6172
1187.122, 3.319336
1188.207, 37.01855
1189.292, 93.72070
1190.378, 67.44141
1191.463, 91.82422
1192.548, 19.11230
1193.632, 52.59668
1194.717, 20.30762
1195.801, 73.97949
1196.886, 46.31152
1197.970, 42.66895
1199.054, 136.9434
1200.137, 40.44336
1201.221, 140.8584
1202.305, 34.64453
1203.388, 33.14844
1204.471, 85.65234
1205.554, 32.15527
1206.637, 0.3437500
1207.719, 28.85254
1208.802, 26.61426
1209.884, 49.07812
1210.966, 51.45996
1212.048, 86.96387
1213.130, 82.61328
1214.212, 62.75488
1215.293, 92.12109
1216.374, 23.48535
1217.456, 82.85645
1218.536, 106.2256
1219.617, 67.59863
1220.698, 144.9844
1221.778, 44.63379
1222.859, 205.7100
1223.939, 85.04980
1225.019, 159.3018
1226.099, 0.3642580
1227.178, 94.95117
1228.258, 55.26465
1229.337, 2.426758
1230.417, 181.8633
1231.496, 120.1504
1232.574, 114.4336
1233.653, 142.7129
1234.732, 86.98828
1235.810, 77.25879
1236.888, 150.5254
1237.966, 57.78711
1239.044, 150.0439
1240.122, 162.2959
1241.199, 50.54297
1242.277, 203.7852
1243.354, 19.97949
1244.431, 171.2217
1245.508, 167.4180
1246.585, 163.6094
1247.661, 191.1807
1248.738, 182.8691
1249.814, 138.7100
1250.890, 200.8750
1251.966, 99.03418
1253.042, 126.1855
1254.117, 100.3320
1255.193, 174.4697
1256.268, 98.60156
1257.343, 166.7266
1258.418, 191.8438
1259.493, 101.9541
1260.567, 50.05664
1261.642, 144.1484
1262.716, 179.1885
1263.790, 198.2637
1264.864, 236.0498
1265.938, 234.6240
1267.011, 253.1826
1268.085, 227.2256
1269.158, 222.8809
1270.231, 213.2871
1271.304, 139.3066
1272.377, 187.3164
1273.450, 143.1055
1274.522, 204.0996
1275.594, 347.0957
1276.666, 62.26855
1277.738, 319.2324
1278.810, 130.1865
1279.882, 187.2266
1280.953, 270.1318
1282.025, 197.0576
1283.096, 224.3682
1284.167, 323.2783
1285.238, 160.1787
1286.308, 226.2539
1287.379, 231.1377
1288.449, 253.6768
1289.519, 268.0811
1290.589, 295.0508
1291.659, 334.0811
1292.729, 335.9121
1293.798, 345.2402
1294.868, 324.3301
1295.937, 234.1465
1297.006, 281.4746
1298.075, 243.3115
1299.143, 445.4561
1300.212, 277.1035
1301.280, 344.5156
1302.348, 251.4922
1303.416, 396.0498
1304.484, 305.8486
1305.552, 436.2412
1306.620, 382.3271
1307.687, 361.6045
1308.754, 374.2656
1309.821, 320.6045
1310.888, 338.3213
1311.955, 333.3945
1313.021, 243.5244
1314.088, 447.1025
1315.154, 353.8799
1316.220, 380.0029
1317.286, 374.5762
1318.352, 395.7363
1319.417, 511.8838
1320.483, 575.3662
1321.548, 423.4268
1322.613, 420.3369
1323.678, 161.8359
1324.743, 335.4043
1325.807, 258.0137
1326.872, 385.4482
1327.936, 223.9170
1329.000, 265.2471
1330.064, 328.4111
1331.128, 360.8584
1332.191, 191.4561
1333.255, 262.9053
1334.318, 339.3330
1335.381, 161.1221
1336.444, 285.8154
1337.507, 340.1855
1338.569, 249.5869
1339.632, 322.8271
1340.694, 195.3506
1341.756, 373.8164
1342.818, 204.1914
1343.880, 165.5596
1344.941, 146.5547
1346.003, 127.9102
1347.064, 137.0186
1348.125, 143.6934
1349.186, 104.0293
1350.247, 152.2695
1351.308, 283.5908
1352.368, 108.9053
1353.428, 79.21484
1354.489, 197.9092
1355.549, 268.6201
1356.608, 254.9102
1357.668, 140.3770
1358.727, 183.1172
1359.787, 191.3896
1360.846, 211.6562
1361.905, 142.9062
1362.964, 192.1484
1364.022, 161.3848
1365.081, 139.6074
1366.139, 184.8223
1367.197, 174.0322
1368.255, 187.2334
1369.313, 92.45703
1370.371, 229.6260
1371.428, 169.6221
1372.486, 238.7598
1373.543, 246.8438
1374.600, 38.88184
1375.657, 341.9082
1376.713, 56.92773
1377.770, 235.9355
1378.826, 235.9326
1379.882, 246.9131
1380.938, 333.8857
1381.994, 195.0605
1383.050, 223.0430
1384.106, 145.0830
1385.161, 107.9912
1386.216, 105.8887
1387.271, 99.77539
1388.326, 219.3232
1389.381, 315.1924
1390.435, 158.0615
1391.490, 115.9238
1392.544, 67.77441
1393.598, 121.6211
1394.652, 194.4639
1395.705, 103.4287
1396.759, 132.2217
1397.812, 293.9863
1398.866, 98.70312
1399.919, 3.966797
1400.972, 138.7559
1402.024, 223.4268
1403.077, 62.09082
1404.129, 196.5576
1405.181, 163.1895
1406.233, 77.80859
1407.285, 12.41309
1408.337, 213.0010
1409.389, 43.78711
1410.440, 153.3408
1411.491, 124.9102
1412.542, 65.44141
1413.593, 124.9238
1414.644, 25.43066
1415.695, 6.083008
1416.745, 40.54785
1417.795, 175.0020
1418.845, 177.4492
1419.895, 16.91406
1420.945, 118.6084
1421.995, 75.01953
1423.044, 49.57617
1424.093, 10.21582
1425.142, 45.12402
1426.191, 55.54688
1427.240, 110.7500
1428.289, 60.04004
1429.337, 115.2812
1430.385, 85.54785
1431.433, 91.76953
1432.481, 42.98145
1433.529, 27.89453
1434.577, 108.7012
1435.624, 17.98828
1436.672, 61.12012
1437.719, 154.2812
1438.766, 160.4961
1439.812, 230.6230
1440.859, 359.1123
1441.905, 164.2207
1442.952, 167.2705
1443.998, 44.70996
1445.044, 118.9824
1446.090, 220.6123
1447.135, 74.76758
1448.181, 43.66992
1449.226, 130.5781
1450.271, 255.5361
1451.316, 38.50977
1452.361, 81.57031
1453.405, 156.6191
1454.450, 162.6621
1455.494, 250.7246
1456.538, 195.7969
1457.582, 79.90918
1458.626, 114.0400
1459.670, 265.1396
1460.713, 49.19727
1461.757, 152.2520
1462.800, 183.3174
1463.843, 123.3838
1464.886, 194.4473
1465.928, 90.52051
1466.971, 72.58398
1468.013, 251.6387
1469.055, 261.6875
1470.097, 23.27051
1471.139, 128.7637
1472.181, 5.189453
1473.222, 30.13184
1474.263, 163.4297
1475.305, 164.2471
1476.346, 328.2891
1477.386, 182.3281
1478.427, 173.3643
1479.468, 279.3984
1480.508, 57.43457
1481.548, 134.4746
1482.588, 196.3359
1483.628, 53.37402
1484.668, 349.4131
1485.707, 181.4561
1486.747, 251.8740
1487.786, 174.5918
1488.825, 231.6074
1489.864, 315.0107
1490.902, 194.4102
1491.941, 139.4014
1492.979, 249.1035
1494.017, 117.0547
1495.055, 356.2910
1496.093, 110.1025
1497.131, 227.7832
1498.168, 190.4990
1499.206, 252.1875
1500.243, 232.3936
1501.280, 363.8623
1502.317, 327.1855
1503.354, 253.1797
1504.390, 265.9121
1505.426, 182.5107
1506.463, 74.10840
1507.499, 118.7061
1508.535, 88.79102
1509.570, 124.3252
1510.606, 166.0039
1511.641, 201.4824
1512.676, 247.6172
1513.711, 209.0029
1514.746, 247.0156
1515.781, 266.1523
1516.816, 140.6719
1517.850, 241.8945
1518.884, 266.7559
1519.918, 90.34473
1520.952, 150.3301
1521.986, 115.7891
1523.019, 161.9619
1524.053, 11.45508
1525.086, 97.87402
1526.119, 131.0742
1527.152, 243.2979
1528.185, 151.0986
1529.217, 196.1289
1530.250, 244.0898
1531.282, 112.9902
1532.314, 137.7832
1533.346, 9.708984
1534.377, 103.7188
1535.409, 95.84375
1536.440, 156.0215
1537.472, 5.853516
1538.503, 143.2480
1539.534, 169.3301
1540.564, 61.96875
1541.595, 181.0332
1542.625, 108.0137
1543.656, 51.89062
1544.686, 73.68555
1545.716, 208.7402
1546.745, 155.6992
1547.775, 297.7598
1548.804, 254.7871
1549.834, 168.0527
1550.863, 213.3613
1551.892, 129.7031
1552.920, 130.8281
1553.949, 269.5879
1554.977, 249.0488
1556.006, 156.1113
1557.034, 26.31445
1558.062, 95.37891
1559.089, 60.07617
1560.117, 216.7676
1561.144, 90.08398
1562.172, 75.36523
1563.199, 160.2246
1564.226, 5.933594
1565.252, 85.85742
1566.279, 190.5293
1567.305, 259.3770
1568.332, 305.3906
1569.358, 7.261719
1570.384, 0.0000000E+00
##END=



