##NAMES=Andradite
##RRUFFID=R060358
##IDEAL CHEMISTRY=Ca_3_Fe^3+^_2_(SiO_4_)_3_
##LOCALITY=Soghan, near Jiroft, Kerman, Iran
##OWNER=RRUFF
##SOURCE=Herb Obodda
##DESCRIPTION=Green dodecahedron
##STATUS=The identification of this mineral has been confirmed by X-ray diffraction and chemical analysis
##URL=rruff.info/R060358
##MEASURED CHEMISTRY=Ca_3.00_(Fe^3+^_1.89_Cr_0.11_)_Î£=2_(Si_1.00_O_4_)_3_
##PIN_ID=L01104
##ORIENTATION=Laser parallel to -b* (0 -1 0). Fiducial mark perpendicular to laser is parallel to c [0 0 1]
51.43100, 0.0000000E+00
52.67100, 7.746033
53.91000, 9.322021
55.14900, 14.57703
56.38700, 3.115784
57.62600, 14.18396
58.86400, 28.69598
60.10300, 8.193542
61.34100, 2.595703
62.57900, 2.767303
63.81700, 6.093506
65.05400, 3.837708
66.29200, 15.42673
67.52900, 1.133698
68.76700, 26.45828
70.00400, 39.18140
71.24100, 64.01974
72.47700, 47.99237
73.71400, 48.11523
74.95100, 59.36081
76.18700, 75.70477
77.42300, 57.16019
78.65900, 55.73871
79.89500, 60.41492
81.13100, 110.1679
82.36700, 103.9814
83.60200, 152.8429
84.83700, 122.7424
86.07200, 99.67236
87.30800, 112.6268
88.54200, 109.6012
89.77700, 137.5923
91.01200, 163.6767
92.24600, 169.9911
93.48000, 161.5458
94.71400, 154.2105
95.94800, 149.8349
97.18200, 128.4188
98.41600, 146.9664
99.64900, 126.4815
100.8830, 113.0018
102.1160, 125.7844
103.3490, 124.8786
104.5820, 115.9702
105.8150, 161.9969
107.0470, 184.9644
108.2800, 235.8779
109.5120, 294.7421
110.7440, 217.5612
111.9760, 152.3389
113.2080, 120.0790
114.4400, 128.7845
115.6710, 167.4585
116.9030, 134.1035
118.1340, 105.7223
119.3650, 110.3170
120.5960, 73.89020
121.8270, 116.4444
123.0580, 124.9814
124.2880, 111.5033
125.5190, 105.0131
126.7490, 101.1259
127.9790, 92.93475
129.2090, 86.49371
130.4390, 87.73322
131.6680, 85.06757
132.8980, 81.64044
134.1270, 92.65143
135.3560, 107.5840
136.5850, 102.9955
137.8140, 112.1295
139.0430, 99.87048
140.2710, 107.0222
141.5000, 113.1816
142.7280, 83.34875
143.9560, 72.52393
145.1840, 85.70740
146.4120, 56.89911
147.6390, 66.09930
148.8670, 65.30786
150.0940, 42.11151
151.3210, 74.88495
152.5490, 106.1407
153.7750, 113.4924
155.0020, 104.7025
156.2290, 78.61407
157.4550, 84.54004
158.6810, 71.48022
159.9080, 76.43463
161.1340, 71.40308
162.3590, 100.3856
163.5850, 173.3821
164.8110, 175.3925
166.0360, 268.4159
167.2610, 349.4519
168.4860, 415.4998
169.7110, 720.5594
170.9360, 1126.631
172.1610, 1660.715
173.3850, 2395.811
174.6100, 3187.919
175.8340, 3225.040
177.0580, 2490.171
178.2820, 1411.312
179.5050, 727.4636
180.7290, 425.6261
181.9520, 287.7996
183.1760, 236.9843
184.3990, 175.1804
185.6220, 181.3882
186.8450, 146.6089
188.0670, 127.8444
189.2900, 145.0995
190.5120, 151.3694
191.7340, 130.6517
192.9560, 159.9466
194.1780, 160.2543
195.4000, 136.5750
196.6220, 137.9086
197.8430, 149.2556
199.0640, 140.8083
200.2860, 157.3390
201.5070, 143.7098
202.7270, 146.3370
203.9480, 105.7695
205.1690, 75.22998
206.3890, 23.68628
207.6090, 3.866028
208.8290, 28.46069
210.0490, 26.26843
211.2690, 1.239502
212.4890, 22.50476
213.7080, 5.957886
214.9280, 38.42859
216.1470, 7.877258
217.3660, 15.31628
218.5850, 11.74792
219.8030, 16.17188
221.0220, 0.4102170
222.2400, 6.001526
223.4590, 29.60278
224.6770, 27.21411
225.8950, 96.83521
227.1120, 65.46558
228.3300, 150.1051
229.5480, 226.7533
230.7650, 379.4102
231.9820, 487.0756
233.1990, 671.7495
234.4160, 901.4319
235.6330, 1187.123
236.8490, 1440.822
238.0660, 1439.529
239.2820, 1000.244
240.4980, 589.9641
241.7140, 289.6900
242.9300, 134.4220
244.1460, 76.16003
245.3610, 58.90436
246.5770, 30.65533
247.7920, 29.58710
249.0070, 14.83179
250.2220, 50.07684
251.4370, 40.32996
252.6510, 70.58850
253.8660, 39.85938
255.0800, 51.13489
256.2940, 50.41724
257.5080, 14.70587
258.7220, 46.00732
259.9360, 88.72711
261.1490, 83.45355
262.3630, 128.1870
263.5760, 163.9276
264.7890, 305.6755
266.0020, 332.4310
267.2150, 292.1942
268.4270, 208.9653
269.6400, 106.7444
270.8520, 104.5319
272.0640, 97.32764
273.2760, 80.13190
274.4880, 54.94482
275.7000, 73.76648
276.9120, 38.57544
278.1230, 71.37549
279.3340, 28.17920
280.5450, 59.96716
281.7560, 56.74817
282.9670, 60.52710
284.1780, 75.31555
285.3880, 124.1149
286.5980, 117.9250
287.8090, 165.7461
289.0190, 221.5781
290.2290, 249.4212
291.4380, 361.2753
292.6480, 447.1405
293.8570, 644.0165
295.0670, 729.9039
296.2760, 931.7907
297.4850, 1060.664
298.6930, 951.5087
299.9020, 888.3334
301.1110, 735.1469
302.3190, 625.9734
303.5270, 507.8126
304.7350, 445.6646
305.9430, 439.5293
307.1510, 504.4069
308.3580, 575.2973
309.5660, 827.2004
310.7730, 1014.116
311.9800, 1223.045
313.1870, 1416.987
314.3940, 1403.941
315.6010, 1282.909
316.8070, 1063.888
318.0130, 919.8814
319.2200, 826.8874
320.4260, 756.0656
321.6310, 868.1479
322.8370, 964.3905
324.0430, 1065.990
325.2480, 1251.179
326.4540, 1269.416
327.6590, 1344.512
328.8640, 1313.620
330.0680, 1200.742
331.2730, 1277.876
332.4780, 1320.023
333.6820, 1409.183
334.8860, 1580.356
336.0900, 1785.542
337.2940, 1953.740
338.4980, 2310.952
339.7010, 2763.176
340.9050, 3244.413
342.1080, 4044.664
343.3110, 4946.927
344.5140, 6370.208
345.7170, 8072.508
346.9200, 10529.82
348.1220, 14025.14
349.3240, 18399.48
350.5270, 23419.83
351.7290, 28475.19
352.9310, 31256.94
354.1320, 30748.38
355.3340, 26744.97
356.5350, 21364.05
357.7370, 17110.49
358.9380, 14331.25
360.1390, 13344.26
361.3400, 13671.97
362.5400, 15311.30
363.7410, 18302.84
364.9410, 23049.17
366.1410, 30182.36
367.3410, 38970.80
368.5410, 48225.36
369.7410, 56429.93
370.9400, 60132.52
372.1400, 57261.12
373.3390, 48541.72
374.5380, 37824.36
375.7370, 28391.01
376.9360, 21307.67
378.1350, 16016.35
379.3330, 12687.04
380.5310, 10339.76
381.7300, 8699.496
382.9280, 7620.250
384.1260, 6867.018
385.3230, 5814.801
386.5210, 4771.604
387.7180, 3819.420
388.9160, 3007.252
390.1130, 2479.096
391.3100, 2131.958
392.5060, 1809.097
393.7030, 1578.034
394.9000, 1467.122
396.0960, 1238.766
397.2920, 1136.728
398.4880, 987.4482
399.6840, 945.5822
400.8800, 810.7894
402.0750, 725.9152
403.2710, 676.9609
404.4660, 646.0225
405.6610, 592.1044
406.8560, 551.3796
408.0510, 500.5610
409.2450, 458.4525
410.4400, 404.6035
411.6340, 348.7800
412.8280, 322.9765
414.0220, 281.1949
415.2160, 256.4335
416.4100, 207.6859
417.6030, 209.9584
418.7970, 168.0955
419.9900, 169.5450
421.1830, 126.8673
422.3760, 124.2036
423.5690, 146.5552
424.7610, 91.92487
425.9540, 94.30872
427.1460, 50.70776
428.3380, 110.1210
429.5300, 42.54907
430.7220, 68.99115
431.9140, 32.44733
433.1050, 46.92053
434.2970, 35.40955
435.4880, 57.91254
436.6790, 31.43140
437.8700, 18.96411
439.0610, 57.51147
440.2510, 17.07294
441.4420, 57.64838
442.6320, 29.23785
443.8220, 62.84137
445.0120, 57.45947
446.2020, 78.09149
447.3910, 126.7377
448.5810, 160.4003
449.7700, 213.0771
450.9600, 309.7678
452.1490, 333.4724
453.3370, 367.1921
454.5260, 292.9255
455.7150, 198.6758
456.9030, 149.4400
458.0910, 88.21777
459.2800, 33.00916
460.4670, 5.814453
461.6550, 12.63348
462.8430, 13.53418
464.0300, 5.690247
465.2180, 15.83380
466.4050, 30.96619
467.5920, 11.09076
468.7790, 13.20355
469.9650, 34.69495
471.1520, 28.60645
472.3380, 57.53076
473.5250, 97.46796
474.7110, 92.41791
475.8970, 147.3806
477.0820, 182.3558
478.2680, 244.3437
479.4540, 278.3440
480.6390, 373.4626
481.8240, 417.4878
483.0090, 542.5259
484.1940, 692.5764
485.3780, 912.6398
486.5630, 1208.267
487.7470, 1588.399
488.9320, 2126.500
490.1160, 2674.616
491.3000, 3334.751
492.4830, 3872.898
493.6670, 4105.063
494.8500, 3916.242
496.0340, 3369.729
497.2170, 2732.939
498.4000, 2282.719
499.5820, 1907.962
500.7650, 1734.217
501.9480, 1689.485
503.1300, 1783.762
504.3120, 1924.067
505.4940, 2326.387
506.6760, 2786.724
507.8580, 3590.076
509.0390, 4718.441
510.2210, 6395.816
511.4020, 8916.203
512.5830, 12196.87
513.7640, 16334.29
514.9450, 20424.81
516.1250, 23139.21
517.3060, 23389.65
518.4860, 20105.14
519.6660, 16139.05
520.8460, 11898.70
522.0260, 8736.031
523.2060, 6363.513
524.3850, 4938.139
525.5650, 3766.640
526.7440, 2991.042
527.9230, 2528.243
529.1020, 2105.534
530.2810, 1786.071
531.4590, 1657.634
532.6380, 1362.202
533.8160, 1261.095
534.9940, 1140.557
536.1720, 1081.746
537.3500, 999.9043
538.5270, 949.6995
539.7050, 895.2327
540.8820, 843.2326
542.0590, 831.1151
543.2360, 777.0658
544.4130, 744.0936
545.5900, 712.1069
546.7660, 740.2460
547.9430, 722.4261
549.1190, 677.3458
550.2950, 682.2548
551.4710, 754.0148
552.6470, 744.4059
553.8220, 716.4761
554.9980, 767.0735
556.1730, 690.2213
557.3480, 624.0065
558.5230, 561.1162
559.6980, 484.9116
560.8730, 499.7445
562.0470, 435.3522
563.2220, 422.1616
564.3960, 443.2044
565.5700, 491.9109
566.7440, 563.7331
567.9170, 611.7569
569.0910, 694.5873
570.2640, 845.5553
571.4380, 1025.394
572.6110, 1233.238
573.7840, 1583.705
574.9570, 1883.928
576.1290, 2234.781
577.3020, 2252.025
578.4740, 2125.885
579.6460, 1798.909
580.8180, 1441.858
581.9900, 1111.726
583.1620, 810.5967
584.3330, 687.4706
585.5040, 525.3904
586.6760, 462.2695
587.8470, 400.1511
589.0180, 362.5197
590.1880, 312.4487
591.3590, 290.3372
592.5290, 292.2280
593.7000, 281.3984
594.8700, 282.2931
596.0400, 243.8010
597.2090, 235.7814
598.3790, 232.6813
599.5490, 191.5835
600.7180, 196.5838
601.8870, 179.1499
603.0560, 177.4386
604.2250, 162.1858
605.3940, 139.0429
606.5620, 136.7537
607.7300, 136.1216
608.8990, 101.9185
610.0670, 119.6762
611.2350, 93.58905
612.4020, 72.50269
613.5700, 61.41693
614.7370, 56.75342
615.9050, 44.24725
617.0720, 61.16315
618.2390, 54.07947
619.4060, 52.97620
620.5720, 2.087219
621.7390, 25.82825
622.9050, 3.847656
624.0710, 2.763184
625.2370, 15.89246
626.4030, 28.03235
627.5690, 19.13141
628.7340, 8.846924
629.9000, 4.509399
631.0650, 25.90436
632.2300, 16.88300
633.3950, 17.68530
634.5600, 3.137695
635.7240, 2.975647
636.8890, 4.906677
638.0530, 24.21198
639.2170, 30.65424
640.3810, 52.51941
641.5450, 36.38342
642.7080, 13.75378
643.8720, 14.09857
645.0350, 19.94965
646.1980, 10.79919
647.3610, 28.64728
648.5240, 14.49384
649.6870, 36.33881
650.8490, 34.18207
652.0120, 2.3621000E-02
653.1740, 6.860291
654.3360, 3.694702
655.4980, 11.47443
656.6600, 13.34546
657.8210, 6.163330
658.9830, 19.02167
660.1440, 14.22186
661.3050, 25.43500
662.4660, 13.33331
663.6270, 29.90070
664.7870, 13.84424
665.9480, 8.413269
667.1080, 4.681396
668.2680, 5.958557
669.4280, 18.75458
670.5880, 11.46515
671.7480, 9.827271
672.9070, 15.13159
674.0670, 24.45062
675.2260, 35.78918
676.3850, 4.153320
677.5440, 14.47290
678.7030, 6.904175
679.8610, 2.707520
681.0200, 28.68744
682.1780, 4.894897
683.3360, 3.471313
684.4940, 4.040955
685.6520, 15.39594
686.8090, 1.151123
687.9670, 11.30975
689.1240, 8.215149
690.2810, 8.265259
691.4380, 34.75842
692.5950, 13.27820
693.7520, 21.81329
694.9080, 14.36823
696.0650, 29.06079
697.2210, 13.51385
698.3770, 24.89587
699.5330, 16.30182
700.6880, 21.29633
701.8440, 36.08563
702.9990, 6.463928
704.1550, 6.164063
705.3100, 38.19604
706.4650, 7.552307
707.6190, 26.90277
708.7740, 10.24933
709.9290, 23.59070
711.0830, 20.92822
712.2370, 1.738220
713.3910, 2.585510
714.5450, 36.90149
715.6980, 2.213623
716.8520, 45.51794
718.0050, 8.818481
719.1580, 13.11340
720.3110, 27.40350
721.4640, 25.68970
722.6170, 39.60303
723.7700, 16.25061
724.9220, 50.52472
726.0740, 22.79504
727.2260, 6.1400998E-02
728.3780, 16.31915
729.5300, 35.57239
730.6810, 47.82184
731.8330, 4.067505
732.9840, 58.30634
734.1350, 2.458557
735.2860, 12.76678
736.4370, 41.98737
737.5880, 22.20428
738.7380, 11.41730
739.8880, 15.62543
741.0390, 30.82928
742.1890, 43.02948
743.3380, 48.22675
744.4880, 54.42059
745.6380, 39.61176
746.7870, 20.80188
747.9360, 31.98889
749.0850, 34.17303
750.2340, 29.35352
751.3830, 61.53033
752.5310, 33.70355
753.6800, 62.87311
754.8280, 75.03912
755.9760, 60.20154
757.1240, 59.36041
758.2720, 53.51575
759.4190, 58.56183
760.5670, 8.710205
761.7140, 38.85419
762.8610, 2.997437
764.0080, 5.134949
765.1550, 19.71759
766.3020, 6.809082
767.4480, 9.060120
768.5950, 20.93207
769.7410, 6.180603
770.8870, 20.71075
772.0330, 32.38892
773.1780, 28.48517
774.3240, 35.29077
775.4690, 39.38983
776.6140, 50.94562
777.7590, 55.23663
778.9040, 46.17297
780.0490, 64.29773
781.1940, 66.43671
782.3380, 61.56232
783.4820, 72.68677
784.6260, 80.81342
785.7700, 81.94067
786.9140, 89.06866
788.0580, 101.1957
789.2010, 121.3216
790.3450, 133.8830
791.4880, 155.4732
792.6310, 175.3096
793.7730, 210.4478
794.9160, 246.5649
796.0590, 302.6350
797.2010, 326.2936
798.3430, 379.2211
799.4850, 395.4796
800.6270, 482.5881
801.7690, 527.5627
802.9100, 621.6677
804.0520, 713.8802
805.1930, 759.3016
806.3340, 921.6382
807.4750, 1041.738
808.6160, 1212.817
809.7560, 1456.900
810.8970, 1797.663
812.0370, 2045.872
813.1770, 2510.366
814.3170, 2878.751
815.4570, 3255.835
816.5960, 3421.955
817.7360, 3495.968
818.8750, 3503.704
820.0140, 3294.552
821.1530, 3011.334
822.2920, 2632.137
823.4310, 2374.820
824.5690, 2174.469
825.7070, 2083.385
826.8460, 1874.318
827.9840, 1948.406
829.1220, 1973.869
830.2590, 1988.660
831.3970, 1981.929
832.5340, 2045.655
833.6710, 2169.749
834.8080, 2242.524
835.9450, 2346.619
837.0820, 2677.683
838.2190, 2903.979
839.3550, 3288.078
840.4910, 3655.950
841.6270, 3961.164
842.7630, 4215.268
843.8990, 4317.175
845.0350, 4285.283
846.1700, 4128.258
847.3060, 3861.368
848.4410, 3765.477
849.5760, 3537.970
850.7100, 3434.712
851.8450, 3390.830
852.9800, 3350.561
854.1140, 3552.683
855.2480, 3679.644
856.3820, 3901.688
857.5160, 4076.815
858.6500, 4391.946
859.7830, 4917.079
860.9170, 5556.172
862.0500, 6215.310
863.1830, 6932.450
864.3160, 8069.108
865.4480, 9520.212
866.5810, 11325.36
867.7130, 13704.51
868.8460, 17185.39
869.9780, 21717.54
871.1100, 27402.09
872.2410, 34690.17
873.3730, 42328.34
874.5050, 48665.50
875.6360, 51433.57
876.7670, 49960.71
877.8980, 43816.89
879.0290, 35386.07
880.1590, 26910.26
881.2900, 20205.45
882.4200, 15227.64
883.5500, 11556.83
884.6800, 8870.029
885.8100, 6935.232
886.9400, 5646.438
888.0690, 4657.648
889.1990, 3849.863
890.3280, 3143.080
891.4570, 2765.302
892.5860, 2365.527
893.7140, 2033.756
894.8430, 1851.989
895.9710, 1593.227
897.1000, 1521.382
898.2280, 1321.157
899.3560, 1262.193
900.4830, 1089.388
901.6110, 988.7244
902.7380, 932.9103
903.8660, 856.1628
904.9930, 855.1770
906.1200, 783.3733
907.2460, 713.8435
908.3730, 712.3070
909.5000, 653.0424
910.6260, 670.4847
911.7520, 640.5630
912.8780, 643.5394
914.0040, 552.7879
915.1290, 527.1125
916.2550, 519.0098
917.3800, 456.0444
918.5050, 450.6625
919.6300, 389.0218
920.7550, 378.0456
921.8800, 359.0584
923.0040, 346.6787
924.1290, 327.8749
925.2530, 320.6171
926.3770, 292.5699
927.5010, 300.9434
928.6250, 290.3213
929.7480, 268.7074
930.8720, 266.3768
931.9950, 260.7706
933.1180, 242.1749
934.2410, 237.5880
935.3640, 221.9742
936.4860, 177.4420
937.6090, 184.8840
938.7310, 168.3298
939.8530, 131.7836
940.9750, 133.2445
942.0970, 151.7128
943.2180, 121.1849
944.3400, 128.6612
945.4610, 158.1458
946.5820, 118.6404
947.7030, 118.1473
948.8240, 122.6694
949.9450, 165.1989
951.0650, 169.7323
952.1860, 144.2739
953.3060, 99.82104
954.4260, 146.3818
955.5460, 142.9480
956.6650, 149.5197
957.7850, 120.0969
958.9040, 156.6843
960.0230, 159.2780
961.1420, 146.8810
962.2610, 143.4889
963.3800, 142.4628
964.4990, 147.8372
965.6170, 147.3790
966.7350, 174.0328
967.8530, 194.6968
968.9710, 220.3647
970.0890, 217.0427
971.2070, 246.7245
972.3240, 209.4106
973.4410, 225.1087
974.5580, 234.8107
975.6750, 282.5178
976.7920, 281.2332
977.9090, 267.9531
979.0250, 286.6781
980.1410, 295.4071
981.2580, 266.1416
982.3740, 283.8805
983.4890, 285.6254
984.6050, 288.3823
985.7200, 324.1453
986.8360, 340.9129
987.9510, 372.6876
989.0660, 474.4664
990.1810, 476.2538
991.2950, 608.0491
992.4100, 695.8495
993.5240, 823.6541
994.6390, 960.4628
995.7530, 1032.276
996.8660, 1026.096
997.9800, 883.9212
999.0940, 764.7528
1000.207, 557.5890
1001.320, 439.4351
1002.433, 361.2922
1003.546, 250.1578
1004.659, 219.0343
1005.772, 196.9216
1006.884, 146.8183
1007.996, 109.7252
1009.108, 73.63824
1010.220, 101.5571
1011.332, 79.48230
1012.444, 72.41144
1013.555, 82.34692
1014.666, 66.28650
1015.777, 67.23425
1016.888, 62.18542
1017.999, 45.14008
1019.110, 51.53827
1020.220, 42.06073
1021.331, 46.02600
1022.441, 65.99475
1023.551, 46.96765
1024.661, 10.94385
1025.770, 23.92303
1026.880, 63.90540
1027.989, 27.89075
1029.098, 19.87921
1030.207, 0.1293330
1031.316, 13.13477
1032.425, 5.857422
1033.533, 3.145996
1034.642, 22.14679
1035.750, 23.84540
1036.858, 33.15924
1037.966, 6.173157
1039.073, 24.81958
1040.181, 31.18427
1041.288, 4.193787
1042.396, 27.20276
1043.503, 3.221985
1044.610, 32.24060
1045.716, 30.27258
1046.823, 50.31702
1047.929, 35.38446
1049.036, 11.46729
1050.142, 13.55353
1051.248, 5.644226
1052.353, 18.73468
1053.459, 12.83228
1054.564, 12.47528
1055.670, 5.040588
1056.775, 5.147705
1057.880, 9.255676
1058.985, 0.6334840
1060.089, 8.523682
1061.194, 30.41595
1062.298, 34.31018
1063.402, 4.793518
1064.506, 36.10150
1065.610, 26.99835
1066.713, 28.89697
1067.817, 51.79742
1068.920, 63.69946
1070.023, 57.60327
1071.126, 89.50861
1072.229, 72.41547
1073.332, 96.32385
1074.435, 116.2337
1075.537, 110.1451
1076.639, 143.0576
1077.741, 128.9717
1078.843, 137.8869
1079.945, 157.8034
1081.046, 188.7212
1082.148, 156.6401
1083.249, 168.5600
1084.350, 196.4809
1085.451, 194.4028
1086.551, 206.3257
1087.652, 201.2494
1088.752, 225.1739
1089.853, 239.0992
1090.953, 226.0252
1092.053, 238.3624
1093.152, 246.8792
1094.252, 245.8071
1095.351, 246.7355
1096.451, 271.6644
1097.550, 228.5938
1098.649, 275.5234
1099.748, 262.4535
1100.846, 309.3835
1101.945, 290.3140
1103.043, 258.2445
1104.141, 260.1751
1105.239, 278.1057
1106.337, 328.0363
1107.434, 280.9669
1108.532, 298.8974
1109.629, 299.9836
1110.726, 269.9139
1111.823, 285.8571
1112.920, 272.9838
1114.017, 229.9659
1115.113, 238.3712
1116.210, 240.4264
1117.306, 226.4268
1118.402, 263.5089
1119.498, 262.6920
1120.593, 271.6603
1121.689, 249.4536
1122.784, 250.0152
1123.879, 232.4209
1124.974, 224.3572
1126.069, 207.3704
1127.164, 180.4520
1128.259, 178.9512
1129.353, 156.1033
1130.447, 139.1271
1131.541, 101.1722
1132.635, 103.5253
1133.729, 86.15564
1134.822, 67.87103
1135.916, 76.42920
1137.009, 57.32440
1138.102, 74.43567
1139.195, 73.88892
1140.288, 66.36682
1141.380, 75.77484
1142.473, 52.09595
1143.565, 71.10400
1144.657, 81.63672
1145.749, 58.68042
1146.841, 98.64996
1147.932, 93.55554
1149.024, 67.47766
1150.115, 84.51111
1151.206, 98.39130
1152.297, 61.27930
1153.388, 119.2280
1154.479, 99.28619
1155.569, 110.1691
1156.659, 105.0432
1157.750, 115.9074
1158.839, 120.7689
1159.929, 133.6459
1161.019, 110.5018
1162.108, 115.3675
1163.198, 137.6880
1164.287, 121.6306
1165.376, 153.4538
1166.465, 146.2481
1167.553, 159.0867
1168.642, 154.1754
1169.730, 153.7705
1170.818, 163.9432
1171.906, 165.4938
1172.994, 175.4924
1174.082, 181.9221
1175.170, 184.6023
1176.257, 193.6691
1177.344, 203.8250
1178.431, 200.7486
1179.518, 179.5590
1180.605, 186.7979
1181.691, 223.9054
1182.778, 188.6590
1183.864, 226.4495
1184.950, 223.5720
1186.036, 208.7067
1187.122, 199.2354
1188.207, 213.7801
1189.292, 202.0767
1190.378, 205.8287
1191.463, 188.6116
1192.548, 185.3922
1193.632, 192.1979
1194.717, 193.6944
1195.801, 177.4682
1196.886, 211.2397
1197.970, 183.0089
1199.054, 204.7757
1200.137, 171.5402
1201.221, 173.3022
1202.305, 167.0619
1203.388, 185.8191
1204.471, 177.5740
1205.554, 156.3264
1206.637, 132.0763
1207.719, 137.6957
1208.802, 169.5686
1209.884, 142.3110
1210.966, 156.0691
1212.048, 153.8063
1213.130, 142.5410
1214.212, 172.2731
1215.293, 158.0026
1216.374, 106.7294
1217.456, 114.4537
1218.536, 103.1752
1219.617, 105.8941
1220.698, 109.6103
1221.778, 81.32373
1222.859, 65.03448
1223.939, 85.74249
1225.019, 41.44781
1226.099, 77.15027
1227.178, 64.84998
1228.258, 74.54694
1229.337, 53.24109
1230.417, 44.93237
1231.496, 28.62091
1232.574, 35.30652
1233.653, 39.98938
1234.732, 36.66937
1235.810, 29.34650
1236.888, 22.02075
1237.966, 27.69214
1239.044, 3.360779
1240.122, 27.02478
1241.199, 16.68597
1242.277, 2.344055
1243.354, 9.997253
1244.431, 2.352966
1245.508, 12.71063
1246.585, 7.918945
1247.661, 3.544800
1248.738, 1.166260
1249.814, 11.78217
1250.890, 8.605225
1251.966, 7.003357
1253.042, 0.4113160
1254.117, 18.17444
1255.193, 6.757080
1256.268, 3.335876
1257.343, 4.089722
1258.418, 1.476318
1259.493, 4.037109
1260.567, 6.593628
1261.642, 17.85364
1262.716, 22.31641
1263.790, 7.796814
1264.864, 21.28735
1265.938, 10.79504
1267.011, 14.31433
1268.085, 19.84705
1269.158, 4.395996
1270.231, 0.9531250
1271.304, 4.516418
1272.377, 4.912048
1273.450, 5.663330
1274.522, 2.752686
1275.594, 12.83557
1276.666, 17.56396
1277.738, 12.96051
1278.810, 2.354004
1279.882, 40.74329
1280.953, 19.12988
1282.025, 7.513672
1283.096, 0.8941040
1284.167, 18.26990
1285.238, 19.64288
1286.308, 27.01318
1287.379, 29.38086
1288.449, 16.74591
1289.519, 24.10828
1290.589, 13.61578
1291.659, 28.82538
1292.729, 4.182739
1293.798, 5.536804
1294.868, 14.88837
1295.937, 42.24231
1297.006, 21.59381
1298.075, 62.95093
1299.143, 9.307190
1300.212, 23.66101
1301.280, 15.02002
1302.348, 9.377563
1303.416, 25.73895
1304.484, 15.09900
1305.552, 40.46466
1306.620, 10.83551
1307.687, 22.21704
1308.754, 43.60645
1309.821, 50.99658
1310.888, 1.611877
1311.955, 18.77686
1313.021, 20.16913
1314.088, 48.56268
1315.154, 44.95746
1316.220, 13.35211
1317.286, 25.74609
1318.352, 39.14062
1319.417, 24.53345
1320.483, 26.92395
1321.548, 13.31104
1322.613, 35.69543
1323.678, 34.07892
1324.743, 36.45990
1325.807, 29.83838
1326.872, 22.21442
1327.936, 20.58801
1329.000, 30.95911
1330.064, 26.35608
1331.128, 37.69373
1332.191, 33.05731
1333.255, 33.41827
1334.318, 44.77679
1335.381, 50.13281
1336.444, 37.48639
1337.507, 21.83734
1338.569, 15.18579
1339.632, 49.53162
1340.694, 31.87500
1341.756, 111.2158
1342.818, 70.07922
1343.880, 99.88995
1344.941, 34.22321
1346.003, 51.55389
1347.064, 69.88214
1348.125, 83.20782
1349.186, 83.25256
1350.247, 78.85211
1351.308, 78.17078
1352.368, 80.48700
1353.428, 83.80115
1354.489, 89.11298
1355.549, 80.42261
1356.608, 93.73010
1357.668, 101.0356
1358.727, 98.33948
1359.787, 93.64160
1360.846, 78.94226
1361.905, 84.24133
1362.964, 117.5391
1364.022, 90.83527
1365.081, 113.1301
1366.139, 112.4237
1367.197, 115.5602
1368.255, 97.85120
1369.313, 124.1276
1370.371, 117.2193
1371.428, 114.4540
1372.486, 122.2640
1373.543, 110.4227
1374.600, 111.6345
1375.657, 91.76312
1376.713, 97.78912
1377.770, 81.02832
1378.826, 98.44080
1379.882, 93.95349
1380.938, 91.87994
1381.994, 94.14417
1383.050, 90.32996
1384.106, 102.4453
1385.161, 96.60547
1386.216, 75.18268
1387.271, 96.31635
1388.326, 88.49524
1389.381, 93.33002
1390.435, 107.8859
1391.490, 106.3549
1392.544, 96.97925
1393.598, 83.26471
1394.652, 100.3323
1395.705, 115.0559
1396.759, 103.7533
1397.812, 111.6708
1398.866, 102.3689
1399.919, 112.5308
1400.972, 87.16614
1402.024, 103.2888
1403.077, 125.4840
1404.129, 89.74164
1405.181, 107.9811
1406.233, 112.1076
1407.285, 109.3859
1408.337, 103.6549
1409.389, 98.86163
1410.440, 107.9575
1411.491, 88.22729
1412.542, 82.50439
1413.593, 75.79010
1414.644, 104.0773
1415.695, 84.34766
1416.745, 83.63812
1417.795, 60.89935
1418.845, 70.19342
1419.895, 81.39423
1420.945, 89.61090
1421.995, 82.88690
1423.044, 58.18951
1424.093, 88.52002
1425.142, 60.86426
1426.191, 61.20129
1427.240, 50.51428
1428.289, 41.80804
1429.337, 61.08142
1430.385, 64.40350
1431.433, 67.70789
1432.481, 75.47430
1433.529, 61.40625
1434.577, 76.99500
1435.624, 67.33575
1436.672, 56.69531
1437.719, 67.80975
1438.766, 58.36462
1439.812, 56.72998
1440.859, 49.07928
1441.905, 30.50757
1442.952, 46.80536
1443.998, 69.18713
1445.044, 58.47290
1446.090, 38.74664
1447.135, 69.71521
1448.181, 67.92029
1449.226, 40.14941
1450.271, 31.37531
1451.316, 30.59790
1452.361, 23.81720
1453.405, 41.03326
1454.450, 51.24603
1455.494, 52.45563
1456.538, 45.64227
1457.582, 51.84521
1458.626, 34.04492
1459.670, 29.24152
1460.713, 20.43481
1461.757, 42.62500
1462.800, 32.81201
1463.843, 42.99585
1464.886, 21.17657
1465.928, 43.35413
1466.971, 27.52844
1468.013, 23.69958
1469.055, 12.86743
1470.097, 36.03296
1471.139, 43.19635
1472.181, 32.35938
1473.222, 49.53131
1474.263, 41.70837
1475.305, 15.88715
1476.346, 38.07788
1477.386, 31.27515
1478.427, 19.47223
1479.468, 44.67670
1480.508, 29.88293
1481.548, 62.11499
1482.588, 41.37573
1483.628, 46.66541
1484.668, 44.98511
1485.707, 28.31775
1486.747, 39.66071
1487.786, 36.01819
1488.825, 43.38434
1489.864, 41.75446
1490.902, 39.12677
1491.941, 55.50415
1492.979, 42.88342
1494.017, 69.26422
1495.055, 44.64697
1496.093, 40.03198
1497.131, 44.42053
1498.168, 52.81049
1499.206, 53.20074
1500.243, 51.76654
1501.280, 52.98529
1502.317, 44.37970
1503.354, 45.77209
1504.390, 45.16266
1505.426, 33.55597
1506.463, 35.94720
1507.499, 30.33759
1508.535, 25.72821
1509.570, 32.12360
1510.606, 32.52612
1511.641, 36.93378
1512.676, 17.34698
1513.711, 47.76642
1514.746, 37.19293
1515.781, 39.62689
1516.816, 7.068909
1517.850, 31.51971
1518.884, 33.98029
1519.918, 37.45123
1520.952, 43.93365
1521.986, 31.42828
1523.019, 14.93573
1524.053, 35.45618
1525.086, 37.98981
1526.119, 29.53717
1527.152, 37.09778
1528.185, 46.66956
1529.217, 55.25116
1530.250, 42.84210
1531.282, 22.44214
1532.314, 40.05176
1533.346, 39.67126
1534.377, 30.30145
1535.409, 48.94281
1536.440, 30.59625
1537.472, 37.26270
1538.503, 14.94354
1539.534, 10.64001
1540.564, 20.35400
1541.595, 13.08636
1542.625, 12.83826
1543.656, 15.61078
1544.686, 28.40497
1545.716, 26.22186
1546.745, 15.06226
1547.775, 5.926819
1548.804, 3.816223
1549.834, 1.268616
1550.863, 16.67365
1551.892, 27.64523
1552.920, 39.64868
1553.949, 52.68677
1554.977, 48.76257
1556.006, 30.87933
1557.034, 2.040070
1558.062, 2.751831
1559.089, 42.50751
1560.117, 17.11600
1561.144, 22.49411
1562.172, 0.2626950
1563.199, 21.00168
1564.226, 34.88928
1565.252, 4.400116
1566.279, 24.76285
1567.305, 2.898987
1568.332, 8.647583
1569.358, 0.1127930
1570.384, 0.0000000E+00
##END=



