##NAMES=Andradite
##RRUFFID=R060449
##IDEAL CHEMISTRY=Ca_3_Fe^3+^_2_(SiO_4_)_3_
##LOCALITY=Namibia
##OWNER=RRUFF
##SOURCE=Gemological Institute of America
##DESCRIPTION=Blue fragment, variety demantoid
##STATUS=The identification of this mineral has been confirmed by X-ray diffraction and chemical analysis
##URL=rruff.info/R060449
##MEASURED CHEMISTRY=Ca_3.00_(Fe^3+^_1.93_Al_0.07_)_Î£=2_(Si_1.00_O_4_)_3__
##PIN_ID=L01084
##ORIENTATION=Laser parallel to a* (1 0 0). Fiducial mark perpendicular to laser is parallel to c [0 0 1]
51.43100, 0.0000000E+00
52.67100, 8.195831
53.91000, 10.03870
55.14900, 14.17273
56.38700, 6.838135
57.62600, 17.21512
58.86400, 18.54858
60.10300, 26.47794
61.34100, 14.74799
62.57900, 26.34326
63.81700, 2.744110
65.05400, 4.451050
66.29200, 8.108917
67.52900, 21.53894
68.76700, 22.36044
70.00400, 41.32645
71.24100, 44.44006
72.47700, 67.80215
73.71400, 55.40210
74.95100, 54.17703
76.18700, 56.08087
77.42300, 71.09625
78.65900, 68.20615
79.89500, 78.22327
81.13100, 87.69299
82.36700, 88.90240
83.60200, 102.2118
84.83700, 100.5419
86.07200, 95.88574
87.30800, 104.7855
88.54200, 118.6031
89.77700, 115.0591
91.01200, 122.0406
92.24600, 132.7580
93.48000, 104.7569
94.71400, 117.6141
95.94800, 122.3436
97.18200, 108.9576
98.41600, 140.4672
99.64900, 124.8823
100.8830, 126.2117
102.1160, 117.6405
103.3490, 111.1075
104.5820, 130.4905
105.8150, 179.7968
107.0470, 186.0334
108.2800, 183.2447
109.5120, 221.4310
110.7440, 221.5704
111.9760, 146.6561
113.2080, 117.6928
114.4400, 148.6846
115.6710, 132.6353
116.9030, 116.5481
118.1340, 120.4265
119.3650, 105.2735
120.5960, 125.0919
121.8270, 105.8848
123.0580, 104.6544
124.2880, 91.40332
125.5190, 81.45953
126.7490, 63.68787
127.9790, 104.7175
129.2090, 88.22601
130.4390, 128.5570
131.6680, 115.5231
132.8980, 140.5516
134.1270, 139.7013
135.3560, 113.5437
136.5850, 135.4046
137.8140, 116.2841
139.0430, 129.1821
140.2710, 125.0984
141.5000, 107.0330
142.7280, 106.9854
143.9560, 101.9559
145.1840, 77.94391
146.4120, 97.94946
147.6390, 92.97192
148.8670, 81.01086
150.0940, 85.06616
151.3210, 92.58783
152.5490, 97.05457
153.7750, 115.5699
155.0020, 131.5527
156.2290, 100.5531
157.4550, 134.5709
158.6810, 151.6058
159.9080, 221.6579
161.1340, 296.7270
162.3590, 435.8131
163.5850, 761.5045
164.8110, 1145.461
166.0360, 1491.583
167.2610, 1553.612
168.4860, 1692.732
169.7110, 2345.868
170.9360, 2903.021
172.1610, 3162.191
173.3850, 3313.376
174.6100, 3889.576
175.8340, 4239.787
177.0580, 3432.013
178.2820, 2338.251
179.5050, 1379.503
180.7290, 778.7692
181.9520, 438.0492
183.1760, 292.3432
184.3990, 189.6516
185.6220, 136.9745
186.8450, 112.3123
188.0670, 82.66522
189.2900, 68.03546
190.5120, 61.17645
191.7340, 51.82678
192.9560, 62.24628
194.1780, 53.68195
195.4000, 56.13397
196.6220, 56.60272
197.8430, 13.08844
199.0640, 69.94489
200.2860, 13.78857
201.5070, 13.61121
202.7270, 43.40692
203.9480, 19.81995
205.1690, 17.07068
206.3890, 44.39893
207.6090, 54.68329
208.8290, 36.96893
210.0490, 45.23914
211.2690, 56.88824
212.4890, 57.18506
213.7080, 60.05090
214.9280, 20.31616
216.1470, 24.57379
217.3660, 27.17456
218.5850, 23.93677
219.8030, 74.71185
221.0220, 116.4987
222.2400, 208.2965
223.4590, 313.1048
224.6770, 453.9235
225.8950, 772.7517
227.1120, 1143.589
228.3300, 1501.436
229.5480, 1833.837
230.7650, 2185.778
231.9820, 2497.032
233.1990, 2831.917
234.4160, 3126.810
235.6330, 3384.712
236.8490, 4134.623
238.0660, 4468.542
239.2820, 3769.463
240.4980, 2450.387
241.7140, 1351.314
242.9300, 703.2448
244.1460, 328.1802
245.3610, 176.1205
246.5770, 45.06622
247.7920, 39.01794
249.0070, 11.02478
250.2220, 24.06628
251.4370, 29.10895
252.6510, 46.15326
253.8660, 16.20276
255.0800, 41.74963
256.2940, 72.63062
257.5080, 170.6760
258.7220, 184.6507
259.9360, 247.6335
261.1490, 299.7646
262.3630, 445.6244
263.5760, 504.6333
264.7890, 650.6514
266.0020, 639.4501
267.2150, 742.7162
268.4270, 568.7637
269.6400, 310.8210
270.8520, 175.8887
272.0640, 47.96472
273.2760, 12.04810
274.4880, 6.872803
275.7000, 21.17560
276.9120, 27.81622
278.1230, 16.14276
279.3340, 4.054749
280.5450, 14.04724
281.7560, 50.86237
282.9670, 93.78705
284.1780, 135.7852
285.3880, 213.7401
286.5980, 280.0751
287.8090, 401.2341
289.0190, 496.2717
290.2290, 606.4720
291.4380, 724.5618
292.6480, 850.7380
293.8570, 956.7988
295.0670, 1013.875
296.2760, 1023.965
297.4850, 1092.055
298.6930, 1101.131
299.9020, 1035.216
301.1110, 1047.316
302.3190, 1147.432
303.5270, 1245.461
304.7350, 1461.712
305.9430, 1665.875
307.1510, 2023.055
308.3580, 2432.250
309.5660, 2964.458
310.7730, 3309.673
311.9800, 3924.904
313.1870, 4326.146
314.3940, 4201.405
315.6010, 3547.679
316.8070, 2661.970
318.0130, 2057.276
319.2200, 1625.599
320.4260, 1604.938
321.6310, 1636.293
322.8370, 1750.664
324.0430, 1929.052
325.2480, 2096.830
326.4540, 2224.250
327.6590, 2053.687
328.8640, 1824.138
330.0680, 1552.607
331.2730, 1522.092
332.4780, 1585.593
333.6820, 1768.111
334.8860, 2021.644
336.0900, 2360.195
337.2940, 2939.765
338.4980, 3702.351
339.7010, 4918.958
340.9050, 6644.583
342.1080, 9635.223
343.3110, 12678.72
344.5140, 15957.40
345.7170, 18713.96
346.9200, 22161.55
348.1220, 26116.29
349.3240, 29573.30
350.5270, 31688.49
351.7290, 33219.14
352.9310, 33947.23
354.1320, 32689.38
355.3340, 29153.07
356.5350, 24824.13
357.7370, 22108.20
358.9380, 21183.16
360.1390, 23299.42
361.3400, 27198.48
362.5400, 32158.43
363.7410, 37276.40
364.9410, 42850.39
366.1410, 48252.40
367.3410, 52965.42
368.5410, 55075.46
369.7410, 55140.53
370.9400, 52925.61
372.1400, 49294.70
373.3390, 43130.82
374.5380, 36111.98
375.7370, 28660.14
376.9360, 22095.33
378.1350, 17079.54
379.3330, 13463.77
380.5310, 10780.04
381.7300, 9111.329
382.9280, 7565.640
384.1260, 6512.978
385.3230, 5408.336
386.5210, 4608.718
387.7180, 3737.123
388.9160, 3000.546
390.1130, 2432.987
391.3100, 2053.445
392.5060, 1811.921
393.7030, 1571.561
394.9000, 1404.579
396.0960, 1348.354
397.2920, 1180.239
398.4880, 1079.754
399.6840, 962.3579
400.8800, 822.9844
402.0750, 707.6305
403.2710, 698.2949
404.4660, 599.9854
405.6610, 592.7075
406.8560, 565.4524
408.0510, 463.2245
409.2450, 457.0195
410.4400, 363.8336
411.6340, 297.6656
412.8280, 349.5156
414.0220, 301.3843
415.2160, 248.2705
416.4100, 219.1755
417.6030, 189.0984
418.7970, 153.5912
419.9900, 126.5568
421.1830, 88.11658
422.3760, 113.1227
423.5690, 64.13501
424.7610, 37.45947
425.9540, 54.52380
427.1460, 6.393188
428.3380, 28.70776
429.5300, 25.17273
430.7220, 15.03821
431.9140, 3.887207
433.1050, 15.71814
434.2970, 6.531738
435.4880, 12.32788
436.6790, 19.89343
437.8700, 40.13330
439.0610, 71.02832
440.2510, 118.7490
441.4420, 156.9661
442.6320, 222.2804
443.8220, 284.6160
445.0120, 339.9706
446.2020, 501.3440
447.3910, 592.7383
448.5810, 684.1511
449.7700, 824.5822
450.9600, 892.0308
452.1490, 1057.498
453.3370, 1069.982
454.5260, 892.4841
455.7150, 721.0042
456.9030, 487.5422
458.0910, 383.0992
459.2800, 187.6740
460.4670, 115.2671
461.6550, 52.87793
462.8430, 57.50586
464.0300, 10.15125
465.2180, 4.814697
466.4050, 31.49524
467.5920, 25.80713
468.7790, 32.90771
469.9650, 5.639648
471.1520, 49.38843
472.3380, 68.15393
473.5250, 98.93640
474.7110, 138.7367
475.8970, 195.5552
477.0820, 301.3916
478.2680, 425.2455
479.4540, 582.8840
480.6390, 751.8229
481.8240, 1016.319
483.0090, 1435.490
484.1940, 1850.489
485.3780, 2417.243
486.5630, 2951.336
487.7470, 3466.355
488.9320, 4090.382
490.1160, 4731.325
491.3000, 5293.392
492.4830, 5494.483
493.6670, 5609.596
494.8500, 5481.738
496.0340, 4995.912
497.2170, 4317.112
498.4000, 3590.600
499.5820, 3139.860
500.7650, 2965.150
501.9480, 3032.473
503.1300, 3469.363
504.3120, 4383.931
505.4940, 5610.711
506.6760, 7515.106
507.8580, 9988.515
509.0390, 12267.10
510.2210, 15026.53
511.4020, 17421.97
512.5830, 19760.25
513.7640, 21294.75
514.9450, 21388.38
516.1250, 20722.88
517.3060, 19197.79
518.4860, 16632.08
519.6660, 13732.12
520.8460, 10636.35
522.0260, 8187.242
523.2060, 6212.468
524.3850, 4742.608
525.5650, 3801.242
526.7440, 2949.200
527.9230, 2505.986
529.1020, 2158.475
530.2810, 1918.261
531.4590, 1718.106
532.6380, 1591.770
533.8160, 1411.445
534.9940, 1307.130
536.1720, 1200.386
537.3500, 1158.103
538.5270, 1100.997
539.7050, 1081.687
540.8820, 1059.774
542.0590, 1043.450
543.2360, 1053.638
544.4130, 1081.485
545.5900, 1214.131
546.7660, 1222.143
547.9430, 1213.032
549.1190, 1353.949
550.2950, 1372.903
551.4710, 1462.023
552.6470, 1517.886
553.8220, 1511.752
554.9980, 1474.788
556.1730, 1313.669
557.3480, 1122.698
558.5230, 909.6292
559.6980, 855.0854
560.8730, 783.8705
562.0470, 787.5039
563.2220, 769.5166
564.3960, 826.1848
565.5700, 863.7880
566.7440, 1041.744
567.9170, 1173.705
569.0910, 1401.615
570.2640, 1584.589
571.4380, 1770.204
572.6110, 2006.016
573.7840, 2118.970
574.9570, 2254.967
576.1290, 2213.911
577.3020, 2129.868
578.4740, 1849.922
579.6460, 1539.128
580.8180, 1239.257
581.9900, 911.2859
583.1620, 750.3196
584.3330, 569.9766
585.5040, 502.1622
586.6760, 413.3284
587.8470, 376.9724
589.0180, 359.0946
590.1880, 299.1548
591.3590, 253.2190
592.5290, 259.2872
593.7000, 263.3593
594.8700, 192.4348
596.0400, 210.5140
597.2090, 194.6437
598.3790, 181.0098
599.5490, 181.0990
600.7180, 130.3984
601.8870, 146.4939
603.0560, 66.59229
604.2250, 131.6934
605.3940, 92.93359
606.5620, 106.0400
607.7300, 100.1490
608.8990, 58.70447
610.0670, 55.81812
611.2350, 50.93384
612.4020, 15.05164
613.5700, 33.17151
614.7370, 36.53931
615.9050, 12.95032
617.0720, 10.37939
618.2390, 7.680054
619.4060, 16.58862
620.5720, 4.3212999E-02
621.7390, 11.69214
622.9050, 3.711182
624.0710, 1.486084
625.2370, 13.03101
626.4030, 18.61426
627.5690, 23.48279
628.7340, 16.34082
629.9000, 14.25317
631.0650, 23.82605
632.2300, 28.90515
633.3950, 34.79016
634.5600, 38.06274
635.7240, 29.14087
636.8890, 5.218506
638.0530, 18.70496
639.2170, 19.35925
640.3810, 11.42236
641.5450, 28.48474
642.7080, 5.454224
643.8720, 16.39990
645.0350, 2.358154
646.1980, 32.67798
647.3610, 46.71252
648.5240, 2.745728
649.6870, 12.77502
650.8490, 11.19727
652.0120, 8.180542
653.1740, 7.826538
654.3360, 13.16895
655.4980, 9.823120
656.6600, 17.18713
657.8210, 23.21216
658.9830, 1.255005
660.1440, 21.30518
661.3050, 49.37256
662.4660, 20.47156
663.6270, 1.587646
664.7870, 26.71179
665.9480, 14.85632
667.1080, 11.56372
668.2680, 6.188477
669.4280, 7.628052
670.5880, 6.439941
671.7480, 31.24670
672.9070, 50.05090
674.0670, 40.41907
675.2260, 17.34961
676.3850, 24.43164
677.5440, 10.79004
678.7030, 23.02576
679.8610, 4.718262
681.0200, 5.544434
682.1780, 3.181030
683.3360, 14.89880
684.4940, 21.38745
685.6520, 43.69360
686.8090, 8.031189
687.9670, 25.38220
689.1240, 8.755249
690.2810, 6.857788
691.4380, 20.46429
692.5950, 23.21979
693.7520, 10.66565
694.9080, 26.25879
696.0650, 11.84821
697.2210, 18.43213
698.3770, 1.011658
699.5330, 4.418152
700.6880, 1.698120
701.8440, 15.68701
702.9990, 13.22919
704.1550, 7.765869
705.3100, 39.29584
706.4650, 27.82166
707.6190, 28.34344
708.7740, 31.86139
709.9290, 42.37531
711.0830, 66.88684
712.2370, 48.39514
713.3910, 10.89941
714.5450, 28.39856
715.6980, 16.89386
716.8520, 20.38477
718.0050, 10.87091
719.1580, 15.34485
720.3110, 30.82526
721.4640, 29.29541
722.6170, 0.2388310
723.7700, 13.21661
724.9220, 14.66626
726.0740, 0.1102290
727.2260, 18.54413
728.3780, 44.97278
729.5300, 33.39722
730.6810, 40.81714
731.8330, 43.52576
732.9840, 56.64404
734.1350, 37.05096
735.2860, 20.45349
736.4370, 6.851074
737.5880, 39.24152
738.7380, 9.627563
739.8880, 29.00720
741.0390, 47.38251
742.1890, 40.75342
743.3380, 13.11993
744.4880, 31.48071
745.6380, 79.83728
746.7870, 4.810547
747.9360, 60.53149
749.0850, 35.86908
750.2340, 41.20245
751.3830, 27.53156
752.5310, 6.856323
753.6800, 5.174377
754.8280, 4.485352
755.9760, 9.789063
757.1240, 1.913269
758.2720, 0.6089480
759.4190, 29.15912
760.5670, 23.79486
761.7140, 11.47668
762.8610, 16.29224
764.0080, 1.144104
765.1550, 26.25360
766.3020, 11.44818
767.4480, 32.65735
768.5950, 70.96429
769.7410, 32.16656
770.8870, 40.36523
772.0330, 73.56055
773.1780, 97.75549
774.3240, 107.9566
775.4690, 114.1611
776.6140, 121.1092
777.7590, 135.3280
778.9040, 147.5594
780.0490, 174.7903
781.1940, 183.4717
782.3380, 165.4971
783.4820, 225.3289
784.6260, 244.5640
785.7700, 252.7972
786.9140, 321.8707
788.0580, 319.1033
789.2010, 400.3512
790.3450, 449.7609
791.4880, 476.9688
792.6310, 521.0568
793.7730, 622.2809
794.9160, 735.1067
796.0590, 815.5648
797.2010, 901.2950
798.3430, 979.8374
799.4850, 1144.722
800.6270, 1275.288
801.7690, 1544.949
802.9100, 1619.128
804.0520, 1967.990
805.1930, 2421.035
806.3340, 2814.386
807.4750, 3445.452
808.6160, 4165.466
809.7560, 5033.672
810.8970, 6095.876
812.0370, 6987.080
813.1770, 7987.726
814.3170, 8802.929
815.4570, 9463.944
816.5960, 9547.236
817.7360, 9213.123
818.8750, 8246.425
820.0140, 7168.226
821.1530, 6189.379
822.2920, 5192.742
823.4310, 4559.744
824.5690, 4112.880
825.7070, 3855.997
826.8460, 3843.084
827.9840, 3719.017
829.1220, 3863.212
830.2590, 4018.415
831.3970, 4247.455
832.5340, 4581.659
833.6710, 5259.724
834.8080, 5799.894
835.9450, 6736.546
837.0820, 7623.882
838.2190, 8679.375
839.3550, 9491.507
840.4910, 10260.59
841.6270, 10667.54
842.7630, 10901.76
843.8990, 10570.97
845.0350, 9762.192
846.1700, 9042.410
847.3060, 7820.631
848.4410, 7012.854
849.5760, 6283.078
850.7100, 6057.119
851.8450, 5561.348
852.9800, 5393.498
854.1140, 5493.690
855.2480, 5640.736
856.3820, 5989.867
857.5160, 6328.105
858.6500, 7002.346
859.7830, 7923.970
860.9170, 8918.074
862.0500, 10570.20
863.1830, 12734.86
864.3160, 15477.05
865.4480, 19714.31
866.5810, 25056.56
867.7130, 31996.83
868.8460, 39241.08
869.9780, 46601.36
871.1100, 53276.62
872.2410, 58599.85
873.3730, 61092.85
874.5050, 60773.13
875.6360, 56301.21
876.7670, 48604.49
877.8980, 39097.78
879.0290, 29504.07
880.1590, 22004.24
881.2900, 16079.54
882.4200, 12250.84
883.5500, 9339.332
884.6800, 7346.643
885.8100, 5868.958
886.9400, 4893.279
888.0690, 4060.602
889.1990, 3445.683
890.3280, 2950.728
891.4570, 2608.759
892.5860, 2312.924
893.7140, 2054.665
894.8430, 1809.593
895.9710, 1660.720
897.1000, 1541.220
898.2280, 1331.508
899.3560, 1283.617
900.4830, 1201.892
901.6110, 1069.287
902.7380, 1021.752
903.8660, 971.1603
904.9930, 936.7823
906.1200, 893.3249
907.2460, 835.6326
908.3730, 805.7023
909.5000, 771.2746
910.6260, 701.2271
911.7520, 655.2419
912.8780, 566.8358
914.0040, 566.9360
915.1290, 515.6138
916.2550, 507.3843
917.3800, 457.4874
918.5050, 440.4830
919.6300, 411.3634
920.7550, 378.0345
921.8800, 384.2206
923.0040, 334.0314
924.1290, 348.7991
925.2530, 303.5741
926.3770, 274.5533
927.5010, 242.0863
928.6250, 216.2548
929.7480, 220.8136
930.8720, 228.3707
931.9950, 166.9399
933.1180, 181.5159
934.2410, 140.1035
935.3640, 91.70996
936.4860, 134.3281
937.6090, 100.9532
938.7310, 114.5916
939.8530, 94.24042
940.9750, 63.89899
942.0970, 76.56580
943.2180, 61.23804
944.3400, 50.91565
945.4610, 87.59760
946.5820, 89.28400
947.7030, 79.97467
948.8240, 90.67682
949.9450, 104.3833
951.0650, 94.09961
952.1860, 125.8288
953.3060, 103.5641
954.4260, 75.30811
955.5460, 128.0587
956.6650, 99.81396
957.7850, 76.58191
958.9040, 123.3683
960.0230, 86.16400
961.1420, 109.9734
962.2610, 106.7924
963.3800, 114.6172
964.4990, 117.4467
965.6170, 123.2805
966.7350, 123.1198
967.8530, 146.9635
968.9710, 157.8124
970.0890, 153.6661
971.2070, 173.5270
972.3240, 167.3965
973.4410, 181.2739
974.5580, 183.1561
975.6750, 184.0436
976.7920, 206.9369
977.9090, 181.8347
979.0250, 245.7407
980.1410, 254.6513
981.2580, 237.5685
982.3740, 275.5034
983.4890, 314.4487
984.6050, 459.4027
985.7200, 402.3649
986.8360, 568.3319
987.9510, 642.3043
989.0660, 874.2814
990.1810, 1006.265
991.2950, 1333.258
992.4100, 1670.261
993.5240, 1796.270
994.6390, 2053.287
995.7530, 2085.311
996.8660, 2077.351
997.9800, 1799.399
999.0940, 1478.455
1000.207, 1155.517
1001.320, 885.5916
1002.433, 647.6761
1003.546, 470.7646
1004.659, 383.8619
1005.772, 320.9686
1006.884, 287.0807
1007.996, 223.2061
1009.108, 203.3362
1010.220, 144.4796
1011.332, 118.6893
1012.444, 100.7858
1013.555, 70.94824
1014.666, 76.11761
1015.777, 65.29095
1016.888, 78.46814
1017.999, 59.65338
1019.110, 65.84229
1020.220, 78.03497
1021.331, 84.23132
1022.441, 48.43127
1023.551, 32.63617
1024.661, 35.84601
1025.770, 46.06085
1026.880, 27.28052
1027.989, 14.50653
1029.098, 16.14374
1030.207, 19.98322
1031.316, 10.23981
1032.425, 3.495178
1033.533, 6.222351
1034.642, 6.052917
1035.750, 40.66876
1036.858, 4.593689
1037.966, 41.14099
1039.073, 3.107727
1040.181, 15.35913
1041.288, 14.38635
1042.396, 39.13568
1043.503, 28.90131
1044.610, 29.67816
1045.716, 54.46680
1046.823, 62.28015
1047.929, 11.12250
1049.036, 10.03223
1050.142, 12.81067
1051.248, 27.65741
1052.353, 25.51562
1053.459, 3.384338
1054.564, 13.25311
1055.670, 6.126404
1056.775, 5.001038
1057.880, 4.876465
1058.985, 8.752930
1060.089, 20.36786
1061.194, 11.50934
1062.298, 1.609253
1063.402, 54.72900
1064.506, 33.85071
1065.610, 70.97412
1066.713, 63.09924
1067.817, 123.2261
1068.920, 117.3545
1070.023, 137.4844
1071.126, 156.6157
1072.229, 131.7485
1073.332, 147.8826
1074.435, 167.0179
1075.537, 164.1544
1076.639, 195.2921
1077.741, 189.4309
1078.843, 224.5709
1079.945, 226.7117
1081.046, 237.8536
1082.148, 216.9966
1083.249, 247.1404
1084.350, 272.2850
1085.451, 316.4304
1086.551, 313.5765
1087.652, 324.7233
1088.752, 329.8707
1089.853, 327.4427
1090.953, 318.1672
1092.053, 328.3162
1093.152, 321.4655
1094.252, 330.6151
1095.351, 375.7648
1096.451, 372.9148
1097.550, 402.0648
1098.649, 363.2149
1099.748, 395.3652
1100.846, 394.5154
1101.945, 370.6655
1103.043, 374.8157
1104.141, 393.9783
1105.239, 374.1280
1106.337, 361.2776
1107.434, 375.4482
1108.532, 338.5971
1109.629, 320.7786
1110.726, 356.7312
1111.823, 333.9106
1112.920, 290.5150
1114.017, 297.7698
1115.113, 293.2830
1116.210, 294.3727
1117.306, 279.0312
1118.402, 282.3480
1119.498, 240.6260
1120.593, 207.8022
1121.689, 183.2123
1122.784, 167.6450
1123.879, 208.9285
1124.974, 155.1613
1126.069, 177.6142
1127.164, 178.9434
1128.259, 140.8612
1129.353, 141.2328
1130.447, 162.1832
1131.541, 144.3983
1132.635, 128.7085
1133.729, 99.03644
1134.822, 124.1989
1135.916, 110.3832
1137.009, 106.6532
1138.102, 102.0021
1139.195, 96.94684
1140.288, 119.2131
1141.380, 127.2067
1142.473, 123.4124
1143.565, 122.0800
1144.657, 139.2001
1145.749, 101.7900
1146.841, 116.9116
1147.932, 91.03162
1149.024, 96.00153
1150.115, 142.2890
1151.206, 116.3878
1152.297, 137.4559
1153.388, 166.5473
1154.479, 152.6370
1155.569, 150.6943
1156.659, 169.7598
1157.750, 199.9177
1158.839, 185.9640
1159.929, 164.0282
1161.019, 210.0990
1162.108, 193.1339
1163.198, 208.1840
1164.287, 186.1083
1165.376, 224.9302
1166.465, 250.9489
1167.553, 238.8187
1168.642, 249.8293
1169.730, 252.6548
1170.818, 263.6575
1171.906, 256.7214
1172.994, 275.0788
1174.082, 243.9346
1175.170, 263.4109
1176.257, 274.8320
1177.344, 261.6998
1178.431, 317.0890
1179.518, 276.5496
1180.605, 313.5187
1181.691, 325.8590
1182.778, 309.3231
1183.864, 287.8956
1184.950, 303.6785
1186.036, 285.9474
1187.122, 300.5935
1188.207, 275.2838
1189.292, 268.9723
1190.378, 272.4615
1191.463, 271.3985
1192.548, 266.7433
1193.632, 250.6617
1194.717, 299.5892
1195.801, 288.5137
1196.886, 250.4348
1197.970, 277.3527
1199.054, 242.2675
1200.137, 229.1790
1201.221, 257.0872
1202.305, 231.9921
1203.388, 231.8936
1204.471, 246.7917
1205.554, 238.6866
1206.637, 217.5781
1207.719, 209.4662
1208.802, 180.3508
1209.884, 214.2319
1210.966, 208.1097
1212.048, 208.9840
1213.130, 184.8547
1214.212, 150.7219
1215.293, 151.5856
1216.374, 161.4457
1217.456, 174.3022
1218.536, 150.1552
1219.617, 144.0045
1220.698, 119.8502
1221.778, 103.6924
1222.859, 122.5308
1223.939, 59.36548
1225.019, 111.1965
1226.099, 68.02393
1227.178, 92.84760
1228.258, 81.66748
1229.337, 59.48364
1230.417, 62.29620
1231.496, 61.10492
1232.574, 36.90991
1233.653, 25.71106
1234.732, 32.50830
1235.810, 34.30176
1236.888, 24.09149
1237.966, 45.87720
1239.044, 21.65912
1240.122, 4.563049
1241.199, 22.20349
1242.277, 0.9659420
1243.354, 41.27997
1244.431, 13.55646
1245.508, 6.848816
1246.585, 1.153625
1247.661, 12.81714
1248.738, 10.15680
1249.814, 21.88904
1250.890, 4.560791
1251.966, 5.773987
1253.042, 17.12054
1254.117, 13.51526
1255.193, 3.146362
1256.268, 6.770508
1257.343, 36.61108
1258.418, 4.979553
1259.493, 5.435974
1260.567, 14.13715
1261.642, 27.29431
1262.716, 11.74854
1263.790, 19.78271
1264.864, 9.690125
1265.938, 11.17627
1267.011, 4.323547
1268.085, 22.18280
1269.158, 7.291321
1270.231, 23.23981
1271.304, 11.20892
1272.377, 18.34692
1273.450, 23.07977
1274.522, 1.497253
1275.594, 20.91718
1276.666, 20.32782
1277.738, 10.73462
1278.810, 29.13690
1279.882, 22.53583
1280.953, 34.93097
1282.025, 22.32275
1283.096, 21.71088
1284.167, 36.09528
1285.238, 25.47650
1286.308, 8.854126
1287.379, 31.22760
1288.449, 22.59778
1289.519, 19.96460
1290.589, 41.32782
1291.659, 22.68805
1292.729, 40.04480
1293.798, 50.39923
1294.868, 60.75189
1295.937, 32.10150
1297.006, 52.45770
1298.075, 20.81097
1299.143, 48.17096
1300.212, 11.52814
1301.280, 56.88177
1302.348, 26.23694
1303.416, 31.59888
1304.484, 23.96515
1305.552, 19.33582
1306.620, 12.71729
1307.687, 30.11169
1308.754, 40.50623
1309.821, 77.89819
1310.888, 22.29108
1311.955, 69.68848
1313.021, 34.09009
1314.088, 29.49048
1315.154, 34.89197
1316.220, 45.29309
1317.286, 32.69427
1318.352, 42.09473
1319.417, 27.49585
1320.483, 14.89423
1321.548, 41.29205
1322.613, 46.68707
1323.678, 59.07898
1324.743, 64.08643
1325.807, 59.26801
1326.872, 60.23584
1327.936, 47.61517
1329.000, 33.99133
1330.064, 34.36438
1331.128, 68.73431
1332.191, 67.10107
1333.255, 63.46460
1334.318, 49.82507
1335.381, 45.18237
1336.444, 44.99628
1337.507, 45.66370
1338.569, 51.23535
1339.632, 68.58008
1340.694, 79.92163
1341.756, 115.2600
1342.818, 71.59528
1343.880, 93.92731
1344.941, 97.25623
1346.003, 58.58203
1347.064, 108.9048
1348.125, 102.2248
1349.186, 116.5420
1350.247, 125.8564
1351.308, 120.1682
1352.368, 131.4772
1353.428, 123.7838
1354.489, 142.0880
1355.549, 138.3898
1356.608, 130.6895
1357.668, 136.9871
1358.727, 127.2828
1359.787, 137.5766
1360.846, 163.8687
1361.905, 169.1467
1362.964, 154.4358
1364.022, 144.7235
1365.081, 157.9883
1366.139, 154.2732
1367.197, 153.5240
1368.255, 142.0018
1369.313, 151.2510
1370.371, 143.0736
1371.428, 142.2438
1372.486, 144.1541
1373.543, 165.4859
1374.600, 129.1759
1375.657, 158.3478
1376.713, 143.4857
1377.770, 135.7234
1378.826, 145.7251
1379.882, 125.1311
1380.938, 112.8265
1381.994, 114.9997
1383.050, 127.9503
1384.106, 96.02277
1385.161, 128.5041
1386.216, 156.5295
1387.271, 121.9742
1388.326, 126.1518
1389.381, 108.2320
1390.435, 134.2925
1391.490, 164.5162
1392.544, 116.7159
1393.598, 122.8278
1394.652, 127.8586
1395.705, 165.2917
1396.759, 137.4066
1397.812, 127.7868
1398.866, 138.9531
1399.919, 151.6555
1400.972, 163.9037
1402.024, 138.6801
1403.077, 133.9232
1404.129, 128.1662
1405.181, 137.3454
1406.233, 131.6298
1407.285, 144.8893
1408.337, 128.1779
1409.389, 136.4417
1410.440, 122.7057
1411.491, 107.0006
1412.542, 131.2863
1413.593, 103.4783
1414.644, 76.78070
1415.695, 91.06403
1416.745, 121.3398
1417.795, 91.65070
1418.845, 89.94531
1419.895, 107.2625
1420.945, 104.5831
1421.995, 92.90723
1423.044, 71.23492
1424.093, 70.56659
1425.142, 96.87927
1426.191, 63.21918
1427.240, 87.49805
1428.289, 77.08966
1429.337, 77.44324
1430.385, 64.80182
1431.433, 78.15991
1432.481, 53.50470
1433.529, 64.84265
1434.577, 80.23260
1435.624, 82.62024
1436.672, 99.06171
1437.719, 45.46539
1438.766, 67.90643
1439.812, 66.33148
1440.859, 62.73718
1441.905, 76.20239
1442.952, 57.81781
1443.998, 75.22174
1445.044, 69.74530
1446.090, 95.06744
1447.135, 80.13531
1448.181, 53.35107
1449.226, 56.56311
1450.271, 68.77124
1451.316, 25.97559
1452.361, 49.17603
1453.405, 41.37286
1454.450, 65.56586
1455.494, 52.75513
1456.538, 33.94061
1457.582, 51.12244
1458.626, 36.30066
1459.670, 42.47510
1460.713, 22.64600
1461.757, 47.81329
1462.800, 65.97693
1463.843, 41.13690
1464.886, 38.29321
1465.928, 54.44592
1466.971, 26.59497
1468.013, 39.74042
1469.055, 54.88226
1470.097, 34.02057
1471.139, 60.16461
1472.181, 19.32739
1473.222, 27.52454
1474.263, 12.73236
1475.305, 40.94031
1476.346, 46.15491
1477.386, 55.39136
1478.427, 26.63214
1479.468, 38.90674
1480.508, 33.19293
1481.548, 60.51270
1482.588, 39.84753
1483.628, 69.20581
1484.668, 54.59088
1485.707, 38.00317
1486.747, 54.43896
1487.786, 60.88501
1488.825, 57.77289
1489.864, 48.79010
1490.902, 58.24805
1491.941, 54.70966
1492.979, 48.17535
1494.017, 32.64496
1495.055, 54.11829
1496.093, 71.59485
1497.131, 41.07434
1498.168, 57.55664
1499.206, 79.04199
1500.243, 31.52911
1501.280, 33.01666
1502.317, 48.50647
1503.354, 46.99872
1504.390, 58.49194
1505.426, 54.98547
1506.463, 71.47925
1507.499, 60.97107
1508.535, 40.46088
1509.570, 24.95453
1510.606, 36.45728
1511.641, 37.96881
1512.676, 29.48981
1513.711, 11.02106
1514.746, 36.56348
1515.781, 21.11798
1516.816, 29.68549
1517.850, 28.26721
1518.884, 28.86407
1519.918, 36.47742
1520.952, 0.8914180
1521.986, 68.75836
1523.019, 38.42596
1524.053, 28.11169
1525.086, 53.81567
1526.119, 30.53717
1527.152, 49.27527
1528.185, 32.02881
1529.217, 60.79620
1530.250, 43.57666
1531.282, 43.37067
1532.314, 68.17889
1533.346, 56.00208
1534.377, 59.46240
1535.409, 38.69629
1536.440, 45.56958
1537.472, 40.46222
1538.503, 23.37573
1539.534, 30.31213
1540.564, 28.27399
1541.595, 17.26288
1542.625, 3.280579
1543.656, 13.32849
1544.686, 31.40790
1545.716, 12.51996
1546.745, 17.63855
1547.775, 8.817993
1548.804, 10.03326
1549.834, 13.28595
1550.863, 17.57843
1551.892, 7.085938
1552.920, 21.29639
1553.949, 38.72968
1554.977, 9.218384
1556.006, 31.76733
1557.034, 7.381287
1558.062, 10.06549
1559.089, 17.82776
1560.117, 3.675964
1561.144, 13.61823
1562.172, 4.253479
1563.199, 10.96497
1564.226, 35.40082
1565.252, 6.802673
1566.279, 0.4266360
1567.305, 40.58191
1568.332, 4.213562
1569.358, 16.26605
1570.384, 0.0000000E+00
##END=



