##NAMES=Andradite
##RRUFFID=R060449
##IDEAL CHEMISTRY=Ca_3_Fe^3+^_2_(SiO_4_)_3_
##LOCALITY=Namibia
##OWNER=RRUFF
##SOURCE=Gemological Institute of America
##DESCRIPTION=Blue fragment, variety demantoid
##STATUS=The identification of this mineral has been confirmed by X-ray diffraction and chemical analysis
##URL=rruff.info/R060449
##MEASURED CHEMISTRY=Ca_3.00_(Fe^3+^_1.93_Al_0.07_)_Î£=2_(Si_1.00_O_4_)_3__
##PIN_ID=L01084
##ORIENTATION=Laser parallel to a* (1 0 0). Fiducial mark perpendicular to laser is parallel to c [0 0 1]
51.43100, 0.0000000E+00
52.67100, 3.423401
53.91000, 14.54407
55.14900, 0.3443910
56.38700, 4.018311
57.62600, 4.733307
58.86400, 12.10559
60.10300, 20.06866
61.34100, 4.368530
62.57900, 4.990295
63.81700, 1.919861
65.05400, 11.88104
66.29200, 2.547852
67.52900, 11.18311
68.76700, 7.001068
70.00400, 18.77451
71.24100, 37.11597
72.47700, 28.49506
73.71400, 41.08942
74.95100, 43.84601
76.18700, 36.72559
77.42300, 47.69864
78.65900, 41.74295
79.89500, 25.84650
81.13100, 37.04089
82.36700, 50.32825
83.60200, 59.68674
84.83700, 72.09933
86.07200, 58.55261
87.30800, 65.03604
88.54200, 56.56757
89.77700, 69.18420
91.01200, 93.26575
92.24600, 101.9908
93.48000, 77.78741
94.71400, 90.48199
95.94800, 78.08383
97.18200, 75.60129
98.41600, 87.04205
99.64900, 101.4130
100.8830, 83.72015
102.1160, 84.96927
103.3490, 72.16534
104.5820, 85.31311
105.8150, 111.4167
107.0470, 136.4800
108.2800, 130.7178
109.5120, 154.3334
110.7440, 126.1063
111.9760, 90.81366
113.2080, 97.44794
114.4400, 98.01453
115.6710, 89.51852
116.9030, 99.96466
118.1340, 111.3573
119.3650, 71.70032
120.5960, 76.99738
121.8270, 89.25195
123.0580, 96.46741
124.2880, 75.64673
125.5190, 71.00714
126.7490, 64.98950
127.9790, 56.38123
129.2090, 73.02167
130.4390, 87.44379
131.6680, 94.22729
132.8980, 89.66873
134.1270, 77.90253
135.3560, 77.66431
136.5850, 107.7120
137.8140, 82.12726
139.0430, 76.55005
140.2710, 92.98077
141.5000, 71.41968
142.7280, 61.86700
143.9560, 74.32300
145.1840, 75.78784
146.4120, 80.26135
147.6390, 72.74365
148.8670, 73.23456
150.0940, 79.19611
151.3210, 79.24255
152.5490, 96.75977
153.7750, 86.28589
155.0020, 102.8211
156.2290, 101.3653
157.4550, 156.9185
158.6810, 187.4807
159.9080, 233.0522
161.1340, 383.6331
162.3590, 631.2230
163.5850, 968.5878
164.8110, 1390.069
166.0360, 1688.025
167.2610, 1983.634
168.4860, 2288.183
169.7110, 2472.688
170.9360, 2749.930
172.1610, 2948.184
173.3850, 3051.451
174.6100, 3452.731
175.8340, 3489.025
177.0580, 3007.333
178.2820, 2212.653
179.5050, 1398.989
180.7290, 819.3383
181.9520, 483.7018
183.1760, 285.0780
184.3990, 216.4661
185.6220, 152.8660
186.8450, 106.2783
188.0670, 113.7032
189.2900, 47.14099
190.5120, 92.59222
191.7340, 57.05701
192.9560, 36.53589
194.1780, 33.02893
195.4000, 48.53662
196.6220, 28.05951
197.8430, 20.59790
199.0640, 3.583557
200.2860, 20.54236
201.5070, 6.474548
202.7270, 32.34351
203.9480, 13.24792
205.1690, 15.82581
206.3890, 30.97064
207.6090, 49.08136
208.8290, 45.22766
210.0490, 47.32672
211.2690, 36.42383
212.4890, 38.24048
213.7080, 28.32605
214.9280, 2.594238
216.1470, 36.52686
217.3660, 64.47382
218.5850, 194.4344
219.8030, 238.4077
221.0220, 411.3928
222.2400, 560.3889
223.4590, 741.3959
224.6770, 1200.413
225.8950, 1815.440
227.1120, 2735.477
228.3300, 3433.524
229.5480, 3611.580
230.7650, 3936.644
231.9820, 4790.718
233.1990, 5397.800
234.4160, 5557.892
235.6330, 5545.991
236.8490, 6185.100
238.0660, 6401.214
239.2820, 5454.332
240.4980, 3859.453
241.7140, 2328.578
242.9300, 1259.708
244.1460, 666.8419
245.3610, 360.9816
246.5770, 202.1268
247.7920, 103.2783
249.0070, 71.43616
250.2220, 55.60077
251.4370, 35.77258
252.6510, 75.95178
253.8660, 121.1387
255.0800, 273.3328
256.2940, 379.5322
257.5080, 532.7368
258.7220, 626.7683
259.9360, 724.8224
261.1490, 807.3828
262.3630, 879.6104
263.5760, 949.8447
264.7890, 994.0861
266.0020, 1147.335
267.2150, 1135.592
268.4270, 848.8561
269.6400, 516.1290
270.8520, 247.4105
272.0640, 100.6940
273.2760, 37.98157
274.4880, 67.72357
275.7000, 77.46979
276.9120, 51.27948
278.1230, 90.13904
279.3340, 63.04797
280.5450, 60.96362
281.7560, 64.88049
282.9670, 50.79926
284.1780, 36.68109
285.3880, 17.62939
286.5980, 15.46692
287.8090, 43.57635
289.0190, 91.69916
290.2290, 111.8353
291.4380, 100.9848
292.6480, 129.1478
293.8570, 193.3243
295.0670, 327.5143
296.2760, 348.7180
297.4850, 422.9354
298.6930, 590.1666
299.9020, 802.4115
301.1110, 1128.670
302.3190, 1733.943
303.5270, 2345.230
304.7350, 2941.530
305.9430, 3505.013
307.1510, 4063.001
308.3580, 4532.517
309.5660, 5092.851
310.7730, 5435.163
311.9800, 5843.442
313.1870, 6408.698
314.3940, 6180.946
315.6010, 5400.206
316.8070, 4177.481
318.0130, 3164.773
319.2200, 2642.081
320.4260, 2385.405
321.6310, 2397.746
322.8370, 2439.104
324.0430, 2421.477
325.2480, 2554.868
326.4540, 2357.537
327.6590, 2277.699
328.8640, 1919.139
330.0680, 1522.596
331.2730, 1134.069
332.4780, 992.5603
333.6820, 959.0680
334.8860, 954.5939
336.0900, 994.1390
337.2940, 1111.706
338.4980, 1339.297
339.7010, 1576.909
340.9050, 1863.543
342.1080, 2480.197
343.3110, 3103.849
344.5140, 3771.958
345.7170, 4377.646
346.9200, 5020.944
348.1220, 5861.691
349.3240, 6538.290
350.5270, 7457.489
351.7290, 8311.836
352.9310, 8929.152
354.1320, 9590.729
355.3340, 9828.225
356.5350, 10582.39
357.7370, 12317.51
358.9380, 14951.24
360.1390, 19387.71
361.3400, 24928.66
362.5400, 31085.63
363.7410, 36532.61
364.9410, 42147.61
366.1410, 47630.63
367.3410, 53244.67
368.5410, 57505.72
369.7410, 60631.80
370.9400, 62125.89
372.1400, 60649.00
373.3390, 54654.13
374.5380, 45711.29
375.7370, 35734.45
376.9360, 26973.65
378.1350, 20378.87
379.3330, 15299.11
380.5310, 11921.36
381.7300, 9396.646
382.9280, 7360.962
384.1260, 5868.302
385.3230, 4821.665
386.5210, 3999.043
387.7180, 3208.441
388.9160, 2751.854
390.1130, 2385.291
391.3100, 2073.743
392.5060, 1827.217
393.7030, 1626.715
394.9000, 1403.235
396.0960, 1271.775
397.2920, 1142.343
398.4880, 1078.934
399.6840, 940.5474
400.8800, 820.1808
402.0750, 822.8320
403.2710, 730.5007
404.4660, 659.1870
405.6610, 614.8916
406.8560, 558.6138
408.0510, 517.1047
409.2450, 479.8351
410.4400, 444.9218
411.6340, 406.7382
412.8280, 372.5730
414.0220, 322.4299
415.2160, 270.3079
416.4100, 246.5234
417.6030, 196.1329
418.7970, 191.4303
419.9900, 153.1997
421.1830, 127.4803
422.3760, 88.59045
423.5690, 73.30811
424.7610, 40.17896
425.9540, 74.87720
427.1460, 38.38208
428.3380, 44.69299
429.5300, 64.98657
430.7220, 38.13013
431.9140, 20.29333
433.1050, 30.47595
434.2970, 24.77490
435.4880, 70.89929
436.6790, 66.14014
437.8700, 116.4001
439.0610, 189.6853
440.2510, 277.9926
441.4420, 395.1490
442.6320, 501.6652
443.8220, 678.0303
445.0120, 854.4144
446.2020, 1022.818
447.3910, 1190.240
448.5810, 1338.682
449.7700, 1457.145
450.9600, 1600.629
452.1490, 1658.134
453.3370, 1584.660
454.5260, 1449.205
455.7150, 1156.773
456.9030, 842.3594
458.0910, 582.9656
459.2800, 348.5909
460.4670, 252.2373
461.6550, 137.9031
462.8430, 83.58801
464.0300, 47.29187
465.2180, 70.01477
466.4050, 49.75732
467.5920, 44.51904
468.7790, 47.29932
469.9650, 87.09839
471.1520, 70.91614
472.3380, 111.7524
473.5250, 118.6071
474.7110, 142.5999
475.8970, 202.4916
477.0820, 270.6694
478.2680, 343.0151
479.4540, 442.0696
480.6390, 616.6833
481.8240, 852.3618
483.0090, 1015.734
484.1940, 1299.169
485.3780, 1751.079
486.5630, 2185.143
487.7470, 2490.228
488.9320, 2933.330
490.1160, 3348.719
491.3000, 3742.871
492.4830, 4024.026
493.6670, 4122.207
494.8500, 4126.413
496.0340, 3885.311
497.2170, 3537.632
498.4000, 3092.699
499.5820, 2845.028
500.7650, 2768.097
501.9480, 2868.250
503.1300, 3529.650
504.3120, 4300.189
505.4940, 5766.790
506.6760, 7756.238
507.8580, 10230.87
509.0390, 12511.35
510.2210, 15122.84
511.4020, 17544.34
512.5830, 19949.90
513.7640, 22203.01
514.9450, 23605.56
516.1250, 24323.57
517.3060, 23524.20
518.4860, 21112.43
519.6660, 17365.22
520.8460, 13472.72
522.0260, 10207.42
523.2060, 7625.422
524.3850, 5718.207
525.5650, 4501.140
526.7440, 3587.206
527.9230, 3049.907
529.1020, 2585.622
530.2810, 2285.348
531.4590, 2008.968
532.6380, 1749.719
533.8160, 1614.261
534.9940, 1533.408
536.1720, 1517.283
537.3500, 1379.329
538.5270, 1350.709
539.7050, 1356.880
540.8820, 1331.545
542.0590, 1330.938
543.2360, 1418.823
544.4130, 1503.688
545.5900, 1624.563
546.7660, 1738.578
547.9430, 1784.474
549.1190, 1955.937
550.2950, 2011.374
551.4710, 2043.350
552.6470, 2094.348
553.8220, 2041.428
554.9980, 1894.354
556.1730, 1670.011
557.3480, 1417.100
558.5230, 1095.448
559.6980, 903.2380
560.8730, 724.4731
562.0470, 682.7427
563.2220, 505.8057
564.3960, 515.9098
565.5700, 445.0410
566.7440, 468.1785
567.9170, 440.3389
569.0910, 464.5476
570.2640, 476.7434
571.4380, 509.9508
572.6110, 485.1655
573.7840, 534.3876
574.9570, 515.6167
576.1290, 510.8524
577.3020, 536.0952
578.4740, 458.3447
579.6460, 433.8558
580.8180, 385.7529
581.9900, 307.0216
583.1620, 243.3546
584.3330, 252.6355
585.5040, 274.9222
586.6760, 206.2146
587.8470, 264.5128
589.0180, 215.0006
590.1880, 226.6539
591.3590, 253.4692
592.5290, 215.2264
593.7000, 273.0549
594.8700, 169.5546
596.0400, 183.4104
597.2090, 168.7488
598.3790, 214.0916
599.5490, 175.4386
600.7180, 152.1848
601.8870, 155.5961
603.0560, 88.95532
604.2250, 139.3182
605.3940, 81.68494
606.5620, 102.2145
607.7300, 92.63989
608.8990, 64.01672
610.0670, 39.39673
611.2350, 28.77991
612.4020, 45.16589
613.5700, 22.55481
614.7370, 5.053711
615.9050, 15.35132
617.0720, 9.253662
618.2390, 12.72449
619.4060, 26.13971
620.5720, 35.55359
621.7390, 17.50781
622.9050, 29.60187
624.0710, 11.11810
625.2370, 37.33716
626.4030, 4.322021
627.5690, 20.75842
628.7340, 8.097107
629.9000, 25.56317
631.0650, 0.7655640
632.2300, 2.094604
633.3950, 2.424133
634.5600, 42.75403
635.7240, 12.91547
636.8890, 19.59125
638.0530, 14.27686
639.2170, 10.03009
640.3810, 12.66302
641.5450, 13.36346
642.7080, 6.928162
643.8720, 0.7805790
645.0350, 1.491760
646.1980, 2.794067
647.3610, 0.9213870
648.5240, 18.36011
649.6870, 5.640869
650.8490, 12.92078
652.0120, 14.80017
653.1740, 6.531860
654.3360, 14.72961
655.4980, 4.010071
656.6600, 13.75586
657.8210, 23.51276
658.9830, 1.714172
660.1440, 10.06287
661.3050, 12.84985
662.4660, 34.64844
663.6270, 47.46948
664.7870, 15.31970
665.9480, 17.18304
667.1080, 13.93909
668.2680, 12.06073
669.4280, 13.18018
670.5880, 7.702698
671.7480, 21.40381
672.9070, 5.491943
674.0670, 15.39758
675.2260, 10.31818
676.3850, 4.748718
677.5440, 35.18988
678.7030, 14.15381
679.8610, 5.132629
681.0200, 0.1221310
682.1780, 14.87994
683.3360, 30.87854
684.4940, 31.49408
685.6520, 10.86688
686.8090, 23.85498
687.9670, 0.8399050
689.1240, 32.18390
690.2810, 7.233154
691.4380, 7.295471
692.5950, 12.62921
693.7520, 5.451111
694.9080, 0.5438840
696.0650, 7.646729
697.2210, 11.76807
698.3770, 1.976501
699.5330, 9.039551
700.6880, 10.80194
701.8440, 28.63721
702.9990, 24.46851
704.1550, 24.29541
705.3100, 39.11780
706.4650, 48.93585
707.6190, 23.74951
708.7740, 34.55823
709.9290, 85.36230
711.0830, 60.16174
712.2370, 53.95654
713.3910, 73.74652
714.5450, 42.53174
715.6980, 66.31219
716.8520, 43.08783
718.0050, 8.141418
719.1580, 2.612976
720.3110, 35.35645
721.4640, 24.09503
722.6170, 35.82788
723.7700, 37.55573
724.9220, 42.27869
726.0740, 58.99646
727.2260, 16.70917
728.3780, 10.41504
729.5300, 6.112366
730.6810, 7.799927
731.8330, 6.144104
732.9840, 17.97394
734.1350, 5.807800
735.2860, 45.45911
736.4370, 41.10510
737.5880, 52.74597
738.7380, 9.381470
739.8880, 27.00806
741.0390, 49.62878
742.1890, 92.24426
743.3380, 48.85425
744.4880, 19.45911
745.6380, 28.05701
746.7870, 64.64911
747.9360, 41.23596
749.0850, 71.81732
750.2340, 40.39337
751.3830, 69.96417
752.5310, 52.52954
753.6800, 33.96979
754.8280, 51.52435
755.9760, 20.80542
757.1240, 16.93091
758.2720, 15.35950
759.4190, 0.2406010
760.5670, 2.169861
761.7140, 16.20819
762.8610, 3.299438
764.0080, 4.925720
765.1550, 16.40912
766.3020, 37.88672
767.4480, 66.35962
768.5950, 77.55927
769.7410, 88.00952
770.8870, 80.47449
772.0330, 141.9418
773.1780, 144.4049
774.3240, 123.2096
775.4690, 183.6240
776.6140, 203.3179
777.7590, 198.7772
778.9040, 209.5266
780.0490, 243.2219
781.1940, 254.6906
782.3380, 268.0338
783.4820, 311.3284
784.6260, 296.7942
785.7700, 367.0988
786.9140, 391.5712
788.0580, 449.0434
789.2010, 560.5119
790.3450, 572.9483
791.4880, 638.8463
792.6310, 710.3073
793.7730, 876.3082
794.9160, 973.7183
796.0590, 1173.535
797.2010, 1266.807
798.3430, 1456.370
799.4850, 1592.749
800.6270, 1927.831
801.7690, 2145.143
802.9100, 2668.353
804.0520, 3171.403
805.1930, 3836.123
806.3340, 4693.545
807.4750, 5768.964
808.6160, 7105.501
809.7560, 8568.916
810.8970, 10123.55
812.0370, 11541.59
813.1770, 12825.91
814.3170, 13833.06
815.4570, 14200.89
816.5960, 14155.94
817.7360, 13103.51
818.8750, 11903.36
820.0140, 10071.72
821.1530, 8433.112
822.2920, 7057.503
823.4310, 6024.763
824.5690, 5378.150
825.7070, 4719.978
826.8460, 4678.842
827.9840, 4536.173
829.1220, 4716.492
830.2590, 5079.738
831.3970, 5610.145
832.5340, 6498.829
833.6710, 7429.089
834.8080, 8551.099
835.9450, 10014.67
837.0820, 11372.83
838.2190, 12864.97
839.3550, 14013.35
840.4910, 14912.71
841.6270, 15322.06
842.7630, 15086.43
843.8990, 14202.81
845.0350, 12683.15
846.1700, 11142.52
847.3060, 9372.887
848.4410, 7795.255
849.5760, 6491.624
850.7100, 5516.992
851.8450, 4720.362
852.9800, 4124.730
854.1140, 3640.099
855.2480, 3283.212
856.3820, 3076.946
857.5160, 2944.315
858.6500, 2822.626
859.7830, 2840.995
860.9170, 2956.365
862.0500, 3232.735
863.1830, 3635.106
864.3160, 4190.293
865.4480, 4919.320
866.5810, 5994.193
867.7130, 7431.128
868.8460, 8933.998
869.9780, 10343.21
871.1100, 11939.06
872.2410, 12942.44
873.3730, 14084.81
874.5050, 14325.19
875.6360, 13323.18
876.7670, 11651.51
877.8980, 9431.891
879.0290, 7156.277
880.1590, 5405.664
881.2900, 4052.893
882.4200, 3023.231
883.5500, 2330.623
884.6800, 1837.016
885.8100, 1509.411
886.9400, 1199.808
888.0690, 1052.207
889.1990, 838.6072
890.3280, 761.9979
891.4570, 649.4031
892.5860, 597.6769
893.7140, 517.9842
894.8430, 407.1150
895.9710, 401.8698
897.1000, 343.7650
898.2280, 317.0800
899.3560, 335.0997
900.4830, 285.2363
901.6110, 224.5996
902.7380, 270.0644
903.8660, 186.5316
904.9930, 229.1178
906.1200, 219.7830
907.2460, 217.8014
908.3730, 205.3621
909.5000, 181.9913
910.6260, 166.8212
911.7520, 151.3671
912.8780, 134.3660
914.0040, 118.5465
915.1290, 137.6149
916.2550, 134.8853
917.3800, 105.5402
918.5050, 107.8908
919.6300, 79.50427
920.7550, 41.07440
921.8800, 99.92114
923.0040, 51.25586
924.1290, 34.83282
925.2530, 63.19055
926.3770, 71.73901
927.5010, 64.34106
928.6250, 80.89655
929.7480, 28.88318
930.8720, 37.45020
931.9950, 7.026672
933.1180, 27.60657
934.2410, 31.19281
935.3640, 61.78619
936.4860, 2.392212
937.6090, 2.985901
938.7310, 16.64337
939.8530, 13.71869
940.9750, 26.91846
942.0970, 18.55798
943.2180, 33.19989
944.3400, 53.84833
945.4610, 24.49921
946.5820, 65.15613
947.7030, 56.00214
948.8240, 52.81671
949.9450, 63.17151
951.0650, 54.86206
952.1860, 61.56128
953.3060, 84.26697
954.4260, 52.97778
955.5460, 87.69141
956.6650, 88.40747
957.7850, 105.1262
958.9040, 99.84814
960.0230, 72.57263
961.1420, 109.3025
962.2610, 153.0460
963.3800, 133.7968
964.4990, 153.5552
965.6170, 121.3170
966.7350, 170.0858
967.8530, 176.8605
968.9710, 175.6429
970.0890, 180.4342
971.2070, 220.2318
972.3240, 240.0375
973.4410, 234.8470
974.5580, 260.6593
975.6750, 267.4742
976.7920, 290.6279
977.9090, 300.1122
979.0250, 340.9352
980.1410, 376.7611
981.2580, 398.5897
982.3740, 436.4216
983.4890, 506.2573
984.6050, 614.0961
985.7200, 748.9398
986.8360, 973.7892
987.9510, 1224.644
989.0660, 1527.504
990.1810, 1887.375
991.2950, 2280.253
992.4100, 2714.137
993.5240, 3061.026
994.6390, 3138.922
995.7530, 3282.822
996.8660, 3012.731
997.9800, 2662.646
999.0940, 2189.569
1000.207, 1709.501
1001.320, 1265.443
1002.433, 1016.390
1003.546, 732.3446
1004.659, 574.3057
1005.772, 511.2744
1006.884, 416.2543
1007.996, 354.2370
1009.108, 285.2222
1010.220, 253.2121
1011.332, 235.2050
1012.444, 206.2004
1013.555, 188.1986
1014.666, 171.6488
1015.777, 174.2104
1016.888, 150.2214
1017.999, 150.2358
1019.110, 157.2526
1020.220, 132.2727
1021.331, 125.2950
1022.441, 81.31964
1023.551, 93.34680
1024.661, 94.37665
1025.770, 109.4116
1026.880, 65.45221
1027.989, 77.49609
1029.098, 80.54327
1030.207, 35.59607
1031.316, 23.65485
1032.425, 34.71649
1033.533, 69.78210
1034.642, 43.85120
1035.750, 35.92261
1036.858, 3.995728
1037.966, 2.929260
1039.073, 21.85413
1040.181, 27.27435
1041.288, 1.734070
1042.396, 20.67944
1043.503, 23.63361
1044.610, 0.5982670
1045.716, 9.562073
1046.823, 28.52942
1047.929, 26.51001
1049.036, 29.50299
1050.142, 2.510132
1051.248, 14.51770
1052.353, 18.53162
1053.459, 49.55432
1054.564, 5.601929
1055.670, 13.65167
1056.775, 0.2922360
1057.880, 13.76349
1058.985, 7.174500
1060.089, 0.1136470
1061.194, 18.05292
1062.298, 7.006470
1063.402, 7.930908
1064.506, 20.86926
1065.610, 60.80853
1066.713, 39.74878
1067.817, 68.68994
1068.920, 80.63196
1070.023, 86.57471
1071.126, 68.48322
1072.229, 122.4274
1073.332, 120.0778
1074.435, 120.0232
1075.537, 170.9691
1076.639, 139.9155
1077.741, 184.8626
1078.843, 178.8102
1079.945, 229.7581
1081.046, 187.7065
1082.148, 238.6553
1083.249, 238.6045
1084.350, 257.5538
1085.451, 259.5034
1086.551, 257.4532
1087.652, 257.4030
1088.752, 275.3531
1089.853, 275.3032
1090.953, 300.2533
1092.053, 319.2035
1093.152, 296.1537
1094.252, 328.1038
1095.351, 320.0538
1096.451, 288.0037
1097.550, 352.9535
1098.649, 397.9029
1099.748, 354.8521
1100.846, 368.8010
1101.945, 404.7496
1103.043, 390.6978
1104.141, 367.6453
1105.239, 374.5927
1106.337, 371.5392
1107.434, 373.4853
1108.532, 355.4308
1109.629, 351.3757
1110.726, 332.3199
1111.823, 306.2844
1112.920, 274.2582
1114.017, 265.3051
1115.113, 271.4583
1116.210, 309.5176
1117.306, 293.8997
1118.402, 259.5547
1119.498, 220.0438
1120.593, 236.6014
1121.689, 222.1133
1122.784, 170.3569
1123.879, 217.8749
1124.974, 188.2908
1126.069, 165.1073
1127.164, 169.6342
1128.259, 141.0013
1129.353, 120.3895
1130.447, 135.4933
1131.541, 95.43457
1132.635, 114.5903
1133.729, 115.6371
1134.822, 84.96735
1135.916, 85.63837
1137.009, 92.14850
1138.102, 92.06689
1139.195, 70.03949
1140.288, 130.9617
1141.380, 126.9207
1142.473, 111.9061
1143.565, 117.8190
1144.657, 80.77686
1145.749, 102.4520
1146.841, 131.4590
1147.932, 124.4732
1149.024, 110.5467
1150.115, 128.4302
1151.206, 108.5009
1152.297, 136.3788
1153.388, 101.2542
1154.479, 136.1793
1155.569, 119.1489
1156.659, 147.6228
1157.750, 192.1277
1158.839, 159.0320
1159.929, 191.9467
1161.019, 186.8709
1162.108, 204.9997
1163.198, 209.7030
1164.287, 214.7527
1165.376, 213.6055
1166.465, 238.4448
1167.553, 243.2808
1168.642, 223.1137
1169.730, 266.8330
1170.818, 226.4728
1171.906, 266.7617
1172.994, 259.5477
1174.082, 273.2220
1175.170, 261.6984
1176.257, 289.5081
1177.344, 287.8231
1178.431, 290.9930
1179.518, 297.2410
1180.605, 254.2903
1181.691, 294.9547
1182.778, 260.9237
1183.864, 287.6308
1184.950, 265.3856
1186.036, 297.8600
1187.122, 268.8462
1188.207, 284.5897
1189.292, 270.5908
1190.378, 265.3668
1191.463, 268.0919
1192.548, 265.9724
1193.632, 239.2595
1194.717, 274.0259
1195.801, 251.7900
1196.886, 255.5565
1197.970, 225.3156
1199.054, 227.0723
1200.137, 208.8264
1201.221, 221.5780
1202.305, 235.3274
1203.388, 220.6981
1204.471, 258.8203
1205.554, 213.5635
1206.637, 205.3044
1207.719, 218.0425
1208.802, 213.7781
1209.884, 191.5112
1210.966, 190.2416
1212.048, 192.9694
1213.130, 191.6945
1214.212, 181.5841
1215.293, 176.1000
1216.374, 153.8538
1217.456, 154.5684
1218.536, 133.2801
1219.617, 120.9891
1220.698, 139.6954
1221.778, 106.3990
1222.859, 96.09991
1223.939, 113.7980
1225.019, 63.49329
1226.099, 71.18591
1227.178, 58.87573
1228.258, 66.56274
1229.337, 72.24695
1230.417, 51.92847
1231.496, 45.60712
1232.574, 34.28296
1233.653, 34.95593
1234.732, 29.62622
1235.810, 28.90112
1236.888, 29.95825
1237.966, 33.62006
1239.044, 28.05829
1240.122, 28.08490
1241.199, 16.58850
1242.277, 14.23877
1243.354, 4.885925
1244.431, 1.579956
1245.508, 4.167542
1246.585, 2.198242
1247.661, 6.570984
1248.738, 3.953125
1249.814, 5.079285
1250.890, 4.385681
1251.966, 0.1483150
1253.042, 4.560852
1254.117, 2.981628
1255.193, 9.409607
1256.268, 4.848389
1257.343, 18.29541
1258.418, 2.757751
1259.493, 14.22723
1260.567, 11.70984
1261.642, 15.20422
1262.716, 3.287903
1263.790, 2.224121
1264.864, 7.742798
1265.938, 5.270935
1267.011, 27.80725
1268.085, 8.636414
1269.158, 18.07678
1270.231, 9.514282
1271.304, 5.948669
1272.377, 18.37958
1273.450, 8.447632
1274.522, 8.767212
1275.594, 2.648132
1276.666, 2.059753
1277.738, 0.4675290
1278.810, 37.87079
1279.882, 0.2715450
1280.953, 29.66766
1282.025, 41.06128
1283.096, 8.452515
1284.167, 2.840698
1285.238, 6.774353
1286.308, 7.397400
1287.379, 9.971375
1288.449, 7.337341
1289.519, 5.700500
1290.589, 1.939331
1291.659, 6.718201
1292.729, 29.76819
1293.798, 17.11835
1294.868, 30.46606
1295.937, 23.81165
1297.006, 42.15509
1298.075, 22.49640
1299.143, 36.83685
1300.212, 18.18066
1301.280, 8.529358
1302.348, 25.87616
1303.416, 35.22626
1304.484, 7.580505
1305.552, 24.93292
1306.620, 9.285889
1307.687, 26.64490
1308.754, 36.01068
1309.821, 38.38257
1310.888, 29.75348
1311.955, 35.12671
1313.021, 16.50317
1314.088, 43.89124
1315.154, 21.27930
1316.220, 25.66937
1317.286, 8.058228
1318.352, 26.44897
1319.417, 28.83838
1320.483, 4.226746
1321.548, 31.61176
1322.613, 20.99670
1323.678, 58.37933
1324.743, 15.75977
1325.807, 21.13788
1326.872, 40.51379
1327.936, 44.88751
1329.000, 36.25903
1330.064, 37.62830
1331.128, 33.99530
1332.191, 45.36011
1333.255, 37.72272
1334.318, 19.08307
1335.381, 73.44116
1336.444, 76.79700
1337.507, 59.15070
1338.569, 43.50208
1339.632, 53.85120
1340.694, 48.19818
1341.756, 77.54291
1342.818, 84.88538
1343.880, 47.22559
1344.941, 85.56366
1346.003, 78.89954
1347.064, 98.23315
1348.125, 82.56458
1349.186, 114.8938
1350.247, 92.22107
1351.308, 78.54620
1352.368, 84.86945
1353.428, 118.1908
1354.489, 117.5104
1355.549, 127.8284
1356.608, 108.1448
1357.668, 129.4598
1358.727, 134.7734
1359.787, 129.0858
1360.846, 131.3970
1361.905, 141.7069
1362.964, 144.0157
1364.022, 154.3234
1365.081, 137.6301
1366.139, 156.9357
1367.197, 146.2404
1368.255, 136.5440
1369.313, 108.8261
1370.371, 166.0972
1371.428, 138.2937
1372.486, 148.3824
1373.543, 120.5637
1374.600, 119.4204
1375.657, 149.0027
1376.713, 119.7496
1377.770, 128.4262
1378.826, 131.1470
1379.882, 95.13446
1380.938, 133.8459
1381.994, 92.65759
1383.050, 94.06708
1384.106, 118.7644
1385.161, 119.6194
1386.216, 108.4520
1387.271, 111.5670
1388.326, 87.84283
1389.381, 94.90247
1390.435, 91.06921
1391.490, 90.95062
1392.544, 121.4896
1393.598, 97.18787
1394.652, 100.4761
1395.705, 108.7084
1396.759, 138.9893
1397.812, 127.2321
1398.866, 142.4467
1399.919, 122.7325
1400.972, 108.9717
1402.024, 95.49225
1403.077, 95.02881
1404.129, 113.8586
1405.181, 108.9771
1406.233, 107.2841
1407.285, 128.4030
1408.337, 89.71326
1409.389, 97.02515
1410.440, 87.28613
1411.491, 85.50177
1412.542, 91.21216
1413.593, 77.89069
1414.644, 103.1689
1415.695, 81.43622
1416.745, 91.69318
1417.795, 68.74493
1418.845, 85.01782
1419.895, 53.35193
1420.945, 95.67859
1421.995, 61.01849
1423.044, 56.36157
1424.093, 75.70795
1425.142, 47.16779
1426.191, 65.52124
1427.240, 61.87585
1428.289, 49.19458
1429.337, 39.55988
1430.385, 38.92957
1431.433, 55.25867
1432.481, 50.63763
1433.529, 54.15039
1434.577, 43.89825
1435.624, 44.31958
1436.672, 50.71460
1437.719, 32.12048
1438.766, 66.52704
1439.812, 69.93506
1440.859, 49.34058
1441.905, 43.71411
1442.952, 34.10925
1443.998, 34.47314
1445.044, 28.91187
1446.090, 31.34375
1447.135, 36.37091
1448.181, 39.63416
1449.226, 28.88983
1450.271, 22.14795
1451.316, 48.40350
1452.361, 29.65649
1453.405, 44.90710
1454.450, 21.15521
1455.494, 35.40088
1456.538, 39.64417
1457.582, 31.88495
1458.626, 30.12335
1459.670, 21.35938
1460.713, 24.59314
1461.757, 44.82446
1462.800, 48.05353
1463.843, 32.28027
1464.886, 69.50482
1465.928, 45.72699
1466.971, 26.94684
1468.013, 51.16431
1469.055, 19.37952
1470.097, 46.59229
1471.139, 42.80267
1472.181, 64.01184
1473.222, 46.22266
1474.263, 61.44135
1475.305, 66.67218
1476.346, 31.91370
1477.386, 43.16547
1478.427, 71.43298
1479.468, 53.72272
1480.508, 55.03497
1481.548, 42.36908
1482.588, 67.71460
1483.628, 71.08545
1484.668, 38.47064
1485.707, 89.85876
1486.747, 41.24945
1487.786, 90.65326
1488.825, 47.06317
1489.864, 71.47803
1490.902, 57.89630
1491.941, 68.31805
1492.979, 74.75580
1494.017, 73.20148
1495.055, 83.65320
1496.093, 78.11047
1497.131, 70.57031
1498.168, 89.03241
1499.206, 61.49506
1500.243, 73.96008
1501.280, 82.42725
1502.317, 66.89667
1503.354, 79.36267
1504.390, 71.82629
1505.426, 64.29034
1506.463, 69.75488
1507.499, 54.22046
1508.535, 65.68701
1509.570, 68.15631
1510.606, 56.63385
1511.641, 53.11816
1512.676, 54.60968
1513.711, 33.10913
1514.746, 29.61700
1515.781, 50.13403
1516.816, 34.66095
1517.850, 54.19836
1518.884, 29.74731
1519.918, 42.30853
1520.952, 62.88300
1521.986, 59.47180
1523.019, 44.07581
1524.053, 48.69489
1525.086, 62.32910
1526.119, 53.97760
1527.152, 57.63928
1528.185, 67.31323
1529.217, 60.99933
1530.250, 44.69769
1531.282, 34.40851
1532.314, 30.13214
1533.346, 27.86823
1534.377, 31.61731
1535.409, 28.77124
1536.440, 29.15759
1537.472, 30.95093
1538.503, 18.76184
1539.534, 23.59210
1540.564, 35.44336
1541.595, 18.31714
1542.625, 42.21472
1543.656, 21.13739
1544.686, 24.08643
1545.716, 32.06299
1546.745, 30.06824
1547.775, 34.10303
1548.804, 2.831543
1549.834, 36.26587
1550.863, 19.39734
1551.892, 16.56549
1552.920, 31.77325
1553.949, 27.02411
1554.977, 21.32196
1556.006, 29.67084
1557.034, 0.9253540
1558.062, 3.462158
1559.089, 13.06537
1560.117, 26.41266
1561.144, 19.95569
1562.172, 25.55322
1563.199, 28.77411
1564.226, 24.11389
1565.252, 19.62292
1566.279, 12.79803
1567.305, 7.648682
1568.332, 1.372070
1569.358, 9.7699999E-04
1570.384, 0.0000000E+00
##END=



