##NAMES=Andradite
##RRUFFID=R060326
##IDEAL CHEMISTRY=Ca_3_Fe^3+^_2_(SiO_4_)_3_
##LOCALITY=Ultevis, Sweden
##OWNER=RRUFF
##SOURCE=Marcus Origlieri
##DESCRIPTION=Reddish-brown colored druse of crystals associated with white svabite R050180
##STATUS=The identification of this mineral has been confirmed by X-ray diffraction and chemical analysis
##URL=rruff.info/R060326
##MEASURED CHEMISTRY=(Ca_2.98_Mn_0.02_)_Σ=3_(Fe^3+^_1.75_Al_0.21_Ti_0.04_)_Σ=2_(Si_1.00_O_4_)_3_
##PIN_ID=M00248
##ORIENTATION=Laser parallel to (0 -1 -1). Fiducial mark perpendicular to laser is parallel to a [1 0 0]
99.64900, 0.0000000E+00
100.8830, 127.1299
102.1160, 11.77441
103.3490, 63.87695
104.5820, 152.4277
105.8150, 83.89062
107.0470, 117.4380
108.2800, 236.0835
109.5120, 361.8003
110.7440, 98.49707
111.9760, 41.64453
113.2080, 31.16162
114.4400, 37.67920
115.6710, 63.77930
116.9030, 154.9937
118.1340, 91.78516
119.3650, 54.79395
120.5960, 23.01953
121.8270, 93.37842
123.0580, 29.81348
124.2880, 47.56641
125.5190, 2.924805
126.7490, 47.14258
127.9790, 13.72949
129.2090, 29.99365
130.4390, 56.00586
131.6680, 1.206055
132.8980, 45.61816
134.1270, 83.78906
135.3560, 68.03613
136.5850, 118.3203
137.8140, 349.4092
139.0430, 356.9326
140.2710, 487.2061
141.5000, 377.2568
142.7280, 403.1074
143.9560, 233.7773
145.1840, 348.2852
146.4120, 146.6445
147.6390, 171.9863
148.8670, 197.0176
150.0940, 91.94238
151.3210, 144.7715
152.5490, 68.51562
153.7750, 133.9404
155.0020, 159.3867
156.2290, 122.6270
157.4550, 207.2656
158.6810, 149.8242
159.9080, 348.3750
161.1340, 365.9180
162.3590, 586.4551
163.5850, 820.9883
164.8110, 998.5156
166.0360, 1209.037
167.2610, 1438.554
168.4860, 1442.068
169.7110, 1742.580
170.9360, 1867.093
172.1610, 1915.607
173.3850, 1716.304
174.6100, 1504.383
175.8340, 1390.787
177.0580, 1143.158
178.2820, 856.9727
179.5050, 667.8311
180.7290, 520.7295
181.9520, 316.6660
183.1760, 268.6367
184.3990, 255.6406
185.6220, 233.6738
186.8450, 233.7305
188.0670, 257.8154
189.2900, 283.9482
190.5120, 133.0615
191.7340, 151.2041
192.9560, 205.3779
194.1780, 18.59668
195.4000, 179.8398
196.6220, 244.1104
197.8430, 139.4033
199.0640, 262.7227
200.2860, 72.06543
201.5070, 249.4297
202.7270, 199.8125
203.9480, 70.21484
205.1690, 77.63477
206.3890, 73.07617
207.6090, 100.4609
208.8290, 36.02832
210.0490, 7.604492
211.2690, 7.245117
212.4890, 38.92773
213.7080, 43.37793
214.9280, 37.67188
216.1470, 109.0479
217.3660, 64.78223
218.5850, 110.5273
219.8030, 248.2891
221.0220, 251.0518
222.2400, 424.8301
223.4590, 627.6250
224.6770, 721.4336
225.8950, 931.9102
227.1120, 993.0645
228.3300, 1275.843
229.5480, 1508.625
230.7650, 1647.369
231.9820, 1740.117
233.1990, 1820.886
234.4160, 1813.675
235.6330, 1679.385
236.8490, 1125.314
238.0660, 1191.166
239.2820, 925.0381
240.4980, 477.9316
241.7140, 294.8477
242.9300, 236.7832
244.1460, 200.7432
245.3610, 31.27441
246.5770, 49.55664
247.7920, 104.7900
249.0070, 3.025391
250.2220, 55.25293
251.4370, 106.4961
252.6510, 18.77344
253.8660, 70.06543
255.0800, 55.60352
256.2940, 148.2529
257.5080, 276.8887
258.7220, 394.5176
259.9360, 468.1084
261.1490, 442.6943
262.3630, 491.2539
263.5760, 468.6953
264.7890, 444.1475
266.0020, 539.6113
267.2150, 480.0469
268.4270, 333.5293
269.6400, 256.0234
270.8520, 290.5254
272.0640, 289.3574
273.2760, 122.8770
274.4880, 225.2959
275.7000, 215.8828
276.9120, 193.7119
278.1230, 310.5918
279.3340, 167.6758
280.5450, 173.5498
281.7560, 210.1016
282.9670, 352.6621
284.1780, 320.2236
285.3880, 434.7881
286.5980, 412.5186
287.8090, 571.0879
289.0190, 416.6631
290.2290, 678.2432
291.4380, 801.8301
292.6480, 856.4229
293.8570, 747.0107
295.0670, 916.6055
296.2760, 823.2100
297.4850, 877.8232
298.6930, 975.4473
299.9020, 968.9922
301.1110, 1151.539
302.3190, 1308.087
303.5270, 1396.566
304.7350, 1747.061
305.9430, 1788.570
307.1510, 1877.096
308.3580, 2072.638
309.5660, 2062.195
310.7730, 2171.768
311.9800, 2093.357
313.1870, 1869.961
314.3940, 1817.955
315.6010, 1882.769
316.8070, 1712.422
318.0130, 1757.352
319.2200, 1880.904
320.4260, 1705.141
321.6310, 1861.353
322.8370, 1895.392
324.0430, 1917.907
325.2480, 1904.443
326.4540, 2032.997
327.6590, 2136.569
328.8640, 2187.161
330.0680, 2192.770
331.2730, 2311.396
332.4780, 2606.042
333.6820, 2716.705
334.8860, 3332.387
336.0900, 3827.086
337.2940, 4288.803
338.4980, 5306.537
339.7010, 6154.260
340.9050, 7496.030
342.1080, 8983.815
343.3110, 10937.62
344.5140, 12587.44
345.7170, 14558.28
346.9200, 16429.14
348.1220, 17981.02
349.3240, 19272.90
350.5270, 19993.81
351.7290, 20214.74
352.9310, 19970.95
354.1320, 19639.91
355.3340, 19851.00
356.5350, 20184.14
357.7370, 21790.15
358.9380, 24465.26
360.1390, 28048.79
361.3400, 31906.85
362.5400, 35691.91
363.7410, 39374.01
364.9410, 42288.11
366.1410, 44204.24
367.3410, 44051.38
368.5410, 42676.54
369.7410, 39352.70
370.9400, 35030.89
372.1400, 30250.10
373.3390, 25189.35
374.5380, 20698.60
375.7370, 16758.88
376.9360, 13789.18
378.1350, 11289.50
379.3330, 9247.837
380.5310, 7623.194
381.7300, 6570.570
382.9280, 5747.970
384.1260, 5001.384
385.3230, 4124.827
386.5210, 3616.285
387.7180, 3076.764
388.9160, 2613.258
390.1130, 2111.750
391.3100, 1901.160
392.5060, 1717.137
393.7030, 1335.233
394.9000, 1251.438
396.0960, 1127.468
397.2920, 1036.931
398.4880, 924.1836
399.6840, 817.1895
400.8800, 707.1240
402.0750, 602.0420
403.2710, 496.9990
404.4660, 386.9736
405.6610, 392.9678
406.8560, 243.9863
408.0510, 294.0303
409.2450, 216.1016
410.4400, 168.2266
411.6340, 198.4414
412.8280, 203.7031
414.0220, 175.5908
415.2160, 98.32910
416.4100, 102.7236
417.6030, 107.1357
418.7970, 3.417969
419.9900, 50.95508
421.1830, 39.50879
422.3760, 144.9902
423.5690, 18.49512
424.7610, 89.02734
425.9540, 19.58301
427.1460, 12.15332
428.3380, 33.76367
429.5300, 46.61230
430.7220, 121.0127
431.9140, 185.6514
433.1050, 246.3027
434.2970, 117.9668
435.4880, 174.6426
436.6790, 88.33008
437.8700, 102.0303
439.0610, 114.7432
440.2510, 53.46875
441.4420, 83.20605
442.6320, 101.9551
443.8220, 238.7168
445.0120, 227.4883
446.2020, 327.2734
447.3910, 411.0703
448.5810, 442.8799
449.7700, 446.3291
450.9600, 419.6123
452.1490, 342.3770
453.3370, 281.2324
454.5260, 138.0986
455.7150, 30.97754
456.9030, 19.13281
458.0910, 10.23730
459.2800, 17.66699
460.4670, 135.4180
461.6550, 37.53906
462.8430, 81.66016
464.0300, 58.79395
465.2180, 54.93262
466.4050, 6.843750
467.5920, 120.7930
468.7790, 154.6709
469.9650, 221.5605
471.1520, 259.4590
472.3380, 538.3691
473.5250, 559.2900
474.7110, 431.2207
475.8970, 717.1602
477.0820, 855.1094
478.2680, 1014.069
479.4540, 1130.037
480.6390, 1253.016
481.8240, 1488.002
483.0090, 1722.003
484.1940, 1936.012
485.3780, 2252.030
486.5630, 2309.057
487.7470, 2715.092
488.9320, 2845.135
490.1160, 3183.188
491.3000, 3233.307
492.4830, 2960.373
493.6670, 3045.447
494.8500, 2802.529
496.0340, 2603.652
497.2170, 2482.780
498.4000, 2409.923
499.5820, 2304.074
500.7650, 2434.234
501.9480, 2566.416
503.1300, 3052.621
504.3120, 3473.833
505.4940, 4526.050
506.6760, 5514.272
507.8580, 6936.854
509.0390, 8897.087
510.2210, 10951.50
511.4020, 12778.74
512.5830, 14709.17
513.7640, 16283.42
514.9450, 17110.04
516.1250, 17378.31
517.3060, 16690.50
518.4860, 14946.35
519.6660, 13013.75
520.8460, 10776.22
522.0260, 8719.701
523.2060, 7032.305
524.3850, 5515.545
525.5650, 4654.948
526.7440, 3776.786
527.9230, 3058.086
529.1020, 2537.272
530.2810, 2105.578
531.4590, 2085.617
532.6380, 1694.699
533.8160, 1429.206
534.9940, 1493.696
536.1720, 1367.233
537.3500, 1216.953
538.5270, 1098.444
539.7050, 1131.642
540.8820, 1066.055
542.0590, 1033.253
543.2360, 1039.825
544.4130, 1061.377
545.5900, 1041.220
546.7660, 1137.016
547.9430, 1173.584
549.1190, 1273.565
550.2950, 1227.978
551.4710, 1090.103
552.6470, 1068.012
553.8220, 1075.240
554.9980, 821.8760
556.1730, 925.5996
557.3480, 854.6006
558.5230, 662.7080
559.6980, 601.7510
560.8730, 676.6836
562.0470, 497.8223
563.2220, 472.4736
564.3960, 735.6699
565.5700, 721.6426
566.7440, 830.2393
567.9170, 868.7246
569.0910, 955.2109
570.2640, 1124.488
571.4380, 1107.720
572.6110, 1280.041
573.7840, 1365.266
574.9570, 1321.479
576.1290, 1461.682
577.3020, 1402.871
578.4740, 1229.050
579.6460, 1299.443
580.8180, 1027.598
581.9900, 869.8164
583.1620, 1047.945
584.3330, 1090.061
585.5040, 841.1650
586.6760, 862.2559
587.8470, 824.3340
589.0180, 765.3994
590.1880, 848.4512
591.3590, 819.4902
592.5290, 837.5146
593.7000, 793.5283
594.8700, 773.5264
596.0400, 711.5107
597.2090, 749.4824
598.3790, 693.0664
599.5490, 737.8320
600.7180, 662.7617
601.8870, 668.3447
603.0560, 524.4023
604.2250, 667.6475
605.3940, 723.8359
606.5620, 753.1553
607.7300, 616.0010
608.8990, 537.8340
610.0670, 559.6514
611.2350, 449.4561
612.4020, 560.2461
613.5700, 500.0215
614.7370, 431.7832
615.9050, 346.5312
617.0720, 316.9746
618.2390, 334.9834
619.4060, 245.6885
620.5720, 188.3779
621.7390, 142.0527
622.9050, 200.7139
624.0710, 297.3594
625.2370, 212.9893
626.4030, 261.6045
627.5690, 223.2061
628.7340, 382.7900
629.9000, 187.3613
631.0650, 83.91602
632.2300, 229.4570
633.3950, 181.9814
634.5600, 216.4912
635.7240, 239.9883
636.8890, 275.4678
638.0530, 253.2930
639.2170, 235.6631
640.3810, 199.8184
641.5450, 175.2383
642.7080, 150.6436
643.8720, 171.0342
645.0350, 251.4092
646.1980, 123.7695
647.3610, 41.11523
648.5240, 155.4414
649.6870, 69.75195
650.8490, 239.0469
652.0120, 70.32617
653.1740, 141.5898
654.3360, 37.16211
655.4980, 159.0322
656.6600, 21.21094
657.8210, 7.365234
658.9830, 85.48730
660.1440, 71.59473
661.3050, 14.68359
662.4660, 47.74414
663.6270, 20.78809
664.7870, 91.80566
665.9480, 8.192383
667.1080, 123.7705
668.2680, 22.71680
669.4280, 128.6396
670.5880, 4.546875
671.7480, 26.41992
672.9070, 78.27148
674.0670, 1.894531
675.2260, 130.0967
676.3850, 5.403320
677.5440, 160.7490
678.7030, 140.2139
679.8610, 95.78809
681.0200, 140.4492
682.1780, 38.21875
683.3360, 64.04395
684.4940, 40.06348
685.6520, 8.149414
686.8090, 4.794922
687.9670, 11.77539
689.1240, 7.797852
690.2810, 121.8564
691.4380, 251.0146
692.5950, 97.33789
693.7520, 56.25293
694.9080, 186.1719
696.0650, 79.72754
697.2210, 17.64258
698.3770, 50.01074
699.5330, 19.27832
700.6880, 85.54688
701.8440, 36.80469
702.9990, 9.044922
704.1550, 139.2588
705.3100, 43.53906
706.4650, 22.61035
707.6190, 79.25879
708.7740, 99.80176
709.9290, 67.84863
711.0830, 81.88477
712.2370, 145.9062
713.3910, 188.9141
714.5450, 201.9082
715.6980, 263.8877
716.8520, 285.8545
718.0050, 40.80762
719.1580, 220.7451
720.3110, 74.66992
721.4640, 152.5801
722.6170, 272.4766
723.7700, 245.3613
724.9220, 348.2324
726.0740, 272.0908
727.2260, 405.9375
728.3780, 498.7715
729.5300, 539.5928
730.6810, 481.4014
731.8330, 388.1973
732.9840, 466.9824
734.1350, 402.7568
735.2860, 371.5176
736.4370, 382.2686
737.5880, 306.0088
738.7380, 538.7402
739.8880, 392.4590
741.0390, 513.1904
742.1890, 476.9150
743.3380, 245.6416
744.4880, 516.3652
745.6380, 537.0859
746.7870, 280.8086
747.9360, 385.5205
749.0850, 476.2227
750.2340, 506.9150
751.3830, 504.5977
752.5310, 345.2686
753.6800, 413.9326
754.8280, 433.5859
755.9760, 547.2295
757.1240, 416.8652
758.2720, 514.4912
759.4190, 449.1230
760.5670, 536.7471
761.7140, 509.3613
762.8610, 496.9678
764.0080, 572.5654
765.1550, 558.1553
766.3020, 408.7402
767.4480, 539.3555
768.5950, 438.9951
769.7410, 506.5674
770.8870, 407.2207
772.0330, 496.9043
773.1780, 447.5801
774.3240, 562.2480
775.4690, 454.9102
776.6140, 460.6084
777.7590, 523.3242
778.9040, 517.0488
780.0490, 648.7969
781.1940, 648.5449
782.3380, 681.3379
783.4820, 711.1309
784.6260, 709.9209
785.7700, 621.3506
786.9140, 827.1699
788.0580, 772.8252
789.2010, 824.6436
790.3450, 1037.289
791.4880, 1141.104
792.6310, 1298.553
793.7730, 1312.382
794.9160, 1563.283
796.0590, 1584.528
797.2010, 1795.230
798.3430, 2162.868
799.4850, 2206.482
800.6270, 2573.989
801.7690, 2609.857
802.9100, 2957.569
804.0520, 3291.838
805.1930, 3661.645
806.3340, 3988.567
807.4750, 4433.365
808.6160, 4785.430
809.7560, 5266.461
810.8970, 5816.078
812.0370, 6200.742
813.1770, 6430.357
814.3170, 6637.808
815.4570, 6153.513
816.5960, 6108.517
817.7360, 5711.321
818.8750, 5526.338
820.0140, 5028.791
821.1530, 4629.642
822.2920, 4257.012
823.4310, 4119.428
824.5690, 3906.068
825.7070, 3852.295
826.8460, 3817.798
827.9840, 3774.168
829.1220, 3860.461
830.2590, 4194.434
831.3970, 4130.998
832.5340, 4393.473
833.6710, 4645.666
834.8080, 5262.754
835.9450, 5324.903
837.0820, 5709.100
838.2190, 5995.848
839.3550, 6012.383
840.4910, 6322.371
841.6270, 6069.250
842.7630, 6390.086
843.8990, 5960.526
845.0350, 5984.219
846.1700, 5640.115
847.3060, 5477.893
848.4410, 5365.744
849.5760, 5198.688
850.7100, 5158.643
851.8450, 5117.605
852.9800, 5496.581
854.1140, 5698.566
855.2480, 5778.334
856.3820, 6124.340
857.5160, 6873.279
858.6500, 7411.308
859.7830, 8005.346
860.9170, 8796.394
862.0500, 9936.456
863.1830, 11332.53
864.3160, 12912.61
865.4480, 15071.71
866.5810, 17546.81
867.7130, 20143.93
868.8460, 22715.06
869.9780, 25307.20
871.1100, 26667.36
872.2410, 27794.52
873.3730, 27907.69
874.5050, 26648.88
875.6360, 24831.08
876.7670, 22106.30
877.8980, 19232.53
879.0290, 15899.76
880.1590, 13395.01
881.2900, 11304.27
882.4200, 9171.182
883.5500, 7866.469
884.6800, 6457.770
885.8100, 5378.081
886.9400, 4669.406
888.0690, 3916.743
889.1990, 3285.221
890.3280, 2810.771
891.4570, 2319.992
892.5860, 2124.510
893.7140, 1910.078
894.8430, 1868.522
895.9710, 1702.954
897.1000, 1491.409
898.2280, 1279.936
899.3560, 1087.396
900.4830, 959.0625
901.6110, 846.0137
902.7380, 875.3770
903.8660, 814.1768
904.9930, 814.9434
906.1200, 822.8193
907.2460, 762.2217
908.3730, 655.6025
909.5000, 665.2793
910.6260, 570.8555
911.7520, 554.7500
912.8780, 602.5771
914.0040, 573.7891
915.1290, 571.9707
916.2550, 583.9023
917.3800, 553.4004
918.5050, 487.3164
919.6300, 566.5879
920.7550, 423.2549
921.8800, 547.4766
923.0040, 531.5684
924.1290, 509.1367
925.2530, 542.8281
926.3770, 464.6396
927.5010, 450.5146
928.6250, 447.9941
929.7480, 547.8965
930.8720, 585.6504
931.9950, 561.4434
933.1180, 526.3184
934.2410, 474.4229
935.3640, 462.5645
936.4860, 353.3691
937.6090, 498.4844
938.7310, 552.3057
939.8530, 313.1475
940.9750, 396.9941
942.0970, 170.8516
943.2180, 441.7158
944.3400, 435.5996
945.4610, 468.4922
946.5820, 255.3926
947.7030, 406.3105
948.8240, 204.2773
949.9450, 414.2637
951.0650, 495.3066
952.1860, 435.4023
953.3060, 313.5400
954.4260, 511.7305
955.5460, 266.9453
956.6650, 396.1943
957.7850, 372.4502
958.9040, 494.7207
960.0230, 422.0098
961.1420, 477.3203
962.2610, 530.3164
963.3800, 593.0176
964.4990, 632.4707
965.6170, 583.9648
966.7350, 625.4629
967.8530, 672.0254
968.9710, 804.6250
970.0890, 725.2324
971.2070, 721.8691
972.3240, 827.5137
973.4410, 659.1660
974.5580, 661.8477
975.6750, 762.5762
976.7920, 981.3379
977.9090, 902.1230
979.0250, 730.9277
980.1410, 913.7676
981.2580, 665.6133
982.3740, 728.4668
983.4890, 938.3242
984.6050, 743.2051
985.7200, 852.0938
986.8360, 1060.014
987.9510, 1168.961
989.0660, 1284.912
990.1810, 1421.869
991.2950, 1556.832
992.4100, 1572.805
993.5240, 1743.793
994.6390, 1626.805
995.7530, 1624.818
996.8660, 1307.838
997.9800, 1001.861
999.0940, 1026.885
1000.207, 789.9141
1001.320, 635.9473
1002.433, 552.0078
1003.546, 445.7832
1004.659, 479.1367
1005.772, 364.2012
1006.884, 352.2676
1007.996, 339.6016
1009.108, 213.6699
1010.220, 286.7715
1011.332, 200.8750
1012.444, 125.9922
1013.555, 97.21289
1014.666, 59.28125
1015.777, 59.55078
1016.888, 75.53906
1017.999, 137.6992
1019.110, 240.7891
1020.220, 173.9668
1021.331, 212.2539
1022.441, 8.142578
1023.551, 177.2266
1024.661, 34.33203
1025.770, 13.41797
1026.880, 6.496094
1027.989, 56.20703
1029.098, 48.83789
1030.207, 33.87695
1031.316, 50.91406
1032.425, 128.9453
1033.533, 12.97656
1034.642, 4.000000
1035.750, 142.9824
1036.858, 117.0469
1037.966, 7.818359
1039.073, 100.3203
1040.181, 134.5215
1041.288, 37.19727
1042.396, 46.91211
1043.503, 117.6191
1044.610, 159.6816
1045.716, 78.07422
1046.823, 51.51758
1047.929, 98.00195
1049.036, 13.54883
1050.142, 181.1152
1051.248, 11.79297
1052.353, 0.5117190
1053.459, 87.80273
1054.564, 141.9141
1055.670, 11.72070
1056.775, 2.548828
1057.880, 97.60352
1058.985, 5.248047
1060.089, 57.87891
1061.194, 78.00000
1062.298, 62.05859
1063.402, 102.1113
1064.506, 2.845703
1065.610, 274.1777
1066.713, 29.19141
1067.817, 20.80273
1068.920, 264.1699
1070.023, 38.13477
1071.126, 179.0879
1072.229, 234.0332
1073.332, 206.9688
1074.435, 255.8984
1075.537, 248.8164
1076.639, 217.3594
1077.741, 314.2617
1078.843, 254.3555
1079.945, 168.2402
1081.046, 239.1152
1082.148, 400.9785
1083.249, 520.8320
1084.350, 333.6738
1085.451, 357.5059
1086.551, 353.3262
1087.652, 442.2812
1088.752, 375.1641
1089.853, 397.3477
1090.953, 302.0195
1092.053, 368.4941
1093.152, 463.5020
1094.252, 449.2363
1095.351, 408.9590
1096.451, 447.6855
1097.550, 318.3809
1098.649, 341.4180
1099.748, 184.1035
1100.846, 455.1855
1101.945, 317.0352
1103.043, 227.7676
1104.141, 549.8887
1105.239, 379.8418
1106.337, 472.9844
1107.434, 369.3691
1108.532, 391.0605
1109.629, 507.1445
1110.726, 582.6406
1111.823, 206.6289
1112.920, 415.1426
1114.017, 432.7559
1115.113, 294.8984
1116.210, 437.6660
1117.306, 360.7012
1118.402, 460.2188
1119.498, 392.1680
1120.593, 470.7910
1121.689, 469.4219
1122.784, 354.6113
1123.879, 537.1328
1124.974, 501.3398
1126.069, 471.7812
1127.164, 403.1641
1128.259, 291.2148
1129.353, 358.9004
1130.447, 373.0684
1131.541, 313.1270
1132.635, 385.6660
1133.729, 444.4824
1134.822, 391.8047
1135.916, 343.8652
1137.009, 269.9531
1138.102, 352.9727
1139.195, 165.5625
1140.288, 329.5312
1141.380, 298.2051
1142.473, 456.2148
1143.565, 267.1738
1144.657, 219.0547
1145.749, 325.3223
1146.841, 254.1562
1147.932, 263.3496
1149.024, 228.8574
1150.115, 276.6348
1151.206, 225.3887
1152.297, 409.2285
1153.388, 322.9355
1154.479, 424.9219
1155.569, 244.4102
1156.659, 316.0117
1157.750, 380.7734
1158.839, 199.1953
1159.929, 358.7285
1161.019, 278.2617
1162.108, 472.7070
1163.198, 613.1836
1164.287, 312.0625
1165.376, 528.3184
1166.465, 491.2773
1167.553, 306.2637
1168.642, 312.3496
1169.730, 421.4590
1170.818, 385.4473
1171.906, 407.2461
1172.994, 415.3574
1174.082, 371.5078
1175.170, 333.7480
1176.257, 222.6621
1177.344, 372.6289
1178.431, 493.5566
1179.518, 526.1465
1180.605, 473.9746
1181.691, 344.2246
1182.778, 327.0430
1183.864, 313.7969
1184.950, 226.5391
1186.036, 326.0176
1187.122, 321.6152
1188.207, 307.7266
1189.292, 216.7012
1190.378, 293.5430
1191.463, 386.3125
1192.548, 326.4844
1193.632, 564.2188
1194.717, 386.0977
1195.801, 398.8301
1196.886, 272.6719
1197.970, 307.1699
1199.054, 296.6250
1200.137, 210.4062
1201.221, 266.8691
1202.305, 208.6113
1203.388, 424.3379
1204.471, 230.2207
1205.554, 250.3262
1206.637, 53.99414
1207.719, 196.8652
1208.802, 141.4883
1209.884, 266.0918
1210.966, 277.6758
1212.048, 356.3809
1213.130, 250.9258
1214.212, 393.4531
1215.293, 277.9609
1216.374, 207.4512
1217.456, 156.9199
1218.536, 172.3691
1219.617, 227.7988
1220.698, 121.2109
1221.778, 47.60156
1222.859, 130.9648
1223.939, 196.3066
1225.019, 295.6309
1226.099, 189.9355
1227.178, 226.4023
1228.258, 109.4902
1229.337, 189.7363
1230.417, 91.96094
1231.496, 144.1660
1232.574, 168.3496
1233.653, 73.51172
1234.732, 108.6504
1235.810, 55.23047
1236.888, 107.1797
1237.966, 64.58203
1239.044, 68.66211
1240.122, 14.47852
1241.199, 77.33789
1242.277, 26.12891
1243.354, 157.8926
1244.431, 50.63867
1245.508, 36.64258
1246.585, 59.02148
1247.661, 81.33789
1248.738, 56.77930
1249.814, 127.7129
1250.890, 121.1875
1251.966, 33.64062
1253.042, 16.06836
1254.117, 31.53125
1255.193, 35.81250
1256.268, 155.1094
1257.343, 35.38281
1258.418, 71.63086
1259.493, 220.8867
1260.567, 29.12695
1261.642, 91.34180
1262.716, 77.46484
1263.790, 131.6562
1264.864, 193.7578
1265.938, 175.8516
1267.011, 197.9258
1268.085, 56.98633
1269.158, 197.7793
1270.231, 95.17383
1271.304, 165.7871
1272.377, 37.26953
1273.450, 227.6230
1274.522, 86.40039
1275.594, 191.2559
1276.666, 185.9570
1277.738, 41.79492
1278.810, 221.5430
1279.882, 348.4355
1280.953, 157.1348
1282.025, 346.9043
1283.096, 78.66016
1284.167, 28.39453
1285.238, 332.0859
1286.308, 112.8125
1287.379, 320.4961
1288.449, 349.9453
1289.519, 213.6934
1290.589, 176.3496
1291.659, 222.9902
1292.729, 78.61719
1293.798, 358.2285
1294.868, 177.8223
1295.937, 66.40625
1297.006, 278.0078
1298.075, 270.6309
1299.143, 482.2363
1300.212, 299.8574
1301.280, 251.5020
1302.348, 171.1309
1303.416, 377.7441
1304.484, 452.3477
1305.552, 321.0332
1306.620, 83.67383
1307.687, 325.3105
1308.754, 235.9629
1309.821, 195.6094
1310.888, 267.2930
1311.955, 342.9688
1313.021, 314.6309
1314.088, 337.2812
1315.154, 236.9590
1316.220, 437.6328
1317.286, 416.2949
1318.352, 379.9434
1319.417, 286.5859
1320.483, 362.2129
1321.548, 225.8496
1322.613, 180.4785
1323.678, 331.0938
1324.743, 216.7031
1325.807, 270.2969
1326.872, 257.8848
1327.936, 260.4648
1329.000, 252.7656
1330.064, 258.5898
1331.128, 194.1348
1332.191, 117.6680
1333.255, 59.18750
1334.318, 263.6914
1335.381, 104.5527
1336.444, 320.0332
1337.507, 281.2988
1338.569, 271.7539
1339.632, 124.1992
1340.694, 269.6289
1341.756, 552.0508
1342.818, 197.4590
1343.880, 394.8535
1344.941, 332.2402
1346.003, 325.4668
1347.064, 343.7500
1348.125, 419.1055
1349.186, 356.1504
1350.247, 243.7715
1351.308, 334.8379
1352.368, 224.3887
1353.428, 178.6953
1354.489, 240.9824
1355.549, 402.2734
1356.608, 325.2051
1357.668, 336.4629
1358.727, 265.3008
1359.787, 410.3516
1360.846, 453.4922
1361.905, 360.2266
1362.964, 384.0840
1364.022, 360.5195
1365.081, 249.1113
1366.139, 295.1641
1367.197, 355.8008
1368.255, 271.0000
1369.313, 230.6855
1370.371, 253.6309
1371.428, 376.8301
1372.486, 274.2910
1373.543, 344.1055
1374.600, 383.6270
1375.657, 198.6387
1376.713, 263.2012
1377.770, 199.2930
1378.826, 257.2539
1379.882, 208.7402
1380.938, 324.6367
1381.994, 220.8359
1383.050, 406.7598
1384.106, 273.7246
1385.161, 162.9980
1386.216, 174.6562
1387.271, 283.7656
1388.326, 400.3027
1389.381, 249.9980
1390.435, 167.3887
1391.490, 317.2520
1392.544, 189.4531
1393.598, 193.5039
1394.652, 213.7559
1395.705, 196.7148
1396.759, 209.5059
1397.812, 214.8535
1398.866, 216.3086
1399.919, 224.3555
1400.972, 256.4570
1402.024, 223.1523
1403.077, 49.74219
1404.129, 406.3516
1405.181, 267.7402
1406.233, 67.83984
1407.285, 233.9414
1408.337, 320.9395
1409.389, 308.0488
1410.440, 348.7285
1411.491, 360.0566
1412.542, 81.13867
1413.593, 304.9746
1414.644, 228.6328
1415.695, 68.75977
1416.745, 184.8906
1417.795, 454.8984
1418.845, 97.90625
1419.895, 361.5059
1420.945, 192.4707
1421.995, 233.3203
1423.044, 246.7109
1424.093, 312.5469
1425.142, 89.37305
1426.191, 365.1914
1427.240, 210.0000
1428.289, 115.7969
1429.337, 214.5781
1430.385, 129.3438
1431.433, 69.07227
1432.481, 201.7773
1433.529, 307.1074
1434.577, 220.7734
1435.624, 307.2422
1436.672, 271.0801
1437.719, 321.7129
1438.766, 307.3340
1439.812, 326.9414
1440.859, 323.3945
1441.905, 241.4941
1442.952, 291.0898
1443.998, 232.6934
1445.044, 193.2285
1446.090, 318.7227
1447.135, 253.6543
1448.181, 441.1230
1449.226, 258.0410
1450.271, 214.9434
1451.316, 224.8340
1452.361, 257.7109
1453.405, 380.9473
1454.450, 316.5527
1455.494, 301.3867
1456.538, 214.0605
1457.582, 239.8672
1458.626, 213.4512
1459.670, 303.4434
1460.713, 227.2129
1461.757, 255.9746
1462.800, 298.7285
1463.843, 177.4688
1464.886, 308.1992
1465.928, 145.9180
1466.971, 265.6309
1468.013, 94.33789
1469.055, 355.1387
1470.097, 310.0449
1471.139, 281.9805
1472.181, 111.9219
1473.222, 170.8906
1474.263, 173.9219
1475.305, 401.0508
1476.346, 170.1855
1477.386, 12.35742
1478.427, 326.6035
1479.468, 343.8223
1480.508, 146.0039
1481.548, 265.2324
1482.588, 76.49219
1483.628, 87.74023
1484.668, 315.9277
1485.707, 326.2109
1486.747, 337.5449
1487.786, 266.6445
1488.825, 222.9414
1489.864, 177.1074
1490.902, 223.4121
1491.941, 360.7285
1492.979, 188.0078
1494.017, 285.2031
1495.055, 202.5234
1496.093, 352.8516
1497.131, 188.1855
1498.168, 172.5352
1499.206, 422.9004
1500.243, 219.2734
1501.280, 221.6602
1502.317, 17.96289
1503.354, 37.35352
1504.390, 17.94141
1505.426, 115.2812
1506.463, 65.75781
1507.499, 206.2539
1508.535, 266.7773
1509.570, 271.3242
1510.606, 103.1074
1511.641, 178.4824
1512.676, 12.09180
1513.711, 176.7363
1514.746, 292.4082
1515.781, 282.1055
1516.816, 21.16406
1517.850, 320.5957
1518.884, 39.39062
1519.918, 72.77539
1520.952, 380.0938
1521.986, 333.9961
1523.019, 55.93164
1524.053, 338.8926
1525.086, 204.2598
1526.119, 220.2617
1527.152, 290.2930
1528.185, 320.3516
1529.217, 169.4395
1530.250, 271.6680
1531.282, 197.9375
1532.314, 164.2500
1533.346, 285.6074
1534.377, 147.0098
1535.409, 344.4629
1536.440, 209.9668
1537.472, 191.2148
1538.503, 30.88672
1539.534, 122.4375
1540.564, 230.0957
1541.595, 301.2695
1542.625, 192.4785
1543.656, 138.1152
1544.686, 173.8809
1545.716, 213.7246
1546.745, 124.6523
1547.775, 255.8750
1548.804, 61.36914
1549.834, 226.5898
1550.863, 163.4824
1551.892, 289.9766
1552.920, 158.9922
1553.949, 356.4277
1554.977, 107.1309
1556.006, 161.8867
1557.034, 126.8750
1558.062, 116.5293
1559.089, 217.2285
1560.117, 131.7129
1561.144, 34.96875
1562.172, 98.08398
1563.199, 83.56055
1564.226, 4.099609
1565.252, 31.37891
1566.279, 256.1562
1567.305, 15.32031
1568.332, 4.826172
1569.358, 1.482422
1570.384, 0.0000000E+00
##END=



