##NAMES=Andradite
##RRUFFID=R060358
##IDEAL CHEMISTRY=Ca_3_Fe^3+^_2_(SiO_4_)_3_
##LOCALITY=Soghan, near Jiroft, Kerman, Iran
##OWNER=RRUFF
##SOURCE=Herb Obodda
##DESCRIPTION=Green dodecahedron
##STATUS=The identification of this mineral has been confirmed by X-ray diffraction and chemical analysis
##URL=rruff.info/R060358
##MEASURED CHEMISTRY=Ca_3.00_(Fe^3+^_1.89_Cr_0.11_)_Î£=2_(Si_1.00_O_4_)_3_
##PIN_ID=L01104
##ORIENTATION=Laser parallel to -b* (0 -1 0). Fiducial mark perpendicular to laser is parallel to c [0 0 1]
51.43100, 0.0000000E+00
52.67100, 9.979828
53.91000, 9.216278
55.14900, 5.432709
56.38700, 20.05829
57.62600, 12.40335
58.86400, 32.42419
60.10300, 32.16824
61.34100, 20.47083
62.57900, 15.01590
63.81700, 2.788666
65.05400, 2.231567
66.29200, 7.061340
67.52900, 0.2830510
68.76700, 44.78400
70.00400, 56.42352
71.24100, 90.18872
72.47700, 69.10486
73.71400, 54.16107
74.95100, 67.33206
76.18700, 78.59814
77.42300, 77.95956
78.65900, 59.42319
79.89500, 64.97192
81.13100, 78.60294
82.36700, 133.3103
83.60200, 171.0811
84.83700, 159.9050
86.07200, 105.7736
87.30800, 125.6803
88.54200, 123.6200
89.77700, 135.5886
91.01200, 146.6202
92.24600, 148.9670
93.48000, 163.6292
94.71400, 152.1058
95.94800, 148.5626
97.18200, 133.0022
98.41600, 135.4265
99.64900, 121.8059
100.8830, 125.2381
102.1160, 112.7542
103.3490, 122.5132
104.5820, 146.2748
105.8150, 181.0049
107.0470, 232.7068
108.2800, 277.4026
109.5120, 356.2013
110.7440, 242.0555
111.9760, 151.8801
113.2080, 148.6761
114.4400, 154.4465
115.6710, 147.1936
116.9030, 123.9198
118.1340, 130.6271
119.3650, 130.3176
120.5960, 86.99316
121.8270, 99.65576
123.0580, 134.3069
124.2880, 121.9484
125.5190, 96.58200
126.7490, 102.2101
127.9790, 78.83221
129.2090, 101.4478
130.4390, 100.0319
131.6680, 98.38895
132.8980, 95.29294
134.1270, 91.85922
135.3560, 97.40125
136.5850, 88.76080
137.8140, 86.12610
139.0430, 88.49768
140.2710, 83.85669
141.5000, 75.26123
142.7280, 78.65381
143.9560, 74.05408
145.1840, 64.46228
146.4120, 74.87854
147.6390, 61.30304
148.8670, 34.73584
150.0940, 52.17712
151.3210, 84.91382
152.5490, 104.5186
153.7750, 83.37213
155.0020, 80.57019
156.2290, 85.85822
157.4550, 80.15845
158.6810, 78.47076
159.9080, 76.79517
161.1340, 103.1317
162.3590, 127.4803
163.5850, 133.8411
164.8110, 175.6951
166.0360, 237.1380
167.2610, 320.7691
168.4860, 423.0851
169.7110, 610.4621
170.9360, 884.7877
172.1610, 1457.126
173.3850, 2299.476
174.6100, 3234.840
175.8340, 3555.215
177.0580, 2770.603
178.2820, 1602.001
179.5050, 856.4122
180.7290, 502.8346
181.9520, 346.2689
183.1760, 240.7150
184.3990, 167.1724
185.6220, 179.6414
186.8450, 186.1219
188.0670, 128.6149
189.2900, 157.1259
190.5120, 136.6508
191.7340, 158.1879
192.9560, 158.7374
194.1780, 152.2994
195.4000, 159.8740
196.6220, 154.9044
197.8430, 154.6340
199.0640, 156.7618
200.2860, 151.4572
201.5070, 164.1420
202.7270, 161.8079
203.9480, 129.4700
205.1690, 38.12537
206.3890, 13.72302
207.6090, 45.66180
208.8290, 13.03839
210.0490, 29.40009
211.2690, 9.851196
212.4890, 16.48309
213.7080, 10.34985
214.9280, 5.297668
216.1470, 6.997864
217.3660, 7.712280
218.5850, 4.440613
219.8030, 16.04236
221.0220, 35.93542
222.2400, 39.70154
223.4590, 76.47968
224.6770, 93.26929
225.8950, 185.0701
227.1120, 296.8817
228.3300, 420.7036
229.5480, 503.5358
230.7650, 773.3781
231.9820, 1086.230
233.1990, 1376.091
234.4160, 1891.962
235.6330, 2818.843
236.8490, 3941.733
238.0660, 4015.631
239.2820, 3169.538
240.4980, 1858.451
241.7140, 976.3715
242.9300, 545.2994
244.1460, 292.2350
245.3610, 206.1785
246.5770, 84.12964
247.7920, 65.08881
249.0070, 13.05554
250.2220, 14.97119
251.4370, 55.99542
252.6510, 35.02606
253.8660, 54.05817
255.0800, 16.09601
256.2940, 38.13141
257.5080, 20.83069
258.7220, 50.79938
259.9360, 128.7751
261.1490, 137.7578
262.3630, 258.7476
263.5760, 378.7450
264.7890, 682.7498
266.0020, 873.7626
267.2150, 763.7833
268.4270, 477.8118
269.6400, 265.8486
270.8520, 133.8937
272.0640, 79.94739
273.2760, 55.00946
274.4880, 18.08014
275.7000, 9.840393
276.9120, 12.78552
278.1230, 17.74615
279.3340, 31.71710
280.5450, 27.09009
281.7560, 27.02698
282.9670, 17.61505
284.1780, 16.57074
285.3880, 0.4803470
286.5980, 4.541321
287.8090, 20.61273
289.0190, 38.69464
290.2290, 55.78699
291.4380, 141.8898
292.6480, 184.0032
293.8570, 273.1272
295.0670, 355.2619
296.2760, 438.4070
297.4850, 521.5567
298.6930, 560.6858
299.9020, 591.8015
301.1110, 488.9160
302.3190, 454.0419
303.5270, 455.1794
304.7350, 471.3285
305.9430, 528.4893
307.1510, 699.6616
308.3580, 945.8456
309.5660, 1296.041
310.7730, 1773.241
311.9800, 2536.438
313.1870, 3189.633
314.3940, 3308.829
315.6010, 2936.038
316.8070, 2266.258
318.0130, 1598.490
319.2200, 1234.735
320.4260, 1063.992
321.6310, 1003.261
322.8370, 1134.601
324.0430, 1394.247
325.2480, 1747.906
326.4540, 1809.224
327.6590, 1693.553
328.8640, 1399.895
330.0680, 1141.248
331.2730, 984.6137
332.4780, 940.9914
333.6820, 970.3813
334.8860, 1005.783
336.0900, 1067.197
337.2940, 1091.623
338.4980, 1218.061
339.7010, 1401.511
340.9050, 1624.973
342.1080, 1969.447
343.3110, 2349.933
344.5140, 2899.433
345.7170, 3685.948
346.9200, 4645.480
348.1220, 6101.027
349.3240, 8097.585
350.5270, 10663.15
351.7290, 13883.74
352.9310, 16287.55
354.1320, 16987.20
355.3340, 15277.97
356.5350, 12603.80
357.7370, 10290.33
358.9380, 9084.191
360.1390, 8691.800
361.3400, 9233.464
362.5400, 10457.16
363.7410, 12575.80
364.9410, 16329.54
366.1410, 21644.30
367.3410, 29253.07
368.5410, 38647.84
369.7410, 48207.64
370.9400, 53848.45
372.1400, 53437.27
373.3390, 45970.11
374.5380, 36374.95
375.7370, 27077.82
376.9360, 20107.70
378.1350, 14977.59
379.3330, 11542.51
380.5310, 9033.444
381.7300, 7399.393
382.9280, 6298.355
384.1260, 5430.332
385.3230, 4597.323
386.5210, 3837.333
387.7180, 3100.354
388.9160, 2495.388
390.1130, 2024.438
391.3100, 1747.505
392.5060, 1522.591
393.7030, 1294.693
394.9000, 1176.934
396.0960, 1116.021
397.2920, 1015.274
398.4880, 808.5126
399.6840, 790.7847
400.8800, 636.9387
402.0750, 617.1507
403.2710, 553.3751
404.4660, 508.6122
405.6610, 433.8638
406.8560, 400.1404
408.0510, 386.4317
409.2450, 359.7427
410.4400, 349.0736
411.6340, 296.4236
412.8280, 273.5024
414.0220, 257.1781
415.2160, 204.5784
416.4100, 169.9950
417.6030, 136.4297
418.7970, 140.8817
419.9900, 91.83795
421.1830, 127.6839
422.3760, 59.32257
423.5690, 89.29089
424.7610, 66.51416
425.9540, 71.76288
427.1460, 59.49347
428.3380, 56.29254
429.5300, 35.82220
430.7220, 31.97003
431.9140, 42.02191
433.1050, 28.64087
434.2970, 27.27271
435.4880, 51.91748
436.6790, 44.57483
437.8700, 60.24481
439.0610, 71.92761
440.2510, 40.62616
441.4420, 88.33826
442.6320, 97.06335
443.8220, 94.80182
445.0120, 176.5531
446.2020, 197.3170
447.3910, 312.0940
448.5810, 366.8836
449.7700, 520.6874
450.9600, 716.5034
452.1490, 926.3323
453.3370, 942.1734
454.5260, 852.0266
455.7150, 667.8925
456.9030, 472.7717
458.0910, 301.6635
459.2800, 203.5676
460.4670, 111.4840
461.6550, 98.41309
462.8430, 64.35437
464.0300, 31.30768
465.2180, 6.726257
466.4050, 23.74890
467.5920, 23.76324
468.7790, 27.23077
469.9650, 17.80328
471.1520, 34.29535
472.3380, 47.28314
473.5250, 59.32385
474.7110, 77.37616
475.8970, 115.4399
477.0820, 122.5151
478.2680, 168.6016
479.4540, 189.6996
480.6390, 289.8087
481.8240, 302.9291
483.0090, 378.0605
484.1940, 529.2072
485.3780, 617.3998
486.5630, 762.8494
487.7470, 1063.704
488.9320, 1334.057
490.1160, 1808.736
491.3000, 2334.950
492.4830, 2798.179
493.6670, 3161.335
494.8500, 3344.584
496.0340, 3176.053
497.2170, 2747.341
498.4000, 2343.646
499.5820, 1958.963
500.7650, 1730.296
501.9480, 1616.643
503.1300, 1508.811
504.3120, 1596.177
505.4940, 1732.764
506.6760, 2137.150
507.8580, 2684.546
509.0390, 3447.951
510.2210, 4664.411
511.4020, 6399.833
512.5830, 8946.743
513.7640, 12588.19
514.9450, 16764.63
516.1250, 20463.13
517.3060, 21330.82
518.4860, 19338.01
519.6660, 15202.07
520.8460, 11245.64
522.0260, 8302.175
523.2060, 5992.274
524.3850, 4560.233
525.5650, 3578.867
526.7440, 2901.073
527.9230, 2293.724
529.1020, 1888.296
530.2810, 1649.849
531.4590, 1458.315
532.6380, 1274.642
533.8160, 1124.837
534.9940, 1056.296
536.1720, 1022.026
537.3500, 926.9772
538.5270, 873.5656
539.7050, 823.4509
540.8820, 798.1948
542.0590, 789.1639
543.2360, 770.4710
544.4130, 790.1560
545.5900, 789.8529
546.7660, 809.1262
547.9430, 818.4382
549.1190, 852.5303
550.2950, 954.8065
551.4710, 964.1900
552.6470, 1111.367
553.8220, 1131.464
554.9980, 1181.111
556.1730, 974.2738
557.3480, 875.8298
558.5230, 733.7974
559.6980, 605.6005
560.8730, 522.4354
562.0470, 445.6097
563.2220, 365.6921
564.3960, 375.2828
565.5700, 381.2258
566.7440, 370.0391
567.9170, 373.9467
569.0910, 390.7518
570.2640, 451.5637
571.4380, 482.3790
572.6110, 570.1970
573.7840, 731.0179
574.9570, 965.8475
576.1290, 1109.717
577.3020, 1205.545
578.4740, 1194.376
579.6460, 981.2676
580.8180, 835.7503
581.9900, 621.8090
583.1620, 506.7360
584.3330, 398.6942
585.5040, 337.5658
586.6760, 317.4218
587.8470, 270.3441
589.0180, 268.2152
590.1880, 207.3678
591.3590, 219.2268
592.5290, 242.1134
593.7000, 210.9674
594.8700, 228.8226
596.0400, 168.6915
597.2090, 179.7623
598.3790, 145.6453
599.5490, 143.5273
600.7180, 127.3965
601.8870, 138.3481
603.0560, 104.2092
604.2250, 109.0778
605.3940, 136.0887
606.5620, 88.89264
607.7300, 83.40173
608.8990, 88.91064
610.0670, 87.77368
611.2350, 79.63684
612.4020, 60.50000
613.5700, 50.36316
614.7370, 41.88281
615.9050, 18.08905
617.0720, 30.95160
618.2390, 15.81384
619.4060, 18.27478
620.5720, 8.537048
621.7390, 7.397827
622.9050, 5.141968
624.0710, 1.189819
625.2370, 0.2103880
626.4030, 5.353760
627.5690, 12.13843
628.7340, 20.23944
629.9000, 8.281982
631.0650, 7.545349
632.2300, 4.325806
633.3950, 14.84961
634.5600, 13.96503
635.7240, 19.22180
636.8890, 9.578979
638.0530, 2.378113
639.2170, 14.17505
640.3810, 19.97009
641.5450, 20.76331
642.7080, 11.44543
643.8720, 11.33630
645.0350, 17.88391
646.1980, 14.88293
647.3610, 6.647705
648.5240, 18.41040
649.6870, 3.170776
650.8490, 28.92810
652.0120, 4.316833
653.1740, 18.43115
654.3360, 13.17676
655.4980, 4.920044
656.6600, 16.33978
657.8210, 7.613098
658.9830, 4.895752
660.1440, 30.18640
661.3050, 12.49805
662.4660, 4.821655
663.6270, 2.153748
664.7870, 4.507080
665.9480, 5.836426
667.1080, 13.18909
668.2680, 9.445435
669.4280, 20.07648
670.5880, 9.295288
671.7480, 6.678345
672.9070, 21.07159
674.0670, 8.482300
675.2260, 12.90411
676.3850, 0.6605220
677.5440, 9.781616
678.7030, 2.764038
679.8610, 11.69635
681.0200, 1.829895
682.1780, 3.650574
683.3360, 15.85944
684.4940, 15.36566
685.6520, 1.868164
686.8090, 39.63641
687.9670, 0.8305050
689.1240, 18.71021
690.2810, 20.26862
691.4380, 16.84564
692.5950, 15.43945
693.7520, 8.049377
694.9080, 0.3284910
696.0650, 6.301819
697.2210, 12.94360
698.3770, 10.23047
699.5330, 10.72943
700.6880, 15.94562
701.8440, 2.362732
702.9990, 6.336182
704.1550, 6.953308
705.3100, 16.23712
706.4650, 9.516541
707.6190, 20.74536
708.7740, 25.06079
709.9290, 26.32678
711.0830, 25.58862
712.2370, 21.84619
713.3910, 19.09973
714.5450, 14.34888
715.6980, 32.59351
716.8520, 22.83386
718.0050, 13.07013
719.1580, 3.698425
720.3110, 4.522644
721.4640, 10.73730
722.6170, 8.946899
723.7700, 16.15106
724.9220, 18.35083
726.0740, 11.54620
727.2260, 16.73663
728.3780, 1.922607
729.5300, 19.10126
730.6810, 15.27563
731.8330, 37.44562
732.9840, 27.61133
734.1350, 17.77295
735.2860, 3.930237
736.4370, 16.08130
737.5880, 16.22791
738.7380, 18.37018
739.8880, 9.508118
741.0390, 21.64117
742.1890, 18.77014
743.3380, 5.894958
744.4880, 33.01422
745.6380, 23.12988
746.7870, 20.24316
747.9360, 42.35431
749.0850, 29.46143
750.2340, 64.56458
751.3830, 28.66376
752.5310, 62.75909
753.6800, 31.85046
754.8280, 71.93799
755.9760, 74.02155
757.1240, 46.10120
758.2720, 21.17706
759.4190, 34.24915
760.5670, 26.31732
761.7140, 3.615662
762.8610, 0.5590210
764.0080, 24.45740
765.1550, 1.776245
766.3020, 8.590698
767.4480, 2.465881
768.5950, 26.02545
769.7410, 12.94348
770.8870, 37.07538
772.0330, 21.17365
773.1780, 36.19226
774.3240, 61.01306
775.4690, 61.34863
776.6140, 70.05804
777.7590, 80.07709
778.9040, 72.09735
780.0490, 66.12378
781.1940, 87.33960
782.3380, 87.36804
783.4820, 89.18964
784.6260, 73.22461
785.7700, 110.2579
786.9140, 158.2891
788.0580, 198.2739
789.2010, 203.3015
790.3450, 209.8488
791.4880, 246.8776
792.6310, 273.9069
793.7730, 314.8989
794.9160, 383.7061
796.0590, 403.0132
797.2010, 475.4708
798.3430, 522.4163
799.4850, 602.4067
800.6270, 685.8365
801.7690, 815.4128
802.9100, 941.3203
804.0520, 1053.661
805.1930, 1141.563
806.3340, 1334.549
807.4750, 1630.561
808.6160, 1962.664
809.7560, 2423.913
810.8970, 2869.298
812.0370, 3662.427
813.1770, 4420.290
814.3170, 5408.939
815.4570, 6200.970
816.5960, 6869.719
817.7360, 7079.627
818.8750, 6897.321
820.0140, 6304.688
821.1530, 5499.685
822.2920, 4581.673
823.4310, 3979.349
824.5690, 3327.477
825.7070, 2982.085
826.8460, 2741.515
827.9840, 2531.843
829.1220, 2406.382
830.2590, 2408.006
831.3970, 2428.085
832.5340, 2591.653
833.6710, 2720.832
834.8080, 2961.605
835.9450, 3318.546
837.0820, 3848.460
838.2190, 4395.042
839.3550, 5051.725
840.4910, 5809.906
841.6270, 6452.747
842.7630, 7119.729
843.8990, 7236.625
845.0350, 7123.634
846.1700, 6808.642
847.3060, 6016.653
848.4410, 5395.665
849.5760, 4621.677
850.7100, 4177.686
851.8450, 3721.658
852.9800, 3294.676
854.1140, 3012.696
855.2480, 2887.658
856.3820, 2871.034
857.5160, 2861.836
858.6500, 2832.775
859.7830, 2915.687
860.9170, 3113.689
862.0500, 3326.710
863.1830, 3628.669
864.3160, 3967.682
865.4480, 4568.417
866.5810, 5302.451
867.7130, 6296.459
868.8460, 7729.504
869.9780, 9592.551
871.1100, 12146.59
872.2410, 15406.43
873.3730, 19366.46
874.5050, 23323.49
875.6360, 25589.54
876.7670, 25538.52
877.8980, 22773.58
879.0290, 18542.65
880.1590, 14239.57
881.2900, 10595.64
882.4200, 8032.720
883.5500, 6102.801
884.6800, 4619.884
885.8100, 3665.972
886.9400, 2944.062
888.0690, 2405.156
889.1990, 2020.253
890.3280, 1666.352
891.4570, 1382.455
892.5860, 1189.562
893.7140, 1034.672
894.8430, 906.7848
895.9710, 882.9016
897.1000, 761.5387
898.2280, 665.1624
899.3560, 562.9766
900.4830, 524.1079
901.6110, 510.8855
902.7380, 437.9750
903.8660, 427.6641
904.9930, 410.8228
906.1200, 338.0308
907.2460, 348.1971
908.3730, 337.7946
909.5000, 362.6050
910.6260, 348.8647
911.7520, 289.0560
912.8780, 278.3998
914.0040, 296.5264
915.1290, 227.8204
916.2550, 247.7565
917.3800, 225.9531
918.5050, 183.5818
919.6300, 205.1216
920.7550, 183.5386
921.8800, 175.8502
923.0040, 170.4406
924.1290, 149.6816
925.2530, 165.9978
926.3770, 180.5579
927.5010, 183.4395
928.6250, 162.8689
929.7480, 167.1301
930.8720, 148.4495
931.9950, 160.3141
933.1180, 134.5973
934.2410, 122.8931
935.3640, 137.1970
936.4860, 130.5073
937.6090, 127.8234
938.7310, 100.1437
939.8530, 96.47070
940.9750, 101.8064
942.0970, 82.14581
943.2180, 85.48883
944.3400, 63.83960
945.4610, 99.19751
946.5820, 60.56641
947.7030, 54.94287
948.8240, 92.32831
949.9450, 99.71918
951.0650, 81.11810
952.1860, 86.52222
953.3060, 77.93494
954.4260, 104.3530
955.5460, 121.7778
956.6650, 103.2064
957.7850, 115.6389
958.9040, 100.0768
960.0230, 99.53094
961.1420, 128.9908
962.2610, 153.4615
963.3800, 136.9434
964.4990, 136.4355
965.6170, 130.9377
966.7350, 158.4479
967.8530, 185.9641
968.9710, 184.5233
970.0890, 173.0209
971.2070, 207.5626
972.3240, 225.1086
973.4410, 261.6649
974.5580, 254.2264
975.6750, 258.7958
976.7920, 300.3697
977.9090, 249.9475
979.0250, 292.5305
980.1410, 303.1173
981.2580, 300.7085
982.3740, 341.3033
983.4890, 298.9020
984.6050, 386.5068
985.7200, 360.1156
986.8360, 439.7284
987.9510, 503.3450
989.0660, 617.9651
990.1810, 707.5900
991.2950, 841.2218
992.4100, 1047.859
993.5240, 1354.508
994.6390, 1644.161
995.7530, 1911.819
996.8660, 1918.482
997.9800, 1707.149
999.0940, 1462.827
1000.207, 1076.514
1001.320, 869.2083
1002.433, 632.9128
1003.546, 503.6217
1004.659, 379.3354
1005.772, 341.0623
1006.884, 277.7983
1007.996, 219.5422
1009.108, 194.2904
1010.220, 141.0480
1011.332, 132.8105
1012.444, 142.5775
1013.555, 152.3517
1014.666, 132.1322
1015.777, 104.9163
1016.888, 106.7043
1017.999, 67.49567
1019.110, 70.29053
1020.220, 75.08887
1021.331, 70.89050
1022.441, 45.69611
1023.551, 36.50494
1024.661, 46.31714
1025.770, 51.13269
1026.880, 23.95392
1027.989, 38.77832
1029.098, 20.60577
1030.207, 13.56342
1031.316, 1.267700
1032.425, 7.104309
1033.533, 14.94568
1034.642, 0.7900390
1035.750, 1.638916
1036.858, 15.50848
1037.966, 9.341248
1039.073, 9.194092
1040.181, 7.054138
1041.288, 28.08282
1042.396, 14.22986
1043.503, 38.37897
1044.610, 2.457520
1045.716, 3.703430
1046.823, 18.86359
1047.929, 38.02954
1049.036, 15.21143
1050.142, 19.39764
1051.248, 26.59021
1052.353, 24.79291
1053.459, 4.005066
1054.564, 1.216919
1055.670, 7.427734
1056.775, 13.36023
1057.880, 0.8496090
1058.985, 24.05835
1060.089, 12.27655
1061.194, 21.49866
1062.298, 17.27087
1063.402, 4.2479999E-02
1064.506, 11.18475
1065.610, 34.58435
1066.713, 54.35541
1067.817, 17.12866
1068.920, 46.90381
1070.023, 42.68079
1071.126, 31.45966
1072.229, 39.24030
1073.332, 72.02271
1074.435, 75.80682
1075.537, 91.59253
1076.639, 87.37994
1077.741, 97.16895
1078.843, 107.9595
1079.945, 94.75159
1081.046, 96.54510
1082.148, 107.1238
1083.249, 127.1362
1084.350, 131.9338
1085.451, 154.7327
1086.551, 173.5328
1087.652, 151.3341
1088.752, 162.1365
1089.853, 170.9401
1090.953, 171.7448
1092.053, 176.5505
1093.152, 199.3572
1094.252, 192.1648
1095.351, 200.9733
1096.451, 238.7827
1097.550, 213.5927
1098.649, 219.4034
1099.748, 243.2150
1100.846, 233.0269
1101.945, 237.8396
1103.043, 202.6526
1104.141, 242.4664
1105.239, 230.2804
1106.337, 256.0948
1107.434, 208.9095
1108.532, 239.7246
1109.629, 233.5400
1110.726, 247.5058
1111.823, 236.3233
1112.920, 222.2292
1114.017, 206.0452
1115.113, 182.8614
1116.210, 193.1243
1117.306, 231.0428
1118.402, 213.8662
1119.498, 208.6824
1120.593, 220.4984
1121.689, 205.3983
1122.784, 222.2573
1123.879, 176.1562
1124.974, 225.7385
1126.069, 209.5534
1127.164, 164.6846
1128.259, 165.4985
1129.353, 143.4026
1130.447, 118.0612
1131.541, 82.49286
1132.635, 79.26733
1133.729, 62.51038
1134.822, 59.46741
1135.916, 54.98920
1137.009, 47.84778
1138.102, 53.40436
1139.195, 46.10840
1140.288, 42.07477
1141.380, 58.21851
1142.473, 77.21967
1143.565, 53.20062
1144.657, 77.87610
1145.749, 54.08228
1146.841, 67.91949
1147.932, 56.83795
1149.024, 72.62915
1150.115, 68.45850
1151.206, 58.27136
1152.297, 57.05701
1153.388, 86.98425
1154.479, 91.76605
1155.569, 82.57721
1156.659, 65.39050
1157.750, 103.7148
1158.839, 109.4886
1159.929, 93.26031
1161.019, 102.0764
1162.108, 90.83356
1163.198, 64.59814
1164.287, 120.3920
1165.376, 119.1528
1166.465, 118.9076
1167.553, 111.7694
1168.642, 135.8827
1169.730, 125.6700
1170.818, 119.4321
1171.906, 144.2332
1172.994, 148.5547
1174.082, 159.8957
1175.170, 157.8324
1176.257, 171.5700
1177.344, 159.1569
1178.431, 158.0218
1179.518, 177.6613
1180.605, 158.6758
1181.691, 166.4774
1182.778, 166.9225
1183.864, 157.2150
1184.950, 160.7536
1186.036, 169.3942
1187.122, 152.7575
1188.207, 163.7556
1189.292, 163.6866
1190.378, 166.5302
1191.463, 163.6114
1192.548, 157.0190
1193.632, 144.8515
1194.717, 170.5057
1195.801, 160.6194
1196.886, 168.3190
1197.970, 139.0597
1199.054, 159.7556
1200.137, 169.4496
1201.221, 145.1495
1202.305, 156.8543
1203.388, 139.5425
1204.471, 121.2286
1205.554, 168.9128
1206.637, 158.5950
1207.719, 165.2750
1208.802, 171.9531
1209.884, 131.6291
1210.966, 160.3030
1212.048, 120.9749
1213.130, 120.6445
1214.212, 120.3120
1215.293, 131.9774
1216.374, 112.6407
1217.456, 97.30176
1218.536, 81.96057
1219.617, 70.42377
1220.698, 56.32996
1221.778, 55.79962
1222.859, 53.57355
1223.939, 57.22107
1225.019, 75.86646
1226.099, 55.50940
1227.178, 43.15002
1228.258, 71.78833
1229.337, 44.42432
1230.417, 36.05792
1231.496, 15.68921
1232.574, 20.31805
1233.653, 34.94446
1234.732, 48.56854
1235.810, 44.45001
1236.888, 51.80939
1237.966, 29.42627
1239.044, 28.04059
1240.122, 3.652527
1241.199, 16.26050
1242.277, 5.865906
1243.354, 24.46796
1244.431, 19.59125
1245.508, 3.335388
1246.585, 19.25415
1247.661, 15.84125
1248.738, 19.54047
1249.814, 23.35486
1250.890, 6.587097
1251.966, 10.16315
1253.042, 6.736328
1254.117, 22.69385
1255.193, 18.85828
1256.268, 0.4078370
1257.343, 21.95178
1258.418, 6.493225
1259.493, 23.96881
1260.567, 4.449219
1261.642, 9.937805
1262.716, 17.43744
1263.790, 4.047974
1264.864, 1.529480
1265.938, 29.99402
1267.011, 11.53900
1268.085, 9.095764
1269.158, 3.336975
1270.231, 16.23438
1271.304, 2.180115
1272.377, 2.590210
1273.450, 9.003906
1274.522, 1.608398
1275.594, 10.78088
1276.666, 4.167236
1277.738, 22.54999
1278.810, 10.93030
1279.882, 13.30780
1280.953, 28.68274
1282.025, 3.055176
1283.096, 31.42389
1284.167, 11.79022
1285.238, 11.15387
1286.308, 4.485107
1287.379, 20.86853
1288.449, 31.21991
1289.519, 9.568970
1290.589, 4.084656
1291.659, 31.25726
1292.729, 11.59729
1293.798, 27.93469
1294.868, 33.26990
1295.937, 3.603027
1297.006, 13.93311
1298.075, 10.26398
1299.143, 15.59247
1300.212, 7.918579
1301.280, 45.24219
1302.348, 0.4299930
1303.416, 1.103394
1304.484, 31.22766
1305.552, 21.55670
1306.620, 6.884644
1307.687, 36.21448
1308.754, 14.55151
1309.821, 6.890137
1310.888, 26.23120
1311.955, 14.57770
1313.021, 16.92816
1314.088, 24.27832
1315.154, 18.62756
1316.220, 20.97687
1317.286, 14.32434
1318.352, 33.67047
1319.417, 24.02106
1320.483, 31.37250
1321.548, 33.72620
1322.613, 24.07776
1323.678, 47.42749
1324.743, 20.77771
1325.807, 8.125671
1326.872, 19.47107
1327.936, 41.81433
1329.000, 16.15527
1330.064, 14.49408
1331.128, 50.83044
1332.191, 20.16455
1333.255, 27.49646
1334.318, 42.82605
1335.381, 22.15344
1336.444, 48.47858
1337.507, 41.80127
1338.569, 26.12183
1339.632, 39.44006
1340.694, 27.75598
1341.756, 74.06964
1342.818, 44.38098
1343.880, 48.69000
1344.941, 67.99677
1346.003, 47.30121
1347.064, 48.60339
1348.125, 69.90320
1349.186, 65.20074
1350.247, 61.49603
1351.308, 60.78906
1352.368, 81.07983
1353.428, 66.36841
1354.489, 78.65479
1355.549, 87.93921
1356.608, 87.22162
1357.668, 76.50220
1358.727, 77.78101
1359.787, 87.05817
1360.846, 75.33386
1361.905, 94.60797
1362.964, 83.88074
1364.022, 103.1520
1365.081, 87.42194
1366.139, 86.69049
1367.197, 92.95776
1368.255, 96.07343
1369.313, 95.33636
1370.371, 92.50970
1371.428, 87.54742
1372.486, 87.98785
1373.543, 86.69781
1374.600, 88.00269
1375.657, 87.25317
1376.713, 91.50989
1377.770, 88.76562
1378.826, 55.93616
1379.882, 66.14661
1380.938, 68.31592
1381.994, 73.80060
1383.050, 88.05139
1384.106, 68.98468
1385.161, 89.23376
1386.216, 68.39142
1387.271, 78.79352
1388.326, 62.42084
1389.381, 67.70422
1390.435, 74.51764
1391.490, 79.61566
1392.544, 98.61658
1393.598, 99.64581
1394.652, 105.2968
1395.705, 79.18091
1396.759, 106.2628
1397.812, 102.1659
1398.866, 90.21027
1399.919, 100.2734
1400.972, 82.64087
1402.024, 81.47632
1403.077, 48.67963
1404.129, 78.80035
1405.181, 72.04718
1406.233, 61.25476
1407.285, 88.47754
1408.337, 73.72662
1409.389, 80.83301
1410.440, 79.08374
1411.491, 67.30414
1412.542, 64.52148
1413.593, 85.22681
1414.644, 92.48169
1415.695, 84.73792
1416.745, 65.94897
1417.795, 66.70099
1418.845, 76.99988
1419.895, 61.23114
1420.945, 74.49487
1421.995, 50.76038
1423.044, 54.92224
1424.093, 38.17151
1425.142, 35.40741
1426.191, 64.66852
1427.240, 45.89075
1428.289, 61.16949
1429.337, 46.21997
1430.385, 45.23499
1431.433, 35.52222
1432.481, 35.81250
1433.529, 34.04541
1434.577, 35.49139
1435.624, 33.65247
1436.672, 39.97662
1437.719, 26.51581
1438.766, 18.81567
1439.812, 33.22931
1440.859, 36.61115
1441.905, 28.93457
1442.952, 44.23022
1443.998, 43.53119
1445.044, 41.90100
1446.090, 32.12225
1447.135, 31.13635
1448.181, 38.34668
1449.226, 10.55383
1450.271, 22.71381
1451.316, 22.90631
1452.361, 39.08850
1453.405, 26.28278
1454.450, 26.47406
1455.494, 20.66217
1456.538, 32.84723
1457.582, 34.02917
1458.626, 27.20813
1459.670, 25.38403
1460.713, 22.55688
1461.757, 20.56647
1462.800, 6.893494
1463.843, 23.05725
1464.886, 40.21796
1465.928, 51.37561
1466.971, 17.53027
1468.013, 19.68182
1469.055, 0.8303220
1470.097, 39.97559
1471.139, 29.11969
1472.181, 40.26178
1473.222, 34.40387
1474.263, 42.54608
1475.305, 41.68518
1476.346, 39.98407
1477.386, 48.96777
1478.427, 32.12238
1479.468, 43.27679
1480.508, 30.45453
1481.548, 46.65417
1482.588, 45.86444
1483.628, 63.10822
1484.668, 56.04773
1485.707, 34.65173
1486.747, 45.94287
1487.786, 35.24622
1488.825, 37.55231
1489.864, 24.85992
1490.902, 32.16925
1491.941, 47.48065
1492.979, 40.79749
1494.017, 51.18805
1495.055, 41.44592
1496.093, 53.77722
1497.131, 45.10956
1498.168, 32.44464
1499.206, 47.78137
1500.243, 40.11975
1501.280, 31.46527
1502.317, 34.81366
1503.354, 23.16357
1504.390, 28.51361
1505.426, 27.69647
1506.463, 26.71527
1507.499, 28.54700
1508.535, 28.88953
1509.570, 23.11945
1510.606, 21.38190
1511.641, 18.94177
1512.676, 24.30255
1513.711, 31.66833
1514.746, 28.03973
1515.781, 40.41730
1516.816, 27.80151
1517.850, 13.19312
1518.884, 24.59283
1519.918, 11.00134
1520.952, 34.41956
1521.986, 25.84814
1523.019, 42.28790
1524.053, 18.73969
1525.086, 59.20398
1526.119, 12.68091
1527.152, 28.16962
1528.185, 39.66876
1529.217, 26.17706
1530.250, 5.693909
1531.282, 19.21960
1532.314, 51.75464
1533.346, 32.29919
1534.377, 37.85339
1535.409, 18.41803
1536.440, 29.99353
1537.472, 20.58038
1538.503, 24.17944
1539.534, 9.792419
1540.564, 23.42072
1541.595, 37.06549
1542.625, 1.272461
1543.656, 11.40814
1544.686, 21.10822
1545.716, 13.82874
1546.745, 21.57074
1547.775, 22.98883
1548.804, 9.122009
1549.834, 25.93250
1550.863, 21.76801
1551.892, 18.63025
1552.920, 27.52173
1553.949, 44.44470
1554.977, 58.40228
1556.006, 50.39752
1557.034, 20.09387
1558.062, 18.14703
1559.089, 8.243652
1560.117, 0.3867800
1561.144, 2.419800
1562.172, 16.82791
1563.199, 1.133545
1564.226, 6.526825
1565.252, 33.42279
1566.279, 17.62109
1567.305, 7.108704
1568.332, 4.2603001E-02
1569.358, 10.43030
1570.384, 0.0000000E+00
##END=



