##NAMES=Andradite
##RRUFFID=R060358
##IDEAL CHEMISTRY=Ca_3_Fe^3+^_2_(SiO_4_)_3_
##LOCALITY=Soghan, near Jiroft, Kerman, Iran
##OWNER=RRUFF
##SOURCE=Herb Obodda
##DESCRIPTION=Green dodecahedron
##STATUS=The identification of this mineral has been confirmed by X-ray diffraction and chemical analysis
##URL=rruff.info/R060358
##MEASURED CHEMISTRY=Ca_3.00_(Fe^3+^_1.89_Cr_0.11_)_Î£=2_(Si_1.00_O_4_)_3_
##PIN_ID=L01104
##ORIENTATION=Laser parallel to -b* (0 -1 0). Fiducial mark perpendicular to laser is parallel to c [0 0 1]
51.43100, 0.0000000E+00
52.67100, 8.411743
53.91000, 7.601135
55.14900, 7.610718
56.38700, 6.193573
57.62600, 22.62646
58.86400, 10.21036
60.10300, 22.87195
61.34100, 2.781586
62.57900, 4.951141
63.81700, 9.372314
65.05400, 4.979614
66.29200, 4.131409
67.52900, 8.898102
68.76700, 9.1187000E-02
70.00400, 57.42883
71.24100, 70.89844
72.47700, 42.54907
73.71400, 40.37720
74.95100, 41.34625
76.18700, 76.42749
77.42300, 66.60263
78.65900, 50.85831
79.89500, 58.18060
81.13100, 77.57709
82.36700, 102.0567
83.60200, 132.6057
84.83700, 132.2110
86.07200, 107.8627
87.30800, 79.55273
88.54200, 98.27472
89.77700, 130.0240
91.01200, 167.9584
92.24600, 159.4291
93.48000, 157.0408
94.71400, 133.6412
95.94800, 151.1900
97.18200, 119.6923
98.41600, 129.1528
99.64900, 108.5758
100.8830, 100.9651
102.1160, 89.35370
103.3490, 99.75247
104.5820, 126.1239
105.8150, 165.4697
107.0470, 172.7925
108.2800, 252.1249
109.5120, 308.6288
110.7440, 202.3088
111.9760, 112.0401
113.2080, 122.7299
114.4400, 108.3817
115.6710, 130.9988
116.9030, 138.5844
118.1340, 128.1410
119.3650, 115.6715
120.5960, 98.17810
121.8270, 78.66309
123.0580, 81.12866
124.2880, 90.57672
125.5190, 64.01062
126.7490, 68.43506
127.9790, 82.84882
129.2090, 86.27386
130.4390, 99.29193
131.6680, 97.77991
132.8980, 102.7740
134.1270, 91.26385
135.3560, 84.07874
136.5850, 124.0236
137.8140, 126.9765
139.0430, 95.93793
140.2710, 91.90814
141.5000, 65.88757
142.7280, 81.87628
143.9560, 69.87469
145.1840, 64.88293
146.4120, 76.90106
147.6390, 94.92908
148.8670, 76.96704
150.0940, 79.01489
151.3210, 82.07281
152.5490, 95.22491
153.7750, 71.51862
155.0020, 79.59833
156.2290, 64.66943
157.4550, 76.75104
158.6810, 60.84338
159.9080, 82.94635
161.1340, 123.0601
162.3590, 170.1846
163.5850, 234.3201
164.8110, 269.9302
166.0360, 335.5400
167.2610, 473.0154
168.4860, 710.0320
169.7110, 1024.274
170.9360, 1591.648
172.1610, 2249.616
173.3850, 2984.596
174.6100, 3762.589
175.8340, 3892.595
177.0580, 2993.614
178.2820, 1942.645
179.5050, 1050.690
180.7290, 589.7482
181.9520, 379.8197
183.1760, 265.9044
184.3990, 209.0014
185.6220, 186.1104
186.8450, 158.2316
188.0670, 173.3652
189.2900, 177.5115
190.5120, 143.6707
191.7340, 165.8430
192.9560, 133.0286
194.1780, 142.2278
195.4000, 131.4407
196.6220, 147.6676
197.8430, 127.9086
199.0640, 105.3443
200.2860, 141.7590
201.5070, 155.1494
202.7270, 148.5181
203.9480, 108.8505
205.1690, 23.21741
206.3890, 1.514221
207.6090, 17.16400
208.8290, 42.91663
210.0490, 47.56000
211.2690, 30.18103
212.4890, 30.15326
213.7080, 37.00641
214.9280, 2.395386
216.1470, 18.80994
217.3660, 23.75928
218.5850, 22.67877
219.8030, 49.13043
221.0220, 47.59503
222.2400, 138.0720
223.4590, 152.5609
224.6770, 254.0613
225.8950, 392.5731
227.1120, 524.0958
228.3300, 795.6293
229.5480, 1076.173
230.7650, 1516.727
231.9820, 2166.292
233.1990, 2924.865
234.4160, 3941.448
235.6330, 5062.042
236.8490, 6144.644
238.0660, 6318.256
239.2820, 4865.875
240.4980, 2868.499
241.7140, 1563.129
242.9300, 869.7654
244.1460, 483.4087
245.3610, 289.0591
246.5770, 171.7168
247.7920, 53.38184
249.0070, 51.05438
250.2220, 19.73444
251.4370, 4.577881
252.6510, 16.88464
253.8660, 0.8118900
255.0800, 8.515320
256.2940, 5.226074
257.5080, 32.94318
258.7220, 128.6667
259.9360, 241.3971
261.1490, 358.1344
262.3630, 563.8791
263.5760, 817.6312
264.7890, 1127.391
266.0020, 1338.159
267.2150, 1256.935
268.4270, 811.7188
269.6400, 378.5115
270.8520, 188.3129
272.0640, 117.1230
273.2760, 80.94226
274.4880, 35.77051
275.7000, 31.39697
276.9120, 5.596130
278.1230, 35.82758
279.3340, 35.09106
280.5450, 63.35376
281.7560, 21.63177
282.9670, 43.90295
284.1780, 38.17181
285.3880, 21.43713
286.5980, 34.69507
287.8090, 29.94855
289.0190, 13.19641
290.2290, 13.56482
291.4380, 33.33807
292.6480, 115.1235
293.8570, 158.9211
295.0670, 201.7307
296.2760, 274.5525
297.4850, 319.3867
298.6930, 380.2228
299.9020, 417.0696
301.1110, 450.9283
302.3190, 447.7994
303.5270, 568.6832
304.7350, 735.5794
305.9430, 938.4883
307.1510, 1230.410
308.3580, 1764.344
309.5660, 2519.290
310.7730, 3352.238
311.9800, 4297.178
313.1870, 5018.107
314.3940, 5103.026
315.6010, 4448.945
316.8070, 3204.866
318.0130, 2319.801
319.2200, 1750.750
320.4260, 1507.712
321.6310, 1527.689
322.8370, 1780.679
324.0430, 2016.683
325.2480, 2455.701
326.4540, 2432.734
327.6590, 2147.780
328.8640, 1683.840
330.0680, 1255.914
331.2730, 1091.002
332.4780, 931.1042
333.6820, 832.2247
334.8860, 833.3594
336.0900, 824.5079
337.2940, 903.6705
338.4980, 934.8471
339.7010, 1056.038
340.9050, 1209.242
342.1080, 1392.463
343.3110, 1605.698
344.5140, 2087.950
345.7170, 2515.219
346.9200, 3087.504
348.1220, 3990.803
349.3240, 5002.117
350.5270, 6341.449
351.7290, 7674.256
352.9310, 8734.266
354.1320, 9143.881
355.3340, 8732.251
356.5350, 8021.626
357.7370, 7595.037
358.9380, 7772.106
360.1390, 8499.279
361.3400, 10178.76
362.5400, 12430.62
363.7410, 15918.13
364.9410, 21254.65
366.1410, 28600.19
367.3410, 37629.75
368.5410, 47432.32
369.7410, 56319.91
370.9400, 60693.52
372.1400, 58742.15
373.3390, 50360.78
374.5380, 39833.43
375.7370, 29987.09
376.9360, 21766.77
378.1350, 16467.47
379.3330, 12589.18
380.5310, 9794.918
381.7300, 7883.674
382.9280, 6393.448
384.1260, 5293.250
385.3230, 4402.066
386.5210, 3624.901
387.7180, 2944.755
388.9160, 2479.624
390.1130, 2106.508
391.3100, 1678.406
392.5060, 1574.318
393.7030, 1354.246
394.9000, 1236.190
396.0960, 1102.726
397.2920, 1028.685
398.4880, 849.5120
399.6840, 810.5247
400.8800, 677.5384
402.0750, 657.5895
403.2710, 542.6610
404.4660, 570.7512
405.6610, 499.8629
406.8560, 433.9910
408.0510, 425.1338
409.2450, 354.2910
410.4400, 334.4708
411.6340, 307.6731
412.8280, 269.9052
414.0220, 233.1529
415.2160, 162.4174
416.4100, 198.7008
417.6030, 164.0123
418.7970, 109.3419
419.9900, 122.1166
421.1830, 129.1575
422.3760, 131.7701
423.5690, 90.44977
424.7610, 51.64349
425.9540, 55.05432
427.1460, 40.37024
428.3380, 40.00989
429.5300, 29.51538
430.7220, 16.38708
431.9140, 41.52563
433.1050, 65.49084
434.2970, 44.04395
435.4880, 31.61230
436.6790, 85.19629
437.8700, 104.7957
439.0610, 52.41003
440.2510, 119.0398
441.4420, 148.6846
442.6320, 204.3510
443.8220, 196.0323
445.0120, 265.7346
446.2020, 392.4524
447.3910, 530.1851
448.5810, 695.9332
449.7700, 1012.697
450.9600, 1246.475
452.1490, 1473.276
453.3370, 1530.091
454.5260, 1344.922
455.7150, 1028.767
456.9030, 679.6279
458.0910, 492.5034
459.2800, 306.3938
460.4670, 193.2990
461.6550, 85.21863
462.8430, 107.1561
464.0300, 55.10840
465.2180, 70.07507
466.4050, 10.05640
467.5920, 40.05212
468.7790, 19.06201
469.9650, 40.08618
471.1520, 37.12451
472.3380, 93.17688
473.5250, 96.24329
474.7110, 132.3235
475.8970, 143.3823
477.0820, 177.4902
478.2680, 195.6119
479.4540, 259.7469
480.6390, 342.8959
481.8240, 415.0581
483.0090, 453.2336
484.1940, 620.9136
485.3780, 712.1157
486.5630, 929.0054
487.7470, 1223.093
488.9320, 1609.812
490.1160, 2018.067
491.3000, 2558.406
492.4830, 3040.699
493.6670, 3497.548
494.8500, 3906.486
496.0340, 4476.338
497.2170, 3221.691
498.4000, 2769.069
499.5820, 2378.467
500.7650, 2015.964
501.9480, 1856.181
503.1300, 1929.636
504.3120, 2007.103
505.4940, 2276.587
506.6760, 2784.452
507.8580, 3490.871
509.0390, 4587.613
510.2210, 6205.380
511.4020, 8699.920
512.5830, 12143.69
513.7640, 16384.25
514.9450, 20298.82
516.1250, 23633.40
517.3060, 23901.17
518.4860, 21308.78
519.6660, 16889.42
520.8460, 12505.49
522.0260, 9147.734
523.2060, 6800.334
524.3850, 5119.080
525.5650, 4065.357
526.7440, 3161.185
527.9230, 2583.900
529.1020, 2212.468
530.2810, 1864.196
531.4590, 1611.929
532.6380, 1439.649
533.8160, 1342.381
534.9940, 1275.244
536.1720, 1150.348
537.3500, 1077.373
538.5270, 1021.180
539.7050, 983.2015
540.8820, 939.6693
542.0590, 981.4608
543.2360, 883.3802
544.4130, 899.5279
545.5900, 955.2389
546.7660, 1033.576
547.9430, 1055.770
549.1190, 1209.626
550.2950, 1280.467
551.4710, 1415.140
552.6470, 1584.786
553.8220, 1689.165
554.9980, 1641.273
556.1730, 1491.640
557.3480, 1220.453
558.5230, 964.4860
559.6980, 804.1949
560.8730, 635.5511
562.0470, 523.0182
563.2220, 415.5547
564.3960, 438.1957
565.5700, 329.2607
566.7440, 340.2181
567.9170, 338.8251
569.0910, 295.9141
570.2640, 364.0854
571.4380, 379.0870
572.6110, 419.1186
573.7840, 476.6631
574.9570, 534.6929
576.1290, 634.7377
577.3020, 665.8497
578.4740, 627.9207
579.6460, 566.9642
580.8180, 516.0369
581.9900, 392.1182
583.1620, 296.6135
584.3330, 247.6689
585.5040, 237.0640
586.6760, 224.1800
587.8470, 261.2958
589.0180, 259.5070
590.1880, 201.6815
591.3590, 224.8535
592.5290, 232.5173
593.7000, 180.6145
594.8700, 193.8423
596.0400, 194.9935
597.2090, 170.0717
598.3790, 182.2433
599.5490, 174.3527
600.7180, 128.4348
601.8870, 122.5182
603.0560, 144.2153
604.2250, 125.3611
605.3940, 147.4472
606.5620, 123.5646
607.7300, 89.65198
608.8990, 103.7399
610.0670, 100.8282
611.2350, 53.91681
612.4020, 88.00562
613.5700, 46.09473
614.7370, 45.18378
615.9050, 21.72711
617.0720, 8.352661
618.2390, 15.43225
619.4060, 24.51160
620.5720, 9.590515
621.7390, 3.669006
622.9050, 13.74695
624.0710, 11.17578
625.2370, 4.895752
626.4030, 14.03357
627.5690, 16.97046
628.7340, 9.905396
629.9000, 3.628906
631.0650, 1.324402
632.2300, 18.28021
633.3950, 10.21118
634.5600, 11.18494
635.7240, 9.166443
636.8890, 20.84509
638.0530, 25.85498
639.2170, 17.86298
640.3810, 0.1309810
641.5450, 12.12848
642.7080, 35.86444
643.8720, 24.85510
645.0350, 14.84357
646.1980, 4.170349
647.3610, 13.19067
648.5240, 1.221863
649.6870, 18.25836
650.8490, 11.69141
652.0120, 0.3612670
653.1740, 6.580811
654.3360, 20.52008
655.4980, 15.45685
656.6600, 1.390869
657.8210, 7.319885
658.9830, 6.245911
660.1440, 2.831543
661.3050, 38.91656
662.4660, 11.02747
663.6270, 13.15033
664.7870, 38.28625
665.9480, 3.551697
667.1080, 11.61554
668.2680, 8.795532
669.4280, 10.01300
670.5880, 10.81763
671.7480, 13.61847
672.9070, 13.41565
674.0670, 6.209229
675.2260, 0.9976200
676.3850, 2.778625
677.5440, 11.55286
678.7030, 13.67719
679.8610, 3.922302
681.0200, 22.82227
682.1780, 27.43707
683.3360, 14.71906
684.4940, 7.017151
685.6520, 17.32758
686.8090, 2.344299
687.9670, 17.00824
689.1240, 23.66779
690.2810, 21.67670
691.4380, 21.04169
692.5950, 48.42688
693.7520, 6.153381
694.9080, 0.7268070
696.0650, 6.708984
697.2210, 42.15771
698.3770, 4.638062
699.5330, 15.13062
700.6880, 16.64056
701.8440, 1.169067
702.9990, 2.707947
704.1550, 11.74176
705.3100, 39.18573
706.4650, 1.375000
707.6190, 13.05347
708.7740, 9.476074
709.9290, 54.89197
711.0830, 21.30310
712.2370, 0.7091670
713.3910, 39.10510
714.5450, 22.49615
715.6980, 15.88202
716.8520, 20.26221
718.0050, 26.63696
719.1580, 21.00677
720.3110, 20.37134
721.4640, 14.26953
722.6170, 32.07166
723.7700, 12.59210
724.9220, 17.72693
726.0740, 18.04041
727.2260, 11.34833
728.3780, 13.64978
729.5300, 13.94507
730.6810, 16.76556
731.8330, 21.50452
732.9840, 10.76929
734.1350, 16.02759
735.2860, 40.28015
736.4370, 14.52771
737.5880, 20.76941
738.7380, 48.00580
739.8880, 35.23730
741.0390, 1.536133
742.1890, 16.67944
743.3380, 49.88953
744.4880, 20.09467
745.6380, 61.29456
746.7870, 65.48975
747.9360, 79.67993
749.0850, 47.86536
750.2340, 45.04596
751.3830, 62.22168
752.5310, 96.39270
753.6800, 77.55890
754.8280, 73.75580
755.9760, 82.91266
757.1240, 81.06482
758.2720, 58.21234
759.4190, 61.35529
760.5670, 48.49371
761.7140, 29.62756
762.8610, 27.26581
764.0080, 32.39056
765.1550, 41.83643
766.3020, 18.09271
767.4480, 3.272827
768.5950, 23.82953
769.7410, 66.85925
770.8870, 11.94324
772.0330, 48.47998
773.1780, 45.94092
774.3240, 85.50336
775.4690, 70.58838
776.6140, 100.6710
777.7590, 137.7507
778.9040, 114.7498
780.0490, 123.0501
781.1940, 143.1296
782.3380, 148.2078
783.4820, 154.2984
784.6260, 181.0236
785.7700, 215.2062
786.9140, 229.0816
788.0580, 239.9456
789.2010, 285.0531
790.3450, 320.9501
791.4880, 355.0604
792.6310, 444.1733
793.7730, 477.2841
794.9160, 554.2295
796.0590, 595.3282
797.2010, 744.4077
798.3430, 820.0586
799.4850, 887.5478
800.6270, 1020.689
801.7690, 1148.693
802.9100, 1327.169
804.0520, 1555.102
805.1930, 1867.156
806.3340, 2145.364
807.4750, 2552.418
808.6160, 3063.475
809.7560, 3793.551
810.8970, 4676.622
812.0370, 5790.567
813.1770, 7135.280
814.3170, 8430.078
815.4570, 9617.101
816.5960, 10494.92
817.7360, 10667.30
818.8750, 10117.37
820.0140, 8906.312
821.1530, 7839.034
822.2920, 6594.199
823.4310, 5534.743
824.5690, 4764.436
825.7070, 4224.474
826.8460, 3729.532
827.9840, 3361.766
829.1220, 3292.031
830.2590, 3325.570
831.3970, 3353.385
832.5340, 3544.946
833.6710, 3833.068
834.8080, 4280.975
835.9450, 4892.212
837.0820, 5490.808
838.2190, 6524.305
839.3550, 7599.739
840.4910, 8705.083
841.6270, 9629.017
842.7630, 10125.08
843.8990, 10259.50
845.0350, 10077.45
846.1700, 9180.334
847.3060, 8068.401
848.4410, 7003.446
849.5760, 6068.993
850.7100, 5143.060
851.8450, 4446.119
852.9800, 3843.113
854.1140, 3388.154
855.2480, 3061.227
856.3820, 2840.277
857.5160, 2676.322
858.6500, 2594.958
859.7830, 2519.038
860.9170, 2529.783
862.0500, 2580.812
863.1830, 2731.846
864.3160, 2984.789
865.4480, 3288.772
866.5810, 3755.764
867.7130, 4418.267
868.8460, 5305.341
869.9780, 6652.290
871.1100, 8105.318
872.2410, 10396.42
873.3730, 12531.44
874.5050, 14858.53
875.6360, 15970.64
876.7670, 15640.76
877.8980, 13917.27
879.0290, 11549.33
880.1590, 8990.456
881.2900, 6725.556
882.4200, 5048.688
883.5500, 3787.826
884.6800, 2994.965
885.8100, 2287.109
886.9400, 1856.256
888.0690, 1539.406
889.1990, 1340.560
890.3280, 1076.717
891.4570, 912.8829
892.5860, 776.0522
893.7140, 649.2250
894.8430, 560.4017
895.9710, 556.5820
897.1000, 399.7662
898.2280, 420.9541
899.3560, 433.1485
900.4830, 362.3469
901.6110, 315.5525
902.7380, 281.7550
903.8660, 283.4888
904.9930, 256.7131
906.1200, 250.1852
907.2460, 211.5176
908.3730, 213.9750
909.5000, 225.8242
910.6260, 207.2266
911.7520, 192.7615
912.8780, 184.1431
914.0040, 174.5710
915.1290, 165.4369
916.2550, 159.3107
917.3800, 177.0498
918.5050, 141.0289
919.6300, 147.7706
920.7550, 133.8273
921.8800, 105.2346
923.0040, 128.3295
924.1290, 144.0944
925.2530, 128.0623
926.3770, 93.92798
927.5010, 107.3317
928.6250, 110.7913
929.7480, 174.5952
930.8720, 101.9451
931.9950, 118.2984
933.1180, 141.6556
934.2410, 123.0947
935.3640, 129.4730
936.4860, 104.8594
937.6090, 105.2545
938.7310, 113.6647
939.8530, 86.07971
940.9750, 91.50317
942.0970, 67.93451
943.2180, 77.36981
944.3400, 54.80908
945.4610, 56.25226
946.5820, 87.69934
947.7030, 88.15106
948.8240, 81.60846
949.9450, 67.07135
951.0650, 90.53845
952.1860, 76.01514
953.3060, 98.49890
954.4260, 93.98663
955.5460, 112.4876
956.6650, 137.9988
957.7850, 103.5179
958.9040, 129.0480
960.0230, 136.5839
961.1420, 137.1239
962.2610, 143.6678
963.3800, 145.2241
964.4990, 133.7922
965.6170, 197.3796
966.7350, 170.9723
967.8530, 189.5715
968.9710, 205.1790
970.0890, 237.8042
971.2070, 298.4373
972.3240, 262.0809
973.4410, 314.7357
974.5580, 352.3977
975.6750, 330.0673
976.7920, 354.7413
977.9090, 343.4196
979.0250, 338.1049
980.1410, 414.7948
981.2580, 429.4897
982.3740, 407.1887
983.4890, 425.8918
984.6050, 488.6016
985.7200, 549.3186
986.8360, 609.0412
987.9510, 770.7734
989.0660, 906.5177
990.1810, 1058.269
991.2950, 1321.026
992.4100, 1648.787
993.5240, 2044.561
994.6390, 2441.340
995.7530, 2648.132
996.8660, 2703.934
997.9800, 2391.746
999.0940, 2000.566
1000.207, 1499.393
1001.320, 1145.228
1002.433, 866.0810
1003.546, 681.9405
1004.659, 543.8105
1005.772, 406.6852
1006.884, 363.5636
1007.996, 294.4470
1009.108, 275.3347
1010.220, 212.2330
1011.332, 180.1354
1012.444, 168.0453
1013.555, 186.9615
1014.666, 132.8813
1015.777, 169.8051
1016.888, 148.7323
1017.999, 99.66345
1019.110, 97.59869
1020.220, 72.54016
1021.331, 70.48505
1022.441, 95.43341
1023.551, 86.38556
1024.661, 54.34161
1025.770, 53.30133
1026.880, 32.26434
1027.989, 53.23059
1029.098, 22.20007
1030.207, 42.17273
1031.316, 14.14844
1032.425, 23.12732
1033.533, 19.10925
1034.642, 14.09418
1035.750, 8.082092
1036.858, 17.07306
1037.966, 7.069397
1039.073, 6.931213
1040.181, 3.931580
1041.288, 5.930603
1042.396, 13.92926
1043.503, 3.931152
1044.610, 6.932068
1045.716, 2.933350
1046.823, 3.933655
1047.929, 12.93341
1049.036, 29.93634
1050.142, 9.951233
1051.248, 62.96570
1052.353, 27.00977
1053.459, 15.06451
1054.564, 37.12415
1055.670, 15.20007
1056.775, 42.28119
1057.880, 29.38086
1058.985, 10.49274
1060.089, 19.60791
1061.194, 1.730774
1062.298, 8.853149
1063.402, 29.02179
1064.506, 10.89862
1065.610, 40.77789
1066.713, 0.3408810
1067.817, 20.54102
1068.920, 13.42493
1070.023, 40.31055
1071.126, 67.19788
1072.229, 39.08698
1073.332, 66.97760
1074.435, 70.86975
1075.537, 82.76343
1076.639, 94.65857
1077.741, 117.5551
1078.843, 114.4531
1079.945, 118.3524
1081.046, 140.2531
1082.148, 142.1550
1083.249, 144.0582
1084.350, 127.9628
1085.451, 151.8683
1086.551, 157.7751
1087.652, 149.6830
1088.752, 222.5918
1089.853, 201.5017
1090.953, 193.4124
1092.053, 207.3240
1093.152, 216.2363
1094.252, 225.1495
1095.351, 219.0635
1096.451, 217.9780
1097.550, 233.8933
1098.649, 260.8091
1099.748, 259.7253
1100.846, 313.6420
1101.945, 242.5590
1103.043, 261.4764
1104.141, 272.3940
1105.239, 261.3118
1106.337, 288.2853
1107.434, 266.2032
1108.532, 270.1212
1109.629, 279.0397
1110.726, 261.9730
1111.823, 266.8955
1112.920, 272.8131
1114.017, 237.7479
1115.113, 215.6680
1116.210, 213.5851
1117.306, 224.2733
1118.402, 250.4324
1119.498, 205.6062
1120.593, 204.3057
1121.689, 189.8369
1122.784, 225.0789
1123.879, 212.0161
1124.974, 229.6214
1126.069, 201.5739
1127.164, 196.3551
1128.259, 140.4129
1129.353, 163.7477
1130.447, 107.3560
1131.541, 93.86542
1132.635, 87.46472
1133.729, 116.1583
1134.822, 99.56183
1135.916, 77.87219
1137.009, 83.81824
1138.102, 68.73303
1139.195, 78.79517
1140.288, 75.77893
1141.380, 65.29675
1142.473, 49.25409
1143.565, 58.34082
1144.657, 106.6931
1145.749, 73.60095
1146.841, 106.5332
1147.932, 89.40985
1149.024, 52.36328
1150.115, 83.37134
1151.206, 117.8447
1152.297, 56.71460
1153.388, 110.5967
1154.479, 78.54486
1155.569, 120.5110
1156.659, 104.4670
1157.750, 107.3210
1158.839, 94.18512
1159.929, 115.0336
1161.019, 135.8793
1162.108, 132.7224
1163.198, 150.5626
1164.287, 120.3999
1165.376, 126.2344
1166.465, 143.0660
1167.553, 154.8948
1168.642, 162.7206
1169.730, 178.6157
1170.818, 153.1925
1171.906, 173.9126
1172.994, 205.5140
1174.082, 195.7280
1175.170, 184.4208
1176.257, 210.9541
1177.344, 201.6418
1178.431, 205.2845
1179.518, 212.4912
1180.605, 219.6951
1181.691, 227.5681
1182.778, 209.6691
1183.864, 198.0087
1184.950, 205.0366
1186.036, 235.7195
1187.122, 206.7174
1188.207, 234.1884
1189.292, 187.3779
1190.378, 213.6160
1191.463, 182.3173
1192.548, 231.9642
1193.632, 167.2679
1194.717, 200.0285
1195.801, 170.8721
1196.886, 197.6472
1197.970, 193.3251
1199.054, 186.1216
1200.137, 175.8708
1201.221, 167.6176
1202.305, 213.3813
1203.388, 211.1234
1204.471, 173.8630
1205.554, 164.6002
1206.637, 189.3351
1207.719, 153.0674
1208.802, 140.7974
1209.884, 181.5248
1210.966, 173.2498
1212.048, 180.9722
1213.130, 154.6921
1214.212, 139.4095
1215.293, 167.1243
1216.374, 134.8365
1217.456, 131.5462
1218.536, 91.25317
1219.617, 86.95752
1220.698, 111.6593
1221.778, 75.35840
1222.859, 96.05481
1223.939, 65.74847
1225.019, 91.43945
1226.099, 47.12775
1227.178, 50.81329
1228.258, 70.49609
1229.337, 54.17615
1230.417, 58.85352
1231.496, 45.52808
1232.574, 76.19989
1233.653, 42.86890
1234.732, 26.53503
1235.810, 9.198486
1236.888, 43.85852
1237.966, 29.51575
1239.044, 19.17010
1240.122, 15.82159
1241.199, 18.47015
1242.277, 25.11584
1243.354, 15.75861
1244.431, 19.39838
1245.508, 29.03528
1246.585, 6.330688
1247.661, 2.293518
1248.738, 14.08765
1249.814, 22.48260
1250.890, 3.895874
1251.966, 0.6822510
1253.042, 15.25433
1254.117, 5.176636
1255.193, 12.38318
1256.268, 8.060242
1257.343, 12.51434
1258.418, 16.98138
1259.493, 5.463745
1260.567, 3.955261
1261.642, 5.455139
1262.716, 22.96423
1263.790, 2.491577
1264.864, 17.02649
1265.938, 11.42352
1267.011, 16.87024
1268.085, 3.314026
1269.158, 6.753357
1270.231, 20.81097
1271.304, 8.607849
1272.377, 2.023254
1273.450, 2.566162
1274.522, 14.83740
1275.594, 10.23798
1276.666, 28.63531
1277.738, 7.030029
1278.810, 3.421326
1279.882, 5.191345
1280.953, 20.18787
1282.025, 16.56433
1283.096, 5.938110
1284.167, 4.308472
1285.238, 4.675232
1286.308, 21.03857
1287.379, 17.39935
1288.449, 20.75751
1289.519, 27.11322
1290.589, 28.46637
1291.659, 20.81720
1292.729, 36.16559
1293.798, 25.51154
1294.868, 38.85516
1295.937, 33.19653
1297.006, 43.53558
1298.075, 5.872498
1299.143, 22.20636
1300.212, 11.53943
1301.280, 24.87073
1302.348, 26.20123
1303.416, 12.53241
1304.484, 25.86212
1305.552, 33.19128
1306.620, 19.51917
1307.687, 31.84613
1308.754, 26.17401
1309.821, 6.492798
1310.888, 19.83600
1311.955, 27.17938
1313.021, 21.52917
1314.088, 18.88080
1315.154, 24.24005
1316.220, 0.3981930
1317.286, 5.971130
1318.352, 19.34589
1319.417, 20.72125
1320.483, 27.09937
1321.548, 26.47498
1322.613, 21.85059
1323.678, 2.223389
1324.743, 13.59320
1325.807, 29.96063
1326.872, 7.326172
1327.936, 26.68921
1329.000, 62.04980
1330.064, 13.40808
1331.128, 42.76392
1332.191, 30.11737
1333.255, 26.46844
1334.318, 20.81714
1335.381, 44.16345
1336.444, 30.50739
1337.507, 67.84894
1338.569, 38.18811
1339.632, 18.52496
1340.694, 44.85944
1341.756, 39.19153
1342.818, 46.52118
1343.880, 61.84845
1344.941, 59.17334
1346.003, 81.49585
1347.064, 72.81598
1348.125, 62.13379
1349.186, 72.44922
1350.247, 63.76239
1351.308, 95.07343
1352.368, 60.38232
1353.428, 88.68933
1354.489, 108.9944
1355.549, 66.29761
1356.608, 107.5990
1357.668, 87.89893
1358.727, 97.19733
1359.787, 92.49426
1360.846, 139.7897
1361.905, 110.0840
1362.964, 112.3768
1364.022, 99.61292
1365.081, 105.9034
1366.139, 92.19269
1367.197, 96.48016
1368.255, 85.75201
1369.313, 117.0333
1370.371, 97.31812
1371.428, 105.5847
1372.486, 116.8649
1373.543, 98.14679
1374.600, 90.65625
1375.657, 104.6937
1376.713, 87.71503
1377.770, 90.20941
1378.826, 71.87067
1379.882, 80.81976
1380.938, 98.07214
1381.994, 91.65509
1383.050, 86.88928
1384.106, 58.29327
1385.161, 64.41907
1386.216, 61.26624
1387.271, 61.83850
1388.326, 79.50800
1389.381, 97.08606
1390.435, 92.56805
1391.490, 82.33850
1392.544, 87.20056
1393.598, 91.42529
1394.652, 75.67963
1395.705, 91.78516
1396.759, 90.96753
1397.812, 110.6143
1398.866, 82.82007
1399.919, 90.89508
1400.972, 120.7031
1402.024, 94.95428
1403.077, 69.17975
1404.129, 91.45953
1405.181, 91.66125
1406.233, 83.80713
1407.285, 88.48639
1408.337, 83.76819
1409.389, 72.03650
1410.440, 74.23773
1411.491, 56.41986
1412.542, 76.61127
1413.593, 52.90375
1414.644, 83.18518
1415.695, 74.48138
1416.745, 75.77972
1417.795, 58.08020
1418.845, 54.38281
1419.895, 65.68793
1420.945, 90.99554
1421.995, 43.32446
1423.044, 47.64655
1424.093, 58.96246
1425.142, 69.20917
1426.191, 35.53156
1427.240, 59.82385
1428.289, 41.15314
1429.337, 65.48621
1430.385, 42.79517
1431.433, 54.13641
1432.481, 39.48206
1433.529, 33.83246
1434.577, 25.21600
1435.624, 30.59100
1436.672, 51.45374
1437.719, 33.93347
1438.766, 19.72742
1439.812, 31.11157
1440.859, 49.50299
1441.905, 34.03754
1442.952, 26.28918
1443.998, 25.67731
1445.044, 25.99268
1446.090, 36.26288
1447.135, 40.25403
1448.181, 6.494507
1449.226, 30.62598
1450.271, 25.81348
1451.316, 21.04401
1452.361, 16.25146
1453.405, 9.476013
1454.450, 39.69775
1455.494, 10.91663
1456.538, 16.13263
1457.582, 16.34583
1458.626, 26.55621
1459.670, 18.76379
1460.713, 7.968689
1461.757, 46.17078
1462.800, 23.37012
1463.843, 28.56671
1464.886, 19.76062
1465.928, 18.95184
1466.971, 28.14014
1468.013, 28.32574
1469.055, 14.50922
1470.097, 16.68994
1471.139, 40.86798
1472.181, 54.04327
1473.222, 30.21582
1474.263, 38.39594
1475.305, 50.59894
1476.346, 34.81921
1477.386, 25.04431
1478.427, 52.27747
1479.468, 43.53625
1480.508, 47.81500
1481.548, 60.11633
1482.588, 49.44360
1483.628, 58.78088
1484.668, 61.12213
1485.707, 17.48572
1486.747, 83.85736
1487.786, 33.23462
1488.825, 27.61438
1489.864, 37.00269
1490.902, 51.39722
1491.941, 65.79584
1492.979, 55.19879
1494.017, 66.60400
1495.055, 45.01111
1496.093, 54.42017
1497.131, 52.83099
1498.168, 50.24335
1499.206, 42.65833
1500.243, 40.07544
1501.280, 40.49408
1502.317, 83.91406
1503.354, 65.33484
1504.390, 49.76001
1505.426, 30.18494
1506.463, 24.60626
1507.499, 47.02625
1508.535, 43.44775
1509.570, 20.87463
1510.606, 37.31000
1511.641, 59.75305
1512.676, 51.20312
1513.711, 49.66034
1514.746, 22.12549
1515.781, 18.59906
1516.816, 38.08191
1517.850, 19.57477
1518.884, 18.07837
1519.918, 11.59369
1520.952, 34.12164
1521.986, 7.663147
1523.019, 23.21942
1524.053, 23.79004
1525.086, 32.37488
1526.119, 61.97327
1527.152, 40.58398
1528.185, 35.20624
1529.217, 42.83948
1530.250, 49.48370
1531.282, 37.13910
1532.314, 27.80591
1533.346, 55.48468
1534.377, 61.17621
1535.409, 19.88129
1536.440, 35.60089
1537.472, 45.33618
1538.503, 21.08826
1539.534, 44.85901
1540.564, 47.65015
1541.595, 20.46301
1542.625, 39.29871
1543.656, 26.15863
1544.686, 11.04388
1545.716, 5.955994
1546.745, 8.896118
1547.775, 19.86499
1548.804, 33.86395
1549.834, 32.89453
1550.863, 31.95901
1551.892, 53.06021
1552.920, 62.20154
1553.949, 65.38663
1554.977, 61.61963
1556.006, 41.90497
1557.034, 20.24744
1558.062, 13.65237
1559.089, 17.83795
1560.117, 15.36023
1561.144, 2.962372
1562.172, 3.346100
1563.199, 32.44537
1564.226, 30.34827
1565.252, 6.453552
1566.279, 53.77542
1567.305, 3.601288
1568.332, 11.62659
1569.358, 0.6195680
1570.384, 0.0000000E+00
##END=



