##NAMES=Andradite
##RRUFFID=R050256
##IDEAL CHEMISTRY=Ca_3_Fe^3+^_2_(SiO_4_)_3_
##LOCALITY=Franklin, Sussex County, New Jersey, USA
##OWNER=RRUFF
##SOURCE=Marcus Origlieri
##DESCRIPTION=Reddish brown fragments
##STATUS=The identification of this mineral has been confirmed by X-ray diffraction and chemical analysis
##URL=rruff.info/R050256
##MEASURED CHEMISTRY=(Ca_2.27_Mn_0.73_)_Σ=3_(Fe^3+^_1.35_Al_0.65_)_Σ=2_(Si_1.00_O_4_)_3_
##PIN_ID=M00458
##ORIENTATION=Laser parallel to -c* (0 0 -1). Fiducial mark perpendicular to laser is parallel to a [1 0 0]
123.0580, 0.0000000E+00
124.2880, 11.94238
125.5190, 32.36133
126.7490, 33.71143
127.9790, 42.25269
129.2090, 22.65430
130.4390, 27.44702
131.6680, 31.24780
132.8980, 30.36108
134.1270, 55.57593
135.3560, 105.5879
136.5850, 142.4944
137.8140, 120.2690
139.0430, 149.4856
140.2710, 124.7876
141.5000, 101.8596
142.7280, 106.9817
143.9560, 27.19629
145.1840, 25.48853
146.4120, 30.20703
147.6390, 53.95093
148.8670, 36.79565
150.0940, 43.78809
151.3210, 11.03076
152.5490, 33.81274
153.7750, 110.9629
155.0020, 78.01611
156.2290, 114.7603
157.4550, 54.17358
158.6810, 114.2373
159.9080, 138.9331
161.1340, 264.2344
162.3590, 296.1079
163.5850, 464.5217
164.8110, 536.4417
166.0360, 609.8376
167.2610, 636.6824
168.4860, 694.9575
169.7110, 738.6475
170.9360, 871.7412
172.1610, 816.2271
173.3850, 952.0969
174.6100, 861.3433
175.8340, 973.9585
177.0580, 946.9373
178.2820, 839.2744
179.5050, 844.9648
180.7290, 867.0039
181.9520, 757.3879
183.1760, 761.1135
184.3990, 641.1772
185.6220, 653.5762
186.8450, 521.3079
188.0670, 459.3706
189.2900, 470.7627
190.5120, 423.4824
191.7340, 435.5298
192.9560, 461.9014
194.1780, 451.5981
195.4000, 394.6182
196.6220, 361.9331
197.8430, 351.4009
199.0640, 385.0415
200.2860, 461.8755
201.5070, 459.6807
202.7270, 553.8809
203.9480, 493.1113
205.1690, 501.3799
206.3890, 485.7690
207.6090, 533.2842
208.8290, 595.8867
210.0490, 666.5747
211.2690, 824.4023
212.4890, 951.3892
213.7080, 1071.540
214.9280, 1276.858
216.1470, 1362.349
217.3660, 1602.014
218.5850, 1711.856
219.8030, 1883.878
221.0220, 2165.081
222.2400, 2341.470
223.4590, 2687.043
224.6770, 2839.804
225.8950, 3226.753
227.1120, 3443.892
228.3300, 3669.220
229.5480, 3896.740
230.7650, 4254.451
231.9820, 4401.354
233.1990, 4462.450
234.4160, 4403.738
235.6330, 4373.219
236.8490, 4120.893
238.0660, 3984.760
239.2820, 3647.819
240.4980, 3176.073
241.7140, 2965.520
242.9300, 2539.158
244.1460, 2239.992
245.3610, 1980.022
246.5770, 1581.249
247.7920, 1466.674
249.0070, 1233.299
250.2220, 1049.125
251.4370, 886.1553
252.6510, 793.9497
253.8660, 837.8271
255.0800, 706.4707
256.2940, 661.3203
257.5080, 672.3750
258.7220, 1002.637
259.9360, 1313.104
261.1490, 1044.778
262.3630, 670.6577
263.5760, 458.7437
264.7890, 414.0356
266.0020, 503.5337
267.2150, 350.2607
268.4270, 379.8257
269.6400, 449.2783
270.8520, 234.8892
272.0640, 333.4517
273.2760, 265.2256
274.4880, 309.6069
275.7000, 195.8066
276.9120, 196.5122
278.1230, 207.5215
279.3340, 151.7993
280.5450, 75.86670
281.7560, 72.83252
282.9670, 2.136719
284.1780, 55.13818
285.3880, 48.65186
286.5980, 87.39795
287.8090, 177.3716
289.0190, 168.5684
290.2290, 153.8296
291.4380, 252.3994
292.6480, 323.3145
293.8570, 491.5898
295.0670, 633.0620
296.2760, 750.6201
297.4850, 886.2607
298.6930, 1100.095
299.9020, 1172.119
301.1110, 1581.329
302.3190, 1842.724
303.5270, 2059.300
304.7350, 2282.056
305.9430, 2619.988
307.1510, 2827.096
308.3580, 3075.375
309.5660, 3461.824
310.7730, 3730.443
311.9800, 3900.228
313.1870, 4038.176
314.3940, 4127.187
315.6010, 4162.777
316.8070, 4158.998
318.0130, 4093.591
319.2200, 4023.342
320.4260, 3861.251
321.6310, 3767.313
322.8370, 3744.530
324.0430, 3789.898
325.2480, 3939.419
326.4540, 3914.089
327.6590, 4083.908
328.8640, 4442.875
330.0680, 4648.989
331.2730, 4869.247
332.4780, 5067.649
333.6820, 5385.193
334.8860, 5551.881
336.0900, 5899.709
337.2940, 6137.676
338.4980, 6383.781
339.7010, 6845.025
340.9050, 7346.404
342.1080, 8103.915
343.3110, 8613.565
344.5140, 9296.348
345.7170, 10375.26
346.9200, 11216.31
348.1220, 12259.49
349.3240, 13735.81
350.5270, 15236.25
351.7290, 16694.83
352.9310, 18939.54
354.1320, 21301.38
355.3340, 23873.36
356.5350, 27287.47
357.7370, 31013.71
358.9380, 35027.08
360.1390, 38751.60
361.3400, 43142.25
362.5400, 46903.07
363.7410, 50783.03
364.9410, 54023.14
366.1410, 56169.43
367.3410, 57885.89
368.5410, 58527.52
369.7410, 57660.30
370.9400, 55700.27
372.1400, 52133.41
373.3390, 47469.71
374.5380, 42528.20
375.7370, 37064.86
376.9360, 31962.70
378.1350, 26894.70
379.3330, 22730.85
380.5310, 19143.16
381.7300, 15912.63
382.9280, 13469.24
384.1260, 11436.00
385.3230, 9666.909
386.5210, 8276.982
387.7180, 7007.196
388.9160, 5991.564
390.1130, 5028.075
391.3100, 4300.725
392.5060, 3609.517
393.7030, 3086.451
394.9000, 2663.521
396.0960, 2207.725
397.2920, 1844.073
398.4880, 1590.564
399.6840, 1259.179
400.8800, 944.9399
402.0750, 738.8486
403.2710, 647.9097
404.4660, 491.1030
405.6610, 347.4604
406.8560, 213.2109
408.0510, 100.5244
409.2450, 4.260742
410.4400, 60.86719
411.6340, 30.12549
412.8280, 95.74609
414.0220, 120.4707
415.2160, 121.0444
416.4100, 183.4839
417.6030, 154.7998
418.7970, 231.9790
419.9900, 144.0342
421.1830, 5.954102
422.3760, 60.72266
423.5690, 7.358398
424.7610, 88.14258
425.9540, 140.7856
427.1460, 209.1094
428.3380, 276.4282
429.5300, 340.4702
430.7220, 387.6372
431.9140, 462.9331
433.1050, 488.3525
434.2970, 513.8916
435.4880, 539.5522
436.6790, 724.3369
437.8700, 727.2510
439.0610, 898.2842
440.2510, 826.4390
441.4420, 902.7031
442.6320, 995.0796
443.8220, 1003.562
445.0120, 1084.147
446.2020, 1066.836
447.3910, 1179.625
448.5810, 1175.517
449.7700, 1113.508
450.9600, 1201.598
452.1490, 1195.784
453.3370, 1156.065
454.5260, 1274.442
455.7150, 1161.913
456.9030, 1087.476
458.0910, 1100.132
459.2800, 1109.878
460.4670, 967.7153
461.6550, 817.6416
462.8430, 777.6562
464.0300, 655.7588
465.2180, 527.9478
466.4050, 453.2222
467.5920, 458.5815
468.7790, 445.0244
469.9650, 503.5508
471.1520, 642.1592
472.3380, 763.8486
473.5250, 1046.618
474.7110, 1254.468
475.8970, 1497.396
477.0820, 1728.401
478.2680, 1987.484
479.4540, 2345.643
480.6390, 2608.875
481.8240, 3000.183
483.0090, 3275.564
484.1940, 3443.019
485.3780, 3864.543
486.5630, 3911.139
487.7470, 4188.804
488.9320, 4446.540
490.1160, 4723.343
491.3000, 4822.214
492.4830, 4833.151
493.6670, 4837.151
494.8500, 4911.220
496.0340, 4876.688
497.2170, 4865.770
498.4000, 4828.801
499.5820, 4721.119
500.7650, 4656.526
501.9480, 4437.828
503.1300, 4492.622
504.3120, 4427.322
505.4940, 4572.899
506.6760, 4834.130
507.8580, 5087.363
509.0390, 5688.691
510.2210, 6140.781
511.4020, 6834.149
512.5830, 7667.936
513.7640, 8878.739
514.9450, 10303.91
516.1250, 11767.43
517.3060, 13730.06
518.4860, 15707.44
519.6660, 17873.89
520.8460, 20310.06
522.0260, 22537.67
523.2060, 24614.35
524.3850, 25973.66
525.5650, 27244.55
526.7440, 27725.60
527.9230, 27420.75
529.1020, 26358.28
530.2810, 24485.42
531.4590, 21939.91
532.6380, 19096.31
533.8160, 16046.20
534.9940, 13286.83
536.1720, 10835.58
537.3500, 8811.386
538.5270, 7276.082
539.7050, 6086.159
540.8820, 5319.444
542.0590, 4589.118
543.2360, 4106.314
544.4130, 3602.856
545.5900, 3375.848
546.7660, 3267.575
547.9430, 3060.775
549.1190, 2941.716
550.2950, 2926.379
551.4710, 2916.339
552.6470, 2786.281
553.8220, 2712.457
554.9980, 2641.834
556.1730, 2721.567
557.3480, 2574.973
558.5230, 2417.402
559.6980, 2464.401
560.8730, 2289.357
562.0470, 2121.827
563.2220, 1963.132
564.3960, 1858.246
565.5700, 1565.866
566.7440, 1454.258
567.9170, 1369.192
569.0910, 1307.137
570.2640, 1243.917
571.4380, 1185.741
572.6110, 1119.368
573.7840, 1153.153
574.9570, 1163.154
576.1290, 1206.852
577.3020, 1137.458
578.4740, 1210.880
579.6460, 1194.030
580.8180, 1327.694
581.9900, 1305.940
583.1620, 1267.027
584.3330, 1350.751
585.5040, 1382.177
586.6760, 1362.848
587.8470, 1522.113
589.0180, 1575.836
590.1880, 1566.203
591.3590, 1728.431
592.5290, 1755.569
593.7000, 1914.675
594.8700, 1962.747
596.0400, 2011.784
597.2090, 2095.786
598.3790, 2133.751
599.5490, 2255.680
600.7180, 2231.571
601.8870, 2335.424
603.0560, 2326.237
604.2250, 2391.011
605.3940, 2290.745
606.5620, 2392.436
607.7300, 2210.086
608.8990, 2248.694
610.0670, 2257.259
611.2350, 2322.780
612.4020, 2161.256
613.5700, 2018.687
614.7370, 1903.072
615.9050, 1884.411
617.0720, 1703.703
618.2390, 1669.946
619.4060, 1406.142
620.5720, 1317.288
621.7390, 1186.385
622.9050, 978.4312
624.0710, 899.4270
625.2370, 845.3711
626.4030, 697.2629
627.5690, 567.1023
628.7340, 489.8884
629.9000, 423.6208
631.0650, 358.2986
632.2300, 294.9216
633.3950, 244.9417
634.5600, 197.5869
635.7240, 157.4546
636.8890, 123.8518
638.0530, 95.19165
639.2170, 71.47314
640.3810, 2.696045
641.5450, 27.83691
642.7080, 19.90601
643.8720, 43.10156
645.0350, 22.21973
646.1980, 93.43823
647.3610, 58.79663
648.5240, 121.2783
649.6870, 82.91724
650.8490, 100.6943
652.0120, 152.6206
653.1740, 86.72412
654.3360, 137.9719
655.4980, 109.3921
656.6600, 140.9702
657.8210, 118.7778
658.9830, 102.1042
660.1440, 63.71973
661.3050, 68.93457
662.4660, 36.29126
663.6270, 44.77368
664.7870, 20.38647
665.9480, 69.11816
667.1080, 84.99512
668.2680, 26.02637
669.4280, 66.18164
670.5880, 22.48291
671.7480, 19.90771
672.9070, 26.45532
674.0670, 37.12964
675.2260, 5.937256
676.3850, 5.862305
677.5440, 50.90527
678.7030, 40.09009
679.8610, 23.58813
681.0200, 63.83813
682.1780, 71.41455
683.3360, 92.14551
684.4940, 19.04272
685.6520, 62.06812
686.8090, 37.24414
687.9670, 64.55811
689.1240, 3.974609
690.2810, 48.60938
691.4380, 10.33813
692.5950, 67.18799
693.7520, 42.19312
694.9080, 71.33398
696.0650, 2.624023
697.2210, 9.026855
698.3770, 39.54004
699.5330, 53.18237
700.6880, 27.95288
701.8440, 22.84814
702.9990, 21.12573
704.1550, 22.99438
705.3100, 7.755615
706.4650, 76.40137
707.6190, 15.95532
708.7740, 46.39819
709.9290, 79.74146
711.0830, 49.99365
712.2370, 80.14746
713.3910, 116.2104
714.5450, 82.18994
715.6980, 138.0789
716.8520, 92.88818
718.0050, 169.6091
719.1580, 131.2544
720.3110, 158.8184
721.4640, 104.3054
722.6170, 203.7075
723.7700, 244.0371
724.9220, 204.2974
726.0740, 283.4851
727.2260, 191.6050
728.3780, 232.6521
729.5300, 258.6294
730.6810, 311.5386
731.8330, 282.3804
732.9840, 295.1548
734.1350, 319.8623
735.2860, 302.5034
736.4370, 363.0779
737.5880, 297.5864
738.7380, 305.0288
739.8880, 302.4053
741.0390, 349.7161
742.1890, 291.9617
743.3380, 354.1426
744.4880, 346.2583
745.6380, 369.3096
746.7870, 398.2961
747.9360, 373.2190
749.0850, 387.0781
750.2340, 412.8738
751.3830, 390.6057
752.5310, 443.2749
753.6800, 399.8816
754.8280, 425.4260
755.9760, 414.9082
757.1240, 492.3284
758.2720, 434.6873
759.4190, 495.9851
760.5670, 501.2219
761.7140, 459.3984
762.8610, 460.5144
764.0080, 493.5708
765.1550, 583.5676
766.3020, 577.5049
767.4480, 576.3835
768.5950, 638.2036
769.7410, 603.9653
770.8870, 654.6714
772.0330, 684.3198
773.1780, 699.9111
774.3240, 695.4575
775.4690, 714.9482
776.6140, 767.3848
777.7590, 835.7832
778.9040, 868.0232
780.0490, 904.5417
781.1940, 951.5046
782.3380, 1021.572
783.4820, 1036.778
784.6260, 1144.347
785.7700, 1209.918
786.9140, 1275.423
788.0580, 1397.185
789.2010, 1453.693
790.3450, 1522.795
791.4880, 1650.904
792.6310, 1821.668
793.7730, 2011.111
794.9160, 2245.454
796.0590, 2511.072
797.2010, 2880.626
798.3430, 3192.480
799.4850, 3502.912
800.6270, 3986.310
801.7690, 4416.083
802.9100, 4942.300
804.0520, 5410.371
805.1930, 6023.352
806.3340, 6637.944
807.4750, 7224.929
808.6160, 7996.578
809.7560, 8705.308
810.8970, 9641.552
812.0370, 10207.05
813.1770, 11152.44
814.3170, 12224.76
815.4570, 12907.19
816.5960, 13857.24
817.7360, 14626.06
818.8750, 15428.49
820.0140, 15947.37
821.1530, 16622.91
822.2920, 16395.98
823.4310, 16794.31
824.5690, 16451.15
825.7070, 16167.23
826.8460, 15777.59
827.9840, 15095.60
829.1220, 14411.99
830.2590, 13742.79
831.3970, 12960.14
832.5340, 12345.63
833.6710, 11599.43
834.8080, 10872.80
835.9450, 10522.25
837.0820, 9939.837
838.2190, 9866.000
839.3550, 9519.480
840.4910, 9684.526
841.6270, 9562.642
842.7630, 9820.048
843.8990, 10071.89
845.0350, 10455.71
846.1700, 10810.67
847.3060, 11031.57
848.4410, 11507.65
849.5760, 11652.54
850.7100, 11787.21
851.8450, 11760.24
852.9800, 11557.16
854.1140, 11374.34
855.2480, 11053.76
856.3820, 10718.65
857.5160, 10142.93
858.6500, 9895.348
859.7830, 9627.104
860.9170, 9248.133
862.0500, 9192.893
863.1830, 9190.036
864.3160, 9154.691
865.4480, 9333.680
866.5810, 9402.777
867.7130, 9769.942
868.8460, 10056.11
869.9780, 10609.29
871.1100, 11395.47
872.2410, 11964.66
873.3730, 12915.86
874.5050, 13928.07
875.6360, 15265.29
876.7670, 16596.51
877.8980, 18034.75
879.0290, 19354.99
880.1590, 20372.26
881.2900, 21109.53
882.4200, 21830.80
883.5500, 21986.10
884.6800, 21479.41
885.8100, 20453.73
886.9400, 18881.06
888.0690, 17398.40
889.1990, 15691.77
890.3280, 13735.14
891.4570, 12166.53
892.5860, 10709.94
893.7140, 9200.361
894.8430, 8098.801
895.9710, 7176.256
897.1000, 6436.728
898.2280, 5694.217
899.3560, 5096.725
900.4830, 4653.251
901.6110, 4287.795
902.7380, 3859.358
903.8660, 3570.942
904.9930, 3321.543
906.1200, 3001.343
907.2460, 2729.985
908.3730, 2557.649
909.5000, 2432.683
910.6260, 2326.452
911.7520, 2205.402
912.8780, 2027.824
914.0040, 2031.187
915.1290, 1861.640
916.2550, 1882.231
917.3800, 1886.098
918.5050, 1779.935
919.6300, 1773.721
920.7550, 1815.265
921.8800, 1818.341
923.0040, 1718.532
924.1290, 1652.573
925.2530, 1723.021
926.3770, 1745.574
927.5010, 1742.463
928.6250, 1817.238
929.7480, 1848.229
930.8720, 1991.057
931.9950, 2121.749
933.1180, 2132.561
934.2410, 2306.280
935.3640, 2470.298
936.4860, 2598.963
937.6090, 2683.547
938.7310, 2730.808
939.8530, 2770.410
940.9750, 2657.156
942.0970, 2776.779
943.2180, 2534.800
944.3400, 2500.390
945.4610, 2405.106
946.5820, 2228.163
947.7030, 2011.667
948.8240, 1849.837
949.9450, 1697.807
951.0650, 1562.466
952.1860, 1481.863
953.3060, 1375.940
954.4260, 1375.761
955.5460, 1398.648
956.6650, 1387.607
957.7850, 1356.618
958.9040, 1542.694
960.0230, 1559.828
961.1420, 1692.027
962.2610, 1701.273
963.3800, 1842.581
964.4990, 1925.941
965.6170, 2076.366
966.7350, 2194.852
967.8530, 2301.406
968.9710, 2410.009
970.0890, 2560.663
971.2070, 2695.377
972.3240, 2812.154
973.4410, 2922.988
974.5580, 3054.876
975.6750, 3210.809
976.7920, 3368.785
977.9090, 3477.808
979.0250, 3593.329
980.1410, 3687.968
981.2580, 3791.110
982.3740, 3876.880
983.4890, 3943.502
984.6050, 4030.752
985.7200, 4073.450
986.8360, 4130.469
987.9510, 4144.695
989.0660, 4177.074
990.1810, 4149.479
991.2950, 4157.916
992.4100, 4282.380
993.5240, 4353.878
994.6390, 4448.401
995.7530, 4584.562
996.8660, 4822.525
997.9800, 4857.129
999.0940, 4989.766
1000.207, 5130.431
1001.320, 5088.124
1002.433, 4917.848
1003.546, 4764.599
1004.659, 4482.377
1005.772, 4140.193
1006.884, 3768.039
1007.996, 3310.933
1009.108, 2750.856
1010.220, 2437.819
1011.332, 2072.614
1012.444, 1840.825
1013.555, 1515.866
1014.666, 1323.948
1015.777, 1075.053
1016.888, 994.1814
1017.999, 909.3438
1019.110, 769.5308
1020.220, 740.7524
1021.331, 646.9973
1022.441, 589.2793
1023.551, 449.5835
1024.661, 482.9170
1025.770, 362.2769
1026.880, 296.6655
1027.989, 157.0776
1029.098, 111.5129
1030.207, 124.9707
1031.316, 60.45068
1032.425, 60.95288
1033.533, 39.47559
1034.642, 15.02393
1035.750, 21.59668
1036.858, 36.19653
1037.966, 56.82007
1039.073, 9.536133
1040.181, 9.124268
1041.288, 35.80420
1042.396, 69.49658
1043.503, 0.8010250
1044.610, 10.08887
1045.716, 92.36011
1046.823, 22.64575
1047.929, 69.92065
1049.036, 50.20435
1050.142, 54.48608
1051.248, 51.76904
1052.353, 69.05469
1053.459, 16.34790
1054.564, 123.6318
1055.670, 69.95435
1056.775, 118.2893
1057.880, 50.66235
1058.985, 105.0427
1060.089, 91.45654
1061.194, 120.8987
1062.298, 88.38501
1063.402, 64.89941
1064.506, 78.43018
1065.610, 59.98657
1066.713, 108.5601
1067.817, 127.1760
1068.920, 86.84521
1070.023, 83.54688
1071.126, 76.28101
1072.229, 25.04346
1073.332, 25.81274
1074.435, 21.58716
1075.537, 46.36768
1076.639, 17.16724
1077.741, 17.97168
1078.843, 41.78296
1079.945, 20.38745
1081.046, 40.43530
1082.148, 4.722900
1083.249, 40.88159
1084.350, 75.04614
1085.451, 109.2156
1086.551, 109.3904
1087.652, 121.5696
1088.752, 86.75317
1089.853, 122.9412
1090.953, 139.1328
1092.053, 118.3276
1093.152, 184.5254
1094.252, 172.7253
1095.351, 204.9275
1096.451, 257.1311
1097.550, 257.3362
1098.649, 284.5420
1099.748, 272.7485
1100.846, 278.9556
1101.945, 353.1621
1103.043, 368.3684
1104.141, 341.5735
1105.239, 296.7773
1106.337, 310.9800
1107.434, 340.1807
1108.532, 310.3792
1109.629, 355.5752
1110.726, 336.7688
1111.823, 326.9592
1112.920, 356.1462
1114.017, 398.3296
1115.113, 473.5229
1116.210, 454.6982
1117.306, 527.8694
1118.402, 641.0361
1119.498, 689.1982
1120.593, 692.4224
1121.689, 734.5740
1122.784, 819.7202
1123.879, 683.9053
1124.974, 726.1440
1126.069, 587.3691
1127.164, 501.7671
1128.259, 429.9727
1129.353, 404.1948
1130.447, 353.4980
1131.541, 338.8335
1132.635, 299.0027
1133.729, 289.9810
1134.822, 236.5298
1135.916, 263.4753
1137.009, 245.3882
1138.102, 202.1541
1139.195, 259.1721
1140.288, 213.5950
1141.380, 258.5156
1142.473, 297.1982
1143.565, 253.5881
1144.657, 281.8557
1145.749, 259.2417
1146.841, 202.4160
1147.932, 160.6226
1149.024, 207.4241
1150.115, 162.9912
1151.206, 156.9131
1152.297, 204.1914
1153.388, 167.8040
1154.479, 221.9255
1155.569, 217.5974
1156.659, 205.6460
1157.750, 194.3276
1158.839, 192.8042
1159.929, 197.2729
1161.019, 179.5674
1162.108, 239.8359
1163.198, 190.0950
1164.287, 182.1245
1165.376, 186.1819
1166.465, 241.8879
1167.553, 234.4749
1168.642, 256.1423
1169.730, 251.1951
1170.818, 265.8491
1171.906, 224.7939
1172.994, 262.6589
1174.082, 268.3765
1175.170, 225.0610
1176.257, 285.9214
1177.344, 276.5205
1178.431, 243.7842
1179.518, 262.6472
1180.605, 352.1272
1181.691, 356.2117
1182.778, 255.9717
1183.864, 362.4197
1184.950, 343.5962
1186.036, 309.1548
1187.122, 350.1045
1188.207, 395.8572
1189.292, 343.1448
1190.378, 362.4221
1191.463, 364.3958
1192.548, 341.4346
1193.632, 361.5876
1194.717, 381.2090
1195.801, 380.6082
1196.886, 363.0078
1197.970, 370.9688
1199.054, 330.7710
1200.137, 384.3979
1201.221, 375.1614
1202.305, 349.3933
1203.388, 298.1245
1204.471, 365.2551
1205.554, 348.1055
1206.637, 305.4600
1207.719, 345.4634
1208.802, 424.3115
1209.884, 383.7939
1210.966, 372.9385
1212.048, 391.3955
1213.130, 349.1145
1214.212, 369.1494
1215.293, 335.1079
1216.374, 416.0510
1217.456, 401.0281
1218.536, 371.9404
1219.617, 381.9995
1220.698, 350.0010
1221.778, 338.8662
1222.859, 357.7158
1223.939, 325.9875
1225.019, 315.3918
1226.099, 296.1938
1227.178, 326.9795
1228.258, 321.7493
1229.337, 307.5024
1230.417, 320.1167
1231.496, 295.9607
1232.574, 324.6650
1233.653, 290.3530
1234.732, 301.5166
1235.810, 275.0369
1236.888, 249.3181
1237.966, 226.9402
1239.044, 180.5454
1240.122, 179.1335
1241.199, 144.7056
1242.277, 135.2603
1243.354, 126.8440
1244.431, 79.31958
1245.508, 108.8237
1246.585, 156.3110
1247.661, 142.7810
1248.738, 112.2344
1249.814, 69.67065
1250.890, 121.0896
1251.966, 99.49097
1253.042, 76.87573
1254.117, 63.24292
1255.193, 65.59180
1256.268, 39.24609
1257.343, 68.23438
1258.418, 7.528564
1259.493, 5.795166
1260.567, 5.033203
1261.642, 17.24243
1262.716, 3.572510
1263.790, 10.57959
1264.864, 12.70532
1265.938, 21.19434
1267.011, 3.136475
1268.085, 71.11133
1269.158, 1.845215
1270.231, 38.22852
1271.304, 18.64697
1272.377, 1.499268
1273.450, 41.32129
1274.522, 46.87622
1275.594, 49.87085
1276.666, 44.59912
1277.738, 22.69189
1278.810, 18.97534
1279.882, 25.38013
1280.953, 33.22095
1282.025, 37.19800
1283.096, 45.33374
1284.167, 7.153564
1285.238, 2.327881
1286.308, 8.218750
1287.379, 16.20117
1288.449, 15.59912
1289.519, 22.97437
1290.589, 23.32861
1291.659, 22.66235
1292.729, 38.97510
1293.798, 1.730713
1294.868, 3.535156
1295.937, 11.22437
1297.006, 2.983398
1298.075, 28.16553
1299.143, 49.32861
1300.212, 33.47583
1301.280, 40.60474
1302.348, 20.71582
1303.416, 50.81885
1304.484, 16.90601
1305.552, 6.975098
1306.620, 30.03955
1307.687, 89.09009
1308.754, 5.137939
1309.821, 10.17383
1310.888, 40.20020
1311.955, 1.220215
1313.021, 33.23096
1314.088, 49.22852
1315.154, 8.237549
1316.220, 39.24146
1317.286, 59.25537
1318.352, 51.26538
1319.417, 54.28418
1320.483, 80.30835
1321.548, 27.34619
1322.613, 10.38574
1323.678, 54.42236
1324.743, 40.46167
1325.807, 45.49902
1326.872, 43.54712
1327.936, 48.60889
1329.000, 44.67676
1330.064, 29.75024
1331.128, 66.82715
1332.191, 6.896484
1333.255, 53.95752
1334.318, 97.01123
1335.381, 45.06201
1336.444, 60.10522
1337.507, 75.14038
1338.569, 58.17383
1339.632, 71.19312
1340.694, 64.21021
1341.756, 73.40039
1342.818, 90.20605
1343.880, 101.1826
1344.941, 76.14502
1346.003, 98.09253
1347.064, 49.02588
1348.125, 58.94434
1349.186, 146.8477
1350.247, 121.7363
1351.308, 106.6111
1352.368, 81.47119
1353.428, 124.3169
1354.489, 107.1482
1355.549, 125.9651
1356.608, 130.7678
1357.668, 112.5564
1358.727, 114.3311
1359.787, 111.0925
1360.846, 130.8411
1361.905, 86.57642
1362.964, 131.2991
1364.022, 170.0088
1365.081, 123.7065
1366.139, 203.3918
1367.197, 185.0654
1368.255, 183.7271
1369.313, 118.3774
1370.371, 170.0164
1371.428, 156.6436
1372.486, 205.2463
1373.543, 160.8516
1374.600, 145.4458
1375.657, 197.0295
1376.713, 213.6028
1377.770, 181.1094
1378.826, 223.6616
1379.882, 201.2034
1380.938, 159.6902
1381.994, 218.1077
1383.050, 184.5225
1384.106, 245.7483
1385.161, 194.3025
1386.216, 220.6707
1387.271, 181.9419
1388.326, 174.1636
1389.381, 191.8901
1390.435, 222.5715
1391.490, 208.0386
1392.544, 144.5825
1393.598, 165.1421
1394.652, 175.8313
1395.705, 178.2507
1396.759, 185.2480
1397.812, 228.7297
1398.866, 156.4316
1399.919, 223.4087
1400.972, 170.4900
1402.024, 186.4355
1403.077, 180.5745
1404.129, 170.6636
1405.181, 175.1401
1406.233, 220.8330
1407.285, 217.1528
1408.337, 221.9089
1409.389, 228.6929
1410.440, 199.7595
1411.491, 195.5259
1412.542, 165.6296
1413.593, 204.0823
1414.644, 196.7219
1415.695, 204.3511
1416.745, 139.1335
1417.795, 201.9243
1418.845, 249.7061
1419.895, 176.6992
1420.945, 223.6470
1421.995, 142.9282
1423.044, 200.3108
1424.093, 205.5947
1425.142, 204.4756
1426.191, 189.5608
1427.240, 215.5154
1428.289, 196.5322
1429.337, 139.3291
1430.385, 163.4211
1431.433, 178.1594
1432.481, 153.6926
1433.529, 185.6270
1434.577, 186.8877
1435.624, 126.4065
1436.672, 88.33936
1437.719, 137.4219
1438.766, 156.8525
1439.812, 135.8477
1440.859, 134.9683
1441.905, 162.6416
1442.952, 102.6758
1443.998, 135.8252
1445.044, 151.0603
1446.090, 81.16479
1447.135, 168.2346
1448.181, 116.6245
1449.226, 164.5100
1450.271, 164.3596
1451.316, 155.2051
1452.361, 94.98755
1453.405, 129.3875
1454.450, 81.33521
1455.494, 97.26831
1456.538, 170.1528
1457.582, 148.0520
1458.626, 183.1055
1459.670, 142.0840
1460.713, 125.7795
1461.757, 105.7693
1462.800, 156.7109
1463.843, 123.6599
1464.886, 133.5891
1465.928, 91.49780
1466.971, 101.3867
1468.013, 126.2556
1469.055, 108.1042
1470.097, 101.9326
1471.139, 99.74072
1472.181, 90.52856
1473.222, 90.97925
1474.263, 96.04297
1475.305, 90.76904
1476.346, 68.47461
1477.386, 68.16040
1478.427, 33.82837
1479.468, 59.48267
1480.508, 44.96094
1481.548, 77.81714
1482.588, 52.49683
1483.628, 74.20923
1484.668, 100.9963
1485.707, 61.82935
1486.747, 86.67163
1487.786, 88.55811
1488.825, 53.45435
1489.864, 83.38428
1490.902, 68.35205
1491.941, 46.34717
1492.979, 66.37329
1494.017, 9.416992
1495.055, 17.46631
1496.093, 38.51929
1497.131, 85.59351
1498.168, 69.70361
1499.206, 82.82129
1500.243, 81.93945
1501.280, 66.06055
1502.317, 1.810303
1503.354, 72.32251
1504.390, 15.46289
1505.426, 60.60938
1506.463, 68.76172
1507.499, 32.91968
1508.535, 69.07446
1509.570, 9.773438
1510.606, 38.39136
1511.641, 31.56323
1512.676, 42.74878
1513.711, 89.94434
1514.746, 27.14771
1515.781, 32.35522
1516.816, 19.57324
1517.850, 45.79785
1518.884, 75.03101
1519.918, 5.274902
1520.952, 43.53198
1521.986, 31.80420
1523.019, 58.09521
1524.053, 87.40796
1525.086, 72.74585
1526.119, 50.11182
1527.152, 42.50732
1528.185, 9.931396
1529.217, 89.38135
1530.250, 96.85596
1531.282, 76.35474
1532.314, 91.87524
1533.346, 63.41699
1534.377, 29.98120
1535.409, 11.43384
1536.440, 61.17285
1537.472, 34.76001
1538.503, 58.41309
1539.534, 74.09229
1540.564, 82.18115
1541.595, 115.8977
1542.625, 66.64502
1543.656, 37.42578
1544.686, 37.24219
1545.716, 43.09717
1546.745, 85.99390
1547.775, 18.93408
1548.804, 12.91919
1549.834, 45.94971
1550.863, 134.0266
1551.892, 115.1519
1552.920, 152.3281
1553.949, 227.6189
1554.977, 216.7874
1556.006, 129.0264
1557.034, 53.34375
1558.062, 56.72168
1559.089, 52.16113
1560.117, 4.338623
1561.144, 2.220459
1562.172, 19.83496
1563.199, 35.77856
1564.226, 16.86914
1565.252, 39.13037
1566.279, 46.10010
1567.305, 13.43506
1568.332, 7.6660000E-02
1569.358, 37.00952
1570.384, 0.0000000E+00
##END=



