##NAMES=Andradite
##RRUFFID=R060326
##IDEAL CHEMISTRY=Ca_3_Fe^3+^_2_(SiO_4_)_3_
##LOCALITY=Ultevis, Sweden
##OWNER=RRUFF
##SOURCE=Marcus Origlieri
##DESCRIPTION=Reddish-brown colored druse of crystals associated with white svabite R050180
##STATUS=The identification of this mineral has been confirmed by X-ray diffraction and chemical analysis
##URL=rruff.info/R060326
##MEASURED CHEMISTRY=(Ca_2.98_Mn_0.02_)_Σ=3_(Fe^3+^_1.75_Al_0.21_Ti_0.04_)_Σ=2_(Si_1.00_O_4_)_3_
##PIN_ID=M00248
##ORIENTATION=Laser parallel to (0 -1 -1). Fiducial mark perpendicular to laser is parallel to a [1 0 0]
99.64900, 0.0000000E+00
100.8830, 3.895508
102.1160, 30.05371
103.3490, 6.728516
104.5820, 84.28418
105.8150, 214.6631
107.0470, 253.1611
108.2800, 179.8018
109.5120, 177.5928
110.7440, 132.3623
111.9760, 127.9893
113.2080, 177.2598
114.4400, 191.3384
115.6710, 170.4321
116.9030, 201.5581
118.1340, 197.1655
119.3650, 154.9966
120.5960, 123.5537
121.8270, 72.00684
123.0580, 35.17285
124.2880, 7.664551
125.5190, 0.1289060
126.7490, 2.456543
127.9790, 36.04297
129.2090, 67.63867
130.4390, 28.81543
131.6680, 116.6143
132.8980, 66.07715
134.1270, 22.23730
135.3560, 36.12402
136.5850, 13.24219
137.8140, 23.67188
139.0430, 67.09473
140.2710, 28.24609
141.5000, 165.1514
142.7280, 230.8369
143.9560, 105.3213
145.1840, 29.91504
146.4120, 128.0381
147.6390, 21.44727
148.8670, 2.713867
150.0940, 55.15137
151.3210, 9.283203
152.5490, 90.06152
153.7750, 207.7041
155.0020, 34.21680
156.2290, 153.7930
157.4550, 137.8945
158.6810, 199.8613
159.9080, 247.5361
161.1340, 229.2021
162.3590, 227.8594
163.5850, 317.5078
164.8110, 418.1484
166.0360, 644.7783
167.2610, 849.3965
168.4860, 1282.005
169.7110, 1505.605
170.9360, 1896.203
172.1610, 2049.737
173.3850, 2078.895
174.6100, 1901.178
175.8340, 1700.412
177.0580, 1251.613
178.2820, 1151.977
179.5050, 884.2910
180.7290, 644.6523
181.9520, 650.0537
183.1760, 425.4883
184.3990, 415.9521
185.6220, 279.4307
186.8450, 298.8965
188.0670, 284.3701
189.2900, 117.8564
190.5120, 192.3564
191.7340, 239.8604
192.9560, 231.3750
194.1780, 284.9229
195.4000, 92.48926
196.6220, 123.0664
197.8430, 189.6396
199.0640, 105.2021
200.2860, 149.7676
201.5070, 229.3389
202.7270, 141.9219
203.9480, 99.51660
205.1690, 1.121094
206.3890, 6.261719
207.6090, 47.36914
208.8290, 42.96680
210.0490, 0.7421880
211.2690, 83.53418
212.4890, 46.19824
213.7080, 1.952148
214.9280, 35.71387
216.1470, 36.51465
217.3660, 36.73242
218.5850, 88.05762
219.8030, 97.85840
221.0220, 135.6689
222.2400, 203.2637
223.4590, 196.3223
224.6770, 327.1660
225.8950, 382.0117
227.1120, 508.8379
228.3300, 508.6260
229.5480, 699.3545
230.7650, 966.0840
231.9820, 1133.776
233.1990, 1441.469
234.4160, 1614.180
235.6330, 1270.910
236.8490, 1233.659
238.0660, 946.4277
239.2820, 577.2188
240.4980, 536.0293
241.7140, 251.8613
242.9300, 24.71582
244.1460, 10.41016
245.3610, 146.5176
246.5770, 37.27051
247.7920, 21.92285
249.0070, 29.95508
250.2220, 33.07422
251.4370, 22.98145
252.6510, 57.13379
253.8660, 44.59180
255.0800, 12.22461
256.2940, 81.25781
257.5080, 175.2441
258.7220, 236.5645
259.9360, 241.7266
261.1490, 387.8203
262.3630, 310.8604
263.5760, 339.8398
264.7890, 331.7529
266.0020, 388.6201
267.2150, 395.4570
268.4270, 456.1465
269.6400, 325.6152
270.8520, 418.9619
272.0640, 272.5273
273.2760, 240.9395
274.4880, 338.1221
275.7000, 248.5098
276.9120, 294.5762
278.1230, 322.1953
279.3340, 203.5488
280.5450, 333.4883
281.7560, 323.6074
282.9670, 306.3555
284.1780, 396.2861
285.3880, 329.4033
286.5980, 550.6348
287.8090, 420.2695
289.0190, 577.8604
290.2290, 729.3486
291.4380, 762.3398
292.6480, 796.9287
293.8570, 1048.784
295.0670, 926.6953
296.2760, 809.9668
297.4850, 711.4863
298.6930, 867.9150
299.9020, 856.4775
301.1110, 734.2383
302.3190, 980.6621
303.5270, 923.0117
304.7350, 961.3721
305.9430, 1326.745
307.1510, 1353.134
308.3580, 1531.534
309.5660, 1611.948
310.7730, 1641.297
311.9800, 1838.818
313.1870, 1637.272
314.3940, 1670.936
315.6010, 1555.052
316.8070, 1324.277
318.0130, 1510.602
319.2200, 1516.050
320.4260, 1395.748
321.6310, 1747.158
322.8370, 1734.554
324.0430, 1818.045
325.2480, 1768.477
326.4540, 1939.918
327.6590, 1846.374
328.8640, 1925.845
330.0680, 2137.331
331.2730, 2255.832
332.4780, 2414.347
333.6820, 2669.877
334.8860, 3042.330
336.0900, 3419.889
337.2940, 3761.465
338.4980, 4328.055
339.7010, 5303.658
340.9050, 6323.131
342.1080, 7672.758
343.3110, 9382.407
344.5140, 11236.01
345.7170, 13781.69
346.9200, 16180.38
348.1220, 19221.10
349.3240, 21410.78
350.5270, 22963.77
351.7290, 23136.38
352.9310, 22605.92
354.1320, 21183.35
355.3340, 20064.60
356.5350, 18897.62
357.7370, 18581.24
358.9380, 19277.76
360.1390, 21111.39
361.3400, 23830.61
362.5400, 27846.88
363.7410, 32299.78
364.9410, 37962.70
366.1410, 41934.62
367.3410, 44796.57
368.5410, 44413.54
369.7410, 41850.54
370.9400, 37751.56
372.1400, 32337.63
373.3390, 27021.74
374.5380, 22238.88
375.7370, 17671.05
376.9360, 14497.24
378.1350, 11631.45
379.3330, 9804.671
380.5310, 8113.909
381.7300, 7129.164
382.9280, 5996.436
384.1260, 5341.723
385.3230, 4603.032
386.5210, 4006.356
387.7180, 3356.641
388.9160, 2707.102
390.1130, 2323.107
391.3100, 2192.006
392.5060, 1866.432
393.7030, 1531.887
394.9000, 1143.384
396.0960, 1184.342
397.2920, 1073.191
398.4880, 793.7256
399.6840, 677.2119
400.8800, 441.8164
402.0750, 448.4629
403.2710, 498.1436
404.4660, 413.8398
405.6610, 406.5459
406.8560, 246.2637
408.0510, 371.0244
409.2450, 243.7998
410.4400, 130.6113
411.6340, 169.4688
412.8280, 217.3496
414.0220, 124.2656
415.2160, 102.2168
416.4100, 94.20508
417.6030, 96.22656
418.7970, 59.29004
419.9900, 139.3848
421.1830, 3.490234
422.3760, 84.64453
423.5690, 150.7920
424.7610, 33.95410
425.9540, 38.12988
427.1460, 43.32031
428.3380, 37.47461
429.5300, 52.26367
430.7220, 3.035156
431.9140, 54.20410
433.1050, 82.45605
434.2970, 160.7178
435.4880, 144.4951
436.6790, 61.28320
437.8700, 124.5859
439.0610, 113.9072
440.2510, 117.2402
441.4420, 250.5938
442.6320, 42.95801
443.8220, 50.33594
445.0120, 133.7266
446.2020, 270.1299
447.3910, 156.5439
448.5810, 228.9717
449.7700, 327.4092
450.9600, 274.8594
452.1490, 411.3223
453.3370, 300.7939
454.5260, 149.2793
455.7150, 49.77441
456.9030, 12.72754
458.0910, 31.20312
459.2800, 63.68262
460.4670, 66.16797
461.6550, 1.659180
462.8430, 17.13965
464.0300, 36.38672
465.2180, 25.92480
466.4050, 5.526367
467.5920, 42.96875
468.7790, 24.59082
469.9650, 169.1621
471.1520, 237.7432
472.3380, 288.3340
473.5250, 449.9365
474.7110, 446.5479
475.8970, 566.1689
477.0820, 788.8018
478.2680, 694.4443
479.4540, 997.0967
480.6390, 1099.758
481.8240, 1162.430
483.0090, 1456.111
484.1940, 1562.801
485.3780, 1841.501
486.5630, 2208.210
487.7470, 2465.147
488.9320, 2662.875
490.1160, 2900.610
491.3000, 3002.335
492.4830, 3062.538
493.6670, 3110.879
494.8500, 2945.666
496.0340, 2848.461
497.2170, 2528.286
498.4000, 2270.123
499.5820, 2291.999
500.7650, 2143.883
501.9480, 2112.855
503.1300, 2512.761
504.3120, 2413.689
505.4940, 3116.643
506.6760, 3678.602
507.8580, 4854.568
509.0390, 5880.541
510.2210, 7465.740
511.4020, 9347.682
512.5830, 11639.51
513.7640, 14107.71
514.9450, 15851.20
516.1250, 17287.31
517.3060, 17151.14
518.4860, 15801.18
519.6660, 13770.25
520.8460, 11616.27
522.0260, 9314.299
523.2060, 7482.336
524.3850, 5873.717
525.5650, 4764.758
526.7440, 3727.209
527.9230, 3170.256
529.1020, 2556.363
530.2810, 2229.874
531.4590, 1924.764
532.6380, 1785.488
533.8160, 1440.185
534.9940, 1341.170
536.1720, 1307.167
537.3500, 1133.296
538.5270, 1225.999
539.7050, 1057.970
540.8820, 1076.184
542.0590, 977.7666
543.2360, 1048.903
544.4130, 1019.289
545.5900, 1004.796
546.7660, 994.9648
547.9430, 1003.160
549.1190, 827.8594
550.2950, 961.5547
551.4710, 866.6553
552.6470, 938.5312
553.8220, 965.7168
554.9980, 905.5010
556.1730, 846.0879
557.3480, 745.7910
558.5230, 623.4541
559.6980, 636.1562
560.8730, 464.0381
562.0470, 588.4756
563.2220, 587.5889
564.3960, 531.6787
565.5700, 637.7617
566.7440, 587.8379
567.9170, 858.9062
569.0910, 911.9688
570.2640, 1003.296
571.4380, 1194.491
572.6110, 1318.487
573.7840, 1532.522
574.9570, 1647.549
576.1290, 1583.568
577.3020, 1607.579
578.4740, 1554.583
579.6460, 1192.578
580.8180, 1077.566
581.9900, 1020.546
583.1620, 1061.519
584.3330, 776.4824
585.5040, 892.4375
586.6760, 782.3838
587.8470, 816.3242
589.0180, 724.2539
590.1880, 693.1768
591.3590, 656.0898
592.5290, 801.9932
593.7000, 780.8896
594.8700, 771.7754
596.0400, 671.6533
597.2090, 778.5225
598.3790, 676.1885
599.5490, 479.4033
600.7180, 776.5176
601.8870, 521.5264
603.0560, 632.3145
604.2250, 673.8398
605.3940, 552.6455
606.5620, 529.4414
607.7300, 445.1455
608.8990, 409.9180
610.0670, 343.9355
611.2350, 407.4443
612.4020, 246.1934
613.5700, 279.9316
614.7370, 310.6621
615.9050, 231.3828
617.0720, 279.5625
618.2390, 197.7939
619.4060, 269.4854
620.5720, 224.1660
621.7390, 155.8379
622.9050, 146.4980
624.0710, 106.1504
625.2370, 169.7930
626.4030, 107.4258
627.5690, 26.04785
628.7340, 174.6572
629.9000, 193.2559
631.0650, 285.8457
632.2300, 283.7451
633.3950, 103.9941
634.5600, 269.5527
635.7240, 160.1025
636.8890, 203.6416
638.0530, 191.1709
639.2170, 103.6914
640.3810, 171.2002
641.5450, 35.70020
642.7080, 140.1885
643.8720, 118.6670
645.0350, 254.1348
646.1980, 190.5928
647.3610, 61.04199
648.5240, 67.47949
649.6870, 5.478516
650.8490, 38.16699
652.0120, 4.326172
653.1740, 105.9941
654.3360, 30.74414
655.4980, 72.53613
656.6600, 12.60840
657.8210, 53.73438
658.9830, 8.149414
660.1440, 196.9365
661.3050, 207.0137
662.4660, 182.0801
663.6270, 24.13770
664.7870, 142.1816
665.9480, 1.214844
667.1080, 61.22461
668.2680, 44.22363
669.4280, 47.78613
670.5880, 69.84570
671.7480, 2.966797
672.9070, 98.11328
674.0670, 7.335938
675.2260, 7.588867
676.3850, 112.1318
677.5440, 14.84277
678.7030, 23.46289
679.8610, 42.19531
681.0200, 177.1572
682.1780, 106.6260
683.3360, 63.17383
684.4940, 1.779297
685.6520, 49.59180
686.8090, 41.96289
687.9670, 101.6943
689.1240, 10.58203
690.2810, 77.15820
691.4380, 105.9609
692.5950, 15.84180
693.7520, 73.75000
694.9080, 39.32910
696.0650, 57.72754
697.2210, 41.78809
698.3770, 90.88965
699.5330, 46.64746
700.6880, 40.26953
701.8440, 26.47754
702.9990, 89.21777
704.1550, 133.9492
705.3100, 124.7520
706.4650, 57.38770
707.6190, 56.09473
708.7740, 22.79395
709.9290, 46.51172
711.0830, 88.14941
712.2370, 226.8027
713.3910, 94.44922
714.5450, 122.0889
715.6980, 235.7207
716.8520, 149.3457
718.0050, 237.9629
719.1580, 123.5732
720.3110, 140.1768
721.4640, 351.7744
722.6170, 195.3652
723.7700, 267.9492
724.9220, 351.5254
726.0740, 288.0977
727.2260, 369.6611
728.3780, 248.2197
729.5300, 377.7734
730.6810, 418.3203
731.8330, 387.8613
732.9840, 326.3975
734.1350, 418.9277
735.2860, 424.4512
736.4370, 411.9707
737.5880, 332.4863
738.7380, 335.9990
739.8880, 326.5156
741.0390, 494.0352
742.1890, 435.5508
743.3380, 427.0645
744.4880, 361.5732
745.6380, 343.2158
746.7870, 406.5771
747.9360, 274.0811
749.0850, 371.5889
750.2340, 302.0928
751.3830, 335.5928
752.5310, 385.0879
753.6800, 468.5801
754.8280, 618.0703
755.9760, 498.5557
757.1240, 417.0381
758.2720, 491.5176
759.4190, 376.0146
760.5670, 384.4268
761.7140, 513.0352
762.8610, 389.5693
764.0080, 416.1016
765.1550, 511.6309
766.3020, 360.9688
767.4480, 522.5225
768.5950, 444.0742
769.7410, 622.6260
770.8870, 526.1748
772.0330, 655.7334
773.1780, 469.3145
774.3240, 432.8965
775.4690, 585.4980
776.6140, 436.1748
777.7590, 596.8535
778.9040, 495.5332
780.0490, 607.1357
781.1940, 498.8135
782.3380, 633.4922
783.4820, 638.2109
784.6260, 633.9297
785.7700, 573.6709
786.9140, 646.4365
788.0580, 634.0068
789.2010, 754.8691
790.3450, 859.8574
791.4880, 902.4922
792.6310, 972.8545
793.7730, 1126.619
794.9160, 1320.668
796.0590, 1403.522
797.2010, 1401.354
798.3430, 1771.238
799.4850, 1836.123
800.6270, 1911.019
801.7690, 2210.589
802.9100, 2391.505
804.0520, 2615.035
805.1930, 2762.976
806.3340, 3016.862
807.4750, 3452.353
808.6160, 3887.471
809.7560, 4109.804
810.8970, 4418.184
812.0370, 4753.277
813.1770, 4875.378
814.3170, 4985.354
815.4570, 5058.766
816.5960, 5002.933
817.7360, 4891.865
818.8750, 4582.431
820.0140, 4412.452
821.1530, 4146.229
822.2920, 3764.892
823.4310, 3638.899
824.5690, 3542.884
825.7070, 3211.373
826.8460, 3073.872
827.9840, 3156.972
829.1220, 3213.302
830.2590, 3304.328
831.3970, 3451.762
832.5340, 3543.398
833.6710, 3899.925
834.8080, 4095.498
835.9450, 4338.037
837.0820, 4714.404
838.2190, 4886.221
839.3550, 5123.318
840.4910, 5315.494
841.6270, 5326.685
842.7630, 5362.885
843.8990, 5374.099
845.0350, 5138.324
846.1700, 5157.509
847.3060, 4963.359
848.4410, 4964.622
849.5760, 4894.900
850.7100, 4811.191
851.8450, 5117.496
852.9800, 5395.812
854.1140, 5379.145
855.2480, 5761.488
856.3820, 6291.847
857.5160, 6569.219
858.6500, 7145.604
859.7830, 7848.002
860.9170, 8786.414
862.0500, 9924.842
863.1830, 11288.28
864.3160, 12728.74
865.4480, 15203.21
866.5810, 17274.69
867.7130, 20233.19
868.8460, 23451.70
869.9780, 26678.23
871.1100, 29518.77
872.2410, 31879.33
873.3730, 32836.90
874.5050, 32140.49
875.6360, 30026.09
876.7670, 27173.71
877.8980, 23480.34
879.0290, 20384.98
880.1590, 16934.65
881.2900, 13964.32
882.4200, 11511.01
883.5500, 9328.336
884.6800, 7887.221
885.8100, 6656.959
886.9400, 5498.709
888.0690, 4807.475
889.1990, 4033.257
890.3280, 3498.053
891.4570, 3009.862
892.5860, 2781.688
893.7140, 2238.525
894.8430, 2243.801
895.9710, 1861.304
897.1000, 1741.269
898.2280, 1533.622
899.3560, 1436.532
900.4830, 1101.457
901.6110, 1168.757
902.7380, 1181.807
903.8660, 1194.773
904.9930, 951.7539
906.1200, 831.7471
907.2460, 682.2197
908.3730, 697.6289
909.5000, 782.6621
910.6260, 574.7383
911.7520, 402.7988
912.8780, 511.0508
914.0040, 602.4297
915.1290, 760.5234
916.2550, 598.6279
917.3800, 597.9121
918.5050, 461.7207
919.6300, 362.8730
920.7550, 438.1016
921.8800, 565.7090
923.0040, 498.3193
924.1290, 392.9170
925.2530, 522.2148
926.3770, 414.3193
927.5010, 646.7568
928.6250, 677.1738
929.7480, 790.5098
930.8720, 771.0518
931.9950, 732.4092
933.1180, 667.0264
934.2410, 553.5371
935.3640, 452.8643
936.4860, 405.9023
937.6090, 567.3135
938.7310, 462.6953
939.8530, 400.1289
940.9750, 466.5703
942.0970, 320.0195
943.2180, 235.4961
944.3400, 260.0068
945.4610, 462.5312
946.5820, 452.0977
947.7030, 356.6807
948.8240, 211.2803
949.9450, 521.8867
951.0650, 391.5039
952.1860, 343.1416
953.3060, 506.7861
954.4260, 378.4912
955.5460, 442.2383
956.6650, 567.0166
957.7850, 439.8076
958.9040, 683.6055
960.0230, 408.4102
961.1420, 445.2549
962.2610, 504.1084
963.3800, 517.9951
964.4990, 588.9375
965.6170, 616.8965
966.7350, 616.8857
967.8530, 705.9043
968.9710, 788.9492
970.0890, 699.0176
971.2070, 812.1201
972.3240, 794.2471
973.4410, 795.3945
974.5580, 591.5488
975.6750, 708.7070
976.7920, 691.8740
977.9090, 794.0449
979.0250, 714.2217
980.1410, 734.4121
981.2580, 784.6084
982.3740, 838.8301
983.4890, 782.0547
984.6050, 773.3232
985.7200, 826.5957
986.8360, 806.6631
987.9510, 943.1533
989.0660, 871.4385
990.1810, 1026.729
991.2950, 1134.021
992.4100, 1247.318
993.5240, 1504.617
994.6390, 1351.945
995.7530, 1370.310
996.8660, 1468.680
997.9800, 1144.053
999.0940, 1074.432
1000.207, 711.8125
1001.320, 639.1963
1002.433, 506.5801
1003.546, 286.4434
1004.659, 364.9414
1005.772, 380.5547
1006.884, 196.9473
1007.996, 202.3418
1009.108, 189.7422
1010.220, 264.1484
1011.332, 213.5547
1012.444, 218.9639
1013.555, 219.3740
1014.666, 78.78613
1015.777, 245.1982
1016.888, 18.79492
1017.999, 29.39062
1019.110, 123.0000
1020.220, 103.6650
1021.331, 130.0537
1022.441, 179.5215
1023.551, 102.9082
1024.661, 61.30566
1025.770, 125.7021
1026.880, 71.09863
1027.989, 74.50586
1029.098, 61.15137
1030.207, 9.166016
1031.316, 104.4922
1032.425, 40.79883
1033.533, 92.17090
1034.642, 100.5791
1035.750, 14.61230
1036.858, 80.79785
1037.966, 83.98242
1039.073, 112.1621
1040.181, 34.66113
1041.288, 80.51074
1042.396, 79.58691
1043.503, 73.31836
1044.610, 279.2725
1045.716, 8.614258
1046.823, 4.493164
1047.929, 147.5322
1049.036, 76.39746
1050.142, 18.25879
1051.248, 142.8848
1052.353, 57.88184
1053.459, 68.35742
1054.564, 73.64648
1055.670, 72.99023
1056.775, 87.92578
1057.880, 47.15430
1058.985, 78.31152
1060.089, 31.16504
1061.194, 49.36621
1062.298, 127.0596
1063.402, 27.47852
1064.506, 263.8906
1065.610, 1.705078
1066.713, 46.70117
1067.817, 4.100586
1068.920, 38.50391
1070.023, 89.84863
1071.126, 42.80469
1072.229, 155.4980
1073.332, 265.7939
1074.435, 119.0820
1075.537, 299.3623
1076.639, 216.6338
1077.741, 261.8984
1078.843, 196.1553
1079.945, 155.4170
1081.046, 304.6768
1082.148, 231.9277
1083.249, 215.1699
1084.350, 171.4043
1085.451, 197.7285
1086.551, 219.8457
1087.652, 303.0527
1088.752, 370.2490
1089.853, 477.4346
1090.953, 177.6113
1092.053, 367.7783
1093.152, 199.9355
1094.252, 325.0811
1095.351, 343.4316
1096.451, 395.0234
1097.550, 269.1367
1098.649, 371.2393
1099.748, 390.6455
1100.846, 159.7246
1101.945, 369.1064
1103.043, 526.1602
1104.141, 373.3926
1105.239, 484.4404
1106.337, 365.6611
1107.434, 517.6660
1108.532, 225.2422
1109.629, 259.2207
1110.726, 280.1865
1111.823, 187.2773
1112.920, 420.5352
1114.017, 266.2559
1115.113, 295.1680
1116.210, 254.2324
1117.306, 388.2686
1118.402, 461.3271
1119.498, 496.1816
1120.593, 505.3057
1121.689, 429.3867
1122.784, 403.3008
1123.879, 311.1895
1124.974, 291.2822
1126.069, 345.5605
1127.164, 281.8867
1128.259, 322.6689
1129.353, 383.3896
1130.447, 421.7139
1131.541, 245.4785
1132.635, 202.1504
1133.729, 358.8906
1134.822, 72.53027
1135.916, 135.1719
1137.009, 108.7744
1138.102, 203.7480
1139.195, 226.6104
1140.288, 299.1592
1141.380, 282.4775
1142.473, 349.3066
1143.565, 244.0176
1144.657, 327.8906
1145.749, 212.5254
1146.841, 302.0918
1147.932, 71.58691
1149.024, 200.3760
1150.115, 228.6045
1151.206, 103.9785
1152.297, 201.3340
1153.388, 151.6719
1154.479, 253.0244
1155.569, 339.9785
1156.659, 355.3428
1157.750, 382.6807
1158.839, 382.4941
1159.929, 335.3535
1161.019, 234.9326
1162.108, 163.0498
1163.198, 155.1934
1164.287, 135.9385
1165.376, 204.0840
1166.465, 166.8516
1167.553, 284.8701
1168.642, 294.9668
1169.730, 189.0449
1170.818, 251.1104
1171.906, 299.6924
1172.994, 357.3330
1174.082, 434.3477
1175.170, 459.3164
1176.257, 288.2969
1177.344, 323.0801
1178.431, 94.73828
1179.518, 331.8457
1180.605, 179.7695
1181.691, 400.5117
1182.778, 331.7637
1183.864, 546.6309
1184.950, 486.4141
1186.036, 358.8203
1187.122, 403.2168
1188.207, 340.6270
1189.292, 212.3535
1190.378, 168.2871
1191.463, 211.9199
1192.548, 257.5840
1193.632, 327.3555
1194.717, 314.0312
1195.801, 288.7754
1196.886, 266.3086
1197.970, 335.1836
1199.054, 313.1934
1200.137, 361.7715
1201.221, 325.4531
1202.305, 251.1621
1203.388, 237.8203
1204.471, 165.4668
1205.554, 190.5410
1206.637, 211.7246
1207.719, 253.3340
1208.802, 242.9336
1209.884, 292.6602
1210.966, 334.4238
1212.048, 370.9863
1213.130, 257.7773
1214.212, 318.3145
1215.293, 394.8398
1216.374, 105.3516
1217.456, 174.8535
1218.536, 265.3418
1219.617, 144.8203
1220.698, 238.2852
1221.778, 450.7383
1222.859, 160.1777
1223.939, 388.6074
1225.019, 55.02539
1226.099, 36.57227
1227.178, 138.7891
1228.258, 227.1387
1229.337, 2.525391
1230.417, 191.7871
1231.496, 31.08789
1232.574, 142.3750
1233.653, 60.65039
1234.732, 101.9121
1235.810, 57.16211
1236.888, 139.5176
1237.966, 9.744141
1239.044, 183.9492
1240.122, 174.1465
1241.199, 16.66797
1242.277, 29.48438
1243.354, 4.623047
1244.431, 133.7461
1245.508, 129.1465
1246.585, 68.87305
1247.661, 59.88281
1248.738, 252.8945
1249.814, 17.89648
1250.890, 71.88477
1251.966, 79.86133
1253.042, 81.82617
1254.117, 172.7773
1255.193, 77.27930
1256.268, 105.4004
1257.343, 1.593750
1258.418, 213.1914
1259.493, 4.966797
1260.567, 83.72461
1261.642, 353.4727
1262.716, 81.21094
1263.790, 142.9375
1264.864, 95.17969
1265.938, 100.7734
1267.011, 14.24609
1268.085, 28.92969
1269.158, 3.398438
1270.231, 0.2285160
1271.304, 23.88672
1272.377, 47.50977
1273.450, 12.11914
1274.522, 56.71875
1275.594, 68.89648
1276.666, 81.14258
1277.738, 118.8574
1278.810, 117.4219
1279.882, 127.9824
1280.953, 126.2617
1282.025, 215.8066
1283.096, 86.26172
1284.167, 33.20898
1285.238, 74.28516
1286.308, 4.771484
1287.379, 39.23633
1288.449, 80.71289
1289.519, 130.1895
1290.589, 210.6758
1291.659, 303.1289
1292.729, 373.5918
1293.798, 317.9648
1294.868, 314.3105
1295.937, 159.9570
1297.006, 212.4570
1298.075, 153.9492
1299.143, 172.4355
1300.212, 215.9121
1301.280, 193.4473
1302.348, 249.9492
1303.416, 252.4473
1304.484, 104.9590
1305.552, 340.5449
1306.620, 206.3027
1307.687, 44.82422
1308.754, 108.3906
1309.821, 150.9531
1310.888, 75.50977
1311.955, 146.2441
1313.021, 192.7109
1314.088, 192.3281
1315.154, 264.9609
1316.220, 289.6133
1317.286, 227.2891
1318.352, 228.3496
1319.417, 229.2969
1320.483, 170.9805
1321.548, 274.6719
1322.613, 58.35547
1323.678, 243.0117
1324.743, 77.35156
1325.807, 17.26367
1326.872, 41.12500
1327.936, 157.4688
1329.000, 139.0781
1330.064, 325.6660
1331.128, 427.4043
1332.191, 333.9902
1333.255, 190.5703
1334.318, 282.1465
1335.381, 246.7148
1336.444, 132.2793
1337.507, 48.16406
1338.569, 17.15430
1339.632, 141.9023
1340.694, 25.42578
1341.756, 134.9395
1342.818, 262.5527
1343.880, 305.0586
1344.941, 339.5566
1346.003, 267.0508
1347.064, 326.5430
1348.125, 149.0273
1349.186, 186.5098
1350.247, 130.9863
1351.308, 251.4590
1352.368, 133.0215
1353.428, 203.2734
1354.489, 288.2656
1355.549, 108.7832
1356.608, 322.2363
1357.668, 377.3711
1358.727, 247.8203
1359.787, 292.0879
1360.846, 220.5312
1361.905, 314.7812
1362.964, 280.2031
1364.022, 48.43359
1365.081, 165.8672
1366.139, 185.7148
1367.197, 254.1426
1368.255, 398.5703
1369.313, 274.8594
1370.371, 498.9648
1371.428, 440.5918
1372.486, 252.0801
1373.543, 262.4902
1374.600, 333.7559
1375.657, 130.0879
1376.713, 154.5039
1377.770, 191.5156
1378.826, 321.7930
1379.882, 145.1035
1380.938, 254.4238
1381.994, 361.8359
1383.050, 158.4258
1384.106, 257.2480
1385.161, 262.6699
1386.216, 262.0645
1387.271, 240.0352
1388.326, 232.3574
1389.381, 119.7578
1390.435, 83.07227
1391.490, 173.4727
1392.544, 84.85352
1393.598, 220.2637
1394.652, 199.3203
1395.705, 364.4375
1396.759, 354.8535
1397.812, 292.4863
1398.866, 316.5957
1399.919, 256.7383
1400.972, 206.8457
1402.024, 185.1055
1403.077, 145.4199
1404.129, 151.7910
1405.181, 171.2344
1406.233, 287.6816
1407.285, 247.1348
1408.337, 348.5918
1409.389, 241.0527
1410.440, 272.4902
1411.491, 345.3086
1412.542, 260.7773
1413.593, 375.9844
1414.644, 193.1816
1415.695, 291.5605
1416.745, 120.9902
1417.795, 110.4199
1418.845, 200.8555
1419.895, 253.2949
1420.945, 231.7422
1421.995, 189.1914
1423.044, 251.9922
1424.093, 415.4551
1425.142, 347.9219
1426.191, 256.3965
1427.240, 45.11133
1428.289, 193.8242
1429.337, 348.4062
1430.385, 152.8984
1431.433, 168.3965
1432.481, 14.90234
1433.529, 30.41016
1434.577, 163.7754
1435.624, 83.30273
1436.672, 286.8398
1437.719, 345.0879
1438.766, 181.6191
1439.812, 278.1719
1440.859, 276.7285
1441.905, 350.2930
1442.952, 118.2363
1443.998, 32.31055
1445.044, 2.751953
1446.090, 168.7461
1447.135, 86.67383
1448.181, 275.0645
1449.226, 252.4297
1450.271, 261.7617
1451.316, 270.1758
1452.361, 232.5859
1453.405, 358.9902
1454.450, 319.3906
1455.494, 285.4180
1456.538, 20.49414
1457.582, 71.57422
1458.626, 192.9102
1459.670, 116.2402
1460.713, 329.5684
1461.757, 398.8867
1462.800, 375.2031
1463.843, 183.5352
1464.886, 293.8789
1465.928, 161.2344
1466.971, 199.5879
1468.013, 31.93945
1469.055, 272.1445
1470.097, 119.4980
1471.139, 67.85938
1472.181, 168.2383
1473.222, 352.6699
1474.263, 347.1270
1475.305, 221.5645
1476.346, 210.0039
1477.386, 35.44336
1478.427, 65.46484
1479.468, 331.5996
1480.508, 45.21875
1481.548, 174.8418
1482.588, 75.46484
1483.628, 253.0957
1484.668, 28.74219
1485.707, 167.4141
1486.747, 160.0957
1487.786, 300.7852
1488.825, 350.4824
1489.864, 221.1797
1490.902, 384.8848
1491.941, 129.6094
1492.979, 346.3594
1494.017, 282.1191
1495.055, 108.8887
1496.093, 180.6602
1497.131, 51.43945
1498.168, 31.22070
1499.206, 129.0039
1500.243, 74.29102
1501.280, 292.4941
1502.317, 173.9609
1503.354, 370.5430
1504.390, 223.3379
1505.426, 181.0918
1506.463, 307.8496
1507.499, 110.6035
1508.535, 112.1113
1509.570, 55.84375
1510.606, 96.64258
1511.641, 28.55078
1512.676, 106.4746
1513.711, 172.4473
1514.746, 218.1797
1515.781, 121.2520
1516.816, 287.3477
1517.850, 231.4688
1518.884, 72.61719
1519.918, 296.5469
1520.952, 147.7500
1521.986, 165.9844
1523.019, 179.2480
1524.053, 126.5449
1525.086, 143.6875
1526.119, 98.80273
1527.152, 147.1738
1528.185, 125.1875
1529.217, 168.6094
1530.250, 173.0605
1531.282, 161.5469
1532.314, 105.0625
1533.346, 130.4336
1534.377, 230.9707
1535.409, 140.0488
1536.440, 59.05859
1537.472, 45.12891
1538.503, 182.5781
1539.534, 108.8730
1540.564, 196.0176
1541.595, 280.6699
1542.625, 311.1289
1543.656, 282.6191
1544.686, 179.1270
1545.716, 220.4785
1546.745, 30.01172
1547.775, 303.5527
1548.804, 207.1094
1549.834, 120.6719
1550.863, 57.23633
1551.892, 61.78711
1552.920, 96.31250
1553.949, 181.3145
1554.977, 175.2305
1556.006, 260.7012
1557.034, 221.3496
1558.062, 313.1328
1559.089, 184.5078
1560.117, 307.3301
1561.144, 18.65820
1562.172, 272.7812
1563.199, 150.4492
1564.226, 168.1230
1565.252, 298.8730
1566.279, 14.94727
1567.305, 49.24023
1568.332, 227.8359
1569.358, 0.3769530
1570.384, 0.0000000E+00
##END=



