##NAMES=Andradite
##RRUFFID=R060350
##IDEAL CHEMISTRY=Ca_3_Fe^3+^_2_(SiO_4_)_3_
##LOCALITY=south of the Gem mine, southern San Benito County, California, USA
##OWNER=RRUFF
##SOURCE=Michael Scott
##DESCRIPTION=Cluster of black vitreous crystals showing well-developed faces
##STATUS=The identification of this mineral has been confirmed by X-ray diffraction and chemical analysis
##URL=rruff.info/R060350
##MEASURED CHEMISTRY=(Ca_2.93_Mg_0.07_)_Σ=3_(Fe^3+^_1.18_Ti_0.77_Al_0.05_)_Σ=2_((Si_0.74_Fe^3+^_0.26_)_Σ=1_O_4_)_3_ ; trace amounts of Mn
##PIN_ID=M00067
##ORIENTATION=Laser parallel to a* (1 0 0). Fiducial mark perpendicular to laser is parallel to c [0 0 1]
114.4400, 0.0000000E+00
115.6710, 808.2178
116.9030, 1267.104
118.1340, 1027.907
119.3650, 269.0820
120.5960, 88.76367
121.8270, 95.38672
123.0580, 588.6045
124.2880, 1018.706
125.5190, 360.0088
126.7490, 29.17676
127.9790, 383.1270
129.2090, 807.9736
130.4390, 1078.991
131.6680, 1243.579
132.8980, 1214.238
134.1270, 1237.535
135.3560, 1558.075
136.5850, 1875.505
137.8140, 2717.508
139.0430, 3711.824
140.2710, 4393.198
141.5000, 3936.430
142.7280, 3320.346
143.9560, 2704.787
145.1840, 2034.623
146.4120, 1589.731
147.6390, 1397.006
148.8670, 775.3496
150.0940, 289.6768
151.3210, 476.9082
152.5490, 948.9141
153.7750, 849.5391
155.0020, 705.6699
156.2290, 687.2520
157.4550, 395.1816
158.6810, 646.3779
159.9080, 854.7920
161.1340, 1245.377
162.3590, 2228.189
163.5850, 3140.000
164.8110, 3925.882
166.0360, 4267.403
167.2610, 4933.811
168.4860, 4552.822
169.7110, 4263.834
170.9360, 4123.822
172.1610, 3654.769
173.3850, 2985.656
174.6100, 2569.469
175.8340, 2555.192
177.0580, 2153.813
178.2820, 2195.317
179.5050, 2086.696
180.7290, 1962.937
181.9520, 1978.025
183.1760, 1916.953
184.3990, 2083.713
185.6220, 2311.293
186.8450, 2533.683
188.0670, 2732.691
189.2900, 2943.770
190.5120, 3376.938
191.7340, 3564.134
192.9560, 3800.537
194.1780, 4088.188
195.4000, 4029.129
196.6220, 4005.902
197.8430, 3784.215
199.0640, 3466.164
200.2860, 3771.495
201.5070, 3980.223
202.7270, 4390.363
203.9480, 3709.924
205.1690, 2013.913
206.3890, 616.3398
207.6090, 41.20996
208.8290, 6.528320
210.0490, 213.2988
211.2690, 161.5264
212.4890, 419.2109
213.7080, 688.3828
214.9280, 1084.157
216.1470, 1206.614
217.3660, 970.7773
218.5850, 1372.471
219.8030, 1575.630
221.0220, 2033.234
222.2400, 1823.282
223.4590, 1944.774
224.6770, 2174.712
225.8950, 2264.100
227.1120, 2158.943
228.3300, 2158.244
229.5480, 2001.008
230.7650, 1871.236
231.9820, 1935.934
233.1990, 1747.102
234.4160, 1823.736
235.6330, 1802.838
236.8490, 1546.406
238.0660, 1532.438
239.2820, 1532.932
240.4980, 1385.885
241.7140, 1352.295
242.9300, 1120.158
244.1460, 1135.832
245.3610, 1289.238
246.5770, 1144.451
247.7920, 1184.113
249.0070, 1270.219
250.2220, 1203.771
251.4370, 1285.707
252.6510, 1342.205
253.8660, 1398.088
255.0800, 1428.412
256.2940, 1551.182
257.5080, 1616.391
258.7220, 1979.043
259.9360, 3456.135
261.1490, 4026.256
262.3630, 3185.039
263.5760, 1646.189
264.7890, 1294.057
266.0020, 1240.039
267.2150, 1286.777
268.4270, 798.7188
269.6400, 821.5410
270.8520, 353.1855
272.0640, 329.6094
273.2760, 225.7715
274.4880, 60.63672
275.7000, 22.17383
276.9120, 35.53320
278.1230, 1.156250
279.3340, 34.44531
280.5450, 28.47266
281.7560, 52.20703
282.9670, 81.12695
284.1780, 308.7207
285.3880, 565.8281
286.5980, 668.4297
287.8090, 904.5176
289.0190, 884.0781
290.2290, 1280.100
291.4380, 1538.574
292.6480, 1628.488
293.8570, 1931.836
295.0670, 2141.609
296.2760, 2359.795
297.4850, 2591.389
298.6930, 3095.383
299.9020, 3438.768
301.1110, 4043.541
302.3190, 4595.693
303.5270, 5096.221
304.7350, 5918.115
305.9430, 6367.375
307.1510, 6651.992
308.3580, 7045.967
309.5660, 7899.289
310.7730, 8507.629
311.9800, 8918.539
313.1870, 9044.775
314.3940, 9385.668
315.6010, 9447.496
316.8070, 9541.508
318.0130, 9652.449
319.2200, 9792.496
320.4260, 9953.818
321.6310, 10217.25
322.8370, 10367.77
324.0430, 10539.10
325.2480, 10777.58
326.4540, 11211.36
327.6590, 11476.42
328.8640, 12113.79
330.0680, 12679.44
331.2730, 13299.46
332.4780, 13862.82
333.6820, 14745.55
334.8860, 15206.66
336.0900, 16123.15
337.2940, 16800.06
338.4980, 17630.38
339.7010, 18540.13
340.9050, 19157.29
342.1080, 20317.86
343.3110, 21203.84
344.5140, 22418.20
345.7170, 23327.93
346.9200, 24955.02
348.1220, 26102.46
349.3240, 27793.24
350.5270, 29155.31
351.7290, 30649.70
352.9310, 31955.36
354.1320, 32593.29
355.3340, 33353.53
356.5350, 33449.07
357.7370, 33390.89
358.9380, 33260.94
360.1390, 32590.27
361.3400, 31139.85
362.5400, 30308.69
363.7410, 29274.77
364.9410, 28230.10
366.1410, 26918.68
367.3410, 25255.51
368.5410, 24045.58
369.7410, 22619.91
370.9400, 20858.48
372.1400, 19810.31
373.3390, 18084.44
374.5380, 16924.83
375.7370, 15333.49
376.9360, 14468.42
378.1350, 13372.61
379.3330, 11999.07
380.5310, 11373.82
381.7300, 10254.96
382.9280, 9454.148
384.1260, 8453.730
385.3230, 7748.609
386.5210, 6871.773
387.7180, 6072.209
388.9160, 5725.932
390.1130, 4825.953
391.3100, 4488.291
392.5060, 3796.959
393.7030, 3337.939
394.9000, 3318.215
396.0960, 2799.758
397.2920, 2818.574
398.4880, 2101.678
399.6840, 1878.099
400.8800, 1776.820
402.0750, 1659.820
403.2710, 1548.863
404.4660, 1393.609
405.6610, 1331.631
406.8560, 1229.651
408.0510, 1209.128
409.2450, 1155.893
410.4400, 1133.932
411.6340, 1174.250
412.8280, 1153.273
414.0220, 1134.559
415.2160, 1141.543
416.4100, 1076.545
417.6030, 985.1309
418.7970, 1058.730
419.9900, 908.5293
421.1830, 941.2988
422.3760, 1105.415
423.5690, 1236.568
424.7610, 1231.932
425.9540, 1470.669
427.1460, 1627.584
428.3380, 1531.676
429.5300, 1689.938
430.7220, 1952.371
431.9140, 2228.970
433.1050, 2576.732
434.2970, 2625.655
435.4880, 2893.387
436.6790, 3148.973
437.8700, 3144.362
439.0610, 3208.902
440.2510, 3131.588
441.4420, 2783.419
442.6320, 2651.393
443.8220, 2385.507
445.0120, 1859.755
446.2020, 1561.141
447.3910, 1222.658
448.5810, 1010.307
449.7700, 654.0811
450.9600, 468.9805
452.1490, 116.0029
453.3370, 49.85254
454.5260, 123.6006
455.7150, 256.2520
456.9030, 413.8369
458.0910, 398.3936
459.2800, 357.9229
460.4670, 510.4150
461.6550, 333.9141
462.8430, 123.3750
464.0300, 55.75879
465.2180, 51.05371
466.4050, 303.7363
467.5920, 472.6211
468.7790, 763.5957
469.9650, 953.6611
471.1520, 1128.060
472.3380, 1413.198
473.5250, 1624.721
474.7110, 1786.314
475.8970, 2148.839
477.0820, 2423.119
478.2680, 2751.668
479.4540, 2898.816
480.6390, 3194.262
481.8240, 3504.939
483.0090, 3761.480
484.1940, 4022.256
485.3780, 4316.127
486.5630, 4531.594
487.7470, 4758.723
488.9320, 5085.604
490.1160, 5189.481
491.3000, 5327.184
492.4830, 5465.660
493.6670, 5931.607
494.8500, 6137.070
496.0340, 6656.326
497.2170, 7387.041
498.4000, 8178.705
499.5820, 9168.828
500.7650, 10258.63
501.9480, 11646.68
503.1300, 13511.30
504.3120, 14952.86
505.4940, 15003.67
506.6760, 15721.35
507.8580, 16385.49
509.0390, 16595.84
510.2210, 16135.04
511.4020, 15852.47
512.5830, 15460.63
513.7640, 14816.80
514.9450, 14003.00
516.1250, 13733.36
517.3060, 13144.50
518.4860, 12750.33
519.6660, 12279.54
520.8460, 11904.17
522.0260, 11586.10
523.2060, 11247.37
524.3850, 11009.43
525.5650, 10722.01
526.7440, 10451.02
527.9230, 10280.50
529.1020, 10039.21
530.2810, 9929.020
531.4590, 9671.890
532.6380, 9649.152
533.8160, 9418.782
534.9940, 9323.644
536.1720, 9266.088
537.3500, 9260.554
538.5270, 9181.581
539.7050, 9068.302
540.8820, 9105.863
542.0590, 9016.491
543.2360, 8944.250
544.4130, 8640.536
545.5900, 8542.817
546.7660, 8298.142
547.9430, 8065.723
549.1190, 7803.494
550.2950, 7559.041
551.4710, 7089.122
552.6470, 6616.460
553.8220, 6080.004
554.9980, 5506.359
556.1730, 4884.289
557.3480, 4415.883
558.5230, 3733.356
559.6980, 3172.709
560.8730, 2661.938
562.0470, 2267.040
563.2220, 1923.018
564.3960, 1598.158
565.5700, 1274.591
566.7440, 1187.184
567.9170, 1077.646
569.0910, 1111.973
570.2640, 1381.164
571.4380, 1296.221
572.6110, 1389.140
573.7840, 1531.919
574.9570, 1536.559
576.1290, 1717.057
577.3020, 1911.411
578.4740, 2013.624
579.6460, 2157.689
580.8180, 2257.610
581.9900, 2166.382
583.1620, 2300.007
584.3330, 2209.482
585.5040, 2154.957
586.6760, 2055.979
587.8470, 2011.998
589.0180, 1991.863
590.1880, 1989.573
591.3590, 1847.129
592.5290, 1893.526
593.7000, 1721.766
594.8700, 1759.177
596.0400, 1588.200
597.2090, 1577.070
598.3790, 1471.454
599.5490, 1255.075
600.7180, 1097.667
601.8870, 1041.494
603.0560, 979.3623
604.2250, 758.1055
605.3940, 740.8857
606.5620, 635.5703
607.7300, 342.8682
608.8990, 327.0000
610.0670, 307.9668
611.2350, 139.7656
612.4020, 208.3594
613.5700, 113.2324
614.7370, 34.16309
615.9050, 155.3887
617.0720, 195.9785
618.2390, 228.9512
619.4060, 299.3320
620.5720, 349.1533
621.7390, 366.3584
622.9050, 298.2197
624.0710, 346.4395
625.2370, 333.1309
626.4030, 212.2881
627.5690, 157.8467
628.7340, 168.7803
629.9000, 104.0928
631.0650, 68.75098
632.2300, 67.26270
633.3950, 41.02148
634.5600, 109.5107
635.7240, 72.76270
636.8890, 83.76172
638.0530, 46.51465
639.2170, 169.0020
640.3810, 179.2764
641.5450, 291.3428
642.7080, 130.2256
643.8720, 187.8838
645.0350, 180.3359
646.1980, 184.5820
647.3610, 169.6211
648.5240, 163.4502
649.6870, 167.0703
650.8490, 82.47949
652.0120, 166.6504
653.1740, 44.61230
654.3360, 86.68164
655.4980, 20.70117
656.6600, 41.18164
657.8210, 9.638672
658.9830, 14.18945
660.1440, 76.54199
661.3050, 98.58496
662.4660, 74.95020
663.6270, 148.6260
664.7870, 95.64746
665.9480, 216.9854
667.1080, 163.7031
668.2680, 122.7695
669.4280, 207.1631
670.5880, 243.5576
671.7480, 349.0713
672.9070, 390.6582
674.0670, 334.7041
675.2260, 296.1777
676.3850, 198.0566
677.5440, 223.2881
678.7030, 302.8799
679.8610, 416.8730
681.0200, 375.3262
682.1780, 303.2129
683.3360, 253.4922
684.4940, 275.1367
685.6520, 186.1533
686.8090, 164.4775
687.9670, 78.14062
689.1240, 49.04785
690.2810, 32.19727
691.4380, 80.42578
692.5950, 261.8691
693.7520, 264.1953
694.9080, 303.3135
696.0650, 460.3184
697.2210, 433.1855
698.3770, 748.9170
699.5330, 739.5117
700.6880, 800.9717
701.8440, 930.2979
702.9990, 886.4932
704.1550, 1065.557
705.3100, 1065.489
706.4650, 1259.294
707.6190, 1195.971
708.7740, 1204.521
709.9290, 1338.944
711.0830, 1404.244
712.2370, 1519.422
713.3910, 1622.479
714.5450, 1695.313
715.6980, 1775.230
716.8520, 1826.928
718.0050, 1928.510
719.1580, 1936.975
720.3110, 1917.326
721.4640, 2245.563
722.6170, 2451.690
723.7700, 2443.707
724.9220, 2509.614
726.0740, 2669.413
727.2260, 2820.106
728.3780, 3016.695
729.5300, 3220.180
730.6810, 3353.561
731.8330, 3594.842
732.9840, 3895.024
734.1350, 3910.111
735.2860, 4092.112
736.4370, 4477.039
737.5880, 4759.916
738.7380, 5081.740
739.8880, 5304.508
741.0390, 5518.242
742.1890, 5825.920
743.3380, 6207.521
744.4880, 6626.043
745.6380, 7031.484
746.7870, 7318.842
747.9360, 7484.120
749.0850, 7987.318
750.2340, 8132.192
751.3830, 8571.332
752.5310, 8746.197
753.6800, 8801.797
754.8280, 9063.574
755.9760, 9143.600
757.1240, 9133.362
758.2720, 8897.529
759.4190, 8906.417
760.5670, 8859.102
761.7140, 8883.966
762.8610, 8959.660
764.0080, 9028.132
765.1550, 9212.508
766.3020, 9354.096
767.4480, 9592.019
768.5950, 9927.043
769.7410, 10371.35
770.8870, 10822.97
772.0330, 11307.20
773.1780, 11811.02
774.3240, 12491.15
775.4690, 13013.92
776.6140, 13576.84
777.7590, 14208.39
778.9040, 15274.35
780.0490, 16065.17
781.1940, 16810.49
782.3380, 17761.95
783.4820, 18524.21
784.6260, 19689.67
785.7700, 20673.75
786.9140, 21426.72
788.0580, 22497.87
789.2010, 23716.82
790.3450, 24686.12
791.4880, 26143.44
792.6310, 27396.78
793.7730, 28946.98
794.9160, 30256.42
796.0590, 31854.18
797.2010, 33047.58
798.3430, 34742.23
799.4850, 35905.62
800.6270, 37826.65
801.7690, 39310.21
802.9100, 40913.30
804.0520, 42666.93
805.1930, 44023.11
806.3340, 45535.06
807.4750, 47013.90
808.6160, 47978.66
809.7560, 49193.02
810.8970, 50107.99
812.0370, 50737.72
813.1770, 51374.12
814.3170, 51862.73
815.4570, 52240.45
816.5960, 52360.24
817.7360, 52633.18
818.8750, 52344.03
820.0140, 52216.73
821.1530, 52059.89
822.2920, 51577.01
823.4310, 51289.09
824.5690, 50384.87
825.7070, 49798.46
826.8460, 49196.25
827.9840, 48028.46
829.1220, 47488.41
830.2590, 46794.12
831.3970, 45987.98
832.5340, 45033.25
833.6710, 44312.84
834.8080, 43454.50
835.9450, 42653.28
837.0820, 42043.14
838.2190, 41252.11
839.3550, 40360.16
840.4910, 39480.31
841.6270, 38948.56
842.7630, 37984.91
843.8990, 37373.36
845.0350, 36720.93
846.1700, 36032.58
847.3060, 35669.34
848.4410, 34986.21
849.5760, 34618.18
850.7100, 34094.25
851.8450, 33570.45
852.9800, 33457.75
854.1140, 33112.14
855.2480, 32442.65
856.3820, 32340.29
857.5160, 32030.02
858.6500, 31843.86
859.7830, 31539.82
860.9170, 31243.80
862.0500, 30837.09
863.1830, 30575.40
864.3160, 30169.82
865.4480, 29733.36
866.5810, 29336.02
867.7130, 28936.81
868.8460, 28752.72
869.9780, 28376.74
871.1100, 27938.89
872.2410, 27486.16
873.3730, 26942.55
874.5050, 26489.08
875.6360, 25934.72
876.7670, 25236.49
877.8980, 24198.39
879.0290, 23414.41
880.1590, 22674.56
881.2900, 21902.83
882.4200, 21242.24
883.5500, 20501.77
884.6800, 19638.43
885.8100, 18759.22
886.9400, 17718.17
888.0690, 16952.24
889.1990, 16051.54
890.3280, 15277.01
891.4570, 14440.73
892.5860, 13549.67
893.7140, 12828.87
894.8430, 11917.97
895.9710, 11339.13
897.1000, 10680.29
898.2280, 10143.85
899.3560, 9527.743
900.4830, 9094.483
901.6110, 8573.905
902.7380, 8090.562
903.8660, 7810.037
904.9930, 7392.191
906.1200, 7192.066
907.2460, 6765.998
908.3730, 6566.034
909.5000, 6288.958
910.6260, 6180.525
911.7520, 5850.629
912.8780, 5578.372
914.0040, 5497.587
915.1290, 5295.142
916.2550, 5360.507
917.3800, 5133.790
918.5050, 5032.582
919.6300, 5071.545
920.7550, 4974.216
921.8800, 4982.314
923.0040, 5064.039
924.1290, 4969.631
925.2530, 5056.349
926.3770, 5027.471
927.5010, 5026.131
928.6250, 5065.723
929.7480, 5000.887
930.8720, 4952.826
931.9950, 4809.863
933.1180, 4705.712
934.2410, 4568.590
935.3640, 4481.408
936.4860, 4301.062
937.6090, 4259.758
938.7310, 4250.321
939.8530, 3922.562
940.9750, 4093.526
942.0970, 3845.574
943.2180, 3778.706
944.3400, 3477.979
945.4610, 3479.428
946.5820, 3259.523
947.7030, 3393.012
948.8240, 3027.227
949.9450, 3269.705
951.0650, 3235.203
952.1860, 3164.912
953.3060, 3209.858
954.4260, 3188.140
955.5460, 3214.032
956.6650, 3249.970
957.7850, 3317.730
958.9040, 3420.672
960.0230, 3540.777
961.1420, 3512.018
962.2610, 3446.387
963.3800, 3597.877
964.4990, 3773.464
965.6170, 3620.133
966.7350, 3929.879
967.8530, 3948.729
968.9710, 4024.652
970.0890, 4128.672
971.2070, 4154.767
972.3240, 4098.943
973.4410, 4129.193
974.5580, 4151.535
975.6750, 4219.956
976.7920, 4150.443
977.9090, 4237.003
979.0250, 4156.631
980.1410, 4332.328
981.2580, 4398.099
982.3740, 4349.941
983.4890, 4401.855
984.6050, 4471.837
985.7200, 4509.887
986.8360, 4555.012
987.9510, 4662.199
989.0660, 4687.457
990.1810, 4511.791
991.2950, 4523.218
992.4100, 4175.707
993.5240, 4041.250
994.6390, 3691.860
995.7530, 3311.737
996.8660, 2935.450
997.9800, 2513.452
999.0940, 2182.526
1000.207, 2015.759
1001.320, 2032.215
1002.433, 2003.693
1003.546, 2254.216
1004.659, 2708.821
1005.772, 2942.353
1006.884, 3652.088
1007.996, 3955.990
1009.108, 4580.338
1010.220, 5032.725
1011.332, 4844.344
1012.444, 4898.935
1013.555, 4902.199
1014.666, 4438.287
1015.777, 3843.480
1016.888, 3329.523
1017.999, 2774.715
1019.110, 2200.750
1020.220, 1621.000
1021.331, 1133.028
1022.441, 807.7734
1023.551, 443.8506
1024.661, 238.6436
1025.770, 185.9648
1026.880, 184.8838
1027.989, 77.25684
1029.098, 177.4062
1030.207, 208.4111
1031.316, 340.6729
1032.425, 287.0732
1033.533, 385.2461
1034.642, 369.8506
1035.750, 363.7041
1036.858, 398.6963
1037.966, 431.8945
1039.073, 386.3086
1040.181, 330.9170
1041.288, 403.6982
1042.396, 412.6924
1043.503, 376.9121
1044.610, 412.3398
1045.716, 318.9990
1046.823, 366.8457
1047.929, 390.9072
1049.036, 281.2002
1050.142, 298.6699
1051.248, 188.3301
1052.353, 200.1270
1053.459, 348.0723
1054.564, 332.2393
1055.670, 112.6289
1056.775, 104.0527
1057.880, 258.6611
1058.985, 115.4648
1060.089, 133.3906
1061.194, 61.45215
1062.298, 48.12305
1063.402, 21.79199
1064.506, 32.80859
1065.610, 23.24707
1066.713, 31.32617
1067.817, 93.72461
1068.920, 15.91895
1070.023, 9.663086
1071.126, 49.62402
1072.229, 27.49609
1073.332, 58.83789
1074.435, 88.11230
1075.537, 145.9727
1076.639, 169.0244
1077.741, 219.1201
1078.843, 136.1611
1079.945, 136.0059
1081.046, 193.5967
1082.148, 183.6182
1083.249, 268.2178
1084.350, 263.0596
1085.451, 405.4375
1086.551, 376.7422
1087.652, 355.3745
1088.752, 364.0405
1089.853, 325.7363
1090.953, 336.6782
1092.053, 530.2373
1093.152, 499.5381
1094.252, 541.3862
1095.351, 516.9033
1096.451, 527.3291
1097.550, 538.5312
1098.649, 527.8755
1099.748, 540.1748
1100.846, 544.1816
1101.945, 509.6138
1103.043, 538.8765
1104.141, 486.6094
1105.239, 541.1567
1106.337, 577.8618
1107.434, 676.6699
1108.532, 459.9033
1109.629, 621.9814
1110.726, 487.0762
1111.823, 453.5703
1112.920, 514.6694
1114.017, 588.6392
1115.113, 589.2314
1116.210, 585.1787
1117.306, 683.9038
1118.402, 578.3535
1119.498, 563.8198
1120.593, 701.3457
1121.689, 604.9580
1122.784, 665.0464
1123.879, 687.9648
1124.974, 725.5850
1126.069, 599.5596
1127.164, 509.0239
1128.259, 630.3164
1129.353, 513.5127
1130.447, 512.6104
1131.541, 508.8760
1132.635, 473.2485
1133.729, 499.5176
1134.822, 505.0513
1135.916, 501.3481
1137.009, 542.7876
1138.102, 508.7222
1139.195, 495.9688
1140.288, 716.0054
1141.380, 665.4209
1142.473, 464.4985
1143.565, 640.9243
1144.657, 515.7368
1145.749, 550.2817
1146.841, 540.8477
1147.932, 586.6821
1149.024, 562.6157
1150.115, 611.7329
1151.206, 570.3989
1152.297, 634.5942
1153.388, 714.0864
1154.479, 642.4702
1155.569, 747.8643
1156.659, 608.1436
1157.750, 712.4795
1158.839, 761.3945
1159.929, 816.8740
1161.019, 688.8999
1162.108, 828.1523
1163.198, 749.2104
1164.287, 629.3999
1165.376, 676.5415
1166.465, 728.5259
1167.553, 666.6963
1168.642, 676.0664
1169.730, 682.3218
1170.818, 660.6294
1171.906, 688.7168
1172.994, 659.1289
1174.082, 659.3960
1175.170, 651.5166
1176.257, 562.1348
1177.344, 531.9146
1178.431, 578.2188
1179.518, 510.1450
1180.605, 610.3433
1181.691, 468.9204
1182.778, 533.6587
1183.864, 433.2598
1184.950, 508.4297
1186.036, 399.3325
1187.122, 360.4937
1188.207, 554.0942
1189.292, 390.1328
1190.378, 363.7979
1191.463, 491.1128
1192.548, 317.8560
1193.632, 404.7788
1194.717, 250.9263
1195.801, 483.5674
1196.886, 296.9336
1197.970, 357.5825
1199.054, 363.1553
1200.137, 438.9907
1201.221, 284.1460
1202.305, 283.2476
1203.388, 335.8408
1204.471, 227.7656
1205.554, 364.6948
1206.637, 254.6543
1207.719, 233.5923
1208.802, 235.5024
1209.884, 268.9214
1210.966, 355.0884
1212.048, 199.6587
1213.130, 287.0684
1214.212, 216.5645
1215.293, 313.9771
1216.374, 331.3096
1217.456, 225.5620
1218.536, 202.7310
1219.617, 180.8164
1220.698, 36.81641
1221.778, 182.7109
1222.859, 228.5200
1223.939, 244.2471
1225.019, 134.8931
1226.099, 255.4521
1227.178, 200.9307
1228.258, 250.3267
1229.337, 26.35840
1230.417, 178.8213
1231.496, 7.081055
1232.574, 116.8916
1233.653, 38.77881
1234.732, 80.56592
1235.810, 2.736816
1236.888, 28.88428
1237.966, 230.3154
1239.044, 86.71143
1240.122, 79.02002
1241.199, 126.2417
1242.277, 31.38086
1243.354, 31.42139
1244.431, 38.36426
1245.508, 58.21338
1246.585, 27.97363
1247.661, 10.63623
1248.738, 66.19531
1249.814, 4.668457
1250.890, 14.96436
1251.966, 72.71240
1253.042, 27.39502
1254.117, 89.41016
1255.193, 1.345703
1256.268, 82.17773
1257.343, 964.7192
1258.418, 414.9375
1259.493, 542.7744
1260.567, 95.94971
1261.642, 44.10498
1262.716, 85.09473
1263.790, 83.62158
1264.864, 129.2627
1265.938, 33.20557
1267.011, 142.3511
1268.085, 12.67285
1269.158, 147.2114
1270.231, 34.38281
1271.304, 49.90088
1272.377, 17.14893
1273.450, 3.391602
1274.522, 63.91602
1275.594, 45.58252
1276.666, 15.10547
1277.738, 94.73926
1278.810, 51.18799
1279.882, 99.75537
1280.953, 17.06836
1282.025, 81.56104
1283.096, 78.29932
1284.167, 6.335449
1285.238, 23.73438
1286.308, 31.28662
1287.379, 70.66406
1288.449, 25.05762
1289.519, 123.3999
1290.589, 107.5225
1291.659, 90.81689
1292.729, 32.12695
1293.798, 102.0977
1294.868, 23.36035
1295.937, 60.26758
1297.006, 0.9130860
1298.075, 79.07471
1299.143, 66.58887
1300.212, 52.03711
1301.280, 114.6304
1302.348, 141.8428
1303.416, 124.4878
1304.484, 82.18408
1305.552, 141.9404
1306.620, 149.7378
1307.687, 15.59033
1308.754, 60.50146
1309.821, 86.44629
1310.888, 197.4321
1311.955, 179.4355
1313.021, 20.54004
1314.088, 78.53613
1315.154, 112.6738
1316.220, 45.73926
1317.286, 162.8804
1318.352, 167.0679
1319.417, 127.2666
1320.483, 62.47949
1321.548, 134.6079
1322.613, 154.4160
1323.678, 26.26953
1324.743, 192.4390
1325.807, 97.83984
1326.872, 165.0674
1327.936, 146.1626
1329.000, 83.25000
1330.064, 158.1963
1331.128, 133.3564
1332.191, 166.3911
1333.255, 193.0532
1334.318, 342.0361
1335.381, 168.7412
1336.444, 314.3169
1337.507, 251.3901
1338.569, 655.5078
1339.632, 281.3154
1340.694, 133.6011
1341.756, 366.2163
1342.818, 181.5342
1343.880, 245.1519
1344.941, 250.7842
1346.003, 260.9961
1347.064, 325.0771
1348.125, 219.0332
1349.186, 177.6465
1350.247, 222.5449
1351.308, 293.6040
1352.368, 245.6982
1353.428, 266.2153
1354.489, 116.2983
1355.549, 206.1260
1356.608, 147.1328
1357.668, 325.0430
1358.727, 253.7002
1359.787, 121.8320
1360.846, 266.0332
1361.905, 358.6641
1362.964, 197.3799
1364.022, 188.8369
1365.081, 129.0908
1366.139, 248.8174
1367.197, 239.5986
1368.255, 197.2607
1369.313, 331.4219
1370.371, 214.8760
1371.428, 237.3564
1372.486, 197.1123
1373.543, 285.4062
1374.600, 239.8203
1375.657, 265.3994
1376.713, 265.8604
1377.770, 147.1553
1378.826, 135.2607
1379.882, 143.7861
1380.938, 205.3770
1381.994, 147.1611
1383.050, 140.4844
1384.106, 120.9463
1385.161, 96.37988
1386.216, 77.78320
1387.271, 73.54883
1388.326, 98.03809
1389.381, 104.3115
1390.435, 148.6104
1391.490, 177.3887
1392.544, 144.4873
1393.598, 82.25586
1394.652, 54.41895
1395.705, 271.1621
1396.759, 214.0059
1397.812, 222.3643
1398.866, 73.95410
1399.919, 220.0820
1400.972, 76.71875
1402.024, 99.51270
1403.077, 78.17676
1404.129, 125.4648
1405.181, 168.5449
1406.233, 101.3350
1407.285, 247.4678
1408.337, 55.96484
1409.389, 162.0576
1410.440, 36.15430
1411.491, 112.1367
1412.542, 121.1279
1413.593, 134.9590
1414.644, 182.1064
1415.695, 128.9512
1416.745, 79.36426
1417.795, 67.73535
1418.845, 272.0615
1419.895, 99.11035
1420.945, 172.5361
1421.995, 135.5879
1423.044, 57.34766
1424.093, 45.77246
1425.142, 21.66211
1426.191, 122.0752
1427.240, 8.543945
1428.289, 47.87109
1429.337, 127.9434
1430.385, 133.7168
1431.433, 36.34668
1432.481, 75.26172
1433.529, 30.24707
1434.577, 109.7070
1435.624, 79.39746
1436.672, 57.24023
1437.719, 55.48438
1438.766, 53.52637
1439.812, 42.99121
1440.859, 65.02539
1441.905, 46.25098
1442.952, 29.29883
1443.998, 50.88184
1445.044, 54.56836
1446.090, 46.79492
1447.135, 137.4453
1448.181, 46.18848
1449.226, 14.69434
1450.271, 107.8438
1451.316, 32.10547
1452.361, 12.85352
1453.405, 53.41504
1454.450, 17.64941
1455.494, 7.854492
1456.538, 24.97461
1457.582, 89.16602
1458.626, 15.27734
1459.670, 77.35449
1460.713, 60.40723
1461.757, 136.4648
1462.800, 152.4971
1463.843, 132.5088
1464.886, 201.4971
1465.928, 129.5273
1466.971, 153.5918
1468.013, 142.6699
1469.055, 122.7852
1470.097, 169.9277
1471.139, 117.0586
1472.181, 168.2178
1473.222, 185.4043
1474.263, 211.6289
1475.305, 226.6494
1476.346, 252.7998
1477.386, 242.2139
1478.427, 261.8857
1479.468, 274.6621
1480.508, 320.1826
1481.548, 366.8174
1482.588, 453.5137
1483.628, 449.5371
1484.668, 457.4453
1485.707, 457.0938
1486.747, 437.0967
1487.786, 434.1367
1488.825, 477.2080
1489.864, 530.3047
1490.902, 418.4307
1491.941, 436.5879
1492.979, 386.8125
1494.017, 517.0664
1495.055, 524.3418
1496.093, 403.6387
1497.131, 512.9619
1498.168, 472.3828
1499.206, 542.8008
1500.243, 595.0449
1501.280, 634.4805
1502.317, 532.9326
1503.354, 589.3975
1504.390, 572.8789
1505.426, 572.3643
1506.463, 717.8623
1507.499, 670.3525
1508.535, 684.8350
1509.570, 632.3164
1510.606, 688.5850
1511.641, 602.2256
1512.676, 524.7637
1513.711, 502.3701
1514.746, 572.5049
1515.781, 627.2021
1516.816, 581.9561
1517.850, 615.7725
1518.884, 538.6543
1519.918, 570.6074
1520.952, 552.6299
1521.986, 504.7256
1523.019, 489.8975
1524.053, 592.1475
1525.086, 505.4707
1526.119, 399.8711
1527.152, 501.3477
1528.185, 414.8965
1529.217, 414.5166
1530.250, 421.2061
1531.282, 421.9688
1532.314, 361.8027
1533.346, 413.7129
1534.377, 420.7012
1535.409, 240.7998
1536.440, 323.0254
1537.472, 421.3467
1538.503, 255.7676
1539.534, 221.3008
1540.564, 297.9561
1541.595, 254.8096
1542.625, 190.8369
1543.656, 359.0479
1544.686, 262.4316
1545.716, 117.9961
1546.745, 238.7539
1547.775, 187.7168
1548.804, 223.8945
1549.834, 253.3057
1550.863, 270.9668
1551.892, 434.9043
1552.920, 744.1445
1553.949, 680.7178
1554.977, 935.6543
1556.006, 740.0000
1557.034, 204.7900
1558.062, 133.0703
1559.089, 74.89453
1560.117, 214.3330
1561.144, 52.47363
1562.172, 214.4209
1563.199, 30.30371
1564.226, 13.71777
1565.252, 123.5596
1566.279, 49.40723
1567.305, 199.1670
1568.332, 9.388672
1569.358, 108.9590
1570.384, 0.0000000E+00
##END=



