##NAMES=Andradite
##RRUFFID=R060326
##IDEAL CHEMISTRY=Ca_3_Fe^3+^_2_(SiO_4_)_3_
##LOCALITY=Ultevis, Sweden
##OWNER=RRUFF
##SOURCE=Marcus Origlieri
##DESCRIPTION=Reddish-brown colored druse of crystals associated with white svabite R050180
##STATUS=The identification of this mineral has been confirmed by X-ray diffraction and chemical analysis
##URL=rruff.info/R060326
##MEASURED CHEMISTRY=(Ca_2.98_Mn_0.02_)_Σ=3_(Fe^3+^_1.75_Al_0.21_Ti_0.04_)_Σ=2_(Si_1.00_O_4_)_3_
##PIN_ID=M00248
##ORIENTATION=Laser parallel to (0 -1 -1). Fiducial mark perpendicular to laser is parallel to a [1 0 0]
99.64900, 0.0000000E+00
100.8830, 1.674805
102.1160, 89.00000
103.3490, 88.83887
104.5820, 295.5186
105.8150, 188.6826
107.0470, 257.4844
108.2800, 297.4375
109.5120, 382.0977
110.7440, 346.1289
111.9760, 173.2969
113.2080, 182.4365
114.4400, 162.6904
115.6710, 308.8271
116.9030, 64.62305
118.1340, 211.9258
119.3650, 4.643555
120.5960, 85.72852
121.8270, 88.36621
123.0580, 128.2188
124.2880, 94.25977
125.5190, 126.5684
126.7490, 76.12305
127.9790, 124.2695
129.2090, 221.2568
130.4390, 143.0547
131.6680, 47.69238
132.8980, 113.1992
134.1270, 197.5967
135.3560, 75.90234
136.5850, 181.1348
137.8140, 439.3467
139.0430, 294.8711
140.2710, 467.3369
141.5000, 496.7324
142.7280, 306.3535
143.9560, 466.5557
145.1840, 163.7373
146.4120, 240.0537
147.6390, 329.3486
148.8670, 254.6279
150.0940, 249.8965
151.3210, 231.1582
152.5490, 185.4434
153.7750, 244.5723
155.0020, 380.7520
156.2290, 404.3682
157.4550, 420.3408
158.6810, 359.3799
159.9080, 492.4834
161.1340, 629.6523
162.3590, 794.8828
163.5850, 966.5947
164.8110, 1105.521
166.0360, 1329.918
167.2610, 1508.368
168.4860, 1662.871
169.7110, 1969.427
170.9360, 1901.196
172.1610, 1989.697
173.3850, 1742.406
174.6100, 1494.124
175.8340, 1266.277
177.0580, 902.3389
178.2820, 685.1992
179.5050, 555.8467
180.7290, 337.5381
181.9520, 277.2754
183.1760, 91.06055
184.3990, 178.8916
185.6220, 19.23047
186.8450, 13.69434
188.0670, 72.84277
189.2900, 58.90918
190.5120, 117.1191
191.7340, 113.9111
192.9560, 175.1914
194.1780, 230.5117
195.4000, 86.87109
196.6220, 56.26953
197.8430, 70.70508
199.0640, 295.1807
200.2860, 30.69141
201.5070, 196.2344
202.7270, 158.8086
203.9480, 37.58594
205.1690, 6.051758
206.3890, 186.2783
207.6090, 127.5752
208.8290, 31.83887
210.0490, 48.07031
211.2690, 17.25195
212.4890, 89.61133
213.7080, 68.50879
214.9280, 77.43848
216.1470, 155.3926
217.3660, 193.3701
218.5850, 203.3818
219.8030, 315.4268
221.0220, 332.5039
222.2400, 477.6143
223.4590, 867.7578
224.6770, 979.9346
225.8950, 1386.122
227.1120, 1644.211
228.3300, 2059.275
229.5480, 2452.352
230.7650, 2851.466
231.9820, 3503.619
233.1990, 3742.810
234.4160, 3758.038
235.6330, 3509.306
236.8490, 3117.609
238.0660, 2760.952
239.2820, 2125.334
240.4980, 1616.752
241.7140, 1152.210
242.9300, 760.7070
244.1460, 535.2432
245.3610, 244.8193
246.5770, 237.8721
247.7920, 116.7676
249.0070, 53.51855
250.2220, 30.59180
251.4370, 14.40625
252.6510, 92.49512
253.8660, 20.32812
255.0800, 16.08887
256.2940, 210.2168
257.5080, 181.5850
258.7220, 304.0098
259.9360, 609.4873
261.1490, 777.0137
262.3630, 724.5830
263.5760, 649.1953
264.7890, 623.8447
266.0020, 575.8027
267.2150, 616.2559
268.4270, 491.0127
269.6400, 603.8008
270.8520, 536.6211
272.0640, 110.4727
273.2760, 164.3486
274.4880, 193.2432
275.7000, 0.1562500
276.9120, 39.69238
278.1230, 34.64453
279.3340, 30.11621
280.5450, 11.81152
281.7560, 62.29883
282.9670, 109.8652
284.1780, 127.9092
285.3880, 126.9766
286.5980, 200.1328
287.8090, 223.1699
289.0190, 270.2812
290.2290, 219.4141
291.4380, 296.5693
292.6480, 318.7461
293.8570, 334.9473
295.0670, 382.1699
296.2760, 406.4170
297.4850, 582.6855
298.6930, 774.9492
299.9020, 892.0449
301.1110, 1016.117
302.3190, 1248.207
303.5270, 1386.325
304.7350, 1862.472
305.9430, 2355.647
307.1510, 2839.852
308.3580, 3110.084
309.5660, 3396.344
310.7730, 3474.633
311.9800, 3338.949
313.1870, 3118.293
314.3940, 2774.663
315.6010, 2526.062
316.8070, 2175.488
318.0130, 2040.941
319.2200, 2233.420
320.4260, 1893.168
321.6310, 1980.491
322.8370, 2115.044
324.0430, 2030.775
325.2480, 1916.329
326.4540, 1596.911
327.6590, 1389.521
328.8640, 1520.158
330.0680, 1337.821
331.2730, 1323.238
332.4780, 1164.946
333.6820, 1304.688
334.8860, 1415.463
336.0900, 1393.255
337.2940, 1701.052
338.4980, 1810.876
339.7010, 2120.726
340.9050, 2301.621
342.1080, 2735.542
343.3110, 3155.486
344.5140, 3683.457
345.7170, 4152.453
346.9200, 4905.473
348.1220, 5630.519
349.3240, 5946.541
350.5270, 6526.486
351.7290, 7422.523
352.9310, 7800.992
354.1320, 8648.437
355.3340, 9468.156
356.5350, 11023.34
357.7370, 12819.59
358.9380, 15493.86
360.1390, 18600.15
361.3400, 22385.46
362.5400, 26545.81
363.7410, 30748.16
364.9410, 35000.55
366.1410, 37881.96
367.3410, 39532.41
368.5410, 38945.88
369.7410, 37526.39
370.9400, 34072.89
372.1400, 29506.45
373.3390, 25112.02
374.5380, 20812.62
375.7370, 16748.24
376.9360, 13293.89
378.1350, 10629.57
379.3330, 8735.286
380.5310, 6887.053
381.7300, 5750.857
382.9280, 4774.688
384.1260, 3951.552
385.3230, 3408.465
386.5210, 2889.456
387.7180, 2287.475
388.9160, 1919.515
390.1130, 1567.807
391.3100, 1574.665
392.5060, 1066.784
393.7030, 1118.931
394.9000, 938.8418
396.0960, 896.0439
397.2920, 753.1494
398.4880, 571.6006
399.6840, 549.2520
400.8800, 512.6182
402.0750, 486.0078
403.2710, 450.4219
404.4660, 353.8604
405.6610, 292.3223
406.8560, 265.8359
408.0510, 114.4121
409.2450, 147.0459
410.4400, 180.7021
411.6340, 191.4102
412.8280, 86.14258
414.0220, 157.9189
415.2160, 72.72754
416.4100, 36.55762
417.6030, 10.41992
418.7970, 93.30762
419.9900, 99.88770
421.1830, 77.05176
422.3760, 12.98828
423.5690, 62.29199
424.7610, 106.2725
425.9540, 154.1318
427.1460, 167.8574
428.3380, 3.868164
429.5300, 192.9189
430.7220, 101.9893
431.9140, 144.0791
433.1050, 23.18945
434.2970, 153.3193
435.4880, 128.4697
436.6790, 110.6387
437.8700, 238.8271
439.0610, 212.0352
440.2510, 135.2617
441.4420, 357.5068
442.6320, 466.7715
443.8220, 267.0566
445.0120, 414.3613
446.2020, 461.6855
447.3910, 740.0283
448.5810, 719.3906
449.7700, 785.7725
450.9600, 749.1748
452.1490, 845.5938
453.3370, 603.0322
454.5260, 728.4902
455.7150, 603.9648
456.9030, 346.4600
458.0910, 413.9717
459.2800, 311.5029
460.4670, 129.0508
461.6550, 22.61523
462.8430, 12.80078
464.0300, 59.17383
465.2180, 1.605469
466.4050, 10.99219
467.5920, 53.63574
468.7790, 130.2812
469.9650, 339.9434
471.1520, 268.6221
472.3380, 292.3164
473.5250, 481.0273
474.7110, 466.7607
475.8970, 586.5107
477.0820, 673.0068
478.2680, 683.7881
479.4540, 821.5850
480.6390, 967.6904
481.8240, 1189.518
483.0090, 1347.053
484.1940, 1471.910
485.3780, 1724.782
486.5630, 1872.668
487.7470, 2254.566
488.9320, 2426.480
490.1160, 2636.408
491.3000, 2517.351
492.4830, 2599.314
493.6670, 2495.293
494.8500, 2440.252
496.0340, 2025.329
497.2170, 2278.426
498.4000, 2096.547
499.5820, 1942.686
500.7650, 2154.837
501.9480, 2140.000
503.1300, 2388.176
504.3120, 2813.363
505.4940, 3498.562
506.6760, 4098.773
507.8580, 5454.994
509.0390, 6394.447
510.2210, 8506.691
511.4020, 10225.95
512.5830, 12187.36
513.7640, 13845.76
514.9450, 14928.04
516.1250, 15208.51
517.3060, 15336.75
518.4860, 14206.74
519.6660, 12865.29
520.8460, 11011.62
522.0260, 9054.066
523.2060, 7339.654
524.3850, 5817.015
525.5650, 4587.927
526.7440, 3722.266
527.9230, 3233.613
529.1020, 2544.824
530.2810, 2354.220
531.4590, 1983.621
532.6380, 1674.516
533.8160, 1525.928
534.9940, 1500.345
536.1720, 1472.121
537.3500, 1442.244
538.5270, 1372.530
539.7050, 1319.305
540.8820, 1241.441
542.0590, 1209.984
543.2360, 1181.463
544.4130, 1207.289
545.5900, 1086.936
546.7660, 1300.422
547.9430, 1261.936
549.1190, 1593.515
550.2950, 1516.151
551.4710, 1425.645
552.6470, 1457.215
553.8220, 1491.878
554.9980, 1151.698
556.1730, 1156.197
557.3480, 911.8672
558.5230, 924.5674
559.6980, 711.9482
560.8730, 577.9580
562.0470, 572.9219
563.2220, 411.4053
564.3960, 349.8320
565.5700, 625.0557
566.7440, 401.6572
567.9170, 222.8984
569.0910, 512.3857
570.2640, 350.4307
571.4380, 326.9121
572.6110, 322.3887
573.7840, 460.8623
574.9570, 384.3311
576.1290, 511.7949
577.3020, 614.2559
578.4740, 592.7109
579.6460, 626.4521
580.8180, 534.6084
581.9900, 569.0498
583.1620, 446.4863
584.3330, 411.9180
585.5040, 469.3447
586.6760, 390.7646
587.8470, 590.1797
589.0180, 504.5889
590.1880, 634.9932
591.3590, 477.3916
592.5290, 538.7832
593.7000, 488.1699
594.8700, 524.5498
596.0400, 491.9229
597.2090, 423.2891
598.3790, 537.6484
599.5490, 447.0010
600.7180, 526.3477
601.8870, 517.7461
603.0560, 621.0176
604.2250, 487.1006
605.3940, 458.6162
606.5620, 391.8799
607.7300, 180.9775
608.8990, 285.2725
610.0670, 332.5596
611.2350, 213.8379
612.4020, 359.1094
613.5700, 151.3730
614.7370, 69.62793
615.9050, 207.8750
617.0720, 8.886719
618.2390, 120.3262
619.4060, 107.5303
620.5720, 20.72656
621.7390, 217.9092
622.9050, 54.91699
624.0710, 120.2070
625.2370, 170.3203
626.4030, 70.42578
627.5690, 129.5225
628.7340, 172.6084
629.9000, 236.6865
631.0650, 285.7549
632.2300, 200.8145
633.3950, 328.8643
634.5600, 7.905273
635.7240, 117.9268
636.8890, 166.9375
638.0530, 151.9385
639.2170, 337.9307
640.3810, 148.9141
641.5450, 138.8867
642.7080, 292.8496
643.8720, 189.8027
645.0350, 141.7461
646.1980, 54.67969
647.3610, 127.6035
648.5240, 26.48340
649.6870, 55.38965
650.8490, 130.2529
652.0120, 38.10742
653.1740, 7.947266
654.3360, 105.7656
655.4980, 130.5742
656.6600, 42.37109
657.8210, 19.15820
658.9830, 25.07422
660.1440, 191.6533
661.3050, 102.6279
662.4660, 24.99121
663.6270, 100.6035
664.7870, 13.81055
665.9480, 68.25879
667.1080, 179.7715
668.2680, 16.59473
669.4280, 62.94043
670.5880, 148.2773
671.7480, 27.60156
672.9070, 86.91016
674.0670, 84.20801
675.2260, 33.60547
676.3850, 20.76758
677.5440, 1.021484
678.7030, 53.75195
679.8610, 24.58105
681.0200, 54.45117
682.1780, 105.6221
683.3360, 34.68457
684.4940, 44.73242
685.6520, 95.76660
686.8090, 86.21094
687.9670, 119.2607
689.1240, 104.4004
690.2810, 78.37891
691.4380, 87.85449
692.5950, 43.83887
693.7520, 60.48047
694.9080, 7.858398
696.0650, 42.73242
697.2210, 11.68848
698.3770, 10.85840
699.5330, 23.38379
700.6880, 122.1074
701.8440, 137.3281
702.9990, 29.24805
704.1550, 68.86230
705.3100, 86.47070
706.4650, 41.18945
707.6190, 155.1309
708.7740, 52.55859
709.9290, 243.6992
711.0830, 251.9473
712.2370, 165.1855
713.3910, 212.4131
714.5450, 79.62891
715.6980, 96.83496
716.8520, 218.0293
718.0050, 165.2148
719.1580, 71.38965
720.3110, 255.5537
721.4640, 89.70801
722.6170, 163.8516
723.7700, 275.9863
724.9220, 432.1104
726.0740, 367.2246
727.2260, 189.3281
728.3780, 233.4229
729.5300, 392.5078
730.6810, 183.5830
731.8330, 332.6475
732.9840, 250.7041
734.1350, 313.7510
735.2860, 430.7881
736.4370, 272.8164
737.5880, 379.8350
738.7380, 438.8447
739.8880, 358.8447
741.0390, 355.8369
742.1890, 413.8193
743.3380, 336.7949
744.4880, 413.7686
745.6380, 248.7354
746.7870, 355.6943
747.9360, 370.6445
749.0850, 598.5869
750.2340, 379.5215
751.3830, 576.4463
752.5310, 468.3633
753.6800, 568.2715
754.8280, 491.1719
755.9760, 411.3350
757.1240, 515.2217
758.2720, 381.1143
759.4190, 158.7178
760.5670, 501.6074
761.7140, 469.8008
762.8610, 470.6826
764.0080, 652.5576
765.1550, 469.4326
766.3020, 461.3047
767.4480, 391.1709
768.5950, 351.0371
769.7410, 507.9209
770.8870, 479.8135
772.0330, 460.7363
773.1780, 486.7490
774.3240, 428.7148
775.4690, 543.6748
776.6140, 533.6494
777.7590, 659.6230
778.9040, 655.5918
780.0490, 522.5703
781.1940, 640.5430
782.3380, 551.5293
783.4820, 573.2334
784.6260, 767.4990
785.7700, 690.4795
786.9140, 803.2490
788.0580, 1050.238
789.2010, 966.2314
790.3450, 991.0811
791.4880, 1078.953
792.6310, 1202.945
793.7730, 1271.933
794.9160, 1427.828
796.0590, 1556.154
797.2010, 1819.954
798.3430, 1977.339
799.4850, 2061.879
800.6270, 2443.652
801.7690, 2788.656
802.9100, 3190.115
804.0520, 3711.150
805.1930, 3951.182
806.3340, 4785.352
807.4750, 5416.345
808.6160, 6287.342
809.7560, 6840.840
810.8970, 7610.827
812.0370, 8096.814
813.1770, 8696.448
814.3170, 8946.742
815.4570, 8927.125
816.5960, 8905.074
817.7360, 8249.858
818.8750, 7768.771
820.0140, 6993.755
821.1530, 6406.393
822.2920, 5921.211
823.4310, 5248.195
824.5690, 4823.152
825.7070, 4574.047
826.8460, 4325.570
827.9840, 4368.879
829.1220, 4323.793
830.2590, 4567.617
831.3970, 4889.285
832.5340, 4934.277
833.6710, 5469.104
834.8080, 5818.900
835.9450, 6465.020
837.0820, 7056.510
838.2190, 7508.445
839.3550, 7992.467
840.4910, 7916.281
841.6270, 7955.635
842.7630, 7719.674
843.8990, 7324.820
845.0350, 6872.871
846.1700, 6354.361
847.3060, 5917.760
848.4410, 5266.486
849.5760, 4981.559
850.7100, 4528.639
851.8450, 4104.723
852.9800, 3843.812
854.1140, 3581.908
855.2480, 3340.012
856.3820, 3460.121
857.5160, 3477.238
858.6500, 3400.359
859.7830, 3530.490
860.9170, 3586.625
862.0500, 3886.770
863.1830, 4140.920
864.3160, 4227.076
865.4480, 5022.240
866.5810, 5349.414
867.7130, 6151.592
868.8460, 6844.779
869.9780, 7737.975
871.1100, 8274.176
872.2410, 8416.387
873.3730, 8472.602
874.5050, 8438.824
875.6360, 7837.057
876.7670, 7142.297
877.8980, 6274.545
879.0290, 5434.801
880.1590, 4607.066
881.2900, 3751.340
882.4200, 3292.619
883.5500, 2547.908
884.6800, 2380.205
885.8100, 1912.512
886.9400, 1605.826
888.0690, 1367.146
889.1990, 1182.477
890.3280, 1038.832
891.4570, 929.3203
892.5860, 893.8242
893.7140, 796.9121
894.8430, 573.0137
895.9710, 676.4453
897.1000, 511.0391
898.2280, 433.6035
899.3560, 513.0352
900.4830, 407.8945
901.6110, 444.2715
902.7380, 288.7285
903.8660, 186.7070
904.9930, 213.5996
906.1200, 397.1289
907.2460, 217.3281
908.3730, 347.7246
909.5000, 208.1035
910.6260, 131.7871
911.7520, 267.8359
912.8780, 400.5254
914.0040, 356.0527
915.1290, 163.1250
916.2550, 299.8574
917.3800, 255.4980
918.5050, 236.4141
919.6300, 291.6328
920.7550, 272.2676
921.8800, 172.8516
923.0040, 448.6660
924.1290, 218.2070
925.2530, 413.3027
926.3770, 311.9043
927.5010, 429.6250
928.6250, 424.3613
929.7480, 283.3008
930.8720, 503.0000
931.9950, 377.5938
933.1180, 374.2441
934.2410, 331.8984
935.3640, 492.5879
936.4860, 403.2988
937.6090, 300.0352
938.7310, 182.7637
939.8530, 416.5234
940.9750, 275.3438
942.0970, 259.1719
943.2180, 4.001953
944.3400, 141.8340
945.4610, 87.67578
946.5820, 201.5215
947.7030, 292.3672
948.8240, 331.2227
949.9450, 229.0859
951.0650, 463.9590
952.1860, 264.8574
953.3060, 418.7754
954.4260, 529.7207
955.5460, 337.6680
956.6650, 223.6211
957.7850, 435.5762
958.9040, 381.5391
960.0230, 485.5312
961.1420, 572.5918
962.2610, 507.6973
963.3800, 552.8203
964.4990, 579.9746
965.6170, 695.1367
966.7350, 668.3262
967.8530, 752.5254
968.9710, 503.7324
970.0890, 738.9492
971.2070, 550.1758
972.3240, 691.4082
973.4410, 809.6895
974.5580, 682.9746
975.6750, 654.2773
976.7920, 702.6094
977.9090, 777.9414
979.0250, 655.2910
980.1410, 831.6465
981.2580, 862.0273
982.3740, 835.4062
983.4890, 838.8105
984.6050, 997.2148
985.7200, 1021.623
986.8360, 1074.033
987.9510, 1234.443
989.0660, 1413.395
990.1810, 1650.289
991.2950, 1911.738
992.4100, 2232.186
993.5240, 2508.637
994.6390, 2388.102
995.7530, 2338.602
996.8660, 2018.102
997.9800, 1803.605
999.0940, 1519.123
1000.207, 1201.641
1001.320, 976.2305
1002.433, 903.7598
1003.546, 605.2891
1004.659, 503.8203
1005.772, 376.3516
1006.884, 470.8828
1007.996, 375.4141
1009.108, 353.9414
1010.220, 319.4727
1011.332, 201.0000
1012.444, 306.5273
1013.555, 379.4141
1014.666, 149.0918
1015.777, 109.6191
1016.888, 141.2891
1017.999, 217.8125
1019.110, 93.34375
1020.220, 150.0488
1021.331, 60.57422
1022.441, 85.09961
1023.551, 24.71680
1024.661, 1.238281
1025.770, 1.755859
1026.880, 49.72852
1027.989, 42.48438
1029.098, 25.21484
1030.207, 20.33008
1031.316, 5.111328
1032.425, 79.54883
1033.533, 22.01758
1034.642, 13.60156
1035.750, 85.80273
1036.858, 21.79883
1037.966, 83.41602
1039.073, 45.08594
1040.181, 134.7832
1041.288, 73.56250
1042.396, 120.3887
1043.503, 9.710938
1044.610, 66.18945
1045.716, 12.13672
1046.823, 178.9023
1047.929, 49.06250
1049.036, 9.949219
1050.142, 57.04297
1051.248, 2.921875
1052.353, 17.45312
1053.459, 41.81445
1054.564, 38.25391
1055.670, 9.357422
1056.775, 20.47656
1057.880, 12.91992
1058.985, 153.2207
1060.089, 5.947266
1061.194, 36.87305
1062.298, 56.31836
1063.402, 49.44922
1064.506, 81.79102
1065.610, 94.91602
1066.713, 115.6133
1067.817, 110.3066
1068.920, 79.99414
1070.023, 67.67773
1071.126, 137.3535
1072.229, 123.0234
1073.332, 134.6875
1074.435, 139.1445
1075.537, 86.99414
1076.639, 94.63281
1077.741, 187.2695
1078.843, 127.9004
1079.945, 200.5254
1081.046, 190.4570
1082.148, 113.0664
1083.249, 381.8965
1084.350, 327.4922
1085.451, 349.0801
1086.551, 289.6621
1087.652, 421.2344
1088.752, 207.8027
1089.853, 313.3887
1090.953, 170.9395
1092.053, 191.4844
1093.152, 336.2285
1094.252, 236.6270
1095.351, 223.8848
1096.451, 347.3926
1097.550, 297.2383
1098.649, 192.7285
1099.748, 174.3320
1100.846, 297.0137
1101.945, 448.4727
1103.043, 364.9258
1104.141, 275.6777
1105.239, 382.9102
1106.337, 176.3320
1107.434, 337.8906
1108.532, 236.2891
1109.629, 274.6777
1110.726, 461.0566
1111.823, 198.6387
1112.920, 348.1074
1114.017, 288.4531
1115.113, 172.9043
1116.210, 152.2246
1117.306, 230.7402
1118.402, 361.0820
1119.498, 333.3691
1120.593, 468.8359
1121.689, 297.3594
1122.784, 292.7480
1123.879, 496.1445
1124.974, 426.3730
1126.069, 247.0000
1127.164, 397.7695
1128.259, 465.9590
1129.353, 656.6992
1130.447, 538.8223
1131.541, 327.9746
1132.635, 125.2109
1133.729, 271.9043
1134.822, 323.0156
1135.916, 230.1133
1137.009, 250.1973
1138.102, 373.2676
1139.195, 316.3262
1140.288, 257.3691
1141.380, 297.3984
1142.473, 245.4238
1143.565, 231.4355
1144.657, 75.46875
1145.749, 113.8066
1146.841, 174.7734
1147.932, 115.7305
1149.024, 325.6680
1150.115, 244.8574
1151.206, 109.7695
1152.297, 287.6621
1153.388, 173.5430
1154.479, 130.4082
1155.569, 210.2441
1156.659, 236.9395
1157.750, 266.6211
1158.839, 278.5039
1159.929, 284.7871
1161.019, 285.6250
1162.108, 259.5879
1163.198, 302.7148
1164.287, 204.4551
1165.376, 278.7656
1166.465, 287.5547
1167.553, 281.2539
1168.642, 459.4258
1169.730, 227.6797
1170.818, 233.2891
1171.906, 297.2227
1172.994, 348.9551
1174.082, 344.6230
1175.170, 408.0781
1176.257, 339.5293
1177.344, 433.9492
1178.431, 395.5273
1179.518, 301.7617
1180.605, 415.1211
1181.691, 319.5703
1182.778, 115.7324
1183.864, 324.5898
1184.950, 135.0410
1186.036, 348.5215
1187.122, 278.7793
1188.207, 272.3047
1189.292, 258.2676
1190.378, 262.7266
1191.463, 386.0605
1192.548, 473.3770
1193.632, 267.5234
1194.717, 354.8652
1195.801, 285.3086
1196.886, 110.7070
1197.970, 279.0957
1199.054, 200.4746
1200.137, 226.8438
1201.221, 125.1836
1202.305, 107.5332
1203.388, 162.8750
1204.471, 174.2070
1205.554, 361.5293
1206.637, 312.8438
1207.719, 372.1465
1208.802, 269.4395
1209.884, 207.7266
1210.966, 31.00000
1212.048, 214.2637
1213.130, 44.51953
1214.212, 144.7617
1215.293, 286.9941
1216.374, 170.2188
1217.456, 122.4336
1218.536, 212.6406
1219.617, 90.83594
1220.698, 197.0215
1221.778, 156.1992
1222.859, 63.63281
1223.939, 10.51758
1225.019, 24.42969
1226.099, 200.6270
1227.178, 26.67383
1228.258, 98.70898
1229.337, 67.73438
1230.417, 46.75195
1231.496, 111.7559
1232.574, 120.7539
1233.653, 29.73828
1234.732, 10.28320
1235.810, 133.6660
1236.888, 60.60938
1237.966, 147.5430
1239.044, 109.4629
1240.122, 157.3789
1241.199, 44.28516
1242.277, 68.18164
1243.354, 107.0684
1244.431, 64.05273
1245.508, 121.7969
1246.585, 45.61719
1247.661, 84.42578
1248.738, 156.2246
1249.814, 48.01562
1250.890, 51.20312
1251.966, 33.46484
1253.042, 55.23633
1254.117, 127.9277
1255.193, 38.38867
1256.268, 104.7070
1257.343, 221.9023
1258.418, 7.503906
1259.493, 31.90625
1260.567, 160.6484
1261.642, 66.19727
1262.716, 26.33398
1263.790, 231.1758
1264.864, 109.6777
1265.938, 159.1758
1267.011, 298.6641
1268.085, 140.1465
1269.158, 114.6230
1270.231, 99.09180
1271.304, 100.5020
1272.377, 178.9609
1273.450, 77.41211
1274.522, 14.55273
1275.594, 117.8379
1276.666, 83.27148
1277.738, 223.5527
1278.810, 8.029297
1279.882, 105.3711
1280.953, 181.5879
1282.025, 90.97656
1283.096, 188.3594
1284.167, 164.6445
1285.238, 156.0156
1286.308, 177.8965
1287.379, 98.75195
1288.449, 129.1250
1289.519, 224.5020
1290.589, 134.8770
1291.659, 101.2520
1292.729, 150.6250
1293.798, 216.9922
1294.868, 179.3574
1295.937, 304.7266
1297.006, 175.0879
1298.075, 215.4551
1299.143, 183.8379
1300.212, 130.2324
1301.280, 281.6602
1302.348, 357.1035
1303.416, 345.5781
1304.484, 7.046875
1305.552, 128.5312
1306.620, 177.0176
1307.687, 44.49609
1308.754, 308.9766
1309.821, 113.4473
1310.888, 264.9297
1311.955, 237.4121
1313.021, 65.89844
1314.088, 253.3789
1315.154, 200.8711
1316.220, 225.3652
1317.286, 245.8633
1318.352, 80.36719
1319.417, 220.8652
1320.483, 87.36133
1321.548, 57.85352
1322.613, 388.3633
1323.678, 236.8672
1324.743, 273.3945
1325.807, 252.9160
1326.872, 224.4355
1327.936, 296.9512
1329.000, 220.4609
1330.064, 177.9707
1331.128, 103.4727
1332.191, 236.9727
1333.255, 134.4688
1334.318, 180.9629
1335.381, 247.4531
1336.444, 179.9395
1337.507, 136.4219
1338.569, 241.9023
1339.632, 164.0664
1340.694, 170.5410
1341.756, 163.6484
1342.818, 134.2578
1343.880, 137.7246
1344.941, 130.1895
1346.003, 181.6484
1347.064, 197.1094
1348.125, 210.5391
1349.186, 197.9922
1350.247, 138.4473
1351.308, 127.8066
1352.368, 252.3848
1353.428, 172.1348
1354.489, 188.7246
1355.549, 382.6855
1356.608, 158.1348
1357.668, 153.4570
1358.727, 198.6953
1359.787, 104.6328
1360.846, 80.57617
1361.905, 130.6992
1362.964, 147.3281
1364.022, 277.7637
1365.081, 394.0469
1366.139, 235.4844
1367.197, 278.9199
1368.255, 442.3535
1369.313, 313.5762
1370.371, 112.8984
1371.428, 177.3359
1372.486, 36.65625
1373.543, 95.09766
1374.600, 117.3340
1375.657, 185.7363
1376.713, 253.1777
1377.770, 382.4316
1378.826, 216.6191
1379.882, 319.9336
1380.938, 182.2266
1381.994, 267.6797
1383.050, 313.9160
1384.106, 295.8086
1385.161, 184.2715
1386.216, 227.1699
1387.271, 76.67969
1388.326, 152.1504
1389.381, 58.52539
1390.435, 207.5039
1391.490, 275.9844
1392.544, 320.4707
1393.598, 283.9609
1394.652, 311.4785
1395.705, 202.9785
1396.759, 171.5527
1397.812, 42.00781
1398.866, 25.49609
1399.919, 96.00391
1400.972, 12.48047
1402.024, 153.6445
1403.077, 25.17383
1404.129, 118.2324
1405.181, 360.7695
1406.233, 39.04883
1407.285, 316.6035
1408.337, 223.1621
1409.389, 123.7324
1410.440, 292.3066
1411.491, 83.89062
1412.542, 72.48242
1413.593, 68.08398
1414.644, 349.6895
1415.695, 138.1719
1416.745, 290.6562
1417.795, 86.14648
1418.845, 48.63867
1419.895, 293.1875
1420.945, 232.6895
1421.995, 82.19336
1423.044, 188.6973
1424.093, 65.20703
1425.142, 39.71875
1426.191, 133.2227
1427.240, 29.72461
1428.289, 183.2266
1429.337, 70.72852
1430.385, 46.22852
1431.433, 173.4043
1432.481, 181.2793
1433.529, 164.0801
1434.577, 53.37891
1435.624, 262.3828
1436.672, 212.8984
1437.719, 51.42188
1438.766, 277.9492
1439.812, 190.4707
1440.859, 180.8867
1441.905, 362.2441
1442.952, 417.5684
1443.998, 274.8398
1445.044, 389.0840
1446.090, 281.2773
1447.135, 379.4531
1448.181, 237.8789
1449.226, 372.3438
1450.271, 195.8086
1451.316, 215.2695
1452.361, 148.7324
1453.405, 154.1895
1454.450, 206.6465
1455.494, 345.0977
1456.538, 427.5527
1457.582, 198.0078
1458.626, 289.4629
1459.670, 223.9141
1460.713, 109.3633
1461.757, 206.8145
1462.800, 324.3223
1463.843, 165.8672
1464.886, 252.4141
1465.928, 339.9688
1466.971, 271.5215
1468.013, 213.0898
1469.055, 203.6699
1470.097, 249.2500
1471.139, 214.8359
1472.181, 191.5996
1473.222, 316.0371
1474.263, 67.68750
1475.305, 132.3418
1476.346, 0.9316410
1477.386, 197.8164
1478.427, 14.56055
1479.468, 125.3555
1480.508, 127.1973
1481.548, 114.0605
1482.588, 115.9492
1483.628, 244.8438
1484.668, 254.7422
1485.707, 180.8281
1486.747, 68.62500
1487.786, 191.5098
1488.825, 117.1289
1489.864, 171.3105
1490.902, 132.2305
1491.941, 136.1562
1492.979, 160.0879
1494.017, 247.0273
1495.055, 256.9727
1496.093, 275.8691
1497.131, 174.8926
1498.168, 300.8652
1499.206, 208.8477
1500.243, 254.8438
1501.280, 87.84961
1502.317, 158.8652
1503.354, 135.8945
1504.390, 109.9570
1505.426, 44.03125
1506.463, 164.1172
1507.499, 130.7773
1508.535, 311.3496
1509.570, 181.5020
1510.606, 84.67969
1511.641, 333.8750
1512.676, 90.09375
1513.711, 145.3359
1514.746, 23.59961
1515.781, 264.8926
1516.816, 82.21094
1517.850, 247.5586
1518.884, 37.93555
1519.918, 238.3398
1520.952, 294.7734
1521.986, 142.2363
1523.019, 186.7285
1524.053, 209.9375
1525.086, 117.3652
1526.119, 138.9355
1527.152, 344.5293
1528.185, 1.150391
1529.217, 231.8770
1530.250, 326.6367
1531.282, 244.4336
1532.314, 153.2656
1533.346, 136.1367
1534.377, 217.0527
1535.409, 168.0098
1536.440, 187.0176
1537.472, 269.0703
1538.503, 279.1777
1539.534, 535.2383
1540.564, 532.3691
1541.595, 190.4824
1542.625, 336.5742
1543.656, 29.32422
1544.686, 175.3379
1545.716, 270.1914
1546.745, 188.0918
1547.775, 88.92969
1548.804, 158.6953
1549.834, 99.25195
1550.863, 159.6172
1551.892, 290.8008
1552.920, 463.7598
1553.949, 294.4395
1554.977, 181.7715
1556.006, 0.9511720
1557.034, 13.24219
1558.062, 82.71289
1559.089, 0.7753910
1560.117, 58.81055
1561.144, 141.2246
1562.172, 86.83984
1563.199, 214.8672
1564.226, 179.5078
1565.252, 401.8965
1566.279, 297.5566
1567.305, 300.7207
1568.332, 2.269531
1569.358, 259.5801
1570.384, 0.0000000E+00
##END=



