##NAMES=Andradite
##RRUFFID=R060350
##IDEAL CHEMISTRY=Ca_3_Fe^3+^_2_(SiO_4_)_3_
##LOCALITY=south of the Gem mine, southern San Benito County, California, USA
##OWNER=RRUFF
##SOURCE=Michael Scott
##DESCRIPTION=Cluster of black vitreous crystals showing well-developed faces
##STATUS=The identification of this mineral has been confirmed by X-ray diffraction and chemical analysis
##URL=rruff.info/R060350
##MEASURED CHEMISTRY=(Ca_2.93_Mg_0.07_)_Σ=3_(Fe^3+^_1.18_Ti_0.77_Al_0.05_)_Σ=2_((Si_0.74_Fe^3+^_0.26_)_Σ=1_O_4_)_3_ ; trace amounts of Mn
##PIN_ID=M00067
##ORIENTATION=Laser parallel to a* (1 0 0). Fiducial mark perpendicular to laser is parallel to c [0 0 1]
114.4400, 0.0000000E+00
115.6710, 339.8564
116.9030, 705.1768
118.1340, 425.7959
119.3650, 112.4082
120.5960, 35.12402
121.8270, 25.55957
123.0580, 567.8164
124.2880, 1195.514
125.5190, 1134.923
126.7490, 1227.945
127.9790, 1713.619
129.2090, 2627.785
130.4390, 3572.890
131.6680, 4510.849
132.8980, 5456.888
134.1270, 6708.412
135.3560, 8672.963
136.5850, 11325.04
137.8140, 14025.34
139.0430, 18368.67
140.2710, 23090.42
141.5000, 28114.05
142.7280, 31990.74
143.9560, 34580.61
145.1840, 34111.76
146.4120, 30747.28
147.6390, 25925.22
148.8670, 20831.62
150.0940, 15938.53
151.3210, 12391.98
152.5490, 9840.934
153.7750, 7714.377
155.0020, 5938.295
156.2290, 4790.685
157.4550, 3830.541
158.6810, 2985.861
159.9080, 2604.650
161.1340, 2590.711
162.3590, 2741.480
163.5850, 3463.010
164.8110, 3731.013
166.0360, 3993.018
167.2610, 4206.889
168.4860, 3724.598
169.7110, 3342.114
170.9360, 3306.412
172.1610, 2755.465
173.3850, 2362.250
174.6100, 1929.740
175.8340, 1769.893
177.0580, 1479.672
178.2820, 1338.064
179.5050, 1427.057
180.7290, 1262.633
181.9520, 1133.785
183.1760, 1262.500
184.3990, 1024.770
185.6220, 1102.584
186.8450, 1533.936
188.0670, 1520.686
189.2900, 1815.498
190.5120, 2177.438
191.7340, 2556.531
192.9560, 2624.846
194.1780, 2992.418
195.4000, 3084.270
196.6220, 3236.416
197.8430, 3124.867
199.0640, 2788.637
200.2860, 2529.727
201.5070, 2719.139
202.7270, 2992.875
203.9480, 2417.939
205.1690, 1334.328
206.3890, 5.041016
207.6090, 483.9199
208.8290, 774.5586
210.0490, 614.8711
211.2690, 668.8613
212.4890, 98.55664
213.7080, 62.78125
214.9280, 89.67773
216.1470, 118.9023
217.3660, 282.7402
218.5850, 374.0723
219.8030, 443.7129
221.0220, 610.6016
222.2400, 730.7441
223.4590, 707.1387
224.6770, 858.7871
225.8950, 884.6934
227.1120, 818.8516
228.3300, 934.2676
229.5480, 842.9355
230.7650, 767.8574
231.9820, 824.0312
233.1990, 667.4551
234.4160, 744.0254
235.6330, 560.2871
236.8490, 362.3906
238.0660, 444.7246
239.2820, 458.3242
240.4980, 314.1855
241.7140, 277.3125
242.9300, 285.6973
244.1460, 231.3379
245.3610, 441.2344
246.5770, 204.3809
247.7920, 513.7812
249.0070, 281.4316
250.2220, 520.3340
251.4370, 474.4902
252.6510, 417.9043
253.8660, 489.5762
255.0800, 737.5117
256.2940, 791.7129
257.5080, 803.1816
258.7220, 1048.920
259.9360, 1901.930
261.1490, 2427.400
262.3630, 1476.434
263.5760, 1078.543
264.7890, 928.3379
266.0020, 441.1074
267.2150, 605.3848
268.4270, 670.0996
269.6400, 427.1426
270.8520, 264.7969
272.0640, 45.00781
273.2760, 200.7344
274.4880, 293.9297
275.7000, 20.56055
276.9120, 140.5977
278.1230, 152.0176
279.3340, 230.8027
280.5450, 233.9375
281.7560, 383.4062
282.9670, 416.1680
284.1780, 573.2930
285.3880, 520.6328
286.5980, 528.2012
287.8090, 518.9980
289.0190, 764.0254
290.2290, 1082.281
291.4380, 1077.762
292.6480, 1336.467
293.8570, 1478.396
295.0670, 1649.545
296.2760, 2020.912
297.4850, 2356.496
298.6930, 2758.293
299.9020, 2957.301
301.1110, 3428.516
302.3190, 3873.939
303.5270, 4223.570
304.7350, 4802.402
305.9430, 5137.436
307.1510, 5728.406
308.3580, 6130.271
309.5660, 6414.109
310.7730, 6989.605
311.9800, 7311.771
313.1870, 7755.277
314.3940, 7527.156
315.6010, 7971.924
316.8070, 8381.602
318.0130, 8187.260
319.2200, 8460.059
320.4260, 8810.812
321.6310, 8821.391
322.8370, 9304.457
324.0430, 9388.160
325.2480, 9738.045
326.4540, 10099.14
327.6590, 10822.45
328.8640, 11227.95
330.0680, 11667.67
331.2730, 12401.59
332.4780, 12728.69
333.6820, 13413.97
334.8860, 14242.43
336.0900, 14744.06
337.2940, 15350.57
338.4980, 15800.87
339.7010, 16338.02
340.9050, 16913.34
342.1080, 17363.81
343.3110, 17983.45
344.5140, 18710.24
345.7170, 19373.19
346.9200, 20604.29
348.1220, 21281.55
349.3240, 22423.96
350.5270, 23378.51
351.7290, 24056.09
352.9310, 24620.46
354.1320, 25211.42
355.3340, 25497.26
356.5350, 25639.87
357.7370, 25640.54
358.9380, 25295.47
360.1390, 24776.20
361.3400, 24146.06
362.5400, 23085.05
363.7410, 22475.17
364.9410, 21243.42
366.1410, 20402.80
367.3410, 19371.31
368.5410, 18535.94
369.7410, 17286.70
370.9400, 16247.58
372.1400, 15345.58
373.3390, 14374.70
374.5380, 13520.95
375.7370, 12707.32
376.9360, 11794.84
378.1350, 11157.49
379.3330, 10289.29
380.5310, 9523.281
381.7300, 8827.455
382.9280, 8312.830
384.1260, 7796.443
385.3230, 7291.295
386.5210, 6836.375
387.7180, 6178.691
388.9160, 6010.303
390.1130, 5412.180
391.3100, 4939.340
392.5060, 4812.762
393.7030, 4279.412
394.9000, 4007.318
396.0960, 3975.518
397.2920, 3683.941
398.4880, 3247.617
399.6840, 2902.561
400.8800, 2668.760
402.0750, 2395.229
403.2710, 1956.859
404.4660, 1954.604
405.6610, 1778.512
406.8560, 1460.568
408.0510, 1487.770
409.2450, 1381.215
410.4400, 1099.949
411.6340, 979.9668
412.8280, 1097.254
414.0220, 920.7617
415.2160, 1135.484
416.4100, 756.3828
417.6030, 770.4414
418.7970, 615.6562
419.9900, 690.0020
421.1830, 811.4609
422.3760, 616.0312
423.5690, 834.7070
424.7610, 730.4844
425.9540, 870.3652
427.1460, 1018.498
428.3380, 1176.762
429.5300, 1297.920
430.7220, 1513.898
431.9140, 1642.504
433.1050, 1770.484
434.2970, 1963.432
435.4880, 1984.020
436.6790, 2100.691
437.8700, 2167.441
439.0610, 2164.271
440.2510, 2134.178
441.4420, 1925.158
442.6320, 1760.215
443.8220, 1603.343
445.0120, 1334.541
446.2020, 1124.812
447.3910, 851.1475
448.5810, 567.5508
449.7700, 313.0195
450.9600, 38.55371
452.1490, 34.15332
453.3370, 222.1797
454.5260, 279.5244
455.7150, 455.9004
456.9030, 349.3809
458.0910, 551.9258
459.2800, 398.6182
460.4670, 327.3965
461.6550, 325.2373
462.8430, 252.1396
464.0300, 120.0771
465.2180, 43.74512
466.4050, 105.4297
467.5920, 388.9170
468.7790, 344.6602
469.9650, 573.5820
471.1520, 752.3506
472.3380, 1109.644
473.5250, 1228.443
474.7110, 1433.361
475.8970, 1552.889
477.0820, 1736.352
478.2680, 2070.136
479.4540, 2302.916
480.6390, 2584.299
481.8240, 2844.819
483.0090, 3072.230
484.1940, 3283.249
485.3780, 3487.953
486.5630, 3576.685
487.7470, 3677.439
488.9320, 3722.217
490.1160, 3815.017
491.3000, 4164.839
492.4830, 4075.679
493.6670, 4240.539
494.8500, 4638.417
496.0340, 5065.394
497.2170, 5632.524
498.4000, 6015.777
499.5820, 7140.156
500.7650, 7919.561
501.9480, 9034.987
503.1300, 9855.421
504.3120, 10639.86
505.4940, 11614.31
506.6760, 12058.77
507.8580, 12642.23
509.0390, 12694.69
510.2210, 12392.16
511.4020, 12403.62
512.5830, 11874.09
513.7640, 11792.56
514.9450, 11431.20
516.1250, 10746.27
517.3060, 10301.42
518.4860, 10048.22
519.6660, 9478.950
520.8460, 9159.761
522.0260, 8731.282
523.2060, 8393.896
524.3850, 8095.794
525.5650, 7812.012
526.7440, 7732.654
527.9230, 7473.279
529.1020, 7146.238
530.2810, 7249.395
531.4590, 6958.812
532.6380, 6583.043
533.8160, 6791.379
534.9940, 6602.017
536.1720, 6641.014
537.3500, 6312.908
538.5270, 7585.037
539.7050, 6385.766
540.8820, 6497.529
542.0590, 8018.441
543.2360, 6485.165
544.4130, 6110.787
545.5900, 5768.754
546.7660, 5751.548
547.9430, 5776.246
549.1190, 5415.029
550.2950, 5070.658
551.4710, 4895.126
552.6470, 4470.857
553.8220, 4173.302
554.9980, 3896.474
556.1730, 3335.979
557.3480, 2908.111
558.5230, 2331.583
559.6980, 2071.671
560.8730, 1517.771
562.0470, 1250.686
563.2220, 984.3350
564.3960, 774.5664
565.5700, 582.5000
566.7440, 472.9502
567.9170, 389.9824
569.0910, 388.0322
570.2640, 499.9736
571.4380, 599.8174
572.6110, 672.5635
573.7840, 733.2100
574.9570, 885.7568
576.1290, 1088.203
577.3020, 1192.547
578.4740, 1249.789
579.6460, 1396.928
580.8180, 1179.966
581.9900, 1240.898
583.1620, 1293.726
584.3330, 1339.448
585.5040, 1258.064
586.6760, 1408.574
587.8470, 1235.978
589.0180, 1223.273
590.1880, 1319.459
591.3590, 1264.537
592.5290, 1089.506
593.7000, 1086.365
594.8700, 974.0850
596.0400, 936.2441
597.2090, 857.1748
598.3790, 878.8340
599.5490, 661.7041
600.7180, 640.7617
601.8870, 518.9375
603.0560, 521.0537
604.2250, 468.3066
605.3940, 305.8184
606.5620, 259.9180
607.7300, 303.4521
608.8990, 124.8721
610.0670, 100.1260
611.2350, 182.2051
612.4020, 38.13672
613.5700, 130.8613
614.7370, 257.4209
615.9050, 200.1211
617.0720, 242.1377
618.2390, 232.2900
619.4060, 235.3076
620.5720, 254.1875
621.7390, 435.9346
622.9050, 611.5703
624.0710, 593.0957
625.2370, 905.5078
626.4030, 1132.809
627.5690, 1368.000
628.7340, 1455.080
629.9000, 1568.049
631.0650, 1850.907
632.2300, 2118.656
633.3950, 2369.293
634.5600, 2388.820
635.7240, 2741.240
636.8890, 2507.548
638.0530, 2570.746
639.2170, 2503.833
640.3810, 2196.810
641.5450, 2203.676
642.7080, 1870.433
643.8720, 1727.079
645.0350, 1546.615
646.1980, 1491.043
647.3610, 1244.361
648.5240, 1053.571
649.6870, 971.6719
650.8490, 714.6660
652.0120, 677.5498
653.1740, 556.0771
654.3360, 457.4365
655.4980, 390.5566
656.6600, 301.0000
657.8210, 211.3203
658.9830, 134.0195
660.1440, 52.52051
661.3050, 10.65039
662.4660, 76.04297
663.6270, 99.69434
664.7870, 264.6113
665.9480, 272.8848
667.1080, 226.5156
668.2680, 281.4785
669.4280, 493.8018
670.5880, 404.5977
671.7480, 467.8164
672.9070, 392.4883
674.0670, 288.5771
675.2260, 377.0225
676.3850, 553.8711
677.5440, 274.2139
678.7030, 398.9023
679.8610, 467.0000
681.0200, 425.5420
682.1780, 490.5020
683.3360, 94.91309
684.4940, 115.5537
685.6520, 228.1084
686.8090, 484.7227
687.9670, 444.7080
689.1240, 245.4092
690.2810, 438.8340
691.4380, 416.1475
692.5950, 384.8936
693.7520, 242.4932
694.9080, 221.3906
696.0650, 109.5684
697.2210, 40.96875
698.3770, 56.54980
699.5330, 32.68164
700.6880, 226.7744
701.8440, 149.7646
702.9990, 273.6426
704.1550, 298.4248
705.3100, 225.1113
706.4650, 459.7002
707.6190, 422.0439
708.7740, 421.2627
709.9290, 861.5947
711.0830, 825.8428
712.2370, 832.0088
713.3910, 911.0928
714.5450, 948.0957
715.6980, 982.0195
716.8520, 1017.864
718.0050, 1023.631
719.1580, 1042.320
720.3110, 1331.934
721.4640, 1245.472
722.6170, 1362.934
723.7700, 1412.323
724.9220, 1440.641
726.0740, 1580.886
727.2260, 1825.060
728.3780, 1756.164
729.5300, 2049.199
730.6810, 2123.166
731.8330, 2242.065
732.9840, 2527.899
734.1350, 2711.707
735.2860, 2801.498
736.4370, 3123.309
737.5880, 3088.119
738.7380, 3318.974
739.8880, 3589.838
741.0390, 3753.702
742.1890, 4052.566
743.3380, 4311.418
744.4880, 4608.971
745.6380, 4923.671
746.7870, 5153.170
747.9360, 5397.229
749.0850, 5608.104
750.2340, 5776.184
751.3830, 5962.737
752.5310, 6060.932
753.6800, 6365.684
754.8280, 6276.977
755.9760, 6515.329
757.1240, 6560.354
758.2720, 6387.387
759.4190, 6450.823
760.5670, 6525.069
761.7140, 6353.306
762.8610, 6490.553
764.0080, 6650.824
765.1550, 6888.129
766.3020, 6877.465
767.4480, 7422.818
768.5950, 7497.217
769.7410, 7937.684
770.8870, 8419.188
772.0330, 8611.773
773.1780, 9054.382
774.3240, 9516.059
775.4690, 10206.77
776.6140, 10709.56
777.7590, 11539.44
778.9040, 11971.31
780.0490, 12466.25
781.1940, 13488.29
782.3380, 14128.37
783.4820, 14607.48
784.6260, 15622.65
785.7700, 16406.87
786.9140, 17032.11
788.0580, 17984.41
789.2010, 19134.76
790.3450, 20146.13
791.4880, 20997.55
792.6310, 21878.83
793.7730, 23065.72
794.9160, 24426.55
796.0590, 25677.78
797.2010, 26541.07
798.3430, 28211.29
799.4850, 29344.79
800.6270, 30459.23
801.7690, 32083.28
802.9100, 33020.05
804.0520, 34258.39
805.1930, 35675.73
806.3340, 36491.71
807.4750, 37615.65
808.6160, 38579.96
809.7560, 39376.62
810.8970, 40044.14
812.0370, 40699.36
813.1770, 41289.17
814.3170, 41598.08
815.4570, 41616.73
816.5960, 41609.75
817.7360, 41745.73
818.8750, 41772.52
820.0140, 41495.48
821.1530, 41230.52
822.2920, 40916.19
823.4310, 40533.02
824.5690, 39948.91
825.7070, 39252.70
826.8460, 39161.61
827.9840, 38306.66
829.1220, 37826.42
830.2590, 37147.44
831.3970, 36483.72
832.5340, 35781.62
833.6710, 35238.89
834.8080, 34931.77
835.9450, 34177.03
837.0820, 33436.23
838.2190, 33250.60
839.3550, 32266.21
840.4910, 31864.20
841.6270, 31464.46
842.7630, 30611.29
843.8990, 30323.30
845.0350, 29995.36
846.1700, 29547.50
847.3060, 29121.71
848.4410, 28824.98
849.5760, 28241.33
850.7100, 27968.75
851.8450, 27724.23
852.9800, 27316.79
854.1140, 27426.42
855.2480, 27098.13
856.3820, 27033.90
857.5160, 26707.75
858.6500, 26396.67
859.7830, 26204.67
860.9170, 25807.74
862.0500, 25761.89
863.1830, 25313.11
864.3160, 24983.41
865.4480, 24684.79
866.5810, 24544.25
867.7130, 23934.78
868.8460, 24055.41
869.9780, 23636.11
871.1100, 22946.89
872.2410, 22777.76
873.3730, 22281.71
874.5050, 21966.74
875.6360, 21629.84
876.7670, 20721.03
877.8980, 20156.29
879.0290, 19557.63
880.1590, 19101.06
881.2900, 18120.56
882.4200, 17660.16
883.5500, 16843.83
884.6800, 16369.62
885.8100, 15564.52
886.9400, 14916.53
888.0690, 14130.66
889.1990, 13117.91
890.3280, 12390.25
891.4570, 11611.68
892.5860, 10926.67
893.7140, 10344.15
894.8430, 9667.822
895.9710, 9061.306
897.1000, 8635.230
898.2280, 8224.990
899.3560, 7662.095
900.4830, 7185.211
901.6110, 6946.307
902.7380, 6763.090
903.8660, 6312.121
904.9930, 5911.507
906.1200, 5755.361
907.2460, 5524.643
908.3730, 5409.865
909.5000, 4993.935
910.6260, 4965.180
911.7520, 4613.502
912.8780, 4584.363
914.0040, 4410.564
915.1290, 4140.440
916.2550, 4205.781
917.3800, 4159.645
918.5050, 3937.234
919.6300, 4062.492
920.7550, 4000.999
921.8800, 3915.162
923.0040, 3894.375
924.1290, 4093.729
925.2530, 4021.486
926.3770, 3954.275
927.5010, 3800.464
928.6250, 3918.017
929.7480, 3945.363
930.8720, 3842.541
931.9950, 3624.794
933.1180, 3679.371
934.2410, 3530.179
935.3640, 3506.631
936.4860, 3300.050
937.6090, 3227.925
938.7310, 3243.527
939.8530, 3064.641
940.9750, 2918.023
942.0970, 2824.632
943.2180, 2843.406
944.3400, 2779.187
945.4610, 2695.895
946.5820, 2459.800
947.7030, 2395.877
948.8240, 2441.146
949.9450, 2516.652
951.0650, 2449.322
952.1860, 2365.186
953.3060, 2352.260
954.4260, 2419.535
955.5460, 2374.025
956.6650, 2570.637
957.7850, 2585.321
958.9040, 2560.055
960.0230, 2429.824
961.1420, 2608.636
962.2610, 2757.588
963.3800, 2787.994
964.4990, 2690.354
965.6170, 2854.886
966.7350, 2936.554
967.8530, 3090.600
968.9710, 2957.602
970.0890, 2904.598
971.2070, 3059.685
972.3240, 2951.863
973.4410, 3215.094
974.5580, 2922.754
975.6750, 3155.284
976.7920, 3106.078
977.9090, 3262.502
979.0250, 3254.000
980.1410, 3239.556
981.2580, 3330.093
982.3740, 3177.680
983.4890, 3317.289
984.6050, 3374.928
985.7200, 3522.588
986.8360, 3503.268
987.9510, 3489.345
989.0660, 3531.178
990.1810, 3399.014
991.2950, 3287.775
992.4100, 3047.686
993.5240, 3031.483
994.6390, 2554.568
995.7530, 2454.098
996.8660, 2076.326
997.9800, 1695.486
999.0940, 1595.345
1000.207, 1358.907
1001.320, 1498.745
1002.433, 1454.686
1003.546, 1823.756
1004.659, 2179.316
1005.772, 2200.199
1006.884, 2484.105
1007.996, 2900.654
1009.108, 3048.834
1010.220, 3351.506
1011.332, 3375.133
1012.444, 3481.617
1013.555, 3340.297
1014.666, 2944.874
1015.777, 2760.391
1016.888, 2290.061
1017.999, 1778.851
1019.110, 1389.674
1020.220, 1029.272
1021.331, 887.7646
1022.441, 494.0879
1023.551, 297.9658
1024.661, 223.3379
1025.770, 15.13574
1026.880, 61.48340
1027.989, 61.16895
1029.098, 234.7236
1030.207, 140.0537
1031.316, 194.9814
1032.425, 226.3848
1033.533, 268.3721
1034.642, 262.2197
1035.750, 187.6846
1036.858, 281.5098
1037.966, 377.1221
1039.073, 235.6973
1040.181, 396.4531
1041.288, 183.0752
1042.396, 334.7344
1043.503, 204.9707
1044.610, 376.4814
1045.716, 364.2383
1046.823, 46.23828
1047.929, 307.2129
1049.036, 389.6172
1050.142, 234.1758
1051.248, 97.91992
1052.353, 247.6826
1053.459, 199.5898
1054.564, 126.2314
1055.670, 202.5986
1056.775, 137.1465
1057.880, 139.6680
1058.985, 120.3789
1060.089, 138.8750
1061.194, 125.0186
1062.298, 54.31152
1063.402, 127.5742
1064.506, 35.86426
1065.610, 14.70801
1066.713, 89.79004
1067.817, 202.1260
1068.920, 0.9443360
1070.023, 72.70117
1071.126, 283.9297
1072.229, 208.6094
1073.332, 187.0234
1074.435, 179.2393
1075.537, 198.6426
1076.639, 255.2764
1077.741, 339.1689
1078.843, 424.0430
1079.945, 588.4072
1081.046, 712.4150
1082.148, 886.3945
1083.249, 1319.174
1084.350, 1969.758
1085.451, 3143.679
1086.551, 3360.514
1087.652, 2680.940
1088.752, 1633.918
1089.853, 1278.165
1090.953, 982.4307
1092.053, 629.3438
1093.152, 569.2578
1094.252, 506.0361
1095.351, 360.0576
1096.451, 563.0439
1097.550, 478.8506
1098.649, 490.0547
1099.748, 375.0859
1100.846, 412.5811
1101.945, 585.6631
1103.043, 471.6768
1104.141, 562.5791
1105.239, 590.2021
1106.337, 384.8535
1107.434, 434.6211
1108.532, 401.1748
1109.629, 515.3184
1110.726, 494.8525
1111.823, 505.0127
1112.920, 641.9170
1114.017, 564.9199
1115.113, 616.5801
1116.210, 647.4385
1117.306, 585.8242
1118.402, 561.3818
1119.498, 457.7041
1120.593, 524.1338
1121.689, 531.6260
1122.784, 623.7568
1123.879, 532.5586
1124.974, 689.3682
1126.069, 503.8838
1127.164, 404.2734
1128.259, 481.8643
1129.353, 504.4199
1130.447, 654.4795
1131.541, 418.7773
1132.635, 370.6533
1133.729, 294.8252
1134.822, 550.4912
1135.916, 274.0654
1137.009, 378.8730
1138.102, 633.2334
1139.195, 450.5029
1140.288, 541.6738
1141.380, 426.7520
1142.473, 439.7373
1143.565, 475.6191
1144.657, 431.4023
1145.749, 457.0859
1146.841, 472.6729
1147.932, 437.2393
1149.024, 413.6582
1150.115, 410.8340
1151.206, 373.0195
1152.297, 403.0996
1153.388, 520.0762
1154.479, 406.9551
1155.569, 506.7305
1156.659, 468.4072
1157.750, 433.5176
1158.839, 505.1367
1159.929, 463.5547
1161.019, 396.1582
1162.108, 489.2939
1163.198, 567.5811
1164.287, 426.5039
1165.376, 581.3965
1166.465, 439.2920
1167.553, 487.4834
1168.642, 380.4092
1169.730, 535.9609
1170.818, 558.0273
1171.906, 416.6504
1172.994, 383.3154
1174.082, 450.1152
1175.170, 501.7246
1176.257, 512.2373
1177.344, 444.1963
1178.431, 397.8008
1179.518, 201.7109
1180.605, 380.1367
1181.691, 557.0215
1182.778, 336.1670
1183.864, 307.6250
1184.950, 189.8184
1186.036, 473.3340
1187.122, 558.7871
1188.207, 256.0791
1189.292, 254.9502
1190.378, 159.7725
1191.463, 270.1768
1192.548, 276.2021
1193.632, 215.4199
1194.717, 250.8867
1195.801, 223.2910
1196.886, 178.0869
1197.970, 204.8672
1199.054, 78.04395
1200.137, 65.30664
1201.221, 28.17383
1202.305, 56.41504
1203.388, 107.2510
1204.471, 141.9102
1205.554, 191.4521
1206.637, 2.992188
1207.719, 219.6543
1208.802, 170.5449
1209.884, 45.37305
1210.966, 111.1348
1212.048, 103.8320
1213.130, 137.4658
1214.212, 169.0371
1215.293, 73.54688
1216.374, 78.99219
1217.456, 160.3750
1218.536, 6.303711
1219.617, 12.06738
1220.698, 150.0791
1221.778, 268.1660
1222.859, 24.19531
1223.939, 256.1562
1225.019, 63.94043
1226.099, 15.61230
1227.178, 155.3320
1228.258, 41.99121
1229.337, 64.61523
1230.417, 234.9287
1231.496, 77.67480
1232.574, 12.28320
1233.653, 107.9736
1234.732, 25.79688
1235.810, 37.29297
1236.888, 32.06836
1237.966, 126.3389
1239.044, 95.06250
1240.122, 14.81348
1241.199, 94.54102
1242.277, 87.98340
1243.354, 80.50098
1244.431, 83.90430
1245.508, 1.744141
1246.585, 124.5400
1247.661, 60.77344
1248.738, 94.95215
1249.814, 45.70117
1250.890, 10.66211
1251.966, 5.417969
1253.042, 2.462891
1254.117, 102.3057
1255.193, 149.1514
1256.268, 155.6768
1257.343, 82.72461
1258.418, 67.03809
1259.493, 165.3828
1260.567, 80.99512
1261.642, 173.8672
1262.716, 60.42871
1263.790, 282.8496
1264.864, 223.1045
1265.938, 62.83301
1267.011, 262.2012
1268.085, 192.5088
1269.158, 178.1348
1270.231, 201.0918
1271.304, 132.5195
1272.377, 320.9521
1273.450, 264.4883
1274.522, 289.7920
1275.594, 358.1562
1276.666, 358.5410
1277.738, 362.7324
1278.810, 418.7617
1279.882, 192.7168
1280.953, 285.2637
1282.025, 156.0537
1283.096, 199.3779
1284.167, 350.1055
1285.238, 300.2959
1286.308, 371.2861
1287.379, 461.1035
1288.449, 354.2002
1289.519, 332.1074
1290.589, 333.6875
1291.659, 406.7871
1292.729, 332.2656
1293.798, 265.2227
1294.868, 504.9219
1295.937, 604.1211
1297.006, 545.5811
1298.075, 589.7090
1299.143, 593.8574
1300.212, 716.6475
1301.280, 535.3564
1302.348, 581.9951
1303.416, 443.0654
1304.484, 408.2969
1305.552, 405.6143
1306.620, 473.0176
1307.687, 747.3193
1308.754, 736.9043
1309.821, 671.4756
1310.888, 519.1055
1311.955, 626.6611
1313.021, 699.2324
1314.088, 751.4199
1315.154, 624.2295
1316.220, 700.0938
1317.286, 706.8213
1318.352, 657.6260
1319.417, 800.1055
1320.483, 709.1162
1321.548, 770.1602
1322.613, 689.0771
1323.678, 592.1777
1324.743, 651.2148
1325.807, 705.0918
1326.872, 725.0684
1327.936, 642.4990
1329.000, 605.9043
1330.064, 647.7676
1331.128, 750.1172
1332.191, 722.6660
1333.255, 726.3467
1334.318, 675.2246
1335.381, 677.0264
1336.444, 652.8877
1337.507, 687.4639
1338.569, 677.9102
1339.632, 673.1445
1340.694, 688.5879
1341.756, 690.1621
1342.818, 696.8594
1343.880, 715.9189
1344.941, 668.4561
1346.003, 763.0967
1347.064, 647.5205
1348.125, 678.1953
1349.186, 746.7969
1350.247, 634.6592
1351.308, 733.4473
1352.368, 600.2979
1353.428, 696.8301
1354.489, 582.3242
1355.549, 595.9238
1356.608, 612.1797
1357.668, 595.3975
1358.727, 591.1543
1359.787, 636.0840
1360.846, 540.0840
1361.905, 571.1172
1362.964, 536.6709
1364.022, 633.4756
1365.081, 571.4053
1366.139, 643.0557
1367.197, 628.9521
1368.255, 612.0566
1369.313, 704.2705
1370.371, 635.6582
1371.428, 628.8662
1372.486, 643.2578
1373.543, 461.5293
1374.600, 482.1143
1375.657, 521.4453
1376.713, 558.9316
1377.770, 595.2275
1378.826, 439.3799
1379.882, 580.8115
1380.938, 442.4912
1381.994, 589.0820
1383.050, 500.8838
1384.106, 581.7305
1385.161, 587.2910
1386.216, 411.8047
1387.271, 454.7324
1388.326, 435.3398
1389.381, 534.2891
1390.435, 437.8555
1391.490, 474.8369
1392.544, 495.8301
1393.598, 425.4980
1394.652, 391.5303
1395.705, 319.5742
1396.759, 287.6338
1397.812, 419.7012
1398.866, 443.7793
1399.919, 437.6406
1400.972, 360.9980
1402.024, 384.1328
1403.077, 320.2109
1404.129, 212.3057
1405.181, 361.4170
1406.233, 288.5459
1407.285, 295.6855
1408.337, 344.3145
1409.389, 312.0020
1410.440, 319.2842
1411.491, 228.4883
1412.542, 68.70801
1413.593, 232.7988
1414.644, 107.0576
1415.695, 139.3350
1416.745, 248.6309
1417.795, 121.9482
1418.845, 202.2832
1419.895, 111.6367
1420.945, 74.00879
1421.995, 155.3965
1423.044, 54.80273
1424.093, 155.4277
1425.142, 88.87012
1426.191, 125.3291
1427.240, 269.8086
1428.289, 131.3086
1429.337, 60.82812
1430.385, 259.3672
1431.433, 180.8975
1432.481, 42.44727
1433.529, 182.0146
1434.577, 265.6025
1435.624, 218.2900
1436.672, 224.0674
1437.719, 271.6533
1438.766, 202.2959
1439.812, 283.6338
1440.859, 227.7510
1441.905, 241.3857
1442.952, 203.0156
1443.998, 295.2598
1445.044, 309.2578
1446.090, 187.2236
1447.135, 194.4229
1448.181, 339.5020
1449.226, 251.5742
1450.271, 180.6426
1451.316, 349.7139
1452.361, 238.7979
1453.405, 402.8828
1454.450, 334.9795
1455.494, 265.0879
1456.538, 264.2012
1457.582, 221.2393
1458.626, 177.4414
1459.670, 232.5713
1460.713, 221.7441
1461.757, 314.9365
1462.800, 303.1406
1463.843, 305.4219
1464.886, 324.3691
1465.928, 270.2178
1466.971, 322.2773
1468.013, 197.7510
1469.055, 212.2822
1470.097, 241.9424
1471.139, 80.66504
1472.181, 28.51660
1473.222, 189.3682
1474.263, 1.714844
1475.305, 29.22949
1476.346, 48.21387
1477.386, 94.24609
1478.427, 6.299805
1479.468, 9.379883
1480.508, 1.514648
1481.548, 143.3887
1482.588, 19.76172
1483.628, 31.93457
1484.668, 119.1299
1485.707, 48.34375
1486.747, 74.57910
1487.786, 49.83398
1488.825, 95.11133
1489.864, 165.4102
1490.902, 29.26953
1491.941, 25.92773
1492.979, 11.57031
1494.017, 127.8027
1495.055, 142.1982
1496.093, 63.61328
1497.131, 55.04980
1498.168, 77.49707
1499.206, 86.95605
1500.243, 77.43652
1501.280, 36.93359
1502.317, 112.4502
1503.354, 96.98730
1504.390, 26.54199
1505.426, 173.0996
1506.463, 74.64453
1507.499, 269.2051
1508.535, 72.79590
1509.570, 181.4385
1510.606, 173.1318
1511.641, 213.8721
1512.676, 166.6621
1513.711, 310.2637
1514.746, 250.2686
1515.781, 326.8418
1516.816, 181.3633
1517.850, 388.4326
1518.884, 312.5645
1519.918, 222.7549
1520.952, 382.0020
1521.986, 301.2812
1523.019, 373.5615
1524.053, 143.9316
1525.086, 240.3486
1526.119, 142.8027
1527.152, 163.0723
1528.185, 205.2139
1529.217, 154.3867
1530.250, 289.5869
1531.282, 140.9902
1532.314, 241.0000
1533.346, 197.1758
1534.377, 36.37695
1535.409, 120.6016
1536.440, 198.8496
1537.472, 16.87891
1538.503, 198.4160
1539.534, 163.7383
1540.564, 150.0840
1541.595, 218.4531
1542.625, 114.8340
1543.656, 321.2246
1544.686, 163.6152
1545.716, 215.9941
1546.745, 98.37695
1547.775, 12.24414
1548.804, 248.0918
1549.834, 211.2480
1550.863, 199.4590
1551.892, 289.9121
1552.920, 364.8613
1553.949, 477.5527
1554.977, 629.8262
1556.006, 560.3418
1557.034, 228.9629
1558.062, 286.7051
1559.089, 109.5996
1560.117, 75.02344
1561.144, 237.8008
1562.172, 8.673828
1563.199, 25.88672
1564.226, 47.46289
1565.252, 226.6934
1566.279, 170.8711
1567.305, 282.6602
1568.332, 296.3848
1569.358, 4.771484
1570.384, 0.0000000E+00
##END=



