##NAMES=Anglesite
##RRUFFID=R050052
##IDEAL CHEMISTRY=Pb^2+^S^6+^O_4_
##LOCALITY=Touissite, Oujela, Morocco
##OWNER=RRUFF
##SOURCE=Eugene Schlepp
##DESCRIPTION=Yellow prismatic single crystal
##STATUS=The identification of this mineral has been confirmed by X-ray diffraction and chemical analysis
##URL=rruff.info/R050052
##MEASURED CHEMISTRY=Pb_1.00_S_1.00_O_4_
##PIN_ID=L00472
##ORIENTATION=Laser parallel to b* (0 1 0). Fiducial mark perpendicular to laser is parallel to -c [0 0 -1]
101.036, 0.000
102.428, 86.455
103.820, 166.067
105.212, 20.584
106.604, 111.209
107.995, 9.463
109.387, 68.047
110.777, 45.155
112.168, 44.493
113.559, 63.857
114.949, 23.917
116.339, 172.018
117.729, 58.536
119.119, 245.548
120.508, 249.020
121.897, 349.914
123.286, 469.214
124.675, 495.880
126.063, 708.863
127.452, 799.114
128.840, 1099.564
130.228, 1137.154
131.615, 1388.852
133.003, 1622.658
134.390, 1637.583
135.777, 1910.574
137.164, 1781.776
138.550, 1909.320
139.937, 1719.901
141.323, 1718.678
142.709, 1734.850
144.094, 1477.131
145.480, 1669.540
146.865, 1539.089
148.250, 1709.664
149.635, 1709.244
151.019, 1829.899
152.403, 1903.518
153.788, 1892.946
155.171, 1862.527
156.555, 1684.313
157.939, 1633.280
159.322, 1362.039
160.705, 1128.587
162.088, 1085.836
163.470, 823.653
164.853, 799.528
166.235, 606.303
167.617, 608.747
168.998, 473.320
170.380, 407.710
171.761, 420.070
173.142, 322.422
174.523, 430.540
175.904, 288.776
177.284, 379.502
178.664, 280.676
180.044, 309.352
181.424, 354.849
182.803, 212.521
184.183, 392.090
185.562, 250.808
186.940, 331.857
188.319, 317.532
189.698, 287.870
191.076, 353.450
192.454, 228.267
193.831, 385.286
195.209, 242.013
196.586, 297.713
197.963, 255.812
199.340, 257.841
200.717, 345.027
202.093, 212.460
203.470, 346.940
204.846, 186.481
206.221, 315.652
207.597, 272.166
208.972, 215.575
210.347, 364.258
211.722, 188.266
213.097, 357.964
214.472, 224.458
215.846, 284.126
217.220, 313.785
218.594, 178.033
219.967, 285.685
221.341, 80.663
222.714, 195.684
224.087, 105.391
225.460, 155.479
226.832, 171.200
228.204, 75.349
229.577, 180.531
230.948, 32.295
232.320, 147.614
233.692, 82.903
235.063, 55.018
236.434, 165.887
237.805, 34.050
239.175, 113.362
240.545, 13.529
241.916, 97.428
243.286, 24.220
244.655, 4.504
246.025, 130.946
247.394, 31.319
248.763, 105.298
250.132, 32.969
251.501, 19.530
252.869, 82.614
254.237, 0.057
255.605, 74.271
256.973, 11.777
258.340, 54.170
259.708, 11.958
261.075, 41.874
262.442, 57.660
263.808, 50.602
265.175, 96.089
266.541, 56.996
267.907, 41.005
269.273, 15.051
270.639, 29.899
272.004, 62.147
273.369, 23.871
274.734, 109.112
276.099, 21.899
277.463, 26.079
278.828, 44.050
280.192, 29.729
281.556, 95.206
282.919, 38.875
284.283, 103.010
285.646, 34.126
287.009, 34.702
288.372, 77.503
289.734, 35.723
291.097, 130.008
292.459, 38.290
293.821, 87.366
295.183, 49.991
296.544, 16.418
297.905, 56.131
299.266, 68.354
300.627, 112.103
301.988, 19.475
303.348, 95.900
304.709, 74.239
306.069, 11.540
307.428, 111.797
308.788, 22.985
310.147, 162.180
311.507, 26.305
312.865, 50.387
314.224, 113.425
315.583, 3.578
316.941, 172.370
318.299, 0.722
319.657, 99.142
321.015, 104.967
322.372, 33.248
323.729, 149.483
325.086, 25.178
326.443, 146.829
327.800, 30.443
329.156, 94.015
330.512, 111.710
331.868, 23.202
333.224, 192.652
334.579, 21.157
335.935, 134.519
337.290, 87.825
338.645, 42.065
339.999, 149.270
341.354, 25.437
342.708, 188.555
344.062, 55.855
345.416, 154.870
346.769, 139.020
348.123, 29.899
349.476, 185.740
350.829, 34.620
352.182, 176.358
353.534, 96.471
354.887, 80.108
356.239, 190.699
357.591, 23.345
358.942, 189.859
360.294, 106.596
361.645, 111.013
362.996, 139.392
364.347, 74.834
365.698, 168.112
367.048, 70.517
368.398, 166.748
369.748, 110.995
371.098, 53.169
372.448, 170.311
373.797, 34.578
375.146, 166.674
376.495, 59.732
377.844, 133.768
379.192, 167.783
380.540, 65.811
381.889, 185.784
383.236, 73.795
384.584, 193.395
385.932, 195.316
387.279, 131.086
388.626, 236.943
389.973, 60.818
391.319, 226.301
392.666, 76.145
394.012, 169.156
395.358, 172.916
396.704, 55.682
398.049, 231.946
399.394, 68.734
400.740, 174.929
402.084, 194.490
403.429, 75.168
404.774, 287.632
406.118, 114.428
407.462, 236.566
408.806, 181.143
410.150, 172.187
411.493, 270.632
412.836, 146.552
414.179, 312.225
415.522, 192.542
416.865, 267.482
418.207, 325.743
419.549, 207.926
420.891, 399.021
422.233, 237.180
423.575, 439.159
424.916, 397.264
426.257, 444.018
427.598, 552.317
428.939, 484.665
430.279, 785.581
431.619, 825.084
432.959, 1263.073
434.299, 1835.102
435.639, 2490.433
436.978, 3779.645
438.318, 4545.063
439.657, 5447.644
440.996, 5150.420
442.334, 4045.324
443.673, 3173.383
445.011, 2024.669
446.349, 1621.717
447.687, 1152.261
449.024, 857.815
450.361, 847.697
451.699, 564.075
453.036, 684.135
454.372, 421.309
455.709, 416.150
457.045, 417.724
458.381, 239.208
459.717, 348.792
461.053, 200.977
462.388, 296.824
463.724, 268.039
465.059, 203.781
466.394, 379.489
467.728, 133.358
469.063, 304.115
470.397, 276.023
471.731, 201.957
473.065, 354.215
474.398, 183.556
475.732, 341.242
477.065, 199.299
478.398, 238.199
479.731, 286.117
481.063, 134.681
482.396, 298.281
483.728, 120.413
485.060, 220.144
486.391, 174.223
487.723, 125.930
489.054, 237.062
490.385, 31.520
491.716, 212.046
493.047, 94.021
494.377, 46.811
495.708, 223.598
497.038, 74.165
498.368, 203.536
499.697, 94.492
501.027, 117.095
502.356, 249.936
503.685, 9.651
505.014, 241.764
506.342, 15.469
507.671, 174.982
508.999, 142.813
510.327, 40.482
511.655, 238.376
512.982, 11.807
514.310, 173.493
515.637, 122.292
516.964, 35.925
518.291, 218.656
519.617, 1.605
520.944, 185.708
522.270, 92.632
523.596, 28.096
524.921, 170.294
526.247, 22.074
527.572, 131.239
528.897, 45.891
530.222, 89.230
531.547, 150.281
532.871, 20.052
534.196, 207.938
535.520, 58.723
536.844, 104.828
538.167, 143.256
539.491, 44.999
540.814, 203.131
542.137, 40.433
543.460, 148.604
544.783, 133.178
546.105, 26.853
547.427, 223.247
548.749, 76.555
550.071, 141.645
551.393, 67.182
552.714, 59.405
554.035, 215.930
555.356, 3.845
556.677, 173.213
557.998, 93.716
559.318, 10.851
560.638, 190.341
561.958, 16.849
563.278, 200.960
564.597, 101.432
565.917, 91.866
567.236, 215.333
568.555, 22.793
569.874, 221.260
571.192, 112.719
572.511, 129.269
573.829, 216.736
575.147, 41.459
576.464, 245.925
577.782, 46.383
579.099, 146.166
580.416, 144.622
581.733, 63.248
583.050, 190.700
584.366, 64.148
585.683, 226.481
586.999, 265.934
588.315, 149.524
589.630, 303.986
590.946, 152.443
592.261, 293.421
593.576, 357.879
594.891, 263.919
596.206, 524.375
597.520, 389.838
598.834, 703.510
600.148, 758.963
601.462, 872.423
602.776, 1369.875
604.089, 1404.338
605.402, 1861.577
606.715, 1799.042
608.028, 1572.501
609.341, 1478.955
610.653, 922.418
611.965, 838.873
613.277, 592.339
614.589, 419.798
615.901, 519.253
617.212, 230.712
618.523, 427.251
619.834, 243.722
621.145, 219.188
622.456, 290.725
623.766, 28.189
625.076, 287.072
626.386, 79.528
627.696, 108.978
629.006, 202.684
630.315, 4.133
631.624, 150.993
632.933, 51.433
634.242, 128.867
635.551, 115.470
636.859, 20.102
638.167, 213.516
639.475, 38.932
640.783, 141.342
642.090, 121.113
643.398, 7.525
644.705, 202.900
646.012, 12.301
647.318, 141.697
648.625, 161.931
649.931, 19.316
651.237, 249.696
652.543, 53.974
653.849, 142.344
655.155, 189.350
656.460, 18.293
657.765, 240.051
659.070, 44.389
660.375, 103.723
661.679, 169.812
662.984, 24.134
664.288, 259.904
665.592, 60.223
666.895, 167.527
668.199, 175.321
669.502, 15.614
670.805, 238.475
672.108, 24.247
673.411, 123.011
674.713, 222.837
676.016, 32.084
677.318, 272.052
678.620, 2.822
679.921, 143.398
681.223, 137.108
682.524, 18.315
683.825, 173.365
685.126, 6.969
686.427, 171.157
687.727, 185.250
689.028, 27.410
690.328, 227.412
691.628, 24.527
692.927, 189.662
694.227, 132.087
695.526, 31.233
696.825, 229.310
698.124, 5.484
699.423, 206.521
700.721, 192.603
702.020, 50.676
703.318, 283.635
704.616, 11.309
705.913, 119.722
707.211, 99.747
708.508, 32.237
709.805, 188.745
711.102, 26.201
712.399, 69.460
713.695, 139.395
714.992, 15.424
716.288, 224.290
717.584, 66.183
718.879, 163.909
720.175, 174.786
721.470, 17.345
722.765, 306.497
724.060, 93.332
725.355, 165.024
726.649, 222.841
727.944, 44.245
729.238, 229.044
730.532, 21.835
731.825, 94.709
733.119, 234.480
734.412, 20.307
735.705, 246.058
736.998, 29.801
738.291, 142.533
739.584, 197.258
740.876, 5.973
742.168, 255.672
743.460, 37.363
744.752, 154.044
746.043, 195.717
747.334, 13.380
748.626, 276.031
749.916, 11.673
751.207, 83.301
752.498, 227.921
753.788, 0.468
755.078, 275.123
756.368, 111.707
757.658, 150.281
758.947, 226.848
760.237, 6.406
761.526, 247.952
762.815, 145.490
764.104, 139.020
765.392, 316.542
766.680, 119.055
767.969, 289.560
769.257, 138.057
770.544, 150.546
771.832, 285.027
773.119, 32.499
774.406, 253.963
775.693, 131.418
776.980, 34.866
778.267, 299.304
779.553, 11.661
780.839, 199.079
782.125, 90.489
783.411, 15.892
784.697, 249.283
785.982, 6.506
787.267, 238.857
788.552, 130.212
789.837, 17.559
791.122, 268.897
792.406, 15.519
793.690, 144.839
794.974, 176.124
796.258, 10.430
797.542, 203.724
798.825, 49.147
800.108, 143.098
801.391, 162.184
802.674, 18.585
803.957, 201.622
805.239, 56.694
806.522, 107.887
807.804, 173.073
809.085, 29.747
810.367, 210.403
811.649, 41.626
812.930, 85.762
814.211, 173.865
815.492, 20.978
816.772, 195.155
818.053, 0.165
819.333, 20.280
820.613, 209.389
821.893, 63.508
823.173, 176.550
824.452, 87.433
825.732, 22.481
827.011, 206.948
828.290, 51.015
829.568, 152.985
830.847, 128.870
832.125, 103.139
833.403, 154.216
834.681, 35.863
835.959, 61.030
837.236, 116.720
838.514, 66.396
839.791, 224.373
841.068, 42.791
842.345, 545.015
843.621, 222.632
844.898, 60.570
846.174, 173.980
847.450, 0.265
848.726, 6.482
850.001, 137.046
851.277, 64.215
852.552, 194.773
853.827, 52.470
855.102, 68.163
856.376, 237.746
857.651, 12.434
858.925, 213.363
860.199, 133.045
861.473, 10.725
862.746, 209.323
864.020, 0.998
865.293, 166.962
866.566, 208.616
867.839, 4.715
869.112, 276.906
870.384, 63.571
871.656, 126.208
872.928, 234.871
874.200, 26.532
875.472, 268.028
876.744, 66.688
878.015, 58.347
879.286, 218.007
880.557, 71.334
881.828, 114.176
883.098, 22.803
884.369, 28.833
885.639, 208.783
886.909, 2.600
888.178, 250.694
889.448, 148.311
890.717, 75.760
891.987, 318.379
893.256, 38.000
894.524, 234.748
895.793, 225.371
897.061, 88.872
898.330, 301.499
899.598, 108.127
900.865, 164.244
902.133, 248.876
903.401, 88.936
904.668, 302.572
905.935, 127.211
907.202, 124.637
908.468, 325.281
909.735, 54.927
911.001, 220.577
912.267, 237.229
913.533, 108.986
914.799, 324.645
916.064, 119.307
917.330, 251.972
918.595, 283.641
919.860, 151.313
921.124, 346.990
922.389, 143.670
923.653, 272.354
924.918, 350.043
926.182, 178.650
927.445, 383.347
928.709, 275.048
929.972, 252.687
931.236, 503.398
932.499, 225.689
933.761, 521.409
935.024, 348.134
936.286, 261.615
937.549, 533.351
938.811, 316.678
940.073, 512.425
941.334, 476.179
942.596, 286.771
943.857, 497.537
945.118, 379.117
946.379, 522.899
947.640, 797.713
948.900, 587.181
950.161, 941.008
951.421, 927.875
952.681, 959.716
953.940, 1242.576
955.200, 1093.432
956.459, 1438.306
957.719, 1496.189
958.978, 1605.079
960.236, 2138.977
961.495, 2122.240
962.753, 2640.154
964.012, 3118.091
965.270, 3442.036
966.527, 4619.454
967.785, 5391.424
969.043, 6524.396
970.300, 8973.722
971.557, 11069.700
972.814, 15245.698
974.071, 20997.123
975.327, 28303.135
976.583, 38979.164
977.840, 46335.199
979.095, 50291.258
980.351, 48143.641
981.607, 39229.703
982.862, 30815.789
984.117, 23564.990
985.372, 18041.635
986.627, 13644.587
987.882, 10040.713
989.136, 8236.850
990.390, 6858.524
991.644, 5462.707
992.898, 4954.974
994.152, 3909.177
995.405, 3525.404
996.659, 3298.672
997.912, 2557.924
999.165, 2723.890
1000.417, 2313.140
1001.670, 2060.443
1002.922, 2157.688
1004.174, 1569.019
1005.426, 1660.368
1006.678, 1487.730
1007.930, 1191.116
1009.181, 1454.514
1010.432, 1023.932
1011.683, 1108.375
1012.934, 1116.831
1014.185, 812.312
1015.435, 1118.735
1016.685, 747.262
1017.935, 766.802
1019.185, 906.102
1020.435, 522.678
1021.684, 767.268
1022.934, 629.870
1024.183, 503.486
1025.432, 714.126
1026.680, 415.811
1027.929, 528.487
1029.177, 586.178
1030.425, 250.884
1031.673, 588.014
1032.921, 361.754
1034.169, 320.507
1035.416, 505.157
1036.663, 158.961
1037.911, 370.692
1039.157, 337.550
1040.404, 215.423
1041.650, 471.313
1042.897, 220.646
1044.143, 287.566
1045.389, 291.519
1046.634, 112.503
1047.880, 346.485
1049.125, 172.490
1050.371, 140.508
1051.615, 434.543
1052.860, 137.592
1054.105, 377.657
1055.349, 426.736
1056.593, 150.830
1057.837, 310.943
1059.081, 92.071
1060.325, 55.212
1061.568, 206.368
1062.812, 51.435
1064.055, 276.772
1065.298, 286.996
1066.540, 164.233
1067.783, 419.484
1069.025, 214.749
1070.267, 298.028
1071.509, 384.321
1072.751, 39.635
1073.993, 442.962
1075.234, 240.303
1076.475, 137.659
1077.716, 429.028
1078.957, 48.410
1080.198, 248.807
1081.438, 273.218
1082.679, 38.664
1083.919, 397.124
1085.159, 101.598
1086.398, 233.110
1087.638, 436.636
1088.877, 69.182
1090.116, 364.742
1091.355, 232.316
1092.594, 143.036
1093.833, 424.638
1095.071, 188.255
1096.309, 215.604
1097.547, 393.254
1098.785, 100.919
1100.023, 407.598
1101.260, 254.307
1102.498, 224.465
1103.735, 520.200
1104.972, 105.956
1106.208, 454.728
1107.445, 425.512
1108.681, 185.308
1109.918, 379.133
1111.154, 144.981
1112.389, 34.238
1113.625, 163.113
1114.860, 190.000
1116.096, 75.399
1117.331, 171.254
1118.566, 199.121
1119.800, 571.128
1121.035, 427.025
1122.269, 483.933
1123.503, 761.873
1124.737, 471.825
1125.971, 715.884
1127.205, 702.859
1128.438, 520.846
1129.671, 848.861
1130.904, 477.887
1132.137, 693.925
1133.370, 841.005
1134.602, 601.097
1135.834, 875.277
1137.066, 802.401
1138.298, 617.537
1139.530, 992.836
1140.762, 703.011
1141.993, 760.210
1143.224, 991.712
1144.455, 566.931
1145.686, 895.301
1146.917, 673.557
1148.147, 531.824
1149.377, 801.531
1150.607, 453.828
1151.837, 662.152
1153.067, 670.791
1154.296, 383.131
1155.526, 676.839
1156.755, 403.196
1157.984, 270.561
1159.213, 420.495
1160.441, 127.877
1161.670, 325.267
1162.898, 465.415
1164.126, 67.824
1165.354, 522.240
1166.581, 237.763
1167.809, 193.195
1169.036, 387.702
1170.263, 39.146
1171.490, 194.596
1172.717, 203.451
1173.943, 1.086
1175.170, 290.381
1176.396, 118.411
1177.622, 142.890
1178.848, 361.843
1180.073, 87.429
1181.299, 374.938
1182.524, 290.694
1183.749, 109.218
1184.974, 392.746
1186.199, 184.039
1187.423, 197.577
1188.648, 420.920
1189.872, 21.205
1191.096, 215.347
1192.320, 161.440
1193.543, 0.001
1194.767, 261.560
1195.990, 159.135
1197.213, 213.701
1198.436, 307.269
1199.659, 62.838
1200.881, 247.410
1202.104, 296.983
1203.326, 93.558
1204.548, 418.146
1205.770, 160.912
1206.991, 221.502
1208.213, 461.096
1209.434, 113.347
1210.655, 341.057
1211.876, 370.153
1213.096, 78.748
1214.317, 448.344
1215.537, 190.009
1216.757, 244.604
1217.977, 480.199
1219.197, 156.331
1220.417, 373.924
1221.636, 369.516
1222.855, 199.106
1224.074, 435.695
1225.293, 221.282
1226.512, 292.866
1227.731, 472.448
1228.949, 130.743
1230.167, 314.320
1231.385, 294.895
1232.603, 80.972
1233.820, 448.541
1235.038, 201.173
1236.255, 161.909
1237.472, 391.464
1238.689, 1.666
1239.906, 113.887
1241.122, 201.418
1242.338, 94.439
1243.555, 223.073
1244.771, 121.577
1245.986, 20.361
1247.202, 292.871
1248.417, 39.505
1249.633, 264.986
1250.848, 231.475
1252.063, 63.459
1253.277, 406.953
1254.492, 113.448
1255.706, 46.549
1256.920, 316.048
1258.134, 33.453
1259.348, 177.326
1260.562, 316.818
1261.775, 7.153
1262.988, 208.315
1264.201, 203.771
1265.414, 6.760
1266.627, 297.217
1267.839, 93.655
1269.052, 66.210
1270.264, 270.627
1271.476, 21.042
1272.688, 298.599
1273.899, 217.987
1275.111, 104.618
1276.322, 474.003
1277.533, 59.387
1278.744, 181.296
1279.955, 411.661
1281.165, 40.021
1282.376, 268.367
1283.586, 304.678
1284.796, 54.014
1286.006, 326.236
1287.215, 96.474
1288.425, 23.252
1289.634, 308.944
1290.843, 37.121
1292.052, 120.646
1293.261, 247.813
1294.469, 39.025
1295.678, 288.512
1296.886, 141.599
1298.094, 3.325
1299.302, 369.739
1300.509, 19.204
1301.717, 229.823
1302.924, 364.843
1304.131, 21.143
1305.338, 346.094
1306.545, 202.043
1307.752, 7.016
1308.958, 295.911
1310.164, 142.779
1311.370, 66.635
1312.576, 346.537
1313.782, 76.359
1314.987, 155.168
1316.193, 324.967
1317.398, 14.245
1318.603, 256.517
1319.807, 100.210
1321.012, 23.913
1322.216, 265.597
1323.421, 2.269
1324.625, 82.915
1325.829, 204.546
1327.032, 56.837
1328.236, 297.741
1329.439, 146.303
1330.642, 64.150
1331.845, 319.494
1333.048, 20.979
1334.251, 46.447
1335.453, 320.594
1336.656, 26.970
1337.858, 178.431
1339.060, 274.800
1340.261, 1.863
1341.463, 380.449
1342.664, 217.745
1343.866, 148.025
1345.067, 417.287
1346.267, 197.515
1347.468, 294.726
1348.669, 369.642
1349.869, 80.822
1351.069, 336.984
1352.269, 245.731
1353.469, 72.136
1354.668, 389.953
1355.868, 48.032
1357.067, 146.094
1358.266, 390.138
1359.465, 112.111
1360.664, 235.065
1361.862, 329.083
1363.061, 13.005
1364.259, 378.903
1365.457, 247.787
1366.655, 161.552
1367.852, 462.270
1369.050, 138.968
1370.247, 205.629
1371.444, 478.260
1372.641, 38.144
1373.838, 241.399
1375.035, 291.344
1376.231, 50.169
1377.427, 458.273
1378.623, 119.701
1379.819, 94.027
1381.015, 383.296
1382.211, 73.542
1383.406, 186.687
1384.601, 352.137
1385.796, 13.331
1386.991, 339.514
1388.185, 302.145
1389.380, 79.282
1390.574, 477.408
1391.768, 113.489
1392.962, 152.967
1394.156, 499.417
1395.350, 61.503
1396.543, 260.436
1397.736, 392.493
1398.929, 17.569
1400.122, 362.463
1401.315, 360.481
1402.507, 89.485
1403.700, 408.397
1404.892, 217.376
1406.084, 246.378
1407.276, 488.502
1408.467, 65.216
1409.659, 378.067
1410.850, 441.602
1412.041, 118.707
1413.232, 498.421
1414.423, 341.106
1415.614, 109.435
1416.804, 584.746
1417.994, 92.320
1419.184, 170.747
1420.374, 434.202
1421.564, 62.427
1422.753, 278.917
1423.943, 350.608
1425.132, 164.850
1426.321, 410.682
1427.510, 258.005
1428.698, 151.765
1429.887, 543.256
1431.075, 119.010
1432.263, 268.068
1433.451, 459.971
1434.639, 66.962
1435.827, 319.941
1437.014, 442.889
1438.201, 4.487
1439.388, 443.279
1440.575, 373.152
1441.762, 135.847
1442.949, 476.405
1444.135, 176.344
1445.321, 266.953
1446.507, 483.550
1447.693, 74.138
1448.879, 430.843
1450.064, 381.272
1451.250, 8.990
1452.435, 429.741
1453.620, 279.314
1454.805, 97.512
1455.989, 512.341
1457.174, 126.837
1458.358, 132.585
1459.542, 459.544
1460.726, 144.324
1461.910, 266.888
1463.093, 431.401
1464.277, 120.122
1465.460, 379.453
1466.643, 345.473
1467.826, 115.710
1469.009, 503.631
1470.191, 140.412
1471.373, 171.917
1472.556, 519.947
1473.738, 59.406
1474.919, 339.276
1476.101, 517.232
1477.283, 16.693
1478.464, 416.240
1479.645, 368.213
1480.826, 128.167
1482.007, 417.099
1483.187, 199.942
1484.368, 167.710
1485.548, 464.397
1486.728, 79.171
1487.908, 283.930
1489.088, 439.765
1490.268, 29.668
1491.447, 413.108
1492.626, 490.808
1493.805, 6.767
1494.984, 469.705
1496.163, 378.654
1497.341, 105.586
1498.520, 533.524
1499.698, 163.683
1500.876, 162.606
1502.054, 437.837
1503.232, 42.229
1504.409, 423.792
1505.586, 365.321
1506.763, 84.125
1507.940, 365.823
1509.117, 317.912
1510.294, 31.811
1511.470, 426.073
1512.647, 86.286
1513.823, 35.321
1514.999, 457.343
1516.174, 5.315
1517.350, 109.029
1518.526, 367.789
1519.701, 84.623
1520.876, 243.527
1522.051, 287.663
1523.226, 0.000
##END=



