##NAMES=Anglesite
##RRUFFID=R040004
##IDEAL CHEMISTRY=Pb^2+^S^6+^O_4_
##LOCALITY=Erupcion mine, Los Lamentos, Chihuahua, Mexico
##OWNER=RRUFF
##SOURCE=University of Arizona Mineral Museum
##DESCRIPTION=Tan colored tabular crystal
##STATUS=The identification of this mineral has been confirmed by X-ray diffraction and chemical analysis
##URL=rruff.info/R040004
##MEASURED CHEMISTRY=Pb_1.00_S_1.00_O_4_
##PIN_ID=m00050
##ORIENTATION=Laser parallel to b* (0 1 0). Fiducial mark perpendicular to laser is parallel to c [0 0 1]
81.521, 0.000
82.916, 0.542
84.311, 135.608
85.706, 321.458
87.101, 652.696
88.496, 850.352
89.890, 1201.941
91.284, 1319.740
92.678, 1680.838
94.071, 1856.803
95.465, 1816.646
96.858, 1829.908
98.251, 1416.109
99.644, 1544.761
101.036, 1315.383
102.428, 1197.634
103.820, 1071.172
105.212, 862.662
106.604, 785.956
107.995, 533.063
109.387, 502.568
110.777, 411.001
112.168, 416.136
113.559, 375.136
114.949, 253.072
116.339, 430.948
117.729, 201.178
119.119, 280.219
120.508, 213.282
121.897, 220.720
123.286, 306.127
124.675, 331.096
126.063, 558.665
127.452, 443.575
128.840, 668.188
130.228, 652.322
131.615, 671.847
133.003, 805.854
134.390, 530.523
135.777, 571.122
137.164, 392.709
138.550, 435.610
139.937, 314.035
141.323, 196.432
142.709, 290.854
144.094, 227.083
145.480, 367.725
146.865, 385.090
148.250, 640.620
149.635, 448.065
151.019, 534.084
152.403, 658.565
153.788, 407.010
155.171, 543.313
156.555, 482.077
157.939, 570.650
159.322, 517.620
160.705, 577.628
162.088, 512.045
163.470, 504.028
164.853, 455.756
166.235, 262.163
167.617, 208.316
168.998, 242.693
170.380, 79.885
171.761, 161.206
173.142, 50.629
174.523, 57.141
175.904, 77.782
177.284, 93.401
178.664, 74.541
180.044, 129.722
181.424, 96.981
182.803, 13.860
184.183, 141.516
185.562, 8.489
186.940, 44.716
188.319, 53.754
189.698, 13.377
191.076, 119.910
192.454, 89.931
193.831, 110.312
195.209, 28.768
196.586, 0.435
197.963, 88.335
199.340, 9.530
200.717, 25.816
202.093, 85.025
203.470, 36.430
204.846, 44.058
206.221, 5.316
207.597, 12.021
208.972, 80.585
210.347, 13.649
211.722, 45.705
213.097, 10.824
214.472, 16.977
215.846, 23.533
217.220, 86.440
218.594, 52.718
219.967, 12.182
221.341, 2.245
222.714, 5.925
224.087, 79.775
225.460, 6.107
226.832, 18.361
228.204, 18.370
229.577, 58.172
230.948, 30.044
232.320, 33.011
233.692, 17.047
235.063, 63.293
236.434, 62.705
237.805, 62.950
239.175, 5.864
240.545, 2.465
241.916, 24.157
243.286, 8.199
244.655, 82.580
246.025, 20.983
247.394, 55.305
248.763, 21.797
250.132, 34.347
251.501, 85.141
252.869, 30.620
254.237, 51.713
255.605, 105.073
256.973, 96.954
258.340, 101.899
259.708, 80.887
261.075, 114.896
262.442, 108.910
263.808, 87.322
265.175, 85.900
266.541, 21.854
267.907, 0.237
269.273, 65.383
270.639, 103.607
272.004, 26.077
273.369, 133.303
274.734, 20.795
276.099, 5.623
277.463, 105.049
278.828, 28.158
280.192, 2.272
281.556, 73.289
282.919, 76.215
284.283, 82.051
285.646, 49.798
287.009, 104.448
288.372, 114.009
289.734, 2.520
291.097, 96.849
292.459, 28.133
293.821, 87.325
295.183, 166.430
296.544, 56.446
297.905, 121.370
299.266, 58.196
300.627, 138.905
301.988, 178.447
303.348, 124.809
304.709, 143.080
306.069, 120.253
307.428, 113.095
308.788, 124.746
310.147, 130.978
311.507, 157.613
312.865, 214.153
314.224, 270.632
315.583, 206.997
316.941, 303.271
318.299, 89.655
319.657, 225.735
321.015, 241.763
322.372, 177.844
323.729, 233.646
325.086, 169.711
326.443, 205.322
327.800, 171.453
329.156, 196.907
330.512, 222.334
331.868, 198.659
333.224, 273.913
334.579, 299.363
335.935, 184.685
337.290, 289.819
338.645, 185.035
339.999, 280.136
341.354, 234.998
342.708, 299.712
344.062, 324.307
345.416, 278.846
346.769, 383.034
348.123, 207.595
349.476, 231.532
350.829, 195.656
352.182, 329.745
353.534, 362.065
354.887, 311.157
356.239, 273.811
357.591, 219.878
358.942, 173.654
360.294, 206.494
361.645, 220.450
362.996, 212.613
364.347, 230.674
365.698, 263.881
367.048, 197.693
368.398, 231.742
369.748, 143.896
371.098, 135.823
372.448, 263.145
373.797, 154.614
375.146, 234.023
376.495, 266.866
377.844, 108.438
379.192, 251.568
380.540, 316.560
381.889, 235.342
383.236, 298.064
384.584, 260.235
385.932, 311.825
387.279, 358.868
388.626, 331.202
389.973, 213.945
391.319, 306.913
392.666, 220.021
394.012, 232.932
395.358, 325.799
396.704, 206.455
398.049, 304.233
399.394, 252.135
400.740, 209.974
402.084, 322.125
403.429, 223.705
404.774, 314.011
406.118, 326.244
407.462, 112.840
408.806, 265.393
410.150, 188.276
411.493, 270.778
412.836, 170.115
414.179, 423.168
415.522, 285.604
416.865, 344.738
418.207, 377.574
419.549, 370.323
420.891, 423.051
422.233, 495.621
423.575, 548.278
424.916, 550.863
426.257, 673.302
427.598, 845.677
428.939, 1076.977
430.279, 1667.053
431.619, 2542.930
432.959, 4076.293
434.299, 6127.316
435.639, 6658.589
436.978, 6066.812
438.318, 4086.592
439.657, 2579.329
440.996, 1799.939
442.334, 1119.209
443.673, 1130.688
445.011, 852.151
446.349, 623.621
447.687, 754.447
449.024, 606.020
450.361, 517.615
451.699, 445.922
453.036, 377.258
454.372, 316.975
455.709, 198.071
457.045, 419.717
458.381, 260.096
459.717, 341.381
461.053, 321.663
462.388, 222.996
463.724, 314.479
465.059, 245.601
466.394, 306.832
467.728, 247.825
469.063, 268.740
470.397, 239.720
471.731, 233.742
473.065, 311.879
474.398, 233.248
475.732, 214.833
477.065, 216.119
478.398, 107.729
479.731, 217.976
481.063, 189.243
482.396, 130.547
483.728, 321.551
485.060, 72.758
486.391, 203.667
487.723, 24.696
489.054, 185.553
490.385, 146.487
491.716, 2.499
493.047, 278.377
494.377, 99.544
495.708, 120.817
497.038, 191.584
498.368, 122.765
499.697, 123.483
501.027, 184.572
502.356, 185.463
503.685, 166.947
505.014, 148.104
506.342, 269.367
507.671, 120.486
508.999, 251.150
510.327, 201.939
511.655, 292.516
512.982, 144.799
514.310, 105.831
515.637, 296.996
516.964, 185.718
518.291, 236.429
519.617, 218.175
520.944, 150.461
522.270, 241.127
523.596, 64.626
524.921, 215.307
526.247, 96.619
527.572, 37.518
528.897, 168.393
530.222, 89.019
531.547, 179.479
532.871, 160.519
534.196, 221.884
535.520, 172.769
536.844, 51.798
538.167, 261.853
539.491, 11.630
540.814, 189.444
542.137, 220.275
543.460, 81.091
544.783, 171.876
546.105, 122.947
547.427, 133.942
548.749, 164.729
550.071, 102.060
551.393, 242.812
552.714, 143.429
554.035, 265.325
555.356, 166.026
556.677, 208.499
557.998, 139.256
559.318, 156.416
560.638, 148.455
561.958, 157.656
563.278, 145.492
564.597, 156.165
565.917, 147.229
567.236, 247.375
568.555, 178.024
569.874, 170.340
571.192, 320.954
572.511, 131.384
573.829, 361.977
575.147, 12.552
576.464, 268.515
577.782, 449.063
579.099, 169.594
580.416, 320.107
581.733, 250.603
583.050, 383.018
584.366, 363.477
585.683, 363.917
586.999, 454.378
588.315, 334.789
589.630, 496.830
590.946, 397.244
592.261, 457.680
593.576, 568.104
594.891, 548.558
596.206, 763.500
597.520, 803.948
598.834, 984.419
600.148, 1375.828
601.462, 1516.297
602.776, 1949.672
604.089, 1800.111
605.402, 1710.537
606.715, 1710.951
608.028, 1031.350
609.341, 1031.733
610.653, 672.117
611.965, 572.487
613.277, 622.873
614.589, 473.223
615.901, 553.557
617.212, 603.886
618.523, 544.199
619.834, 734.504
621.145, 554.793
622.456, 1005.090
623.766, 845.353
625.076, 785.600
626.386, 743.275
627.696, 413.497
629.006, 533.706
630.315, 283.902
631.624, 364.084
632.933, 437.106
634.242, 217.257
635.551, 427.394
636.859, 357.276
638.167, 577.387
639.475, 517.481
640.783, 467.430
642.090, 577.496
643.398, 517.180
644.705, 347.220
646.012, 556.652
647.318, 486.665
648.625, 446.614
649.931, 485.605
651.237, 535.578
652.543, 431.937
653.849, 291.734
655.155, 471.664
656.460, 251.654
657.765, 161.431
659.070, 164.126
660.375, 74.000
661.679, 173.856
662.984, 93.687
664.288, 203.512
665.592, 213.203
666.895, 143.002
668.199, 272.786
669.502, 22.559
670.805, 172.297
672.108, 111.859
673.411, 88.423
674.713, 191.214
676.016, 21.305
677.318, 10.905
678.620, 160.473
679.921, 9.968
681.223, 149.187
682.524, 48.693
683.825, 57.956
685.126, 91.228
686.427, 53.637
687.727, 75.611
689.028, 85.045
690.328, 24.463
691.628, 93.860
692.927, 96.757
694.227, 212.117
695.526, 58.593
696.825, 69.124
698.124, 88.335
699.423, 207.532
700.721, 116.407
702.020, 55.578
703.318, 74.606
704.616, 153.668
705.913, 77.204
707.211, 191.622
708.508, 100.666
709.805, 9.646
711.102, 118.653
712.399, 162.351
713.695, 96.531
714.992, 74.707
716.288, 164.037
717.584, 192.739
718.879, 88.529
720.175, 160.052
721.470, 28.670
722.765, 207.236
724.060, 245.903
725.355, 5.442
726.649, 343.174
727.944, 71.788
729.238, 210.354
730.532, 318.948
731.825, 63.643
733.119, 264.883
734.412, 83.397
735.705, 102.253
736.998, 230.748
738.291, 10.769
739.584, 277.687
740.876, 96.133
742.168, 64.569
743.460, 122.995
744.752, 8.588
746.043, 109.804
747.334, 98.187
748.626, 116.560
749.916, 154.923
751.207, 56.721
752.498, 291.584
753.788, 219.881
755.078, 0.712
756.368, 248.980
757.658, 32.759
758.947, 255.465
760.237, 63.681
761.526, 141.889
762.815, 240.088
764.104, 168.279
765.392, 116.463
766.680, 204.637
767.969, 32.805
769.257, 340.965
770.544, 89.115
771.832, 47.912
773.119, 176.047
774.406, 54.178
775.693, 252.299
776.980, 20.414
778.267, 128.523
779.553, 186.623
780.839, 115.281
782.125, 72.742
783.411, 40.760
784.697, 48.771
785.982, 206.777
787.267, 45.225
788.552, 242.744
789.837, 330.705
791.122, 8.662
792.406, 176.615
793.690, 74.561
794.974, 112.502
796.258, 80.439
797.542, 138.373
798.825, 166.301
800.108, 4.229
801.391, 32.150
802.674, 20.082
803.957, 48.010
805.239, 145.938
806.522, 116.139
807.804, 141.727
809.085, 139.588
810.367, 2.553
811.649, 185.301
812.930, 56.850
814.211, 230.973
815.492, 48.443
816.772, 116.260
818.053, 153.816
819.333, 31.631
820.613, 229.443
821.893, 167.211
823.173, 35.020
824.452, 281.584
825.732, 39.391
827.011, 167.043
828.290, 277.020
829.568, 15.174
830.847, 281.381
832.125, 67.521
833.403, 65.324
834.681, 270.254
835.959, 138.059
837.236, 325.404
838.514, 212.867
839.791, 240.477
841.068, 397.936
842.345, 155.498
843.621, 413.104
844.898, 379.928
846.174, 157.582
847.450, 447.221
848.726, 295.051
850.001, 487.125
851.277, 344.729
852.552, 422.416
853.827, 640.271
855.102, 488.100
856.376, 695.686
857.651, 633.371
858.925, 621.258
860.199, 692.389
861.473, 570.299
862.746, 448.148
864.020, 534.766
865.293, 322.697
866.566, 468.627
867.839, 116.514
869.112, 308.006
870.384, 285.969
871.656, 253.939
872.928, 264.672
874.200, 212.680
875.472, 250.291
876.744, 348.318
878.015, 156.389
879.286, 302.576
880.557, 430.684
881.828, 11.285
883.098, 486.842
884.369, 154.980
885.639, 237.738
886.909, 365.904
888.178, 25.920
889.448, 292.270
890.717, 130.467
891.987, 206.738
893.256, 164.961
894.524, 183.207
895.793, 381.428
897.061, 189.699
898.330, 216.348
899.598, 374.645
900.865, 52.955
902.133, 171.279
903.401, 339.619
904.668, 123.541
905.935, 371.967
907.202, 99.594
908.468, 437.900
909.735, 216.344
911.001, 51.885
912.267, 260.363
913.533, 118.857
914.799, 337.365
916.064, 295.889
917.330, 134.428
918.595, 82.984
919.860, 171.555
921.124, 140.121
922.389, 208.727
923.653, 42.650
924.918, 405.984
926.182, 144.633
927.445, 103.303
928.709, 301.988
929.972, 280.666
931.236, 239.066
932.499, 198.125
933.761, 210.436
935.024, 318.209
936.286, 256.998
937.549, 345.809
938.811, 384.637
940.073, 250.627
941.334, 343.393
942.596, 248.377
943.857, 367.279
945.118, 406.203
946.379, 385.146
947.640, 684.109
948.900, 553.088
950.161, 602.088
951.421, 991.107
952.681, 660.111
953.940, 572.014
955.200, 861.094
956.459, 640.193
957.719, 1249.311
958.978, 1071.811
960.236, 1400.971
961.495, 1620.148
962.753, 1669.141
964.012, 2348.359
965.270, 3014.795
966.527, 3664.057
967.785, 4943.340
969.043, 6102.645
970.300, 9221.971
971.557, 13091.318
972.814, 18070.688
974.071, 24960.070
975.327, 25079.484
976.583, 24078.922
977.840, 18898.594
979.095, 13078.074
980.351, 10337.605
981.607, 7236.693
982.862, 5476.277
984.117, 4655.891
985.372, 3445.521
986.627, 3285.191
987.882, 2554.881
989.136, 2254.600
990.390, 1724.342
991.644, 1704.105
992.898, 1503.896
994.152, 1523.711
995.405, 1333.551
996.659, 1423.416
997.912, 1643.303
999.165, 1733.250
1000.417, 1843.537
1001.670, 1043.553
1002.922, 1123.650
1004.174, 963.770
1005.426, 583.910
1006.678, 904.078
1007.930, 546.539
1009.181, 496.758
1010.432, 848.984
1011.683, 409.279
1012.934, 779.600
1014.185, 580.840
1015.435, 451.209
1016.685, 711.602
1017.935, 672.068
1019.185, 722.559
1020.435, 703.266
1021.684, 513.828
1022.934, 784.426
1024.183, 699.254
1025.432, 419.924
1026.680, 670.643
1027.929, 398.582
1029.177, 539.344
1030.425, 484.617
1031.673, 255.430
1032.921, 776.146
1034.169, 187.010
1035.416, 567.896
1036.663, 538.852
1037.911, 400.377
1039.157, 841.012
1040.404, 472.059
1041.650, 513.123
1042.897, 884.225
1044.143, 527.607
1045.389, 778.787
1046.634, 820.029
1047.880, 621.293
1049.125, 1182.586
1050.371, 953.918
1051.615, 1335.271
1052.860, 1206.652
1054.105, 1001.387
1055.349, 1442.836
1056.593, 1064.318
1057.837, 1133.275
1059.081, 1374.803
1060.325, 1206.668
1061.568, 1118.268
1062.812, 1159.887
1064.055, 1511.561
1065.298, 1183.254
1066.540, 524.969
1067.783, 696.705
1069.025, 1188.465
1070.267, 520.240
1071.509, 632.035
1072.751, 783.850
1073.993, 565.076
1075.234, 946.930
1076.475, 628.801
1077.716, 600.693
1078.957, 852.602
1080.198, 514.527
1081.438, 876.471
1082.679, 578.434
1083.919, 520.447
1085.159, 842.477
1086.398, 324.521
1087.638, 386.600
1088.877, 558.680
1090.116, 430.787
1091.355, 302.908
1092.594, 455.045
1093.833, 307.195
1095.071, 539.357
1096.309, 141.537
1097.547, 323.727
1098.785, 265.934
1100.023, 168.148
1101.260, 580.375
1102.498, 97.387
1103.735, 264.838
1104.972, 487.072
1106.208, 69.316
1107.445, 391.568
1108.681, 413.861
1109.918, 116.162
1111.154, 298.471
1112.389, 170.789
1113.625, 313.117
1114.860, 315.465
1116.096, 167.820
1117.331, 220.184
1118.566, 432.553
1119.800, 344.928
1121.035, 527.309
1122.269, 269.697
1123.503, 442.088
1124.737, 384.490
1125.971, 13.105
1127.205, 259.301
1128.438, 151.713
1129.671, 184.125
1130.904, 266.600
1132.137, 159.033
1133.370, 301.455
1134.602, 323.896
1135.834, 276.357
1137.066, 460.150
1138.298, 42.646
1139.530, 205.156
1140.762, 178.635
1141.993, 41.182
1143.224, 313.863
1144.455, 6.445
1145.686, 29.031
1146.917, 242.248
1148.147, 15.148
1149.377, 87.471
1150.607, 283.729
1151.837, 146.377
1153.067, 269.023
1154.296, 232.369
1155.526, 64.992
1156.755, 329.562
1157.984, 57.375
1159.213, 185.262
1160.441, 218.215
1161.670, 29.123
1162.898, 133.535
1164.126, 136.645
1165.354, 79.322
1166.581, 232.252
1167.809, 4.707
1169.036, 187.930
1170.263, 393.346
1171.490, 93.871
1172.717, 268.775
1173.943, 287.000
1175.170, 140.285
1176.396, 442.451
1177.622, 94.762
1178.848, 27.871
1180.073, 342.658
1181.299, 25.414
1182.524, 168.070
1183.749, 46.205
1184.974, 10.631
1186.199, 272.461
1187.423, 110.979
1188.648, 123.668
1189.872, 377.484
1191.096, 41.105
1192.320, 241.588
1193.543, 114.072
1194.767, 116.781
1195.990, 329.770
1197.213, 246.963
1198.436, 260.223
1199.659, 473.855
1200.881, 210.449
1202.104, 442.240
1203.326, 207.115
1204.548, 99.904
1205.770, 522.623
1206.991, 20.205
1208.213, 262.938
1209.434, 435.664
1210.655, 116.303
1211.876, 379.031
1213.096, 352.264
1214.317, 165.811
1215.537, 518.418
1216.757, 171.434
1217.977, 224.078
1219.197, 406.662
1220.417, 119.521
1221.636, 552.111
1222.855, 344.699
1224.074, 137.283
1225.293, 599.840
1226.512, 322.506
1227.731, 344.996
1228.949, 577.482
1230.167, 349.941
1231.385, 542.396
1232.603, 394.768
1233.820, 157.053
1235.038, 529.314
1236.255, 411.443
1237.472, 473.416
1238.689, 605.297
1239.906, 497.135
1241.122, 518.900
1242.338, 590.600
1243.555, 272.295
1244.771, 803.842
1245.986, 305.205
1247.202, 446.602
1248.417, 767.838
1249.633, 306.174
1250.848, 617.297
1252.063, 558.361
1253.277, 339.357
1254.492, 610.285
1255.706, 491.143
1256.920, 281.926
1258.134, 692.635
1259.348, 313.277
1260.562, 454.068
1261.775, 864.574
1262.988, 245.018
1264.201, 775.402
1265.414, 535.729
1266.627, 346.527
1267.839, 636.742
1269.052, 446.908
1270.264, 337.883
1271.476, 577.947
1272.688, 497.762
1273.899, 477.904
1275.111, 717.688
1276.322, 219.135
1277.533, 659.150
1278.744, 466.348
1279.955, 599.912
1281.165, 693.486
1282.376, 37.070
1283.586, 480.656
1284.796, 594.258
1286.006, 67.867
1287.215, 531.148
1288.425, 234.658
1289.634, 448.176
1290.843, 429.215
1292.052, 120.523
1293.261, 463.004
1294.469, 556.482
1295.678, 160.035
1296.886, 473.268
1298.094, 321.912
1299.302, 125.318
1300.509, 370.230
1301.717, 28.213
1302.924, 181.457
1304.131, 584.676
1305.338, 217.189
1306.545, 670.311
1307.752, 670.596
1308.958, 193.533
1310.164, 576.420
1311.370, 249.246
1312.576, 194.645
1313.782, 567.213
1314.987, 9.758
1316.193, 271.832
1317.398, 334.248
1318.603, 33.402
1319.807, 298.918
1321.012, 291.223
1322.216, 283.451
1323.421, 635.721
1324.625, 37.973
1325.829, 300.211
1327.032, 532.436
1328.236, 25.352
1329.439, 216.826
1330.642, 239.021
1331.845, 28.785
1333.048, 433.412
1334.251, 125.617
1335.453, 72.166
1336.656, 440.092
1337.858, 87.605
1339.060, 384.725
1340.261, 297.090
1341.463, 0.506
1342.664, 241.939
1343.866, 174.438
1345.067, 36.990
1346.267, 639.602
1347.468, 72.266
1348.669, 365.010
1349.869, 607.730
1351.069, 0.631
1352.269, 673.553
1353.469, 443.703
1354.668, 45.500
1355.868, 796.977
1357.067, 289.682
1358.266, 221.037
1359.465, 762.721
1360.664, 294.816
1361.862, 385.361
1363.061, 671.928
1364.259, 333.283
1365.457, 565.365
1366.655, 456.295
1367.852, 426.781
1369.050, 861.658
1370.247, 383.430
1371.444, 669.697
1372.641, 770.686
1373.838, 405.969
1375.035, 857.039
1376.231, 819.848
1377.427, 430.695
1378.623, 867.145
1379.819, 727.711
1381.015, 382.697
1382.211, 843.379
1383.406, 494.885
1384.601, 419.889
1385.796, 856.404
1386.991, 281.307
1388.185, 704.623
1389.380, 742.965
1390.574, 247.740
1391.768, 706.588
1392.962, 416.289
1394.156, 313.852
1395.350, 611.629
1396.543, 327.787
1397.736, 333.855
1398.929, 808.639
1400.122, 243.199
1401.315, 567.568
1402.507, 663.664
1403.700, 159.600
1404.892, 684.977
1406.084, 402.139
1407.276, 309.523
1408.467, 537.697
1409.659, 65.971
1410.850, 394.701
1412.041, 704.328
1413.232, 21.396
1414.423, 572.674
1415.614, 335.053
1416.804, 144.822
1417.994, 707.215
1419.184, 2.588
1420.374, 101.305
1421.564, 0.000
##END=



