##NAMES=Anglesite
##RRUFFID=R050408
##IDEAL CHEMISTRY=Pb^2+^S^6+^O_4_
##LOCALITY=Tsumeb mine, Tsumeb, Otavi District, Oshikoto, Namibia
##OWNER=RRUFF
##SOURCE=California Institute of Technology
##DESCRIPTION=Pale yellow fragment
##STATUS=The identification of this mineral has been confirmed by X-ray diffraction and chemical analysis
##URL=rruff.info/R050408
##MEASURED CHEMISTRY=Pb_1.00_S_1.00_O_4_
##PIN_ID=L01528
##ORIENTATION=Laser parallel to a* (1 0 0). Fiducial mark perpendicular to laser is parallel to -b [0 -1 0]
51.43100, 0.0000000E+00
52.67100, 9.363373
53.91000, 10.51364
55.14900, 13.12430
56.38700, 18.20264
57.62600, 19.40240
58.86400, 9.754456
60.10300, 2.355347
61.34100, 11.93640
62.57900, 4.981354
63.81700, 1.404327
65.05400, 13.63565
66.29200, 25.64999
67.52900, 46.27966
68.76700, 70.46405
70.00400, 119.1527
71.24100, 146.3019
72.47700, 199.8713
73.71400, 229.8239
74.95100, 304.1277
76.18700, 367.7537
77.42300, 420.6765
78.65900, 482.8735
79.89500, 532.6624
81.13100, 567.0109
82.36700, 639.9174
83.60200, 687.0299
84.83700, 759.3383
86.07200, 821.8350
87.30800, 906.5124
88.54200, 1008.576
89.77700, 1104.373
91.01200, 1232.530
92.24600, 1350.822
93.48000, 1463.240
94.71400, 1580.775
95.94800, 1693.422
97.18200, 1787.176
98.41600, 1905.030
99.64900, 1877.980
100.8830, 1895.020
102.1160, 1850.145
103.3490, 1700.352
104.5820, 1666.636
105.8150, 1602.996
107.0470, 1571.426
108.2800, 1555.925
109.5120, 1605.489
110.7440, 1521.117
111.9760, 1546.805
113.2080, 1516.555
114.4400, 1521.370
115.6710, 1600.240
116.9030, 1624.193
118.1340, 1663.246
119.3650, 1674.355
120.5960, 1697.535
121.8270, 1785.794
123.0580, 1888.130
124.2880, 2063.512
125.5190, 2184.929
126.7490, 2368.372
127.9790, 2571.837
129.2090, 2748.300
130.4390, 3015.769
131.6680, 3217.242
132.8980, 3442.731
134.1270, 3607.243
135.3560, 3745.764
136.5850, 3811.327
137.8140, 3763.939
139.0430, 3571.564
140.2710, 3419.207
141.5000, 3242.883
142.7280, 2986.583
143.9560, 2674.301
145.1840, 2524.038
146.4120, 2345.790
147.6390, 2150.559
148.8670, 2083.345
150.0940, 1924.148
151.3210, 1825.967
152.5490, 1802.805
153.7750, 1737.659
155.0020, 1673.531
156.2290, 1544.420
157.4550, 1462.327
158.6810, 1366.251
159.9080, 1283.192
161.1340, 1209.151
162.3590, 1122.126
163.5850, 1045.118
164.8110, 1047.127
166.0360, 1009.151
167.2610, 948.1917
168.4860, 981.2479
169.7110, 869.3198
170.9360, 915.4070
172.1610, 913.5095
173.3850, 830.6268
174.6100, 820.9832
175.8340, 828.3427
177.0580, 787.4989
178.2820, 790.6694
179.5050, 765.8535
180.7290, 749.3086
181.9520, 746.4403
183.1760, 739.0936
184.3990, 732.1596
185.6220, 712.4972
186.8450, 698.7210
188.0670, 678.4014
189.2900, 669.2975
190.5120, 688.4596
191.7340, 642.2348
192.9560, 631.7370
194.1780, 595.1798
195.4000, 608.4294
196.6220, 603.7832
197.8430, 585.3761
199.0640, 562.0380
200.2860, 578.1793
201.5070, 563.3555
202.7270, 559.5331
203.9480, 542.4036
205.1690, 510.3083
206.3890, 497.8348
207.6090, 457.0232
208.8290, 436.9093
210.0490, 440.3114
211.2690, 433.3286
212.4890, 440.9794
213.7080, 404.7369
214.9280, 389.3827
216.1470, 389.1701
217.3660, 379.9977
218.5850, 363.0880
219.8030, 353.2611
221.0220, 329.4441
222.2400, 318.2180
223.4590, 295.2152
224.6770, 268.2416
225.8950, 259.2953
227.1120, 270.4443
228.3300, 271.9080
229.5480, 246.9043
230.7650, 240.2453
231.9820, 213.9437
233.1990, 211.1388
234.4160, 176.5021
235.6330, 215.7732
236.8490, 207.0979
238.0660, 202.3685
239.2820, 159.6562
240.4980, 168.9604
241.7140, 139.2804
242.9300, 164.6158
244.1460, 157.9661
245.3610, 163.3306
246.5770, 129.7090
247.7920, 119.1009
249.0070, 127.5058
250.2220, 125.9243
251.4370, 119.3561
252.6510, 121.3988
253.8660, 113.3071
255.0800, 114.7259
256.2940, 108.2053
257.5080, 101.7012
258.7220, 117.2072
259.9360, 133.7232
261.1490, 124.2489
262.3630, 91.79150
263.5760, 83.34332
264.7890, 66.90375
266.0020, 62.84979
267.2150, 70.04956
268.4270, 70.63391
269.6400, 68.22534
270.8520, 70.70801
272.0640, 75.42889
273.2760, 66.04059
274.4880, 58.65887
275.7000, 48.28369
276.9120, 61.91498
278.1230, 52.55286
279.3340, 55.19714
280.5450, 34.84778
281.7560, 61.50464
282.9670, 14.16766
284.1780, 37.83655
285.3880, 52.51135
286.5980, 17.19183
287.8090, 43.87781
289.0190, 11.56934
290.2290, 37.26617
291.4380, 36.96832
292.6480, 37.67566
293.8570, 9.388123
295.0670, 10.10559
296.2760, 8.171875
297.4850, 5.554382
298.6930, 7.714600
299.9020, 29.02020
301.1110, 1.759521
302.3190, 1.503479
303.5270, 22.25171
304.7350, 19.00439
305.9430, 26.76129
307.1510, 26.47760
308.3580, 9.282593
309.5660, 13.95319
310.7730, 1.812500
311.9800, 24.58203
313.1870, 34.64459
314.3940, 0.1251830
315.6010, 18.10150
316.8070, 17.67175
318.0130, 3.551453
319.2200, 1.228027
320.4260, 1.009460
321.6310, 9.207153
322.8370, 0.4224850
324.0430, 7.635010
325.2480, 24.84625
326.4540, 15.06561
327.6590, 3.288208
328.8640, 10.51672
330.0680, 11.25110
331.2730, 11.02100
332.4780, 23.20642
333.6820, 10.43884
334.8860, 11.67883
336.0900, 6.076538
337.2940, 2.832214
338.4980, 0.4151000
339.7010, 33.33411
340.9050, 0.9140630
342.1080, 2.160950
343.3110, 7.408081
344.5140, 34.65179
345.7170, 22.09705
346.9200, 34.14594
348.1220, 3.601929
349.3240, 4.642212
350.5270, 0.8823850
351.7290, 13.11737
352.9310, 22.64728
354.1320, 15.42120
355.3340, 23.79773
356.5350, 10.97675
357.7370, 2.756958
358.9380, 13.45825
360.1390, 11.32355
361.3400, 13.11047
362.5400, 10.90234
363.7410, 22.30115
364.9410, 20.51263
366.1410, 28.73163
367.3410, 9.037720
368.5410, 16.81104
369.7410, 19.58832
370.9400, 4.369385
372.1400, 1.846802
373.3390, 11.06317
374.5380, 1.715942
375.7370, 4.503784
376.9360, 14.27496
378.1350, 3.057678
379.3330, 6.841858
380.5310, 5.628296
381.7300, 13.41663
382.9280, 23.20776
384.1260, 31.46124
385.3230, 28.79810
386.5210, 43.59717
387.7180, 36.39880
388.9160, 15.20282
390.1130, 31.00958
391.3100, 30.81866
392.5060, 32.63043
393.7030, 40.49969
394.9000, 42.62805
396.0960, 50.44623
397.2920, 61.74994
398.4880, 70.57227
399.6840, 104.3966
400.8800, 100.5223
402.0750, 109.3517
403.2710, 97.18298
404.4660, 156.0161
405.6610, 202.5757
406.8560, 182.4703
408.0510, 198.3083
409.2450, 226.2104
410.4400, 250.0519
411.6340, 229.8953
412.8280, 292.7399
414.0220, 286.5917
415.2160, 283.4405
416.4100, 329.2916
417.6030, 370.1450
418.7970, 384.0002
419.9900, 465.8568
421.1830, 472.7147
422.3760, 512.5739
423.5690, 594.4343
424.7610, 690.2968
425.9540, 777.1608
427.1460, 930.0275
428.3380, 1066.895
429.5300, 1351.765
430.7220, 1672.636
431.9140, 2138.509
433.1050, 2661.384
434.2970, 3388.260
435.4880, 4439.138
436.6790, 5730.015
437.8700, 7165.897
439.0610, 8351.776
440.2510, 8686.472
441.4420, 8240.354
442.6320, 7533.056
443.8220, 7490.943
445.0120, 7954.832
446.2020, 9367.719
447.3910, 11292.61
448.5810, 13618.50
449.7700, 15707.39
450.9600, 16493.18
452.1490, 15115.07
453.3370, 12295.45
454.5260, 9096.350
455.7150, 6584.248
456.9030, 4882.523
458.0910, 3818.412
459.2800, 2989.542
460.4670, 2472.445
461.6550, 2162.230
462.8430, 1863.136
464.0300, 1618.040
465.2180, 1490.562
466.4050, 1316.439
467.5920, 1162.017
468.7790, 1054.700
469.9650, 933.8911
471.1520, 822.6438
472.3380, 733.0445
473.5250, 698.9568
474.7110, 679.8698
475.8970, 585.5723
477.0820, 534.9411
478.2680, 536.2392
479.4540, 506.1553
480.6390, 451.0721
481.8240, 388.8967
483.0090, 402.8151
484.1940, 352.6044
485.3780, 317.3534
486.5630, 306.8092
487.7470, 271.1083
488.9320, 260.0284
490.1160, 266.0334
491.3000, 259.9537
492.4830, 220.5106
493.6670, 171.2490
494.8500, 156.3426
496.0340, 180.2643
497.2170, 162.1860
498.4000, 160.6714
499.5820, 146.8485
500.7650, 130.5532
501.9480, 107.4779
503.1300, 99.39990
504.3120, 87.32178
505.4940, 82.24951
506.6760, 106.7602
507.8580, 80.35968
509.0390, 89.48163
510.2210, 55.41107
511.4020, 76.34082
512.5830, 66.27045
513.7640, 79.13220
514.9450, 53.70416
516.1250, 66.76837
517.3060, 61.51709
518.4860, 20.99084
519.6660, 52.12128
520.8460, 41.93097
522.0260, 28.83466
523.2060, 21.70984
524.3850, 37.65942
525.5650, 31.61450
526.7440, 10.57495
527.9230, 58.53809
529.1020, 26.50427
530.2810, 30.46997
531.4590, 27.50635
532.6380, 20.47241
533.8160, 22.53015
534.9940, 1.494568
536.1720, 1.514099
537.3500, 23.47058
538.5270, 6.530884
539.7050, 16.46228
540.8820, 25.45569
542.0590, 20.33008
543.2360, 24.76147
544.4130, 15.74969
545.5900, 15.77515
546.7660, 27.18707
547.9430, 2.787842
549.1190, 8.767273
550.2950, 2.741699
551.4710, 16.86444
552.6470, 26.93445
553.8220, 16.92511
554.9980, 7.991943
556.1730, 20.22791
557.3480, 13.10901
558.5230, 18.66235
559.6980, 15.82874
560.8730, 15.68207
562.0470, 40.87097
563.2220, 20.89429
564.3960, 15.91998
565.5700, 28.18433
566.7440, 12.24756
567.9170, 13.65704
569.0910, 29.69690
570.2640, 31.77667
571.4380, 17.10425
572.6110, 49.16162
573.7840, 36.33984
574.9570, 60.56635
576.1290, 50.66315
577.3020, 44.72937
578.4740, 27.79468
579.6460, 27.86176
580.8180, 68.97998
581.9900, 46.08392
583.1620, 34.39197
584.3330, 73.59351
585.5040, 39.74841
586.6760, 48.79492
587.8470, 21.83820
589.0180, 36.87793
590.1880, 41.20660
591.3590, 59.23926
592.5290, 82.28430
593.7000, 59.31744
594.8700, 77.34668
596.0400, 87.84192
597.2090, 128.2417
598.3790, 171.2666
599.5490, 163.3101
600.7180, 190.3580
601.8870, 272.6835
603.0560, 268.1415
604.2250, 312.1504
605.3940, 324.1936
606.5620, 326.3693
607.7300, 339.3674
608.8990, 280.3628
610.0670, 222.4432
611.2350, 190.5103
612.4020, 156.5050
613.5700, 128.0152
614.7370, 104.5621
615.9050, 91.74994
617.0720, 73.76074
618.2390, 63.79944
619.4060, 71.77515
620.5720, 77.81720
621.7390, 43.78278
622.9050, 37.89258
624.0710, 68.84839
625.2370, 17.79974
626.4030, 51.74664
627.5690, 1.690430
628.7340, 38.63422
629.9000, 17.57257
631.0650, 40.51361
632.2300, 42.44922
633.3950, 38.38098
634.5600, 77.30811
635.7240, 47.23322
636.8890, 50.15259
638.0530, 43.06604
639.2170, 57.97998
640.3810, 78.88794
641.5450, 77.44855
642.7080, 109.7025
643.8720, 84.59692
645.0350, 101.8437
646.1980, 95.72559
647.3610, 53.60736
648.5240, 41.82922
649.6870, 32.81671
650.8490, 29.79462
652.0120, 50.66437
653.1740, 30.80798
654.3360, 56.66479
655.4980, 45.74786
656.6600, 39.05646
657.8210, 21.06342
658.9830, 13.37885
660.1440, 26.23914
661.3050, 47.22363
662.4660, 62.65137
663.6270, 39.11206
664.7870, 72.24634
665.9480, 58.39185
667.1080, 35.85510
668.2680, 39.47443
669.4280, 40.25165
670.5880, 27.07410
671.7480, 47.14258
672.9070, 26.74756
674.0670, 43.06030
675.2260, 48.45813
676.3850, 57.61896
677.5440, 52.80347
678.7030, 49.04077
679.8610, 84.02325
681.0200, 25.94476
682.1780, 32.32703
683.3360, 58.86749
684.4940, 40.17877
685.6520, 39.28290
686.8090, 61.25812
687.9670, 42.82916
689.1240, 58.11169
690.2810, 29.90790
691.4380, 37.00415
692.5950, 64.75385
693.7520, 43.09491
694.9080, 31.07635
696.0650, 31.73480
697.2210, 37.86572
698.3770, 39.03424
699.5330, 57.62549
700.6880, 59.13892
701.8440, 56.86652
702.9990, 69.29639
704.1550, 38.44183
705.3100, 57.88605
706.4650, 34.30267
707.6190, 70.29010
708.7740, 62.35895
709.9290, 42.42047
711.0830, 66.94470
712.2370, 56.94940
713.3910, 55.43262
714.5450, 67.80518
715.6980, 87.08789
716.8520, 77.84705
718.0050, 72.18457
719.1580, 65.69287
720.3110, 67.00647
721.4640, 49.30792
722.6170, 56.59558
723.7700, 59.87018
724.9220, 89.13214
726.0740, 84.38239
727.2260, 90.04358
728.3780, 45.84760
729.5300, 89.06006
730.6810, 69.26080
731.8330, 70.44958
732.9840, 71.62659
734.1350, 35.79187
735.2860, 39.94110
736.4370, 85.07538
737.5880, 66.19788
738.7380, 65.30823
739.8880, 42.40649
741.0390, 35.49030
742.1890, 74.55829
743.3380, 62.61456
744.4880, 49.65857
745.6380, 74.68927
746.7870, 69.70819
747.9360, 55.71521
749.0850, 56.70978
750.2340, 64.69171
751.3830, 61.66180
752.5310, 58.61987
753.6800, 43.56567
754.8280, 59.49768
755.9760, 55.41754
757.1240, 83.32513
758.2720, 53.22083
759.4190, 76.10413
760.5670, 45.97565
761.7140, 87.83411
762.8610, 60.68091
764.0080, 78.49237
765.1550, 94.31580
766.3020, 74.79572
767.4480, 107.5958
768.5950, 106.3529
769.7410, 60.12976
770.8870, 97.89514
772.0330, 72.64886
773.1780, 86.39105
774.3240, 83.12177
775.4690, 115.8409
776.6140, 72.54865
777.7590, 108.2450
778.9040, 49.92981
780.0490, 92.60303
781.1940, 73.26489
782.3380, 0.9154050
783.4820, 71.54260
784.6260, 61.15851
785.7700, 24.76324
786.9140, 36.35364
788.0580, 35.93164
789.2010, 48.49756
790.3450, 25.05231
791.4880, 52.59332
792.6310, 26.12335
793.7730, 3.359863
794.9160, 28.13293
796.0590, 15.55310
797.2010, 35.82788
798.3430, 26.26373
799.4850, 7.294922
800.6270, 9.121582
801.7690, 3.478577
802.9100, 4.101257
804.0520, 7.253418
805.1930, 3.591370
806.3340, 32.91113
807.4750, 26.22040
808.6160, 14.44769
809.7560, 1.732666
810.8970, 10.08899
812.0370, 14.84613
813.1770, 11.62866
814.3170, 41.43445
815.4570, 23.71997
816.5960, 10.86670
817.7360, 6.999329
818.8750, 22.89752
820.0140, 2.099426
821.1530, 0.9921880
822.2920, 4.032532
823.4310, 14.04779
824.5690, 32.10724
825.7070, 0.8486940
826.8460, 6.186462
827.9840, 30.93890
829.1220, 26.03302
830.2590, 36.06763
831.3970, 0.7991940
832.5340, 26.51569
833.6710, 2.875549
834.8080, 4.160339
835.9450, 43.45178
837.0820, 14.37756
838.2190, 1.198914
839.3550, 26.99438
840.4910, 7.208740
841.6270, 28.67499
842.7630, 28.95874
843.8990, 6.607239
845.0350, 40.89868
846.1700, 9.251343
847.3060, 17.86456
848.4410, 42.22241
849.5760, 34.72211
850.7100, 22.71106
851.8450, 16.73547
852.9800, 8.165100
854.1140, 12.39465
855.2480, 4.056519
856.3820, 7.430908
857.5160, 11.92456
858.6500, 4.205078
859.7830, 25.58417
860.9170, 44.00104
862.0500, 13.51746
863.1830, 22.02850
864.3160, 55.53430
865.4480, 30.74274
866.5810, 79.23846
867.7130, 41.71857
868.8460, 54.20227
869.9780, 73.68396
871.1100, 32.69153
872.2410, 63.78632
873.3730, 55.25525
874.5050, 62.69775
875.6360, 29.13153
876.7670, 38.27985
877.8980, 21.80145
879.0290, 36.73883
880.1590, 12.14746
881.2900, 15.41797
882.4200, 40.85889
883.5500, 46.29688
884.6800, 71.64832
885.8100, 44.00909
886.9400, 63.43604
888.0690, 103.8405
889.1990, 45.22089
890.3280, 40.42181
891.4570, 52.81299
892.5860, 56.17218
893.7140, 80.59070
894.8430, 62.93628
895.9710, 51.35217
897.1000, 48.61816
898.2280, 26.03186
899.3560, 41.44470
900.4830, 43.85681
901.6110, 74.26855
902.7380, 65.68140
903.8660, 64.09412
904.9930, 74.93298
906.1200, 60.91980
907.2460, 77.33313
908.3730, 61.74658
909.5000, 54.16089
910.6260, 87.57581
911.7520, 53.99158
912.8780, 65.40820
914.0040, 69.82605
915.1290, 81.23352
916.2550, 79.65405
917.3800, 101.0763
918.5050, 106.8386
919.6300, 121.5676
920.7550, 123.9961
921.8800, 115.0863
923.0040, 105.4149
924.1290, 159.7494
925.2530, 97.18835
926.3770, 151.3496
927.5010, 139.7949
928.6250, 157.0125
929.7480, 137.0051
930.8720, 169.2974
931.9950, 174.2803
933.1180, 202.7145
934.2410, 179.0225
935.3640, 187.8848
936.4860, 221.7118
937.6090, 167.8629
938.7310, 192.0002
939.8530, 263.8173
940.9750, 260.4763
942.0970, 297.9751
943.2180, 343.4268
944.3400, 396.6301
945.4610, 410.2954
946.5820, 496.2505
947.7030, 571.9370
948.8240, 618.8557
949.9450, 724.9349
951.0650, 800.4768
952.1860, 826.7559
953.3060, 896.0950
954.4260, 1020.673
955.5460, 1171.233
956.6650, 1362.336
957.7850, 1598.488
958.9040, 1818.044
960.0230, 2110.671
961.1420, 2412.644
962.2610, 2831.040
963.3800, 3360.199
964.4990, 3959.705
965.6170, 4843.619
966.7350, 5954.887
967.8530, 7311.483
968.9710, 9301.608
970.0890, 11775.69
971.2070, 15449.36
972.3240, 20029.10
973.4410, 26131.63
974.5580, 33681.46
975.6750, 42306.57
976.7920, 50935.40
977.9090, 57189.24
979.0250, 58189.52
980.1410, 53753.71
981.2580, 45243.92
982.3740, 35425.66
983.4890, 26658.93
984.6050, 20354.72
985.7200, 15541.62
986.8360, 12235.61
987.9510, 9670.129
989.0660, 7944.072
990.1810, 6628.846
991.2950, 5577.818
992.4100, 4789.805
993.5240, 4179.808
994.6390, 3574.826
995.7530, 3260.860
996.8660, 2890.909
997.9800, 2612.973
999.0940, 2357.054
1000.207, 2185.155
1001.320, 1909.273
1002.433, 1764.405
1003.546, 1673.554
1004.659, 1503.718
1005.772, 1371.900
1006.884, 1332.100
1007.996, 1231.316
1009.108, 1121.548
1010.220, 1078.797
1011.332, 958.0632
1012.444, 897.3480
1013.555, 828.6497
1014.666, 825.9680
1015.777, 739.3040
1016.888, 653.6566
1017.999, 641.0264
1019.110, 569.4135
1020.220, 584.8181
1021.331, 559.2448
1022.441, 536.6898
1023.551, 534.1523
1024.661, 488.6345
1025.770, 444.1344
1026.880, 450.6531
1027.989, 428.1899
1029.098, 411.7505
1030.207, 436.3290
1031.316, 371.9263
1032.425, 337.5416
1033.533, 284.1759
1034.642, 382.8369
1035.750, 260.5249
1036.858, 298.2341
1037.966, 294.9728
1039.073, 246.7330
1040.181, 186.5127
1041.288, 229.3108
1042.396, 210.1274
1043.503, 150.9629
1044.610, 192.8170
1045.716, 164.6899
1046.823, 153.5817
1047.929, 161.4977
1049.036, 202.4393
1050.142, 259.4073
1051.248, 235.4042
1052.353, 274.4355
1053.459, 268.4952
1054.564, 267.5790
1055.670, 279.6833
1056.775, 223.8075
1057.880, 218.9532
1058.985, 222.1216
1060.089, 253.3195
1061.194, 259.5366
1062.298, 292.7795
1063.402, 247.0508
1064.506, 262.3420
1065.610, 214.6553
1066.713, 242.9882
1067.817, 236.3414
1068.920, 181.7228
1070.023, 251.1267
1071.126, 173.5588
1072.229, 164.0222
1073.332, 167.5106
1074.435, 165.0226
1075.537, 178.5612
1076.639, 172.1201
1077.741, 165.7003
1078.843, 173.3141
1079.945, 142.9575
1081.046, 163.6288
1082.148, 148.3309
1083.249, 158.0679
1084.350, 163.8333
1085.451, 132.6273
1086.551, 117.4492
1087.652, 131.2909
1088.752, 110.1589
1089.853, 115.0500
1090.953, 75.96313
1092.053, 95.89685
1093.152, 77.85059
1094.252, 80.82751
1095.351, 60.82605
1096.451, 97.85486
1097.550, 65.91602
1098.649, 73.00940
1099.748, 92.12500
1100.846, 57.27222
1101.945, 63.71545
1103.043, 82.91333
1104.141, 66.14429
1105.239, 69.40540
1106.337, 52.68042
1107.434, 39.98572
1108.532, 45.31592
1109.629, 73.78528
1110.726, 47.17957
1111.823, 48.59583
1112.920, 13.04248
1114.017, 12.51147
1115.113, 44.00452
1116.210, 33.52783
1117.306, 91.07947
1118.402, 33.65112
1119.498, 94.24573
1120.593, 82.86133
1121.689, 108.5077
1122.784, 79.16138
1123.879, 84.83362
1124.974, 69.52441
1126.069, 113.2345
1127.164, 120.9628
1128.259, 101.7865
1129.353, 116.5514
1130.447, 54.48181
1131.541, 92.28735
1132.635, 42.10913
1133.729, 56.94946
1134.822, 67.80774
1135.916, 63.68372
1137.009, 100.5771
1138.102, 133.4891
1139.195, 132.4191
1140.288, 157.9351
1141.380, 133.3304
1142.473, 183.3118
1143.565, 214.3104
1144.657, 237.3262
1145.749, 285.3591
1146.841, 240.4087
1147.932, 274.4773
1149.024, 286.5625
1150.115, 321.6647
1151.206, 410.7832
1152.297, 391.9896
1153.388, 429.2728
1154.479, 395.4399
1155.569, 410.8195
1156.659, 432.0181
1157.750, 460.3438
1158.839, 461.5568
1159.929, 458.1855
1161.019, 441.4481
1162.108, 414.7258
1163.198, 342.0243
1164.287, 277.4456
1165.376, 294.6943
1166.465, 275.0544
1167.553, 233.0385
1168.642, 302.8904
1169.730, 167.9734
1170.818, 153.4886
1171.906, 196.8966
1172.994, 182.3184
1174.082, 125.7537
1175.170, 132.2023
1176.257, 93.66443
1177.344, 72.13977
1178.431, 112.8314
1179.518, 95.80420
1180.605, 99.98438
1181.691, 65.72925
1182.778, 109.4153
1183.864, 86.10608
1184.950, 56.67786
1186.036, 88.25244
1187.122, 65.83850
1188.207, 93.74280
1189.292, 126.0842
1190.378, 92.67920
1191.463, 81.30981
1192.548, 83.10339
1193.632, 70.19348
1194.717, 71.70947
1195.801, 97.52771
1196.886, 70.21008
1197.970, 77.90234
1199.054, 72.83813
1200.137, 43.56543
1201.221, 77.77429
1202.305, 40.81482
1203.388, 20.96277
1204.471, 57.71106
1205.554, 38.03320
1206.637, 46.83984
1207.719, 38.61377
1208.802, 39.64771
1209.884, 48.06641
1210.966, 21.86499
1212.048, 28.56689
1213.130, 38.38037
1214.212, 56.14600
1215.293, 90.72729
1216.374, 52.05994
1217.456, 49.91174
1218.536, 35.32117
1219.617, 91.17578
1220.698, 83.03638
1221.778, 105.0281
1222.859, 97.91687
1223.939, 85.87952
1225.019, 88.82117
1226.099, 53.70959
1227.178, 37.30811
1228.258, 43.31628
1229.337, 36.31995
1230.417, 15.81726
1231.496, 16.73950
1232.574, 9.941650
1233.653, 11.94763
1234.732, 0.2028810
1235.810, 28.72327
1236.888, 33.17639
1237.966, 26.68152
1239.044, 8.371460
1240.122, 57.46033
1241.199, 11.40039
1242.277, 27.34338
1243.354, 17.28845
1244.431, 55.23804
1245.508, 32.19006
1246.585, 29.16565
1247.661, 20.39221
1248.738, 22.34900
1249.814, 20.30737
1250.890, 0.7327880
1251.966, 27.22791
1253.042, 46.19019
1254.117, 15.24341
1255.193, 9.367065
1256.268, 66.33154
1257.343, 4.623901
1258.418, 23.34009
1259.493, 7.351685
1260.567, 30.29468
1261.642, 19.88623
1262.716, 15.02844
1263.790, 21.05420
1264.864, 17.02014
1265.938, 8.985107
1267.011, 34.15649
1268.085, 19.21716
1269.158, 34.18311
1270.231, 37.13110
1271.304, 31.07764
1272.377, 36.07324
1273.450, 39.35315
1274.522, 35.19836
1275.594, 32.54248
1276.666, 29.50110
1277.738, 21.43604
1278.810, 14.46643
1279.882, 12.39624
1280.953, 23.67676
1282.025, 2.747314
1283.096, 8.162964
1284.167, 3.929932
1285.238, 24.97192
1286.308, 1.129272
1287.379, 6.7016996E-02
1288.449, 24.17810
1289.519, 10.90063
1290.589, 24.79297
1291.659, 3.658691
1292.729, 0.5200200
1293.798, 32.60596
1294.868, 33.73193
1295.937, 8.928955
1297.006, 40.12756
1298.075, 9.352539
1299.143, 2.413574
1300.212, 11.17358
1301.280, 32.42041
1302.348, 34.52283
1303.416, 52.46484
1304.484, 31.20422
1305.552, 16.93799
1306.620, 14.33386
1307.687, 18.36157
1308.754, 20.93042
1309.821, 29.19666
1310.888, 27.55139
1311.955, 26.93152
1313.021, 8.336548
1314.088, 21.30176
1315.154, 29.90540
1316.220, 5.470459
1317.286, 1.974976
1318.352, 21.43481
1319.417, 18.08020
1320.483, 7.410400
1321.548, 5.077637
1322.613, 28.66821
1323.678, 21.18018
1324.743, 30.64954
1325.807, 49.16040
1326.872, 12.65430
1327.936, 22.09241
1329.000, 7.586914
1330.064, 6.004395
1331.128, 10.38867
1332.191, 31.76471
1333.255, 8.862732
1334.318, 24.52325
1335.381, 30.93652
1336.444, 18.63269
1337.507, 8.726013
1338.569, 38.10071
1339.632, 4.413269
1340.694, 48.68665
1341.756, 11.89081
1342.818, 8.474060
1343.880, 14.74573
1344.941, 33.99292
1346.003, 14.18451
1347.064, 53.38800
1348.125, 37.57458
1349.186, 29.73730
1350.247, 36.89075
1351.308, 33.03558
1352.368, 35.16949
1353.428, 56.29376
1354.489, 14.40692
1355.549, 34.50574
1356.608, 35.59332
1357.668, 18.67053
1358.727, 20.73358
1359.787, 14.80078
1360.846, 38.85431
1361.905, 11.88055
1362.964, 70.04712
1364.022, 23.07190
1365.081, 22.05676
1366.139, 48.02850
1367.197, 4.121338
1368.255, 75.81982
1369.313, 61.82019
1370.371, 57.73810
1371.428, 93.19196
1372.486, 57.22699
1373.543, 52.11188
1374.600, 36.98578
1375.657, 69.84723
1376.713, 69.78265
1377.770, 103.6909
1378.826, 75.54114
1379.882, 64.55298
1380.938, 50.35852
1381.994, 46.20612
1383.050, 75.03009
1384.106, 52.80133
1385.161, 73.51489
1386.216, 38.46600
1387.271, 53.05530
1388.326, 43.77606
1389.381, 46.48730
1390.435, 55.18695
1391.490, 62.87531
1392.544, 63.55115
1393.598, 46.21515
1394.652, 54.20776
1395.705, 64.84521
1396.759, 86.49939
1397.812, 81.12286
1398.866, 61.72772
1399.919, 64.32153
1400.972, 61.93170
1402.024, 116.5039
1403.077, 33.06519
1404.129, 100.6536
1405.181, 59.18719
1406.233, 75.70728
1407.285, 90.21667
1408.337, 70.64349
1409.389, 82.08148
1410.440, 97.54785
1411.491, 76.91211
1412.542, 91.35529
1413.593, 54.67468
1414.644, 88.00909
1415.695, 51.12848
1416.745, 70.51898
1417.795, 93.89447
1418.845, 106.3035
1419.895, 72.54291
1420.945, 79.98340
1421.995, 66.38110
1423.044, 122.0600
1424.093, 71.90796
1425.142, 101.1260
1426.191, 80.42932
1427.240, 65.78149
1428.289, 75.13287
1429.337, 69.36920
1430.385, 95.59045
1431.433, 109.7997
1432.481, 108.9972
1433.529, 83.97760
1434.577, 92.67676
1435.624, 57.16522
1436.672, 71.05719
1437.719, 69.99207
1438.766, 92.02032
1439.812, 51.10388
1440.859, 56.13885
1441.905, 65.15125
1442.952, 82.83539
1443.998, 94.02588
1445.044, 69.93506
1446.090, 60.77271
1447.135, 65.41394
1448.181, 41.69324
1449.226, 52.39392
1450.271, 62.83783
1451.316, 49.98181
1452.361, 49.83105
1453.405, 58.93860
1454.450, 46.32819
1455.494, 68.80139
1456.538, 79.34656
1457.582, 63.71106
1458.626, 50.68054
1459.670, 43.45227
1460.713, 38.83398
1461.757, 35.98376
1462.800, 43.21613
1463.843, 38.72528
1464.886, 48.77631
1465.928, 58.73151
1466.971, 28.95898
1468.013, 27.05859
1469.055, 67.91101
1470.097, 37.72498
1471.139, 54.83051
1472.181, 43.91229
1473.222, 45.94141
1474.263, 54.63043
1475.305, 55.63989
1476.346, 57.62659
1477.386, 61.87732
1478.427, 53.09143
1479.468, 66.54248
1480.508, 64.99823
1481.548, 66.50958
1482.588, 49.31757
1483.628, 76.67059
1484.668, 15.43750
1485.707, 43.13098
1486.747, 76.74164
1487.786, 21.60114
1488.825, 39.13513
1489.864, 56.78992
1490.902, 79.41241
1491.941, 47.03479
1492.979, 97.36755
1494.017, 28.62158
1495.055, 68.14758
1496.093, 2.655273
1497.131, 20.15936
1498.168, 44.73279
1499.206, 53.30347
1500.243, 65.80304
1501.280, 24.29889
1502.317, 25.79504
1503.354, 32.29901
1504.390, 13.22156
1505.426, 65.30865
1506.463, 26.73785
1507.499, 29.32477
1508.535, 88.93109
1509.570, 31.54944
1510.606, 10.85687
1511.641, 41.32812
1512.676, 52.81201
1513.711, 38.26111
1514.746, 61.87695
1515.781, 47.40784
1516.816, 73.63324
1517.850, 73.95471
1518.884, 2.501221
1519.918, 49.30450
1520.952, 28.82629
1521.986, 33.40845
1523.019, 60.99274
1524.053, 79.59607
1525.086, 28.18976
1526.119, 37.78363
1527.152, 75.37671
1528.185, 23.13965
1529.217, 58.65637
1530.250, 42.65460
1531.282, 61.21466
1532.314, 49.77289
1533.346, 15.10724
1534.377, 43.35999
1535.409, 10.85345
1536.440, 39.03955
1537.472, 47.13544
1538.503, 36.85651
1539.534, 29.91370
1540.564, 47.19672
1541.595, 47.74292
1542.625, 16.10059
1543.656, 51.44019
1544.686, 21.77795
1545.716, 8.453613
1546.745, 28.53271
1547.775, 17.75256
1548.804, 6.217529
1549.834, 3.676880
1550.863, 8.208740
1551.892, 6.894165
1552.920, 30.43604
1553.949, 56.77515
1554.977, 47.83362
1556.006, 49.89001
1557.034, 48.57874
1558.062, 49.35986
1559.089, 27.28723
1560.117, 40.60449
1561.144, 19.68372
1562.172, 0.2120360
1563.199, 2.828613
1564.226, 7.262207
1565.252, 4.717651
1566.279, 3.293213
1567.305, 8.223145
1568.332, 13.61621
1569.358, 7.069580
1570.384, 0.0000000E+00
##END=



