##NAMES=Ankerite
##RRUFFID=R050197
##IDEAL CHEMISTRY=CaFe^2+^(CO_3_)_2_
##LOCALITY=Brownley Hill mine, Nenthead, Cumbria, England
##OWNER=RRUFF
##SOURCE=Marcus Origlieri
##DESCRIPTION=Curved saddle-shaped rhombohedral crystals
##STATUS=The identification of this mineral has been confirmed by X-ray diffraction and chemical analysis
##URL=rruff.info/R050197
##MEASURED CHEMISTRY=Ca_1.00_(Fe^2+^_0.52_Mg_0.35_Ca_0.08_Mn^2+^_0.05_)_Î£=1_(CO_3_)_2_ ; where C was not measured but estimated by difference and stoichiometry
##PIN_ID=M00064
##ORIENTATION=Laser parallel to -c* (0 0 -1). Fiducial mark perpendicular to laser is parallel to -a [-1 0 0]
114.4400, 0.0000000E+00
115.6710, 40.85547
116.9030, 76.23682
118.1340, 3.145142
119.3650, 51.20825
120.5960, 6.5552004E-02
121.8270, 4.401978
123.0580, 43.70044
124.2880, 48.28467
125.5190, 47.27966
126.7490, 34.63037
127.9790, 36.29602
129.2090, 69.23743
130.4390, 50.42188
131.6680, 96.81885
132.8980, 98.40417
134.1270, 105.1594
135.3560, 139.0682
136.5850, 116.1161
137.8140, 173.2898
139.0430, 168.6274
140.2710, 214.0679
141.5000, 235.5212
142.7280, 279.2294
143.9560, 282.9575
145.1840, 337.7509
146.4120, 368.6066
147.6390, 359.5205
148.8670, 419.4905
150.0940, 480.5166
151.3210, 510.6013
152.5490, 609.7397
153.7750, 677.9287
155.0020, 821.1636
156.2290, 916.4413
157.4550, 948.7592
158.6810, 1139.114
159.9080, 1364.502
161.1340, 1395.921
162.3590, 1576.177
163.5850, 1748.818
164.8110, 1767.296
166.0360, 1891.800
167.2610, 1831.327
168.4860, 1714.878
169.7110, 1659.449
170.9360, 1480.911
172.1610, 1248.552
173.3850, 1042.159
174.6100, 868.7825
175.8340, 655.4355
177.0580, 525.1180
178.2820, 422.8118
179.5050, 374.5182
180.7290, 263.2407
181.9520, 281.9993
183.1760, 195.7852
184.3990, 215.6165
185.6220, 160.5159
186.8450, 177.4766
188.0670, 154.4363
189.2900, 118.3885
190.5120, 108.3594
191.7340, 103.3499
192.9560, 95.33362
194.1780, 106.3099
195.4000, 106.3016
196.6220, 88.29663
197.8430, 94.30920
199.0640, 110.3208
200.2860, 116.3295
201.5070, 74.33472
202.7270, 89.33704
203.9480, 94.33838
205.1690, 21.33740
206.3890, 39.33984
207.6090, 22.34595
208.8290, 14.64722
210.0490, 24.36145
211.2690, 28.36853
212.4890, 5.616821
213.7080, 68.39612
214.9280, 23.42053
216.1470, 3.456909
217.3660, 51.49011
218.5850, 50.52039
219.8030, 53.54871
221.0220, 10.58411
222.2400, 26.61621
223.4590, 5.645386
224.6770, 42.67139
225.8950, 0.6944580
227.1120, 16.28552
228.3300, 2.268555
229.5480, 22.74512
230.7650, 16.75574
231.9820, 20.76318
233.1990, 30.76746
234.4160, 68.82556
235.6330, 61.87329
236.8490, 78.05591
238.0660, 89.17310
239.2820, 83.18359
240.4980, 97.15002
241.7140, 103.1132
242.9300, 135.1578
244.1460, 140.0574
245.3610, 170.2322
246.5770, 163.5854
247.7920, 186.6594
249.0070, 200.7572
250.2220, 219.7241
251.4370, 283.7220
252.6510, 291.4319
253.8660, 346.0737
255.0800, 381.4786
256.2940, 424.8962
257.5080, 484.5913
258.7220, 572.4739
259.9360, 636.8120
261.1490, 718.3693
262.3630, 794.0723
263.5760, 882.7737
264.7890, 950.2175
266.0020, 1031.853
267.2150, 1220.259
268.4270, 1342.262
269.6400, 1436.973
270.8520, 1608.717
272.0640, 1671.466
273.2760, 1839.300
274.4880, 2027.919
275.7000, 2094.708
276.9120, 2232.552
278.1230, 2308.455
279.3340, 2282.750
280.5450, 2400.584
281.7560, 2434.658
282.9670, 2392.506
284.1780, 2363.467
285.3880, 2319.344
286.5980, 2252.211
287.8090, 2180.140
289.0190, 2047.016
290.2290, 1921.955
291.4380, 1737.936
292.6480, 1607.852
293.8570, 1476.766
295.0670, 1392.659
296.2760, 1266.554
297.4850, 1143.306
298.6930, 1024.213
299.9020, 884.1138
301.1110, 804.0155
302.3190, 664.3530
303.5270, 620.3210
304.7350, 547.2754
305.9430, 500.1802
307.1510, 455.1194
308.3580, 448.7040
309.5660, 329.6917
310.7730, 357.5920
311.9800, 289.4990
313.1870, 292.3989
314.3940, 313.5537
315.6010, 234.5002
316.8070, 236.4026
318.0130, 238.2955
319.2200, 225.1875
320.4260, 201.0784
321.6310, 210.9683
322.8370, 168.9337
324.0430, 209.8259
325.2480, 167.5079
326.4540, 183.3922
327.6590, 133.2747
328.8640, 186.1553
330.0680, 161.0334
331.2730, 161.9095
332.4780, 153.7827
333.6820, 159.6533
334.8860, 118.5210
336.0900, 128.4033
337.2940, 162.2654
338.4980, 134.1246
339.7010, 92.98096
340.9050, 116.8344
342.1080, 95.68481
343.3110, 79.53223
344.5140, 61.37671
345.7170, 51.29517
346.9200, 41.93457
348.1220, 37.90588
349.3240, 43.73828
350.5270, 45.56763
351.7290, 76.39404
352.9310, 7.217285
354.1320, 7.770264
355.3340, 39.58704
356.5350, 12.59949
357.7370, 43.14343
358.9380, 24.94629
360.1390, 1.745972
361.3400, 11.54150
362.5400, 34.33350
363.7410, 50.12231
364.9410, 29.90784
366.1410, 24.69006
367.3410, 47.46899
368.5410, 5.244629
369.7410, 44.01660
370.9400, 6.784546
372.1400, 46.21118
373.3390, 18.95300
374.5380, 5.711426
375.7370, 1.533691
376.9360, 31.21606
378.1350, 2.962402
379.3330, 27.70447
380.5310, 18.44324
381.7300, 26.82654
382.9280, 21.89099
384.1260, 12.60510
385.3230, 9.315918
386.5210, 18.02332
387.7180, 22.27295
388.9160, 46.42004
390.1130, 0.1094970
391.3100, 1.207764
392.5060, 31.53052
393.7030, 4.124390
394.9000, 7.775269
396.0960, 17.57739
397.2920, 26.05298
398.4880, 39.32324
399.6840, 46.27478
400.8800, 8.863403
402.0750, 63.43652
403.2710, 10.00696
404.4660, 0.5742190
405.6610, 40.13647
406.8560, 8.696899
408.0510, 26.74475
409.2450, 40.79541
410.4400, 22.66614
411.6340, 2.144531
412.8280, 27.37134
414.0220, 23.88538
415.2160, 33.39722
416.4100, 10.90662
417.6030, 7.586670
418.7970, 10.08984
419.9900, 17.39575
421.1830, 8.878418
422.3760, 17.64209
423.5690, 26.82190
424.7610, 2.283203
425.9540, 45.73975
427.1460, 7.193359
428.3380, 23.64355
429.5300, 59.09058
430.7220, 13.53491
431.9140, 52.97583
433.1050, 13.41394
434.2970, 7.848877
435.4880, 20.27979
436.6790, 21.70764
437.8700, 54.13232
439.0610, 32.55396
440.2510, 8.027344
441.4420, 25.38086
442.6320, 59.78564
443.8220, 28.18762
445.0120, 1.413452
446.2020, 11.97827
447.3910, 15.36646
448.5810, 42.75098
449.7700, 19.13269
450.9600, 5.489014
452.1490, 8.880005
453.3370, 86.24512
454.5260, 25.60730
455.7150, 44.96643
456.9030, 30.67749
458.0910, 15.65601
459.2800, 24.98608
460.4670, 51.31311
461.6550, 34.63721
462.8430, 38.95813
464.0300, 41.27600
465.2180, 9.590820
466.4050, 25.48816
467.5920, 7.789795
468.7790, 34.50806
469.9650, 28.80298
471.1520, 33.09497
472.3380, 30.38367
473.5250, 30.90955
474.7110, 46.95251
475.8970, 35.23242
477.0820, 45.19141
478.2680, 21.81348
479.4540, 53.05444
480.6390, 45.32239
481.8240, 47.59131
483.0090, 67.85730
484.1940, 34.12036
485.3780, 57.39270
486.5630, 42.66345
487.7470, 21.93127
488.9320, 52.20264
490.1160, 47.47107
491.3000, 84.73682
492.4830, 79.15906
493.6670, 81.26917
494.8500, 80.51746
496.0340, 65.73181
497.2170, 75.94678
498.4000, 54.20398
499.5820, 73.45520
500.7650, 76.70715
501.9480, 85.95630
503.1300, 44.08167
504.3120, 63.29065
505.4940, 75.53186
506.6760, 54.77600
507.8580, 84.01782
509.0390, 73.26123
510.2210, 74.49817
511.4020, 89.66626
512.5830, 71.90393
513.7640, 83.07349
514.9450, 79.30774
516.1250, 87.52747
517.3060, 98.68030
518.4860, 87.53552
519.6660, 87.75989
520.8460, 85.86157
522.0260, 78.08887
523.2060, 94.29700
524.3850, 117.5403
525.5650, 112.3429
526.7440, 90.93347
527.9230, 113.0977
529.1020, 100.2968
530.2810, 84.80908
531.4590, 91.03723
532.6380, 88.94995
533.8160, 129.7742
534.9940, 121.6896
536.1720, 75.78235
537.3500, 102.9236
538.5270, 67.69946
539.7050, 88.92102
540.8820, 140.3234
542.0590, 73.54126
543.2360, 104.6785
544.4130, 106.8939
545.5900, 105.0361
546.7660, 102.9280
547.9430, 90.13867
549.1190, 115.2637
550.2950, 110.4327
551.4710, 102.6390
552.6470, 134.0598
553.8220, 139.7698
554.9980, 128.9752
556.1730, 87.16675
557.3480, 140.3695
558.5230, 116.5015
559.6980, 83.86230
560.8730, 95.06458
562.0470, 113.2218
563.2220, 63.33105
564.3960, 104.0568
565.5700, 125.2549
566.7440, 73.22205
567.9170, 100.4235
569.0910, 69.51929
570.2640, 81.70349
571.4380, 101.9020
572.6110, 117.0419
573.7840, 115.0873
574.9570, 114.3756
576.1290, 103.4731
577.3020, 82.63721
578.4740, 67.80615
579.6460, 78.99780
580.8180, 67.18872
581.9900, 76.52368
583.1620, 55.70447
584.3330, 77.89258
585.5040, 89.07983
586.6760, 66.83142
587.8470, 60.95911
589.0180, 82.10022
590.1880, 59.29053
591.3590, 57.44580
592.5290, 47.95129
593.7000, 78.05225
594.8700, 25.23950
596.0400, 107.4194
597.2090, 67.60510
598.3790, 93.53503
599.5490, 65.67175
600.7180, 26.84729
601.8870, 56.03064
603.0560, 112.2134
604.2250, 28.39563
605.3940, 58.57727
606.5620, 55.68152
607.7300, 52.85706
608.8990, 73.24097
610.0670, 65.42053
611.2350, 70.59973
612.4020, 68.78333
613.5700, 64.96313
614.7370, 42.14246
615.9050, 25.32141
617.0720, 64.50281
618.2390, 67.68384
619.4060, 22.84717
620.5720, 66.02734
621.7390, 64.05200
622.9050, 44.23120
624.0710, 60.41016
625.2370, 79.41943
626.4030, 67.84839
627.5690, 81.04065
628.7340, 64.68201
629.9000, 94.85901
631.0650, 51.03516
632.2300, 69.24194
633.3950, 22.41675
634.5600, 26.59094
635.7240, 21.28369
636.8890, 30.45679
638.0530, 86.65308
639.2170, 44.82483
640.3810, 17.00012
641.5450, 74.17834
642.7080, 29.35583
643.8720, 39.53333
645.0350, 59.71021
646.1980, 73.15649
647.3610, 44.35510
648.5240, 80.54150
649.6870, 111.7151
650.8490, 68.00977
652.0120, 44.41406
653.1740, 53.60266
654.3360, 12.79443
655.4980, 51.96997
656.6600, 53.14575
657.8210, 14.32104
658.9830, 85.49719
660.1440, 82.86987
661.3050, 76.61731
662.4660, 73.39661
663.6270, 100.6979
664.7870, 77.04163
665.9480, 74.22131
667.1080, 46.65332
668.2680, 49.08459
669.4280, 86.07910
670.5880, 58.26294
671.7480, 94.20044
672.9070, 74.38306
674.0670, 113.5667
675.2260, 83.75867
676.3850, 34.95020
677.5440, 71.14062
678.7030, 101.3364
679.8610, 50.53064
681.0200, 90.73560
682.1780, 113.0576
683.3360, 105.2604
684.4940, 92.46167
685.6520, 92.66760
686.8090, 106.8737
687.9670, 87.09583
689.1240, 129.2997
690.2810, 165.5110
691.4380, 157.7211
692.5950, 169.5656
693.7520, 174.7831
694.9080, 184.9989
696.0650, 196.4685
697.2210, 215.4268
698.3770, 231.6387
699.5330, 245.8533
700.6880, 287.0710
701.8440, 329.2874
702.9990, 363.5027
704.1550, 439.8832
705.3100, 531.1021
706.4650, 550.1746
707.6190, 701.3916
708.7740, 776.6077
709.9290, 800.8223
711.0830, 996.0354
712.2370, 1119.247
713.3910, 1249.458
714.5450, 1442.667
715.6980, 1587.875
716.8520, 1691.081
718.0050, 1755.286
719.1580, 1921.490
720.3110, 1896.692
721.4640, 1817.897
722.6170, 1604.100
723.7700, 1468.302
724.9220, 1305.502
726.0740, 1179.134
727.2260, 891.3333
728.3780, 811.5311
729.5300, 698.7273
730.6810, 569.9219
731.8330, 514.1182
732.9840, 356.3131
734.1350, 304.5063
735.2860, 303.6979
736.4370, 244.8879
737.5880, 174.0859
738.7380, 184.2825
739.8880, 91.47754
741.0390, 92.67065
742.1890, 102.8623
743.3380, 85.05225
744.4880, 68.24036
745.6380, 64.42749
746.7870, 38.61255
747.9360, 30.79993
749.0850, 66.98535
750.2340, 14.16919
751.3830, 66.65405
752.5310, 25.83447
753.6800, 47.01318
754.8280, 62.82544
755.9760, 40.00073
757.1240, 69.17407
758.2720, 25.34595
759.4190, 9.484009
760.5670, 22.67664
761.7140, 53.83557
762.8610, 41.00720
764.0080, 0.1239010
765.1550, 19.25073
766.3020, 19.62439
767.4480, 43.69165
768.5950, 16.80029
769.7410, 8.907104
770.8870, 32.01184
772.0330, 23.11487
773.1780, 19.78394
774.3240, 38.30237
775.4690, 10.38696
776.6140, 24.46948
777.7590, 31.55029
778.9040, 46.40723
780.0490, 45.48438
781.1940, 16.55981
782.3380, 34.63342
783.4820, 15.29468
784.6260, 10.76416
785.7700, 11.17883
786.9140, 28.86731
788.0580, 3.911865
789.2010, 2.196777
790.3450, 14.23401
791.4880, 13.26929
792.6310, 32.30261
793.7730, 30.57324
794.9160, 32.60315
796.0590, 18.63123
797.2010, 13.34253
798.3430, 3.396362
799.4850, 3.938232
800.6270, 4.678467
801.7690, 3.675049
802.9100, 20.66833
804.0520, 14.34021
805.1930, 1.638306
806.3340, 23.38721
807.4750, 35.64380
808.6160, 22.40100
809.7560, 16.53723
810.8970, 49.47375
812.0370, 42.40857
813.1770, 45.79578
814.3170, 35.27332
815.4570, 19.20288
816.5960, 22.13098
817.7360, 27.05725
818.8750, 3.981812
820.0140, 41.90332
821.1530, 28.82312
822.2920, 48.97107
823.4310, 32.88757
824.5690, 9.802368
825.7070, 32.71545
826.8460, 51.62695
827.9840, 22.53650
829.1220, 4.555542
830.2590, 34.34497
831.3970, 34.24377
832.5340, 23.14111
833.6710, 23.03674
834.8080, 31.93054
835.9450, 23.82300
837.0820, 19.71375
838.2190, 16.60291
839.3550, 43.49048
840.4910, 13.62341
841.6270, 27.25073
842.7630, 8.876709
843.8990, 44.98657
845.0350, 46.84839
846.1700, 41.70862
847.3060, 19.56763
848.4410, 47.42493
849.5760, 32.28088
850.7100, 39.13538
851.8450, 45.98853
852.9800, 30.63635
854.1140, 46.69067
855.2480, 8.645996
856.3820, 19.49365
857.5160, 9.340088
858.6500, 23.18518
859.7830, 10.02917
860.9170, 30.87158
862.0500, 19.28699
863.1830, 11.54065
864.3160, 17.36719
865.4480, 64.19250
866.5810, 94.01660
867.7130, 68.83984
868.8460, 62.66187
869.9780, 116.4827
871.1100, 101.3026
872.2410, 137.1213
873.3730, 92.93921
874.5050, 102.7560
875.6360, 59.57166
876.7670, 102.3864
877.8980, 71.20020
879.0290, 65.01294
880.1590, 39.82483
881.2900, 40.77490
882.4200, 22.44592
883.5500, 41.25525
884.6800, 45.06372
885.8100, 32.87122
886.9400, 3.326904
888.0690, 39.47583
889.1990, 51.27783
890.3280, 8.920776
891.4570, 4.873901
892.5860, 47.66785
893.7140, 13.46118
894.8430, 11.25391
895.9710, 47.20105
897.1000, 1.992554
898.2280, 56.78357
899.3560, 10.74316
900.4830, 12.28223
901.6110, 25.07214
902.7380, 4.631836
903.8660, 29.15564
904.9930, 24.94299
906.1200, 54.69922
907.2460, 32.48645
908.3730, 1.273682
909.5000, 51.54175
910.6260, 26.32910
911.7520, 11.09277
912.8780, 43.88049
914.0040, 16.33167
915.1290, 12.44922
916.2550, 12.23450
917.3800, 21.02039
918.5050, 4.806396
919.6300, 40.32275
920.7550, 45.08618
921.8800, 4.861450
923.0040, 43.64905
924.1290, 25.68103
925.2530, 35.87354
926.3770, 23.64355
927.5010, 15.41052
928.6250, 7.806519
929.7480, 7.060181
930.8720, 4.773438
931.9950, 27.56458
933.1180, 25.15906
934.2410, 19.37952
935.3640, 47.56787
936.4860, 7.234375
937.6090, 45.86719
938.7310, 28.66382
939.8530, 64.21033
940.9750, 24.75806
942.0970, 4.257568
943.2180, 27.54480
944.3400, 14.59363
945.4610, 14.40063
946.5820, 18.20996
947.7030, 20.02332
948.8240, 24.99426
949.9450, 13.65491
951.0650, 36.47302
952.1860, 6.292847
953.3060, 9.114380
954.4260, 58.81934
955.5460, 33.65845
956.6650, 31.50061
957.7850, 58.33093
958.9040, 11.16443
960.0230, 2.982300
961.1420, 7.819336
962.2610, 33.65820
963.3800, 2.499023
964.4990, 23.71362
965.6170, 7.558350
966.7350, 59.40491
967.8530, 32.25354
968.9710, 8.109985
970.0890, 61.96875
971.2070, 52.82947
972.3240, 41.69214
973.4410, 32.55713
974.5580, 44.42419
975.6750, 22.13318
976.7920, 84.00562
977.9090, 50.02637
979.0250, 71.90332
980.1410, 78.78906
981.2580, 79.67725
982.3740, 50.56775
983.4890, 58.46069
984.6050, 25.35608
985.7200, 58.25391
986.8360, 80.15417
987.9510, 45.05676
989.0660, 7.035767
990.1810, 60.87292
991.2950, 49.78430
992.4100, 83.69824
993.5240, 27.61816
994.6390, 63.54480
995.7530, 88.47412
996.8660, 80.97839
997.9800, 97.91675
999.0940, 98.85754
1000.207, 102.8014
1001.320, 76.74841
1002.433, 59.69836
1003.546, 92.65100
1004.659, 101.6064
1005.772, 111.5647
1006.884, 90.52588
1007.996, 101.7589
1009.108, 104.9165
1010.220, 112.4261
1011.332, 123.3988
1012.444, 151.3757
1013.555, 168.3555
1014.666, 182.3381
1015.777, 218.3251
1016.888, 204.3152
1017.999, 182.3080
1019.110, 259.3042
1020.220, 177.3032
1021.331, 272.0026
1022.441, 204.0078
1023.551, 213.0161
1024.661, 240.3961
1025.770, 255.4178
1026.880, 288.4429
1027.989, 295.6930
1029.098, 312.5023
1030.207, 318.5443
1031.316, 309.5897
1032.425, 331.6383
1033.533, 319.7021
1034.642, 355.7703
1035.750, 340.8417
1036.858, 368.7170
1037.966, 425.8015
1039.073, 423.8911
1040.181, 416.9843
1041.288, 472.0813
1042.396, 513.1812
1043.503, 474.2914
1044.610, 473.4045
1045.716, 472.5214
1046.823, 574.6414
1047.929, 507.9871
1049.036, 565.0486
1050.142, 578.1785
1051.248, 585.3116
1052.353, 639.4481
1053.459, 719.5933
1054.564, 695.7419
1055.670, 707.8981
1056.775, 769.7750
1057.880, 731.6948
1058.985, 866.8623
1060.089, 889.0333
1061.194, 958.2081
1062.298, 1121.065
1063.402, 1171.246
1064.506, 1316.431
1065.610, 1438.618
1066.713, 1561.814
1067.817, 1689.016
1068.920, 1849.223
1070.023, 2013.434
1071.126, 2110.650
1072.229, 2304.222
1073.332, 2504.449
1074.435, 2840.679
1075.537, 3211.848
1076.639, 3714.093
1077.741, 4498.718
1078.843, 5263.105
1079.945, 6644.917
1081.046, 8554.184
1082.148, 11173.46
1083.249, 14921.74
1084.350, 20836.02
1085.451, 28266.30
1086.551, 37179.59
1087.652, 47784.19
1088.752, 57161.48
1089.853, 62681.54
1090.953, 63723.85
1092.053, 59720.16
1093.152, 52104.46
1094.252, 42394.76
1095.351, 32696.08
1096.451, 24572.39
1097.550, 18391.71
1098.649, 13542.03
1099.748, 10070.36
1100.846, 7379.032
1101.945, 5529.368
1103.043, 4163.706
1104.141, 3039.046
1105.239, 2345.389
1106.337, 1882.736
1107.434, 1542.085
1108.532, 1270.602
1109.629, 1067.962
1110.726, 846.3270
1111.823, 843.1748
1112.920, 688.5452
1114.017, 587.9181
1115.113, 546.2931
1116.210, 510.6704
1117.306, 500.0498
1118.402, 467.4315
1119.498, 418.8156
1120.593, 367.6599
1121.689, 357.9420
1122.784, 334.3519
1123.879, 319.7443
1124.974, 259.9031
1126.069, 275.2354
1127.164, 241.6339
1128.259, 244.8745
1129.353, 231.2832
1130.447, 208.6936
1131.541, 161.1068
1132.635, 180.6267
1133.729, 137.0505
1134.822, 156.4695
1135.916, 146.8901
1137.009, 162.3126
1138.102, 121.7367
1139.195, 72.16248
1140.288, 91.58984
1141.380, 66.02722
1142.473, 62.23486
1143.565, 118.1841
1144.657, 47.61780
1145.749, 85.05310
1146.841, 50.74158
1147.932, 89.22949
1149.024, 49.66895
1150.115, 56.14514
1151.206, 86.58752
1152.297, 42.06189
1153.388, 64.53455
1154.479, 68.98242
1155.569, 65.32385
1156.659, 64.30762
1157.750, 76.01453
1158.839, 41.50342
1159.929, 40.96008
1161.019, 33.30896
1162.108, 65.76758
1163.198, 68.26392
1164.287, 58.72461
1165.376, 43.18628
1166.465, 60.64880
1167.553, 13.11194
1168.642, 7.617676
1169.730, 26.54907
1170.818, 22.04224
1171.906, 34.62329
1172.994, 31.11316
1174.082, 15.58154
1175.170, 14.05029
1176.257, 65.59937
1177.344, 42.06909
1178.431, 27.59412
1179.518, 18.92700
1180.605, 52.53918
1181.691, 40.00574
1182.778, 48.47266
1183.864, 10.93994
1184.950, 40.43262
1186.036, 53.90039
1187.122, 14.63159
1188.207, 35.83008
1189.292, 42.29749
1190.378, 31.76501
1191.463, 34.37329
1192.548, 33.15894
1193.632, 22.29333
1194.717, 27.74573
1195.801, 21.19800
1196.886, 84.65039
1197.970, 28.10266
1199.054, 33.55469
1200.137, 17.00671
1201.221, 5.458496
1202.305, 7.089844
1203.388, 24.35803
1204.471, 15.80554
1205.554, 18.25281
1206.637, 56.70007
1207.719, 6.853149
1208.802, 2.410400
1209.884, 9.319580
1210.966, 18.11536
1212.048, 61.45422
1213.130, 32.88806
1214.212, 85.32104
1215.293, 1.753540
1216.374, 8.184937
1217.456, 52.38416
1218.536, 49.01733
1219.617, 49.50122
1220.698, 42.94507
1221.778, 47.39221
1222.859, 53.83459
1223.939, 27.23755
1225.019, 9.212036
1226.099, 27.66028
1227.178, 39.06006
1228.258, 32.48962
1229.337, 66.90564
1230.417, 19.65002
1231.496, 25.70251
1232.574, 12.09998
1233.653, 58.48145
1234.732, 57.86182
1235.810, 27.44214
1236.888, 68.82007
1237.966, 0.2330320
1239.044, 22.64294
1240.122, 71.01501
1241.199, 20.53906
1242.277, 11.81750
1243.354, 25.18103
1244.431, 38.53467
1245.508, 23.91663
1246.585, 94.26758
1247.661, 33.61877
1248.738, 50.96851
1249.814, 3.683228
1250.890, 25.69775
1251.966, 7.039673
1253.042, 75.38330
1254.117, 8.274414
1255.193, 10.94019
1256.268, 50.38403
1257.343, 9.293213
1258.418, 85.02222
1259.493, 58.33423
1260.567, 24.83179
1261.642, 3.140503
1262.716, 12.50342
1263.790, 24.87073
1264.864, 18.17285
1265.938, 61.47327
1267.011, 22.77185
1268.085, 50.06873
1269.158, 52.36389
1270.231, 13.65723
1271.304, 28.94849
1272.377, 0.2380370
1273.450, 25.52271
1274.522, 72.80554
1275.594, 1.086792
1276.666, 6.363403
1277.738, 46.63757
1278.810, 8.909912
1279.882, 56.17993
1280.953, 10.44812
1282.025, 11.71436
1283.096, 42.97815
1284.167, 8.759644
1285.238, 6.507568
1286.308, 11.73584
1287.379, 10.97717
1288.449, 41.21606
1289.519, 8.546753
1290.589, 48.68103
1291.659, 10.90686
1292.729, 73.13062
1293.798, 56.35217
1294.868, 21.57178
1295.937, 20.78992
1297.006, 10.77698
1298.075, 1.511230
1299.143, 14.42725
1300.212, 5.632568
1301.280, 15.83447
1302.348, 61.03418
1303.416, 48.23169
1304.484, 7.427246
1305.552, 85.61975
1306.620, 9.810303
1307.687, 20.99817
1308.754, 34.24890
1309.821, 60.43237
1310.888, 49.61414
1311.955, 49.79761
1313.021, 15.97925
1314.088, 27.15820
1315.154, 58.33630
1316.220, 84.79492
1317.286, 92.96851
1318.352, 26.13953
1319.417, 4.307617
1320.483, 60.47083
1321.548, 40.71216
1322.613, 66.86975
1323.678, 68.37122
1324.743, 41.17883
1325.807, 49.33032
1326.872, 26.48010
1327.936, 28.98169
1329.000, 36.77319
1330.064, 35.91370
1331.128, 32.69397
1332.191, 41.61206
1333.255, 85.95618
1334.318, 35.08447
1335.381, 40.20996
1336.444, 45.96411
1337.507, 6.046387
1338.569, 44.51965
1339.632, 10.36914
1340.694, 37.73071
1341.756, 57.82861
1342.818, 65.92346
1343.880, 30.01587
1344.941, 83.10632
1346.003, 44.87683
1347.064, 2.963013
1348.125, 10.04675
1349.186, 9.128662
1350.247, 10.20837
1351.308, 41.28589
1352.368, 6.638428
1353.428, 8.432861
1354.489, 34.50220
1355.549, 12.56848
1356.608, 15.63220
1357.668, 8.693970
1358.727, 13.59070
1359.787, 15.46301
1360.846, 53.51514
1361.905, 42.56567
1362.964, 1.385742
1364.022, 26.66028
1365.081, 10.70483
1366.139, 10.58655
1367.197, 74.62732
1368.255, 3.666626
1369.313, 34.22412
1370.371, 16.26013
1371.428, 57.29468
1372.486, 11.37659
1373.543, 64.40820
1374.600, 28.80591
1375.657, 37.83472
1376.713, 20.87158
1377.770, 9.507935
1378.826, 42.57141
1379.882, 50.38965
1380.938, 45.46118
1381.994, 34.78455
1383.050, 42.86829
1384.106, 21.89575
1385.161, 17.07251
1386.216, 41.11560
1387.271, 2.869751
1388.326, 31.15881
1389.381, 4.065186
1390.435, 3.068726
1391.490, 38.07776
1392.544, 75.08594
1393.598, 66.06226
1394.652, 33.09998
1395.705, 67.10608
1396.759, 45.11157
1397.812, 54.10803
1398.866, 57.82056
1399.919, 57.55481
1400.972, 59.82629
1402.024, 70.82971
1403.077, 78.58105
1404.129, 82.53430
1405.181, 52.53723
1406.233, 52.50476
1407.285, 56.50769
1408.337, 114.4801
1409.389, 99.45715
1410.440, 140.4597
1411.491, 87.56470
1412.542, 97.80847
1413.593, 93.77502
1414.644, 119.7239
1415.695, 153.7856
1416.745, 218.9998
1417.795, 229.0275
1418.845, 262.0234
1419.895, 265.0035
1420.945, 295.9839
1421.995, 300.1083
1423.044, 279.1208
1424.093, 299.0691
1425.142, 314.6438
1426.191, 418.5985
1427.240, 489.4661
1428.289, 482.4257
1429.337, 548.4077
1430.385, 592.5964
1431.433, 584.2944
1432.481, 675.2729
1433.529, 688.1943
1434.577, 682.1749
1435.624, 730.1506
1436.672, 782.1964
1437.719, 800.1006
1438.766, 790.0454
1439.812, 701.0256
1440.859, 714.2605
1441.905, 641.2682
1442.952, 563.1475
1443.998, 537.9924
1445.044, 481.7513
1446.090, 452.6797
1447.135, 414.8309
1448.181, 411.8406
1449.226, 387.8472
1450.271, 378.8503
1451.316, 350.0518
1452.361, 324.9996
1453.405, 287.8478
1454.450, 258.8428
1455.494, 226.1428
1456.538, 176.1588
1457.582, 154.4374
1458.626, 140.3202
1459.670, 124.1144
1460.713, 136.9847
1461.757, 178.8961
1462.800, 196.2413
1463.843, 165.1790
1464.886, 133.1116
1465.928, 174.9087
1466.971, 152.8783
1468.013, 138.6217
1469.055, 98.55835
1470.097, 83.49414
1471.139, 85.38721
1472.181, 125.3684
1473.222, 125.3207
1474.263, 70.30408
1475.305, 98.23889
1476.346, 80.21851
1477.386, 54.88965
1478.427, 90.18640
1479.468, 26.18335
1480.508, 76.92578
1481.548, 98.75500
1482.588, 72.74792
1483.628, 79.73999
1484.668, 96.73096
1485.707, 55.72119
1486.747, 66.71436
1487.786, 56.70874
1488.825, 40.70483
1489.864, 22.70056
1490.902, 64.69568
1491.941, 71.69653
1492.979, 83.71375
1494.017, 34.73132
1495.055, 59.75916
1496.093, 60.78687
1497.131, 9.814331
1498.168, 60.84094
1499.206, 7.124878
1500.243, 22.91235
1501.280, 19.95032
1502.317, 5.990479
1503.354, 13.30933
1504.390, 13.92505
1505.426, 11.10291
1506.463, 7.130005
1507.499, 29.15552
1508.535, 21.18628
1509.570, 60.23059
1510.606, 17.27881
1511.641, 50.32776
1512.676, 20.37732
1513.711, 52.43457
1514.746, 86.51880
1515.781, 51.60559
1516.816, 49.69824
1517.850, 37.80859
1518.884, 28.93640
1519.918, 89.08496
1520.952, 45.24341
1521.986, 116.4106
1523.019, 58.58545
1524.053, 48.76819
1525.086, 44.95886
1526.119, 38.16077
1527.152, 63.37878
1528.185, 43.60596
1529.217, 74.84326
1530.250, 64.09131
1531.282, 57.35083
1532.314, 64.62207
1533.346, 55.90552
1534.377, 70.03662
1535.409, 64.06763
1536.440, 54.31421
1537.472, 53.21118
1538.503, 44.22717
1539.534, 11.16553
1540.564, 6.327148
1541.595, 17.41907
1542.625, 20.56030
1543.656, 43.77600
1544.686, 50.99744
1545.716, 6.223022
1546.745, 25.45032
1547.775, 31.67773
1548.804, 19.90381
1549.834, 50.12524
1550.863, 75.33911
1551.892, 74.03467
1552.920, 70.73291
1553.949, 75.99243
1554.977, 77.37573
1556.006, 51.21545
1557.034, 46.78748
1558.062, 38.20398
1559.089, 88.81274
1560.117, 24.33374
1561.144, 6.466187
1562.172, 75.71082
1563.199, 77.83350
1564.226, 12.13867
1565.252, 41.43445
1566.279, 29.60205
1567.305, 37.02563
1568.332, 10.03662
1569.358, 17.92407
1570.384, 0.0000000E+00
##END=



