##NAMES=Ankerite
##RRUFFID=R050197
##IDEAL CHEMISTRY=CaFe^2+^(CO_3_)_2_
##LOCALITY=Brownley Hill mine, Nenthead, Cumbria, England
##OWNER=RRUFF
##SOURCE=Marcus Origlieri
##DESCRIPTION=Curved saddle-shaped rhombohedral crystals
##STATUS=The identification of this mineral has been confirmed by X-ray diffraction and chemical analysis
##URL=rruff.info/R050197
##MEASURED CHEMISTRY=Ca_1.00_(Fe^2+^_0.52_Mg_0.35_Ca_0.08_Mn^2+^_0.05_)_Î£=1_(CO_3_)_2_ ; where C was not measured but estimated by difference and stoichiometry
##PIN_ID=M00092
##ORIENTATION=Laser parallel to a* (1 0 0). Fiducial mark perpendicular to laser is parallel to c [0 0 1]
114.4400, 0.0000000E+00
115.6710, 13.69336
116.9030, 133.1592
118.1340, 38.64355
119.3650, 103.7695
120.5960, 12.62207
121.8270, 2.504883
123.0580, 56.43164
124.2880, 32.68945
125.5190, 92.91699
126.7490, 102.7451
127.9790, 197.0215
129.2090, 251.5342
130.4390, 332.6689
131.6680, 449.3584
132.8980, 555.0254
134.1270, 684.3145
135.3560, 827.2061
136.5850, 931.6055
137.8140, 1088.818
139.0430, 1117.433
140.2710, 1234.525
141.5000, 1387.058
142.7280, 1334.997
143.9560, 1313.314
145.1840, 1448.984
146.4120, 1278.981
147.6390, 1314.292
148.8670, 1293.897
150.0940, 1166.780
151.3210, 1170.920
152.5490, 1327.295
153.7750, 1221.883
155.0020, 1329.672
156.2290, 1362.651
157.4550, 1583.815
158.6810, 1677.153
159.9080, 1899.655
161.1340, 1985.313
162.3590, 2225.118
163.5850, 2248.062
164.8110, 2608.138
166.0360, 2875.344
167.2610, 2810.676
168.4860, 2856.132
169.7110, 2724.705
170.9360, 2742.391
172.1610, 2699.182
173.3850, 2320.074
174.6100, 1903.073
175.8340, 1815.170
177.0580, 1462.354
178.2820, 1284.618
179.5050, 1072.081
180.7290, 785.6113
181.9520, 766.2344
183.1760, 687.9463
184.3990, 539.7129
185.6220, 457.5312
186.8450, 358.4258
188.0670, 462.3428
189.2900, 621.2295
190.5120, 410.1143
191.7340, 418.9746
192.9560, 228.8652
194.1780, 436.8584
195.4000, 494.9678
196.6220, 291.1357
197.8430, 409.3281
199.0640, 300.5898
200.2860, 318.8984
201.5070, 278.2549
202.7270, 280.6699
203.9480, 194.1035
205.1690, 168.5615
206.3890, 65.04590
207.6090, 95.57910
208.8290, 78.12988
210.0490, 169.7061
211.2690, 33.30176
212.4890, 17.91309
213.7080, 53.57617
214.9280, 17.85449
216.1470, 241.0723
217.3660, 79.86621
218.5850, 96.81543
219.8030, 170.7988
221.0220, 72.80566
222.2400, 25.82715
223.4590, 109.8848
224.6770, 125.9648
225.8950, 133.3086
227.1120, 180.4258
228.3300, 154.2598
229.5480, 182.4238
230.7650, 169.5898
231.9820, 63.75879
233.1990, 290.9277
234.4160, 26.76367
235.6330, 235.9287
236.8490, 141.1104
238.0660, 191.3252
239.2820, 366.5107
240.4980, 370.6934
241.7140, 253.8711
242.9300, 465.0889
244.1460, 382.2939
245.3610, 526.4062
246.5770, 439.5156
247.7920, 576.6191
249.0070, 739.1055
250.2220, 747.1680
251.4370, 773.3213
252.6510, 922.3711
253.8660, 985.5498
255.0800, 1219.705
256.2940, 1225.737
257.5080, 1420.369
258.7220, 1744.373
259.9360, 1864.827
261.1490, 2061.771
262.3630, 2321.577
263.5760, 2440.881
264.7890, 2697.234
266.0020, 3066.671
267.2150, 3331.674
268.4270, 3625.307
269.6400, 3928.990
270.8520, 4535.063
272.0640, 4852.330
273.2760, 5370.318
274.4880, 5886.459
275.7000, 6114.219
276.9120, 6541.639
278.1230, 6841.983
279.3340, 7059.360
280.5450, 7398.783
281.7560, 7341.167
282.9670, 7604.842
284.1780, 7594.620
285.3880, 7580.783
286.5980, 7441.549
287.8090, 7162.325
289.0190, 6907.060
290.2290, 6416.998
291.4380, 6150.002
292.6480, 5834.962
293.8570, 5109.834
295.0670, 4599.029
296.2760, 4347.863
297.4850, 4080.871
298.6930, 3584.191
299.9020, 3093.344
301.1110, 2831.361
302.3190, 2476.641
303.5270, 2256.027
304.7350, 1916.300
305.9430, 1764.519
307.1510, 1523.586
308.3580, 1345.783
309.5660, 1123.812
310.7730, 1033.515
311.9800, 1125.508
313.1870, 866.4609
314.3940, 858.5410
315.6010, 736.8906
316.8070, 663.9609
318.0130, 558.9902
319.2200, 623.9902
320.4260, 537.2607
321.6310, 580.8564
322.8370, 429.0225
324.0430, 550.2471
325.2480, 530.4629
326.4540, 310.8096
327.6590, 422.0635
328.8640, 312.2061
330.0680, 280.1172
331.2730, 273.4082
332.4780, 250.0527
333.6820, 146.0742
334.8860, 191.0996
336.0900, 202.1123
337.2940, 110.1221
338.4980, 288.1270
339.7010, 191.2598
340.9050, 251.6562
342.1080, 211.6436
343.3110, 91.24707
344.5140, 174.3203
345.7170, 279.2881
346.9200, 25.30371
348.1220, 95.37402
349.3240, 283.4590
350.5270, 76.52051
351.7290, 19.55176
352.9310, 195.3643
354.1320, 113.6367
355.3340, 96.83301
356.5350, 177.8135
357.7370, 119.2188
358.9380, 0.5664060
360.1390, 77.64355
361.3400, 126.5557
362.5400, 175.5010
363.7410, 199.5186
364.9410, 86.14160
366.1410, 154.9443
367.3410, 100.7354
368.5410, 70.21289
369.7410, 29.46387
370.9400, 94.32324
372.1400, 0.9570310
373.3390, 27.96777
374.5380, 26.85254
375.7370, 127.5312
376.9360, 168.1973
378.1350, 82.84961
379.3330, 200.4844
380.5310, 51.89355
381.7300, 47.70410
382.9280, 39.30664
384.1260, 96.87500
385.3230, 118.4092
386.5210, 6.971680
387.7180, 100.7363
388.9160, 110.2207
390.1130, 3.844727
391.3100, 122.3008
392.5060, 51.74414
393.7030, 12.48633
394.9000, 143.1611
396.0960, 237.5449
397.2920, 5.914063
398.4880, 16.47949
399.6840, 92.92871
400.8800, 71.64941
402.0750, 68.21191
403.2710, 47.76953
404.4660, 27.03711
405.6610, 40.38477
406.8560, 40.29980
408.0510, 7.109375
409.2450, 68.32520
410.4400, 112.5527
411.6340, 123.8066
412.8280, 17.95312
414.0220, 27.40918
415.2160, 7.415039
416.4100, 144.5283
417.6030, 156.5293
418.7970, 58.18164
419.9900, 41.02148
421.1830, 16.99805
422.3760, 175.9521
423.5690, 93.88965
424.7610, 45.91699
425.9540, 44.95801
427.1460, 30.81836
428.3380, 55.33691
429.5300, 53.45215
430.7220, 59.22754
431.9140, 29.96680
433.1050, 36.75098
434.2970, 28.66992
435.4880, 46.91797
436.6790, 74.58203
437.8700, 1.770508
439.0610, 95.84863
440.2510, 59.58789
441.4420, 17.82715
442.6320, 40.48438
443.8220, 77.01074
445.0120, 29.92969
446.2020, 25.41699
447.3910, 34.21582
448.5810, 46.39160
449.7700, 86.31738
450.9600, 59.03125
452.1490, 102.4180
453.3370, 6.213867
454.5260, 1.880859
455.7150, 36.96289
456.9030, 101.4443
458.0910, 47.70215
459.2800, 14.33301
460.4670, 163.5088
461.6550, 18.33496
462.8430, 117.9658
464.0300, 11.35938
465.2180, 101.7217
466.4050, 5.012695
467.5920, 91.99023
468.7790, 60.88086
469.9650, 84.09277
471.1520, 15.94141
472.3380, 0.7626950
473.5250, 75.73828
474.7110, 5.498047
475.8970, 214.6182
477.0820, 139.3271
478.2680, 233.0176
479.4540, 246.9453
480.6390, 183.8145
481.8240, 113.4473
483.0090, 69.93848
484.1940, 173.6006
485.3780, 38.11816
486.5630, 124.6123
487.7470, 172.0840
488.9320, 136.5381
490.1160, 121.9707
491.3000, 117.3857
492.4830, 121.7812
493.6670, 169.1553
494.8500, 158.9619
496.0340, 66.29785
497.2170, 82.63867
498.4000, 20.93066
499.5820, 48.20020
500.7650, 73.45215
501.9480, 72.65723
503.1300, 141.8711
504.3120, 132.0869
505.4940, 169.0000
506.6760, 337.4746
507.8580, 185.6387
509.0390, 170.9209
510.2210, 96.04883
511.4020, 199.2402
512.5830, 144.3398
513.7640, 279.4219
514.9450, 106.4053
516.1250, 113.4453
517.3060, 249.4648
518.4860, 170.4639
519.6660, 172.4463
520.8460, 279.4121
522.0260, 191.6230
523.2060, 184.8184
524.3850, 155.7305
525.5650, 261.7168
526.7440, 194.6162
527.9230, 240.7363
529.1020, 99.50391
530.2810, 355.3467
531.4590, 127.1846
532.6380, 269.8740
533.8160, 218.6719
534.9940, 86.45020
536.1720, 100.0967
537.3500, 258.8359
538.5270, 204.5547
539.7050, 107.0918
540.8820, 148.3545
542.0590, 71.01660
543.2360, 103.6533
544.4130, 102.2012
545.5900, 288.2334
546.7660, 148.7832
547.9430, 190.3525
549.1190, 279.0381
550.2950, 121.4746
551.4710, 203.4873
552.6470, 163.0820
553.8220, 164.5312
554.9980, 128.0791
556.1730, 223.3145
557.3480, 33.42090
558.5230, 179.8623
559.6980, 103.2021
560.8730, 107.9854
562.0470, 306.1504
563.2220, 184.4238
564.3960, 229.7041
565.5700, 92.96484
566.7440, 171.2910
567.9170, 217.3711
569.0910, 176.3682
570.2640, 228.9971
571.4380, 182.0391
572.6110, 141.0811
573.7840, 290.1758
574.9570, 98.07715
576.1290, 26.91699
577.3020, 221.8037
578.4740, 192.7803
579.6460, 161.4346
580.8180, 118.4502
581.9900, 177.2881
583.1620, 29.18945
584.3330, 158.4873
585.5040, 52.29102
586.6760, 150.8271
587.8470, 71.24805
589.0180, 95.77344
590.1880, 225.3428
591.3590, 78.05469
592.5290, 164.6250
593.7000, 281.3545
594.8700, 232.1279
596.0400, 17.13574
597.2090, 107.8994
598.3790, 52.47949
599.5490, 44.84082
600.7180, 198.4238
601.8870, 256.0322
603.0560, 82.65527
604.2250, 6.990234
605.3940, 107.9795
606.5620, 59.38281
607.7300, 111.7080
608.8990, 150.2148
610.0670, 51.92188
611.2350, 243.2051
612.4020, 324.7168
613.5700, 86.28906
614.7370, 156.4629
615.9050, 37.25586
617.0720, 184.1895
618.2390, 184.2637
619.4060, 70.79297
620.5720, 80.13281
621.7390, 275.7559
622.9050, 238.6055
624.0710, 261.5801
625.2370, 258.8340
626.4030, 195.7559
627.5690, 250.9004
628.7340, 152.6738
629.9000, 309.8496
631.0650, 209.6973
632.2300, 236.1914
633.3950, 204.3789
634.5600, 184.7949
635.7240, 324.6562
636.8890, 121.8652
638.0530, 259.7891
639.2170, 126.1543
640.3810, 210.2012
641.5450, 247.3711
642.7080, 278.5625
643.8720, 359.0371
645.0350, 308.9980
646.1980, 194.5176
647.3610, 222.8848
648.5240, 105.5117
649.6870, 190.1113
650.8490, 268.7969
652.0120, 42.28711
653.1740, 242.1777
654.3360, 162.1094
655.4980, 243.1602
656.6600, 195.8594
657.8210, 193.3301
658.9830, 316.0332
660.1440, 173.4629
661.3050, 80.15625
662.4660, 47.53320
663.6270, 230.1094
664.7870, 132.4531
665.9480, 198.4668
667.1080, 91.44727
668.2680, 150.1602
669.4280, 168.2402
670.5880, 256.7383
671.7480, 249.4746
672.9070, 345.4355
674.0670, 276.0605
675.2260, 209.5938
676.3850, 268.4922
677.5440, 198.1367
678.7030, 176.2598
679.8610, 306.0977
681.0200, 213.3438
682.1780, 206.5703
683.3360, 105.8301
684.4940, 108.1484
685.6520, 131.7812
686.8090, 135.1309
687.9670, 100.6504
689.1240, 175.2285
690.2810, 30.44336
691.4380, 125.8398
692.5950, 311.1816
693.7520, 372.7520
694.9080, 189.1035
696.0650, 252.4297
697.2210, 322.0098
698.3770, 235.6211
699.5330, 267.8301
700.6880, 356.2559
701.8440, 402.9746
702.9990, 467.6797
704.1550, 548.4941
705.3100, 588.9453
706.4650, 660.0977
707.6190, 511.6836
708.7740, 746.3574
709.9290, 634.7441
711.0830, 616.2949
712.2370, 881.4590
713.3910, 1000.467
714.5450, 1137.748
715.6980, 1257.361
716.8520, 1316.479
718.0050, 1345.572
719.1580, 1480.816
720.3110, 1754.740
721.4640, 1574.785
722.6170, 1349.428
723.7700, 1540.445
724.9220, 1411.031
726.0740, 1262.008
727.2260, 1161.635
728.3780, 981.4355
729.5300, 817.5137
730.6810, 830.1113
731.8330, 735.4336
732.9840, 547.2988
734.1350, 527.1543
735.2860, 545.3750
736.4370, 342.0527
737.5880, 432.8418
738.7380, 292.2441
739.8880, 314.0527
741.0390, 178.0566
742.1890, 213.0820
743.3380, 203.2891
744.4880, 229.2109
745.6380, 351.6699
746.7870, 129.0625
747.9360, 45.80469
749.0850, 164.1836
750.2340, 134.7715
751.3830, 183.6797
752.5310, 170.1582
753.6800, 243.8242
754.8280, 43.07227
755.9760, 14.68945
757.1240, 131.4238
758.2720, 211.0723
759.4190, 100.4902
760.5670, 19.01562
761.7140, 157.5293
762.8610, 240.3047
764.0080, 106.1328
765.1550, 187.5996
766.3020, 43.77734
767.4480, 184.0117
768.5950, 14.92969
769.7410, 74.72070
770.8870, 152.6016
772.0330, 36.93945
773.1780, 103.3477
774.3240, 81.09570
775.4690, 164.7793
776.6140, 105.0176
777.7590, 36.76953
778.9040, 83.62500
780.0490, 4.832031
781.1940, 68.29297
782.3380, 13.24609
783.4820, 68.76562
784.6260, 100.7480
785.7700, 34.70703
786.9140, 36.54688
788.0580, 187.0645
789.2010, 52.95898
790.3450, 206.4902
791.4880, 184.3906
792.6310, 100.1777
793.7730, 197.9414
794.9160, 93.68359
796.0590, 2.400391
797.2010, 44.08789
798.3430, 9.802734
799.4850, 47.22070
800.6270, 16.53516
801.7690, 85.65820
802.9100, 123.7773
804.0520, 127.2578
805.1930, 233.4922
806.3340, 6.917969
807.4750, 41.51562
808.6160, 208.1074
809.7560, 53.43359
810.8970, 294.8594
812.0370, 0.8593750
813.1770, 44.39258
814.3170, 165.6152
815.4570, 46.81836
816.5960, 50.00195
817.7360, 15.95898
818.8750, 167.2734
820.0140, 259.5996
821.1530, 242.2188
822.2920, 141.3945
823.4310, 12.34180
824.5690, 177.2715
825.7070, 159.0352
826.8460, 312.0039
827.9840, 221.4277
829.1220, 288.2324
830.2590, 135.1387
831.3970, 149.0215
832.5340, 320.2188
833.6710, 220.0605
834.8080, 125.8828
835.9450, 42.10547
837.0820, 117.1055
838.2190, 91.91992
839.3550, 11.26953
840.4910, 242.9375
841.6270, 79.58203
842.7630, 71.79492
843.8990, 125.7559
845.0350, 80.60547
846.1700, 149.1074
847.3060, 105.9023
848.4410, 181.7949
849.5760, 15.22852
850.7100, 106.6348
851.8450, 178.0176
852.9800, 272.4102
854.1140, 317.8965
855.2480, 149.0762
856.3820, 320.3789
857.5160, 285.6562
858.6500, 96.91992
859.7830, 260.2598
860.9170, 278.7051
862.0500, 236.9121
863.1830, 229.0996
864.3160, 164.2695
865.4480, 148.4160
866.5810, 358.5410
867.7130, 79.75391
868.8460, 297.8379
869.9780, 370.9004
871.1100, 183.9414
872.2410, 295.9668
873.3730, 291.9727
874.5050, 175.9805
875.6360, 384.8848
876.7670, 134.8516
877.8980, 65.79492
879.0290, 246.7129
880.1590, 127.6133
881.2900, 251.4922
882.4200, 68.64648
883.5500, 289.9941
884.6800, 215.2637
885.8100, 7.992188
886.9400, 129.5879
888.0690, 195.2969
889.1990, 179.9824
890.3280, 206.6523
891.4570, 250.7676
892.5860, 146.6934
893.7140, 100.1367
894.8430, 159.7305
895.9710, 271.0020
897.1000, 4.878906
898.2280, 115.3613
899.3560, 96.89062
900.4830, 244.1133
901.6110, 14.60156
902.7380, 56.48438
903.8660, 53.91797
904.9930, 77.54492
906.1200, 20.53711
907.2460, 3.660156
908.3730, 150.3418
909.5000, 63.29297
910.6260, 19.87109
911.7520, 175.2695
912.8780, 300.1387
914.0040, 116.8574
915.1290, 75.59570
916.2550, 5.728516
917.3800, 287.9062
918.5050, 310.9785
919.6300, 211.5664
920.7550, 168.2715
921.8800, 150.7051
923.0040, 14.13281
924.1290, 138.1582
925.2530, 146.6465
926.3770, 132.6484
927.5010, 284.6289
928.6250, 161.2383
929.7480, 153.1895
930.8720, 193.7383
931.9950, 156.5977
933.1180, 138.9082
934.2410, 139.9219
935.3640, 125.2148
936.4860, 95.29102
937.6090, 169.5391
938.7310, 256.1055
939.8530, 138.6719
940.9750, 105.4688
942.0970, 187.6035
943.2180, 71.55078
944.3400, 165.3027
945.4610, 106.4883
946.5820, 181.2090
947.7030, 199.6562
948.8240, 155.7637
949.9450, 232.3613
951.0650, 132.4492
952.1860, 41.46289
953.3060, 79.64648
954.4260, 64.40234
955.5460, 5.687500
956.6650, 58.79492
957.7850, 192.0430
958.9040, 244.5371
960.0230, 247.3574
961.1420, 394.2324
962.2610, 231.7070
963.3800, 150.1738
964.4990, 190.6270
965.6170, 258.8281
966.7350, 46.07227
967.8530, 148.4863
968.9710, 152.8867
970.0890, 73.99805
971.2070, 9.240234
972.3240, 98.28516
973.4410, 5.787109
974.5580, 223.5898
975.6750, 229.9062
976.7920, 142.7422
977.9090, 312.0547
979.0250, 35.06641
980.1410, 178.8750
981.2580, 35.96094
982.3740, 5.849609
983.4890, 219.0469
984.6050, 345.4297
985.7200, 187.2930
986.8360, 101.4473
987.9510, 179.6367
989.0660, 215.8164
990.1810, 319.8203
991.2950, 189.9766
992.4100, 137.1250
993.5240, 82.88672
994.6390, 53.01172
995.7530, 147.1406
996.8660, 147.2598
997.9800, 167.3672
999.0940, 229.3789
1000.207, 274.3164
1001.320, 77.40039
1002.433, 256.0391
1003.546, 119.1094
1004.659, 339.1660
1005.772, 391.2285
1006.884, 282.2773
1007.996, 98.53320
1009.108, 87.46094
1010.220, 285.5391
1011.332, 178.3145
1012.444, 199.7949
1013.555, 266.7656
1014.666, 166.4922
1015.777, 196.4570
1016.888, 303.5898
1017.999, 124.5332
1019.110, 401.4707
1020.220, 275.6602
1021.331, 99.39453
1022.441, 367.3418
1023.551, 266.2754
1024.661, 359.3867
1025.770, 278.3145
1026.880, 342.0977
1027.989, 343.8789
1029.098, 245.7051
1030.207, 283.0312
1031.316, 240.1484
1032.425, 551.9062
1033.533, 202.6055
1034.642, 226.4844
1035.750, 511.6270
1036.858, 178.6816
1037.966, 373.0293
1039.073, 261.4727
1040.181, 199.7949
1041.288, 487.6367
1042.396, 461.6621
1043.503, 405.2266
1044.610, 361.6133
1045.716, 301.4453
1046.823, 333.2715
1047.929, 336.5352
1049.036, 455.4199
1050.142, 410.1602
1051.248, 554.0117
1052.353, 592.8652
1053.459, 549.9219
1054.564, 482.8027
1055.670, 641.6816
1056.775, 613.9180
1057.880, 601.4180
1058.985, 513.7695
1060.089, 708.6602
1061.194, 541.5059
1062.298, 605.3457
1063.402, 722.1816
1064.506, 662.4316
1065.610, 976.1055
1066.713, 730.8945
1067.817, 879.6719
1068.920, 980.5137
1070.023, 1201.154
1071.126, 1354.873
1072.229, 1462.035
1073.332, 1669.201
1074.435, 1800.912
1075.537, 1817.746
1076.639, 1931.684
1077.741, 2255.643
1078.843, 2851.395
1079.945, 3436.350
1081.046, 4251.188
1082.148, 5559.021
1083.249, 7013.850
1084.350, 9788.668
1085.451, 12610.69
1086.551, 16166.32
1087.652, 20653.92
1088.752, 24590.00
1089.853, 28534.51
1090.953, 31316.31
1092.053, 32144.11
1093.152, 31326.92
1094.252, 28400.35
1095.351, 23992.24
1096.451, 19458.29
1097.550, 14728.28
1098.649, 10896.06
1099.748, 7980.514
1100.846, 5976.297
1101.945, 4677.078
1103.043, 3399.646
1104.141, 2435.971
1105.239, 1978.668
1106.337, 1597.018
1107.434, 1365.816
1108.532, 1083.170
1109.629, 859.4766
1110.726, 806.2812
1111.823, 790.7598
1112.920, 884.5605
1114.017, 736.2500
1115.113, 558.6055
1116.210, 639.4062
1117.306, 370.6035
1118.402, 603.4023
1119.498, 653.1660
1120.593, 662.9551
1121.689, 581.7461
1122.784, 451.5312
1123.879, 743.3145
1124.974, 413.1191
1126.069, 447.8301
1127.164, 321.5801
1128.259, 501.3770
1129.353, 507.1660
1130.447, 217.9512
1131.541, 519.1055
1132.635, 274.1484
1133.729, 228.5879
1134.822, 104.9023
1135.916, 225.7070
1137.009, 191.4102
1138.102, 118.2207
1139.195, 39.03125
1140.288, 173.8320
1141.380, 268.7520
1142.473, 91.54297
1143.565, 263.3340
1144.657, 132.1250
1145.749, 219.9102
1146.841, 89.14453
1147.932, 68.07812
1149.024, 150.6855
1150.115, 171.4473
1151.206, 56.20508
1152.297, 168.2109
1153.388, 205.9668
1154.479, 297.7168
1155.569, 57.77344
1156.659, 105.5117
1157.750, 202.2461
1158.839, 53.00391
1159.929, 243.7832
1161.019, 2.501953
1162.108, 83.78906
1163.198, 70.87500
1164.287, 65.53320
1165.376, 188.1855
1166.465, 200.8320
1167.553, 206.4766
1168.642, 108.1387
1169.730, 247.7930
1170.818, 114.4473
1171.906, 147.1074
1172.994, 51.23633
1174.082, 59.55469
1175.170, 151.6094
1176.257, 197.6113
1177.344, 169.2285
1178.431, 136.9258
1179.518, 83.53320
1180.605, 28.13477
1181.691, 278.7344
1182.778, 172.3281
1183.864, 58.91602
1184.950, 92.60938
1186.036, 93.91211
1187.122, 154.4258
1188.207, 5.910156
1189.292, 0.4121090
1190.378, 79.07031
1191.463, 186.5488
1192.548, 133.0293
1193.632, 151.4863
1194.717, 88.94531
1195.801, 73.39648
1196.886, 109.8379
1197.970, 122.2734
1199.054, 84.34570
1200.137, 103.4883
1201.221, 68.18359
1202.305, 123.8203
1203.388, 32.22070
1204.471, 107.8418
1205.554, 214.2227
1206.637, 28.59961
1207.719, 88.48633
1208.802, 107.8457
1209.884, 88.19922
1210.966, 276.5410
1212.048, 130.8770
1213.130, 242.2051
1214.212, 216.5293
1215.293, 364.8438
1216.374, 332.9961
1217.456, 251.4980
1218.536, 292.2109
1219.617, 190.5547
1220.698, 133.8887
1221.778, 54.78320
1222.859, 139.5020
1223.939, 144.1602
1225.019, 99.02539
1226.099, 61.49023
1227.178, 75.97656
1228.258, 225.2266
1229.337, 146.7598
1230.417, 332.0859
1231.496, 227.4746
1232.574, 323.9062
1233.653, 183.0254
1234.732, 257.3477
1235.810, 73.45312
1236.888, 123.5527
1237.966, 326.0000
1239.044, 103.4727
1240.122, 243.8301
1241.199, 274.9258
1242.277, 148.0137
1243.354, 78.09766
1244.431, 233.5742
1245.508, 187.5879
1246.585, 34.89844
1247.661, 321.1211
1248.738, 463.1602
1249.814, 235.1875
1250.890, 273.4395
1251.966, 313.4512
1253.042, 312.6582
1254.117, 285.7051
1255.193, 212.6895
1256.268, 33.33594
1257.343, 221.5996
1258.418, 172.5273
1259.493, 319.4414
1260.567, 51.72266
1261.642, 78.24219
1262.716, 7.681641
1263.790, 25.31250
1264.864, 320.6855
1265.938, 7.318359
1267.011, 245.6855
1268.085, 341.4863
1269.158, 154.0664
1270.231, 41.12695
1271.304, 307.6309
1272.377, 420.7109
1273.450, 165.4492
1274.522, 206.1777
1275.594, 45.11523
1276.666, 409.8105
1277.738, 198.9707
1278.810, 223.0566
1279.882, 309.7305
1280.953, 108.6094
1282.025, 233.9688
1283.096, 278.5566
1284.167, 78.11328
1285.238, 214.6719
1286.308, 336.2832
1287.379, 146.8027
1288.449, 140.1094
1289.519, 223.6055
1290.589, 360.6738
1291.659, 337.9258
1292.729, 344.2637
1293.798, 374.3184
1294.868, 373.1758
1295.937, 326.4531
1297.006, 377.8789
1298.075, 284.2930
1299.143, 224.6953
1300.212, 235.0859
1301.280, 154.4648
1302.348, 42.54688
1303.416, 111.7070
1304.484, 58.88477
1305.552, 150.3672
1306.620, 129.6816
1307.687, 181.9785
1308.754, 326.1699
1309.821, 306.1152
1310.888, 205.3750
1311.955, 252.6289
1313.021, 8.337891
1314.088, 341.8457
1315.154, 255.9785
1316.220, 109.1641
1317.286, 308.5898
1318.352, 412.2227
1319.417, 346.2402
1320.483, 362.3809
1321.548, 225.5039
1322.613, 219.6172
1323.678, 157.6250
1324.743, 257.5527
1325.807, 228.6270
1326.872, 13.70703
1327.936, 181.6484
1329.000, 285.6562
1330.064, 92.50781
1331.128, 400.5469
1332.191, 93.22656
1333.255, 210.2109
1334.318, 255.2188
1335.381, 28.01953
1336.444, 248.8945
1337.507, 156.8359
1338.569, 197.6836
1339.632, 230.6367
1340.694, 204.7266
1341.756, 337.6602
1342.818, 182.5859
1343.880, 233.5000
1344.941, 160.4062
1346.003, 62.29688
1347.064, 238.1797
1348.125, 185.0430
1349.186, 233.8906
1350.247, 182.7305
1351.308, 132.5547
1352.368, 174.7031
1353.428, 70.37891
1354.489, 62.88672
1355.549, 117.4336
1356.608, 5.878906
1357.668, 95.77344
1358.727, 78.41406
1359.787, 66.53516
1360.846, 143.2188
1361.905, 90.20703
1362.964, 167.7969
1364.022, 206.1523
1365.081, 53.70703
1366.139, 46.31250
1367.197, 72.25391
1368.255, 172.9922
1369.313, 203.5117
1370.371, 193.3125
1371.428, 50.60547
1372.486, 10.90625
1373.543, 86.72656
1374.600, 105.1211
1375.657, 167.7070
1376.713, 192.1523
1377.770, 0.5859380
1378.826, 217.0000
1379.882, 97.40625
1380.938, 76.19531
1381.994, 173.4336
1383.050, 248.9688
1384.106, 186.1406
1385.161, 265.4766
1386.216, 166.8047
1387.271, 55.34766
1388.326, 15.58594
1389.381, 21.41797
1390.435, 56.60156
1391.490, 26.87109
1392.544, 46.89844
1393.598, 97.42188
1394.652, 174.6133
1395.705, 166.8008
1396.759, 136.9922
1397.812, 216.1211
1398.866, 61.20312
1399.919, 294.3477
1400.972, 295.6328
1402.024, 87.76172
1403.077, 199.4258
1404.129, 52.53906
1405.181, 42.79297
1406.233, 170.8984
1407.285, 104.0000
1408.337, 134.2461
1409.389, 127.7109
1410.440, 147.6680
1411.491, 86.29297
1412.542, 112.2852
1413.593, 291.2031
1414.644, 308.0859
1415.695, 526.9258
1416.745, 174.8086
1417.795, 221.5352
1418.845, 329.6094
1419.895, 445.4805
1420.945, 398.3359
1421.995, 492.1797
1423.044, 547.4961
1424.093, 376.8164
1425.142, 596.6328
1426.191, 688.3984
1427.240, 537.1484
1428.289, 631.8828
1429.337, 566.1797
1430.385, 731.7578
1431.433, 521.0977
1432.481, 372.8086
1433.529, 949.4727
1434.577, 731.0742
1435.624, 906.6680
1436.672, 1004.246
1437.719, 966.2969
1438.766, 981.8398
1439.812, 1176.473
1440.859, 800.2695
1441.905, 788.7852
1442.952, 702.3281
1443.998, 812.7500
1445.044, 830.5352
1446.090, 457.4922
1447.135, 360.3945
1448.181, 306.8164
1449.226, 556.2266
1450.271, 472.9688
1451.316, 363.3477
1452.361, 320.4766
1453.405, 251.5898
1454.450, 208.3828
1455.494, 351.7070
1456.538, 491.0234
1457.582, 286.3203
1458.626, 310.6094
1459.670, 238.4766
1460.713, 89.72656
1461.757, 310.9922
1462.800, 200.2383
1463.843, 294.8906
1464.886, 449.5156
1465.928, 95.32031
1466.971, 308.2539
1468.013, 361.2891
1469.055, 370.1250
1470.097, 205.5625
1471.139, 144.7305
1472.181, 257.3711
1473.222, 211.7148
1474.263, 291.5859
1475.305, 170.0664
1476.346, 218.8398
1477.386, 350.8750
1478.427, 201.8281
1479.468, 280.7852
1480.508, 238.0586
1481.548, 368.1836
1482.588, 116.4570
1483.628, 109.9375
1484.668, 5.628906
1485.707, 93.91406
1486.747, 18.65234
1487.786, 233.0547
1488.825, 292.6055
1489.864, 129.0664
1490.902, 98.81250
1491.941, 6.285156
1492.979, 106.0859
1494.017, 296.6680
1495.055, 11.59766
1496.093, 284.1133
1497.131, 188.8164
1498.168, 73.51562
1499.206, 32.20312
1500.243, 78.89062
1501.280, 118.5742
1502.317, 241.2656
1503.354, 167.9492
1504.390, 133.6406
1505.426, 148.3164
1506.463, 49.01953
1507.499, 69.73047
1508.535, 245.4375
1509.570, 139.1523
1510.606, 360.8555
1511.641, 58.54297
1512.676, 42.21094
1513.711, 363.8594
1514.746, 233.4805
1515.781, 248.0742
1516.816, 189.2578
1517.850, 156.7930
1518.884, 161.0586
1519.918, 311.5039
1520.952, 110.0117
1521.986, 122.4922
1523.019, 1.992188
1524.053, 133.5391
1525.086, 81.23438
1526.119, 280.9219
1527.152, 391.9414
1528.185, 274.6055
1529.217, 85.33984
1530.250, 325.4375
1531.282, 284.4062
1532.314, 107.0000
1533.346, 184.2734
1534.377, 407.6250
1535.409, 201.2344
1536.440, 80.98047
1537.472, 449.1680
1538.503, 255.3125
1539.534, 435.6602
1540.564, 274.6406
1541.595, 23.39453
1542.625, 51.13281
1543.656, 213.8359
1544.686, 400.4727
1545.716, 239.0391
1546.745, 108.4062
1547.775, 208.8516
1548.804, 88.04297
1549.834, 216.8164
1550.863, 418.6133
1551.892, 120.5781
1552.920, 309.2891
1553.949, 593.5312
1554.977, 414.1641
1556.006, 210.8203
1557.034, 56.37109
1558.062, 268.6289
1559.089, 230.6211
1560.117, 393.5117
1561.144, 2.378906
1562.172, 242.4805
1563.199, 265.8242
1564.226, 21.48438
1565.252, 104.3711
1566.279, 27.33203
1567.305, 326.1680
1568.332, 9.609375
1569.358, 0.4453130
1570.384, 0.0000000E+00
##END=



