##NAMES=Ankerite
##RRUFFID=R050197
##IDEAL CHEMISTRY=CaFe^2+^(CO_3_)_2_
##LOCALITY=Brownley Hill mine, Nenthead, Cumbria, England
##OWNER=RRUFF
##SOURCE=Marcus Origlieri
##DESCRIPTION=Curved saddle-shaped rhombohedral crystals
##STATUS=The identification of this mineral has been confirmed by X-ray diffraction and chemical analysis
##URL=rruff.info/R050197
##MEASURED CHEMISTRY=Ca_1.00_(Fe^2+^_0.52_Mg_0.35_Ca_0.08_Mn^2+^_0.05_)_Î£=1_(CO_3_)_2_ ; where C was not measured but estimated by difference and stoichiometry
##PIN_ID=M00064
##ORIENTATION=Laser parallel to -c* (0 0 -1). Fiducial mark perpendicular to laser is parallel to -a [-1 0 0]
114.4400, 0.0000000E+00
115.6710, 4.142944
116.9030, 23.34888
118.1340, 23.22937
119.3650, 14.69263
120.5960, 0.4216310
121.8270, 4.544800
123.0580, 16.16187
124.2880, 33.44397
125.5190, 1.777588
126.7490, 43.43274
127.9790, 20.02197
129.2090, 42.94458
130.4390, 75.16284
131.6680, 71.64465
132.8980, 67.36438
134.1270, 114.2996
135.3560, 83.43066
136.5850, 136.7399
137.8140, 168.2153
139.0430, 154.8430
140.2710, 231.6075
141.5000, 175.4980
142.7280, 250.5046
143.9560, 269.6185
145.1840, 312.8320
146.4120, 351.1370
147.6390, 371.5297
148.8670, 438.0067
150.0940, 485.5640
151.3210, 561.1987
152.5490, 689.9070
153.7750, 774.6807
155.0020, 877.5137
156.2290, 974.4036
157.4550, 1192.349
158.6810, 1317.348
159.9080, 1504.397
161.1340, 1792.582
162.3590, 1847.721
163.5850, 2042.902
164.8110, 2099.122
166.0360, 2103.379
167.2610, 2113.670
168.4860, 1952.993
169.7110, 1785.347
170.9360, 1685.730
172.1610, 1332.139
173.3850, 1157.573
174.6100, 958.0298
175.8340, 772.5084
177.0580, 668.0068
178.2820, 513.5281
179.5050, 498.0918
180.7290, 373.6990
181.9520, 336.3405
183.1760, 311.0151
184.3990, 228.7025
185.6220, 234.4255
186.8450, 237.1747
188.0670, 213.9988
189.2900, 177.8118
190.5120, 151.6160
191.7340, 134.4115
192.9560, 127.1981
194.1780, 142.9846
195.4000, 109.7871
196.6220, 136.6119
197.8430, 170.4851
199.0640, 141.3777
200.2860, 130.2932
201.5070, 160.2212
202.7270, 131.1487
203.9480, 179.1039
205.1690, 88.07251
206.3890, 16.05383
207.6090, 3.967651
208.8290, 50.00952
210.0490, 35.98584
211.2690, 54.96216
212.4890, 39.94067
213.7080, 39.92151
214.9280, 49.51221
216.1470, 85.89148
217.3660, 58.88928
218.5850, 76.88513
219.8030, 72.87915
221.0220, 67.88733
222.2400, 78.89453
223.4590, 84.15820
224.6770, 73.90076
225.8950, 101.9001
227.1120, 115.8972
228.3300, 110.8932
229.5480, 96.88599
230.7650, 81.87573
231.9820, 113.8623
233.1990, 178.8456
234.4160, 146.8254
235.6330, 190.8016
236.8490, 198.7744
238.0660, 230.7437
239.2820, 254.7025
240.4980, 288.6716
241.7140, 301.9403
242.9300, 312.1462
244.1460, 338.6051
245.3610, 351.8601
246.5770, 414.4628
247.7920, 471.4279
249.0070, 505.7719
250.2220, 611.0569
251.4370, 622.0503
252.6510, 655.0065
253.8660, 781.0955
255.0800, 856.9109
256.2940, 927.7139
257.5080, 1052.779
258.7220, 1191.517
259.9360, 1320.231
261.1490, 1467.961
262.3630, 1614.556
263.5760, 1767.857
264.7890, 1947.299
266.0020, 2106.190
267.2150, 2327.727
268.4270, 2660.020
269.6400, 2882.665
270.8520, 3249.287
272.0640, 3459.145
273.2760, 3820.920
274.4880, 4025.661
275.7000, 4240.562
276.9120, 4318.565
278.1230, 4712.732
279.3340, 4734.715
280.5450, 4766.253
281.7560, 4895.530
282.9670, 4765.426
284.1780, 4665.194
285.3880, 4625.330
286.5980, 4471.413
287.8090, 4266.347
289.0190, 4080.688
290.2290, 3765.106
291.4380, 3564.024
292.6480, 3255.895
293.8570, 2934.824
295.0670, 2666.720
296.2760, 2393.284
297.4850, 2199.525
298.6930, 1920.367
299.9020, 1734.224
301.1110, 1574.133
302.3190, 1389.028
303.5270, 1239.950
304.7350, 1105.880
305.9430, 997.8197
307.1510, 883.7344
308.3580, 782.7155
309.5660, 722.9049
310.7730, 647.8883
311.9800, 598.8245
313.1870, 558.7788
314.3940, 490.6725
315.6010, 470.6072
316.8070, 452.9982
318.0130, 411.9186
319.2200, 375.8594
320.4260, 360.7070
321.6310, 303.5533
322.8370, 274.4393
324.0430, 306.3445
325.2480, 256.5099
326.4540, 285.4321
327.6590, 278.3683
328.8640, 264.2606
330.0680, 206.0929
331.2730, 239.9225
332.4780, 216.7490
333.6820, 215.5725
334.8860, 222.3926
336.0900, 189.3337
337.2940, 197.1475
338.4980, 140.9581
339.7010, 187.9517
340.9050, 142.7560
342.1080, 174.5566
343.3110, 107.3538
344.5140, 130.1724
345.7170, 109.9618
346.9200, 111.7472
348.1220, 76.53040
349.3240, 87.31409
350.5270, 89.09180
351.7290, 105.8651
352.9310, 42.60608
354.1320, 42.37073
355.3340, 77.13330
356.5350, 39.89136
357.7370, 52.64502
358.9380, 31.39417
360.1390, 64.13892
361.3400, 61.87927
362.5400, 33.61487
363.7410, 24.34583
364.9410, 45.07227
366.1410, 1.206177
367.3410, 0.4902340
368.5410, 40.22021
369.7410, 2.074097
370.9400, 30.62561
372.1400, 19.67957
373.3390, 1.995361
374.5380, 10.68274
375.7370, 6.644043
376.9360, 8.021606
378.1350, 27.68237
379.3330, 11.33813
380.5310, 1.010986
381.7300, 14.36633
382.9280, 8.268433
384.1260, 1.552856
385.3230, 16.52148
386.5210, 9.137695
387.7180, 10.74768
388.9160, 23.34570
390.1130, 15.93726
391.3100, 1.520630
392.5060, 36.09814
393.7030, 10.33594
394.9000, 35.21924
396.0960, 10.23059
397.2920, 2.310181
398.4880, 15.84436
399.6840, 11.36938
400.8800, 8.114868
402.0750, 27.60864
403.2710, 24.11987
404.4660, 16.33960
405.6610, 17.79578
406.8560, 13.24890
408.0510, 31.69849
409.2450, 0.8547360
410.4400, 6.585449
411.6340, 33.02173
412.8280, 15.45605
414.0220, 27.88647
415.2160, 2.313354
416.4100, 7.734131
417.6030, 10.84973
418.7970, 3.553101
419.9900, 14.31628
421.1830, 0.6690670
422.3760, 29.29602
423.5690, 21.94666
424.7610, 1.617065
425.9540, 8.703491
427.1460, 8.981567
428.3380, 14.67969
429.5300, 2.605835
430.7220, 8.884155
431.9140, 22.15662
433.1050, 14.42419
434.2970, 26.31372
435.4880, 23.92566
436.6790, 13.15991
437.8700, 25.61157
439.0610, 12.59448
440.2510, 30.79468
441.4420, 35.98999
442.6320, 33.18042
443.8220, 21.36584
445.0120, 25.24084
446.2020, 19.36060
447.3910, 27.88977
448.5810, 11.05359
449.7700, 22.21130
450.9600, 11.36365
452.1490, 2.509644
453.3370, 11.31055
454.5260, 17.77917
455.7150, 14.90527
456.9030, 28.02515
458.0910, 18.13989
459.2800, 16.75134
460.4670, 21.33899
461.6550, 16.42371
462.8430, 57.50269
464.0300, 38.57629
465.2180, 28.64490
466.4050, 23.70813
467.5920, 13.23438
468.7790, 18.80652
469.9650, 15.84143
471.1520, 24.87061
472.3380, 70.89404
473.5250, 44.91260
474.7110, 66.92590
475.8970, 80.93396
477.0820, 54.93713
478.2680, 12.93530
479.4540, 50.92725
480.6390, 64.91418
481.8240, 7.895996
483.0090, 41.87134
484.1940, 52.84473
485.3780, 48.81323
486.5630, 32.77673
487.7470, 46.73499
488.9320, 68.68835
490.1160, 42.97278
491.3000, 37.91650
492.4830, 58.48401
493.6670, 77.41785
494.8500, 80.32068
496.0340, 71.27075
497.2170, 85.65564
498.4000, 86.56982
499.5820, 61.47876
500.7650, 65.32300
501.9480, 88.28223
503.1300, 57.17651
504.3120, 91.06592
505.4940, 114.9504
506.6760, 83.83008
507.8580, 102.7068
509.0390, 85.43079
510.2210, 84.17493
511.4020, 84.03735
512.5830, 108.6783
513.7640, 73.53906
514.9450, 148.0460
516.1250, 104.6841
517.3060, 56.48645
518.4860, 108.7720
519.6660, 79.55066
520.8460, 101.3856
522.0260, 116.1660
523.2060, 128.7509
524.3850, 86.48413
525.5650, 125.2335
526.7440, 116.7450
527.9230, 96.51941
529.1020, 117.2573
530.2810, 120.9961
531.4590, 98.78174
532.6380, 83.53076
533.8160, 104.1571
534.9940, 103.9449
536.1720, 76.81384
537.3500, 89.59705
538.5270, 93.44946
539.7050, 105.0581
540.8820, 118.2764
542.0590, 106.4666
543.2360, 141.4070
544.4130, 99.11353
545.5900, 95.02881
546.7660, 39.72351
547.9430, 79.42017
549.1190, 103.0931
550.2950, 92.83679
551.4710, 138.1677
552.6470, 110.7734
553.8220, 104.5146
554.9980, 75.18201
556.1730, 91.90210
557.3480, 76.39978
558.5230, 70.01672
559.6980, 43.68335
560.8730, 125.2053
562.0470, 114.6368
563.2220, 100.9180
564.3960, 65.39417
565.5700, 94.32788
566.7440, 113.5369
567.9170, 98.13928
569.0910, 86.87769
570.2640, 111.2538
571.4380, 125.6923
572.6110, 109.2805
573.7840, 69.94885
574.9570, 123.5795
576.1290, 102.1957
577.3020, 90.86182
578.4740, 98.47363
579.6460, 70.12097
580.8180, 81.72119
581.9900, 105.4066
583.1620, 93.11096
584.3330, 73.80078
585.5040, 52.43848
586.6760, 20.08936
587.8470, 68.71326
589.0180, 62.37000
590.1880, 131.9330
591.3590, 50.56067
592.5290, 61.12048
593.7000, 95.47009
594.8700, 94.02380
596.0400, 98.11853
597.2090, 68.20093
598.3790, 76.83777
599.5490, 84.43066
600.7180, 49.56458
601.8870, 75.16638
603.0560, 69.81885
604.2250, 56.41321
605.3940, 77.07947
606.5620, 61.70312
607.7300, 51.30383
608.8990, 73.64062
610.0670, 66.21692
611.2350, 82.77539
612.4020, 61.37585
613.5700, 16.03223
614.7370, 15.68921
615.9050, 36.34192
617.0720, 82.99316
618.2390, 35.64258
619.4060, 84.16626
620.5720, 19.82910
621.7390, 51.47595
622.9050, 35.93530
624.0710, 78.32764
625.2370, 30.97559
626.4030, 26.62183
627.5690, 84.24805
628.7340, 68.90747
629.9000, 10.37769
631.0650, 29.25928
632.2300, 15.10022
633.3950, 65.52795
634.5600, 32.15466
635.7240, 33.77979
636.8890, 12.57971
638.0530, 29.03784
639.2170, 33.65405
640.3810, 35.26880
641.5450, 51.88196
642.7080, 35.49390
643.8720, 18.10413
645.0350, 22.73267
646.1980, 36.34290
647.3610, 40.38879
648.5240, 38.99622
649.6870, 50.65833
650.8490, 49.26746
652.0120, 83.66370
653.1740, 15.27295
654.3360, 85.88074
655.4980, 0.9635010
656.6600, 28.57837
657.8210, 45.19214
658.9830, 52.80701
660.1440, 89.43237
661.3050, 80.04492
662.4660, 45.70483
663.6270, 67.32092
664.7870, 63.94238
665.9480, 58.61646
667.1080, 40.71558
668.2680, 80.33496
669.4280, 54.96594
670.5880, 55.58313
671.7480, 48.19910
672.9070, 38.84851
674.0670, 43.94128
675.2260, 59.37830
676.3850, 72.99414
677.5440, 103.6086
678.7030, 88.22632
679.8610, 48.84375
681.0200, 67.45984
682.1780, 61.07996
683.3360, 34.69250
684.4940, 83.31763
685.6520, 37.31213
686.8090, 43.04993
687.9670, 108.6794
689.1240, 120.3080
690.2810, 133.9352
691.4380, 173.5651
692.5950, 128.1342
693.7520, 207.7599
694.9080, 180.5815
696.0650, 153.4449
697.2210, 269.0708
698.3770, 191.6953
699.5330, 268.3232
700.6880, 273.9507
701.8440, 311.8549
702.9990, 412.4869
704.1550, 399.0337
705.3100, 497.1255
706.4650, 588.0044
707.6190, 679.6501
708.7740, 752.6013
709.9290, 861.2546
711.0830, 1072.907
712.2370, 1130.559
713.3910, 1305.237
714.5450, 1529.886
715.6980, 1611.553
716.8520, 1785.716
718.0050, 1874.369
719.1580, 1944.029
720.3110, 1876.710
721.4640, 1787.367
722.6170, 1680.028
723.7700, 1566.682
724.9220, 1306.333
726.0740, 1162.012
727.2260, 982.6608
728.3780, 826.3079
729.5300, 687.9536
730.6810, 619.5977
731.8330, 494.2406
732.9840, 461.8834
734.1350, 392.5248
735.2860, 317.1649
736.4370, 254.8036
737.5880, 213.4406
738.7380, 265.0762
739.8880, 212.7167
741.0390, 208.3556
742.1890, 167.9930
743.3380, 148.6289
744.4880, 120.2629
745.6380, 80.89539
746.7870, 76.24512
747.9360, 76.16089
749.0850, 54.81763
750.2340, 69.98389
751.3830, 52.61426
752.5310, 18.24292
753.6800, 59.86975
754.8280, 91.49475
755.9760, 71.11780
757.1240, 34.73926
758.2720, 15.87756
759.4190, 30.49573
760.5670, 71.11182
761.7140, 7.937622
762.8610, 59.66919
764.0080, 44.27393
765.1550, 18.87683
766.3020, 16.47778
767.4480, 5.076660
768.5950, 24.36938
769.7410, 17.78979
770.8870, 22.92761
772.0330, 19.51819
773.1780, 20.10693
774.3240, 15.45996
775.4690, 39.81311
776.6140, 37.39636
777.7590, 29.97778
778.9040, 69.55725
780.0490, 42.13525
781.1940, 41.71118
782.3380, 14.28540
783.4820, 19.40894
784.6260, 3.020508
785.7700, 42.54395
786.9140, 6.106689
788.0580, 55.28723
789.2010, 24.15417
790.3450, 33.73291
791.4880, 36.27246
792.6310, 2.520508
793.7730, 32.97803
794.9160, 39.50757
796.0590, 75.03503
797.2010, 17.56091
798.3430, 27.08459
799.4850, 10.68237
800.6270, 22.20190
801.7690, 32.14746
802.9100, 8.663208
804.0520, 1.823608
805.1930, 49.68335
806.3340, 18.18823
807.4750, 24.69104
808.6160, 38.19202
809.7560, 12.69104
810.8970, 1.812134
812.0370, 7.321655
813.1770, 51.15955
814.3170, 34.63892
815.4570, 61.19202
816.5960, 60.66748
817.7360, 54.47998
818.8750, 58.61255
820.0140, 36.08228
821.1530, 23.54993
822.2920, 1.5747000E-02
823.4310, 5.572021
824.5690, 24.93335
825.7070, 21.38867
826.8460, 29.84192
827.9840, 41.29333
829.1220, 25.25720
830.2590, 21.17358
831.3970, 13.39758
832.5340, 45.98120
833.6710, 41.04382
834.8080, 51.42883
835.9450, 31.81189
837.0820, 29.19287
838.2190, 1.572144
839.3550, 65.94666
840.4910, 8.680786
841.6270, 17.31824
842.7630, 13.97034
843.8990, 70.36487
845.0350, 0.8587650
846.1700, 35.18689
847.3060, 19.51306
848.4410, 45.83740
849.5760, 10.15955
850.7100, 23.47974
851.8450, 13.79773
852.9800, 2.886230
854.1140, 20.42310
855.2480, 41.73047
856.3820, 10.03589
857.5160, 38.33936
858.6500, 13.64099
859.7830, 18.94055
860.9170, 25.23816
862.0500, 7.534058
863.1830, 41.82812
864.3160, 32.12036
865.4480, 120.4110
866.5810, 72.70020
867.7130, 148.9875
868.8460, 129.2733
869.9780, 97.55750
871.1100, 120.8401
872.2410, 142.1212
873.3730, 143.4006
874.5050, 97.67871
875.6360, 109.9552
876.7670, 77.23022
877.8980, 60.50366
879.0290, 73.77576
880.1590, 78.04626
881.2900, 74.31543
882.4200, 52.58313
883.5500, 10.84937
884.6800, 4.114136
885.8100, 5.494751
886.9400, 55.63403
888.0690, 13.88940
889.1990, 17.14087
890.3280, 65.39355
891.4570, 48.64514
892.5860, 31.89526
893.7140, 5.856079
894.8430, 50.37256
895.9710, 56.61414
897.1000, 19.14551
898.2280, 34.33911
899.3560, 19.56567
900.4830, 19.79089
901.6110, 7.008423
902.7380, 21.17712
903.8660, 1.363892
904.9930, 43.58594
906.1200, 23.79736
907.2460, 11.02039
908.3730, 28.24231
909.5000, 18.46350
910.6260, 50.66699
911.7520, 53.57251
912.8780, 53.10938
914.0040, 55.32947
915.1290, 53.54871
916.2550, 9.767334
917.3800, 9.984985
918.5050, 8.817505
919.6300, 19.39417
920.7550, 10.16785
921.8800, 20.37817
923.0040, 10.46753
924.1290, 58.73584
925.2530, 6.849854
926.3770, 10.34888
927.5010, 12.45251
928.6250, 65.28308
929.7480, 41.48621
930.8720, 35.68909
931.9950, 28.89172
933.1180, 54.08252
934.2410, 19.71545
935.3640, 19.43958
936.4860, 9.361694
937.6090, 87.83313
938.7310, 36.97388
939.8530, 30.68958
940.9750, 38.88379
942.0970, 35.06543
943.2180, 55.25952
944.3400, 35.45386
945.4610, 80.61340
946.5820, 44.32947
947.7030, 27.69995
948.8240, 49.89441
949.9450, 2.910767
951.0650, 12.28345
952.1860, 17.47778
953.3060, 46.67236
954.4260, 21.86743
955.5460, 3.062500
956.6650, 78.25806
957.7850, 8.091309
958.9040, 46.18066
960.0230, 32.37744
961.1420, 44.57495
962.2610, 32.77295
963.3800, 37.97144
964.4990, 25.54956
965.6170, 15.42651
966.7350, 13.42993
967.8530, 18.60889
968.9710, 2.587646
970.0890, 5.785645
971.2070, 46.98438
972.3240, 49.18555
973.4410, 67.11499
974.5580, 46.31860
975.6750, 67.61670
976.7920, 34.37720
977.9090, 83.35229
979.0250, 8.438477
980.1410, 26.46802
981.2580, 12.67847
982.3740, 46.89062
983.4890, 28.10400
984.6050, 47.29126
985.7200, 79.50806
986.8360, 41.71558
987.9510, 24.42700
989.0660, 31.66333
990.1810, 75.90161
991.2950, 57.11963
992.4100, 110.3625
993.5240, 57.60303
994.6390, 51.85156
995.7530, 90.10181
996.8660, 76.34546
997.9800, 68.62476
999.0940, 86.90576
1000.207, 94.18921
1001.320, 168.4744
1002.433, 45.76172
1003.546, 132.0513
1004.659, 126.3428
1005.772, 63.63647
1006.884, 54.93213
1007.996, 139.2305
1009.108, 120.5308
1010.220, 143.8357
1011.332, 137.1428
1012.444, 140.4519
1013.555, 89.76343
1014.666, 147.0774
1015.777, 138.3931
1016.888, 210.7114
1017.999, 207.0320
1019.110, 163.3313
1020.220, 165.1226
1021.331, 206.4507
1022.441, 226.7812
1023.551, 213.1143
1024.661, 268.4495
1025.770, 270.7874
1026.880, 250.1292
1027.989, 246.9546
1029.098, 273.3015
1030.207, 294.6509
1031.316, 324.6670
1032.425, 320.0247
1033.533, 290.3850
1034.642, 316.7478
1035.750, 326.1135
1036.858, 434.4817
1037.966, 423.8213
1039.073, 471.1953
1040.181, 378.5720
1041.288, 449.9517
1042.396, 473.3337
1043.503, 431.7183
1044.610, 498.1060
1045.716, 511.4963
1046.823, 545.9080
1047.929, 497.3037
1049.036, 505.7031
1050.142, 593.1052
1051.248, 645.5103
1052.353, 587.4463
1053.459, 672.8574
1054.564, 663.2737
1055.670, 724.6924
1056.775, 666.4941
1057.880, 767.9194
1058.985, 792.0107
1060.089, 833.4504
1061.194, 975.8352
1062.298, 1062.319
1063.402, 1158.778
1064.506, 1205.239
1065.610, 1378.703
1066.713, 1466.171
1067.817, 1621.085
1068.920, 1770.559
1070.023, 1915.606
1071.126, 2009.085
1072.229, 2105.567
1073.332, 2467.054
1074.435, 2706.543
1075.537, 3071.037
1076.639, 3556.533
1077.741, 4300.032
1078.843, 5145.535
1079.945, 6578.042
1081.046, 8391.558
1082.148, 11224.07
1083.249, 15207.52
1084.350, 20910.04
1085.451, 28448.57
1086.551, 37490.09
1087.652, 47170.63
1088.752, 55610.17
1089.853, 59759.71
1090.953, 59214.25
1092.053, 53907.82
1093.152, 45596.37
1094.252, 36474.94
1095.351, 28136.50
1096.451, 20987.07
1097.550, 15491.65
1098.649, 11465.23
1099.748, 8518.821
1100.846, 6318.789
1101.945, 4674.399
1103.043, 3572.012
1104.141, 2676.909
1105.239, 2135.528
1106.337, 1668.158
1107.434, 1382.792
1108.532, 1158.434
1109.629, 947.0847
1110.726, 735.7549
1111.823, 729.2561
1112.920, 629.9219
1114.017, 581.5908
1115.113, 517.2622
1116.210, 468.4360
1117.306, 414.0203
1118.402, 376.1658
1119.498, 349.1687
1120.593, 329.0374
1121.689, 321.7273
1122.784, 333.6123
1123.879, 337.3191
1124.974, 314.3782
1126.069, 257.0901
1127.164, 174.8062
1128.259, 219.1848
1129.353, 124.0740
1130.447, 153.7969
1131.541, 159.5259
1132.635, 124.2571
1133.729, 126.9902
1134.822, 105.7253
1135.916, 118.4624
1137.009, 92.20166
1138.102, 130.9429
1139.195, 62.71753
1140.288, 100.5215
1141.380, 99.72168
1142.473, 22.47046
1143.565, 63.22070
1144.657, 8.972656
1145.749, 20.72656
1146.841, 48.48218
1147.932, 95.23950
1149.024, 25.99854
1150.115, 87.75952
1151.206, 78.55957
1152.297, 76.42920
1153.388, 74.19727
1154.479, 88.96704
1155.569, 78.73853
1156.659, 37.51147
1157.750, 67.56934
1158.839, 34.34546
1159.929, 15.13672
1161.019, 44.91797
1162.108, 8.700684
1163.198, 47.49048
1164.287, 14.28198
1165.376, 88.07446
1166.465, 42.86865
1167.553, 63.66406
1168.642, 11.46045
1169.730, 17.25879
1170.818, 29.05811
1171.906, 38.85864
1172.994, 47.74976
1174.082, 8.463867
1175.170, 53.26807
1176.257, 29.08643
1177.344, 1.107178
1178.431, 46.70044
1179.518, 55.68213
1180.605, 7.491699
1181.691, 8.302490
1182.778, 3.885742
1183.864, 31.07544
1184.950, 7.890869
1186.036, 30.70679
1187.122, 57.52417
1188.207, 13.45557
1189.292, 24.44165
1190.378, 6.266357
1191.463, 47.12085
1192.548, 1.291016
1193.632, 6.590088
1194.717, 15.39697
1195.801, 76.20435
1196.886, 12.01245
1197.970, 29.17896
1199.054, 26.62134
1200.137, 25.42236
1201.221, 34.22583
1202.305, 28.04492
1203.388, 4.901123
1204.471, 15.71387
1205.554, 5.602539
1206.637, 5.408936
1207.719, 17.30908
1208.802, 48.11475
1209.884, 5.920654
1210.966, 20.72656
1212.048, 80.53271
1213.130, 20.33887
1214.212, 58.25854
1215.293, 35.07227
1216.374, 34.87891
1217.456, 38.74438
1218.536, 21.55103
1219.617, 22.12695
1220.698, 19.54785
1221.778, 18.05493
1222.859, 17.86060
1223.939, 15.73389
1225.019, 20.87036
1226.099, 24.45166
1227.178, 59.53613
1228.258, 45.33960
1229.337, 64.14282
1230.417, 93.94531
1231.496, 9.749756
1232.574, 77.55396
1233.653, 4.642822
1234.732, 35.18286
1235.810, 25.81592
1236.888, 47.68384
1237.966, 47.68677
1239.044, 18.49561
1240.122, 6.290771
1241.199, 32.08716
1242.277, 16.06201
1243.354, 25.37720
1244.431, 31.47437
1245.508, 33.26733
1246.585, 60.05908
1247.661, 63.84985
1248.738, 62.63916
1249.814, 51.57251
1250.890, 101.1851
1251.966, 0.7062990
1253.042, 103.4597
1254.117, 1.788086
1255.193, 41.06592
1256.268, 66.12866
1257.343, 70.12720
1258.418, 14.40845
1259.493, 61.28516
1260.567, 49.97290
1261.642, 20.66113
1262.716, 41.34741
1263.790, 79.06812
1264.864, 41.75269
1265.938, 63.48975
1267.011, 76.17114
1268.085, 12.85059
1269.158, 6.527832
1270.231, 1.797119
1271.304, 68.87183
1272.377, 79.57104
1273.450, 63.23633
1274.522, 43.90015
1275.594, 57.56201
1276.666, 39.22168
1277.738, 25.87964
1278.810, 37.53564
1279.882, 14.19019
1280.953, 5.842285
1282.025, 40.49097
1283.096, 80.13794
1284.167, 43.78296
1285.238, 32.42603
1286.308, 2.067383
1287.379, 93.70361
1288.449, 22.33838
1289.519, 67.97095
1290.589, 66.60107
1291.659, 66.22949
1292.729, 44.85571
1293.798, 29.48022
1294.868, 64.10205
1295.937, 55.72217
1297.006, 67.95508
1298.075, 60.96436
1299.143, 76.58618
1300.212, 55.20605
1301.280, 31.82397
1302.348, 72.43994
1303.416, 49.05371
1304.484, 25.66577
1305.552, 78.27490
1306.620, 43.86353
1307.687, 6.469482
1308.754, 78.07178
1309.821, 80.67212
1310.888, 46.27026
1311.955, 7.785889
1313.021, 108.3774
1314.088, 48.96606
1315.154, 59.55225
1316.220, 10.13550
1317.286, 7.715088
1318.352, 72.28979
1319.417, 20.13843
1320.483, 23.81177
1321.548, 12.33325
1322.613, 49.88086
1323.678, 41.42676
1324.743, 56.97070
1325.807, 55.51294
1326.872, 47.73511
1327.936, 42.07007
1329.000, 32.60596
1330.064, 26.13989
1331.128, 17.54956
1332.191, 28.20068
1333.255, 11.72803
1334.318, 30.25244
1335.381, 10.76489
1336.444, 45.27466
1337.507, 100.7803
1338.569, 31.28345
1339.632, 103.7847
1340.694, 83.28394
1341.756, 9.780762
1342.818, 30.26514
1343.880, 54.74561
1344.941, 18.22437
1346.003, 40.69995
1347.064, 20.82642
1348.125, 2.637207
1349.186, 56.09668
1350.247, 90.55420
1351.308, 16.99390
1352.368, 2.430176
1353.428, 19.86060
1354.489, 58.28833
1355.549, 61.70801
1356.608, 40.12524
1357.668, 38.54004
1358.727, 46.95239
1359.787, 49.36279
1360.846, 72.77051
1361.905, 27.89526
1362.964, 21.70166
1364.022, 17.69116
1365.081, 6.081787
1366.139, 31.46899
1367.197, 68.86938
1368.255, 92.77466
1369.313, 45.15527
1370.371, 64.56787
1371.428, 34.94434
1372.486, 38.35962
1373.543, 55.73120
1374.600, 92.10034
1375.657, 59.46704
1376.713, 66.83130
1377.770, 51.81885
1378.826, 37.74536
1379.882, 46.41943
1380.938, 97.76294
1381.994, 10.75391
1383.050, 1.092285
1384.106, 45.42700
1385.161, 25.09863
1386.216, 27.26099
1387.271, 12.41064
1388.326, 47.94971
1389.381, 34.27026
1390.435, 19.58887
1391.490, 56.24243
1392.544, 15.55762
1393.598, 30.40259
1394.652, 85.18188
1395.705, 39.49414
1396.759, 75.74316
1397.812, 99.59668
1398.866, 20.90234
1399.919, 44.20947
1400.972, 72.51294
1402.024, 84.81543
1403.077, 105.1177
1404.129, 79.41919
1405.181, 62.71997
1406.233, 123.0203
1407.285, 62.28247
1408.337, 136.4712
1409.389, 144.7622
1410.440, 154.0518
1411.491, 160.3408
1412.542, 179.6799
1413.593, 143.6841
1414.644, 234.9885
1415.695, 299.2639
1416.745, 264.5674
1417.795, 274.8547
1418.845, 296.1418
1419.895, 292.4224
1420.945, 370.7031
1421.995, 329.9893
1423.044, 399.3181
1424.093, 467.5081
1425.142, 440.8086
1426.191, 467.0913
1427.240, 521.3752
1428.289, 551.7371
1429.337, 619.0232
1430.385, 689.3098
1431.433, 661.5850
1432.481, 807.8745
1433.529, 790.3528
1434.577, 827.5225
1435.624, 904.8191
1436.672, 877.0264
1437.719, 874.2285
1438.766, 818.2759
1439.812, 829.4570
1440.859, 801.6104
1441.905, 714.7368
1442.952, 628.7393
1443.998, 597.6709
1445.044, 610.7554
1446.090, 509.2454
1447.135, 502.1108
1448.181, 536.4050
1449.226, 419.7703
1450.271, 398.1389
1451.316, 365.5107
1452.361, 365.8091
1453.405, 291.0767
1454.450, 258.3350
1455.494, 267.6904
1456.538, 225.0432
1457.582, 257.2693
1458.626, 284.6064
1459.670, 193.8831
1460.713, 180.8813
1461.757, 185.1946
1462.800, 165.0479
1463.843, 154.2844
1464.886, 167.5833
1465.928, 181.8789
1466.971, 182.1719
1468.013, 156.2310
1469.055, 126.1646
1470.097, 210.4102
1471.139, 79.66211
1472.181, 62.90796
1473.222, 144.1526
1474.263, 112.3940
1475.305, 151.6506
1476.346, 119.3142
1477.386, 105.4077
1478.427, 82.21655
1479.468, 129.4771
1480.508, 32.40356
1481.548, 46.62695
1482.588, 71.81714
1483.628, 125.0806
1484.668, 43.34204
1485.707, 48.56274
1486.747, 75.82690
1487.786, 31.08960
1488.825, 93.35059
1489.864, 65.60986
1490.902, 91.86963
1491.941, 23.12744
1492.979, 7.614502
1494.017, 61.64355
1495.055, 18.90015
1496.093, 67.15503
1497.131, 17.40771
1498.168, 111.6445
1499.206, 52.86475
1500.243, 53.08154
1501.280, 45.29419
1502.317, 33.50415
1503.354, 9.708496
1504.390, 34.91040
1505.426, 39.11279
1506.463, 30.31567
1507.499, 69.52026
1508.535, 59.73096
1509.570, 41.97388
1510.606, 55.21680
1511.641, 75.45386
1512.676, 19.68750
1513.711, 53.91772
1514.746, 59.14404
1515.781, 3.633789
1516.816, 60.62964
1517.850, 31.90088
1518.884, 95.17017
1519.918, 21.46045
1520.952, 94.78125
1521.986, 66.10352
1523.019, 48.42749
1524.053, 29.79346
1525.086, 64.21313
1526.119, 82.66089
1527.152, 67.13403
1528.185, 49.61597
1529.217, 155.1082
1530.250, 43.60986
1531.282, 105.1218
1532.314, 65.89404
1533.346, 59.26929
1534.377, 99.62476
1535.409, 78.12842
1536.440, 21.64648
1537.472, 107.9019
1538.503, 30.44580
1539.534, 47.00903
1540.564, 31.59302
1541.595, 91.19751
1542.625, 103.6616
1543.656, 85.58740
1544.686, 51.40576
1545.716, 35.87842
1546.745, 26.53320
1547.775, 23.80396
1548.804, 34.89160
1549.834, 100.6028
1550.863, 76.32861
1551.892, 23.12012
1552.920, 71.00049
1553.949, 97.55908
1554.977, 76.38306
1556.006, 73.23682
1557.034, 16.26123
1558.062, 36.47314
1559.089, 59.21899
1560.117, 79.63989
1561.144, 61.79492
1562.172, 30.44312
1563.199, 45.46997
1564.226, 78.13989
1565.252, 54.05322
1566.279, 61.09326
1567.305, 25.26538
1568.332, 73.47046
1569.358, 0.2690430
1570.384, 0.0000000E+00
##END=



