##NAMES=Ankerite
##RRUFFID=R050197
##IDEAL CHEMISTRY=CaFe^2+^(CO_3_)_2_
##LOCALITY=Brownley Hill mine, Nenthead, Cumbria, England
##OWNER=RRUFF
##SOURCE=Marcus Origlieri
##DESCRIPTION=Curved saddle-shaped rhombohedral crystals
##STATUS=The identification of this mineral has been confirmed by X-ray diffraction and chemical analysis
##URL=rruff.info/R050197
##MEASURED CHEMISTRY=Ca_1.00_(Fe^2+^_0.52_Mg_0.35_Ca_0.08_Mn^2+^_0.05_)_Î£=1_(CO_3_)_2_ ; where C was not measured but estimated by difference and stoichiometry
##PIN_ID=M00092
##ORIENTATION=Laser parallel to a* (1 0 0). Fiducial mark perpendicular to laser is parallel to c [0 0 1]
114.4400, 0.0000000E+00
115.6710, 25.80420
116.9030, 3.257813
118.1340, 36.71875
119.3650, 36.72021
120.5960, 19.19531
121.8270, 102.1616
123.0580, 40.18896
124.2880, 129.4312
125.5190, 91.53809
126.7490, 39.23486
127.9790, 58.32080
129.2090, 149.6147
130.4390, 265.9678
131.6680, 358.2534
132.8980, 457.0967
134.1270, 558.2417
135.3560, 626.7847
136.5850, 737.9370
137.8140, 776.6436
139.0430, 931.8608
140.2710, 1126.654
141.5000, 1250.860
142.7280, 1212.446
143.9560, 1336.386
145.1840, 1357.653
146.4120, 1449.228
147.6390, 1414.091
148.8670, 1356.228
150.0940, 1416.624
151.3210, 1306.271
152.5490, 1379.146
153.7750, 1381.231
155.0020, 1359.515
156.2290, 1420.982
157.4550, 1679.627
158.6810, 1819.435
159.9080, 2182.395
161.1340, 2419.500
162.3590, 2655.748
163.5850, 2894.285
164.8110, 3184.896
166.0360, 3435.491
167.2610, 3681.208
168.4860, 3775.040
169.7110, 3924.984
170.9360, 3884.032
172.1610, 3679.180
173.3850, 3279.422
174.6100, 3033.753
175.8340, 2545.170
177.0580, 2089.665
178.2820, 1842.244
179.5050, 1515.937
180.7290, 1257.708
181.9520, 903.5547
183.1760, 828.4971
184.3990, 726.5771
185.6220, 790.7451
186.8450, 575.0312
188.0670, 467.3398
189.2900, 526.6367
190.5120, 495.9424
191.7340, 532.2520
192.9560, 466.6328
194.1780, 298.0898
195.4000, 276.5703
196.6220, 346.1045
197.8430, 444.6875
199.0640, 335.2910
200.2860, 351.9102
201.5070, 384.5459
202.7270, 332.1953
203.9480, 264.8672
205.1690, 188.5693
206.3890, 93.32812
207.6090, 151.1855
208.8290, 143.0566
210.0490, 61.99512
211.2690, 7.974609
212.4890, 133.0820
213.7080, 53.80371
214.9280, 210.3516
216.1470, 133.5156
217.3660, 146.7139
218.5850, 106.9238
219.8030, 82.13965
221.0220, 151.3662
222.2400, 169.6045
223.4590, 147.8721
224.6770, 240.1660
225.8950, 172.4756
227.1120, 99.78906
228.3300, 146.1064
229.5480, 106.4297
230.7650, 84.76562
231.9820, 275.1133
233.1990, 239.4639
234.4160, 253.8154
235.6330, 281.1660
236.8490, 327.5146
238.0660, 216.8535
239.2820, 339.2197
240.4980, 401.6475
241.7140, 345.6123
242.9300, 489.4014
244.1460, 371.7764
245.3610, 484.1602
246.5770, 574.7744
247.7920, 584.1211
249.0070, 679.4854
250.2220, 907.9033
251.4370, 918.9375
252.6510, 1107.575
253.8660, 1041.525
255.0800, 1272.778
256.2940, 1259.182
257.5080, 1480.778
258.7220, 1801.100
259.9360, 2315.442
261.1490, 2332.898
262.3630, 2266.479
263.5760, 2720.017
264.7890, 2792.538
266.0020, 3172.379
267.2150, 3514.554
268.4270, 3958.551
269.6400, 4516.896
270.8520, 4828.485
272.0640, 5334.714
273.2760, 5756.498
274.4880, 6134.201
275.7000, 6772.697
276.9120, 7360.486
278.1230, 7719.260
279.3340, 8141.498
280.5450, 8447.419
281.7560, 8733.494
282.9670, 8863.024
284.1780, 9001.030
285.3880, 8885.104
286.5980, 8870.145
287.8090, 8684.214
289.0190, 8290.250
290.2290, 8035.435
291.4380, 7575.734
292.6480, 7136.064
293.8570, 6574.246
295.0670, 6114.336
296.2760, 5480.115
297.4850, 4947.865
298.6930, 4469.844
299.9020, 3869.061
301.1110, 3494.360
302.3190, 3195.562
303.5270, 2709.077
304.7350, 2357.254
305.9430, 2084.508
307.1510, 1763.053
308.3580, 1615.254
309.5660, 1576.077
310.7730, 1438.597
311.9800, 1305.400
313.1870, 1072.855
314.3940, 991.3672
315.6010, 874.6719
316.8070, 862.1904
318.0130, 784.5459
319.2200, 683.7764
320.4260, 695.2842
321.6310, 576.9678
322.8370, 553.2031
324.0430, 584.4375
325.2480, 498.6602
326.4540, 496.3242
327.6590, 436.8291
328.8640, 384.9297
330.0680, 400.2959
331.2730, 348.1816
332.4780, 506.3398
333.6820, 298.5547
334.8860, 280.9336
336.0900, 269.1396
337.2940, 457.4980
338.4980, 223.6934
339.7010, 371.1074
340.9050, 156.6250
342.1080, 246.8916
343.3110, 174.0625
344.5140, 128.5342
345.7170, 143.4502
346.9200, 249.6641
348.1220, 152.2178
349.3240, 218.3506
350.5270, 127.5420
351.7290, 184.7197
352.9310, 166.4238
354.1320, 106.1133
355.3340, 142.2041
356.5350, 90.96484
357.7370, 165.3047
358.9380, 49.63672
360.1390, 21.68652
361.3400, 35.97168
362.5400, 94.71387
363.7410, 46.55078
364.9410, 2.822266
366.1410, 13.18555
367.3410, 14.64551
368.5410, 20.51758
369.7410, 8.282227
370.9400, 30.08594
372.1400, 25.14453
373.3390, 20.05566
374.5380, 98.95410
375.7370, 22.16016
376.9360, 99.70605
378.1350, 120.5596
379.3330, 74.40039
380.5310, 153.3115
381.7300, 30.12500
382.9280, 25.94727
384.1260, 30.73340
385.3230, 0.4794920
386.5210, 50.58984
387.7180, 1.804688
388.9160, 75.17188
390.1130, 127.3682
391.3100, 67.96387
392.5060, 46.75977
393.7030, 123.3799
394.9000, 12.98438
396.0960, 92.55664
397.2920, 122.3203
398.4880, 62.15723
399.6840, 25.45215
400.8800, 201.9297
402.0750, 34.37402
403.2710, 49.80469
404.4660, 87.42090
405.6610, 7.815430
406.8560, 122.6016
408.0510, 20.63477
409.2450, 46.75293
410.4400, 31.13184
411.6340, 52.20801
412.8280, 16.12207
414.0220, 73.51953
415.2160, 2.225586
416.4100, 24.55664
417.6030, 18.47266
418.7970, 118.6670
419.9900, 36.15039
421.1830, 47.99121
422.3760, 24.88184
423.5690, 38.20801
424.7610, 18.71680
425.9540, 6.039063
427.1460, 51.43359
428.3380, 44.48535
429.5300, 62.16504
430.7220, 62.69336
431.9140, 78.66406
433.1050, 50.96680
434.2970, 31.11328
435.4880, 31.19238
436.6790, 72.09375
437.8700, 11.02344
439.0610, 12.93359
440.2510, 20.21777
441.4420, 55.09863
442.6320, 89.65234
443.8220, 74.36035
445.0120, 102.4180
446.2020, 45.56250
447.3910, 203.0537
448.5810, 72.34766
449.7700, 38.18164
450.9600, 178.6895
452.1490, 16.44922
453.3370, 46.00488
454.5260, 47.42578
455.7150, 66.19238
456.9030, 54.64355
458.0910, 106.2256
459.2800, 56.53418
460.4670, 6.863281
461.6550, 154.3965
462.8430, 63.62695
464.0300, 37.09082
465.2180, 207.6953
466.4050, 226.8662
467.5920, 42.04492
468.7790, 195.7266
469.9650, 70.06738
471.1520, 20.14941
472.3380, 103.3643
473.5250, 19.59863
474.7110, 36.58398
475.8970, 224.5908
477.0820, 13.53711
478.2680, 150.4551
479.4540, 103.3740
480.6390, 157.2715
481.8240, 89.36621
483.0090, 64.22461
484.1940, 123.0615
485.3780, 189.9219
486.5630, 72.73633
487.7470, 3.530273
488.9320, 132.2871
490.1160, 55.04395
491.3000, 179.7588
492.4830, 134.4531
493.6670, 136.1279
494.8500, 123.7842
496.0340, 135.4189
497.2170, 248.0332
498.4000, 202.2568
499.5820, 234.6982
500.7650, 159.7725
501.9480, 174.3193
503.1300, 96.92480
504.3120, 57.56836
505.4940, 218.8740
506.6760, 137.3008
507.8580, 262.6689
509.0390, 30.60938
510.2210, 189.9814
511.4020, 145.4316
512.5830, 49.40332
513.7640, 127.9053
514.9450, 327.1875
516.1250, 262.4434
517.3060, 281.6875
518.4860, 277.7793
519.6660, 182.0410
520.8460, 196.2363
522.0260, 142.4199
523.2060, 175.5840
524.3850, 158.4590
525.5650, 228.7871
526.7440, 160.9209
527.9230, 132.8164
529.1020, 146.6377
530.2810, 97.35254
531.4590, 53.37598
532.6380, 241.5420
533.8160, 139.0518
534.9940, 263.1250
536.1720, 270.0898
537.3500, 371.8672
538.5270, 113.1611
539.7050, 190.0674
540.8820, 130.9463
542.0590, 217.8535
543.2360, 296.1348
544.4130, 344.3555
545.5900, 119.9443
546.7660, 86.10547
547.9430, 381.9062
549.1190, 81.05664
550.2950, 243.8652
551.4710, 233.4883
552.6470, 96.24414
553.8220, 248.1221
554.9980, 152.6514
556.1730, 149.8906
557.3480, 13.44238
558.5230, 19.71484
559.6980, 249.0000
560.8730, 182.6045
562.0470, 200.8896
563.2220, 179.2227
564.3960, 206.1230
565.5700, 49.36426
566.7440, 89.47168
567.9170, 67.14648
569.0910, 193.3604
570.2640, 94.52148
571.4380, 211.7275
572.6110, 266.9131
573.7840, 71.13770
574.9570, 104.2197
576.1290, 116.1914
577.3020, 164.1338
578.4740, 211.2285
579.6460, 127.4131
580.8180, 147.9082
581.9900, 71.42773
583.1620, 141.7158
584.3330, 208.7598
585.5040, 59.71484
586.6760, 64.75879
587.8470, 157.4795
589.0180, 178.5332
590.1880, 191.4961
591.3590, 245.1602
592.5290, 51.15723
593.7000, 136.5156
594.8700, 104.1572
596.0400, 74.49902
597.2090, 110.1777
598.3790, 73.75488
599.5490, 151.6533
600.7180, 59.22070
601.8870, 130.9365
603.0560, 154.7598
604.2250, 72.29004
605.3940, 33.62695
606.5620, 132.3916
607.7300, 126.1357
608.8990, 12.44824
610.0670, 77.15430
611.2350, 147.5713
612.4020, 95.65527
613.5700, 158.3311
614.7370, 84.88965
615.9050, 121.4883
617.0720, 141.2080
618.2390, 136.6172
619.4060, 174.3955
620.5720, 142.7783
621.7390, 83.89746
622.9050, 179.4688
624.0710, 156.9473
625.2370, 132.8154
626.4030, 220.3164
627.5690, 212.6582
628.7340, 255.4590
629.9000, 133.0879
631.0650, 343.3867
632.2300, 258.0820
633.3950, 227.7764
634.5600, 341.3906
635.7240, 185.9062
636.8890, 221.1592
638.0530, 400.5811
639.2170, 184.7734
640.3810, 214.6846
641.5450, 175.3896
642.7080, 121.1904
643.8720, 172.1201
645.0350, 132.6182
646.1980, 132.3838
647.3610, 215.8955
648.5240, 119.1963
649.6870, 128.9512
650.8490, 165.3594
652.0120, 202.2422
653.1740, 89.06445
654.3360, 194.6865
655.4980, 135.9209
656.6600, 217.7021
657.8210, 254.0898
658.9830, 125.3643
660.1440, 147.0068
661.3050, 144.8564
662.4660, 253.2158
663.6270, 184.4453
664.7870, 272.3848
665.9480, 124.3291
667.1080, 124.8633
668.2680, 196.7070
669.4280, 208.2852
670.5880, 175.4023
671.7480, 98.78223
672.9070, 148.0176
674.0670, 116.0566
675.2260, 269.3105
676.3850, 175.4463
677.5440, 56.34277
678.7030, 182.6582
679.8610, 74.83984
681.0200, 100.8027
682.1780, 49.40820
683.3360, 31.54004
684.4940, 47.64941
685.6520, 8.376953
686.8090, 128.1719
687.9670, 56.78711
689.1240, 194.6289
690.2810, 220.6953
691.4380, 94.25879
692.5950, 99.67773
693.7520, 120.4443
694.9080, 171.0771
696.0650, 212.9453
697.2210, 217.4014
698.3770, 249.0645
699.5330, 130.4971
700.6880, 303.3799
701.8440, 197.8457
702.9990, 265.5029
704.1550, 283.9756
705.3100, 440.9746
706.4650, 321.4004
707.6190, 394.8428
708.7740, 323.5566
709.9290, 520.8223
711.0830, 538.2617
712.2370, 541.6025
713.3910, 627.6875
714.5450, 620.2383
715.6980, 850.6904
716.8520, 957.9600
718.0050, 1028.011
719.1580, 1060.655
720.3110, 1117.149
721.4640, 1004.595
722.6170, 868.7979
723.7700, 847.0059
724.9220, 890.8281
726.0740, 810.1455
727.2260, 749.4473
728.3780, 659.5996
729.5300, 595.7607
730.6810, 515.6836
731.8330, 499.6592
732.9840, 352.0557
734.1350, 304.0137
735.2860, 212.6963
736.4370, 207.8086
737.5880, 129.0518
738.7380, 213.0996
739.8880, 175.7500
741.0390, 258.1641
742.1890, 200.6768
743.3380, 229.4062
744.4880, 280.9561
745.6380, 218.9043
746.7870, 163.3164
747.9360, 198.6758
749.0850, 150.5078
750.2340, 78.38672
751.3830, 107.0938
752.5310, 186.9551
753.6800, 23.83594
754.8280, 116.7402
755.9760, 146.5410
757.1240, 70.58203
758.2720, 196.1426
759.4190, 13.23242
760.5670, 80.75195
761.7140, 74.52734
762.8610, 57.71094
764.0080, 140.1113
765.1550, 100.6758
766.3020, 117.6582
767.4480, 81.19336
768.5950, 73.18359
769.7410, 72.78711
770.8870, 57.81055
772.0330, 73.67383
773.1780, 80.16211
774.3240, 156.5840
775.4690, 120.9746
776.6140, 14.36133
777.7590, 14.07617
778.9040, 46.53711
780.0490, 31.13281
781.1940, 157.3223
782.3380, 161.0215
783.4820, 20.56445
784.6260, 51.00195
785.7700, 117.2090
786.9140, 44.03711
788.0580, 89.98633
789.2010, 43.74219
790.3450, 95.73828
791.4880, 12.61719
792.6310, 115.6719
793.7730, 9.056641
794.9160, 70.06641
796.0590, 2.945313
797.2010, 9.103516
798.3430, 12.73242
799.4850, 40.15820
800.6270, 87.48047
801.7690, 264.4531
802.9100, 175.2793
804.0520, 18.30078
805.1930, 139.1719
806.3340, 10.93750
807.4750, 36.45312
808.6160, 222.8613
809.7560, 71.60547
810.8970, 47.01562
812.0370, 17.50586
813.1770, 87.12109
814.3170, 139.6836
815.4570, 13.85938
816.5960, 61.61328
817.7360, 84.81836
818.8750, 56.88867
820.0140, 62.10938
821.1530, 133.0117
822.2920, 16.57617
823.4310, 49.57422
824.5690, 185.8184
825.7070, 16.74609
826.8460, 36.03516
827.9840, 165.3008
829.1220, 112.3242
830.2590, 96.35156
831.3970, 114.4785
832.5340, 60.96289
833.6710, 61.07812
834.8080, 37.41211
835.9450, 40.55273
837.0820, 49.90820
838.2190, 153.8945
839.3550, 98.15234
840.4910, 140.2090
841.6270, 205.0566
842.7630, 82.08008
843.8990, 52.08203
845.0350, 68.40820
846.1700, 112.3691
847.3060, 130.4336
848.4410, 253.3594
849.5760, 123.2637
850.7100, 40.15234
851.8450, 71.01953
852.9800, 297.8652
854.1140, 13.69141
855.2480, 160.7539
856.3820, 170.5762
857.5160, 18.21484
858.6500, 202.9648
859.7830, 283.6934
860.9170, 245.4062
862.0500, 28.10156
863.1830, 114.7734
864.3160, 156.4297
865.4480, 327.1797
866.5810, 188.8008
867.7130, 191.4023
868.8460, 76.02539
869.9780, 166.5898
871.1100, 50.13867
872.2410, 309.6660
873.3730, 276.1777
874.5050, 266.6016
875.6360, 61.07812
876.7670, 385.5371
877.8980, 18.97656
879.0290, 182.3965
880.1590, 270.8008
881.2900, 168.8750
882.4200, 18.24414
883.5500, 169.5957
884.6800, 98.92773
885.8100, 159.2422
886.9400, 276.2559
888.0690, 134.3750
889.1990, 81.63867
890.3280, 107.3711
891.4570, 167.4766
892.5860, 114.6895
893.7140, 225.6680
894.8430, 39.84570
895.9710, 19.58984
897.1000, 4.738281
898.2280, 102.0625
899.3560, 63.69727
900.4830, 204.7520
901.6110, 21.62891
902.7380, 173.5566
903.8660, 78.32031
904.9930, 27.03711
906.1200, 30.26758
907.2460, 25.31836
908.3730, 109.9531
909.5000, 120.6016
910.6260, 134.0527
911.7520, 42.68945
912.8780, 96.28320
914.0040, 84.50195
915.1290, 46.89258
916.2550, 158.2012
917.3800, 11.00586
918.5050, 47.79297
919.6300, 66.99219
920.7550, 131.3242
921.8800, 19.08008
923.0040, 20.82422
924.1290, 86.59570
925.2530, 21.45703
926.3770, 192.8965
927.5010, 126.9121
928.6250, 26.43164
929.7480, 163.3691
930.8720, 135.6660
931.9950, 18.05273
933.1180, 196.0391
934.2410, 148.7852
935.3640, 0.9042970
936.4860, 77.79492
937.6090, 162.7188
938.7310, 39.22070
939.8530, 69.08594
940.9750, 139.5137
942.0970, 7.742188
943.2180, 55.77539
944.3400, 51.64648
945.4610, 6.312500
946.5820, 143.8223
947.7030, 85.80273
948.8240, 215.8691
949.9450, 350.1445
951.0650, 38.76562
952.1860, 237.6914
953.3060, 133.7090
954.4260, 136.1719
955.5460, 204.0723
956.6650, 86.26562
957.7850, 159.9492
958.9040, 139.8105
960.0230, 215.0957
961.1420, 136.7676
962.2610, 168.3086
963.3800, 237.8008
964.4990, 159.8848
965.6170, 76.89258
966.7350, 40.97070
967.8530, 63.81055
968.9710, 48.64453
970.0890, 85.36914
971.2070, 37.09570
972.3240, 181.8555
973.4410, 39.01367
974.5580, 149.9570
975.6750, 33.93164
976.7920, 291.1836
977.9090, 110.0137
979.0250, 0.7070310
980.1410, 287.4590
981.2580, 55.61133
982.3740, 316.3477
983.4890, 273.3809
984.6050, 105.3066
985.7200, 208.8770
986.8360, 199.5703
987.9510, 145.5801
989.0660, 15.97852
990.1810, 67.96875
991.2950, 17.05078
992.4100, 234.3555
993.5240, 261.3125
994.6390, 176.2598
995.7530, 174.2012
996.8660, 155.6426
997.9800, 199.4336
999.0940, 46.35156
1000.207, 181.2871
1001.320, 259.4219
1002.433, 63.34375
1003.546, 80.97266
1004.659, 170.8789
1005.772, 204.3887
1006.884, 218.2930
1007.996, 196.2129
1009.108, 296.1328
1010.220, 163.7051
1011.332, 345.6113
1012.444, 228.9980
1013.555, 252.8906
1014.666, 14.22461
1015.777, 209.6465
1016.888, 120.0000
1017.999, 192.8574
1019.110, 189.5410
1020.220, 214.3906
1021.331, 221.2324
1022.441, 212.8242
1023.551, 111.6484
1024.661, 171.3496
1025.770, 166.7090
1026.880, 100.8945
1027.989, 273.7227
1029.098, 211.2227
1030.207, 269.4102
1031.316, 201.6055
1032.425, 370.9297
1033.533, 317.8633
1034.642, 261.9941
1035.750, 428.6699
1036.858, 282.4785
1037.966, 410.1602
1039.073, 367.5508
1040.181, 231.7969
1041.288, 255.1797
1042.396, 217.9102
1043.503, 251.8203
1044.610, 383.9102
1045.716, 354.3906
1046.823, 420.7070
1047.929, 398.6934
1049.036, 504.1621
1050.142, 367.8828
1051.248, 436.3906
1052.353, 471.8535
1053.459, 401.4004
1054.564, 407.1523
1055.670, 476.1992
1056.775, 505.8789
1057.880, 557.4961
1058.985, 637.3984
1060.089, 656.3184
1061.194, 489.6562
1062.298, 696.0879
1063.402, 570.8320
1064.506, 777.5703
1065.610, 802.9277
1066.713, 850.6680
1067.817, 985.8418
1068.920, 1045.719
1070.023, 1149.357
1071.126, 1221.119
1072.229, 1250.930
1073.332, 1248.936
1074.435, 1553.688
1075.537, 1522.658
1076.639, 1645.730
1077.741, 1932.271
1078.843, 2385.330
1079.945, 3107.100
1081.046, 3870.830
1082.148, 4817.744
1083.249, 6371.514
1084.350, 8431.047
1085.451, 11171.90
1086.551, 14525.66
1087.652, 18828.45
1088.752, 23348.23
1089.853, 27781.37
1090.953, 31276.14
1092.053, 33605.91
1093.152, 33785.69
1094.252, 30308.45
1095.351, 25740.21
1096.451, 20540.97
1097.550, 15890.81
1098.649, 11944.73
1099.748, 8750.398
1100.846, 6539.059
1101.945, 4889.656
1103.043, 3697.396
1104.141, 2891.195
1105.239, 2118.965
1106.337, 1566.557
1107.434, 1450.670
1108.532, 1302.625
1109.629, 893.3848
1110.726, 839.1445
1111.823, 909.5605
1112.920, 436.7266
1114.017, 547.3594
1115.113, 522.1152
1116.210, 663.2617
1117.306, 533.0645
1118.402, 335.8398
1119.498, 642.6133
1120.593, 557.3828
1121.689, 695.8945
1122.784, 642.6211
1123.879, 621.5117
1124.974, 409.2715
1126.069, 588.0293
1127.164, 228.0039
1128.259, 78.75586
1129.353, 313.5020
1130.447, 296.5527
1131.541, 205.7129
1132.635, 28.47461
1133.729, 275.2285
1134.822, 317.9395
1135.916, 100.8008
1137.009, 159.7949
1138.102, 76.53516
1139.195, 194.0801
1140.288, 168.1230
1141.380, 279.8496
1142.473, 115.7949
1143.565, 371.5215
1144.657, 224.2422
1145.749, 150.9590
1146.841, 174.9844
1147.932, 134.6953
1149.024, 122.5371
1150.115, 152.5469
1151.206, 153.4922
1152.297, 172.5977
1153.388, 280.0586
1154.479, 224.7559
1155.569, 281.8496
1156.659, 332.1328
1157.750, 277.8164
1158.839, 147.4941
1159.929, 79.16406
1161.019, 20.04883
1162.108, 21.25977
1163.198, 39.60742
1164.287, 6.869141
1165.376, 21.47461
1166.465, 25.07422
1167.553, 108.6680
1168.642, 12.74414
1169.730, 161.8262
1170.818, 348.3945
1171.906, 138.2188
1172.994, 144.7910
1174.082, 66.45117
1175.170, 25.00781
1176.257, 290.5566
1177.344, 135.1133
1178.431, 122.8125
1179.518, 176.3574
1180.605, 9.093750
1181.691, 55.42969
1182.778, 230.9512
1183.864, 247.4648
1184.950, 131.9746
1186.036, 168.4766
1187.122, 22.01953
1188.207, 134.4707
1189.292, 98.04297
1190.378, 28.46484
1191.463, 35.06641
1192.548, 95.31836
1193.632, 107.6816
1194.717, 144.1074
1195.801, 185.2773
1196.886, 172.7305
1197.970, 218.2969
1199.054, 181.9062
1200.137, 200.6523
1201.221, 146.2773
1202.305, 34.71094
1203.388, 76.58789
1204.471, 129.6855
1205.554, 311.9492
1206.637, 237.3047
1207.719, 202.5742
1208.802, 172.2598
1209.884, 168.5176
1210.966, 148.6973
1212.048, 85.17383
1213.130, 127.4395
1214.212, 125.6680
1215.293, 99.88867
1216.374, 218.3633
1217.456, 117.8184
1218.536, 123.7656
1219.617, 32.20898
1220.698, 178.8398
1221.778, 247.0098
1222.859, 121.1797
1223.939, 186.3398
1225.019, 147.5000
1226.099, 288.6504
1227.178, 105.7930
1228.258, 73.92578
1229.337, 101.0508
1230.417, 239.2930
1231.496, 129.4004
1232.574, 205.7852
1233.653, 83.41211
1234.732, 194.4980
1235.810, 167.8379
1236.888, 53.19727
1237.966, 318.2520
1239.044, 161.3086
1240.122, 208.9238
1241.199, 156.9707
1242.277, 39.40039
1243.354, 208.4277
1244.431, 310.7109
1245.508, 16.33789
1246.585, 138.3535
1247.661, 179.3359
1248.738, 375.4395
1249.814, 168.4082
1250.890, 258.3945
1251.966, 242.3438
1253.042, 155.7656
1254.117, 407.6992
1255.193, 344.0371
1256.268, 94.95117
1257.343, 184.8555
1258.418, 406.7539
1259.493, 77.15820
1260.567, 80.95898
1261.642, 360.8789
1262.716, 284.4785
1263.790, 203.2734
1264.864, 128.0547
1265.938, 95.82617
1267.011, 188.5840
1268.085, 98.67773
1269.158, 5.095703
1270.231, 200.0430
1271.304, 105.7051
1272.377, 349.5859
1273.450, 223.2852
1274.522, 222.8867
1275.594, 283.8613
1276.666, 308.1348
1277.738, 128.1777
1278.810, 89.52539
1279.882, 105.1953
1280.953, 262.0273
1282.025, 123.5527
1283.096, 220.0625
1284.167, 171.5645
1285.238, 168.0508
1286.308, 265.5293
1287.379, 193.9941
1288.449, 228.2773
1289.519, 134.8262
1290.589, 221.8398
1291.659, 199.7656
1292.729, 193.5410
1293.798, 475.5684
1294.868, 268.6426
1295.937, 387.7207
1297.006, 264.0820
1298.075, 433.3613
1299.143, 387.7012
1300.212, 101.0273
1301.280, 447.3398
1302.348, 138.6387
1303.416, 291.7910
1304.484, 289.7578
1305.552, 215.0234
1306.620, 127.2754
1307.687, 224.5156
1308.754, 161.7461
1309.821, 382.0098
1310.888, 239.0215
1311.955, 298.2168
1313.021, 502.3984
1314.088, 251.5703
1315.154, 177.7324
1316.220, 199.1484
1317.286, 179.2852
1318.352, 120.8984
1319.417, 166.5957
1320.483, 150.3457
1321.548, 229.4219
1322.613, 185.5059
1323.678, 222.5781
1324.743, 242.6348
1325.807, 15.33203
1326.872, 89.67969
1327.936, 34.31641
1329.000, 88.64844
1330.064, 132.6016
1331.128, 67.21680
1332.191, 418.7559
1333.255, 159.6816
1334.318, 31.40039
1335.381, 279.4961
1336.444, 52.37891
1337.507, 167.2559
1338.569, 227.1230
1339.632, 114.9824
1340.694, 147.0938
1341.756, 209.8887
1342.818, 256.6777
1343.880, 91.37109
1344.941, 312.1953
1346.003, 361.9355
1347.064, 93.67188
1348.125, 47.38086
1349.186, 275.4941
1350.247, 244.3711
1351.308, 325.2266
1352.368, 356.0605
1353.428, 290.0039
1354.489, 331.2695
1355.549, 243.3984
1356.608, 358.7637
1357.668, 126.2285
1358.727, 223.7852
1359.787, 135.2480
1360.846, 120.8320
1361.905, 401.5723
1362.964, 95.04883
1364.022, 87.50977
1365.081, 440.5898
1366.139, 294.0039
1367.197, 29.42578
1368.255, 228.8398
1369.313, 67.22266
1370.371, 294.4395
1371.428, 1.199219
1372.486, 75.85156
1373.543, 11.16602
1374.600, 305.4395
1375.657, 129.5137
1376.713, 204.7949
1377.770, 153.0664
1378.826, 289.6582
1379.882, 44.91211
1380.938, 195.1543
1381.994, 61.38477
1383.050, 297.6230
1384.106, 224.6094
1385.161, 239.0566
1386.216, 39.83398
1387.271, 162.7129
1388.326, 64.64453
1389.381, 298.4961
1390.435, 330.6309
1391.490, 223.7559
1392.544, 186.7578
1393.598, 223.6172
1394.652, 261.7129
1395.705, 123.9922
1396.759, 76.75977
1397.812, 4.867188
1398.866, 86.96484
1399.919, 127.9902
1400.972, 219.9941
1402.024, 57.13477
1403.077, 3.119141
1404.129, 35.76172
1405.181, 17.81445
1406.233, 80.82227
1407.285, 115.6895
1408.337, 182.5684
1409.389, 228.9668
1410.440, 251.6660
1411.491, 312.9922
1412.542, 280.8125
1413.593, 331.6191
1414.644, 324.5332
1415.695, 340.3242
1416.745, 211.9492
1417.795, 367.1406
1418.845, 423.1465
1419.895, 249.8770
1420.945, 397.6016
1421.995, 484.3145
1423.044, 409.1113
1424.093, 537.8027
1425.142, 624.4863
1426.191, 803.1562
1427.240, 793.9902
1428.289, 661.2031
1429.337, 723.7402
1430.385, 815.3711
1431.433, 642.4180
1432.481, 817.0352
1433.529, 765.4688
1434.577, 1000.053
1435.624, 1037.621
1436.672, 1140.539
1437.719, 725.1172
1438.766, 1026.705
1439.812, 947.3848
1440.859, 836.6426
1441.905, 966.2129
1442.952, 876.7695
1443.998, 796.9160
1445.044, 757.2070
1446.090, 583.8262
1447.135, 431.2988
1448.181, 761.7520
1449.226, 381.1875
1450.271, 551.0469
1451.316, 413.6074
1452.361, 484.4629
1453.405, 416.8496
1454.450, 367.9395
1455.494, 386.8262
1456.538, 529.9727
1457.582, 408.2520
1458.626, 428.9883
1459.670, 394.5469
1460.713, 288.0332
1461.757, 300.2832
1462.800, 154.5117
1463.843, 175.7207
1464.886, 203.9199
1465.928, 54.96484
1466.971, 215.6543
1468.013, 217.4004
1469.055, 362.0938
1470.097, 128.4316
1471.139, 345.9434
1472.181, 286.3594
1473.222, 42.93945
1474.263, 32.65039
1475.305, 17.50781
1476.346, 88.67188
1477.386, 17.05469
1478.427, 63.74805
1479.468, 84.82031
1480.508, 121.7383
1481.548, 285.4727
1482.588, 194.1953
1483.628, 282.9102
1484.668, 11.85547
1485.707, 38.08984
1486.747, 99.73828
1487.786, 128.9141
1488.825, 125.2539
1489.864, 147.3047
1490.902, 150.2383
1491.941, 51.35547
1492.979, 127.3086
1494.017, 137.9648
1495.055, 71.61328
1496.093, 284.2500
1497.131, 283.8828
1498.168, 115.5117
1499.206, 317.1328
1500.243, 31.23828
1501.280, 394.3828
1502.317, 270.9961
1503.354, 55.61328
1504.390, 261.2227
1505.426, 174.8281
1506.463, 137.4180
1507.499, 132.0000
1508.535, 223.5391
1509.570, 37.89062
1510.606, 9.664063
1511.641, 148.2734
1512.676, 155.8984
1513.711, 276.5508
1514.746, 320.9062
1515.781, 166.8086
1516.816, 339.4062
1517.850, 357.9844
1518.884, 201.5742
1519.918, 305.2930
1520.952, 334.8594
1521.986, 69.58984
1523.019, 236.3867
1524.053, 185.5703
1525.086, 304.3711
1526.119, 105.4727
1527.152, 154.3594
1528.185, 135.6133
1529.217, 81.82422
1530.250, 182.7461
1531.282, 103.7500
1532.314, 197.0938
1533.346, 292.0195
1534.377, 295.7617
1535.409, 356.2383
1536.440, 394.6094
1537.472, 374.9375
1538.503, 114.3984
1539.534, 272.7969
1540.564, 237.1523
1541.595, 29.80469
1542.625, 73.76953
1543.656, 305.6719
1544.686, 277.5078
1545.716, 319.3047
1546.745, 120.4883
1547.775, 336.1953
1548.804, 370.2500
1549.834, 182.8984
1550.863, 199.1562
1551.892, 524.8984
1552.920, 542.9062
1553.949, 336.0273
1554.977, 53.46875
1556.006, 295.0156
1557.034, 356.6172
1558.062, 256.3555
1559.089, 213.2734
1560.117, 91.37500
1561.144, 313.8125
1562.172, 181.7500
1563.199, 159.2695
1564.226, 62.51172
1565.252, 421.7031
1566.279, 327.5195
1567.305, 5.058594
1568.332, 405.5703
1569.358, 88.21875
1570.384, 0.0000000E+00
##END=



