##NAMES=Ankerite
##RRUFFID=R050197
##IDEAL CHEMISTRY=CaFe^2+^(CO_3_)_2_
##LOCALITY=Brownley Hill mine, Nenthead, Cumbria, England
##OWNER=RRUFF
##SOURCE=Marcus Origlieri
##DESCRIPTION=Curved saddle-shaped rhombohedral crystals
##STATUS=The identification of this mineral has been confirmed by X-ray diffraction and chemical analysis
##URL=rruff.info/R050197
##MEASURED CHEMISTRY=Ca_1.00_(Fe^2+^_0.52_Mg_0.35_Ca_0.08_Mn^2+^_0.05_)_Î£=1_(CO_3_)_2_ ; where C was not measured but estimated by difference and stoichiometry
##PIN_ID=M00064
##ORIENTATION=Laser parallel to -c* (0 0 -1). Fiducial mark perpendicular to laser is parallel to -a [-1 0 0]
114.4400, 0.0000000E+00
115.6710, 38.31421
116.9030, 41.99902
118.1340, 18.71924
119.3650, 52.56152
120.5960, 15.21802
121.8270, 9.136475
123.0580, 1.930664
124.2880, 6.037109
125.5190, 11.75146
126.7490, 32.94116
127.9790, 43.37207
129.2090, 99.88403
130.4390, 125.3459
131.6680, 113.6479
132.8980, 164.6987
134.1270, 213.4243
135.3560, 185.7612
136.5850, 272.6523
137.8140, 289.0483
139.0430, 414.9062
140.2710, 426.1863
141.5000, 407.8538
142.7280, 498.8772
143.9560, 555.2285
145.1840, 644.8818
146.4120, 719.8145
147.6390, 835.9517
148.8670, 941.4392
150.0940, 1131.103
151.3210, 1302.995
152.5490, 1550.740
153.7750, 1663.414
155.0020, 2069.908
156.2290, 2411.579
157.4550, 2717.417
158.6810, 3224.412
159.9080, 3597.554
161.1340, 4033.834
162.3590, 4436.244
163.5850, 4766.775
164.8110, 4982.421
166.0360, 5148.171
167.2610, 5138.021
168.4860, 5038.967
169.7110, 4600.999
170.9360, 4115.113
172.1610, 3583.304
173.3850, 3165.568
174.6100, 2632.899
175.8340, 2315.295
177.0580, 1896.750
178.2820, 1589.261
179.5050, 1255.827
180.7290, 1104.453
181.9520, 926.1455
183.1760, 744.9204
184.3990, 654.7605
185.6220, 571.7195
186.8450, 545.8311
188.0670, 437.1177
189.2900, 464.4290
190.5120, 430.7629
191.7340, 397.0864
192.9560, 387.4216
194.1780, 347.7998
195.4000, 343.2173
196.6220, 340.8499
197.8430, 326.2917
199.0640, 346.8870
200.2860, 334.4978
201.5070, 326.1570
202.7270, 344.8259
203.9480, 229.5125
205.1690, 251.2078
206.3890, 190.9543
207.6090, 199.7039
208.8290, 130.4556
210.0490, 159.2139
211.2690, 191.9922
212.4890, 217.7817
213.7080, 224.8567
214.9280, 241.9421
216.1470, 220.1873
217.3660, 247.9971
218.5850, 226.8074
219.8030, 211.6191
221.0220, 272.4338
222.2400, 244.2520
223.4590, 289.0720
224.6770, 290.8931
225.8950, 368.7129
227.1120, 332.5303
228.3300, 387.3445
229.5480, 417.1570
230.7650, 499.9717
231.9820, 485.7839
233.1990, 592.5920
234.4160, 594.3960
235.6330, 714.1943
236.8490, 688.9866
238.0660, 749.7732
239.2820, 821.5532
240.4980, 908.3271
241.7140, 995.0232
242.9300, 1087.934
244.1460, 1205.702
245.3610, 1319.768
246.5770, 1458.779
247.7920, 1600.731
249.0070, 1798.655
250.2220, 2010.211
251.4370, 2194.655
252.6510, 2386.631
253.8660, 2624.701
255.0800, 2926.792
256.2940, 3342.169
257.5080, 3690.525
258.7220, 4312.032
259.9360, 4764.627
261.1490, 5195.458
262.3630, 5840.378
263.5760, 6303.892
264.7890, 7102.109
266.0020, 7825.141
267.2150, 8650.382
268.4270, 9564.640
269.6400, 10604.93
270.8520, 11531.68
272.0640, 12534.62
273.2760, 13651.49
274.4880, 14532.00
275.7000, 15357.49
276.9120, 16111.91
278.1230, 16806.38
279.3340, 17217.26
280.5450, 17484.26
281.7560, 17490.79
282.9670, 17420.31
284.1780, 17124.00
285.3880, 16674.74
286.5980, 15972.43
287.8090, 15291.19
289.0190, 14492.73
290.2290, 13411.35
291.4380, 12589.05
292.6480, 11480.51
293.8570, 10512.15
295.0670, 9495.802
296.2760, 8619.979
297.4850, 7813.645
298.6930, 6860.459
299.9020, 5993.966
301.1110, 5362.541
302.3190, 4825.601
303.5270, 4132.289
304.7350, 3721.176
305.9430, 3376.951
307.1510, 2939.817
308.3580, 2649.491
309.5660, 2423.424
310.7730, 2099.135
311.9800, 1967.683
313.1870, 1846.342
314.3940, 1680.988
315.6010, 1578.086
316.8070, 1394.927
318.0130, 1277.629
319.2200, 1179.287
320.4260, 1122.948
321.6310, 1009.547
322.8370, 941.2653
324.0430, 954.9758
325.2480, 823.7125
326.4540, 784.5137
327.6590, 752.2466
328.8640, 688.0475
330.0680, 696.7249
331.2730, 674.3420
332.4780, 614.0326
333.6820, 546.7285
334.8860, 570.2875
336.0900, 559.7585
337.2940, 557.2526
338.4980, 544.7308
339.7010, 535.3374
340.9050, 518.7855
342.1080, 506.2302
343.3110, 496.7999
344.5140, 468.7327
345.7170, 492.1674
346.9200, 355.7516
348.1220, 404.1328
349.3240, 316.5685
350.5270, 334.9277
351.7290, 247.3776
352.9310, 244.7150
354.1320, 230.0409
355.3340, 216.3556
356.5350, 224.6589
357.7370, 176.9531
358.9380, 160.2329
360.1390, 103.5227
361.3400, 73.78345
362.5400, 107.0317
363.7410, 81.26733
364.9410, 54.56030
366.1410, 78.82007
367.3410, 74.03418
368.5410, 46.23547
369.7410, 9.424927
370.9400, 29.60083
372.1400, 25.76587
373.3390, 2.080322
374.5380, 8.061279
375.7370, 6.189209
376.9360, 2.461060
378.1350, 13.41125
379.3330, 11.50598
380.5310, 10.41296
381.7300, 0.3487550
382.9280, 5.543213
384.1260, 3.731934
385.3230, 4.250122
386.5210, 17.75110
387.7180, 13.91345
388.9160, 13.70972
390.1130, 1.334717
391.3100, 5.397461
392.5060, 1.520874
393.7030, 22.58374
394.9000, 30.71594
396.0960, 14.12524
397.2920, 8.949829
398.4880, 44.24829
399.6840, 48.48340
400.8800, 17.23914
402.0750, 75.07007
403.2710, 1.566650
404.4660, 49.84033
405.6610, 16.28735
406.8560, 15.24231
408.0510, 33.23853
409.2450, 4.247192
410.4400, 2.717896
411.6340, 37.17224
412.8280, 8.382690
414.0220, 1.961426
415.2160, 17.56042
416.4100, 15.18909
417.6030, 39.84680
418.7970, 6.546753
419.9900, 20.27234
421.1830, 4.031006
422.3760, 9.814697
423.5690, 10.62671
424.7610, 18.46826
425.9540, 1.343628
427.1460, 22.75586
428.3380, 9.837891
429.5300, 29.10083
430.7220, 24.91956
431.9140, 52.92224
433.1050, 0.9086910
434.2970, 35.86926
435.4880, 4.812500
436.6790, 49.73145
437.8700, 51.63354
439.0610, 37.48132
440.2510, 54.35657
441.4420, 36.17749
442.6320, 106.9799
443.8220, 84.76636
445.0120, 23.53662
446.2020, 62.31348
447.3910, 36.04565
448.5810, 3.758667
449.7700, 39.44434
450.9600, 72.12134
452.1490, 1.770508
453.3370, 65.41626
454.5260, 115.0188
455.7150, 79.61401
456.9030, 83.19214
458.0910, 27.74316
459.2800, 47.27283
460.4670, 70.88818
461.6550, 81.38025
462.8430, 80.95288
464.0300, 95.51672
465.2180, 66.95581
466.4050, 68.40991
467.5920, 61.81323
468.7790, 53.32056
469.9650, 61.72986
471.1520, 53.07507
472.3380, 73.40076
473.5250, 86.70789
474.7110, 67.99683
475.8970, 65.42334
477.0820, 96.92944
478.2680, 126.1630
479.4540, 109.3835
480.6390, 111.5825
481.8240, 109.7642
483.0090, 96.99341
484.1940, 102.1848
485.3780, 84.31519
486.5630, 38.48523
487.7470, 112.6696
488.9320, 74.74927
490.1160, 132.9833
491.3000, 106.0186
492.4830, 158.0983
493.6670, 98.29602
494.8500, 150.2786
496.0340, 144.2437
497.2170, 136.3209
498.4000, 155.3357
499.5820, 123.2634
500.7650, 177.3297
501.9480, 121.4310
503.1300, 188.2935
504.3120, 144.1387
505.4940, 145.9670
506.6760, 109.9197
507.8580, 118.6110
509.0390, 169.1932
510.2210, 138.9763
511.4020, 160.9636
512.5830, 172.6199
513.7640, 173.7819
514.9450, 180.5667
516.1250, 175.9612
517.3060, 170.5157
518.4860, 163.0441
519.6660, 144.4916
520.8460, 140.7363
522.0260, 140.7664
523.2060, 146.7153
524.3850, 151.0315
525.5650, 153.0793
526.7440, 195.5491
527.9230, 180.5852
529.1020, 169.9523
530.2810, 230.4484
531.4590, 188.8049
532.6380, 195.7078
533.8160, 196.3636
534.9940, 193.0979
536.1720, 198.7924
537.3500, 188.1882
538.5270, 185.7410
539.7050, 184.4182
540.8820, 179.1226
542.0590, 173.7640
543.2360, 189.8623
544.4130, 189.8212
545.5900, 182.4438
546.7660, 191.8009
547.9430, 164.2261
549.1190, 203.1685
550.2950, 205.4597
551.4710, 176.0355
552.6470, 124.5021
553.8220, 164.5378
554.9980, 139.2408
556.1730, 255.3103
557.3480, 179.3646
558.5230, 187.5325
559.6980, 148.1178
560.8730, 119.7599
562.0470, 156.5071
563.2220, 115.2407
564.3960, 182.5790
565.5700, 197.8346
566.7440, 150.5667
567.9170, 199.8018
569.0910, 164.9618
570.2640, 206.2375
571.4380, 168.1829
572.6110, 121.7701
573.7840, 122.5781
574.9570, 169.3208
576.1290, 163.9843
577.3020, 165.8893
578.4740, 126.6219
579.6460, 172.3473
580.8180, 117.5430
581.9900, 139.2499
583.1620, 137.8065
584.3330, 93.66870
585.5040, 84.45947
586.6760, 73.75964
587.8470, 101.4276
589.0180, 130.8899
590.1880, 96.45825
591.3590, 75.92737
592.5290, 114.5806
593.7000, 70.96509
594.8700, 113.5630
596.0400, 74.31482
597.2090, 73.94556
598.3790, 104.5779
599.5490, 91.74683
600.7180, 50.16150
601.8870, 91.70300
603.0560, 51.27551
604.2250, 48.83301
605.3940, 74.43799
606.5620, 65.91174
607.7300, 73.38135
608.8990, 47.81128
610.0670, 58.16211
611.2350, 81.56628
612.4020, 123.8875
613.5700, 75.31689
614.7370, 84.79053
615.9050, 34.17432
617.0720, 17.53442
618.2390, 78.01416
619.4060, 69.56738
620.5720, 100.0837
621.7390, 111.6025
622.9050, 54.10632
624.0710, 58.54639
625.2370, 8.003052
626.4030, 54.35059
627.5690, 45.32178
628.7340, 65.77173
629.9000, 24.05286
631.0650, 70.51697
632.2300, 51.90723
633.3950, 20.35608
634.5600, 100.6945
635.7240, 73.12488
636.8890, 34.54724
638.0530, 44.96045
639.2170, 61.36475
640.3810, 23.75793
641.5450, 12.85510
642.7080, 72.49622
643.8720, 82.85657
645.0350, 73.23352
646.1980, 28.58081
647.3610, 24.15002
648.5240, 22.79163
649.6870, 55.50635
650.8490, 9.796753
652.0120, 62.08142
653.1740, 1.640869
654.3360, 1.368408
655.4980, 3.095093
656.6600, 46.14905
657.8210, 57.46143
658.9830, 26.30798
660.1440, 20.89966
661.3050, 24.09961
662.4660, 7.865723
663.6270, 52.05383
664.7870, 26.23792
665.9480, 23.41748
667.1080, 24.59070
668.2680, 77.85571
669.4280, 14.08936
670.5880, 41.24524
671.7480, 76.39514
672.9070, 39.54175
674.0670, 49.69250
675.2260, 60.85327
676.3850, 4.996826
677.5440, 53.69458
678.7030, 104.6360
679.8610, 7.223633
681.0200, 46.60596
682.1780, 54.75818
683.3360, 28.90552
684.4940, 77.06934
685.6520, 61.23572
686.8090, 58.54248
687.9670, 97.77332
689.1240, 52.94482
690.2810, 57.12305
691.4380, 84.29932
692.5950, 62.47363
693.7520, 53.64307
694.9080, 134.8140
696.0650, 142.0200
697.2210, 143.1973
698.3770, 175.4204
699.5330, 167.7063
700.6880, 237.9141
701.8440, 272.1174
702.9990, 290.3228
704.1550, 355.5305
705.3100, 427.7417
706.4650, 491.9580
707.6190, 605.1755
708.7740, 711.9143
709.9290, 824.8428
711.0830, 977.0645
712.2370, 1094.283
713.3910, 1248.499
714.5450, 1454.733
715.6980, 1637.948
716.8520, 1810.164
718.0050, 1920.375
719.1580, 1997.584
720.3110, 2031.804
721.4640, 1859.020
722.6170, 1871.234
723.7700, 1717.444
724.9220, 1582.650
726.0740, 1391.841
727.2260, 1208.042
728.3780, 1099.241
729.5300, 902.4419
730.6810, 872.6296
731.8330, 779.8245
732.9840, 693.9966
734.1350, 652.1912
735.2860, 469.3730
736.4370, 484.5508
737.5880, 420.7356
738.7380, 415.9192
739.8880, 409.9954
741.0390, 343.1743
742.1890, 333.2520
743.3380, 322.3179
744.4880, 235.5715
745.6380, 288.2319
746.7870, 225.3960
747.9360, 230.4521
749.0850, 243.5508
750.2340, 154.7095
751.3830, 106.8665
752.5310, 160.0210
753.6800, 155.1731
754.8280, 142.1670
755.9760, 159.4087
757.1240, 91.10864
758.2720, 154.0142
759.4190, 104.1169
760.5670, 92.06616
761.7140, 127.2361
762.8610, 142.3230
764.0080, 58.45117
765.1550, 98.51880
766.3020, 88.55054
767.4480, 47.66675
768.5950, 64.96899
769.7410, 51.72803
770.8870, 49.21484
772.0330, 76.13330
773.1780, 67.24707
774.3240, 89.35840
775.4690, 49.33838
776.6140, 96.36133
777.7590, 50.45190
778.9040, 66.38477
780.0490, 47.26343
781.1940, 50.36157
782.3380, 26.95435
783.4820, 40.04810
784.6260, 43.63086
785.7700, 12.72144
786.9140, 65.00366
788.0580, 52.06592
789.2010, 61.70166
790.3450, 74.78442
791.4880, 27.41113
792.6310, 24.05518
793.7730, 37.60620
794.9160, 9.630615
796.0590, 106.7017
797.2010, 54.81348
798.3430, 47.73267
799.4850, 6.333740
800.6270, 32.49634
801.7690, 71.72876
802.9100, 37.66602
804.0520, 32.59302
805.1930, 1.525391
806.3340, 6.503662
807.4750, 27.47119
808.6160, 24.47437
809.7560, 29.52856
810.8970, 52.00659
812.0370, 20.04785
813.1770, 70.09937
814.3170, 21.37280
815.4570, 57.33691
816.5960, 46.66553
817.7360, 8.124756
818.8750, 27.83472
820.0140, 57.82837
821.1530, 63.71558
822.2920, 18.70776
823.4310, 0.6987300
824.5690, 14.31274
825.7070, 34.66528
826.8460, 58.64185
827.9840, 56.61792
829.1220, 66.59351
830.2590, 44.56787
831.3970, 50.54175
832.5340, 8.514160
833.6710, 16.89746
834.8080, 9.229736
835.9450, 2.199219
837.0820, 15.16626
838.2190, 17.13232
839.3550, 49.17236
840.4910, 56.08838
841.6270, 37.09961
842.7630, 61.06152
843.8990, 52.02271
845.0350, 1.017334
846.1700, 55.93921
847.3060, 40.89453
848.4410, 77.84888
849.5760, 43.80249
850.7100, 10.15186
851.8450, 33.10327
852.9800, 33.05396
854.1140, 39.00342
855.2480, 97.95239
856.3820, 87.90015
857.5160, 104.2402
858.6500, 24.79297
859.7830, 78.73828
860.9170, 87.68262
862.0500, 7.626465
863.1830, 100.5691
864.3160, 115.5110
865.4480, 167.4521
866.5810, 190.3931
867.7130, 199.3328
868.8460, 298.2720
869.9780, 332.2109
871.1100, 386.1492
872.2410, 355.0867
873.3730, 308.0234
874.5050, 282.9602
875.6360, 228.4502
876.7670, 172.8325
877.8980, 116.7683
879.0290, 69.70386
880.1590, 0.6394040
881.2900, 7.426270
882.4200, 88.50293
883.5500, 40.43188
884.6800, 80.36084
885.8100, 13.29004
886.9400, 23.21875
888.0690, 40.14746
889.1990, 19.07593
890.3280, 24.00415
891.4570, 2.067139
892.5860, 11.13940
893.7140, 12.21851
894.8430, 15.43945
895.9710, 13.12085
897.1000, 0.5009770
898.2280, 2.395996
899.3560, 15.29297
900.4830, 37.19458
901.6110, 61.09668
902.7380, 7.999023
903.8660, 27.90210
904.9930, 18.13086
906.1200, 7.290039
907.2460, 19.61230
908.3730, 22.51831
909.5000, 39.51807
910.6260, 62.33179
911.7520, 41.23926
912.8780, 6.147705
914.0040, 17.05664
915.1290, 17.96655
916.2550, 9.882813
917.3800, 9.200684
918.5050, 24.68970
919.6300, 51.60229
920.7550, 26.48364
921.8800, 48.34814
923.0040, 61.26587
924.1290, 14.81567
925.2530, 7.097168
926.3770, 50.01929
927.5010, 20.93799
928.6250, 50.84741
929.7480, 69.78125
930.8720, 43.64307
931.9950, 3.580811
933.1180, 20.52808
934.2410, 5.476563
935.3640, 78.85303
936.4860, 4.194824
937.6090, 11.75586
938.7310, 86.70850
939.8530, 56.66211
940.9750, 12.52148
942.0970, 20.40723
943.2180, 29.36548
944.3400, 59.32617
945.4610, 27.71167
946.5820, 71.23853
947.7030, 12.17798
948.8240, 5.132080
949.9450, 46.54858
951.0650, 83.71191
952.1860, 56.67285
953.3060, 15.95166
954.4260, 53.91968
955.5460, 35.88916
956.6650, 47.86523
957.7850, 47.83838
958.9040, 56.68359
960.0230, 81.60986
961.1420, 72.24194
962.2610, 69.67310
963.3800, 55.56494
964.4990, 50.55371
965.6170, 16.54443
966.7350, 22.53711
967.8530, 12.50342
968.9710, 30.51123
970.0890, 59.43457
971.2070, 10.33276
972.3240, 25.31299
973.4410, 3.695068
974.5580, 36.29785
975.6750, 27.29248
976.7920, 37.28955
977.9090, 27.28882
979.0250, 82.29004
980.1410, 80.05420
981.2580, 68.06226
982.3740, 43.07227
983.4890, 79.08496
984.6050, 12.90039
985.7200, 96.09668
986.8360, 104.1179
987.9510, 55.14136
989.0660, 11.16748
990.1810, 82.19580
991.2950, 94.22632
992.4100, 52.25928
993.5240, 97.29443
994.6390, 135.3323
995.7530, 58.37720
996.8660, 117.4114
997.9800, 68.46143
999.0940, 155.5142
1000.207, 78.56885
1001.320, 70.62646
1002.433, 67.68652
1003.546, 89.74878
1004.659, 80.81396
1005.772, 60.88135
1006.884, 133.9509
1007.996, 131.0396
1009.108, 163.1306
1010.220, 159.2246
1011.332, 111.3223
1012.444, 107.4224
1013.555, 126.4451
1014.666, 118.5464
1015.777, 189.1279
1016.888, 166.2385
1017.999, 204.3516
1019.110, 197.4673
1020.220, 229.5857
1021.331, 246.7065
1022.441, 217.8306
1023.551, 197.9570
1024.661, 239.0867
1025.770, 284.0310
1026.880, 214.4656
1027.989, 311.8442
1029.098, 263.0310
1030.207, 282.3716
1031.316, 288.4265
1032.425, 296.5850
1033.533, 316.9941
1034.642, 337.9102
1035.750, 362.0774
1036.858, 397.2476
1037.966, 439.4209
1039.073, 478.5977
1040.181, 435.8113
1041.288, 399.5396
1042.396, 451.7266
1043.503, 436.9160
1044.610, 519.1089
1045.716, 477.3047
1046.823, 549.5034
1047.929, 549.7051
1049.036, 541.9365
1050.142, 609.1436
1051.248, 594.8574
1052.353, 639.0708
1053.459, 608.2871
1054.564, 608.9756
1055.670, 698.1985
1056.775, 726.4243
1057.880, 781.8989
1058.985, 844.0081
1060.089, 863.2427
1061.194, 989.4805
1062.298, 1049.375
1063.402, 1160.071
1064.506, 1280.327
1065.610, 1369.586
1066.713, 1526.849
1067.817, 1606.114
1068.920, 1772.384
1070.023, 1957.472
1071.126, 2112.751
1072.229, 2244.032
1073.332, 2433.317
1074.435, 2810.605
1075.537, 3112.899
1076.639, 3685.424
1077.741, 4295.740
1078.843, 5483.573
1079.945, 6896.181
1081.046, 8845.502
1082.148, 11845.83
1083.249, 16050.16
1084.350, 22227.52
1085.451, 29800.87
1086.551, 39053.24
1087.652, 48200.61
1088.752, 55885.97
1089.853, 60544.35
1090.953, 60575.72
1092.053, 56961.10
1093.152, 49246.49
1094.252, 40324.87
1095.351, 31725.27
1096.451, 24015.66
1097.550, 17921.06
1098.649, 13276.46
1099.748, 9655.893
1100.846, 7346.885
1101.945, 5305.933
1103.043, 4070.005
1104.141, 3196.424
1105.239, 2469.845
1106.337, 1924.193
1107.434, 1549.619
1108.532, 1329.047
1109.629, 1120.481
1110.726, 1050.918
1111.823, 833.3572
1112.920, 795.2986
1114.017, 647.7454
1115.113, 653.1946
1116.210, 558.6462
1117.306, 565.7029
1118.402, 446.4724
1119.498, 463.9307
1120.593, 495.4050
1121.689, 518.8674
1122.784, 493.5500
1123.879, 400.7988
1124.974, 425.2681
1126.069, 322.7656
1127.164, 269.3579
1128.259, 277.8333
1129.353, 240.3105
1130.447, 200.7896
1131.541, 196.2708
1132.635, 164.7595
1133.729, 141.3044
1134.822, 167.7312
1135.916, 101.2197
1137.009, 110.7100
1138.102, 111.2024
1139.195, 81.44531
1140.288, 103.1633
1141.380, 124.5483
1142.473, 88.21069
1143.565, 138.7112
1144.657, 64.21265
1145.749, 158.7156
1146.841, 134.2207
1147.932, 45.72974
1149.024, 62.23999
1150.115, 95.75171
1151.206, 53.26489
1152.297, 76.77905
1153.388, 46.29468
1154.479, 71.81177
1155.569, 91.41064
1156.659, 52.53076
1157.750, 64.06812
1158.839, 55.65942
1159.929, 18.49365
1161.019, 56.02954
1162.108, 43.57031
1163.198, 34.11304
1164.287, 71.65601
1165.376, 39.20020
1166.465, 20.74561
1167.553, 39.29150
1168.642, 44.91357
1169.730, 42.46143
1170.818, 12.67310
1171.906, 14.12622
1172.994, 93.41626
1174.082, 50.95923
1175.170, 19.50293
1176.257, 111.0479
1177.344, 21.59302
1178.431, 68.13867
1179.518, 1.314697
1180.605, 51.23169
1181.691, 117.7791
1182.778, 11.32886
1183.864, 40.87915
1184.950, 30.43042
1186.036, 5.988281
1187.122, 33.60376
1188.207, 1.837402
1189.292, 34.21509
1190.378, 16.33130
1191.463, 31.87817
1192.548, 14.14038
1193.632, 10.59912
1194.717, 14.69092
1195.801, 10.22778
1196.886, 34.88062
1197.970, 30.63794
1199.054, 63.00830
1200.137, 47.97656
1201.221, 56.63672
1202.305, 114.1748
1203.388, 19.71265
1204.471, 42.25049
1205.554, 83.66089
1206.637, 3.622314
1207.719, 0.9118650
1208.802, 30.85352
1209.884, 4.606689
1210.966, 58.92944
1212.048, 92.91382
1213.130, 45.44897
1214.212, 76.34985
1215.293, 39.88354
1216.374, 56.32910
1217.456, 38.86108
1218.536, 14.56372
1219.617, 6.957764
1220.698, 47.47778
1221.778, 25.03687
1222.859, 32.56982
1223.939, 45.08716
1225.019, 12.60327
1226.099, 53.11865
1227.178, 43.63281
1228.258, 21.14551
1229.337, 3.657471
1230.417, 21.16772
1231.496, 33.67871
1232.574, 7.723389
1233.653, 48.78540
1234.732, 17.29248
1235.810, 114.7983
1236.888, 46.30371
1237.966, 43.80737
1239.044, 36.18921
1240.122, 30.69019
1241.199, 28.87939
1242.277, 3.885254
1243.354, 22.60620
1244.431, 35.09692
1245.508, 26.58594
1246.585, 64.07373
1247.661, 16.42993
1248.738, 69.05347
1249.814, 14.53540
1250.890, 48.01514
1251.966, 73.49341
1253.042, 26.97119
1254.117, 19.44678
1255.193, 12.92090
1256.268, 12.60693
1257.343, 62.91016
1258.418, 31.36890
1259.493, 71.82568
1260.567, 71.02612
1261.642, 19.73413
1262.716, 58.18506
1263.790, 63.63452
1264.864, 56.08154
1265.938, 84.52710
1267.011, 45.97046
1268.085, 53.58789
1269.158, 22.81982
1270.231, 6.225830
1271.304, 4.628174
1272.377, 69.02734
1273.450, 47.42432
1274.522, 92.81885
1275.594, 115.2119
1276.666, 65.60278
1277.738, 46.99170
1278.810, 36.37842
1279.882, 73.76318
1280.953, 83.14575
1282.025, 62.52661
1283.096, 87.90503
1284.167, 9.281494
1285.238, 18.34497
1286.308, 23.01245
1287.379, 11.36719
1288.449, 2.718994
1289.519, 49.06592
1290.589, 40.41016
1291.659, 27.75220
1292.729, 107.0918
1293.798, 41.42920
1294.868, 80.76416
1295.937, 80.09668
1297.006, 11.42676
1298.075, 67.75391
1299.143, 3.078369
1300.212, 46.93433
1301.280, 40.70654
1302.348, 87.02148
1303.416, 46.33398
1304.484, 82.64404
1305.552, 38.95190
1306.620, 79.25757
1307.687, 40.56079
1308.754, 91.83423
1309.821, 56.13306
1310.888, 57.42920
1311.955, 64.72412
1313.021, 84.01685
1314.088, 56.30737
1315.154, 17.59644
1316.220, 65.88281
1317.286, 17.12549
1318.352, 40.53125
1319.417, 58.81104
1320.483, 8.8623002E-02
1321.548, 43.70630
1322.613, 21.48389
1323.678, 102.7659
1324.743, 8.013184
1325.807, 54.25562
1326.872, 17.49561
1327.936, 0.2702640
1329.000, 7.949707
1330.064, 92.16455
1331.128, 54.37524
1332.191, 92.58154
1333.255, 7.218750
1334.318, 28.02563
1335.381, 106.9377
1336.444, 0.1098630
1337.507, 37.28467
1338.569, 39.16553
1339.632, 0.6645510
1340.694, 117.5015
1341.756, 0.6591800
1342.818, 59.81299
1343.880, 8.035645
1344.941, 70.10449
1346.003, 21.23926
1347.064, 80.38843
1348.125, 44.51685
1349.186, 21.64429
1350.247, 27.76904
1351.308, 37.89160
1352.368, 60.01123
1353.428, 41.12866
1354.489, 57.24316
1355.549, 45.35547
1356.608, 69.46484
1357.668, 40.54517
1358.727, 56.64966
1359.787, 11.24805
1360.846, 89.18921
1361.905, 124.2820
1362.964, 65.37256
1364.022, 101.4609
1365.081, 69.54688
1366.139, 8.369385
1367.197, 85.70801
1368.255, 30.78320
1369.313, 1.143555
1370.371, 41.42822
1371.428, 60.64673
1372.486, 82.71118
1373.543, 35.77344
1374.600, 101.8396
1375.657, 48.58423
1376.713, 58.63989
1377.770, 67.73193
1378.826, 45.78345
1379.882, 87.03540
1380.938, 53.08252
1381.994, 115.1279
1383.050, 105.1438
1384.106, 18.06567
1385.161, 168.1040
1386.216, 165.1401
1387.271, 102.1748
1388.326, 89.20728
1389.381, 34.23267
1390.435, 149.2617
1391.490, 118.2898
1392.544, 114.3162
1393.598, 95.34155
1394.652, 69.36523
1395.705, 81.63892
1396.759, 121.6599
1397.812, 194.5710
1398.866, 123.4272
1399.919, 210.4465
1400.972, 145.4648
1402.024, 153.4827
1403.077, 197.5005
1404.129, 153.5173
1405.181, 291.5339
1406.233, 237.5500
1407.285, 284.5662
1408.337, 296.5820
1409.389, 286.5977
1410.440, 396.6111
1411.491, 428.5139
1412.542, 416.8965
1413.593, 387.8623
1414.644, 469.7739
1415.695, 461.4473
1416.745, 507.4233
1417.795, 559.0889
1418.845, 626.3865
1419.895, 663.3606
1420.945, 716.3350
1421.995, 781.3086
1423.044, 794.2817
1424.093, 889.1797
1425.142, 888.1689
1426.191, 967.8240
1427.240, 1050.804
1428.289, 1135.845
1429.337, 1157.820
1430.385, 1241.195
1431.433, 1292.773
1432.481, 1375.752
1433.529, 1400.421
1434.577, 1434.775
1435.624, 1426.700
1436.672, 1425.688
1437.719, 1397.896
1438.766, 1337.327
1439.812, 1216.881
1440.859, 1170.126
1441.905, 1046.074
1442.952, 924.3140
1443.998, 841.2422
1445.044, 759.1816
1446.090, 686.9314
1447.135, 629.2607
1448.181, 570.5811
1449.226, 520.7620
1450.271, 487.5894
1451.316, 437.0415
1452.361, 431.0967
1453.405, 401.2302
1454.450, 368.9570
1455.494, 349.5400
1456.538, 312.0708
1457.582, 282.6292
1458.626, 240.6755
1459.670, 219.6157
1460.713, 197.6111
1461.757, 177.5425
1462.800, 203.5310
1463.843, 218.5168
1464.886, 183.4995
1465.928, 231.4792
1466.971, 208.1736
1468.013, 150.1421
1469.055, 165.1072
1470.097, 131.9917
1471.139, 138.4106
1472.181, 149.3550
1473.222, 86.29565
1474.263, 180.2188
1475.305, 114.1455
1476.346, 126.0676
1477.386, 175.9846
1478.427, 127.8293
1479.468, 167.7527
1480.508, 100.6726
1481.548, 135.5896
1482.588, 116.5034
1483.628, 67.41357
1484.668, 103.3657
1485.707, 118.3188
1486.747, 55.27026
1487.786, 77.21948
1488.825, 55.16626
1489.864, 29.11060
1490.902, 44.05176
1491.941, 58.99146
1492.979, 57.95142
1494.017, 53.91382
1495.055, 46.87695
1496.093, 3.160889
1497.131, 53.79932
1498.168, 42.75928
1499.206, 34.27954
1500.243, 26.68213
1501.280, 29.64185
1502.317, 8.599609
1503.354, 33.55518
1504.390, 4.491455
1505.426, 45.45557
1506.463, 118.3977
1507.499, 73.33276
1508.535, 92.26367
1509.570, 107.1990
1510.606, 57.16895
1511.641, 91.14233
1512.676, 77.12549
1513.711, 80.16162
1514.746, 91.21606
1515.781, 90.29565
1516.816, 79.37842
1517.850, 123.4641
1518.884, 150.5522
1519.918, 145.6704
1520.952, 107.8054
1521.986, 74.97095
1523.019, 133.1443
1524.053, 143.3274
1525.086, 163.5212
1526.119, 151.7263
1527.152, 126.9434
1528.185, 124.2185
1529.217, 105.9614
1530.250, 107.6665
1531.282, 66.93335
1532.314, 94.21460
1533.346, 52.80908
1534.377, 86.31250
1535.409, 62.68018
1536.440, 66.80591
1537.472, 103.7471
1538.503, 77.41187
1539.534, 90.23193
1540.564, 49.35962
1541.595, 49.49561
1542.625, 19.63745
1543.656, 30.78101
1544.686, 142.9243
1545.716, 57.06543
1546.745, 107.2009
1547.775, 113.3257
1548.804, 20.43628
1549.834, 111.5281
1550.863, 23.59521
1551.892, 9.630371
1552.920, 53.64087
1553.949, 128.0547
1554.977, 119.5317
1556.006, 69.07202
1557.034, 45.54077
1558.062, 56.16553
1559.089, 29.85254
1560.117, 68.42212
1561.144, 1.802246
1562.172, 45.27271
1563.199, 38.28687
1564.226, 0.6057130
1565.252, 85.57275
1566.279, 0.1003420
1567.305, 39.09399
1568.332, 43.15405
1569.358, 0.2949220
1570.384, 0.0000000E+00
##END=



