##NAMES=Anorthite
##RRUFFID=R050104
##IDEAL CHEMISTRY=CaAl_2_Si_2_O_8_
##LOCALITY=unknown
##OWNER=RRUFF
##SOURCE=Rock Currier
##DESCRIPTION=Iridescent slab, labradorite/andesine
##STATUS=The identification of this mineral has been confirmed by X-ray diffraction and chemical analysis
##URL=rruff.info/R050104
##MEASURED CHEMISTRY=Ca_0.50_Na_0.47_K_0.03_Al_1.50_Si_2.50_O_8_
##PIN_ID=L00084
##ORIENTATION=Laser parallel to -c* (0 0 -1). Fiducial mark perpendicular to laser is parallel to a [1 0 0]
121.897, 0.000
123.286, 378.790
124.675, 240.535
126.063, 148.341
127.452, 62.100
128.840, 188.523
130.228, 154.730
131.615, 26.288
133.003, 189.765
134.390, 223.202
135.777, 626.011
137.164, 899.970
138.550, 1179.278
139.937, 1420.308
141.323, 1697.405
142.709, 2340.941
144.094, 2657.343
145.480, 3276.104
146.865, 3644.791
148.250, 4119.062
149.635, 4273.666
151.019, 4869.504
152.403, 5295.752
153.788, 5480.590
155.171, 5952.928
156.555, 6120.412
157.939, 6427.680
159.322, 7122.432
160.705, 7593.418
162.088, 8290.426
163.470, 9048.281
164.853, 9989.836
166.235, 11050.979
167.617, 11867.617
168.998, 13132.684
170.380, 13707.121
171.761, 15055.895
173.142, 15565.082
174.523, 16302.807
175.904, 16844.117
177.284, 16970.131
178.664, 17647.223
180.044, 17130.697
181.424, 17341.885
182.803, 16587.309
184.183, 16054.174
185.562, 15584.074
186.940, 14761.457
188.319, 14279.506
189.698, 13522.068
191.076, 13054.715
192.454, 12462.559
193.831, 11773.642
195.209, 11836.996
196.586, 11524.655
197.963, 11303.665
199.340, 10791.040
200.717, 10619.339
202.093, 10306.375
203.470, 10067.585
204.846, 9796.679
206.221, 9377.313
207.597, 8904.505
208.972, 8090.270
210.347, 7702.757
211.722, 6877.992
213.097, 6097.002
214.472, 5602.811
215.846, 4585.443
217.220, 4260.910
218.594, 3253.229
219.967, 2933.404
221.341, 2317.799
222.714, 1992.112
224.087, 1820.540
225.460, 1330.716
226.832, 1258.023
228.204, 955.460
229.577, 998.740
230.948, 728.786
232.320, 600.870
233.692, 688.826
235.063, 620.740
236.434, 921.732
237.805, 935.415
239.175, 986.792
240.545, 1149.461
241.916, 1506.266
243.286, 1689.389
244.655, 1790.481
246.025, 2165.376
247.394, 2390.158
248.763, 2627.645
250.132, 2722.541
251.501, 2853.448
252.869, 3272.268
254.237, 3189.313
255.605, 3722.098
256.973, 3797.775
258.340, 3874.798
259.708, 4330.908
261.075, 4253.582
262.442, 4793.199
263.808, 4982.748
265.175, 5491.212
266.541, 5827.579
267.907, 5968.839
269.273, 6624.984
270.639, 6972.010
272.004, 7677.252
273.369, 8352.646
274.734, 8869.309
276.099, 9462.854
277.463, 9998.289
278.828, 10727.620
280.192, 10770.851
281.556, 11733.990
282.919, 11699.043
284.283, 11781.014
285.646, 12237.912
287.009, 11520.791
288.372, 11362.717
289.734, 10367.601
291.097, 9924.743
292.459, 9124.034
293.821, 8404.512
295.183, 7830.489
296.544, 6570.918
297.905, 5981.711
299.266, 5110.828
300.627, 4608.247
301.988, 4067.900
303.348, 3296.768
304.709, 3199.832
306.069, 2664.044
307.428, 2451.384
308.788, 2043.825
310.147, 1717.355
311.507, 1657.960
312.865, 1270.623
314.224, 1176.335
315.583, 957.081
316.941, 972.851
318.299, 1006.631
319.657, 618.403
321.015, 621.164
322.372, 390.895
323.729, 434.589
325.086, 419.240
326.443, 220.838
327.800, 373.382
329.156, 208.861
330.512, 236.720
331.868, 197.646
333.224, 245.921
334.579, 245.118
335.935, 218.233
337.290, 389.270
338.645, 98.223
339.999, 128.083
341.354, 41.149
342.708, 200.481
344.062, 55.002
345.416, 113.609
346.769, 3.419
348.123, 143.400
349.476, 161.612
350.829, 48.056
352.182, 313.700
353.534, 36.616
354.887, 392.734
356.239, 347.105
357.591, 58.833
358.942, 461.721
360.294, 255.913
361.645, 379.354
362.996, 203.073
364.347, 14.975
365.698, 346.151
367.048, 197.542
368.398, 427.161
369.748, 218.062
371.098, 272.197
372.448, 40.571
373.797, 37.370
375.146, 99.867
376.495, 142.198
377.844, 119.881
379.192, 207.838
380.540, 112.418
381.889, 214.854
383.236, 327.148
384.584, 471.312
385.932, 748.335
387.279, 559.221
388.626, 677.955
389.973, 1042.535
391.319, 800.970
392.666, 1116.250
394.012, 980.382
395.358, 1385.307
396.704, 1329.066
398.049, 1297.562
399.394, 1752.722
400.740, 1690.527
402.084, 2025.953
403.429, 1989.015
404.774, 1966.598
406.118, 2101.757
407.462, 1986.586
408.806, 2293.986
410.150, 1861.004
411.493, 1782.786
412.836, 1753.359
414.179, 1397.722
415.522, 1555.948
416.865, 1188.066
418.207, 1252.090
419.549, 1034.027
420.891, 973.882
422.233, 1133.652
423.575, 1152.346
424.916, 1278.959
426.257, 1150.497
427.598, 1144.162
428.939, 1324.056
430.279, 1216.609
431.619, 1483.122
432.959, 1547.603
434.299, 1783.381
435.639, 1796.174
436.978, 2081.650
438.318, 2266.289
439.657, 2214.145
440.996, 2618.199
442.334, 2489.682
443.673, 2456.299
445.011, 2918.062
446.349, 2575.381
447.687, 3029.242
449.024, 2801.684
450.361, 2934.609
451.699, 2889.188
453.036, 2827.096
454.372, 3477.051
455.709, 3276.799
457.045, 3612.117
458.381, 3697.467
459.717, 3912.373
461.053, 4499.949
462.388, 4413.336
463.724, 5338.896
465.059, 5798.824
466.394, 6403.891
467.728, 7638.957
469.063, 7889.035
470.397, 9150.398
471.731, 10437.551
473.065, 11684.047
474.398, 13576.316
475.732, 14319.676
477.065, 15733.666
478.398, 16334.277
479.731, 16877.564
481.063, 16304.094
482.396, 16204.641
483.728, 15557.139
485.060, 14003.184
486.391, 13845.645
487.723, 12495.215
489.054, 11634.312
490.385, 11951.043
491.716, 11213.256
493.047, 12264.207
494.377, 13211.840
495.708, 14637.449
497.038, 16631.809
498.368, 18684.256
499.697, 21937.701
501.027, 24332.959
502.356, 27252.479
503.685, 29834.861
505.014, 31551.604
506.342, 34069.848
507.671, 33758.637
508.999, 34638.746
510.327, 34154.789
511.655, 32380.602
512.982, 30645.084
514.310, 26907.697
515.637, 24296.576
516.964, 21228.361
518.291, 18650.650
519.617, 16035.391
520.944, 13842.359
522.270, 12182.039
523.596, 10244.344
524.921, 8832.090
526.247, 7906.938
527.572, 6666.107
528.897, 5726.400
530.222, 5053.641
531.547, 4320.260
532.871, 4039.219
534.196, 3253.217
535.520, 3657.078
536.844, 2931.676
538.167, 2942.916
539.491, 2668.303
540.814, 2630.830
542.137, 2737.072
543.460, 2369.477
544.783, 2884.846
546.105, 2786.266
547.427, 2640.799
548.749, 2712.723
550.071, 2589.170
551.393, 3012.564
552.714, 2802.910
554.035, 2510.924
555.356, 3100.180
556.677, 2697.350
557.998, 3444.469
559.318, 3711.498
560.638, 3500.488
561.958, 4105.398
563.278, 3937.270
564.597, 4558.068
565.917, 4540.785
567.236, 4086.441
568.555, 4320.023
569.874, 3634.531
571.192, 3768.021
572.511, 3198.441
573.829, 2524.787
575.147, 2402.062
576.464, 1667.268
577.782, 1617.412
579.099, 1381.178
580.416, 1130.611
581.733, 922.535
583.050, 771.906
584.366, 647.170
585.683, 586.879
586.999, 511.514
588.315, 572.072
589.630, 322.555
590.946, 547.955
592.261, 455.281
593.576, 192.527
594.891, 246.686
596.206, 187.760
597.520, 353.750
598.834, 58.656
600.148, 162.469
601.462, 110.195
602.776, 10.168
604.089, 140.363
605.402, 25.809
606.715, 66.160
608.028, 39.574
609.341, 131.432
610.653, 124.549
611.965, 252.557
613.277, 27.893
614.589, 103.340
615.901, 0.064
617.212, 37.625
618.523, 114.430
619.834, 65.615
621.145, 39.432
622.456, 79.586
623.766, 52.123
625.076, 28.748
626.386, 226.283
627.696, 127.740
629.006, 146.113
630.315, 32.406
631.624, 56.613
632.933, 239.736
634.242, 57.781
635.551, 115.744
636.859, 399.629
638.167, 21.441
639.475, 455.170
640.783, 194.836
642.090, 67.430
643.398, 387.951
644.705, 121.406
646.012, 345.797
647.318, 50.879
648.625, 332.354
649.931, 749.529
651.237, 393.592
652.543, 350.721
653.849, 68.734
655.155, 224.682
656.460, 152.566
657.765, 3.398
659.070, 364.168
660.375, 27.918
661.679, 152.609
662.984, 301.252
664.288, 73.898
665.592, 450.510
666.895, 112.141
668.199, 124.785
669.502, 208.646
670.805, 436.768
672.108, 545.447
673.411, 381.980
674.713, 596.660
676.016, 579.791
677.318, 285.094
678.620, 727.352
679.921, 524.979
681.223, 595.754
682.524, 799.936
683.825, 406.453
685.126, 970.926
686.427, 658.490
687.727, 626.041
689.028, 912.529
690.328, 505.855
691.628, 1060.418
692.927, 543.131
694.227, 671.006
695.526, 784.814
696.825, 471.188
698.124, 668.219
699.423, 647.438
700.721, 894.154
702.020, 891.289
703.318, 892.410
704.616, 823.770
705.913, 903.215
707.211, 953.184
708.508, 1044.324
709.805, 639.680
711.102, 1094.262
712.399, 1050.434
713.695, 751.137
714.992, 1522.914
716.288, 896.477
717.584, 1489.305
718.879, 914.037
720.175, 1364.711
721.470, 1288.357
722.765, 1011.480
724.060, 1490.850
725.355, 1262.326
726.649, 1116.660
727.944, 1677.627
729.238, 1098.014
730.532, 1898.990
731.825, 1541.016
733.119, 1410.752
734.412, 1921.660
735.705, 1737.514
736.998, 1819.312
738.291, 2173.053
739.584, 2159.430
740.876, 2341.057
742.168, 2190.422
743.460, 2424.438
744.752, 2452.646
746.043, 2264.766
747.334, 2506.781
748.626, 2435.361
749.916, 2658.795
751.207, 2512.412
752.498, 2576.068
753.788, 2627.055
755.078, 2593.363
756.368, 2702.449
757.658, 2734.277
758.947, 2806.826
760.237, 3041.693
761.526, 2789.883
762.815, 3210.359
764.104, 3051.211
765.392, 2877.279
766.680, 3301.877
767.969, 2927.312
769.257, 3257.807
770.544, 3359.588
771.832, 2836.186
773.119, 3485.076
774.406, 2805.141
775.693, 3093.250
776.980, 3030.021
778.267, 2668.275
779.553, 3107.230
780.839, 2895.029
782.125, 2750.658
783.411, 3025.846
784.697, 2908.080
785.982, 3153.811
787.267, 2985.617
788.552, 3222.160
789.837, 3607.914
791.122, 3350.887
792.406, 3670.020
793.690, 3848.545
794.974, 3515.859
796.258, 3498.059
797.542, 3471.699
798.825, 3254.658
800.108, 3196.479
801.391, 2817.211
802.674, 2771.324
803.957, 2066.955
805.239, 2100.301
806.522, 2111.143
807.804, 1534.783
809.085, 1805.221
810.367, 1664.289
811.649, 1092.035
812.930, 1330.094
814.211, 1080.682
815.492, 1110.840
816.772, 526.502
818.053, 539.766
819.333, 789.057
820.613, 419.900
821.893, 575.309
823.173, 353.748
824.452, 65.514
825.732, 486.201
827.011, 5.951
828.290, 204.330
829.568, 13.975
830.847, 195.436
832.125, 340.240
833.403, 119.375
834.681, 29.875
835.959, 0.924
837.236, 80.209
838.514, 100.062
839.791, 147.896
841.068, 114.996
842.345, 34.154
843.621, 159.391
844.898, 124.223
846.174, 134.209
847.450, 43.221
848.726, 63.605
850.001, 131.061
851.277, 230.066
852.552, 369.771
853.827, 43.131
855.102, 168.986
856.376, 28.201
857.651, 180.535
858.925, 364.770
860.199, 231.328
861.473, 331.936
862.746, 288.838
864.020, 194.180
865.293, 36.158
866.566, 92.908
867.839, 387.922
869.112, 142.281
870.384, 290.389
871.656, 148.973
872.928, 54.533
874.200, 282.002
875.472, 33.562
876.744, 332.805
878.015, 33.145
879.286, 186.557
880.557, 120.602
881.828, 241.723
883.098, 83.814
884.369, 564.871
885.639, 25.100
886.909, 334.877
888.178, 425.824
889.448, 301.750
890.717, 544.646
891.987, 109.523
893.256, 664.365
894.524, 437.186
895.793, 261.984
897.061, 830.764
898.330, 573.520
899.598, 670.295
900.865, 1044.047
902.133, 620.783
903.401, 1162.506
904.668, 841.215
905.935, 991.914
907.202, 1491.600
908.468, 1047.275
909.735, 1395.994
911.001, 1495.705
912.267, 1559.414
913.533, 1720.117
914.799, 1292.818
916.064, 1756.545
917.330, 1643.281
918.595, 1710.047
919.860, 1949.812
921.124, 1586.643
922.389, 1797.479
923.653, 1686.344
924.918, 1597.211
926.182, 2015.088
927.445, 1586.996
928.709, 1639.902
929.972, 2010.818
931.236, 1619.758
932.499, 1897.695
933.761, 1919.629
935.024, 1491.561
936.286, 2181.490
937.549, 1826.414
938.811, 2106.338
940.073, 1883.260
941.334, 1677.178
942.596, 2230.096
943.857, 2231.018
945.118, 2389.934
946.379, 2598.852
947.640, 2441.543
948.900, 2386.666
950.161, 2324.559
951.421, 2405.439
952.681, 2654.309
953.940, 2623.164
955.200, 3397.025
956.459, 2808.871
957.719, 2688.703
958.978, 3189.520
960.236, 2665.324
961.495, 3339.119
962.753, 3067.906
964.012, 3209.684
965.270, 3677.457
966.527, 3329.217
967.785, 3614.975
969.043, 4147.725
970.300, 3685.465
971.557, 4046.203
972.814, 4231.930
974.071, 4146.654
975.327, 4519.141
976.583, 4470.424
977.840, 4431.139
979.095, 4743.084
980.351, 4283.955
981.607, 4851.375
982.862, 4468.738
984.117, 4174.197
985.372, 4677.379
986.627, 3960.457
987.882, 4216.125
989.136, 4272.539
990.390, 3855.051
991.644, 4324.582
992.898, 3564.188
994.152, 3770.928
995.405, 3520.844
996.659, 3480.541
997.912, 3891.119
999.165, 3667.518
1000.417, 3484.021
1001.670, 3649.938
1002.922, 3413.182
1004.174, 3354.221
1005.426, 3526.730
1006.678, 2965.793
1007.930, 3377.443
1009.181, 3112.605
1010.432, 3029.256
1011.683, 3243.348
1012.934, 3025.230
1014.185, 3062.863
1015.435, 3086.234
1016.685, 2970.977
1017.935, 3271.148
1019.185, 2958.213
1020.435, 2943.461
1021.684, 3240.406
1022.934, 2888.410
1024.183, 2938.445
1025.432, 3358.469
1026.680, 2817.990
1027.929, 3245.230
1029.177, 2798.340
1030.425, 3097.562
1031.673, 3010.129
1032.921, 2816.246
1034.169, 3033.750
1035.416, 3032.188
1036.663, 2895.891
1037.911, 3374.402
1039.157, 2915.951
1040.404, 3258.543
1041.650, 3079.180
1042.897, 2815.160
1044.143, 3278.881
1045.389, 3038.645
1046.634, 3214.787
1047.880, 3275.646
1049.125, 3089.604
1050.371, 3024.559
1051.615, 3061.562
1052.860, 2935.621
1054.105, 3505.730
1055.349, 2619.941
1056.593, 3202.162
1057.837, 2994.441
1059.081, 2801.010
1060.325, 3318.408
1061.568, 2766.869
1062.812, 3152.664
1064.055, 2947.254
1065.298, 2907.473
1066.540, 3295.203
1067.783, 3299.008
1069.025, 2920.885
1070.267, 3384.840
1071.509, 2613.877
1072.751, 3014.984
1073.993, 3057.980
1075.234, 2790.059
1076.475, 3203.215
1077.716, 2860.453
1078.957, 2894.363
1080.198, 3274.328
1081.438, 2436.340
1082.679, 2898.090
1083.919, 3041.852
1085.159, 2735.617
1086.398, 2755.379
1087.638, 2587.121
1088.877, 2589.848
1090.116, 3095.559
1091.355, 2717.301
1092.594, 2771.512
1093.833, 2870.316
1095.071, 2318.180
1096.309, 2811.984
1097.547, 2461.703
1098.785, 2139.809
1100.023, 2147.918
1101.260, 2192.035
1102.498, 2599.156
1103.735, 2198.289
1104.972, 2245.426
1106.208, 2132.570
1107.445, 1833.719
1108.681, 2303.883
1109.918, 2433.051
1111.154, 1552.230
1112.389, 2189.434
1113.625, 1673.680
1114.860, 1826.047
1116.096, 1987.562
1117.331, 1260.180
1118.566, 1451.855
1119.800, 1874.684
1121.035, 1213.668
1122.269, 1987.809
1123.503, 1183.062
1124.737, 1448.473
1125.971, 1537.195
1127.205, 1120.000
1128.438, 1129.016
1129.671, 1253.398
1130.904, 774.066
1132.137, 1476.852
1133.370, 823.805
1134.602, 1060.949
1135.834, 1226.242
1137.066, 1248.648
1138.298, 830.219
1139.530, 806.953
1140.762, 1004.777
1141.993, 689.715
1143.224, 1240.727
1144.455, 833.816
1145.686, 1114.996
1146.917, 660.242
1148.147, 1003.473
1149.377, 1002.773
1150.607, 800.152
1151.837, 877.602
1153.067, 772.953
1154.296, 846.371
1155.526, 892.797
1156.755, 431.234
1157.984, 852.730
1159.213, 567.285
1160.441, 495.891
1161.670, 769.555
1162.898, 588.281
1164.126, 497.078
1165.354, 881.945
1166.581, 188.891
1167.809, 832.922
1169.036, 391.023
1170.263, 427.195
1171.490, 939.453
1172.717, 243.879
1173.943, 732.480
1175.170, 839.262
1176.396, 181.238
1177.622, 663.414
1178.848, 582.801
1180.073, 286.406
1181.299, 502.234
1182.524, 154.293
1183.749, 444.570
1184.974, 709.078
1186.199, 140.809
1187.423, 601.758
1188.648, 441.914
1189.872, 75.270
1191.096, 730.832
1192.320, 146.594
1193.543, 7.445
1194.767, 788.719
1195.990, 140.898
1197.213, 443.695
1198.436, 213.531
1199.659, 158.605
1200.881, 628.953
1202.104, 97.582
1203.326, 294.516
1204.548, 492.773
1205.770, 187.629
1206.991, 577.336
1208.213, 330.684
1209.434, 105.449
1210.655, 719.641
1211.876, 85.727
1213.096, 371.363
1214.317, 575.914
1215.537, 288.957
1216.757, 603.504
1217.977, 438.578
1219.197, 286.211
1220.417, 862.133
1221.636, 423.570
1222.855, 313.414
1224.074, 821.320
1225.293, 413.633
1226.512, 384.121
1227.731, 335.555
1228.949, 373.949
1230.167, 301.340
1231.385, 394.355
1232.603, 281.371
1233.820, 459.496
1235.038, 531.215
1236.255, 373.824
1237.472, 510.426
1238.689, 3.582
1239.906, 463.492
1241.122, 242.699
1242.338, 1.188
1243.555, 0.000
##END=



