##NAMES=Anorthite
##RRUFFID=R040059
##IDEAL CHEMISTRY=CaAl_2_Si_2_O_8_
##LOCALITY=Miyakejima, Japan
##OWNER=RRUFF
##SOURCE=University of Arizona Mineral Museum
##DESCRIPTION=Colorless fragments of crystals
##STATUS=The identification of this mineral has been confirmed by X-ray diffraction and chemical analysis
##URL=rruff.info/R040059
##MEASURED CHEMISTRY=(Ca_0.94_Na_0.04_Fe_0.02_)(Al_0.98_Si_0.02_)_2_Si_2.00_O_8_
##PIN_ID=L00179
##ORIENTATION=Laser parallel to (1 1 0). Fiducial mark perpendicular to laser is parallel to -c [0 0 -1]
120.311, 0.000
121.706, 19.078
123.102, 153.422
124.497, 8.214
125.892, 408.232
127.286, 437.865
128.681, 787.302
130.075, 1340.165
131.469, 1301.913
132.862, 2039.074
134.256, 2208.961
135.649, 2739.729
137.042, 3240.140
138.435, 3959.021
139.827, 4755.271
141.219, 5067.886
142.611, 6015.986
144.003, 5878.818
145.394, 5725.750
146.786, 5376.254
148.177, 4530.166
149.567, 4197.992
150.958, 3049.973
152.348, 2935.623
153.738, 2054.354
155.128, 1955.727
156.517, 1359.309
157.907, 1254.717
159.296, 1201.641
160.685, 989.818
162.073, 1129.035
163.462, 1089.104
164.850, 1369.883
166.237, 1521.266
167.625, 1843.174
169.012, 2405.541
170.400, 2708.311
171.786, 3141.438
173.173, 3525.090
174.559, 3830.807
175.946, 4381.324
177.332, 4847.953
178.717, 5439.336
180.103, 5874.555
181.488, 7160.324
182.873, 7655.049
184.258, 8728.566
185.642, 9611.344
187.026, 10183.811
188.410, 11165.746
189.794, 11436.729
191.178, 12186.719
192.561, 11875.766
193.944, 12423.918
195.327, 12001.219
196.709, 11127.705
198.092, 10843.418
199.474, 9708.393
200.856, 9772.654
202.237, 8896.242
203.618, 8389.164
205.000, 7861.412
206.380, 7053.148
207.761, 6364.467
209.142, 5495.438
210.522, 5046.113
211.902, 4616.533
213.281, 4046.729
214.661, 3756.727
216.040, 3496.543
217.419, 3776.195
218.798, 3335.695
220.176, 3515.057
221.554, 3384.279
222.932, 2913.375
224.310, 2832.348
225.688, 2194.324
227.065, 2439.711
228.442, 2119.195
229.819, 2285.670
231.196, 2453.795
232.572, 2482.266
233.948, 3096.289
235.324, 3125.500
236.700, 3504.459
238.075, 3856.631
239.450, 4354.281
240.825, 4643.314
242.200, 4921.889
243.574, 5851.594
244.948, 5328.205
246.322, 6194.670
247.696, 5671.639
249.070, 5795.582
250.443, 6099.543
251.816, 6384.299
253.189, 6712.559
254.561, 6591.799
255.933, 6915.463
257.306, 6741.184
258.677, 6606.795
260.049, 6652.369
261.420, 6107.883
262.791, 6003.316
264.162, 5678.662
265.533, 5793.918
266.903, 5709.086
268.274, 5634.162
269.643, 5979.150
271.013, 6054.043
272.383, 6008.844
273.752, 6043.553
275.121, 6118.174
276.490, 6312.705
277.858, 6247.152
279.226, 6571.512
280.595, 6485.787
281.962, 6679.977
283.330, 6554.086
284.697, 5988.111
286.064, 5951.938
287.431, 5124.301
288.798, 4980.191
290.164, 4147.414
291.530, 3935.707
292.896, 3564.875
294.262, 2794.779
295.627, 2785.307
296.993, 2136.363
298.358, 2227.875
299.722, 1769.785
301.087, 1662.037
302.451, 1744.584
303.815, 1257.387
305.179, 1460.410
306.543, 1183.621
307.906, 1266.998
309.269, 950.510
310.632, 904.145
311.995, 1067.879
313.357, 811.697
314.719, 805.580
316.081, 989.512
317.443, 913.471
318.804, 1367.441
320.166, 1201.416
321.527, 1525.377
322.887, 1309.320
324.248, 1273.236
325.608, 827.117
326.968, 420.959
328.328, 604.758
329.688, 41.490
331.047, 122.168
332.406, 154.236
333.765, 240.768
335.124, 187.443
336.482, 394.262
337.840, 321.189
339.198, 528.312
340.556, 535.639
341.913, 533.234
343.271, 661.154
344.628, 419.416
345.984, 637.992
347.341, 306.939
348.697, 716.164
350.053, 375.773
351.409, 325.678
352.765, 635.861
354.120, 456.404
355.475, 277.256
356.830, 208.363
358.185, 79.316
359.539, 36.789
360.894, 107.041
362.248, 145.186
363.601, 283.193
364.955, 333.707
366.308, 668.844
367.661, 506.500
369.014, 544.051
370.367, 661.496
371.719, 518.838
373.071, 536.078
374.423, 223.217
375.775, 220.246
377.126, 367.160
378.478, 6.025
379.828, 290.631
381.179, 2.814
382.530, 133.582
383.880, 199.857
385.230, 76.021
386.580, 292.047
387.929, 127.971
389.279, 673.701
390.628, 629.219
391.977, 924.365
393.325, 1299.031
394.674, 1483.086
396.022, 1856.488
397.370, 2119.293
398.718, 2711.527
400.065, 3153.314
401.413, 2934.518
402.760, 3335.365
404.106, 3176.020
405.453, 3196.570
406.799, 2987.068
408.146, 2677.525
409.491, 2327.941
410.837, 1738.318
412.182, 1708.617
413.528, 1528.793
414.873, 1528.844
416.217, 1618.799
417.562, 1398.650
418.906, 1978.430
420.250, 1988.172
421.594, 2587.879
422.938, 3097.551
424.281, 3297.189
425.624, 4276.795
426.967, 4216.363
428.310, 4935.904
429.652, 4695.406
430.994, 4964.877
432.336, 5404.314
433.678, 5193.721
435.020, 5873.098
436.361, 6022.441
437.702, 6361.754
439.043, 6471.035
440.383, 5930.287
441.724, 6369.510
443.064, 5568.701
444.404, 5347.865
445.743, 5057.002
447.083, 4156.109
448.422, 4335.195
449.761, 3704.268
451.100, 3703.309
452.438, 3532.311
453.777, 3521.273
455.115, 3970.186
456.453, 3819.047
457.790, 4457.855
459.128, 4416.605
460.465, 4505.297
461.802, 4693.930
463.139, 4322.496
464.475, 4721.002
465.811, 4659.441
467.147, 5347.816
468.483, 6096.125
469.819, 6614.365
471.154, 8082.537
472.489, 8570.641
473.824, 10048.670
475.159, 11296.633
476.493, 12974.523
477.827, 15292.344
479.161, 17770.096
480.495, 21427.783
481.829, 24425.385
483.162, 28292.934
484.495, 30840.416
485.828, 30537.824
487.161, 31825.160
488.493, 28182.424
489.825, 25499.705
491.157, 23848.514
492.489, 22074.291
493.820, 22905.424
495.151, 23923.852
496.482, 26492.352
497.813, 30228.961
499.144, 34828.496
500.474, 40080.270
501.804, 42521.867
503.134, 44137.418
504.464, 44061.332
505.793, 42393.543
507.123, 39471.840
508.451, 33800.645
509.780, 31263.514
511.109, 27567.631
512.437, 24764.662
513.765, 22782.094
515.093, 19410.611
516.421, 17850.186
517.748, 15053.930
519.075, 13655.586
520.402, 12714.352
521.729, 11766.285
523.055, 12359.422
524.382, 10644.990
525.708, 10160.912
527.034, 9987.900
528.359, 8424.621
529.685, 8021.445
531.010, 6838.441
532.335, 6735.133
533.659, 5961.906
534.984, 5665.973
536.308, 5409.867
537.632, 5405.641
538.956, 5609.771
540.279, 5914.648
541.603, 5958.754
542.926, 6859.711
544.249, 7092.619
545.571, 8670.836
546.894, 9385.391
548.216, 10485.664
549.538, 13352.477
550.860, 14249.188
552.181, 16745.961
553.503, 17882.713
554.824, 19529.449
556.145, 20436.172
557.465, 20082.887
558.786, 19359.605
560.106, 18626.312
561.426, 16873.016
562.746, 15239.719
564.065, 13626.418
565.385, 11963.123
566.704, 10489.789
568.023, 8896.535
569.341, 7643.244
570.660, 6539.951
571.978, 5336.662
573.296, 4643.379
574.614, 4080.094
575.931, 3726.812
577.248, 3113.537
578.565, 2840.266
579.882, 2476.996
581.199, 2293.730
582.515, 2150.471
583.831, 2127.215
585.147, 2063.965
586.463, 1960.719
587.779, 2407.477
589.094, 2174.242
590.409, 2411.012
591.724, 2467.787
593.038, 2224.566
594.353, 2641.354
595.667, 2248.143
596.981, 2134.939
598.295, 1811.742
599.608, 1338.553
600.922, 1495.365
602.235, 1322.188
603.547, 949.014
604.860, 945.848
606.172, 642.686
607.485, 1069.533
608.797, 806.387
610.108, 983.246
611.420, 1200.111
612.731, 1076.984
614.042, 1553.865
615.353, 1620.752
616.664, 2207.646
617.974, 2454.549
619.284, 2491.459
620.594, 3518.377
621.904, 2825.305
623.213, 3492.238
624.523, 2999.182
625.832, 2396.137
627.141, 2363.100
628.449, 1490.070
629.758, 1487.053
631.066, 1304.043
632.374, 791.045
633.681, 978.059
634.989, 315.082
636.296, 692.117
637.603, 539.166
638.910, 426.225
640.217, 675.350
641.523, 512.432
642.829, 359.527
644.135, 426.637
645.441, 303.760
646.747, 359.311
648.052, 46.457
649.357, 398.963
650.662, 95.916
651.967, 146.773
653.271, 244.900
654.575, 473.367
655.879, 224.631
657.183, 363.383
658.486, 205.758
659.790, 37.100
661.093, 204.955
662.396, 25.975
663.698, 178.980
665.001, 47.459
666.303, 656.070
667.605, 413.082
668.907, 832.084
670.209, 1154.541
671.510, 1170.994
672.811, 1932.695
674.112, 1552.781
675.413, 2952.547
676.713, 2819.295
678.013, 3129.180
679.313, 3823.078
680.613, 3494.584
681.913, 3774.533
683.212, 3424.605
684.511, 2888.326
685.810, 2858.287
687.109, 2246.680
688.407, 2146.645
689.706, 1929.008
691.004, 1738.979
692.302, 1328.961
693.599, 1078.596
694.897, 998.598
696.194, 727.930
697.491, 621.756
698.788, 802.822
700.084, 283.006
701.380, 783.191
702.677, 333.414
703.972, 395.082
705.268, 725.348
706.564, 115.613
707.859, 515.879
709.154, 296.143
710.449, 366.406
711.743, 606.670
713.037, 436.934
714.332, 397.195
715.626, 427.455
716.919, 527.717
718.213, 487.977
719.506, 468.236
720.799, 428.496
722.092, 568.754
723.384, 269.010
724.677, 869.266
725.969, 539.521
727.261, 759.777
728.553, 1130.029
729.844, 980.281
731.136, 1430.533
732.427, 1500.785
733.718, 1861.035
735.008, 2229.113
736.299, 2521.531
737.589, 3071.779
738.879, 3332.025
740.169, 3892.271
741.458, 3732.516
742.748, 3442.756
744.037, 3752.998
745.326, 2863.238
746.614, 3223.479
747.903, 2723.719
749.191, 2393.957
750.479, 2894.193
751.767, 2184.428
753.055, 2664.662
754.342, 2804.895
755.629, 2695.125
756.916, 3225.357
758.203, 3445.586
759.490, 3445.814
760.776, 3696.043
762.062, 3336.271
763.348, 4016.496
764.634, 3486.721
765.919, 3346.943
767.204, 3717.162
768.489, 2927.383
769.774, 2887.602
771.059, 2667.822
772.343, 2418.037
773.627, 2238.250
774.911, 1738.463
776.195, 1868.676
777.479, 1438.887
778.762, 1299.098
780.045, 1389.303
781.328, 819.510
782.611, 1009.715
783.893, 799.916
785.175, 680.119
786.457, 1050.320
787.739, 320.518
789.021, 930.717
790.302, 380.912
791.583, 411.105
792.864, 681.297
794.145, 31.488
795.425, 241.652
796.706, 291.812
797.986, 341.975
799.266, 152.133
800.545, 227.709
801.825, 332.285
803.104, 17.727
804.383, 87.789
805.662, 272.053
806.940, 321.162
808.219, 1.535
809.497, 113.350
810.775, 333.871
812.053, 89.945
813.330, 516.857
814.608, 102.100
815.885, 325.621
817.162, 196.875
818.438, 281.736
819.715, 90.342
820.991, 411.059
822.267, 97.291
823.543, 334.367
824.818, 76.238
826.094, 1.816
827.369, 130.166
828.644, 207.742
829.919, 234.355
831.193, 83.387
832.468, 188.885
833.742, 8.709
835.016, 166.270
836.289, 43.822
837.563, 28.641
838.836, 148.848
840.109, 263.676
841.382, 443.629
842.654, 169.078
843.927, 138.096
845.199, 175.256
846.471, 127.590
847.743, 339.465
849.014, 123.486
850.286, 36.537
851.557, 10.363
852.828, 37.242
854.099, 384.107
855.369, 230.963
856.639, 2.191
857.909, 264.641
859.179, 171.463
860.449, 578.275
861.718, 495.080
862.988, 502.189
864.257, 568.668
865.525, 455.449
866.794, 292.227
868.062, 409.000
869.331, 455.764
870.599, 872.525
871.866, 669.277
873.134, 606.027
874.401, 932.768
875.668, 419.502
876.935, 1296.232
878.202, 432.957
879.468, 629.678
880.735, 1576.391
882.001, 603.102
883.267, 1489.805
884.532, 1266.568
885.798, 1763.326
887.063, 1990.084
888.328, 1716.848
889.593, 2403.609
890.857, 2540.367
892.122, 2387.125
893.386, 3273.879
894.650, 2520.633
895.913, 2877.385
897.177, 3164.131
898.440, 2650.904
899.703, 3427.680
900.966, 2974.457
902.229, 3331.232
903.491, 3078.010
904.754, 3224.826
906.016, 3561.641
907.278, 2958.457
908.539, 3125.273
909.801, 3562.092
911.062, 2718.908
912.323, 3365.727
913.584, 3422.551
914.844, 2999.375
916.105, 3686.203
917.365, 2703.029
918.625, 2769.863
919.885, 2946.699
921.144, 2443.539
922.404, 3100.385
923.663, 2287.232
924.922, 2994.086
926.180, 3010.943
927.439, 2557.807
928.697, 3304.672
929.955, 3261.549
931.213, 3118.430
932.471, 3765.318
933.728, 3342.211
934.985, 4409.113
936.242, 3936.021
937.499, 4042.936
938.756, 4689.855
940.012, 4296.785
941.269, 4883.723
942.525, 4920.666
943.780, 4357.621
945.036, 5474.580
946.291, 5209.496
947.546, 5836.479
948.801, 6413.516
950.056, 6300.562
951.311, 6817.621
952.565, 7166.273
953.819, 7163.352
955.073, 7595.137
956.327, 6832.512
957.580, 7329.625
958.834, 6682.492
960.087, 6415.410
961.339, 6902.137
962.592, 6595.023
963.845, 6282.406
965.097, 6874.738
966.349, 6342.191
967.601, 7376.867
968.852, 7779.652
970.104, 7587.203
971.355, 9274.777
972.606, 8624.227
973.857, 9511.859
975.107, 9186.203
976.358, 8516.801
977.608, 9202.340
978.858, 8279.660
980.108, 8537.418
981.357, 8128.289
982.607, 7396.094
983.856, 7229.930
985.105, 7096.219
986.353, 6064.090
987.602, 6431.871
988.850, 5656.031
990.098, 5643.988
991.346, 5333.543
992.594, 5121.555
993.841, 5507.207
995.089, 4675.285
996.336, 4703.395
997.583, 5151.902
998.829, 4340.078
1000.076, 4919.023
1001.322, 4713.523
1002.568, 4710.879
1003.814, 5009.180
1005.060, 3697.535
1006.305, 4075.934
1007.550, 4055.500
1008.795, 3633.973
1010.040, 4112.488
1011.285, 3251.035
1012.529, 3619.625
1013.773, 3898.258
1015.017, 2996.930
1016.261, 3995.637
1017.505, 3095.398
1018.748, 3214.195
1019.991, 3723.031
1021.234, 2482.086
1022.477, 3231.008
1023.719, 2859.973
1024.962, 2648.984
1026.204, 3258.039
1027.446, 2297.141
1028.688, 2656.285
1029.929, 2455.480
1031.170, 2104.719
1032.411, 2834.008
1033.652, 2567.785
1034.893, 2047.172
1036.134, 2776.602
1037.374, 1898.469
1038.614, 2568.000
1039.854, 2427.848
1041.094, 2517.480
1042.333, 2787.168
1043.572, 2316.906
1044.811, 2636.816
1046.050, 2756.660
1047.289, 2222.465
1048.527, 3002.414
1049.766, 2613.340
1051.004, 2553.395
1052.241, 3313.512
1053.479, 2202.363
1054.717, 2662.590
1055.954, 2832.875
1057.191, 3283.219
1058.428, 2493.617
1059.664, 2284.078
1060.901, 2514.602
1062.137, 2825.188
1063.373, 2215.836
1064.609, 2836.551
1065.844, 2907.324
1067.080, 2018.168
1068.315, 3129.039
1069.550, 2369.988
1070.785, 3011.000
1072.019, 3022.078
1073.254, 2563.211
1074.488, 3274.414
1075.722, 2875.688
1076.955, 2627.031
1078.189, 3338.445
1079.422, 2459.941
1080.656, 2741.504
1081.889, 2792.945
1083.121, 2114.418
1084.354, 2675.961
1085.586, 2167.574
1086.818, 1999.254
1088.050, 2740.914
1089.282, 1392.625
1090.514, 1984.402
1091.745, 1686.098
1092.976, 1688.418
1094.207, 1820.250
1095.438, 862.156
1096.668, 1225.691
1097.899, 1907.734
1099.129, 569.836
1100.359, 1432.012
1101.588, 1314.328
1102.818, 616.711
1104.047, 1579.180
1105.276, 961.762
1106.505, 1495.266
1107.734, 1328.098
1108.962, 731.027
1110.191, 1304.152
1111.419, 857.391
1112.647, 1080.242
1113.874, 1213.301
1115.102, 596.406
1116.329, 1149.656
1117.556, 1402.957
1118.783, 1006.273
1120.010, 1762.875
1121.236, 1366.348
1122.463, 1449.863
1123.689, 1873.527
1124.914, 1086.629
1126.140, 1451.012
1127.366, 1881.859
1128.591, 664.117
1129.816, 1876.582
1131.041, 789.215
1132.266, 951.949
1133.490, 1764.879
1134.714, 588.023
1135.938, 1261.316
1137.162, 1124.797
1138.386, 268.480
1139.609, 1492.301
1140.833, 766.215
1142.056, 680.219
1143.279, 1404.320
1144.501, 128.523
1145.724, 1312.820
1146.946, 957.207
1148.168, 61.695
1149.390, 1256.285
1150.612, 440.973
1151.833, 675.770
1153.054, 910.668
1154.275, 124.402
1155.496, 980.547
1156.717, 545.582
1157.937, 440.715
1159.158, 775.953
1160.378, 401.293
1161.598, 596.672
1162.817, 692.148
1164.037, 62.324
1165.256, 983.258
1166.475, 238.945
1167.694, 15.258
1168.913, 830.641
1170.131, 256.656
1171.349, 172.777
1172.567, 759.008
1173.785, 45.344
1175.003, 901.793
1176.220, 218.352
1177.438, 75.023
1178.655, 931.812
1179.872, 321.289
1181.088, 615.734
1182.305, 542.879
1183.521, 89.859
1184.737, 887.535
1185.953, 15.117
1187.169, 82.359
1188.384, 689.957
1189.599, 197.684
1190.814, 4.488
1192.029, 553.465
1193.244, 148.469
1194.459, 649.727
1195.673, 31.953
1196.887, 176.469
1198.101, 684.984
1199.314, 176.367
1200.528, 282.426
1201.741, 1101.418
1202.954, 100.605
1204.167, 689.984
1205.380, 659.555
1206.592, 279.301
1207.805, 929.227
1209.017, 209.340
1210.229, 539.633
1211.440, 1090.117
1212.652, 160.793
1213.863, 835.324
1215.074, 476.258
1216.285, 787.391
1217.496, 1048.723
1218.707, 137.559
1219.917, 969.258
1221.127, 950.684
1222.337, 262.812
1223.547, 1375.168
1224.756, 197.754
1225.966, 480.578
1227.175, 1287.613
1228.384, 201.871
1229.592, 513.000
1230.801, 1235.164
1232.009, 577.066
1233.217, 997.824
1234.425, 676.328
1235.633, 208.332
1236.841, 1325.270
1238.048, 56.258
1239.255, 387.238
1240.462, 1308.188
1241.669, 140.945
1242.876, 1069.805
1244.082, 860.691
1245.288, 301.391
1246.494, 1141.980
1247.700, 512.289
1248.906, 562.180
1250.111, 1132.824
1251.316, 124.969
1252.521, 1116.922
1253.726, 840.250
1254.931, 324.918
1256.135, 1476.223
1257.339, 372.059
1258.543, 409.422
1259.747, 1435.746
1260.951, 570.789
1262.154, 412.055
1263.357, 1270.559
1264.560, 7.469
1265.763, 977.863
1266.966, 351.547
1268.168, 467.734
1269.371, 1141.043
1270.573, 0.273
1271.775, 0.000
##END=



