##NAMES=Anorthite
##RRUFFID=R050104
##IDEAL CHEMISTRY=CaAl_2_Si_2_O_8_
##LOCALITY=unknown
##OWNER=RRUFF
##SOURCE=Rock Currier
##DESCRIPTION=Iridescent slab, labradorite/andesine
##STATUS=The identification of this mineral has been confirmed by X-ray diffraction and chemical analysis
##URL=rruff.info/R050104
##MEASURED CHEMISTRY=Ca_0.50_Na_0.47_K_0.03_Al_1.50_Si_2.50_O_8_
##PIN_ID=L00152
##ORIENTATION=Laser parallel to (1 0 1). Fiducial mark perpendicular to laser is parallel to -b [0 -1 0]
152.403, 0.000
153.788, 1.467
155.171, 13.183
156.555, 115.484
157.939, 2.567
159.322, 202.125
160.705, 124.718
162.088, 20.385
163.470, 46.890
164.853, 5.512
166.235, 125.672
167.617, 50.955
168.998, 320.078
170.380, 385.204
171.761, 828.913
173.142, 1367.972
174.523, 1623.732
175.904, 2332.184
177.284, 2823.026
178.664, 3557.440
180.044, 4130.490
181.424, 4876.786
182.803, 5366.869
184.183, 5936.354
185.562, 6523.938
186.940, 6669.398
188.319, 6936.561
189.698, 7396.304
191.076, 7771.687
192.454, 8045.484
193.831, 8299.811
195.209, 8414.409
196.586, 8524.533
197.963, 8406.761
199.340, 8216.381
200.717, 8254.710
202.093, 8380.500
203.470, 7744.051
204.846, 7748.607
206.221, 7292.375
207.597, 7181.300
208.972, 6373.812
210.347, 5879.816
211.722, 5681.152
213.097, 5271.777
214.472, 4387.777
215.846, 3512.248
217.220, 3354.280
218.594, 2783.957
219.967, 2465.352
221.341, 2144.526
222.714, 1915.544
224.087, 1815.458
225.460, 1459.321
226.832, 1524.179
228.204, 1214.595
229.577, 1154.388
230.948, 1194.000
232.320, 1052.803
233.692, 1134.807
235.063, 1199.000
236.434, 1272.472
237.805, 1460.910
239.175, 1531.124
240.545, 1654.046
241.916, 1761.206
243.286, 1879.140
244.655, 1948.550
246.025, 1919.400
247.394, 2161.283
248.763, 2171.408
250.132, 2424.897
251.501, 2320.458
252.869, 2676.215
254.237, 2726.895
255.605, 2838.481
256.973, 2873.524
258.340, 2876.938
259.708, 3187.576
261.075, 3118.449
262.442, 3269.002
263.808, 3441.192
265.175, 3415.935
266.541, 3690.271
267.907, 3428.264
269.273, 3669.719
270.639, 3805.357
272.004, 3781.803
273.369, 3937.627
274.734, 4119.400
276.099, 4309.111
277.463, 4301.749
278.828, 4573.297
280.192, 4510.750
281.556, 4658.100
282.919, 4660.346
284.283, 4534.482
285.646, 4524.402
287.009, 4425.365
288.372, 4256.089
289.734, 4041.664
291.097, 3784.087
292.459, 3551.361
293.821, 3032.488
295.183, 2903.471
296.544, 2387.312
297.905, 2059.014
299.266, 1881.579
300.627, 1372.012
301.988, 1353.312
303.348, 875.483
304.709, 848.530
306.069, 569.452
307.428, 367.254
308.788, 362.936
310.147, 82.497
311.507, 235.925
312.865, 91.189
314.224, 53.240
315.583, 2.059
316.941, 167.854
318.299, 64.327
319.657, 217.187
321.015, 105.680
322.372, 120.176
323.729, 115.722
325.086, 171.576
326.443, 116.147
327.800, 139.023
329.156, 101.056
330.512, 269.067
331.868, 258.970
333.224, 114.779
334.579, 355.461
335.935, 178.021
337.290, 330.443
338.645, 237.734
339.999, 163.876
341.354, 160.877
342.708, 83.707
344.062, 15.356
345.416, 2.813
346.769, 108.943
348.123, 130.933
349.476, 241.169
350.829, 231.953
352.182, 212.416
353.534, 193.430
354.887, 213.709
356.239, 159.256
357.591, 158.251
358.942, 245.168
360.294, 147.579
361.645, 142.273
362.996, 193.254
364.347, 66.465
365.698, 65.057
367.048, 100.139
368.398, 49.078
369.748, 126.148
371.098, 427.163
372.448, 226.345
373.797, 314.292
375.146, 216.017
376.495, 334.520
377.844, 338.815
379.192, 443.910
380.540, 642.812
381.889, 547.535
383.236, 664.078
384.584, 756.452
385.932, 1004.663
387.279, 1047.720
388.626, 986.628
389.973, 1441.392
391.319, 1337.008
392.666, 1706.466
394.012, 1779.733
395.358, 2090.764
396.704, 2296.526
398.049, 2452.881
399.394, 3236.846
400.740, 3442.393
402.084, 4060.645
403.429, 4507.602
404.774, 4760.377
406.118, 5311.982
407.462, 5268.431
408.806, 5513.735
410.150, 5356.873
411.493, 5044.787
412.836, 4766.402
414.179, 4417.609
415.522, 4345.389
416.865, 4017.763
418.207, 3829.779
419.549, 3604.416
420.891, 3497.067
422.233, 3568.788
423.575, 3427.718
424.916, 3428.542
426.257, 3526.270
427.598, 3431.900
428.939, 3801.451
430.279, 3560.933
431.619, 4000.355
432.959, 4318.734
434.299, 4479.070
435.639, 4877.365
436.978, 5085.621
438.318, 5434.836
439.657, 5639.014
440.996, 6069.149
442.334, 6206.246
443.673, 6481.308
445.011, 7123.330
446.349, 7008.314
447.687, 7513.263
449.024, 7471.176
450.361, 7575.056
451.699, 7883.897
453.036, 7630.708
454.372, 8172.482
455.709, 7973.227
457.045, 7911.939
458.381, 8511.619
459.717, 8214.270
461.053, 8738.891
462.388, 8672.480
463.724, 8937.044
465.059, 9500.872
466.394, 9777.577
467.728, 10767.100
469.063, 11238.276
470.397, 12381.420
471.731, 13842.679
473.065, 15327.526
474.398, 17731.262
475.732, 18998.619
477.065, 21236.367
478.398, 22956.387
479.731, 24090.189
481.063, 24622.998
482.396, 24849.736
483.728, 24257.504
485.060, 22612.475
486.391, 21525.877
487.723, 19852.686
489.054, 18138.273
490.385, 17746.775
491.716, 16247.216
493.047, 16371.458
494.377, 17150.156
495.708, 17981.129
497.038, 20077.008
498.368, 22409.139
499.697, 25508.707
501.027, 28903.920
502.356, 32173.193
503.685, 35879.875
505.014, 38346.016
506.342, 41536.594
507.671, 42508.816
508.999, 43689.906
510.327, 44240.965
511.655, 42487.836
512.982, 40833.965
514.310, 37594.980
515.637, 33398.441
516.964, 29670.303
518.291, 25778.451
519.617, 21803.844
520.944, 18277.758
522.270, 16161.481
523.596, 13762.998
524.921, 11783.929
526.247, 10415.480
527.572, 8991.502
528.897, 7923.766
530.222, 7186.431
531.547, 6233.550
532.871, 6045.832
534.196, 5197.037
535.520, 5086.229
536.844, 4741.620
538.167, 4802.059
539.491, 4571.379
540.814, 4387.558
542.137, 4621.371
543.460, 4428.732
544.783, 4574.520
546.105, 4563.363
547.427, 4335.398
548.749, 4559.217
550.071, 4533.473
551.393, 4550.779
552.714, 4789.094
554.035, 4254.421
555.356, 5040.773
556.677, 4633.129
557.998, 4996.479
559.318, 5462.825
560.638, 5452.205
561.958, 6831.607
563.278, 6469.053
564.597, 6957.506
565.917, 7460.967
567.236, 7086.477
568.555, 7385.994
569.874, 6765.536
571.192, 6469.107
572.511, 6027.736
573.829, 5004.401
575.147, 4970.111
576.464, 3957.830
577.782, 3890.589
579.099, 3569.367
580.416, 3179.158
581.733, 3248.982
583.050, 2794.817
584.366, 2767.668
585.683, 2827.527
586.999, 2565.398
588.315, 2895.281
589.630, 2718.174
590.946, 2925.079
592.261, 2947.996
593.576, 2899.921
594.891, 3289.859
596.206, 3142.808
597.520, 3560.765
598.834, 3199.732
600.148, 3270.710
601.462, 3469.696
602.776, 3355.693
604.089, 3789.701
605.402, 3617.719
606.715, 3571.745
608.028, 3864.781
609.341, 3377.829
610.653, 3463.888
611.965, 3164.955
613.277, 3157.033
614.589, 3152.122
615.901, 2855.221
617.212, 2827.331
618.523, 2729.451
619.834, 2577.582
621.145, 2368.722
622.456, 2164.874
623.766, 2039.038
625.076, 1895.217
626.386, 1887.414
627.696, 1767.636
629.006, 1597.883
630.315, 1530.175
631.624, 1373.497
632.933, 1251.864
634.242, 1214.280
635.551, 1127.758
636.859, 1056.343
638.167, 756.976
639.475, 822.729
640.783, 639.571
642.090, 380.507
643.398, 607.538
644.705, 497.604
646.012, 406.764
647.318, 174.962
648.625, 154.203
649.931, 156.474
651.237, 149.774
652.543, 113.117
653.849, 64.487
655.155, 87.106
656.460, 169.310
657.765, 186.240
659.070, 47.201
660.375, 83.319
661.679, 132.808
662.984, 19.266
664.288, 132.661
665.592, 75.991
666.895, 140.235
668.199, 274.384
669.502, 42.480
670.805, 26.465
672.108, 68.337
673.411, 6.099
674.713, 29.570
676.016, 5.455
677.318, 82.579
678.620, 60.316
679.921, 52.877
681.223, 127.051
682.524, 319.482
683.825, 114.654
685.126, 210.983
686.427, 308.179
687.727, 155.192
689.028, 347.083
690.328, 187.508
691.628, 393.931
692.927, 321.628
694.227, 221.169
695.526, 523.056
696.825, 258.221
698.124, 342.213
699.423, 494.046
700.721, 578.679
702.020, 604.927
703.318, 670.054
704.616, 501.794
705.913, 801.785
707.211, 794.714
708.508, 1017.005
709.805, 656.942
711.102, 873.887
712.399, 1040.239
713.695, 756.156
714.992, 1224.774
716.288, 927.437
717.584, 1105.772
718.879, 1047.883
720.175, 1048.340
721.470, 1237.383
722.765, 1097.917
724.060, 1219.214
725.355, 1325.836
726.649, 1191.615
727.944, 1647.581
729.238, 1215.688
730.532, 1659.416
731.825, 1705.952
733.119, 1562.593
734.412, 2002.162
735.705, 1924.516
736.998, 2105.711
738.291, 2385.895
739.584, 2469.557
740.876, 2805.021
742.168, 2886.639
743.460, 2832.812
744.752, 3164.014
746.043, 3352.120
747.334, 3523.620
748.626, 3521.778
749.916, 3437.581
751.207, 3520.736
752.498, 3539.158
753.788, 3826.943
755.078, 3688.021
756.368, 3865.085
757.658, 3985.131
758.947, 3995.158
760.237, 4393.170
761.526, 4229.164
762.815, 4455.139
764.104, 4687.098
765.392, 4389.037
766.680, 4908.959
767.969, 4510.862
769.257, 4645.744
770.544, 4846.607
771.832, 4517.453
773.119, 4746.278
774.406, 4499.082
775.693, 4566.865
776.980, 4579.631
778.267, 4394.372
779.553, 4549.094
780.839, 4731.793
782.125, 4612.473
783.411, 4921.129
784.697, 4867.763
785.982, 5152.376
787.267, 5693.963
788.552, 5787.527
789.837, 6508.068
791.122, 6538.588
792.406, 7002.080
793.690, 7324.547
794.974, 7091.986
796.258, 7298.399
797.542, 7212.785
798.825, 7014.145
800.108, 6900.475
801.391, 6046.776
802.674, 5888.049
803.957, 5111.291
805.239, 4763.502
806.522, 4573.684
807.804, 3802.836
809.085, 3774.957
810.367, 3353.506
811.649, 2752.563
812.930, 2783.782
814.211, 2423.775
815.492, 2310.287
816.772, 1741.268
818.053, 1480.923
819.333, 1243.831
820.613, 1069.387
821.893, 747.959
823.173, 709.215
824.452, 516.357
825.732, 588.713
827.011, 394.271
828.290, 333.779
829.568, 123.982
830.847, 13.412
832.125, 326.377
833.403, 38.801
834.681, 77.165
835.959, 268.479
837.236, 18.254
838.514, 87.924
839.791, 1.049
841.068, 89.907
842.345, 28.006
843.621, 173.151
844.898, 116.515
846.174, 110.872
847.450, 27.403
848.726, 16.964
850.001, 50.749
851.277, 126.576
852.552, 218.560
853.827, 134.748
855.102, 48.097
856.376, 24.562
857.651, 123.134
858.925, 57.858
860.199, 183.708
861.473, 13.745
862.746, 39.505
864.020, 55.136
865.293, 2.490
866.566, 87.024
867.839, 62.315
869.112, 81.100
870.384, 27.832
871.656, 103.675
872.928, 41.335
874.200, 28.269
875.472, 125.880
876.744, 75.811
878.015, 31.564
879.286, 34.052
880.557, 132.652
881.828, 55.319
883.098, 81.310
884.369, 126.661
885.639, 48.426
886.909, 38.367
888.178, 160.084
889.448, 10.256
890.717, 193.305
891.987, 98.812
893.256, 357.258
894.524, 315.658
895.793, 179.006
897.061, 492.320
898.330, 186.592
899.598, 326.811
900.865, 568.998
902.133, 245.139
903.401, 395.230
904.668, 586.275
905.935, 544.275
907.202, 741.229
908.468, 496.139
909.735, 715.006
911.001, 830.840
912.267, 670.625
913.533, 894.375
914.799, 729.082
916.064, 1002.744
917.330, 921.363
918.595, 996.938
919.860, 1078.467
921.124, 1164.955
922.389, 1106.398
923.653, 1206.801
924.918, 1085.156
926.182, 1063.471
927.445, 1148.746
928.709, 1127.977
929.972, 1311.168
931.236, 1172.314
932.499, 1115.420
933.761, 1322.482
935.024, 983.502
936.286, 1487.479
937.549, 1194.434
938.811, 1613.217
940.073, 1859.146
941.334, 1941.486
942.596, 1607.732
943.857, 1654.457
945.118, 1480.143
946.379, 1830.787
947.640, 1511.387
948.900, 1761.947
950.161, 1986.469
951.421, 1925.949
952.681, 2200.389
953.940, 2055.789
955.200, 2332.148
956.459, 2390.469
957.719, 2381.754
958.978, 2605.000
960.236, 2599.207
961.495, 3038.373
962.753, 3045.508
964.012, 3373.602
965.270, 3589.682
966.527, 3405.725
967.785, 3777.736
969.043, 3904.723
970.300, 4090.674
971.557, 4095.611
972.814, 4417.514
974.071, 4570.395
975.327, 4761.281
976.583, 5031.135
977.840, 4981.953
979.095, 5300.742
980.351, 4999.311
981.607, 5308.965
982.862, 5292.750
984.117, 5018.176
985.372, 5199.006
986.627, 4780.307
987.882, 4727.363
989.136, 4894.729
990.390, 4545.949
991.644, 4643.322
992.898, 4457.887
994.152, 4386.566
995.405, 4289.719
996.659, 4279.865
997.912, 4146.746
999.165, 4191.773
1000.417, 4097.457
1001.670, 3964.859
1002.922, 3790.420
1004.174, 3719.152
1005.426, 3608.131
1006.678, 3599.322
1007.930, 3506.020
1009.181, 3525.467
1010.432, 3556.951
1011.683, 3625.479
1012.934, 3448.613
1014.185, 3420.086
1015.435, 3704.525
1016.685, 3515.535
1017.935, 3548.959
1019.185, 3455.662
1020.435, 3425.301
1021.684, 3651.246
1022.934, 3356.398
1024.183, 3466.188
1025.432, 3634.371
1026.680, 3301.045
1027.929, 3565.941
1029.177, 3440.492
1030.425, 3538.869
1031.673, 3491.041
1032.921, 3414.055
1034.169, 3436.430
1035.416, 3589.980
1036.663, 3561.408
1037.911, 3711.885
1039.157, 3455.562
1040.404, 3596.383
1041.650, 3609.197
1042.897, 3717.520
1044.143, 3760.018
1045.389, 3685.340
1046.634, 3636.580
1047.880, 3731.285
1049.125, 3775.621
1050.371, 3604.750
1051.615, 3747.449
1052.860, 3814.486
1054.105, 3892.154
1055.349, 3483.852
1056.593, 3714.547
1057.837, 3774.244
1059.081, 3453.715
1060.325, 3659.262
1061.568, 3548.961
1062.812, 3613.553
1064.055, 3385.254
1065.298, 3453.301
1066.540, 3278.010
1067.783, 3415.725
1069.025, 3059.664
1070.267, 3294.385
1071.509, 3036.113
1072.751, 3040.230
1073.993, 3053.969
1075.234, 2774.711
1076.475, 3021.525
1077.716, 2645.285
1078.957, 2625.057
1080.198, 2801.500
1081.438, 2682.287
1082.679, 2533.082
1083.919, 2558.887
1085.159, 2408.705
1086.398, 2456.535
1087.638, 2312.373
1088.877, 2209.227
1090.116, 2409.094
1091.355, 2634.977
1092.594, 2291.873
1093.833, 2285.783
1095.071, 2222.711
1096.309, 2079.096
1097.547, 2099.969
1098.785, 1995.598
1100.023, 2029.594
1101.260, 2116.611
1102.498, 2013.594
1103.735, 2195.590
1104.972, 1892.555
1106.208, 1918.338
1107.445, 1903.344
1108.681, 2066.359
1109.918, 1936.367
1111.154, 1637.371
1112.389, 1768.387
1113.625, 1837.420
1114.860, 1558.473
1116.096, 1659.539
1117.331, 1479.611
1118.566, 1319.703
1119.800, 1419.773
1121.035, 1280.896
1122.269, 1220.383
1123.503, 1383.766
1124.737, 1005.959
1125.971, 1326.170
1127.205, 1145.404
1128.438, 1145.666
1129.671, 931.947
1130.904, 893.258
1132.137, 1087.588
1133.370, 823.947
1134.602, 960.344
1135.834, 915.779
1137.066, 1088.250
1138.298, 681.775
1139.530, 781.785
1140.762, 900.350
1141.993, 547.992
1143.224, 936.682
1144.455, 598.477
1145.686, 652.314
1146.917, 638.244
1148.147, 720.246
1149.377, 778.271
1150.607, 545.381
1151.837, 526.596
1153.067, 668.484
1154.296, 521.957
1155.526, 648.354
1156.755, 462.699
1157.984, 626.525
1159.213, 616.562
1160.441, 427.734
1161.670, 410.002
1162.898, 560.350
1164.126, 327.873
1165.354, 423.508
1166.581, 344.307
1167.809, 388.238
1169.036, 383.396
1170.263, 459.730
1171.490, 416.191
1172.717, 419.213
1173.943, 432.369
1175.170, 355.041
1176.396, 320.709
1177.622, 251.398
1178.848, 300.104
1180.073, 280.848
1181.299, 160.631
1182.524, 263.428
1183.749, 273.244
1184.974, 480.084
1186.199, 120.961
1187.423, 105.873
1188.648, 340.822
1189.872, 2.809
1191.096, 252.824
1192.320, 62.877
1193.543, 125.027
1194.767, 349.109
1195.990, 30.709
1197.213, 108.480
1198.436, 48.793
1199.659, 78.117
1200.881, 22.490
1202.104, 63.906
1203.326, 64.377
1204.548, 248.900
1205.770, 34.535
1206.991, 61.916
1208.213, 228.760
1209.434, 61.508
1210.655, 43.289
1211.876, 17.861
1213.096, 47.041
1214.317, 193.000
1215.537, 11.979
1216.757, 10.111
1217.977, 106.266
1219.197, 16.512
1220.417, 256.781
1221.636, 134.137
1222.855, 33.441
1224.074, 233.049
1225.293, 158.605
1226.512, 20.770
1227.731, 156.914
1228.949, 177.645
1230.167, 281.436
1231.385, 93.334
1232.603, 39.346
1233.820, 29.471
1235.038, 549.703
1236.255, 49.037
1237.472, 344.465
1238.689, 98.977
1239.906, 12.578
1241.122, 295.271
1242.338, 184.057
1243.555, 250.941
1244.771, 273.928
1245.986, 155.018
1247.202, 241.174
1248.417, 16.447
1249.633, 157.078
1250.848, 279.734
1252.063, 13.201
1253.277, 323.959
1254.492, 400.873
1255.706, 319.418
1256.920, 479.633
1258.134, 252.672
1259.348, 93.123
1260.562, 272.385
1261.775, 294.340
1262.988, 347.795
1264.201, 281.090
1265.414, 20.176
1266.627, 412.135
1267.839, 339.477
1269.052, 9.158
1270.264, 688.209
1271.476, 118.566
1272.688, 778.896
1273.899, 700.172
1275.111, 104.371
1276.322, 397.109
1277.533, 222.748
1278.744, 54.871
1279.955, 354.566
1281.165, 139.617
1282.376, 180.836
1283.586, 488.504
1284.796, 6.400
1286.006, 349.410
1287.215, 118.934
1288.425, 41.652
1289.634, 396.619
1290.843, 252.303
1292.052, 112.199
1293.261, 320.197
1294.469, 222.154
1295.678, 259.473
1296.886, 417.221
1298.094, 1.730
1299.302, 561.732
1300.509, 386.041
1301.717, 0.000
##END=



