##NAMES=Anorthite
##RRUFFID=R050104
##IDEAL CHEMISTRY=CaAl_2_Si_2_O_8_
##LOCALITY=unknown
##OWNER=RRUFF
##SOURCE=Rock Currier
##DESCRIPTION=Iridescent slab, labradorite/andesine
##STATUS=The identification of this mineral has been confirmed by X-ray diffraction and chemical analysis
##URL=rruff.info/R050104
##MEASURED CHEMISTRY=Ca_0.50_Na_0.47_K_0.03_Al_1.50_Si_2.50_O_8_
##PIN_ID=L00427
##ORIENTATION=Laser parallel to -a* (-1 0 0). Fiducial mark perpendicular to laser is parallel to b [0 1 0]
133.003, 0.000
134.390, 5.494
135.777, 9.652
137.164, 25.920
138.550, 69.879
139.937, 102.909
141.323, 198.256
142.709, 222.162
144.094, 291.713
145.480, 363.180
146.865, 374.873
148.250, 431.478
149.635, 420.362
151.019, 472.543
152.403, 478.570
153.788, 445.131
155.171, 466.958
156.555, 465.879
157.939, 401.810
159.322, 419.654
160.705, 344.467
162.088, 373.429
163.470, 315.577
164.853, 374.750
166.235, 367.720
167.617, 296.274
168.998, 512.243
170.380, 599.489
171.761, 810.904
173.142, 1034.397
174.523, 1243.900
175.904, 1526.366
177.284, 1864.876
178.664, 2239.650
180.044, 2571.842
181.424, 2854.478
182.803, 3233.309
184.183, 3500.328
185.562, 3849.730
186.940, 4081.487
188.319, 4378.096
189.698, 4364.294
191.076, 4458.777
192.454, 4590.104
193.831, 4555.628
195.209, 4763.687
196.586, 4789.157
197.963, 4771.937
199.340, 4678.969
200.717, 4707.271
202.093, 4620.880
203.470, 4381.831
204.846, 4205.154
206.221, 3914.877
207.597, 3732.028
208.972, 3220.629
210.347, 2907.704
211.722, 2632.273
213.097, 2268.358
214.472, 2011.977
215.846, 1594.183
217.220, 1441.114
218.594, 1060.881
219.967, 808.889
221.341, 807.811
222.714, 748.267
224.087, 633.536
225.460, 374.081
226.832, 341.399
228.204, 209.524
229.577, 230.164
230.948, 207.647
232.320, 153.231
233.692, 232.959
235.063, 207.491
236.434, 246.484
237.805, 277.137
239.175, 444.435
240.545, 442.552
241.916, 607.330
243.286, 779.472
244.655, 770.060
246.025, 862.445
247.394, 965.202
248.763, 1047.486
250.132, 1140.925
251.501, 1118.844
252.869, 1188.938
254.237, 1302.466
255.605, 1374.158
256.973, 1291.484
258.340, 1311.374
259.708, 1415.420
261.075, 1363.592
262.442, 1481.418
263.808, 1562.207
265.175, 1561.461
266.541, 1682.660
267.907, 1666.802
269.273, 1821.878
270.639, 1832.882
272.004, 1846.806
273.369, 1976.642
274.734, 2055.384
276.099, 2214.030
277.463, 2231.579
278.828, 2354.030
280.192, 2407.361
281.556, 2533.644
282.919, 2496.808
284.283, 2431.880
285.646, 2445.859
287.009, 2360.748
288.372, 2277.547
289.734, 2063.258
291.097, 2047.881
292.459, 1814.418
293.821, 1591.869
295.183, 1520.236
296.544, 1211.520
297.905, 1072.576
299.266, 825.609
300.627, 774.311
301.988, 606.289
303.348, 458.471
304.709, 434.806
306.069, 316.257
307.428, 305.791
308.788, 189.385
310.147, 109.018
311.507, 186.671
312.865, 60.333
314.224, 105.986
315.583, 51.623
316.941, 68.231
318.299, 57.803
319.657, 39.332
321.015, 28.810
322.372, 44.231
323.729, 57.086
325.086, 51.890
326.443, 114.443
327.800, 125.439
329.156, 155.349
330.512, 139.347
331.868, 119.262
333.224, 59.091
334.579, 149.827
335.935, 49.475
337.290, 111.028
338.645, 51.490
339.999, 30.140
341.354, 2.883
342.708, 116.732
344.062, 59.710
345.416, 96.795
346.769, 84.015
348.123, 161.372
349.476, 138.881
350.829, 182.543
352.182, 163.386
353.534, 96.404
354.887, 156.594
356.239, 103.974
357.591, 133.535
358.942, 142.280
360.294, 130.208
361.645, 103.318
362.996, 94.598
364.347, 93.045
365.698, 114.655
367.048, 41.431
368.398, 53.352
369.748, 95.419
371.098, 4.360
372.448, 77.013
373.797, 104.555
375.146, 93.991
376.495, 74.323
377.844, 149.549
379.192, 181.678
380.540, 151.711
381.889, 205.649
383.236, 221.488
384.584, 293.221
385.932, 410.842
387.279, 376.343
388.626, 492.719
389.973, 532.971
391.319, 560.094
392.666, 734.096
394.012, 771.994
395.358, 1030.791
396.704, 1126.477
398.049, 1327.053
399.394, 1830.518
400.740, 1888.818
402.084, 2091.896
403.429, 2489.753
404.774, 2629.346
406.118, 2759.658
407.462, 2886.731
408.806, 2820.576
410.150, 2836.180
411.493, 2679.575
412.836, 2434.761
414.179, 2192.783
415.522, 2070.644
416.865, 1964.420
418.207, 1725.113
419.549, 1714.734
420.891, 1621.290
422.233, 1435.785
423.575, 1498.228
424.916, 1480.625
426.257, 1401.979
427.598, 1488.295
428.939, 1446.570
430.279, 1394.807
431.619, 1566.005
432.959, 1644.163
434.299, 1701.284
435.639, 1725.365
436.978, 1930.411
438.318, 1994.417
439.657, 2089.388
440.996, 2177.320
442.334, 2398.218
443.673, 2469.079
445.011, 2757.904
446.349, 2724.694
447.687, 3041.449
449.024, 3042.169
450.361, 3108.856
451.699, 3206.508
453.036, 3326.127
454.372, 3473.926
455.709, 3637.266
457.045, 3839.786
458.381, 4027.273
459.717, 4255.710
461.053, 4568.096
462.388, 4785.428
463.724, 5172.703
465.059, 5562.885
466.394, 6028.895
467.728, 6774.336
469.063, 7343.661
470.397, 8271.424
471.731, 9396.469
473.065, 10580.071
474.398, 12107.385
475.732, 13360.152
477.065, 14808.124
478.398, 15936.264
479.731, 16659.137
481.063, 16755.555
482.396, 16513.582
483.728, 15779.896
485.060, 14636.355
486.391, 13740.611
487.723, 12647.675
489.054, 11568.745
490.385, 11020.980
491.716, 10394.000
493.047, 10598.757
494.377, 11137.533
495.708, 11896.456
497.038, 13152.030
498.368, 14765.498
499.697, 16705.467
501.027, 18913.107
502.356, 21174.219
503.685, 23440.746
505.014, 25021.512
506.342, 26721.113
507.671, 27322.768
508.999, 28090.703
510.327, 27410.463
511.655, 26266.975
512.982, 24660.758
514.310, 22322.516
515.637, 19878.098
516.964, 17469.311
518.291, 15322.756
519.617, 13296.026
520.944, 11524.332
522.270, 9865.150
523.596, 8575.351
524.921, 7383.661
526.247, 6436.468
527.572, 5713.804
528.897, 5045.350
530.222, 4578.199
531.547, 4012.267
532.871, 3699.196
534.196, 3314.629
535.520, 3422.862
536.844, 3056.631
538.167, 3016.635
539.491, 2998.950
540.814, 2919.931
542.137, 2970.407
543.460, 2828.993
544.783, 2995.094
546.105, 2936.677
547.427, 2967.092
548.749, 2917.995
550.071, 2896.053
551.393, 2885.242
552.714, 2986.826
554.035, 2910.421
555.356, 3046.025
556.677, 3075.636
557.998, 3253.253
559.318, 3589.866
560.638, 3738.490
561.958, 4289.118
563.278, 4459.754
564.597, 4702.374
565.917, 4841.008
567.236, 4596.626
568.555, 4625.229
569.874, 4199.823
571.192, 3903.429
572.511, 3473.021
573.829, 2989.599
575.147, 2742.167
576.464, 2238.723
577.782, 2067.267
579.099, 1904.800
580.416, 1663.319
581.733, 1555.828
583.050, 1417.662
584.366, 1288.811
585.683, 1235.285
586.999, 1192.748
588.315, 1152.200
589.630, 1094.641
590.946, 1131.071
592.261, 1029.490
593.576, 987.899
594.891, 1010.297
596.206, 1054.684
597.520, 996.377
598.834, 1035.428
600.148, 956.784
601.462, 866.131
602.776, 924.468
604.089, 879.794
605.402, 845.111
606.715, 823.419
608.028, 778.221
609.341, 760.004
610.653, 713.283
611.965, 726.553
613.277, 723.813
614.589, 642.064
615.901, 668.307
617.212, 662.540
618.523, 629.765
619.834, 600.980
621.145, 709.188
622.456, 695.387
623.766, 667.579
625.076, 749.763
626.386, 736.942
627.696, 828.117
629.006, 760.290
630.315, 718.463
631.624, 748.635
632.933, 619.812
634.242, 642.991
635.551, 702.175
636.859, 572.363
638.167, 430.558
639.475, 442.761
640.783, 433.973
642.090, 393.194
643.398, 314.422
644.705, 272.659
646.012, 241.899
647.318, 154.145
648.625, 231.395
649.931, 115.648
651.237, 110.907
652.543, 61.177
653.849, 21.450
655.155, 31.734
656.460, 22.976
657.765, 17.683
659.070, 12.365
660.375, 92.028
661.679, 129.667
662.984, 41.311
664.288, 18.917
665.592, 59.483
666.895, 66.999
668.199, 1.528
669.502, 67.875
670.805, 41.772
672.108, 24.529
673.411, 10.230
674.713, 6.833
676.016, 27.668
677.318, 19.408
678.620, 21.753
679.921, 57.248
681.223, 33.615
682.524, 74.551
683.825, 91.242
685.126, 120.576
686.427, 99.502
687.727, 158.412
689.028, 97.715
690.328, 105.907
691.628, 217.249
692.927, 165.216
694.227, 222.720
695.526, 135.344
696.825, 232.118
698.124, 198.157
699.423, 269.336
700.721, 296.724
702.020, 266.951
703.318, 289.563
704.616, 334.217
705.913, 439.797
707.211, 413.701
708.508, 498.114
709.805, 412.330
711.102, 533.433
712.399, 576.006
713.695, 453.490
714.992, 657.128
716.288, 572.573
717.584, 666.303
718.879, 573.461
720.175, 666.088
721.470, 683.662
722.765, 643.514
724.060, 758.058
725.355, 685.022
726.649, 853.500
727.944, 851.939
729.238, 828.575
730.532, 989.319
731.825, 1092.651
733.119, 1053.333
734.412, 1207.751
735.705, 1249.055
736.998, 1225.349
738.291, 1451.633
739.584, 1549.972
740.876, 1661.238
742.168, 1625.494
743.460, 1711.741
744.752, 1836.978
746.043, 1840.205
747.334, 1922.422
748.626, 1997.630
749.916, 1961.829
751.207, 2047.661
752.498, 2026.197
753.788, 2120.366
755.078, 2146.524
756.368, 2149.675
757.658, 2198.815
758.947, 2172.946
760.237, 2266.066
761.526, 2221.177
762.815, 2346.278
764.104, 2332.370
765.392, 2322.452
766.680, 2437.524
767.969, 2436.586
769.257, 2443.639
770.544, 2517.682
771.832, 2342.715
773.119, 2463.738
774.406, 2350.751
775.693, 2364.754
776.980, 2421.747
778.267, 2238.730
779.553, 2340.704
780.839, 2377.668
782.125, 2288.621
783.411, 2401.564
784.697, 2508.498
785.982, 2603.421
787.267, 2904.334
788.552, 2953.237
789.837, 3177.130
791.122, 3380.012
792.406, 3340.884
793.690, 3606.746
794.974, 3602.597
796.258, 3427.438
797.542, 3369.268
798.825, 3320.086
800.108, 3210.895
801.391, 2840.691
802.674, 2624.478
803.957, 2397.253
805.239, 2176.018
806.522, 2151.771
807.804, 2071.453
809.085, 2220.963
810.367, 1483.511
811.649, 1240.440
812.930, 1217.493
814.211, 1137.651
815.492, 977.117
816.772, 712.787
818.053, 648.168
819.333, 536.163
820.613, 379.903
821.893, 283.354
823.173, 296.688
824.452, 273.086
825.732, 272.595
827.011, 223.399
828.290, 141.758
829.568, 100.925
830.847, 14.613
832.125, 85.961
833.403, 9.305
834.681, 106.755
835.959, 11.897
837.236, 56.496
838.514, 48.131
839.791, 7.181
841.068, 23.539
842.345, 2.691
843.621, 11.113
844.898, 60.961
846.174, 6.878
847.450, 78.835
848.726, 0.873
850.001, 34.946
851.277, 23.076
852.552, 9.248
853.827, 12.478
855.102, 41.744
856.376, 0.069
857.651, 80.433
858.925, 26.875
860.199, 143.370
861.473, 109.745
862.746, 98.679
864.020, 88.470
865.293, 80.345
866.566, 79.298
867.839, 34.331
869.112, 95.418
870.384, 52.592
871.656, 75.829
872.928, 12.858
874.200, 83.482
875.472, 44.097
876.744, 114.656
878.015, 4.199
879.286, 68.290
880.557, 129.151
881.828, 78.576
883.098, 48.984
884.369, 227.373
885.639, 56.748
886.909, 116.104
888.178, 245.446
889.448, 201.772
890.717, 175.084
891.987, 120.382
893.256, 316.664
894.524, 289.933
895.793, 238.188
897.061, 361.429
898.330, 349.656
899.598, 260.870
900.865, 466.069
902.133, 360.258
903.401, 482.433
904.668, 510.596
905.935, 482.744
907.202, 556.366
908.468, 666.028
909.735, 637.170
911.001, 672.298
912.267, 769.414
913.533, 764.520
914.799, 755.613
916.064, 731.693
917.330, 739.762
918.595, 773.818
919.860, 758.863
921.124, 870.896
922.389, 737.920
923.653, 860.930
924.918, 819.929
926.182, 790.917
927.445, 856.895
928.709, 823.859
929.972, 812.815
931.236, 903.761
932.499, 852.694
933.761, 1015.618
935.024, 875.531
936.286, 988.436
937.549, 924.330
938.811, 947.214
940.073, 885.089
941.334, 962.954
942.596, 985.810
943.857, 1117.657
945.118, 1114.495
946.379, 1208.325
947.640, 1167.146
948.900, 1153.958
950.161, 1205.763
951.421, 1276.558
952.681, 1312.347
953.940, 1297.164
955.200, 1332.975
956.459, 1448.777
957.719, 1399.574
958.978, 1578.361
960.236, 1571.145
961.495, 1757.919
962.753, 1702.689
964.012, 1894.456
965.270, 2032.219
966.527, 1993.979
967.785, 2081.749
969.043, 2278.535
970.300, 2341.322
971.557, 2280.109
972.814, 2614.898
974.071, 2542.694
975.327, 2724.486
976.583, 2839.284
977.840, 2743.078
979.095, 2931.872
980.351, 2829.540
981.607, 2765.056
982.862, 3006.718
984.117, 2784.169
985.372, 2860.524
986.627, 2660.055
987.882, 2603.068
989.136, 2710.384
990.390, 2564.092
991.644, 2604.251
992.898, 2457.478
994.152, 2436.340
995.405, 2303.328
996.659, 2411.178
997.912, 2378.413
999.165, 2311.125
1000.417, 2248.726
1001.670, 2165.185
1002.922, 2296.384
1004.174, 2209.451
1005.426, 2204.314
1006.678, 2130.340
1007.930, 2288.983
1009.181, 2180.584
1010.432, 2115.546
1011.683, 2236.202
1012.934, 2076.977
1014.185, 1945.458
1015.435, 2274.596
1016.685, 2049.260
1017.935, 2084.011
1019.185, 2233.605
1020.435, 2055.393
1021.684, 2255.896
1022.934, 2136.967
1024.183, 2045.567
1025.432, 2289.224
1026.680, 2121.600
1027.929, 2138.285
1029.177, 2197.550
1030.425, 2193.301
1031.673, 2254.090
1032.921, 2157.684
1034.169, 2009.170
1035.416, 2288.068
1036.663, 1987.619
1037.911, 2187.436
1039.157, 2066.365
1040.404, 2173.308
1041.650, 2172.262
1042.897, 2055.163
1044.143, 2310.141
1045.389, 2135.130
1046.634, 2088.239
1047.880, 2163.255
1049.125, 2070.283
1050.371, 1945.323
1051.615, 2085.379
1052.860, 1989.902
1054.105, 2132.986
1055.349, 1921.084
1056.593, 2027.840
1057.837, 2043.967
1059.081, 1888.105
1060.325, 2055.328
1061.568, 2037.500
1062.812, 1899.997
1064.055, 1952.201
1065.298, 1780.421
1066.540, 1674.658
1067.783, 1891.910
1069.025, 1766.180
1070.267, 1826.467
1071.509, 1756.771
1072.751, 1711.094
1073.993, 1670.434
1075.234, 1638.790
1076.475, 1578.167
1077.716, 1557.562
1078.957, 1462.976
1080.198, 1599.410
1081.438, 1437.863
1082.679, 1607.337
1083.919, 1564.830
1085.159, 1436.346
1086.398, 1420.883
1087.638, 1440.440
1088.877, 1335.022
1090.116, 1514.626
1091.355, 1534.254
1092.594, 1325.905
1093.833, 1398.581
1095.071, 1271.281
1096.309, 1269.006
1097.547, 1396.757
1098.785, 1149.533
1100.023, 1277.336
1101.260, 1260.167
1102.498, 1238.750
1103.735, 1295.634
1104.972, 1167.539
1106.208, 1175.473
1107.445, 1182.398
1108.681, 1149.295
1109.918, 1061.824
1111.154, 1111.682
1112.389, 1128.259
1113.625, 1113.322
1114.860, 972.427
1116.096, 994.246
1117.331, 950.911
1118.566, 904.925
1119.800, 950.158
1121.035, 827.746
1122.269, 871.194
1123.503, 848.498
1124.737, 856.122
1125.971, 798.169
1127.205, 760.521
1128.438, 733.017
1129.671, 701.054
1130.904, 543.291
1132.137, 715.590
1133.370, 587.891
1134.602, 491.228
1135.834, 603.594
1137.066, 719.001
1138.298, 490.418
1139.530, 606.884
1140.762, 548.379
1141.993, 437.911
1143.224, 618.058
1144.455, 421.411
1145.686, 444.797
1146.917, 379.192
1148.147, 425.608
1149.377, 500.014
1150.607, 415.350
1151.837, 312.682
1153.067, 538.996
1154.296, 372.325
1155.526, 510.717
1156.755, 298.486
1157.984, 477.389
1159.213, 388.478
1160.441, 254.729
1161.670, 399.124
1162.898, 398.667
1164.126, 384.336
1165.354, 424.193
1166.581, 563.938
1167.809, 401.865
1169.036, 221.835
1170.263, 184.845
1171.490, 326.897
1172.717, 50.986
1173.943, 299.115
1175.170, 318.283
1176.396, 186.491
1177.622, 241.739
1178.848, 219.023
1180.073, 229.333
1181.299, 221.648
1182.524, 184.982
1183.749, 8.354
1184.974, 364.768
1186.199, 129.224
1187.423, 120.723
1188.648, 354.265
1189.872, 26.852
1191.096, 264.482
1192.320, 83.158
1193.543, 10.119
1194.767, 322.647
1195.990, 40.462
1197.213, 98.321
1198.436, 83.230
1199.659, 27.813
1200.881, 85.189
1202.104, 93.241
1203.326, 83.771
1204.548, 228.265
1205.770, 106.654
1206.991, 5.522
1208.213, 153.657
1209.434, 19.114
1210.655, 113.164
1211.876, 29.485
1213.096, 67.855
1214.317, 178.275
1215.537, 15.744
1216.757, 106.197
1217.977, 214.703
1219.197, 50.265
1220.417, 64.878
1221.636, 75.545
1222.855, 4.264
1224.074, 234.036
1225.293, 88.869
1226.512, 76.769
1227.731, 197.740
1228.949, 152.783
1230.167, 151.920
1231.385, 37.153
1232.603, 114.477
1233.820, 161.882
1235.038, 371.367
1236.255, 274.732
1237.472, 225.580
1238.689, 172.309
1239.906, 186.120
1241.122, 200.017
1242.338, 69.001
1243.555, 311.077
1244.771, 295.245
1245.986, 84.508
1247.202, 480.867
1248.417, 128.970
1249.633, 193.583
1250.848, 234.928
1252.063, 85.653
1253.277, 353.490
1254.492, 262.618
1255.706, 233.146
1256.920, 376.722
1258.134, 297.388
1259.348, 234.146
1260.562, 145.001
1261.775, 37.956
1262.988, 381.012
1264.201, 217.170
1265.414, 23.432
1266.627, 338.795
1267.839, 147.254
1269.052, 189.808
1270.264, 563.452
1271.476, 220.185
1272.688, 289.998
1273.899, 338.885
1275.111, 56.671
1276.322, 418.028
1277.533, 50.795
1278.744, 263.380
1279.955, 250.902
1281.165, 155.289
1282.376, 313.444
1283.586, 380.100
1284.796, 109.437
1286.006, 262.261
1287.215, 296.409
1288.425, 1.878
1289.634, 369.847
1290.843, 83.621
1292.052, 143.599
1293.261, 147.724
1294.469, 103.631
1295.678, 245.229
1296.886, 152.995
1298.094, 34.097
1299.302, 432.226
1300.509, 0.000
##END=



