##NAMES=Anorthite
##RRUFFID=R040059
##IDEAL CHEMISTRY=CaAl_2_Si_2_O_8_
##LOCALITY=Miyakejima, Japan
##OWNER=RRUFF
##SOURCE=University of Arizona Mineral Museum
##DESCRIPTION=Colorless fragments of crystals
##STATUS=The identification of this mineral has been confirmed by X-ray diffraction and chemical analysis
##URL=rruff.info/R040059
##MEASURED CHEMISTRY=(Ca_0.94_Na_0.04_Fe_0.02_)(Al_0.98_Si_0.02_)_2_Si_2.00_O_8_
##PIN_ID=L00179
##ORIENTATION=Laser parallel to (1 1 0). Fiducial mark perpendicular to laser is parallel to -c [0 0 -1]
121.706, 0.000
123.102, 146.682
124.497, 35.843
125.892, 162.318
127.286, 510.972
128.681, 683.603
130.075, 1164.762
131.469, 1305.648
132.862, 1904.147
134.256, 2233.730
135.649, 2564.728
137.042, 3077.247
138.435, 3551.152
139.827, 4031.401
141.219, 4418.924
142.611, 4928.842
144.003, 4982.884
145.394, 4567.968
146.786, 4134.502
148.177, 3232.855
149.567, 2572.773
150.958, 1773.576
152.348, 1365.086
153.738, 607.137
155.128, 459.582
156.517, 62.310
157.907, 24.772
159.296, 31.732
160.685, 128.627
162.073, 15.501
163.462, 62.389
164.850, 80.686
166.237, 3.712
167.625, 186.919
169.012, 422.381
170.400, 481.624
171.786, 582.377
173.173, 742.788
174.559, 927.165
175.946, 1217.939
177.332, 1647.612
178.717, 1887.019
180.103, 2186.138
181.488, 2834.912
182.873, 3243.265
184.258, 3671.114
185.642, 4098.475
187.026, 4355.380
188.410, 4831.854
189.794, 4847.926
191.178, 5253.611
192.561, 4938.934
193.944, 5103.912
195.327, 4848.557
196.709, 4372.920
198.092, 3987.002
199.474, 3620.798
200.856, 3434.319
202.237, 2967.579
203.618, 2630.589
205.000, 2423.372
206.380, 1906.008
207.761, 1648.540
209.142, 1290.986
210.522, 1013.360
211.902, 735.668
213.281, 472.373
214.661, 358.658
216.040, 442.616
217.419, 536.879
218.798, 398.420
220.176, 412.666
221.554, 414.262
222.932, 243.914
224.310, 249.064
225.688, 25.032
227.065, 151.929
228.442, 186.096
229.819, 195.579
231.196, 319.637
232.572, 417.194
233.948, 643.300
235.324, 762.163
236.700, 1003.839
238.075, 1284.306
239.450, 1716.929
240.825, 1837.388
242.200, 2176.960
243.574, 2745.447
244.948, 2592.213
246.322, 3058.992
247.696, 3045.783
249.070, 3072.583
250.443, 3269.388
251.816, 3396.193
253.189, 3512.984
254.561, 3479.752
255.933, 3656.495
257.306, 3523.162
258.677, 3489.795
260.049, 3466.396
261.420, 3292.967
262.791, 3259.507
264.162, 3376.013
265.533, 3512.488
266.903, 3378.930
268.274, 3535.338
269.643, 3652.286
271.013, 3660.395
272.383, 3316.842
273.752, 3383.104
275.121, 3239.334
276.490, 3335.534
277.858, 3231.703
279.226, 3377.844
280.595, 3373.955
281.962, 3440.035
283.330, 3496.088
284.697, 3162.111
286.064, 3368.106
287.431, 2965.992
288.798, 2904.799
290.164, 2714.119
291.530, 2513.775
292.896, 2253.660
294.262, 1653.709
295.627, 1643.875
296.993, 1104.121
298.358, 734.402
299.722, 554.713
301.087, 435.047
302.451, 235.396
303.815, 44.246
305.179, 46.053
306.543, 183.850
307.906, 193.895
309.269, 304.006
310.632, 244.215
311.995, 274.512
313.357, 230.799
314.719, 186.703
316.081, 105.949
317.443, 66.508
318.804, 17.137
320.166, 82.180
321.527, 131.455
322.887, 300.109
324.248, 68.539
325.608, 63.402
326.968, 37.826
328.328, 19.492
329.688, 41.510
331.047, 7.424
332.406, 176.297
333.765, 25.121
335.124, 223.949
336.482, 142.705
337.840, 81.465
339.198, 60.076
340.556, 138.643
341.913, 127.178
343.271, 75.643
344.628, 94.033
345.984, 37.613
347.341, 260.643
348.697, 58.836
350.053, 236.959
351.409, 235.020
352.765, 93.027
354.120, 100.971
355.475, 78.854
356.830, 136.678
358.185, 138.295
359.539, 144.430
360.894, 199.822
362.248, 207.438
363.601, 265.006
364.955, 412.527
366.308, 560.008
367.661, 557.449
369.014, 744.850
370.367, 712.211
371.719, 729.535
373.071, 666.822
374.423, 734.379
375.775, 901.277
377.126, 898.387
378.478, 1015.307
379.828, 1191.883
381.179, 1198.113
382.530, 1124.051
383.880, 1009.809
385.230, 875.486
386.580, 721.135
387.929, 586.732
389.279, 778.055
390.628, 783.184
391.977, 858.389
393.325, 1173.605
394.674, 1498.869
396.022, 1934.102
397.370, 2289.287
398.718, 2704.408
400.065, 2949.488
401.413, 2654.539
402.760, 2479.545
404.106, 2274.518
405.453, 1929.465
406.799, 1744.387
408.146, 1249.295
409.491, 1194.186
410.837, 729.061
412.182, 553.916
413.528, 418.756
414.873, 283.580
416.217, 258.387
417.562, 183.170
418.906, 477.936
420.250, 372.682
421.594, 687.412
422.938, 1122.125
424.281, 1146.822
425.624, 1621.504
426.967, 1636.168
428.310, 1920.814
429.652, 1695.445
430.994, 1780.061
432.336, 1694.656
433.678, 1519.229
435.020, 1553.783
436.361, 1588.320
437.702, 1722.842
439.043, 1517.346
440.383, 1321.834
441.724, 1406.307
443.064, 1200.766
444.404, 1105.205
445.743, 1089.631
447.083, 956.160
448.422, 778.432
449.761, 882.801
451.100, 807.141
452.438, 921.545
453.777, 855.992
455.115, 1290.945
456.453, 1175.559
457.790, 1411.283
459.128, 1875.600
460.465, 1739.707
461.802, 1863.777
463.139, 1997.811
464.475, 1972.309
465.811, 2428.451
467.147, 2459.650
468.483, 3047.418
469.819, 3454.227
471.154, 4015.166
472.489, 4458.969
473.824, 5181.459
475.159, 5573.557
476.493, 6273.254
477.827, 7424.186
479.161, 8409.156
480.495, 9957.672
481.829, 11090.305
483.162, 12883.633
484.495, 13877.922
485.828, 14200.055
487.161, 14651.607
488.493, 13340.262
489.825, 12230.617
491.157, 12338.000
492.489, 11947.100
493.820, 13080.324
495.151, 14590.438
496.482, 16753.709
497.813, 19833.895
499.144, 23515.721
500.474, 27045.031
501.804, 29116.674
503.134, 30036.209
504.464, 30781.299
505.793, 28760.928
507.123, 26636.600
508.451, 23089.705
509.780, 20820.264
511.109, 18663.100
512.437, 16625.883
513.765, 15167.268
515.093, 13218.766
516.421, 12039.746
517.748, 10511.748
519.075, 9523.732
520.402, 9135.766
521.729, 8938.256
523.055, 9530.781
524.382, 8583.553
525.708, 8186.830
527.034, 8200.082
528.359, 6763.328
529.685, 6106.549
531.010, 5269.811
532.335, 4603.043
533.659, 4096.273
534.984, 3459.492
536.308, 2932.682
537.632, 3045.842
538.956, 2638.973
540.279, 2802.078
541.603, 2435.164
542.926, 2808.229
544.249, 3011.266
545.571, 3404.277
546.894, 3657.268
548.216, 3970.230
549.538, 5153.191
550.860, 5486.129
552.181, 6529.043
553.503, 7001.932
554.824, 7634.799
556.145, 8307.645
557.465, 8270.463
558.786, 7673.262
560.106, 7996.035
561.426, 7008.787
562.746, 6461.514
564.065, 5814.217
565.385, 5026.898
566.704, 4469.557
568.023, 3788.672
569.341, 3134.801
570.660, 2747.387
571.978, 1989.949
573.296, 1922.488
574.614, 1504.488
575.931, 1426.359
577.248, 1217.842
578.565, 990.283
579.882, 992.562
581.199, 574.957
582.515, 847.328
583.831, 579.674
585.147, 781.994
586.463, 704.293
587.779, 906.566
589.094, 818.814
590.409, 891.039
591.724, 1043.236
593.038, 825.410
594.353, 1187.561
595.667, 1309.682
596.981, 1131.779
598.295, 1333.852
599.608, 1065.898
600.922, 1177.922
602.235, 1219.920
603.547, 561.893
604.860, 663.840
606.172, 455.762
607.485, 547.656
608.797, 279.529
610.108, 251.375
611.420, 233.191
612.731, 104.982
614.042, 176.742
615.353, 1.527
616.664, 230.162
617.974, 371.824
619.284, 323.461
620.594, 665.072
621.904, 96.658
623.213, 388.211
624.523, 339.775
625.832, 141.330
627.141, 202.924
628.449, 4.562
629.758, 136.268
631.066, 18.033
632.374, 110.143
633.681, 28.332
634.989, 286.504
636.296, 65.184
637.603, 6.883
638.910, 48.572
640.217, 70.238
641.523, 51.875
642.829, 48.121
644.135, 165.062
645.441, 22.770
646.747, 54.986
648.052, 2.668
649.357, 169.014
650.662, 147.928
651.967, 300.121
653.271, 172.844
654.575, 248.510
655.879, 186.941
657.183, 96.830
658.486, 105.816
659.790, 169.379
661.093, 150.754
662.396, 69.943
663.698, 402.191
665.001, 292.922
666.303, 633.621
667.605, 574.424
668.907, 785.227
670.209, 1129.375
671.510, 1130.344
672.811, 1681.086
674.112, 1667.629
675.413, 2308.754
676.713, 2363.062
678.013, 2697.537
679.313, 3073.426
680.613, 3034.504
681.913, 2958.215
683.212, 2878.732
684.511, 2475.289
685.810, 2495.791
687.109, 2102.730
688.407, 1982.955
689.706, 1798.951
691.004, 1612.617
692.302, 1312.738
693.599, 1192.900
694.897, 1132.949
696.194, 943.303
697.491, 944.502
698.788, 984.590
700.084, 858.682
701.380, 834.379
702.677, 794.223
703.972, 814.031
705.268, 923.805
706.564, 603.545
707.859, 743.250
709.154, 652.920
710.449, 802.627
711.743, 872.230
713.037, 841.797
714.332, 541.332
715.626, 780.832
716.919, 950.299
718.213, 619.732
719.506, 939.129
720.799, 708.496
722.092, 857.824
723.384, 707.123
724.677, 783.998
725.969, 885.623
727.261, 924.822
728.553, 1173.988
729.844, 1203.123
731.136, 1272.227
732.427, 1521.301
733.718, 1400.348
735.008, 1701.582
736.299, 2078.346
737.589, 2137.299
738.879, 2686.215
740.169, 2875.104
741.458, 2803.959
742.748, 2772.785
744.037, 2891.580
745.326, 2460.340
746.614, 2499.070
747.903, 2307.771
749.191, 2036.443
750.479, 2295.082
751.767, 2173.691
753.055, 2482.271
754.342, 2680.820
755.629, 2499.340
756.916, 2907.832
758.203, 3336.291
759.490, 3374.723
760.776, 3673.125
762.062, 3681.498
763.348, 4139.842
764.634, 3698.156
765.919, 3556.350
767.204, 3934.438
768.489, 3471.963
769.774, 3149.762
771.059, 3056.387
772.343, 2754.355
773.627, 2352.473
774.911, 2390.562
776.195, 1708.625
777.479, 1745.934
778.762, 1373.943
780.045, 1511.924
781.328, 1099.344
782.611, 956.992
783.893, 1033.510
785.175, 870.830
786.457, 837.473
787.739, 627.164
789.021, 791.945
790.302, 460.477
791.583, 377.361
792.864, 513.725
794.145, 330.459
795.425, 357.287
796.706, 314.000
797.986, 510.652
799.266, 127.805
800.545, 37.447
801.825, 79.086
803.104, 224.783
804.383, 58.242
805.662, 148.527
806.940, 25.230
808.219, 227.967
809.497, 28.738
810.775, 42.191
812.053, 123.799
813.330, 196.350
814.608, 69.699
815.885, 264.354
817.162, 4.084
818.438, 200.533
819.715, 256.775
820.991, 296.812
822.267, 139.408
823.543, 34.395
824.818, 81.754
826.094, 127.881
827.369, 236.010
828.644, 19.939
829.919, 44.131
831.193, 48.258
832.468, 72.438
833.742, 156.688
835.016, 41.045
836.289, 104.543
837.563, 89.885
838.836, 85.615
840.109, 258.900
841.382, 276.424
842.654, 88.268
843.927, 53.027
845.199, 182.164
846.471, 97.344
847.743, 112.508
849.014, 27.658
850.286, 17.205
851.557, 67.910
852.828, 233.012
854.099, 278.100
855.369, 343.180
856.639, 319.936
857.909, 643.303
859.179, 248.352
860.449, 513.387
861.718, 628.418
862.988, 53.436
864.257, 418.443
865.525, 573.445
866.794, 568.438
868.062, 593.451
869.331, 658.457
870.599, 673.453
871.866, 808.477
873.134, 673.494
874.401, 1258.504
875.668, 793.527
876.935, 1098.543
878.202, 793.590
879.468, 748.629
880.735, 1483.666
882.001, 928.697
883.267, 1343.723
884.532, 1468.746
885.798, 1593.766
887.063, 1938.783
888.328, 1926.105
889.593, 2348.848
890.857, 2113.877
892.122, 2268.904
893.386, 2553.932
894.650, 2458.957
895.913, 2264.027
897.177, 2669.094
898.440, 2374.193
899.703, 2569.295
900.966, 2654.418
902.229, 2569.541
903.491, 2681.846
904.754, 2729.793
906.016, 2664.924
907.278, 2670.057
908.539, 2555.189
909.801, 2940.330
911.062, 2715.473
912.323, 2800.617
913.584, 2945.770
914.844, 2500.926
916.105, 2976.086
917.365, 2441.252
918.625, 2186.428
919.885, 2821.607
921.144, 2576.799
922.404, 2811.996
923.663, 2407.211
924.922, 2662.434
926.180, 3017.664
927.439, 3042.906
928.697, 3418.152
929.955, 3673.414
931.213, 3558.684
932.471, 3943.961
933.728, 3939.248
934.985, 4644.549
936.242, 4509.863
937.499, 4565.191
938.756, 5060.535
940.012, 4815.926
941.269, 4911.342
942.525, 4736.852
943.780, 4582.375
945.036, 4937.916
946.291, 4703.473
947.546, 5009.043
948.801, 5134.641
950.056, 5030.250
951.311, 5015.273
952.565, 5654.713
953.819, 5269.566
955.073, 5645.094
956.327, 5123.398
957.580, 5268.654
958.834, 5022.811
960.087, 5111.273
961.339, 4942.854
962.592, 4823.650
963.845, 4599.623
965.097, 4971.373
966.349, 4736.934
967.601, 5364.564
968.852, 5859.326
970.104, 5275.531
971.355, 6641.758
972.606, 6217.889
973.857, 6464.016
975.107, 6666.787
976.358, 6342.740
977.608, 6718.914
978.858, 6369.293
980.108, 6125.090
981.357, 6187.688
982.607, 5980.119
983.856, 5281.127
985.105, 5726.941
986.353, 4630.119
987.602, 4936.479
988.850, 4436.793
990.098, 4343.156
991.346, 4293.074
992.594, 4089.707
993.841, 4450.559
995.089, 4063.738
996.336, 3900.459
997.583, 4307.135
998.829, 3573.920
1000.076, 4110.396
1001.322, 4206.891
1002.568, 3933.633
1003.814, 4160.545
1005.060, 3437.490
1006.305, 3664.469
1007.550, 3561.484
1008.795, 3408.527
1010.040, 3595.609
1011.285, 3282.727
1012.529, 3089.875
1013.773, 3556.988
1015.017, 3004.207
1016.261, 3481.461
1017.505, 2895.109
1018.748, 2872.434
1019.991, 3189.797
1021.234, 2444.078
1022.477, 2811.512
1023.719, 2738.984
1024.962, 2330.484
1026.204, 2638.027
1027.446, 2143.000
1028.688, 2290.625
1029.929, 2498.289
1031.170, 2245.988
1032.411, 2323.730
1033.652, 2301.508
1034.893, 1959.328
1036.134, 2587.188
1037.374, 1869.102
1038.614, 2357.043
1039.854, 2245.027
1041.094, 2273.055
1042.333, 2501.121
1043.572, 2449.230
1044.811, 2527.219
1046.050, 2585.414
1047.289, 2410.824
1048.527, 2919.109
1049.766, 2581.941
1051.004, 2760.320
1052.241, 2958.742
1053.479, 2237.207
1054.717, 2485.723
1055.954, 2404.281
1057.191, 2462.887
1058.428, 2041.539
1059.664, 2260.242
1060.901, 2098.996
1062.137, 2387.801
1063.373, 2016.652
1064.609, 1985.559
1065.844, 2464.504
1067.080, 1683.496
1068.315, 2142.543
1069.550, 1881.648
1070.785, 2130.801
1072.019, 2110.012
1073.254, 1719.480
1074.488, 1978.723
1075.722, 2077.930
1076.955, 1777.195
1078.189, 2006.457
1079.422, 1785.848
1080.656, 1695.121
1081.889, 1944.441
1083.121, 1423.809
1084.354, 1593.172
1085.586, 1382.586
1086.818, 1302.047
1088.050, 1661.410
1089.282, 1210.695
1090.514, 1030.301
1091.745, 1269.590
1092.976, 1259.160
1094.207, 1188.523
1095.438, 927.926
1096.668, 699.684
1097.899, 1319.148
1099.129, 608.637
1100.359, 648.156
1101.588, 1017.727
1102.818, 307.324
1104.047, 1196.953
1105.276, 656.633
1106.505, 1106.445
1107.734, 846.195
1108.962, 756.055
1110.191, 785.957
1111.419, 825.918
1112.647, 876.465
1113.874, 896.520
1115.102, 696.613
1116.329, 936.820
1117.556, 1200.379
1118.783, 970.664
1120.010, 1351.715
1121.236, 992.125
1122.463, 1182.578
1123.689, 1352.727
1124.914, 1222.711
1126.140, 992.934
1127.366, 1503.656
1128.591, 761.879
1129.816, 1541.953
1131.041, 722.211
1132.266, 552.609
1133.490, 1253.141
1134.714, 713.891
1135.938, 764.789
1137.162, 1255.777
1138.386, 356.840
1139.609, 1037.984
1140.833, 679.207
1142.056, 220.504
1143.279, 1231.879
1144.501, 23.328
1145.724, 834.855
1146.946, 596.426
1148.168, 51.953
1149.390, 749.672
1150.612, 391.348
1151.833, 353.047
1153.054, 694.773
1154.275, 116.582
1155.496, 488.465
1156.717, 500.402
1157.937, 232.395
1159.158, 424.461
1160.378, 506.547
1161.598, 128.617
1162.817, 640.691
1164.037, 167.188
1165.256, 395.004
1166.475, 107.270
1167.694, 170.395
1168.913, 442.012
1170.131, 384.492
1171.349, 112.953
1172.567, 529.668
1173.785, 167.637
1175.003, 495.129
1176.220, 157.961
1177.438, 100.879
1178.655, 363.863
1179.872, 46.934
1181.088, 300.082
1182.305, 343.309
1183.521, 93.371
1184.737, 480.031
1185.953, 203.508
1187.169, 197.062
1188.384, 540.719
1189.599, 224.465
1190.814, 171.691
1192.029, 582.254
1193.244, 123.703
1194.459, 170.430
1195.673, 75.336
1196.887, 88.941
1198.101, 383.309
1199.314, 77.781
1200.528, 82.367
1201.741, 667.078
1202.954, 101.938
1204.167, 306.930
1205.380, 482.047
1206.592, 157.289
1207.805, 632.645
1209.017, 228.125
1210.229, 193.727
1211.440, 657.445
1212.652, 243.254
1213.863, 589.195
1215.074, 635.273
1216.285, 401.480
1217.496, 667.828
1218.707, 104.320
1219.917, 733.898
1221.127, 591.410
1222.337, 287.512
1223.547, 842.258
1224.756, 86.520
1225.966, 542.137
1227.175, 817.836
1228.384, 293.609
1229.592, 476.320
1230.801, 721.855
1232.009, 597.434
1233.217, 517.984
1234.425, 656.172
1235.633, 22.750
1236.841, 905.707
1238.048, 58.469
1239.255, 340.984
1240.462, 773.211
1241.669, 14.906
1242.876, 526.617
1244.082, 397.723
1245.288, 148.270
1246.494, 697.078
1247.700, 377.484
1248.906, 487.980
1250.111, 628.223
1251.316, 128.812
1252.521, 609.453
1253.726, 300.406
1254.931, 241.574
1256.135, 993.812
1257.339, 67.938
1258.543, 269.902
1259.747, 782.520
1260.951, 445.445
1262.154, 21.410
1263.357, 790.641
1264.560, 64.098
1265.763, 548.152
1266.966, 433.199
1268.168, 220.641
1269.371, 776.332
1270.573, 50.359
1271.775, 0.371
1272.976, 0.000
##END=



