##NAMES=Anorthite
##RRUFFID=R050104
##IDEAL CHEMISTRY=CaAl_2_Si_2_O_8_
##LOCALITY=unknown
##OWNER=RRUFF
##SOURCE=Rock Currier
##DESCRIPTION=Iridescent slab, labradorite/andesine
##STATUS=The identification of this mineral has been confirmed by X-ray diffraction and chemical analysis
##URL=rruff.info/R050104
##MEASURED CHEMISTRY=Ca_0.50_Na_0.47_K_0.03_Al_1.50_Si_2.50_O_8_
##PIN_ID=L00084
##ORIENTATION=Laser parallel to -c* (0 0 -1). Fiducial mark perpendicular to laser is parallel to a [1 0 0]
119.119, 0.000
120.508, 172.573
121.897, 217.585
123.286, 318.643
124.675, 11.503
126.063, 89.867
127.452, 72.770
128.840, 127.259
130.228, 153.295
131.615, 31.063
133.003, 261.988
134.390, 343.456
135.777, 581.599
137.164, 703.904
138.550, 901.867
139.937, 1321.997
141.323, 1252.840
142.709, 1843.983
144.094, 1927.063
145.480, 2277.770
146.865, 2660.834
148.250, 2960.027
149.635, 3206.216
151.019, 3528.559
152.403, 4123.207
153.788, 4603.975
155.171, 5333.590
156.555, 6031.819
157.939, 6973.470
159.322, 8369.372
160.705, 9332.381
162.088, 11138.376
163.470, 12518.219
164.853, 14546.822
166.235, 16464.115
167.617, 17910.033
168.998, 20141.535
170.380, 21414.582
171.761, 23623.127
173.142, 24583.143
174.523, 25915.607
175.904, 26577.488
177.284, 26906.791
178.664, 27785.898
180.044, 26897.391
181.424, 27236.135
182.803, 25584.834
184.183, 24807.395
185.562, 23315.895
186.940, 21747.160
188.319, 20350.148
189.698, 18800.871
191.076, 18137.352
192.454, 16830.611
193.831, 15517.665
195.209, 15106.523
196.586, 14059.200
197.963, 13905.699
199.340, 12863.038
200.717, 12971.231
202.093, 12129.262
203.470, 11569.025
204.846, 11327.521
206.221, 10401.776
207.597, 10370.870
208.972, 9198.854
210.347, 8690.771
211.722, 7839.642
213.097, 7001.488
214.472, 6427.329
215.846, 5168.174
217.220, 4880.035
218.594, 3730.923
219.967, 3685.840
221.341, 3130.795
222.714, 2420.788
224.087, 2144.823
225.460, 1813.900
226.832, 1696.023
228.204, 1364.194
229.577, 1376.410
230.948, 1176.673
232.320, 1153.982
233.692, 1366.339
235.063, 1234.486
236.434, 1388.081
237.805, 1346.930
239.175, 1684.719
240.545, 1840.438
241.916, 2018.005
243.286, 2473.077
244.655, 2549.253
246.025, 3139.575
247.394, 3350.619
248.763, 3607.656
250.132, 4092.964
251.501, 4184.908
252.869, 4766.959
254.237, 4754.086
255.605, 5330.284
256.973, 5486.551
258.340, 5781.883
259.708, 6426.282
261.075, 6523.738
262.442, 7323.247
263.808, 7453.796
265.175, 8418.372
266.541, 9087.964
267.907, 9347.565
269.273, 10486.177
270.639, 10880.792
272.004, 12256.415
273.369, 12989.045
274.734, 13784.680
276.099, 15024.328
277.463, 15627.005
278.828, 17230.713
280.192, 17013.486
281.556, 18243.389
282.919, 18366.430
284.283, 18609.041
285.646, 19133.182
287.009, 17839.855
288.372, 18378.713
289.734, 16517.719
291.097, 15995.959
292.459, 15074.155
293.821, 13342.513
295.183, 12970.318
296.544, 11024.254
297.905, 10119.851
299.266, 9057.785
300.627, 7918.061
301.988, 7225.609
303.348, 6137.471
304.709, 5922.590
306.069, 4961.922
307.428, 4513.484
308.788, 4087.226
310.147, 3437.160
311.507, 3369.252
312.865, 2813.488
314.224, 2765.861
315.583, 2469.354
316.941, 2175.961
318.299, 2182.665
319.657, 1611.460
321.015, 1639.351
322.372, 1368.312
323.729, 1334.343
325.086, 1092.434
326.443, 1025.580
327.800, 1214.779
329.156, 797.022
330.512, 1065.312
331.868, 952.640
333.224, 810.005
334.579, 915.401
335.935, 589.828
337.290, 900.284
338.645, 347.764
339.999, 453.266
341.354, 328.792
342.708, 414.331
344.062, 449.884
345.416, 56.429
346.769, 350.950
348.123, 8.445
349.476, 57.899
350.829, 232.330
352.182, 61.274
353.534, 178.063
354.887, 186.631
356.239, 47.416
357.591, 289.743
358.942, 442.128
360.294, 176.157
361.645, 546.276
362.996, 217.580
364.347, 389.985
365.698, 339.537
367.048, 292.222
368.398, 446.025
369.748, 171.988
371.098, 465.039
372.448, 97.255
373.797, 305.539
375.146, 334.947
376.495, 56.488
377.844, 336.089
379.192, 168.177
380.540, 24.415
381.889, 36.611
383.236, 402.771
384.584, 298.902
385.932, 715.008
387.279, 411.085
388.626, 504.134
389.973, 981.156
391.319, 695.149
392.666, 1252.112
394.012, 883.045
395.358, 1443.949
396.704, 1233.820
398.049, 1142.654
399.394, 1503.421
400.740, 1251.077
402.084, 1694.671
403.429, 1280.982
404.774, 1470.963
406.118, 1459.624
407.462, 1101.969
408.806, 1558.034
410.150, 1292.897
411.493, 1469.568
412.836, 1205.085
414.179, 1114.559
415.522, 1077.016
416.865, 835.457
418.207, 1231.887
419.549, 794.299
420.891, 1073.697
422.233, 1028.078
423.575, 1006.441
424.916, 1311.787
426.257, 1133.115
427.598, 1313.881
428.939, 1521.330
430.279, 1295.324
431.619, 1688.660
432.959, 1665.361
434.299, 2045.625
435.639, 2063.762
436.978, 2265.434
438.318, 2640.520
439.657, 2411.355
440.996, 2806.441
442.334, 2684.324
443.673, 2711.330
445.011, 2945.250
446.349, 2526.301
447.687, 2994.869
449.024, 2419.113
450.361, 2669.135
451.699, 2677.795
453.036, 2417.084
454.372, 2930.477
455.709, 2763.682
457.045, 3099.611
458.381, 3206.143
459.717, 3341.090
461.053, 4002.729
462.388, 3811.771
463.724, 4907.799
465.059, 5350.584
466.394, 6319.307
467.728, 7625.992
469.063, 8151.441
470.397, 9964.656
471.731, 11154.859
473.065, 12672.898
474.398, 14606.957
475.732, 15502.848
477.065, 17109.643
478.398, 17555.562
479.731, 18188.506
481.063, 17462.188
482.396, 17367.412
483.728, 16464.295
485.060, 14717.674
486.391, 14420.797
487.723, 12773.650
489.054, 12227.391
490.385, 12234.094
491.716, 11691.717
493.047, 13020.988
494.377, 14239.820
495.708, 15899.254
497.038, 18136.613
498.368, 20440.918
499.697, 24245.703
501.027, 26856.988
502.356, 30870.105
503.685, 33793.441
505.014, 35694.418
506.342, 38922.344
507.671, 38219.930
508.999, 39680.266
510.327, 38636.395
511.655, 36940.059
512.982, 35197.238
514.310, 30734.768
515.637, 27913.598
516.964, 24096.939
518.291, 21719.277
519.617, 18425.393
520.944, 15387.996
522.270, 14348.141
523.596, 11768.703
524.921, 10241.227
526.247, 9168.738
527.572, 7566.006
528.897, 6717.422
530.222, 5750.891
531.547, 4854.770
532.871, 4576.564
534.196, 3705.105
535.520, 3802.613
536.844, 2988.480
538.167, 3185.627
539.491, 2801.109
540.814, 2657.531
542.137, 2798.420
543.460, 2224.092
544.783, 2958.713
546.105, 2564.281
547.427, 2446.795
548.749, 2824.256
550.071, 2487.736
551.393, 2833.176
552.714, 2687.562
554.035, 2461.998
555.356, 3014.379
556.677, 2364.705
557.998, 3086.031
559.318, 3047.301
560.638, 3097.584
561.958, 3686.809
563.278, 3540.064
564.597, 4071.268
565.917, 4020.416
567.236, 3749.578
568.555, 3738.688
569.874, 3306.762
571.192, 3376.828
572.511, 2671.848
573.829, 2258.816
575.147, 2130.740
576.464, 1397.611
577.782, 1568.436
579.099, 1012.209
580.416, 1074.932
581.733, 922.604
583.050, 784.227
584.366, 581.799
585.683, 370.320
586.999, 442.783
588.315, 309.195
589.630, 89.545
590.946, 372.826
592.261, 94.049
593.576, 103.201
594.891, 66.281
596.206, 29.715
597.520, 322.170
598.834, 237.008
600.148, 121.586
601.462, 44.889
602.776, 123.494
604.089, 101.732
605.402, 86.113
606.715, 85.891
608.028, 173.182
609.341, 167.451
610.653, 183.082
611.965, 243.449
613.277, 84.785
614.589, 30.061
615.901, 62.975
617.212, 43.926
618.523, 91.207
619.834, 195.504
621.145, 146.852
622.456, 48.391
623.766, 242.938
625.076, 64.801
626.386, 285.322
627.696, 27.621
629.006, 129.316
630.315, 142.180
631.624, 132.973
632.933, 355.695
634.242, 150.352
635.551, 322.941
636.859, 301.463
638.167, 20.924
639.475, 445.293
640.783, 275.602
642.090, 379.844
643.398, 427.027
644.705, 236.148
646.012, 617.205
647.318, 242.207
648.625, 485.143
649.931, 315.020
651.237, 403.836
652.543, 511.590
653.849, 245.291
655.155, 562.926
656.460, 351.506
657.765, 214.023
659.070, 580.477
660.375, 170.875
661.679, 512.205
662.984, 514.482
664.288, 297.703
665.592, 654.861
666.895, 42.318
668.199, 638.350
669.502, 492.270
670.805, 631.059
672.108, 803.988
673.411, 484.254
674.713, 822.906
676.016, 912.627
677.318, 629.699
678.620, 1136.793
679.921, 653.141
681.223, 784.281
682.524, 1144.551
683.825, 733.268
685.126, 1275.842
686.427, 1015.689
687.727, 1011.100
689.028, 1072.930
690.328, 654.230
691.628, 1061.357
692.927, 704.869
694.227, 1155.445
695.526, 849.711
696.825, 771.955
698.124, 1043.928
699.423, 644.336
700.721, 1056.635
702.020, 854.803
703.318, 656.117
704.616, 946.408
705.913, 972.807
707.211, 1065.199
708.508, 1102.072
709.805, 734.670
711.102, 1214.906
712.399, 1168.395
713.695, 793.088
714.992, 1419.660
716.288, 904.955
717.584, 1422.402
718.879, 851.322
720.175, 1372.150
721.470, 1200.676
722.765, 870.355
724.060, 1503.488
725.355, 1052.828
726.649, 1196.363
727.944, 1572.531
729.238, 1153.760
730.532, 1942.395
731.825, 1469.146
733.119, 1317.281
734.412, 1977.902
735.705, 1725.986
736.998, 1746.482
738.291, 1881.916
739.584, 1984.027
740.876, 2132.336
742.168, 2065.119
743.460, 2270.229
744.752, 2240.621
746.043, 2117.789
747.334, 2154.311
748.626, 2087.189
749.916, 2402.113
751.207, 2114.418
752.498, 2101.223
753.788, 2492.203
755.078, 2052.844
756.368, 2318.605
757.658, 2236.164
758.947, 2384.723
760.237, 2467.080
761.526, 1994.855
762.815, 2820.893
764.104, 2534.084
765.392, 2307.584
766.680, 2929.375
767.969, 2364.004
769.257, 2755.750
770.544, 2719.686
771.832, 2440.943
773.119, 3083.703
774.406, 2435.686
775.693, 2675.176
776.980, 2518.598
778.267, 2390.168
779.553, 2807.717
780.839, 2256.207
782.125, 2394.844
783.411, 2277.619
784.697, 2155.316
785.982, 2321.080
787.267, 2202.730
788.552, 2348.451
789.837, 2630.172
791.122, 2393.674
792.406, 2532.047
793.690, 2633.588
794.974, 2794.484
796.258, 2333.631
797.542, 2200.176
798.825, 2175.879
800.108, 2011.748
801.391, 1680.637
802.674, 1808.457
803.957, 1198.256
805.239, 1441.311
806.522, 1195.701
807.804, 948.391
809.085, 1193.047
810.367, 846.658
811.649, 901.691
812.930, 992.115
814.211, 795.613
815.492, 978.793
816.772, 745.938
818.053, 485.605
819.333, 466.219
820.613, 282.533
821.893, 368.326
823.173, 135.566
824.452, 156.766
825.732, 346.920
827.011, 54.037
828.290, 163.109
829.568, 43.861
830.847, 48.920
832.125, 295.928
833.403, 10.738
834.681, 70.486
835.959, 67.809
837.236, 191.793
838.514, 30.354
839.791, 172.137
841.068, 287.219
842.345, 60.465
843.621, 10.754
844.898, 135.914
846.174, 199.969
847.450, 4.977
848.726, 6.137
850.001, 55.316
851.277, 154.410
852.552, 379.902
853.827, 45.521
855.102, 368.900
856.376, 23.244
857.651, 234.541
858.925, 246.197
860.199, 25.123
861.473, 286.885
862.746, 367.146
864.020, 160.580
865.293, 81.266
866.566, 184.084
867.839, 393.418
869.112, 230.113
870.384, 340.186
871.656, 292.543
872.928, 128.527
874.200, 182.561
875.472, 216.436
876.744, 525.410
878.015, 40.773
879.286, 142.018
880.557, 171.623
881.828, 137.236
883.098, 20.818
884.369, 303.367
885.639, 101.887
886.909, 330.381
888.178, 74.850
889.448, 228.285
890.717, 348.699
891.987, 10.090
893.256, 408.447
894.524, 264.783
895.793, 154.098
897.061, 531.389
898.330, 119.664
899.598, 408.938
900.865, 862.195
902.133, 344.439
903.401, 767.676
904.668, 278.902
905.935, 703.145
907.202, 852.371
908.468, 608.670
909.735, 732.002
911.001, 856.355
912.267, 794.750
913.533, 1194.137
914.799, 757.559
916.064, 1074.977
917.330, 902.449
918.595, 911.977
919.860, 1033.496
921.124, 894.096
922.389, 1022.691
923.653, 1114.307
924.918, 857.924
926.182, 1130.545
927.445, 956.207
928.709, 888.865
929.972, 1042.576
931.236, 1027.316
932.499, 1286.055
933.761, 1203.826
935.024, 963.594
936.286, 1370.387
937.549, 1067.182
938.811, 1342.979
940.073, 1111.777
941.334, 1179.570
942.596, 1492.371
943.857, 1389.166
945.118, 1506.965
946.379, 1845.775
947.640, 1655.217
948.900, 1728.398
950.161, 1645.211
951.421, 1698.023
952.681, 1999.842
953.940, 1816.691
955.200, 2032.545
956.459, 2066.402
957.719, 2052.271
958.978, 2672.145
960.236, 2096.021
961.495, 2586.908
962.753, 2414.795
964.012, 2824.686
965.270, 3161.582
966.527, 2756.475
967.785, 3089.365
969.043, 3150.246
970.300, 3121.117
971.557, 3306.980
972.814, 3484.488
974.071, 3628.348
975.327, 3579.256
976.583, 3689.258
977.840, 3811.053
979.095, 4009.514
980.351, 3459.549
981.607, 4110.455
982.862, 3760.086
984.117, 3487.693
985.372, 3877.146
986.627, 3192.822
987.882, 3727.434
989.136, 3362.645
990.390, 3189.043
991.644, 3568.250
992.898, 2686.902
994.152, 3349.229
995.405, 2976.078
996.659, 2884.154
997.912, 3133.906
999.165, 2861.588
1000.417, 3076.637
1001.670, 2973.672
1002.922, 2853.949
1004.174, 2779.760
1005.426, 2877.637
1006.678, 2520.602
1007.930, 2874.385
1009.181, 2528.146
1010.432, 2617.762
1011.683, 2691.344
1012.934, 2496.402
1014.185, 2822.705
1015.435, 2728.328
1016.685, 2461.658
1017.935, 2789.748
1019.185, 2569.924
1020.435, 2693.338
1021.684, 2753.566
1022.934, 2501.285
1024.183, 2663.059
1025.432, 2786.104
1026.680, 2348.959
1027.929, 2589.328
1029.177, 2372.455
1030.425, 2739.359
1031.673, 2376.594
1032.921, 2253.738
1034.169, 2556.445
1035.416, 2587.008
1036.663, 2393.158
1037.911, 2676.789
1039.157, 2275.928
1040.404, 2721.625
1041.650, 2385.359
1042.897, 2456.385
1044.143, 2558.189
1045.389, 2540.037
1046.634, 2506.832
1047.880, 2424.758
1049.125, 2440.789
1050.371, 2263.797
1051.615, 2749.852
1052.860, 2908.951
1054.105, 2610.094
1055.349, 2106.283
1056.593, 2757.521
1057.837, 2421.811
1059.081, 2535.654
1060.325, 2640.041
1061.568, 2263.480
1062.812, 2921.969
1064.055, 2576.514
1065.298, 2473.109
1066.540, 2435.764
1067.783, 2755.471
1069.025, 2702.236
1070.267, 2946.062
1071.509, 2512.945
1072.751, 2894.887
1073.993, 2776.893
1075.234, 2733.961
1076.475, 3087.092
1077.716, 2558.293
1078.957, 2857.561
1080.198, 2812.900
1081.438, 2352.311
1082.679, 2831.730
1083.919, 2843.225
1085.159, 2638.793
1086.398, 2614.441
1087.638, 2481.924
1088.877, 2605.482
1090.116, 2838.109
1091.355, 2813.812
1092.594, 2664.592
1093.833, 2627.445
1095.071, 2337.379
1096.309, 2441.393
1097.547, 2312.484
1098.785, 2065.656
1100.023, 2056.914
1101.260, 2038.258
1102.498, 2336.768
1103.735, 2106.332
1104.972, 2032.018
1106.208, 2050.971
1107.445, 1785.922
1108.681, 1973.029
1109.918, 2152.744
1111.154, 1851.004
1112.389, 1956.119
1113.625, 1746.689
1114.860, 1678.182
1116.096, 1755.967
1117.331, 1397.768
1118.566, 1479.588
1119.800, 1586.438
1121.035, 1481.311
1122.269, 1478.012
1123.503, 1467.244
1124.737, 1317.340
1125.971, 1323.520
1127.205, 1280.770
1128.438, 1002.193
1129.671, 1098.727
1130.904, 927.385
1132.137, 1242.195
1133.370, 704.127
1134.602, 1007.365
1135.834, 897.658
1137.066, 1163.096
1138.298, 458.709
1139.530, 746.633
1140.762, 1083.691
1141.993, 428.969
1143.224, 1129.496
1144.455, 859.199
1145.686, 724.141
1146.917, 862.246
1148.147, 959.492
1149.377, 966.828
1150.607, 647.250
1151.837, 660.758
1153.067, 975.352
1154.296, 505.035
1155.526, 776.805
1156.755, 524.617
1157.984, 1023.520
1159.213, 550.500
1160.441, 658.570
1161.670, 607.590
1162.898, 711.691
1164.126, 576.875
1165.354, 776.141
1166.581, 261.488
1167.809, 746.918
1169.036, 448.430
1170.263, 550.020
1171.490, 545.691
1172.717, 500.445
1173.943, 780.273
1175.170, 707.184
1176.396, 341.176
1177.622, 474.250
1178.848, 513.406
1180.073, 426.645
1181.299, 500.953
1182.524, 341.285
1183.749, 212.621
1184.974, 716.000
1186.199, 181.434
1187.423, 302.949
1188.648, 505.562
1189.872, 27.348
1191.096, 590.340
1192.320, 110.531
1193.543, 50.938
1194.767, 634.562
1195.990, 140.598
1197.213, 123.469
1198.436, 142.754
1199.659, 193.254
1200.881, 555.977
1202.104, 195.906
1203.326, 118.047
1204.548, 367.379
1205.770, 259.094
1206.991, 203.641
1208.213, 188.574
1209.434, 290.719
1210.655, 472.086
1211.876, 161.672
1213.096, 251.504
1214.317, 416.578
1215.537, 245.914
1216.757, 313.516
1217.977, 405.398
1219.197, 155.578
1220.417, 539.066
1221.636, 591.887
1222.855, 87.055
1224.074, 269.605
1225.293, 318.566
1226.512, 415.965
1227.731, 325.809
1228.949, 543.410
1230.167, 733.621
1231.385, 181.273
1232.603, 210.395
1233.820, 361.195
1235.038, 651.719
1236.255, 263.531
1237.472, 447.621
1238.689, 212.977
1239.906, 257.582
1241.122, 570.395
1242.338, 159.355
1243.555, 464.398
1244.771, 478.391
1245.986, 126.465
1247.202, 1011.414
1248.417, 70.316
1249.633, 644.047
1250.848, 696.727
1252.063, 82.086
1253.277, 737.805
1254.492, 665.812
1255.706, 85.605
1256.920, 675.227
1258.134, 122.176
1259.348, 158.734
1260.562, 0.000
##END=



