##NAMES=Anorthite
##RRUFFID=R050104
##IDEAL CHEMISTRY=CaAl_2_Si_2_O_8_
##LOCALITY=unknown
##OWNER=RRUFF
##SOURCE=Rock Currier
##DESCRIPTION=Iridescent slab, labradorite/andesine
##STATUS=The identification of this mineral has been confirmed by X-ray diffraction and chemical analysis
##URL=rruff.info/R050104
##MEASURED CHEMISTRY=Ca_0.50_Na_0.47_K_0.03_Al_1.50_Si_2.50_O_8_
##PIN_ID=L00369
##ORIENTATION=Laser parallel to (0 1 1). Fiducial mark perpendicular to laser is parallel to a [1 0 0]
123.286, 0.000
124.675, 34.235
126.063, 173.238
127.452, 14.792
128.840, 123.258
130.228, 42.338
131.615, 67.144
133.003, 47.713
134.390, 66.852
135.777, 408.840
137.164, 668.709
138.550, 912.877
139.937, 1166.226
141.323, 1318.934
142.709, 1974.201
144.094, 2109.280
145.480, 2839.494
146.865, 3266.237
148.250, 3835.989
149.635, 4190.304
151.019, 4677.797
152.403, 5335.154
153.788, 5897.336
155.171, 6997.633
156.555, 7447.076
157.939, 8382.301
159.322, 9811.920
160.705, 10889.625
162.088, 12492.146
163.470, 13809.263
164.853, 16008.777
166.235, 17712.514
167.617, 19184.316
168.998, 21463.064
170.380, 22689.656
171.761, 24949.029
173.142, 26392.113
174.523, 27837.859
175.904, 28506.211
177.284, 29177.135
178.664, 30166.592
180.044, 29562.578
181.424, 30052.113
182.803, 28874.072
184.183, 27783.941
185.562, 26291.480
186.940, 24610.266
188.319, 22921.783
189.698, 21227.166
191.076, 19885.684
192.454, 18506.484
193.831, 17466.486
195.209, 16496.086
196.586, 15715.322
197.963, 15022.198
199.340, 13789.739
200.717, 13514.966
202.093, 12755.891
203.470, 12482.534
204.846, 11700.915
206.221, 10746.012
207.597, 10628.668
208.972, 9300.917
210.347, 8839.883
211.722, 7961.637
213.097, 7234.238
214.472, 6300.728
215.846, 5205.139
217.220, 4879.493
218.594, 3754.812
219.967, 3248.110
221.341, 2494.400
222.714, 2164.693
224.087, 1891.993
225.460, 1448.310
226.832, 1360.644
228.204, 903.000
229.577, 916.380
230.948, 700.786
232.320, 618.217
233.692, 913.674
235.063, 951.510
236.434, 893.787
237.805, 836.305
239.175, 1338.810
240.545, 1346.178
241.916, 1652.818
243.286, 2049.551
244.655, 2228.721
246.025, 2812.552
247.394, 3179.848
248.763, 3429.024
250.132, 3875.074
251.501, 4119.770
252.869, 4654.617
254.237, 4697.732
255.605, 5372.250
256.973, 5596.147
258.340, 5825.113
259.708, 6467.146
261.075, 6820.240
262.442, 7463.390
263.808, 7684.592
265.175, 8512.835
266.541, 9163.106
267.907, 9579.392
269.273, 10805.665
270.639, 11254.926
272.004, 12427.165
273.369, 13407.383
274.734, 14466.579
276.099, 15647.751
277.463, 16374.914
278.828, 17767.068
280.192, 18067.230
281.556, 19381.439
282.919, 19463.691
284.283, 20186.084
285.646, 20544.594
287.009, 19524.129
288.372, 19620.248
289.734, 18125.041
291.097, 17823.408
292.459, 16422.027
293.821, 14801.404
295.183, 14769.632
296.544, 13343.710
297.905, 11040.438
299.266, 9579.758
300.627, 8730.685
301.988, 7847.076
303.348, 6572.947
304.709, 6294.195
306.069, 5364.785
307.428, 4973.686
308.788, 4488.863
310.147, 3745.297
311.507, 3664.957
312.865, 3031.831
314.224, 2981.897
315.583, 2546.135
316.941, 2305.534
318.299, 2260.077
319.657, 1681.746
321.015, 1710.529
322.372, 1281.407
323.729, 1403.375
325.086, 1114.416
326.443, 746.523
327.800, 1042.687
329.156, 751.897
330.512, 881.164
331.868, 719.466
333.224, 744.803
334.579, 910.168
335.935, 595.555
337.290, 852.968
338.645, 323.396
339.999, 569.838
341.354, 470.290
342.708, 515.746
344.062, 268.208
345.416, 98.667
346.769, 399.112
348.123, 49.529
349.476, 574.893
350.829, 281.985
352.182, 49.426
353.534, 60.576
354.887, 300.350
356.239, 135.450
357.591, 143.680
358.942, 408.039
360.294, 445.599
361.645, 446.367
362.996, 296.348
364.347, 350.498
365.698, 396.832
367.048, 405.364
368.398, 494.097
369.748, 322.052
371.098, 545.183
372.448, 205.548
373.797, 281.059
375.146, 340.734
376.495, 146.590
377.844, 314.577
379.192, 57.263
380.540, 54.022
381.889, 69.704
383.236, 106.307
384.584, 292.839
385.932, 621.311
387.279, 468.725
388.626, 764.084
389.973, 965.384
391.319, 834.627
392.666, 1307.812
394.012, 1171.938
395.358, 1594.005
396.704, 1198.012
398.049, 1498.956
399.394, 1651.834
400.740, 1441.651
402.084, 1959.387
403.429, 1596.840
404.774, 1769.965
406.118, 1742.642
407.462, 1778.960
408.806, 1822.866
410.150, 1763.360
411.493, 1942.468
412.836, 1638.232
414.179, 1480.715
415.522, 1568.104
416.865, 1239.412
418.207, 1375.682
419.549, 1129.914
420.891, 1328.112
422.233, 1313.274
423.575, 1375.398
424.916, 1529.484
426.257, 1556.531
427.598, 1650.547
428.939, 1678.941
430.279, 1773.623
431.619, 1992.240
432.959, 2007.990
434.299, 2458.654
435.639, 2259.016
436.978, 2816.133
438.318, 3054.609
439.657, 2936.592
440.996, 3411.463
442.334, 3290.617
443.673, 3431.828
445.011, 3676.891
446.349, 3199.334
447.687, 3640.334
449.024, 3227.803
450.361, 3385.439
451.699, 3211.244
453.036, 3234.109
454.372, 3637.936
455.709, 3227.486
457.045, 3819.723
458.381, 3750.051
459.717, 4100.068
461.053, 4680.961
462.388, 4730.273
463.724, 5780.736
465.059, 6227.641
466.394, 7345.605
467.728, 8535.660
469.063, 9344.520
470.397, 10997.561
471.731, 12301.010
473.065, 14537.371
474.398, 16474.447
475.732, 17843.473
477.065, 19666.551
478.398, 20251.334
479.731, 21332.018
481.063, 20368.174
482.396, 21053.996
483.728, 19515.498
485.060, 17649.330
486.391, 16818.801
487.723, 15425.730
489.054, 14563.223
490.385, 14255.691
491.716, 13511.867
493.047, 14707.387
494.377, 15469.082
495.708, 17523.561
497.038, 19836.342
498.368, 22603.371
499.697, 26937.791
501.027, 29919.520
502.356, 34664.031
503.685, 37599.875
505.014, 40550.453
506.342, 43729.250
507.671, 43796.586
508.999, 45454.105
510.327, 44247.461
511.655, 42644.234
512.982, 40581.250
514.310, 36042.164
515.637, 33121.133
516.964, 28770.115
518.291, 25706.250
519.617, 21953.510
520.944, 18827.094
522.270, 17178.311
523.596, 14066.637
524.921, 12549.258
526.247, 11014.676
527.572, 9538.262
528.897, 8317.002
530.222, 7085.309
531.547, 6003.332
532.871, 5636.477
534.196, 4595.629
535.520, 4529.811
536.844, 3589.941
538.167, 3744.311
539.491, 3176.467
540.814, 3156.234
542.137, 3166.502
543.460, 2686.025
544.783, 3113.592
546.105, 2771.682
547.427, 2807.699
548.749, 2867.643
550.071, 2683.615
551.393, 2992.537
552.714, 2655.387
554.035, 2511.201
555.356, 2876.941
556.677, 2590.648
557.998, 2991.320
559.318, 2806.918
560.638, 3144.492
561.958, 3516.990
563.278, 3549.484
564.597, 3965.906
565.917, 3743.262
567.236, 3759.586
568.555, 3769.838
569.874, 3264.068
571.192, 3248.248
572.511, 2639.367
573.829, 2291.420
575.147, 2027.412
576.464, 1471.338
577.782, 1412.201
579.099, 1035.000
580.416, 954.732
581.733, 721.396
583.050, 835.994
584.366, 612.529
585.683, 351.992
586.999, 491.385
588.315, 187.701
589.630, 190.938
590.946, 380.088
592.261, 176.160
593.576, 215.148
594.891, 76.943
596.206, 84.799
597.520, 276.447
598.834, 170.984
600.148, 98.369
601.462, 130.369
602.776, 43.701
604.089, 156.666
605.402, 34.455
606.715, 62.281
608.028, 110.080
609.341, 44.379
610.653, 83.266
611.965, 147.080
613.277, 113.906
614.589, 283.197
615.901, 18.424
617.212, 24.938
618.523, 281.664
619.834, 44.465
621.145, 166.508
622.456, 139.312
623.766, 123.043
625.076, 39.682
626.386, 288.219
627.696, 89.676
629.006, 347.037
630.315, 54.318
631.624, 168.504
632.933, 387.602
634.242, 145.625
635.551, 405.559
636.859, 407.418
638.167, 273.199
639.475, 570.898
640.783, 156.529
642.090, 524.076
643.398, 348.549
644.705, 454.945
646.012, 536.266
647.318, 25.520
648.625, 582.674
649.931, 221.758
651.237, 394.762
652.543, 422.693
653.849, 119.553
655.155, 483.326
656.460, 366.029
657.765, 266.658
659.070, 535.209
660.375, 191.693
661.679, 469.098
662.984, 332.838
664.288, 239.102
665.592, 520.121
666.895, 185.504
668.199, 621.338
669.502, 284.236
670.805, 669.807
672.108, 742.156
673.411, 623.330
674.713, 913.301
676.016, 824.312
677.318, 755.709
678.620, 949.625
679.921, 848.424
681.223, 1080.865
682.524, 1029.471
683.825, 1001.748
685.126, 1245.803
686.427, 1033.340
687.727, 1131.576
689.028, 1039.375
690.328, 893.061
691.628, 1120.994
692.927, 820.463
694.227, 1145.203
695.526, 860.957
696.825, 1006.850
698.124, 1016.078
699.423, 980.709
700.721, 1210.143
702.020, 918.188
703.318, 856.340
704.616, 961.871
705.913, 1087.332
707.211, 1401.959
708.508, 1224.400
709.805, 913.895
711.102, 1433.652
712.399, 1344.838
713.695, 1179.656
714.992, 1552.264
716.288, 1293.309
717.584, 1572.869
718.879, 1156.477
720.175, 1639.758
721.470, 1440.596
722.765, 1415.217
724.060, 1820.574
725.355, 1371.535
726.649, 1631.074
727.944, 1760.549
729.238, 1344.383
730.532, 2076.373
731.825, 1732.746
733.119, 1683.258
734.412, 2082.346
735.705, 2045.361
736.998, 2189.994
738.291, 2151.850
739.584, 2458.826
740.876, 2444.244
742.168, 2555.992
743.460, 2721.840
744.752, 2524.295
746.043, 2629.699
747.334, 2557.865
748.626, 2579.000
749.916, 2856.332
751.207, 2474.793
752.498, 2582.787
753.788, 2666.160
755.078, 2450.539
756.368, 2754.521
757.658, 2405.338
758.947, 2868.189
760.237, 2837.553
761.526, 2863.271
762.815, 3058.107
764.104, 3087.203
765.392, 3014.805
766.680, 3357.262
767.969, 2930.674
769.257, 3293.266
770.544, 3050.068
771.832, 3032.680
773.119, 3419.492
774.406, 2889.322
775.693, 3190.609
776.980, 2733.637
778.267, 2808.098
779.553, 2958.383
780.839, 2545.451
782.125, 2544.596
783.411, 2464.430
784.697, 2629.729
785.982, 2684.990
787.267, 2737.711
788.552, 2798.740
789.837, 2839.895
791.122, 2702.211
792.406, 2610.496
793.690, 2678.174
794.974, 2693.055
796.258, 2602.504
797.542, 2641.717
798.825, 2457.541
800.108, 2258.770
801.391, 2191.299
802.674, 1987.715
803.957, 1484.289
805.239, 1604.383
806.522, 1392.160
807.804, 1149.016
809.085, 1348.432
810.367, 956.463
811.649, 823.967
812.930, 682.020
814.211, 551.416
815.492, 892.818
816.772, 355.607
818.053, 541.783
819.333, 249.533
820.613, 385.418
821.893, 256.865
823.173, 224.756
824.452, 285.529
825.732, 83.322
827.011, 132.061
828.290, 176.744
829.568, 143.623
830.847, 87.859
832.125, 219.289
833.403, 50.666
834.681, 118.988
835.959, 91.254
837.236, 184.465
838.514, 3.625
839.791, 146.289
841.068, 241.645
842.345, 228.477
843.621, 3.787
844.898, 103.178
846.174, 31.693
847.450, 68.303
848.726, 148.021
850.001, 130.107
851.277, 14.820
852.552, 213.828
853.827, 198.980
855.102, 112.262
856.376, 20.363
857.651, 119.926
858.925, 347.561
860.199, 65.301
861.473, 82.857
862.746, 115.037
864.020, 207.939
865.293, 130.131
866.566, 126.332
867.839, 183.334
869.112, 166.045
870.384, 154.424
871.656, 243.150
872.928, 181.084
874.200, 27.273
875.472, 138.586
876.744, 340.424
878.015, 148.604
879.286, 32.762
880.557, 11.004
881.828, 143.723
883.098, 84.396
884.369, 212.029
885.639, 157.621
886.909, 238.174
888.178, 234.688
889.448, 534.166
890.717, 231.609
891.987, 182.021
893.256, 749.393
894.524, 193.732
895.793, 661.041
897.061, 562.350
898.330, 467.633
899.598, 683.895
900.865, 785.156
902.133, 560.395
903.401, 972.613
904.668, 618.854
905.935, 957.074
907.202, 1010.277
908.468, 918.525
909.735, 1077.762
911.001, 970.049
912.267, 1326.324
913.533, 1275.586
914.799, 1028.861
916.064, 1181.129
917.330, 1092.428
918.595, 1404.721
919.860, 1248.043
921.124, 1294.406
922.389, 1434.762
923.653, 1107.199
924.918, 1371.637
926.182, 1254.074
927.445, 1287.590
928.709, 1555.105
929.972, 1158.670
931.236, 1520.230
932.499, 1417.785
933.761, 1455.338
935.024, 1473.879
936.286, 1634.414
937.549, 1572.939
938.811, 1778.459
940.073, 1346.977
941.334, 1552.486
942.596, 1634.990
943.857, 1708.482
945.118, 1834.967
946.379, 1908.443
947.640, 1843.908
948.900, 2022.367
950.161, 1932.807
951.421, 2282.225
952.681, 2171.627
953.940, 2182.004
955.200, 2421.373
956.459, 2439.721
957.719, 2716.051
958.978, 2644.363
960.236, 2583.660
961.495, 3472.939
962.753, 2500.199
964.012, 3458.445
965.270, 3504.674
966.527, 3054.883
967.785, 3869.078
969.043, 3629.850
970.300, 3950.012
971.557, 4002.328
972.814, 4187.205
974.071, 4344.377
975.327, 4417.787
976.583, 4573.172
977.840, 4617.766
979.095, 4656.557
980.351, 4781.160
981.607, 4769.453
982.862, 4680.055
984.117, 4561.203
985.372, 4282.539
986.627, 4333.277
987.882, 4343.898
989.136, 4110.914
990.390, 4229.225
991.644, 4183.152
992.898, 3642.430
994.152, 3966.258
995.405, 3502.227
996.659, 3854.990
997.912, 3712.279
999.165, 3708.316
1000.417, 3791.391
1001.670, 3318.293
1002.922, 3620.820
1004.174, 3526.910
1005.426, 3399.152
1006.678, 3477.725
1007.930, 3159.131
1009.181, 3241.104
1010.432, 3243.084
1011.683, 3307.844
1012.934, 3334.629
1014.185, 3230.506
1015.435, 3348.967
1016.685, 3315.939
1017.935, 3255.348
1019.185, 3459.666
1020.435, 3252.619
1021.684, 3236.998
1022.934, 3361.277
1024.183, 2933.832
1025.432, 3467.775
1026.680, 3117.887
1027.929, 2990.207
1029.177, 3223.879
1030.425, 3334.920
1031.673, 2987.980
1032.921, 3160.635
1034.169, 2727.154
1035.416, 3415.180
1036.663, 2889.021
1037.911, 3225.244
1039.157, 3289.500
1040.404, 3098.100
1041.650, 3223.436
1042.897, 3163.615
1044.143, 3169.320
1045.389, 3220.650
1046.634, 2934.107
1047.880, 2928.924
1049.125, 3284.777
1050.371, 2667.354
1051.615, 3189.287
1052.860, 3072.266
1054.105, 2946.283
1055.349, 3028.346
1056.593, 3023.455
1057.837, 2933.609
1059.081, 3273.811
1060.325, 2817.406
1061.568, 2943.707
1062.812, 3345.061
1064.055, 2923.465
1065.298, 3288.922
1066.540, 2940.439
1067.783, 3334.010
1069.025, 3461.641
1070.267, 3370.449
1071.509, 3514.207
1072.751, 3330.027
1073.993, 3421.766
1075.234, 3716.414
1076.475, 3430.123
1077.716, 3486.879
1078.957, 3522.689
1080.198, 3486.549
1081.438, 3252.529
1082.679, 3274.371
1083.919, 3404.332
1085.159, 3625.246
1086.398, 3055.188
1087.638, 3339.289
1088.877, 3121.322
1090.116, 3091.908
1091.355, 3639.945
1092.594, 2797.018
1093.833, 3247.484
1095.071, 2832.395
1096.309, 2662.273
1097.547, 3312.320
1098.785, 2447.398
1100.023, 2516.439
1101.260, 3025.469
1102.498, 2551.494
1103.735, 2555.514
1104.972, 2606.529
1106.208, 2105.537
1107.445, 2566.541
1108.681, 2284.545
1109.918, 2234.547
1111.154, 2250.557
1112.389, 1815.578
1113.625, 2280.621
1114.860, 1978.738
1116.096, 1658.934
1117.331, 2008.160
1118.566, 1479.410
1119.800, 1751.762
1121.035, 1922.281
1122.269, 1516.980
1123.503, 1630.840
1124.737, 1498.879
1125.971, 1423.074
1127.205, 1559.441
1128.438, 1027.902
1129.671, 1158.699
1130.904, 925.633
1132.137, 1158.723
1133.370, 1033.023
1134.602, 1243.523
1135.834, 1002.273
1137.066, 1769.156
1138.298, 665.219
1139.530, 841.457
1140.762, 1386.781
1141.993, 335.180
1143.224, 1403.652
1144.455, 829.188
1145.686, 777.793
1146.917, 1130.430
1148.147, 907.090
1149.377, 1270.738
1150.607, 1034.438
1151.837, 414.203
1153.067, 1183.023
1154.296, 905.848
1155.526, 617.730
1156.755, 742.664
1157.984, 852.652
1159.213, 666.688
1160.441, 966.773
1161.670, 265.910
1162.898, 897.102
1164.126, 688.328
1165.354, 648.602
1166.581, 1025.930
1167.809, 927.668
1169.036, 882.891
1170.263, 989.176
1171.490, 781.680
1172.717, 468.254
1173.943, 764.965
1175.170, 569.828
1176.396, 770.852
1177.622, 215.043
1178.848, 701.410
1180.073, 748.957
1181.299, 7.297
1182.524, 876.645
1183.749, 65.785
1184.974, 499.133
1186.199, 719.676
1187.423, 54.410
1188.648, 431.336
1189.872, 108.445
1191.096, 295.730
1192.320, 426.184
1193.543, 145.199
1194.767, 510.578
1195.990, 1206.527
1197.213, 135.344
1198.436, 361.965
1199.659, 223.473
1200.881, 123.191
1202.104, 340.121
1203.326, 60.285
1204.548, 284.691
1205.770, 11.355
1206.991, 67.707
1208.213, 305.531
1209.434, 356.086
1210.655, 75.980
1211.876, 296.227
1213.096, 245.824
1214.317, 285.465
1215.537, 455.797
1216.757, 60.504
1217.977, 362.605
1219.197, 468.121
1220.417, 180.949
1221.636, 572.828
1222.855, 76.961
1224.074, 227.180
1225.293, 580.438
1226.512, 9.117
1227.731, 47.219
1228.949, 498.031
1230.167, 85.094
1231.385, 272.840
1232.603, 162.082
1233.820, 93.734
1235.038, 901.219
1236.255, 7.102
1237.472, 470.816
1238.689, 348.473
1239.906, 69.406
1241.122, 700.000
1242.338, 1.152
1243.555, 44.496
1244.771, 0.000
##END=



