##NAMES=Anorthite
##RRUFFID=R050104
##IDEAL CHEMISTRY=CaAl_2_Si_2_O_8_
##LOCALITY=unknown
##OWNER=RRUFF
##SOURCE=Rock Currier
##DESCRIPTION=Iridescent slab, labradorite/andesine
##STATUS=The identification of this mineral has been confirmed by X-ray diffraction and chemical analysis
##URL=rruff.info/R050104
##MEASURED CHEMISTRY=Ca_0.50_Na_0.47_K_0.03_Al_1.50_Si_2.50_O_8_
##PIN_ID=L00152
##ORIENTATION=Laser parallel to (1 0 1). Fiducial mark perpendicular to laser is parallel to -b [0 -1 0]
126.063, 0.000
127.452, 74.365
128.840, 78.225
130.228, 6.082
131.615, 36.679
133.003, 33.690
134.390, 76.938
135.777, 168.948
137.164, 439.341
138.550, 645.203
139.937, 875.021
141.323, 914.707
142.709, 1311.454
144.094, 1556.615
145.480, 2043.532
146.865, 2361.588
148.250, 2633.223
149.635, 3149.951
151.019, 3616.368
152.403, 4105.248
153.788, 4558.625
155.171, 5030.338
156.555, 5473.217
157.939, 5748.414
159.322, 6605.850
160.705, 7126.178
162.088, 8128.061
163.470, 8976.225
164.853, 10058.438
166.235, 11253.512
167.617, 12223.285
168.998, 13742.634
170.380, 14548.445
171.761, 16228.653
173.142, 17186.188
174.523, 18015.014
175.904, 18938.234
177.284, 19422.436
178.664, 20138.383
180.044, 19909.545
181.424, 19850.156
182.803, 19337.865
184.183, 18449.666
185.562, 17624.451
186.940, 16605.615
188.319, 15396.715
189.698, 14482.788
191.076, 13668.209
192.454, 13027.086
193.831, 12067.186
195.209, 11761.461
196.586, 11030.950
197.963, 10879.694
199.340, 10246.729
200.717, 10321.086
202.093, 10001.798
203.470, 9370.890
204.846, 9193.387
206.221, 8637.311
207.597, 8450.689
208.972, 7578.555
210.347, 7073.962
211.722, 6587.947
213.097, 5636.590
214.472, 5318.951
215.846, 4216.066
217.220, 4033.964
218.594, 3201.665
219.967, 2596.188
221.341, 2203.548
222.714, 1671.755
224.087, 1329.567
225.460, 1021.890
226.832, 922.909
228.204, 759.781
229.577, 650.764
230.948, 567.243
232.320, 401.109
233.692, 466.055
235.063, 366.863
236.434, 382.448
237.805, 414.551
239.175, 422.082
240.545, 400.953
241.916, 525.537
243.286, 725.124
244.655, 685.412
246.025, 954.680
247.394, 1279.319
248.763, 1307.963
250.132, 1560.742
251.501, 1484.002
252.869, 1845.976
254.237, 2148.466
255.605, 2239.987
256.973, 2510.965
258.340, 2429.065
259.708, 2876.337
261.075, 2983.709
262.442, 3226.748
263.808, 3530.736
265.175, 3748.668
266.541, 4116.453
267.907, 4483.824
269.273, 4889.091
270.639, 5324.738
272.004, 5811.289
273.369, 6269.735
274.734, 6475.073
276.099, 7436.307
277.463, 7589.432
278.828, 8381.455
280.192, 8592.373
281.556, 8972.186
282.919, 9345.898
284.283, 9234.508
285.646, 9445.015
287.009, 9278.423
288.372, 9156.729
289.734, 8464.938
291.097, 8207.226
292.459, 7758.625
293.821, 6849.070
295.183, 6427.818
296.544, 5622.262
297.905, 5026.139
299.266, 4300.467
300.627, 3906.179
301.988, 3459.221
303.348, 2738.545
304.709, 2505.110
306.069, 2143.882
307.428, 1733.829
308.788, 1633.925
310.147, 1161.146
311.507, 1123.473
312.865, 956.887
314.224, 946.371
315.583, 716.914
316.941, 536.502
318.299, 701.123
319.657, 302.764
321.015, 398.414
322.372, 300.059
323.729, 183.685
325.086, 235.282
326.443, 9.157
327.800, 47.347
329.156, 149.205
330.512, 60.864
331.868, 33.615
333.224, 115.454
334.579, 89.403
335.935, 183.454
337.290, 64.631
338.645, 134.897
339.999, 153.273
341.354, 65.763
342.708, 96.352
344.062, 100.941
345.416, 79.157
346.769, 134.266
348.123, 192.275
349.476, 177.170
350.829, 426.946
352.182, 249.593
353.534, 265.090
354.887, 56.438
356.239, 65.626
357.591, 196.650
358.942, 145.471
360.294, 41.801
361.645, 119.307
362.996, 271.011
364.347, 229.952
365.698, 296.118
367.048, 207.524
368.398, 399.144
369.748, 306.027
371.098, 355.147
372.448, 246.518
373.797, 102.107
375.146, 335.875
376.495, 179.883
377.844, 92.090
379.192, 25.472
380.540, 61.990
381.889, 22.315
383.236, 268.497
384.584, 226.563
385.932, 431.513
387.279, 416.341
388.626, 401.039
389.973, 765.577
391.319, 595.889
392.666, 873.979
394.012, 862.806
395.358, 1033.352
396.704, 1160.603
398.049, 1298.790
399.394, 1497.993
400.740, 1651.236
402.084, 1844.879
403.429, 2011.411
404.774, 2076.793
406.118, 2278.967
407.462, 2274.252
408.806, 2373.444
410.150, 2244.629
411.493, 2166.379
412.836, 2067.736
414.179, 1851.758
415.522, 1762.509
416.865, 1416.090
418.207, 1437.542
419.549, 1318.907
420.891, 1110.191
422.233, 1222.406
423.575, 1119.562
424.916, 1215.656
426.257, 1256.691
427.598, 1232.668
428.939, 1533.585
430.279, 1347.441
431.619, 1694.240
432.959, 1750.979
434.299, 1835.657
435.639, 1878.278
436.978, 2156.840
438.318, 2619.344
439.657, 2479.789
440.996, 2851.177
442.334, 2747.507
443.673, 2863.778
445.011, 3321.994
446.349, 3101.150
447.687, 3483.252
449.024, 3411.295
450.361, 3613.282
451.699, 3855.299
453.036, 3582.164
454.372, 4273.240
455.709, 4139.982
457.045, 4332.760
458.381, 4791.752
459.717, 4934.320
461.053, 5550.334
462.388, 5750.074
463.724, 6570.223
465.059, 7277.078
466.394, 7977.206
467.728, 9399.743
469.063, 10309.712
470.397, 11773.009
471.731, 13558.521
473.065, 15512.781
474.398, 17822.943
475.732, 19128.182
477.065, 21377.285
478.398, 22684.195
479.731, 23662.996
481.063, 23461.879
482.396, 23393.738
483.728, 22241.033
485.060, 20365.588
486.391, 19132.713
487.723, 17373.268
489.054, 15789.931
490.385, 15204.819
491.716, 14028.765
493.047, 14506.307
494.377, 15291.680
495.708, 16090.482
497.038, 18199.518
498.368, 20325.061
499.697, 23676.545
501.027, 26525.654
502.356, 30036.488
503.685, 33659.457
505.014, 36011.836
506.342, 39101.141
507.671, 39776.379
508.999, 40749.367
510.327, 41258.594
511.655, 39688.320
512.982, 38123.352
514.310, 34731.137
515.637, 31295.980
516.964, 28256.332
518.291, 24783.324
519.617, 21549.562
520.944, 18459.533
522.270, 16888.254
523.596, 14336.042
524.921, 12643.500
526.247, 11217.228
527.572, 9687.757
528.897, 8510.709
530.222, 7889.360
531.547, 6319.758
532.871, 5927.809
534.196, 4980.214
535.520, 4847.403
536.844, 4160.238
538.167, 3816.486
539.491, 3755.756
540.814, 3388.791
542.137, 3399.063
543.460, 3135.625
544.783, 3352.972
546.105, 3379.889
547.427, 3250.688
548.749, 3415.341
550.071, 3211.464
551.393, 3382.860
552.714, 3436.340
554.035, 3017.771
555.356, 3682.319
556.677, 3341.812
557.998, 3805.280
559.318, 4226.691
560.638, 4170.096
561.958, 4987.455
563.278, 5102.822
564.597, 5415.137
565.917, 5768.393
567.236, 5392.597
568.555, 5669.747
569.874, 4894.845
571.192, 4688.933
572.511, 4246.973
573.829, 3495.963
575.147, 3363.905
576.464, 2592.799
577.782, 2462.654
579.099, 2027.463
580.416, 1861.221
581.733, 1727.933
583.050, 1318.592
584.366, 1234.209
585.683, 1098.772
586.999, 996.288
588.315, 981.755
589.630, 932.171
590.946, 954.539
592.261, 884.854
593.576, 792.121
594.891, 859.340
596.206, 722.506
597.520, 762.396
598.834, 688.692
600.148, 743.712
601.462, 748.682
602.776, 637.601
604.089, 899.470
605.402, 695.290
606.715, 732.061
608.028, 778.780
609.341, 445.451
610.653, 630.072
611.965, 397.642
613.277, 532.160
614.589, 435.627
615.901, 367.045
617.212, 448.410
618.523, 321.725
619.834, 366.986
621.145, 248.193
622.456, 296.348
623.766, 464.443
625.076, 328.490
626.386, 442.484
627.696, 339.430
629.006, 266.322
630.315, 303.160
631.624, 302.945
632.933, 260.676
634.242, 270.354
635.551, 291.977
636.859, 294.547
638.167, 10.066
639.475, 319.523
640.783, 321.936
642.090, 111.301
643.398, 232.613
644.705, 1.881
646.012, 144.109
647.318, 65.295
648.625, 118.484
649.931, 80.621
651.237, 24.811
652.543, 30.041
653.849, 39.914
655.155, 81.787
656.460, 75.709
657.765, 108.543
659.070, 116.344
660.375, 105.713
661.679, 143.820
662.984, 32.043
664.288, 60.316
665.592, 77.666
666.895, 36.605
668.199, 12.152
669.502, 76.656
670.805, 133.299
672.108, 118.936
673.411, 255.129
674.713, 89.979
676.016, 360.715
677.318, 32.908
678.620, 307.029
679.921, 367.352
681.223, 319.463
682.524, 505.180
683.825, 323.600
685.126, 696.973
686.427, 463.680
687.727, 518.031
689.028, 603.521
690.328, 368.510
691.628, 645.902
692.927, 519.629
694.227, 602.326
695.526, 711.789
696.825, 602.588
698.124, 661.250
699.423, 885.320
700.721, 671.227
702.020, 855.357
703.318, 688.203
704.616, 727.152
705.913, 1058.449
707.211, 850.160
708.508, 1223.592
709.805, 699.842
711.102, 1077.885
712.399, 1264.826
713.695, 804.045
714.992, 1422.211
716.288, 1047.021
717.584, 1381.268
718.879, 1197.176
720.175, 1245.508
721.470, 1322.730
722.765, 1191.053
724.060, 1421.221
725.355, 1354.730
726.649, 1192.152
727.944, 1582.217
729.238, 1109.133
730.532, 1627.068
731.825, 1696.420
733.119, 1362.072
734.412, 1732.217
735.705, 1686.479
736.998, 1739.979
738.291, 1964.500
739.584, 2014.729
740.876, 2240.141
742.168, 2269.498
743.460, 2313.797
744.752, 2393.043
746.043, 2327.232
747.334, 2377.365
748.626, 2384.445
749.916, 2469.465
751.207, 2689.432
752.498, 2290.344
753.788, 2767.203
755.078, 2465.004
756.368, 2760.752
757.658, 2665.445
758.947, 2732.082
760.237, 2967.664
761.526, 2801.195
762.815, 3256.670
764.104, 3261.090
765.392, 3013.369
766.680, 3443.682
767.969, 3298.666
769.257, 3484.871
770.544, 3842.922
771.832, 3459.639
773.119, 3869.646
774.406, 3536.082
775.693, 3630.656
776.980, 3631.688
778.267, 3398.877
779.553, 3589.656
780.839, 3370.887
782.125, 3275.551
783.411, 3187.736
784.697, 3030.572
785.982, 3198.518
787.267, 3251.414
788.552, 3169.092
789.837, 3528.766
791.122, 3281.484
792.406, 3411.172
793.690, 3586.619
794.974, 3362.324
796.258, 3278.994
797.542, 3483.740
798.825, 3035.949
800.108, 3204.092
801.391, 2545.850
802.674, 2573.232
803.957, 2217.797
805.239, 2076.156
806.522, 2051.242
807.804, 1519.219
809.085, 1731.754
810.367, 1503.932
811.649, 977.455
812.930, 1183.885
814.211, 1215.787
815.492, 1035.322
816.772, 656.436
818.053, 448.031
819.333, 366.271
820.613, 175.998
821.893, 224.408
823.173, 123.510
824.452, 151.209
825.732, 140.736
827.011, 14.875
828.290, 85.143
829.568, 43.664
830.847, 98.744
832.125, 237.305
833.403, 85.543
834.681, 161.301
835.959, 123.527
837.236, 165.340
838.514, 84.768
839.791, 136.941
841.068, 3.277
842.345, 20.705
843.621, 315.230
844.898, 68.619
846.174, 40.219
847.450, 215.168
848.726, 70.684
850.001, 170.523
851.277, 50.092
852.552, 177.357
853.827, 48.984
855.102, 108.279
856.376, 51.514
857.651, 123.582
858.925, 46.375
860.199, 182.438
861.473, 203.322
862.746, 226.965
864.020, 66.451
865.293, 38.949
866.566, 73.705
867.839, 184.525
869.112, 167.293
870.384, 1.271
871.656, 205.322
872.928, 75.449
874.200, 84.170
875.472, 42.838
876.744, 62.459
878.015, 202.029
879.286, 132.445
880.557, 33.949
881.828, 304.295
883.098, 28.600
884.369, 150.857
885.639, 3.930
886.909, 164.227
888.178, 257.340
889.448, 144.416
890.717, 391.451
891.987, 72.451
893.256, 551.406
894.524, 486.328
895.793, 343.213
897.061, 751.080
898.330, 450.912
899.598, 472.713
900.865, 862.480
902.133, 530.215
903.401, 979.918
904.668, 728.586
905.935, 774.225
907.202, 1259.832
908.468, 870.404
909.735, 1112.980
911.001, 1314.525
912.267, 1163.041
913.533, 1310.531
914.799, 1139.992
916.064, 1314.430
917.330, 1561.834
918.595, 1498.213
919.860, 1508.564
921.124, 1586.891
922.389, 1428.193
923.653, 1681.469
924.918, 1421.721
926.182, 1703.949
927.445, 1568.154
928.709, 1550.338
929.972, 1617.500
931.236, 1631.641
932.499, 1814.760
933.761, 1859.855
935.024, 1897.631
936.286, 2034.988
937.549, 1941.027
938.811, 1999.047
940.073, 2011.051
941.334, 1883.043
942.596, 2035.018
943.857, 2244.977
945.118, 2175.918
946.379, 2459.852
947.640, 1963.770
948.900, 2434.670
950.161, 2478.562
951.421, 2380.457
952.681, 2836.344
953.940, 2524.268
955.200, 2622.184
956.459, 2874.088
957.719, 2576.988
958.978, 2935.879
960.236, 2939.771
961.495, 3310.666
962.753, 3166.574
964.012, 3278.496
965.270, 3595.439
966.527, 3469.406
967.785, 3701.396
969.043, 3827.420
970.300, 3842.443
971.557, 3969.150
972.814, 4412.068
974.071, 4258.209
975.327, 4617.936
976.583, 4418.785
977.840, 4491.598
979.095, 4932.820
980.351, 4466.359
981.607, 4915.998
982.862, 4994.219
984.117, 4660.504
985.372, 5055.611
986.627, 4448.000
987.882, 4553.838
989.136, 4509.043
990.390, 4203.352
991.644, 4468.432
992.898, 4168.953
994.152, 4267.428
995.405, 4141.475
996.659, 3913.145
997.912, 4173.576
999.165, 4056.092
1000.417, 4006.871
1001.670, 3956.330
1002.922, 3925.922
1004.174, 3722.109
1005.426, 3796.846
1006.678, 3552.523
1007.930, 3848.869
1009.181, 3774.084
1010.432, 3750.928
1011.683, 4048.383
1012.934, 3703.088
1014.185, 3530.945
1015.435, 3915.980
1016.685, 3588.084
1017.935, 3817.879
1019.185, 3765.697
1020.435, 3611.840
1021.684, 3956.520
1022.934, 3396.512
1024.183, 3551.049
1025.432, 3748.670
1026.680, 3417.162
1027.929, 3833.781
1029.177, 3440.027
1030.425, 3714.334
1031.673, 3658.969
1032.921, 3392.725
1034.169, 3611.436
1035.416, 3824.707
1036.663, 3383.652
1037.911, 3997.072
1039.157, 3480.928
1040.404, 3696.355
1041.650, 3891.307
1042.897, 3416.523
1044.143, 3987.527
1045.389, 3480.561
1046.634, 3687.025
1047.880, 3769.113
1049.125, 3605.734
1050.371, 3410.881
1051.615, 3863.059
1052.860, 3641.266
1054.105, 4029.508
1055.349, 3402.777
1056.593, 3865.082
1057.837, 3838.416
1059.081, 3558.580
1060.325, 3836.982
1061.568, 3622.418
1062.812, 3747.162
1064.055, 3723.672
1065.298, 3705.215
1066.540, 3655.797
1067.783, 4428.416
1069.025, 4559.537
1070.267, 4511.234
1071.509, 3909.965
1072.751, 3839.840
1073.993, 3862.512
1075.234, 3738.348
1076.475, 4067.402
1077.716, 3864.336
1078.957, 3891.314
1080.198, 3875.334
1081.438, 3589.400
1082.679, 3716.510
1083.919, 4059.664
1085.159, 3720.861
1086.398, 3685.217
1087.638, 3556.508
1088.877, 3376.844
1090.116, 3774.254
1091.355, 3638.688
1092.594, 3479.170
1093.833, 3625.697
1095.071, 3182.275
1096.309, 3392.904
1097.547, 3370.584
1098.785, 2839.312
1100.023, 3130.379
1101.260, 3050.211
1102.498, 3203.754
1103.735, 3205.689
1104.972, 2920.676
1106.208, 2843.715
1107.445, 2723.811
1108.681, 2864.957
1109.918, 2851.158
1111.154, 2298.414
1112.389, 2512.727
1113.625, 2786.090
1114.860, 2342.514
1116.096, 2608.990
1117.331, 2133.492
1118.566, 2011.049
1119.800, 2277.660
1121.035, 1968.332
1122.269, 2189.068
1123.503, 1937.799
1124.737, 1715.594
1125.971, 1841.438
1127.205, 1627.350
1128.438, 1355.334
1129.671, 1770.139
1130.904, 1302.262
1132.137, 1753.502
1133.370, 1219.807
1134.602, 1533.223
1135.834, 1442.768
1137.066, 1600.381
1138.298, 1201.129
1139.530, 1279.971
1140.762, 1381.938
1141.993, 1025.996
1143.224, 1410.150
1144.455, 1071.426
1145.686, 1133.611
1146.917, 1127.893
1148.147, 1195.314
1149.377, 1205.809
1150.607, 1165.094
1151.837, 1153.365
1153.067, 1036.020
1154.296, 1006.951
1155.526, 883.961
1156.755, 713.074
1157.984, 976.266
1159.213, 829.662
1160.441, 629.932
1161.670, 926.586
1162.898, 795.064
1164.126, 639.643
1165.354, 950.291
1166.581, 472.045
1167.809, 599.881
1169.036, 968.891
1170.263, 661.910
1171.490, 889.072
1172.717, 590.311
1173.943, 654.998
1175.170, 819.695
1176.396, 471.406
1177.622, 497.109
1178.848, 542.818
1180.073, 472.457
1181.299, 688.098
1182.524, 445.145
1183.749, 406.807
1184.974, 594.039
1186.199, 318.865
1187.423, 222.850
1188.648, 449.928
1189.872, 22.096
1191.096, 489.322
1192.320, 215.633
1193.543, 154.969
1194.767, 525.520
1195.990, 42.896
1197.213, 142.713
1198.436, 330.410
1199.659, 166.191
1200.881, 200.072
1202.104, 169.039
1203.326, 125.104
1204.548, 386.266
1205.770, 229.475
1206.991, 102.887
1208.213, 204.346
1209.434, 74.090
1210.655, 314.574
1211.876, 85.336
1213.096, 98.195
1214.317, 194.160
1215.537, 34.771
1216.757, 168.389
1217.977, 233.574
1219.197, 8.191
1220.417, 612.145
1221.636, 199.588
1222.855, 67.141
1224.074, 311.801
1225.293, 256.570
1226.512, 136.451
1227.731, 386.441
1228.949, 189.547
1230.167, 445.770
1231.385, 81.061
1232.603, 6.578
1233.820, 254.895
1235.038, 411.480
1236.255, 45.826
1237.472, 511.975
1238.689, 228.883
1239.906, 331.896
1241.122, 350.012
1242.338, 89.232
1243.555, 468.543
1244.771, 356.951
1245.986, 94.637
1247.202, 816.773
1248.417, 220.723
1249.633, 434.865
1250.848, 526.541
1252.063, 124.301
1253.277, 447.148
1254.492, 576.098
1255.706, 223.152
1256.920, 574.320
1258.134, 348.584
1259.348, 402.979
1260.562, 254.531
1261.775, 134.248
1262.988, 719.928
1264.201, 351.768
1265.414, 22.834
1266.627, 749.066
1267.839, 184.467
1269.052, 217.268
1270.264, 704.697
1271.476, 159.225
1272.688, 355.912
1273.899, 623.588
1275.111, 97.434
1276.322, 791.453
1277.533, 198.754
1278.744, 480.221
1279.955, 592.855
1281.165, 233.650
1282.376, 535.279
1283.586, 518.402
1284.796, 199.500
1286.006, 596.873
1287.215, 330.410
1288.425, 343.117
1289.634, 748.619
1290.843, 131.316
1292.052, 365.033
1293.261, 513.844
1294.469, 228.744
1295.678, 560.729
1296.886, 476.779
1298.094, 52.203
1299.302, 957.717
1300.509, 482.607
1301.717, 455.982
1302.924, 432.562
1304.131, 150.574
1305.338, 455.551
1306.545, 124.555
1307.752, 452.428
1308.958, 719.270
1310.164, 395.830
1311.370, 369.994
1312.576, 539.369
1313.782, 245.836
1314.987, 790.090
1316.193, 780.914
1317.398, 368.490
1318.603, 642.422
1319.807, 598.992
1321.012, 168.219
1322.216, 674.902
1323.421, 250.578
1324.625, 642.312
1325.829, 810.221
1327.032, 1.805
1328.236, 701.400
1329.439, 396.000
1330.642, 0.000
##END=



