##NAMES=Anorthite
##RRUFFID=R050104
##IDEAL CHEMISTRY=CaAl_2_Si_2_O_8_
##LOCALITY=unknown
##OWNER=RRUFF
##SOURCE=Rock Currier
##DESCRIPTION=Iridescent slab, labradorite/andesine
##STATUS=The identification of this mineral has been confirmed by X-ray diffraction and chemical analysis
##URL=rruff.info/R050104
##MEASURED CHEMISTRY=Ca_0.50_Na_0.47_K_0.03_Al_1.50_Si_2.50_O_8_
##PIN_ID=L00084
##ORIENTATION=Laser parallel to -c* (0 0 -1). Fiducial mark perpendicular to laser is parallel to a [1 0 0]
164.853, 0.000
166.235, 240.172
167.617, 16.723
168.998, 253.950
170.380, 256.722
171.761, 782.154
173.142, 1121.678
174.523, 1562.977
175.904, 2023.200
177.284, 2688.456
178.664, 3369.615
180.044, 3845.907
181.424, 4630.184
182.803, 4766.187
184.183, 5595.521
185.562, 5974.938
186.940, 6063.545
188.319, 6437.229
189.698, 6723.392
191.076, 7015.951
192.454, 7005.373
193.831, 6974.128
195.209, 7203.955
196.586, 7169.402
197.963, 7221.436
199.340, 6912.109
200.717, 6934.406
202.093, 6643.619
203.470, 6116.896
204.846, 5831.106
206.221, 5346.735
207.597, 5081.074
208.972, 4183.018
210.347, 3680.480
211.722, 3155.578
213.097, 2689.002
214.472, 2254.258
215.846, 1647.865
217.220, 1528.842
218.594, 979.912
219.967, 716.893
221.341, 533.611
222.714, 449.030
224.087, 251.270
225.460, 134.470
226.832, 113.760
228.204, 70.751
229.577, 63.041
230.948, 91.771
232.320, 78.109
233.692, 108.444
235.063, 120.281
236.434, 181.806
237.805, 237.897
239.175, 537.398
240.545, 502.786
241.916, 824.867
243.286, 1120.924
244.655, 1115.967
246.025, 1464.112
247.394, 1470.664
248.763, 1633.290
250.132, 1850.676
251.501, 1889.094
252.869, 2150.159
254.237, 2206.525
255.605, 2329.286
256.973, 2364.640
258.340, 2468.854
259.708, 2777.203
261.075, 2886.490
262.442, 3151.109
263.808, 3180.849
265.175, 3402.586
266.541, 3649.521
267.907, 3661.119
269.273, 3810.446
270.639, 3771.881
272.004, 3952.811
273.369, 4149.109
274.734, 4154.809
276.099, 4331.051
277.463, 4365.297
278.828, 4562.171
280.192, 4463.938
281.556, 4751.570
282.919, 4575.112
284.283, 4595.566
285.646, 4872.934
287.009, 4431.228
288.372, 4270.342
289.734, 3746.357
291.097, 3545.236
292.459, 3201.967
293.821, 2767.540
295.183, 2713.934
296.544, 2268.135
297.905, 1909.135
299.266, 1532.932
300.627, 1315.526
301.988, 1133.919
303.348, 832.112
304.709, 913.104
306.069, 1070.903
307.428, 401.511
308.788, 379.928
310.147, 84.160
311.507, 247.222
312.865, 48.113
314.224, 155.842
315.583, 104.396
316.941, 100.254
318.299, 2.881
319.657, 105.266
321.015, 53.728
322.372, 126.510
323.729, 111.724
325.086, 59.388
326.443, 95.533
327.800, 128.880
329.156, 28.141
330.512, 117.015
331.868, 182.416
333.224, 111.020
334.579, 204.760
335.935, 151.552
337.290, 161.336
338.645, 130.052
339.999, 22.654
341.354, 23.108
342.708, 64.373
344.062, 3.453
345.416, 162.697
346.769, 141.159
348.123, 189.918
349.476, 276.010
350.829, 218.462
352.182, 308.268
353.534, 201.457
354.887, 364.011
356.239, 196.977
357.591, 120.316
358.942, 221.031
360.294, 106.219
361.645, 61.868
362.996, 30.050
364.347, 52.621
365.698, 80.876
367.048, 157.825
368.398, 173.997
369.748, 262.788
371.098, 262.795
372.448, 306.490
373.797, 393.872
375.146, 412.933
376.495, 444.658
377.844, 531.910
379.192, 589.085
380.540, 704.803
381.889, 848.201
383.236, 977.294
384.584, 1089.090
385.932, 1272.604
387.279, 1303.648
388.626, 1369.852
389.973, 1684.626
391.319, 1698.038
392.666, 1965.959
394.012, 2112.866
395.358, 2536.918
396.704, 2776.129
398.049, 3004.070
399.394, 3755.933
400.740, 4013.579
402.084, 4620.936
403.429, 4930.760
404.774, 5273.302
406.118, 5554.346
407.462, 5145.873
408.806, 5318.943
410.150, 4902.711
411.493, 4546.217
412.836, 4327.465
414.179, 3768.462
415.522, 3551.171
416.865, 3001.578
418.207, 2866.578
419.549, 2659.097
420.891, 2371.064
422.233, 2289.489
423.575, 2141.357
424.916, 2071.775
426.257, 2003.829
427.598, 2024.626
428.939, 2103.209
430.279, 2038.606
431.619, 2185.831
432.959, 2205.900
434.299, 2453.824
435.639, 2625.621
436.978, 2767.301
438.318, 3164.883
439.657, 3230.371
440.996, 3664.779
442.334, 3905.105
443.673, 4217.351
445.011, 4605.514
446.349, 4677.598
447.687, 5260.602
449.024, 5219.523
450.361, 5684.369
451.699, 5975.443
453.036, 6030.285
454.372, 6573.837
455.709, 6728.264
457.045, 7178.297
458.381, 7922.586
459.717, 8067.549
461.053, 8688.024
462.388, 8741.531
463.724, 9400.850
465.059, 9864.926
466.394, 10517.234
467.728, 11781.981
469.063, 12618.841
470.397, 14060.689
471.731, 15571.511
473.065, 17331.801
474.398, 19653.461
475.732, 21087.160
477.065, 23256.643
478.398, 24267.316
479.731, 25127.398
481.063, 24774.238
482.396, 24661.107
483.728, 23758.428
485.060, 21766.244
486.391, 20558.598
487.723, 19231.695
489.054, 18073.436
490.385, 17994.006
491.716, 17185.225
493.047, 18086.453
494.377, 19351.773
495.708, 20957.189
497.038, 23712.293
498.368, 25932.453
499.697, 30194.973
501.027, 33151.582
502.356, 36705.109
503.685, 40123.484
505.014, 41708.168
506.342, 44587.727
507.671, 43921.824
508.999, 44372.227
510.327, 43763.297
511.655, 41144.477
512.982, 38300.043
514.310, 33902.191
515.637, 30217.447
516.964, 26565.182
518.291, 23036.316
519.617, 20073.170
520.944, 17201.449
522.270, 14849.959
523.596, 12609.641
524.921, 10927.245
526.247, 9719.789
527.572, 8539.056
528.897, 7604.488
530.222, 6740.062
531.547, 5957.541
532.871, 5668.488
534.196, 5150.155
535.520, 5034.907
536.844, 4578.887
538.167, 4653.544
539.491, 4510.637
540.814, 4331.203
542.137, 4556.315
543.460, 4218.936
544.783, 4557.983
546.105, 4529.760
547.427, 4362.634
548.749, 4525.734
550.071, 4420.465
551.393, 4541.194
552.714, 4423.871
554.035, 4212.574
555.356, 4636.244
556.677, 4396.865
557.998, 4827.474
559.318, 5206.031
560.638, 5416.576
561.958, 5960.101
563.278, 5915.611
564.597, 6323.096
565.917, 6424.533
567.236, 5886.944
568.555, 5891.308
569.874, 5270.629
571.192, 4948.908
572.511, 4339.166
573.829, 3776.380
575.147, 3452.553
576.464, 2854.683
577.782, 2621.781
579.099, 2199.844
580.416, 1929.869
581.733, 1877.860
583.050, 1631.818
584.366, 1356.755
585.683, 1428.660
586.999, 1271.537
588.315, 1323.386
589.630, 1072.206
590.946, 1209.999
592.261, 1089.763
593.576, 885.500
594.891, 1065.211
596.206, 973.896
597.520, 1002.555
598.834, 955.208
600.148, 802.797
601.462, 802.380
602.776, 672.938
604.089, 641.473
605.402, 512.982
606.715, 403.468
608.028, 469.930
609.341, 311.368
610.653, 343.780
611.965, 151.170
613.277, 158.525
614.589, 229.854
615.901, 145.153
617.212, 151.423
618.523, 107.663
619.834, 187.874
621.145, 270.059
622.456, 244.224
623.766, 250.374
625.076, 282.509
626.386, 426.627
627.696, 273.746
629.006, 350.864
630.315, 267.006
631.624, 265.152
632.933, 285.326
634.242, 290.514
635.551, 282.720
636.859, 316.992
638.167, 169.304
639.475, 218.678
640.783, 216.103
642.090, 83.597
643.398, 268.153
644.705, 31.764
646.012, 92.430
647.318, 116.896
648.625, 88.774
649.931, 139.544
651.237, 8.892
652.543, 42.768
653.849, 73.567
655.155, 33.911
656.460, 80.749
657.765, 105.578
659.070, 108.101
660.375, 115.189
661.679, 99.484
662.984, 52.236
664.288, 125.961
665.592, 65.886
666.895, 6.825
668.199, 76.875
669.502, 30.026
670.805, 16.302
672.108, 138.672
673.411, 100.303
674.713, 161.035
676.016, 296.105
677.318, 85.008
678.620, 306.615
679.921, 207.473
681.223, 413.649
682.524, 303.740
683.825, 325.921
685.126, 564.059
686.427, 372.063
687.727, 417.380
689.028, 533.835
690.328, 388.435
691.628, 581.008
692.927, 551.116
694.227, 525.401
695.526, 653.383
696.825, 556.862
698.124, 611.754
699.423, 848.646
700.721, 811.107
702.020, 945.398
703.318, 775.774
704.616, 907.837
705.913, 1084.824
707.211, 1041.468
708.508, 1288.828
709.805, 1147.308
711.102, 1263.965
712.399, 1360.031
713.695, 1210.487
714.992, 1592.315
716.288, 1231.180
717.584, 1577.411
718.879, 1567.833
720.175, 1626.120
721.470, 1507.740
722.765, 1486.912
724.060, 1659.876
725.355, 1678.676
726.649, 1635.979
727.944, 1916.967
729.238, 1764.868
730.532, 2136.822
731.825, 2159.322
733.119, 2041.848
734.412, 2479.636
735.705, 2373.188
736.998, 2597.862
738.291, 2834.824
739.584, 2857.008
740.876, 3243.891
742.168, 3362.684
743.460, 3389.144
744.752, 3600.901
746.043, 3669.641
747.334, 3718.362
748.626, 3804.068
749.916, 3955.794
751.207, 4148.465
752.498, 4197.688
753.788, 4411.754
755.078, 4407.373
756.368, 4469.976
757.658, 4708.559
758.947, 4747.125
760.237, 4875.674
761.526, 4855.205
762.815, 5158.720
764.104, 5235.217
765.392, 5061.387
766.680, 5422.693
767.969, 5244.194
769.257, 5255.726
770.544, 5309.557
771.832, 5034.033
773.119, 5469.537
774.406, 5078.857
775.693, 5034.516
776.980, 5139.518
778.267, 4789.410
779.553, 5210.328
780.839, 5154.381
782.125, 5138.635
783.411, 5486.650
784.697, 5554.867
785.982, 6030.854
787.267, 6514.829
788.552, 6610.889
789.837, 7527.964
791.122, 7336.008
792.406, 7714.117
793.690, 8037.678
794.974, 7678.441
796.258, 7609.188
797.542, 7479.376
798.825, 7238.328
800.108, 6757.285
801.391, 6047.488
802.674, 5973.479
803.957, 5130.649
805.239, 4786.842
806.522, 4462.476
807.804, 3726.428
809.085, 3722.697
810.367, 3275.890
811.649, 2775.975
812.930, 2763.252
814.211, 2305.434
815.492, 2085.362
816.772, 1643.804
818.053, 1319.722
819.333, 1224.251
820.613, 812.203
821.893, 838.883
823.173, 598.855
824.452, 438.617
825.732, 476.306
827.011, 305.489
828.290, 304.495
829.568, 243.733
830.847, 71.170
832.125, 160.038
833.403, 17.403
834.681, 51.711
835.959, 81.990
837.236, 69.231
838.514, 86.362
839.791, 21.596
841.068, 55.710
842.345, 38.215
843.621, 119.220
844.898, 22.347
846.174, 157.545
847.450, 95.889
848.726, 106.342
850.001, 65.913
851.277, 71.970
852.552, 119.348
853.827, 96.239
855.102, 93.245
856.376, 110.362
857.651, 25.600
858.925, 119.913
860.199, 146.354
861.473, 22.067
862.746, 223.564
864.020, 3.377
865.293, 28.747
866.566, 128.180
867.839, 34.764
869.112, 103.341
870.384, 93.562
871.656, 112.896
872.928, 63.350
874.200, 38.101
875.472, 46.495
876.744, 92.823
878.015, 30.112
879.286, 45.946
880.557, 45.474
881.828, 85.631
883.098, 67.697
884.369, 170.727
885.639, 8.721
886.909, 90.660
888.178, 141.562
889.448, 106.430
890.717, 271.262
891.987, 12.063
893.256, 278.812
894.524, 302.533
895.793, 129.225
897.061, 308.883
898.330, 327.513
899.598, 389.114
900.865, 585.688
902.133, 276.232
903.401, 589.754
904.668, 444.247
905.935, 620.713
907.202, 816.151
908.468, 661.563
909.735, 679.968
911.001, 875.348
912.267, 796.698
913.533, 886.031
914.799, 804.337
916.064, 1043.624
917.330, 1113.888
918.595, 1014.125
919.860, 1118.338
921.124, 1097.528
922.389, 1118.698
923.653, 1204.855
924.918, 958.993
926.182, 1088.110
927.445, 1121.207
928.709, 1011.282
929.972, 1289.333
931.236, 1070.363
932.499, 1214.371
933.761, 1240.356
935.024, 1078.318
936.286, 1490.257
937.549, 1387.174
938.811, 1415.069
940.073, 1337.942
941.334, 1285.795
942.596, 1514.624
943.857, 1598.434
945.118, 1526.221
946.379, 1840.988
947.640, 1561.736
948.900, 1831.464
950.161, 1956.174
951.421, 1887.863
952.681, 2143.537
953.940, 2112.219
955.200, 2196.897
956.459, 2359.561
957.719, 2351.225
958.978, 2758.875
960.236, 2506.510
961.495, 2990.138
962.753, 2961.754
964.012, 3177.355
965.270, 3500.954
966.527, 3537.537
967.785, 3709.119
969.043, 4067.695
970.300, 4139.258
971.557, 4246.820
972.814, 4760.369
974.071, 4647.902
975.327, 4962.422
976.583, 4926.924
977.840, 4994.419
979.095, 5357.774
980.351, 4963.100
981.607, 5314.148
982.862, 5285.447
984.117, 4962.096
985.372, 5154.535
986.627, 4793.679
987.882, 4909.922
989.136, 4839.090
990.390, 4546.305
991.644, 4642.660
992.898, 4263.706
994.152, 4399.613
995.405, 4233.379
996.659, 4179.170
997.912, 4152.426
999.165, 4142.503
1000.417, 3828.881
1001.670, 4006.756
1002.922, 3862.216
1004.174, 3664.668
1005.426, 3880.541
1006.678, 3371.574
1007.930, 3686.510
1009.181, 3520.746
1010.432, 3342.045
1011.683, 3735.669
1012.934, 3404.562
1014.185, 3545.320
1015.435, 3612.885
1016.685, 3276.026
1017.935, 3566.762
1019.185, 3342.112
1020.435, 3500.412
1021.684, 3462.330
1022.934, 3144.045
1024.183, 3378.880
1025.432, 3723.369
1026.680, 3332.292
1027.929, 3627.411
1029.177, 3392.682
1030.425, 3521.435
1031.673, 3655.496
1032.921, 3372.630
1034.169, 3439.699
1035.416, 3623.213
1036.663, 3449.691
1037.911, 3799.897
1039.157, 3421.330
1040.404, 3758.630
1041.650, 3672.635
1042.897, 3548.407
1044.143, 3501.355
1045.389, 3721.023
1046.634, 3763.215
1047.880, 3852.383
1049.125, 3709.562
1050.371, 3732.750
1051.615, 3826.950
1052.860, 3703.727
1054.105, 3635.068
1055.349, 3677.805
1056.593, 3693.525
1057.837, 3683.668
1059.081, 3576.310
1060.325, 3596.261
1061.568, 3563.332
1062.812, 3558.103
1064.055, 3502.449
1065.298, 3217.538
1066.540, 3310.921
1067.783, 3353.323
1069.025, 3052.746
1070.267, 3185.189
1071.509, 2780.654
1072.751, 2965.529
1073.993, 2941.161
1075.234, 2700.694
1076.475, 2878.252
1077.716, 2660.835
1078.957, 2627.443
1080.198, 2818.077
1081.438, 2395.739
1082.679, 2509.429
1083.919, 2622.148
1085.159, 2404.896
1086.398, 2588.674
1087.638, 2323.481
1088.877, 2117.321
1090.116, 2537.196
1091.355, 2337.092
1092.594, 2476.076
1093.833, 2364.954
1095.071, 2165.864
1096.309, 2320.780
1097.547, 2204.689
1098.785, 1970.635
1100.023, 2019.614
1101.260, 2042.565
1102.498, 2201.686
1103.735, 2155.703
1104.972, 1919.753
1106.208, 2034.944
1107.445, 1732.061
1108.681, 1731.209
1109.918, 1904.388
1111.154, 1595.599
1112.389, 1757.848
1113.625, 1608.138
1114.860, 1532.475
1116.096, 1641.532
1117.331, 1385.598
1118.566, 1407.672
1119.800, 1575.053
1121.035, 1210.107
1122.269, 1451.250
1123.503, 1065.308
1124.737, 1055.328
1125.971, 1237.799
1127.205, 1047.321
1128.438, 918.837
1129.671, 987.343
1130.904, 830.854
1132.137, 840.741
1133.370, 702.896
1134.602, 853.433
1135.834, 782.062
1137.066, 875.836
1138.298, 727.795
1139.530, 532.905
1140.762, 793.200
1141.993, 570.680
1143.224, 661.322
1144.455, 599.160
1145.686, 731.213
1146.917, 393.382
1148.147, 653.697
1149.377, 651.234
1150.607, 416.939
1151.837, 565.758
1153.067, 453.639
1154.296, 489.635
1155.526, 420.686
1156.755, 331.812
1157.984, 571.995
1159.213, 401.239
1160.441, 432.540
1161.670, 525.887
1162.898, 382.277
1164.126, 264.709
1165.354, 514.180
1166.581, 148.695
1167.809, 402.199
1169.036, 212.737
1170.263, 206.301
1171.490, 389.897
1172.717, 182.540
1173.943, 286.211
1175.170, 359.912
1176.396, 85.659
1177.622, 214.453
1178.848, 282.291
1180.073, 150.178
1181.299, 367.107
1182.524, 106.086
1183.749, 73.109
1184.974, 367.182
1186.199, 4.301
1187.423, 186.473
1188.648, 150.648
1189.872, 100.830
1191.096, 321.061
1192.320, 105.338
1193.543, 10.332
1194.767, 281.047
1195.990, 15.482
1197.213, 162.973
1198.436, 15.525
1199.659, 29.857
1200.881, 278.816
1202.104, 11.621
1203.326, 94.568
1204.548, 220.660
1205.770, 109.096
1206.991, 55.293
1208.213, 99.822
1209.434, 44.516
1210.655, 207.273
1211.876, 46.816
1213.096, 42.201
1214.317, 259.330
1215.537, 72.566
1216.757, 50.908
1217.977, 48.361
1219.197, 50.074
1220.417, 8.406
1221.636, 114.406
1222.855, 49.334
1224.074, 239.391
1225.293, 201.588
1226.512, 302.928
1227.731, 192.416
1228.949, 166.061
1230.167, 404.863
1231.385, 169.840
1232.603, 160.004
1233.820, 276.920
1235.038, 330.469
1236.255, 255.229
1237.472, 399.783
1238.689, 106.930
1239.906, 361.867
1241.122, 362.713
1242.338, 179.734
1243.555, 419.230
1244.771, 255.945
1245.986, 192.781
1247.202, 586.789
1248.417, 73.834
1249.633, 380.570
1250.848, 311.965
1252.063, 123.314
1253.277, 529.566
1254.492, 293.686
1255.706, 283.641
1256.920, 516.676
1258.134, 193.029
1259.348, 466.393
1260.562, 576.520
1261.775, 294.543
1262.988, 503.727
1264.201, 176.680
1265.414, 76.369
1266.627, 452.061
1267.839, 121.924
1269.052, 193.711
1270.264, 335.189
1271.476, 0.861
1272.688, 0.000
##END=



