##NAMES=Anorthite
##RRUFFID=R050104
##IDEAL CHEMISTRY=CaAl_2_Si_2_O_8_
##LOCALITY=unknown
##OWNER=RRUFF
##SOURCE=Rock Currier
##DESCRIPTION=Iridescent slab, labradorite/andesine
##STATUS=The identification of this mineral has been confirmed by X-ray diffraction and chemical analysis
##URL=rruff.info/R050104
##MEASURED CHEMISTRY=Ca_0.50_Na_0.47_K_0.03_Al_1.50_Si_2.50_O_8_
##PIN_ID=L00412
##ORIENTATION=Laser parallel to (-1 -1 0). Fiducial mark perpendicular to laser is parallel to c [0 0 1]
134.390, 0.000
135.777, 0.300
137.164, 0.200
138.550, 89.165
139.937, 84.783
141.323, 2.087
142.709, 64.010
144.094, 4.747
145.480, 112.316
146.865, 195.672
148.250, 282.323
149.635, 173.870
151.019, 235.465
152.403, 490.600
153.788, 406.918
155.171, 675.169
156.555, 617.766
157.939, 675.344
159.322, 793.062
160.705, 894.385
162.088, 1111.873
163.470, 1251.629
164.853, 1423.033
166.235, 1723.423
167.617, 2031.883
168.998, 2427.426
170.380, 2681.479
171.761, 2939.833
173.142, 3290.748
174.523, 3597.837
175.904, 4001.129
177.284, 4060.980
178.664, 4601.626
180.044, 4669.644
181.424, 5045.244
182.803, 5036.773
184.183, 5183.731
185.562, 5103.865
186.940, 4838.537
188.319, 4800.432
189.698, 4569.672
191.076, 4670.863
192.454, 4507.430
193.831, 4368.229
195.209, 4555.486
196.586, 4482.465
197.963, 4466.217
199.340, 4257.467
200.717, 4375.102
202.093, 4115.118
203.470, 3868.548
204.846, 3733.421
206.221, 3247.764
207.597, 3159.601
208.972, 2601.955
210.347, 2293.859
211.722, 1881.316
213.097, 1482.347
214.472, 1313.964
215.846, 773.188
217.220, 707.100
218.594, 295.914
219.967, 333.650
221.341, 87.312
222.714, 39.214
224.087, 5.238
225.460, 141.379
226.832, 37.616
228.204, 217.235
229.577, 110.706
230.948, 35.687
232.320, 45.325
233.692, 31.978
235.063, 34.632
236.434, 177.098
237.805, 169.039
239.175, 408.504
240.545, 450.714
241.916, 565.473
243.286, 777.149
244.655, 734.037
246.025, 974.093
247.394, 960.486
248.763, 1198.208
250.132, 1340.549
251.501, 1378.039
252.869, 1764.284
254.237, 1781.682
255.605, 2084.391
256.973, 2123.959
258.340, 2217.997
259.708, 2447.907
261.075, 2700.458
262.442, 2970.437
263.808, 3083.649
265.175, 3215.017
266.541, 3508.853
267.907, 3559.580
269.273, 3967.227
270.639, 4113.809
272.004, 4361.329
273.369, 4652.787
274.734, 4795.178
276.099, 5103.496
277.463, 5161.736
278.828, 5635.894
280.192, 5544.965
281.556, 5870.951
282.919, 5880.311
284.283, 5953.539
285.646, 6080.354
287.009, 5630.996
288.372, 5600.560
289.734, 5074.043
291.097, 4862.459
292.459, 4455.800
293.821, 4010.074
295.183, 3786.299
296.544, 3038.466
297.905, 2736.576
299.266, 2264.630
300.627, 1954.032
301.988, 1726.611
303.348, 1344.285
304.709, 1268.007
306.069, 993.716
307.428, 749.419
308.788, 688.034
310.147, 411.630
311.507, 521.143
312.865, 295.560
314.224, 408.868
315.583, 346.063
316.941, 214.140
318.299, 224.092
319.657, 54.920
321.015, 187.620
322.372, 129.164
323.729, 178.530
325.086, 176.721
326.443, 103.741
327.800, 155.595
329.156, 4.710
330.512, 98.817
331.868, 65.190
333.224, 95.417
334.579, 150.498
335.935, 12.441
337.290, 179.231
338.645, 5.908
339.999, 164.437
341.354, 110.845
342.708, 203.066
344.062, 249.909
345.416, 247.295
346.769, 454.323
348.123, 416.127
349.476, 475.785
350.829, 527.364
352.182, 487.853
353.534, 623.253
354.887, 287.566
356.239, 313.782
357.591, 364.895
358.942, 45.899
360.294, 230.773
361.645, 8.535
362.996, 5.840
364.347, 3.649
365.698, 114.814
367.048, 10.793
368.398, 209.724
369.748, 142.836
371.098, 154.109
372.448, 99.543
373.797, 129.122
375.146, 23.852
376.495, 43.974
377.844, 94.683
379.192, 38.204
380.540, 28.012
381.889, 170.280
383.236, 214.776
384.584, 498.581
385.932, 413.749
387.279, 323.238
388.626, 443.414
389.973, 652.967
391.319, 527.066
392.666, 707.705
394.012, 719.901
395.358, 970.187
396.704, 900.765
398.049, 957.279
399.394, 1475.229
400.740, 1377.911
402.084, 1847.513
403.429, 1932.182
404.774, 2224.916
406.118, 2403.573
407.462, 2388.158
408.806, 2516.657
410.150, 2242.049
411.493, 2239.319
412.836, 1996.436
414.179, 1766.353
415.522, 1536.992
416.865, 1333.396
418.207, 1713.607
419.549, 1926.631
420.891, 1617.521
422.233, 1418.332
423.575, 905.082
424.916, 770.770
426.257, 743.406
427.598, 640.998
428.939, 690.549
430.279, 622.057
431.619, 749.521
432.959, 690.945
434.299, 772.327
435.639, 802.669
436.978, 969.971
438.318, 1111.232
439.657, 1053.453
440.996, 1256.149
442.334, 1232.288
443.673, 1371.812
445.011, 1647.800
446.349, 1551.816
447.687, 1963.592
449.024, 2077.824
450.361, 2322.962
451.699, 2399.824
453.036, 2539.446
454.372, 3064.664
455.709, 3234.559
457.045, 3504.588
458.381, 3928.438
459.717, 4269.395
461.053, 5084.479
462.388, 5302.412
463.724, 6030.575
465.059, 7069.785
466.394, 8064.038
467.728, 9571.308
469.063, 10587.014
470.397, 12439.014
471.731, 14350.420
473.065, 16404.352
474.398, 19111.141
475.732, 20786.219
477.065, 23060.936
478.398, 24224.465
479.731, 25416.820
481.063, 25122.977
482.396, 24751.920
483.728, 23530.783
485.060, 21335.902
486.391, 19844.697
487.723, 17932.697
489.054, 16617.201
490.385, 15811.188
491.716, 14819.749
493.047, 15361.029
494.377, 15953.919
495.708, 17191.506
497.038, 19348.314
498.368, 21481.299
499.697, 24720.439
501.027, 27725.162
502.356, 31247.719
503.685, 34185.473
505.014, 36676.465
506.342, 39617.281
507.671, 40236.734
508.999, 41196.438
510.327, 41279.461
511.655, 39350.578
512.982, 37951.273
514.310, 34013.312
515.637, 30774.551
516.964, 28182.318
518.291, 24645.623
519.617, 21591.727
520.944, 18329.166
522.270, 17044.426
523.596, 14748.770
524.921, 12930.704
526.247, 11661.176
527.572, 10107.159
528.897, 8930.622
530.222, 7589.301
531.547, 6684.281
532.871, 6130.678
534.196, 5132.240
535.520, 4807.389
536.844, 4185.289
538.167, 4016.020
539.491, 3669.555
540.814, 3453.475
542.137, 3462.410
543.460, 3136.727
544.783, 3329.619
546.105, 3215.150
547.427, 3133.305
548.749, 3125.042
550.071, 3009.685
551.393, 3247.945
552.714, 3200.007
554.035, 3074.183
555.356, 3599.455
556.677, 3481.704
557.998, 3915.969
559.318, 4139.197
560.638, 4446.428
561.958, 4891.635
563.278, 5066.809
564.597, 5551.955
565.917, 5727.070
567.236, 5343.146
568.555, 5365.182
569.874, 4861.174
571.192, 4465.138
572.511, 4009.061
573.829, 3337.943
575.147, 3147.786
576.464, 2356.588
577.782, 2275.354
579.099, 1916.081
580.416, 1754.770
581.733, 1390.418
583.050, 1275.028
584.366, 1083.600
585.683, 903.133
586.999, 913.312
588.315, 750.665
589.630, 647.700
590.946, 711.077
592.261, 474.333
593.576, 558.633
594.891, 430.893
596.206, 452.112
597.520, 495.293
598.834, 261.436
600.148, 411.535
601.462, 281.595
602.776, 159.610
604.089, 418.579
605.402, 188.509
606.715, 308.392
608.028, 81.231
609.341, 20.977
610.653, 183.756
611.965, 31.442
613.277, 98.208
614.589, 55.661
615.901, 88.195
617.212, 52.679
618.523, 61.889
619.834, 21.472
621.145, 11.220
622.456, 68.967
623.766, 126.210
625.076, 103.339
626.386, 218.420
627.696, 119.456
629.006, 201.444
630.315, 163.393
631.624, 186.299
632.933, 209.168
634.242, 209.998
635.551, 257.791
636.859, 294.552
638.167, 42.717
639.475, 272.972
640.783, 104.632
642.090, 167.260
643.398, 217.854
644.705, 141.420
646.012, 176.958
647.318, 24.534
648.625, 158.952
649.931, 34.588
651.237, 19.833
652.543, 33.224
653.849, 39.582
655.155, 79.079
656.460, 70.195
657.765, 80.543
659.070, 39.651
660.375, 10.817
661.679, 75.053
662.984, 44.010
664.288, 64.962
665.592, 40.115
666.895, 140.456
668.199, 17.143
669.502, 64.383
670.805, 104.963
672.108, 162.672
673.411, 313.582
674.713, 227.819
676.016, 309.583
677.318, 191.387
678.620, 422.985
679.921, 382.580
681.223, 389.936
682.524, 490.782
683.825, 358.516
685.126, 571.270
686.427, 583.397
687.727, 526.812
689.028, 637.009
690.328, 594.152
691.628, 756.753
692.927, 617.159
694.227, 771.168
695.526, 703.717
696.825, 782.365
698.124, 862.186
699.423, 795.361
700.721, 977.880
702.020, 945.466
703.318, 779.772
704.616, 998.928
705.913, 1204.248
707.211, 1038.008
708.508, 1253.523
709.805, 985.068
711.102, 1250.184
712.399, 1229.926
713.695, 1165.428
714.992, 1574.376
716.288, 1302.930
717.584, 1438.592
718.879, 1394.084
720.175, 1406.011
721.470, 1481.256
722.765, 1354.051
724.060, 1540.832
725.355, 1449.233
726.649, 1428.368
727.944, 1613.951
729.238, 1346.747
730.532, 1740.792
731.825, 1577.368
733.119, 1453.664
734.412, 1778.360
735.705, 1749.788
736.998, 1838.169
738.291, 1961.498
739.584, 2085.780
740.876, 2273.012
742.168, 2260.194
743.460, 2353.330
744.752, 2367.416
746.043, 2375.456
747.334, 2483.388
748.626, 2436.938
749.916, 2595.281
751.207, 2543.125
752.498, 2435.922
753.788, 2787.670
755.078, 2623.853
756.368, 2757.502
757.658, 2837.682
758.947, 2853.307
760.237, 3096.812
761.526, 2895.470
762.815, 3239.585
764.104, 3173.709
765.392, 3125.021
766.680, 3466.486
767.969, 3357.272
769.257, 3393.294
770.544, 3573.096
771.832, 3466.991
773.119, 3714.696
774.406, 3543.152
775.693, 3531.645
776.980, 3397.783
778.267, 3190.757
779.553, 3365.562
780.839, 3100.231
782.125, 2890.342
783.411, 3062.998
784.697, 2718.957
785.982, 2847.717
787.267, 2866.533
788.552, 2838.406
789.837, 2917.242
791.122, 2806.238
792.406, 2798.349
793.690, 2793.876
794.974, 2724.928
796.258, 2733.127
797.542, 2602.549
798.825, 2492.144
800.108, 2433.379
801.391, 2056.725
802.674, 2100.703
803.957, 1642.896
805.239, 1593.467
806.522, 1574.001
807.804, 1196.555
809.085, 1164.095
810.367, 1036.366
811.649, 807.961
812.930, 928.054
814.211, 828.445
815.492, 790.680
816.772, 480.947
818.053, 388.247
819.333, 343.977
820.613, 249.187
821.893, 175.208
823.173, 249.241
824.452, 20.565
825.732, 114.703
827.011, 4.172
828.290, 1.802
829.568, 23.789
830.847, 3.664
832.125, 99.973
833.403, 26.172
834.681, 118.401
835.959, 18.236
837.236, 61.187
838.514, 57.289
839.791, 147.283
841.068, 120.004
842.345, 36.856
843.621, 147.798
844.898, 23.115
846.174, 105.030
847.450, 99.299
848.726, 28.688
850.001, 63.160
851.277, 59.267
852.552, 121.354
853.827, 128.102
855.102, 50.983
856.376, 47.957
857.651, 47.020
858.925, 51.173
860.199, 155.415
861.473, 40.200
862.746, 187.229
864.020, 9.181
865.293, 14.536
866.566, 144.158
867.839, 104.013
869.112, 116.857
870.384, 40.846
871.656, 8.091
872.928, 33.032
874.200, 8.208
875.472, 50.549
876.744, 38.268
878.015, 113.945
879.286, 14.415
880.557, 40.170
881.828, 212.714
883.098, 138.227
884.369, 283.706
885.639, 47.152
886.909, 175.564
888.178, 370.942
889.448, 247.292
890.717, 364.612
891.987, 355.903
893.256, 617.166
894.524, 446.401
895.793, 407.607
897.061, 697.788
898.330, 500.940
899.598, 548.066
900.865, 824.166
902.133, 586.238
903.401, 837.286
904.668, 859.308
905.935, 916.305
907.202, 1099.277
908.468, 902.229
909.735, 1113.159
911.001, 1186.067
912.267, 1066.958
913.533, 1173.849
914.799, 1120.721
916.064, 1246.589
917.330, 1380.462
918.595, 1314.322
919.860, 1331.167
921.124, 1448.998
922.389, 1415.812
923.653, 1641.635
924.918, 1398.445
926.182, 1550.241
927.445, 1646.035
928.709, 1502.816
929.972, 1795.588
931.236, 1685.360
932.499, 1776.119
933.761, 1982.866
935.024, 1737.599
936.286, 2034.326
937.549, 1883.040
938.811, 2087.742
940.073, 2159.433
941.334, 2006.111
942.596, 2240.778
943.857, 2288.434
945.118, 2161.077
946.379, 2477.720
947.640, 2176.353
948.900, 2305.976
950.161, 2324.592
951.421, 2414.198
952.681, 2441.798
953.940, 2344.426
955.200, 2475.052
956.459, 2614.672
957.719, 2575.301
958.978, 2929.926
960.236, 2936.549
961.495, 3099.170
962.753, 3193.803
964.012, 3194.434
965.270, 3491.080
966.527, 3294.725
967.785, 3503.369
969.043, 3611.027
970.300, 3774.684
971.557, 3830.238
972.814, 4025.152
974.071, 4120.321
975.327, 4348.559
976.583, 4382.418
977.840, 4464.106
979.095, 4671.559
980.351, 4398.655
981.607, 4735.194
982.862, 4681.680
984.117, 4414.341
985.372, 4693.000
986.627, 4312.897
987.882, 4384.307
989.136, 4423.859
990.390, 4295.389
991.644, 4364.603
992.898, 4172.562
994.152, 4234.783
995.405, 4117.080
996.659, 4063.954
997.912, 4051.062
999.165, 4018.662
1000.417, 3946.494
1001.670, 4053.359
1002.922, 3945.062
1004.174, 3977.395
1005.426, 4123.365
1006.678, 3924.244
1007.930, 4119.379
1009.181, 4077.646
1010.432, 3910.724
1011.683, 4164.346
1012.934, 4028.191
1014.185, 4015.979
1015.435, 4249.170
1016.685, 3921.704
1017.935, 4146.447
1019.185, 4095.710
1020.435, 4158.334
1021.684, 4254.814
1022.934, 3956.434
1024.183, 4170.586
1025.432, 4189.386
1026.680, 4024.607
1027.929, 4330.810
1029.177, 4504.362
1030.425, 4362.152
1031.673, 4055.463
1032.921, 3831.534
1034.169, 3905.327
1035.416, 4050.561
1036.663, 3868.047
1037.911, 4132.107
1039.157, 3718.407
1040.404, 3889.732
1041.650, 3934.080
1042.897, 3601.451
1044.143, 3976.849
1045.389, 3688.269
1046.634, 3664.715
1047.880, 3740.188
1049.125, 3565.685
1050.371, 3590.209
1051.615, 3648.759
1052.860, 3617.338
1054.105, 3779.943
1055.349, 3442.578
1056.593, 3763.242
1057.837, 3798.936
1059.081, 3522.472
1060.325, 3875.225
1061.568, 3640.008
1062.812, 3782.312
1064.055, 3834.157
1065.298, 3651.544
1066.540, 3762.374
1067.783, 3893.314
1069.025, 3581.495
1070.267, 3924.501
1071.509, 3750.540
1072.751, 3859.861
1073.993, 3965.971
1075.234, 3694.113
1076.475, 3932.291
1077.716, 3840.505
1078.957, 3789.754
1080.198, 3975.039
1081.438, 3640.363
1082.679, 3901.725
1083.919, 3808.123
1085.159, 3747.792
1086.398, 3724.269
1087.638, 3553.783
1088.877, 3449.337
1090.116, 3825.931
1091.355, 3523.566
1092.594, 3513.242
1093.833, 3586.957
1095.071, 3295.716
1096.309, 3397.516
1097.547, 3352.359
1098.785, 3233.245
1100.023, 3135.177
1101.260, 3028.151
1102.498, 3312.231
1103.735, 3223.300
1104.972, 2992.413
1106.208, 3059.964
1107.445, 2804.175
1108.681, 3025.433
1109.918, 3024.740
1111.154, 2692.099
1112.389, 2916.508
1113.625, 2710.957
1114.860, 2500.456
1116.096, 2659.939
1117.331, 2345.361
1118.566, 2448.829
1119.800, 2483.347
1121.035, 2283.840
1122.269, 2555.383
1123.503, 2255.980
1124.737, 2215.629
1125.971, 2187.352
1127.205, 2047.104
1128.438, 1927.925
1129.671, 1895.812
1130.904, 1623.761
1132.137, 1683.564
1133.370, 1581.846
1134.602, 1709.991
1135.834, 1763.074
1137.066, 1786.175
1138.298, 1597.350
1139.530, 1380.571
1140.762, 1431.887
1141.993, 1412.288
1143.224, 1524.779
1144.455, 1125.354
1145.686, 1362.245
1146.917, 1067.969
1148.147, 1281.782
1149.377, 1300.665
1150.607, 1053.623
1151.837, 1095.588
1153.067, 871.867
1154.296, 1006.039
1155.526, 1073.298
1156.755, 688.627
1157.984, 1039.041
1159.213, 851.755
1160.441, 840.364
1161.670, 804.242
1162.898, 747.070
1164.126, 616.344
1165.354, 825.535
1166.581, 480.803
1167.809, 723.264
1169.036, 656.879
1170.263, 533.615
1171.490, 742.441
1172.717, 440.354
1173.943, 582.354
1175.170, 615.426
1176.396, 412.574
1177.622, 432.795
1178.848, 590.086
1180.073, 296.447
1181.299, 625.881
1182.524, 399.389
1183.749, 287.969
1184.974, 500.625
1186.199, 332.355
1187.423, 336.152
1188.648, 246.996
1189.872, 66.871
1191.096, 487.750
1192.320, 213.699
1193.543, 73.699
1194.767, 356.746
1195.990, 27.871
1197.213, 241.070
1198.436, 230.350
1199.659, 22.701
1200.881, 235.121
1202.104, 11.621
1203.326, 133.201
1204.548, 209.861
1205.770, 47.398
1206.991, 120.426
1208.213, 89.281
1209.434, 165.830
1210.655, 78.115
1211.876, 119.857
1213.096, 149.750
1214.317, 304.438
1215.537, 15.293
1216.757, 56.061
1217.977, 117.502
1219.197, 148.969
1220.417, 399.648
1221.636, 135.354
1222.855, 57.146
1224.074, 121.029
1225.293, 75.982
1226.512, 61.025
1227.731, 46.156
1228.949, 61.381
1230.167, 28.863
1231.385, 42.926
1232.603, 14.549
1233.820, 209.102
1235.038, 290.734
1236.255, 242.422
1237.472, 247.156
1238.689, 7.965
1239.906, 229.875
1241.122, 209.918
1242.338, 78.088
1243.555, 238.389
1244.771, 237.820
1245.986, 72.379
1247.202, 421.070
1248.417, 137.105
1249.633, 313.852
1250.848, 296.945
1252.063, 16.822
1253.277, 376.555
1254.492, 212.078
1255.706, 120.754
1256.920, 401.578
1258.134, 241.561
1259.348, 284.465
1260.562, 252.713
1261.775, 99.311
1262.988, 426.619
1264.201, 368.699
1265.414, 508.518
1266.627, 558.732
1267.839, 110.330
1269.052, 237.021
1270.264, 440.801
1271.476, 108.668
1272.688, 376.084
1273.899, 413.963
1275.111, 146.912
1276.322, 691.922
1277.533, 248.988
1278.744, 327.086
1279.955, 498.201
1281.165, 4.449
1282.376, 373.312
1283.586, 348.371
1284.796, 91.156
1286.006, 327.660
1287.215, 218.229
1288.425, 83.213
1289.634, 554.451
1290.843, 40.973
1292.052, 353.277
1293.261, 150.646
1294.469, 202.723
1295.678, 347.422
1296.886, 279.613
1298.094, 81.869
1299.302, 511.504
1300.509, 222.412
1301.717, 221.166
1302.924, 314.416
1304.131, 10.873
1305.338, 346.686
1306.545, 162.613
1307.752, 411.160
1308.958, 275.365
1310.164, 21.527
1311.370, 0.000
##END=



