##NAMES=Anorthite
##RRUFFID=R050104
##IDEAL CHEMISTRY=CaAl_2_Si_2_O_8_
##LOCALITY=unknown
##OWNER=RRUFF
##SOURCE=Rock Currier
##DESCRIPTION=Iridescent slab, labradorite/andesine
##STATUS=The identification of this mineral has been confirmed by X-ray diffraction and chemical analysis
##URL=rruff.info/R050104
##MEASURED CHEMISTRY=Ca_0.50_Na_0.47_K_0.03_Al_1.50_Si_2.50_O_8_
##PIN_ID=L00152
##ORIENTATION=Laser parallel to (1 0 1). Fiducial mark perpendicular to laser is parallel to -b [0 -1 0]
120.508, 0.000
121.897, 22.641
123.286, 173.492
124.675, 64.087
126.063, 82.550
127.452, 51.652
128.840, 59.839
130.228, 98.976
131.615, 42.838
133.003, 166.074
134.390, 151.606
135.777, 420.843
137.164, 603.079
138.550, 917.859
139.937, 1119.744
141.323, 1154.300
142.709, 1598.118
144.094, 1749.829
145.480, 2185.107
146.865, 2646.674
148.250, 3216.294
149.635, 3674.774
151.019, 4365.938
152.403, 5040.816
153.788, 5700.691
155.171, 6580.822
156.555, 7584.635
157.939, 8414.917
159.322, 9962.109
160.705, 11028.396
162.088, 12491.647
163.470, 14089.732
164.853, 15771.546
166.235, 17812.992
167.617, 19174.012
168.998, 21395.555
170.380, 22605.574
171.761, 24903.025
173.142, 26611.873
174.523, 27635.180
175.904, 28910.930
177.284, 29295.996
178.664, 30299.352
180.044, 29555.990
181.424, 29631.180
182.803, 28101.104
184.183, 27092.291
185.562, 25599.660
186.940, 23317.541
188.319, 21430.592
189.698, 19874.281
191.076, 18334.621
192.454, 16767.625
193.831, 15861.321
195.209, 14751.726
196.586, 13448.854
197.963, 12916.722
199.340, 11967.339
200.717, 11642.724
202.093, 10944.882
203.470, 10288.810
204.846, 10082.462
206.221, 9311.827
207.597, 9057.924
208.972, 8118.848
210.347, 7610.629
211.722, 6929.304
213.097, 6195.895
214.472, 5522.422
215.846, 4596.899
217.220, 3972.340
218.594, 3169.751
219.967, 2764.141
221.341, 2143.517
222.714, 1830.883
224.087, 1550.241
225.460, 1060.597
226.832, 1073.952
228.204, 781.282
229.577, 746.297
230.948, 679.091
232.320, 383.392
233.692, 668.696
235.063, 452.009
236.434, 551.325
237.805, 453.644
239.175, 462.963
240.545, 605.070
241.916, 700.867
243.286, 887.598
244.655, 1002.013
246.025, 1242.814
247.394, 1515.003
248.763, 1592.656
250.132, 1931.294
251.501, 2122.312
252.869, 2574.070
254.237, 2784.332
255.605, 3031.068
256.973, 3246.545
258.340, 3366.062
259.708, 4039.619
261.075, 4119.211
262.442, 4679.839
263.808, 5007.494
265.175, 5476.174
266.541, 6217.867
267.907, 6419.555
269.273, 7289.230
270.639, 7911.889
272.004, 8444.533
273.369, 9439.159
274.734, 9713.769
276.099, 10841.362
277.463, 11340.938
278.828, 12350.493
280.192, 12644.034
281.556, 13565.563
282.919, 13674.081
284.283, 13815.593
285.646, 14296.180
287.009, 13711.523
288.372, 13724.725
289.734, 12769.562
291.097, 12295.238
292.459, 11570.314
293.821, 10427.013
295.183, 9905.136
296.544, 8640.957
297.905, 8009.788
299.266, 7260.945
300.627, 6023.397
301.988, 5408.105
303.348, 4662.067
304.709, 4196.230
306.069, 3685.594
307.428, 3230.143
308.788, 2904.843
310.147, 2556.857
311.507, 2429.679
312.865, 2096.775
314.224, 1915.979
315.583, 1855.281
316.941, 1504.670
318.299, 1493.136
319.657, 1103.668
321.015, 1162.261
322.372, 896.903
323.729, 732.592
325.086, 707.320
326.443, 388.084
327.800, 516.879
329.156, 236.697
330.512, 245.549
331.868, 205.421
333.224, 26.689
334.579, 180.202
335.935, 47.108
337.290, 176.021
338.645, 92.950
339.999, 216.880
341.354, 278.831
342.708, 247.781
344.062, 298.735
345.416, 442.701
346.769, 534.657
348.123, 562.595
349.476, 641.492
350.829, 790.346
352.182, 590.149
353.534, 705.901
354.887, 375.604
356.239, 437.260
357.591, 400.868
358.942, 31.430
360.294, 83.933
361.645, 114.613
362.996, 6.744
364.347, 173.963
365.698, 288.780
367.048, 270.739
368.398, 414.835
369.748, 315.104
371.098, 472.519
372.448, 335.122
373.797, 326.877
375.146, 524.781
376.495, 222.889
377.844, 328.119
379.192, 238.499
380.540, 122.009
381.889, 134.615
383.236, 69.677
384.584, 70.081
385.932, 220.074
387.279, 182.192
388.626, 320.268
389.973, 564.306
391.319, 431.282
392.666, 630.217
394.012, 634.113
395.358, 833.973
396.704, 880.793
398.049, 927.577
399.394, 1189.324
400.740, 985.032
402.084, 1202.702
403.429, 1373.316
404.774, 1489.816
406.118, 1581.788
407.462, 1664.676
408.806, 1656.904
410.150, 1692.228
411.493, 1692.170
412.836, 1540.836
414.179, 1422.288
415.522, 1255.624
416.865, 1019.877
418.207, 1101.104
419.549, 938.315
420.891, 755.506
422.233, 1027.678
423.575, 957.828
424.916, 1090.960
426.257, 1186.070
427.598, 1076.158
428.939, 1441.227
430.279, 1231.272
431.619, 1492.297
432.959, 1680.301
434.299, 1758.281
435.639, 1916.369
436.978, 2058.305
438.318, 2228.238
439.657, 2405.736
440.996, 2588.217
442.334, 2684.739
443.673, 2806.309
445.011, 3182.034
446.349, 2897.605
447.687, 3214.635
449.024, 3137.286
450.361, 3173.433
451.699, 3427.289
453.036, 3229.996
454.372, 3798.428
455.709, 3717.869
457.045, 3978.021
458.381, 4260.914
459.717, 4493.865
461.053, 5237.418
462.388, 5558.436
463.724, 6604.336
465.059, 7380.192
466.394, 8503.681
467.728, 10104.411
469.063, 11199.441
470.397, 13325.978
471.731, 15333.801
473.065, 17417.650
474.398, 20190.889
475.732, 21814.061
477.065, 24170.562
478.398, 25379.131
479.731, 26168.096
481.063, 25878.877
482.396, 25429.736
483.728, 24225.078
485.060, 21829.572
486.391, 20321.549
487.723, 18433.824
489.054, 16703.590
490.385, 16437.109
491.716, 15190.191
493.047, 15759.244
494.377, 16746.430
495.708, 17984.510
497.038, 20125.953
498.368, 22810.047
499.697, 26716.088
501.027, 30150.277
502.356, 34047.688
503.685, 37602.062
505.014, 40403.617
506.342, 43774.531
507.671, 44624.344
508.999, 45423.152
510.327, 45847.977
511.655, 43866.254
512.982, 42463.984
514.310, 38460.562
515.637, 34951.059
516.964, 31370.527
518.291, 27808.941
519.617, 24783.205
520.944, 21676.760
522.270, 19127.676
523.596, 16499.088
524.921, 14325.996
526.247, 12898.501
527.572, 11041.956
528.897, 9739.188
530.222, 8449.503
531.547, 7218.777
532.871, 6577.529
534.196, 5400.680
535.520, 5248.250
536.844, 4423.652
538.167, 4022.369
539.491, 3823.564
540.814, 3579.955
542.137, 3559.413
543.460, 3151.727
544.783, 3411.042
546.105, 3342.268
547.427, 3118.275
548.749, 3192.828
550.071, 3099.584
551.393, 3259.373
552.714, 3298.121
554.035, 2834.903
555.356, 3345.661
556.677, 3114.386
557.998, 3421.115
559.318, 3744.800
560.638, 3881.489
561.958, 5020.162
563.278, 4820.955
564.597, 5319.437
565.917, 5035.016
567.236, 4660.605
568.555, 4903.159
569.874, 4213.674
571.192, 4097.192
572.511, 3589.676
573.829, 3002.127
575.147, 2836.551
576.464, 2047.938
577.782, 2007.301
579.099, 1651.629
580.416, 1407.918
581.733, 1298.172
583.050, 1024.389
584.366, 1022.570
585.683, 801.714
586.999, 620.816
588.315, 561.882
589.630, 408.908
590.946, 486.896
592.261, 364.845
593.576, 298.754
594.891, 408.620
596.206, 189.448
597.520, 322.230
598.834, 184.973
600.148, 169.669
601.462, 153.319
602.776, 110.921
604.089, 142.475
605.402, 50.981
606.715, 43.565
608.028, 33.801
609.341, 110.887
610.653, 94.300
611.965, 104.563
613.277, 9.547
614.589, 24.398
615.901, 17.712
617.212, 82.898
618.523, 77.195
619.834, 21.598
621.145, 100.078
622.456, 34.321
623.766, 47.334
625.076, 52.079
626.386, 166.081
627.696, 34.808
629.006, 15.219
630.315, 176.188
631.624, 72.107
632.933, 75.975
634.242, 224.789
635.551, 196.216
636.859, 458.274
638.167, 120.949
639.475, 607.574
640.783, 201.154
642.090, 152.687
643.398, 262.170
644.705, 178.607
646.012, 286.995
647.318, 2.661
648.625, 184.617
649.931, 178.848
651.237, 22.029
652.543, 145.171
653.849, 170.265
655.155, 2.690
656.460, 272.292
657.765, 38.769
659.070, 235.089
660.375, 21.899
661.679, 32.344
662.984, 72.897
664.288, 7.125
665.592, 68.298
666.895, 53.805
668.199, 167.972
669.502, 285.366
670.805, 311.729
672.108, 433.900
673.411, 461.202
674.713, 448.547
676.016, 720.222
677.318, 393.839
678.620, 734.951
679.921, 642.873
681.223, 660.952
682.524, 754.940
683.825, 578.764
685.126, 914.492
686.427, 778.731
687.727, 674.607
689.028, 942.735
690.328, 710.167
691.628, 765.945
692.927, 768.547
694.227, 814.756
695.526, 864.748
696.825, 806.549
698.124, 849.423
699.423, 971.864
700.721, 1011.719
702.020, 982.760
703.318, 771.865
704.616, 955.514
705.913, 1126.889
707.211, 926.621
708.508, 1340.146
709.805, 937.017
711.102, 1209.936
712.399, 1381.894
713.695, 1020.253
714.992, 1499.129
716.288, 1231.541
717.584, 1364.311
718.879, 1265.831
720.175, 1240.662
721.470, 1435.705
722.765, 1256.914
724.060, 1451.046
725.355, 1341.681
726.649, 1250.074
727.944, 1644.808
729.238, 1262.555
730.532, 1780.388
731.825, 1506.219
733.119, 1405.883
734.412, 1849.490
735.705, 1652.043
736.998, 1717.290
738.291, 1966.731
739.584, 1823.815
740.876, 2134.147
742.168, 2067.424
743.460, 2079.833
744.752, 2171.999
746.043, 2145.108
747.334, 2120.164
748.626, 2113.164
749.916, 2159.980
751.207, 2177.870
752.498, 2067.117
753.788, 2340.862
755.078, 2111.977
756.368, 2195.971
757.658, 2327.842
758.947, 2283.479
760.237, 2486.192
761.526, 2392.379
762.815, 2643.875
764.104, 2689.809
765.392, 2606.973
766.680, 3083.211
767.969, 2817.668
769.257, 2856.040
770.544, 3220.623
771.832, 3119.389
773.119, 3471.018
774.406, 3105.961
775.693, 3301.353
776.980, 3324.778
778.267, 2924.162
779.553, 3156.824
780.839, 2789.153
782.125, 2655.098
783.411, 2554.444
784.697, 2376.413
785.982, 2343.262
787.267, 2401.631
788.552, 2324.971
789.837, 2398.889
791.122, 2211.643
792.406, 2160.907
793.690, 2492.258
794.974, 2120.433
796.258, 2096.032
797.542, 2113.387
798.825, 1847.156
800.108, 1829.534
801.391, 1441.323
802.674, 1577.262
803.957, 1271.538
805.239, 1120.750
806.522, 1042.115
807.804, 601.104
809.085, 950.157
810.367, 856.941
811.649, 498.342
812.930, 724.827
814.211, 499.993
815.492, 604.099
816.772, 227.930
818.053, 277.296
819.333, 299.665
820.613, 212.933
821.893, 187.097
823.173, 119.696
824.452, 115.493
825.732, 149.850
827.011, 106.910
828.290, 93.923
829.568, 55.886
830.847, 123.204
832.125, 109.567
833.403, 65.709
834.681, 53.093
835.959, 136.421
837.236, 15.890
838.514, 48.293
839.791, 31.644
841.068, 16.065
842.345, 34.856
843.621, 134.738
844.898, 71.234
846.174, 103.843
847.450, 225.048
848.726, 67.555
850.001, 58.893
851.277, 90.555
852.552, 86.048
853.827, 141.769
855.102, 56.367
856.376, 52.551
857.651, 106.434
858.925, 23.370
860.199, 242.751
861.473, 92.933
862.746, 248.432
864.020, 27.993
865.293, 1.365
866.566, 134.341
867.839, 171.817
869.112, 139.065
870.384, 67.084
871.656, 49.199
872.928, 8.401
874.200, 52.332
875.472, 161.979
876.744, 16.566
878.015, 101.064
879.286, 123.479
880.557, 43.856
881.828, 24.149
883.098, 9.601
884.369, 209.594
885.639, 27.248
886.909, 252.845
888.178, 327.904
889.448, 42.933
890.717, 358.920
891.987, 47.876
893.256, 555.791
894.524, 326.677
895.793, 158.531
897.061, 520.352
898.330, 341.143
899.598, 408.900
900.865, 706.633
902.133, 311.332
903.401, 695.004
904.668, 683.648
905.935, 626.266
907.202, 884.855
908.468, 716.420
909.735, 645.986
911.001, 1037.531
912.267, 796.053
913.533, 1024.551
914.799, 687.031
916.064, 889.510
917.330, 960.967
918.595, 934.445
919.860, 1061.902
921.124, 1097.373
922.389, 1082.838
923.653, 1148.285
924.918, 938.727
926.182, 1096.180
927.445, 1180.648
928.709, 960.113
929.972, 1241.596
931.236, 1154.062
932.499, 1222.531
933.761, 1404.008
935.024, 1127.471
936.286, 1432.932
937.549, 1423.385
938.811, 1395.820
940.073, 1574.244
941.334, 1334.654
942.596, 1610.051
943.857, 1623.434
945.118, 1566.799
946.379, 1953.154
947.640, 1557.494
948.900, 1878.820
950.161, 1940.135
951.421, 1812.457
952.681, 2038.771
953.940, 2059.121
955.200, 2130.467
956.459, 2174.805
957.719, 2256.242
958.978, 2361.322
960.236, 2408.770
961.495, 2613.078
962.753, 2641.387
964.012, 2795.684
965.270, 3039.994
966.527, 2841.295
967.785, 3033.594
969.043, 3314.338
970.300, 3365.291
971.557, 3321.357
972.814, 3759.062
974.071, 3750.666
975.327, 3984.988
976.583, 3961.295
977.840, 3948.748
979.095, 4264.023
980.351, 4177.381
981.607, 4344.020
982.862, 4265.852
984.117, 4124.154
985.372, 4240.652
986.627, 3919.969
987.882, 4079.395
989.136, 4153.049
990.390, 3946.850
991.644, 4051.227
992.898, 3719.033
994.152, 3874.701
995.405, 3919.137
996.659, 3630.295
997.912, 3633.756
999.165, 3901.658
1000.417, 3493.848
1001.670, 3673.281
1002.922, 3433.664
1004.174, 3532.506
1005.426, 3747.910
1006.678, 3307.137
1007.930, 3516.270
1009.181, 3497.822
1010.432, 3439.613
1011.683, 3618.014
1012.934, 3290.586
1014.185, 3460.775
1015.435, 3603.871
1016.685, 3171.881
1017.935, 3356.451
1019.185, 3296.459
1020.435, 3321.893
1021.684, 3540.926
1022.934, 3235.168
1024.183, 3289.062
1025.432, 3525.703
1026.680, 3208.141
1027.929, 3308.617
1029.177, 3228.555
1030.425, 3330.695
1031.673, 3394.455
1032.921, 3249.168
1034.169, 3362.762
1035.416, 3355.318
1036.663, 3097.008
1037.911, 3602.721
1039.157, 3150.457
1040.404, 3217.463
1041.650, 3321.240
1042.897, 3060.344
1044.143, 3698.168
1045.389, 3231.016
1046.634, 3233.701
1047.880, 3438.598
1049.125, 3305.521
1050.371, 3168.473
1051.615, 3406.447
1052.860, 3257.449
1054.105, 3516.480
1055.349, 3187.539
1056.593, 3432.625
1057.837, 3579.740
1059.081, 3340.914
1060.325, 3675.092
1061.568, 3564.293
1062.812, 3610.527
1064.055, 3663.793
1065.298, 3457.312
1066.540, 3616.641
1067.783, 3838.998
1069.025, 3747.391
1070.267, 3870.812
1071.509, 3741.270
1072.751, 3814.760
1073.993, 4080.285
1075.234, 3884.844
1076.475, 4204.348
1077.716, 3904.973
1078.957, 3894.639
1080.198, 4060.336
1081.438, 3887.070
1082.679, 3978.840
1083.919, 4124.646
1085.159, 3760.490
1086.398, 3932.371
1087.638, 3839.291
1088.877, 3572.246
1090.116, 3969.246
1091.355, 3737.279
1092.594, 3532.355
1093.833, 3708.475
1095.071, 3292.633
1096.309, 3476.836
1097.547, 3436.082
1098.785, 3373.371
1100.023, 3397.223
1101.260, 3037.602
1102.498, 3209.217
1103.735, 3102.689
1104.972, 2827.211
1106.208, 2891.779
1107.445, 2823.395
1108.681, 2871.062
1109.918, 3017.781
1111.154, 2436.473
1112.389, 2672.215
1113.625, 2680.008
1114.860, 2247.850
1116.096, 2611.742
1117.331, 2167.691
1118.566, 2252.691
1119.800, 2359.119
1121.035, 1942.219
1122.269, 2249.379
1123.503, 1907.602
1124.737, 1875.883
1125.971, 1912.229
1127.205, 1714.637
1128.438, 1711.113
1129.671, 1789.920
1130.904, 1330.529
1132.137, 1777.156
1133.370, 1455.604
1134.602, 1526.139
1135.834, 1454.752
1137.066, 1456.422
1138.298, 1290.158
1139.530, 1235.951
1140.762, 1214.807
1141.993, 1106.684
1143.224, 1447.023
1144.455, 1021.068
1145.686, 1420.158
1146.917, 1009.314
1148.147, 1221.590
1149.377, 1214.928
1150.607, 817.352
1151.837, 1001.836
1153.067, 1091.566
1154.296, 1014.227
1155.526, 998.957
1156.755, 821.787
1157.984, 997.666
1159.213, 879.627
1160.441, 626.744
1161.670, 967.943
1162.898, 834.146
1164.126, 828.494
1165.354, 1166.998
1166.581, 535.688
1167.809, 833.492
1169.036, 665.480
1170.263, 540.582
1171.490, 858.809
1172.717, 443.129
1173.943, 620.547
1175.170, 805.037
1176.396, 531.602
1177.622, 536.242
1178.848, 612.955
1180.073, 584.738
1181.299, 838.592
1182.524, 431.520
1183.749, 281.525
1184.974, 648.539
1186.199, 228.627
1187.423, 416.791
1188.648, 515.027
1189.872, 142.342
1191.096, 578.734
1192.320, 217.203
1193.543, 126.740
1194.767, 550.355
1195.990, 42.051
1197.213, 147.830
1198.436, 159.688
1199.659, 134.629
1200.881, 221.654
1202.104, 20.762
1203.326, 78.953
1204.548, 340.201
1205.770, 199.562
1206.991, 176.684
1208.213, 265.016
1209.434, 9.426
1210.655, 404.920
1211.876, 21.502
1213.096, 39.158
1214.317, 383.895
1215.537, 18.703
1216.757, 90.596
1217.977, 89.570
1219.197, 7.625
1220.417, 414.760
1221.636, 295.980
1222.855, 50.713
1224.074, 331.684
1225.293, 79.164
1226.512, 60.725
1227.731, 289.375
1228.949, 192.104
1230.167, 549.918
1231.385, 159.811
1232.603, 96.779
1233.820, 245.816
1235.038, 253.926
1236.255, 47.178
1237.472, 348.576
1238.689, 78.121
1239.906, 256.803
1241.122, 342.627
1242.338, 8.588
1243.555, 381.689
1244.771, 420.932
1245.986, 112.678
1247.202, 660.855
1248.417, 218.457
1249.633, 259.381
1250.848, 335.373
1252.063, 64.525
1253.277, 338.836
1254.492, 289.309
1255.706, 25.949
1256.920, 443.393
1258.134, 189.951
1259.348, 425.674
1260.562, 214.861
1261.775, 11.900
1262.988, 558.111
1264.201, 194.500
1265.414, 22.088
1266.627, 449.574
1267.839, 208.422
1269.052, 211.463
1270.264, 521.699
1271.476, 53.148
1272.688, 386.805
1273.899, 416.678
1275.111, 27.762
1276.322, 605.057
1277.533, 240.537
1278.744, 233.414
1279.955, 436.785
1281.165, 62.027
1282.376, 446.531
1283.586, 428.340
1284.796, 27.018
1286.006, 511.459
1287.215, 159.779
1288.425, 3.939
1289.634, 467.695
1290.843, 212.471
1292.052, 367.576
1293.261, 198.086
1294.469, 166.773
1295.678, 374.320
1296.886, 251.668
1298.094, 9.129
1299.302, 631.516
1300.509, 234.566
1301.717, 300.072
1302.924, 304.059
1304.131, 0.822
1305.338, 514.691
1306.545, 0.000
##END=



