##NAMES=Anorthite
##RRUFFID=R040059
##IDEAL CHEMISTRY=CaAl_2_Si_2_O_8_
##LOCALITY=Miyakejima, Japan
##OWNER=RRUFF
##SOURCE=University of Arizona Mineral Museum
##DESCRIPTION=Colorless fragments of crystals
##STATUS=The identification of this mineral has been confirmed by X-ray diffraction and chemical analysis
##URL=rruff.info/R040059
##MEASURED CHEMISTRY=(Ca_0.94_Na_0.04_Fe_0.02_)(Al_0.98_Si_0.02_)_2_Si_2.00_O_8_
##PIN_ID=L00163
##ORIENTATION=Laser parallel to (0 -1 -1). Fiducial mark perpendicular to laser is parallel to -a [-1 0 0]
123.102, 0.000
124.497, 15.489
125.892, 161.595
127.286, 23.499
128.681, 387.706
130.075, 840.912
131.469, 1136.605
132.862, 2009.019
134.256, 2293.395
135.649, 3146.756
137.042, 3971.412
138.435, 5115.566
139.827, 6245.680
141.219, 7079.475
142.611, 8205.470
144.003, 8472.671
145.394, 8050.424
146.786, 7118.354
148.177, 6014.104
149.567, 4681.887
150.958, 3475.621
152.348, 2905.217
153.738, 1770.492
155.128, 1601.979
156.517, 1260.081
157.907, 1395.144
159.296, 1547.451
160.685, 1847.256
162.073, 2124.776
163.462, 2620.207
164.850, 3353.723
166.237, 3635.498
167.625, 4555.705
169.012, 5134.678
170.400, 5764.117
171.786, 6431.824
173.173, 7099.928
174.559, 8342.538
175.946, 9306.140
177.332, 10768.407
178.717, 11485.272
180.103, 12318.748
181.488, 13369.598
182.873, 13820.688
184.258, 14161.815
185.642, 13732.595
187.026, 13363.012
188.410, 13013.083
189.794, 12162.820
191.178, 11542.195
192.561, 10111.188
193.944, 9809.805
195.327, 8458.071
196.709, 7416.004
198.092, 6303.621
199.474, 5390.938
200.856, 4797.973
202.237, 3804.737
203.618, 3452.766
205.000, 3117.514
206.380, 2673.661
207.761, 2419.842
209.142, 1926.123
210.522, 1882.534
211.902, 1559.090
213.281, 1187.908
214.661, 991.756
216.040, 721.668
217.419, 616.397
218.798, 64.757
220.176, 28.079
221.554, 235.170
222.932, 439.494
224.310, 433.727
225.688, 625.608
227.065, 225.350
228.442, 431.312
229.819, 149.103
231.196, 86.934
232.572, 23.532
233.948, 563.137
235.324, 503.533
236.700, 1004.296
238.075, 1335.923
239.450, 1861.216
240.825, 1963.867
242.200, 2344.021
243.574, 2974.317
244.948, 2789.820
246.322, 3322.567
247.696, 3105.024
249.070, 3217.465
250.443, 3269.885
251.816, 3442.287
253.189, 3674.661
254.561, 3576.908
255.933, 3858.648
257.306, 3609.565
258.677, 3759.809
260.049, 3779.591
261.420, 3619.199
262.791, 3778.788
264.162, 3888.370
265.533, 4287.943
266.903, 4217.506
268.274, 4377.056
269.643, 4776.594
271.013, 4606.117
272.383, 4825.629
273.752, 4715.127
275.121, 5154.612
276.490, 5204.084
277.858, 5273.545
279.226, 5562.992
280.595, 5692.428
281.962, 6121.853
283.330, 5951.266
284.697, 5890.666
286.064, 5560.187
287.431, 5171.619
288.798, 4971.090
290.164, 4287.533
291.530, 4016.837
292.896, 3406.526
294.262, 2706.726
295.627, 2397.287
296.993, 1638.145
298.358, 1419.170
299.722, 760.314
301.087, 691.525
302.451, 392.744
303.815, 193.948
305.179, 285.075
306.543, 43.888
307.906, 52.989
309.269, 122.243
310.632, 21.604
311.995, 111.115
313.357, 70.832
314.719, 169.170
316.081, 268.888
317.443, 548.408
318.804, 777.686
320.166, 856.791
321.527, 1205.687
322.887, 984.383
324.248, 1052.893
325.608, 621.226
326.968, 509.391
328.328, 247.390
329.688, 94.771
331.047, 82.867
332.406, 109.648
333.765, 62.359
335.124, 85.256
336.482, 198.526
337.840, 57.196
339.198, 28.322
340.556, 14.722
341.913, 128.337
343.271, 1.204
344.628, 53.975
345.984, 103.334
347.341, 279.239
348.697, 48.253
350.053, 324.151
351.409, 66.493
352.765, 48.764
354.120, 60.961
355.475, 43.087
356.830, 215.146
358.185, 57.146
359.539, 30.918
360.894, 80.935
362.248, 262.729
363.601, 394.475
364.955, 535.185
366.308, 677.832
367.661, 789.449
369.014, 821.030
370.367, 882.576
371.719, 884.085
373.071, 1025.557
374.423, 1059.613
375.775, 1058.393
377.126, 1279.743
378.478, 1461.024
379.828, 1752.114
381.179, 1372.994
382.530, 1618.832
383.880, 1243.062
385.230, 1220.921
386.580, 1106.017
387.929, 997.921
389.279, 1021.320
390.628, 1033.227
391.977, 1157.979
393.325, 1379.697
394.674, 1614.531
396.022, 2055.873
397.370, 2134.734
398.718, 2513.141
400.065, 2632.416
401.413, 2231.635
402.760, 2300.779
404.106, 2209.861
405.453, 2258.848
406.799, 2027.779
408.146, 1756.686
409.491, 1685.572
410.837, 1214.443
412.182, 1203.297
413.528, 752.135
414.873, 790.953
416.217, 679.756
417.562, 558.543
418.906, 1017.318
420.250, 1076.080
421.594, 1694.834
422.938, 2073.584
424.281, 2102.326
425.624, 2671.064
426.967, 2489.799
428.310, 3098.527
429.652, 2437.248
430.994, 2455.965
432.336, 2224.678
433.678, 1923.383
435.020, 1752.084
436.361, 1410.779
437.702, 1619.469
439.043, 1408.150
440.383, 856.828
441.724, 1115.498
443.064, 474.164
444.404, 562.826
445.743, 371.479
447.083, 160.127
448.422, 148.764
449.761, 97.381
451.100, 359.031
452.438, 317.564
453.777, 396.713
455.115, 786.693
456.453, 665.434
457.790, 1194.141
459.128, 1112.412
460.465, 1383.430
461.802, 1172.424
463.139, 1160.521
464.475, 1383.590
465.811, 1379.305
467.147, 1806.477
468.483, 1935.947
469.819, 2434.088
471.154, 2972.922
472.489, 3202.773
473.824, 4087.854
475.159, 4318.207
476.493, 5263.467
477.827, 6164.756
479.161, 7271.766
480.495, 8950.859
481.829, 9928.621
483.162, 11945.889
484.495, 13013.543
485.828, 12920.715
487.161, 13887.668
488.493, 12293.805
489.825, 11958.695
491.157, 11523.512
492.489, 11856.539
493.820, 13039.973
495.151, 14525.775
496.482, 17260.074
497.813, 20114.996
499.144, 24437.297
500.474, 28176.934
501.804, 30076.283
503.134, 31129.623
504.464, 31011.066
505.793, 29453.535
507.123, 26437.045
508.451, 22472.125
509.780, 20399.219
511.109, 17504.568
512.437, 15667.582
513.765, 14100.285
515.093, 12043.277
516.421, 11105.945
517.748, 9720.744
519.075, 9523.828
520.402, 9012.680
521.729, 8986.277
523.055, 9611.633
524.382, 8657.543
525.708, 8684.031
527.034, 8011.131
528.359, 6868.414
529.685, 5875.734
531.010, 4733.074
532.335, 4600.393
533.659, 3427.770
534.984, 3145.125
536.308, 2712.471
537.632, 2329.799
538.956, 2157.109
540.279, 1974.441
541.603, 2031.758
542.926, 1959.104
544.249, 1786.465
545.571, 2413.904
546.894, 2161.480
548.216, 2799.189
549.538, 3367.078
550.860, 3555.051
552.181, 4453.152
553.503, 4351.324
554.824, 5279.549
556.145, 5287.799
557.465, 5286.035
558.786, 5304.266
560.106, 5032.475
561.426, 4840.668
562.746, 4218.850
564.065, 3837.016
565.385, 3395.168
566.704, 2653.305
568.023, 2551.428
569.341, 1809.537
570.660, 1827.631
571.978, 1355.709
573.296, 963.770
574.614, 1031.814
575.931, 579.846
577.248, 647.859
578.565, 625.855
579.882, 463.834
581.199, 511.793
582.515, 239.738
583.831, 407.662
585.147, 665.568
586.463, 453.461
587.779, 841.332
589.094, 519.182
590.409, 897.016
591.724, 934.828
593.038, 942.623
594.353, 1350.396
595.667, 1038.152
596.981, 1435.887
598.295, 1223.602
599.608, 1141.297
600.922, 1468.969
602.235, 1176.623
603.547, 924.254
604.860, 611.736
606.172, 378.316
607.485, 434.838
608.797, 78.873
610.108, 288.459
611.420, 75.604
612.731, 26.953
614.042, 150.455
615.353, 222.166
616.664, 255.102
617.974, 67.654
619.284, 39.539
620.594, 246.705
621.904, 146.152
623.213, 300.918
624.523, 27.975
625.832, 95.008
627.141, 412.057
628.449, 290.871
629.758, 246.107
631.066, 13.102
632.374, 89.877
633.681, 147.623
634.989, 295.375
636.296, 182.539
637.603, 230.635
638.910, 146.064
640.217, 263.955
641.523, 150.605
642.829, 449.162
644.135, 185.912
645.441, 313.135
646.747, 430.086
648.052, 57.471
649.357, 697.475
650.662, 135.328
651.967, 262.668
653.271, 498.758
654.575, 142.912
655.879, 472.664
657.183, 13.697
658.486, 164.373
659.790, 440.605
661.093, 27.574
662.396, 443.801
663.698, 420.580
665.001, 487.428
666.303, 886.699
667.605, 676.605
668.907, 1442.723
670.209, 1322.600
671.510, 1550.539
672.811, 2156.074
674.112, 1917.258
675.413, 3149.008
676.713, 2757.727
678.013, 3605.035
679.313, 3770.695
680.613, 3621.441
681.913, 3899.244
683.212, 3321.824
684.511, 3219.508
685.810, 2978.438
687.109, 2423.652
688.407, 2650.160
689.706, 2154.889
691.004, 2191.857
692.302, 1879.760
693.599, 1437.100
694.897, 1714.059
696.194, 1279.713
697.491, 1336.461
698.788, 1527.885
700.084, 1064.631
701.380, 1550.451
702.677, 887.314
703.972, 1353.127
705.268, 1398.812
706.564, 885.453
707.859, 1331.039
709.154, 926.957
710.449, 1203.943
711.743, 1279.721
713.037, 1076.035
714.332, 1161.463
715.626, 976.791
716.919, 1192.205
718.213, 977.387
719.506, 992.912
720.799, 1088.598
722.092, 943.627
723.384, 939.336
724.677, 1334.262
725.969, 879.668
727.261, 1324.490
728.553, 1169.260
729.844, 1304.391
731.136, 1549.059
732.427, 1583.672
733.718, 1648.234
735.008, 2082.742
736.299, 2117.203
737.589, 2361.607
738.879, 2355.957
740.169, 2970.258
741.458, 2674.506
742.748, 2708.699
744.037, 2972.842
745.326, 2376.930
746.614, 2810.965
747.903, 2094.949
749.191, 2168.877
750.479, 2402.756
751.767, 1956.578
753.055, 2880.348
754.342, 2454.062
755.629, 2497.725
756.916, 2811.332
758.203, 2794.887
759.490, 3338.387
760.776, 3211.834
762.062, 3045.230
763.348, 3568.578
764.634, 3008.791
765.919, 3232.035
767.204, 3104.564
768.489, 2706.154
769.774, 2628.881
771.059, 2411.535
772.343, 2414.508
773.627, 1924.629
774.911, 1656.662
776.195, 1729.473
777.479, 1206.045
778.762, 1218.752
780.045, 1230.506
781.328, 812.480
782.611, 1155.025
783.893, 662.346
785.175, 934.781
786.457, 856.184
787.739, 434.662
789.021, 956.508
790.302, 283.027
791.583, 554.895
792.864, 565.271
794.145, 236.873
795.425, 538.859
796.706, 120.355
797.986, 492.221
799.266, 373.736
800.545, 224.512
801.825, 327.014
803.104, 57.562
804.383, 218.941
805.662, 349.654
806.940, 209.166
808.219, 151.871
809.497, 44.945
810.775, 14.107
812.053, 174.820
813.330, 215.145
814.608, 435.297
815.885, 215.598
817.162, 65.436
818.438, 464.584
819.715, 105.451
820.991, 115.652
822.267, 56.021
823.543, 116.531
824.818, 182.789
826.094, 207.953
827.369, 21.086
828.644, 10.031
829.919, 261.129
831.193, 307.471
832.468, 213.992
833.742, 24.328
835.016, 162.557
836.289, 9.279
837.563, 168.773
838.836, 113.234
840.109, 55.404
841.382, 412.291
842.654, 210.062
843.927, 277.371
845.199, 94.748
846.471, 162.057
847.743, 239.326
849.014, 73.459
850.286, 263.619
851.557, 9.355
852.828, 237.566
854.099, 564.436
855.369, 181.258
856.639, 418.021
857.909, 434.740
859.179, 191.410
860.449, 708.025
861.718, 334.596
862.988, 91.119
864.257, 337.586
865.525, 194.002
866.794, 390.369
868.062, 398.232
869.331, 362.975
870.599, 419.232
871.866, 305.449
873.134, 251.619
874.401, 547.746
875.668, 213.832
876.935, 909.871
878.202, 255.873
879.468, 571.834
880.735, 847.756
882.001, 273.641
883.267, 929.488
884.532, 485.297
885.798, 931.072
887.063, 1066.811
888.328, 872.518
889.593, 1278.189
890.857, 983.836
892.122, 1539.449
893.386, 1625.031
894.650, 1310.586
895.913, 1646.094
897.177, 1471.557
898.440, 1536.975
899.703, 1952.348
900.966, 1797.676
902.229, 2102.959
903.491, 1818.197
904.754, 2013.391
906.016, 2218.541
907.278, 1713.645
908.539, 2308.705
909.801, 2413.723
911.062, 2198.699
912.323, 2753.629
913.584, 2418.516
914.844, 2413.359
916.105, 2618.156
917.365, 2112.930
918.625, 2197.658
919.885, 2072.348
921.144, 1987.000
922.404, 2461.611
923.663, 1676.229
924.922, 2630.805
926.180, 2385.352
927.439, 2329.863
928.697, 3034.334
929.955, 2978.797
931.213, 3213.223
932.471, 3547.617
933.728, 3261.979
934.985, 4476.305
936.242, 3810.666
937.499, 4484.998
938.756, 4529.305
940.012, 4423.115
941.269, 4957.387
942.525, 4390.639
943.780, 4394.932
945.036, 4719.256
946.291, 4202.340
947.546, 4846.619
948.801, 4938.955
950.056, 4833.051
951.311, 5146.637
952.565, 4980.453
953.819, 5393.809
955.073, 5484.562
956.327, 4687.439
957.580, 5500.855
958.834, 4645.533
960.087, 4937.990
961.339, 5163.209
962.592, 4780.354
963.845, 5115.238
965.097, 5089.779
966.349, 5013.564
967.601, 6018.217
968.852, 5722.164
970.104, 6146.061
971.355, 7057.508
972.606, 6638.330
973.857, 7622.912
975.107, 7013.715
976.358, 7126.445
977.608, 7481.562
978.858, 6501.020
980.108, 7039.891
981.357, 6091.777
982.607, 6035.082
983.856, 5610.025
985.105, 5009.859
986.353, 5072.617
987.602, 4740.574
988.850, 4113.404
990.098, 4264.965
991.346, 3670.227
992.594, 3734.164
993.841, 3819.861
995.089, 3163.307
996.336, 3705.799
997.583, 3453.234
998.829, 3526.635
1000.076, 3951.330
1001.322, 3324.920
1002.568, 3833.824
1003.814, 3337.402
1005.060, 2611.854
1006.305, 3245.254
1007.550, 2589.699
1008.795, 2344.270
1010.040, 2627.883
1011.285, 2012.547
1012.529, 2426.885
1013.773, 2330.152
1015.017, 1874.639
1016.261, 2608.598
1017.505, 1723.453
1018.748, 2398.426
1019.991, 2267.980
1021.234, 1573.010
1022.477, 2367.719
1023.719, 1932.291
1024.962, 1977.545
1026.204, 2232.148
1027.446, 1397.578
1028.688, 2082.570
1029.929, 1348.193
1031.170, 1563.920
1032.411, 2089.082
1033.652, 1504.764
1034.893, 1620.549
1036.134, 1686.441
1037.374, 1082.438
1038.614, 2068.564
1039.854, 1375.678
1041.094, 1792.178
1042.333, 1828.637
1043.572, 1145.137
1044.811, 1808.512
1046.050, 1471.852
1047.289, 1325.158
1048.527, 2198.432
1049.766, 1121.672
1051.004, 1714.879
1052.241, 1808.057
1053.479, 1141.203
1054.717, 1664.318
1055.954, 1267.408
1057.191, 1510.467
1058.428, 1243.494
1059.664, 1036.496
1060.901, 1569.471
1062.137, 1472.414
1063.373, 1155.334
1064.609, 1908.223
1065.844, 1411.086
1067.080, 1263.922
1068.315, 1826.742
1069.550, 1199.539
1070.785, 2102.320
1072.019, 1525.086
1073.254, 1328.053
1074.488, 1891.043
1075.722, 1434.129
1076.955, 1507.371
1078.189, 1840.727
1079.422, 1174.283
1080.656, 1818.109
1081.889, 1222.070
1083.121, 1186.322
1084.354, 1540.801
1085.586, 955.557
1086.818, 1360.562
1088.050, 1375.850
1089.282, 571.355
1090.514, 1356.986
1091.745, 592.887
1092.976, 1179.012
1094.207, 1295.326
1095.438, 371.660
1096.668, 958.191
1097.899, 784.861
1099.129, 291.598
1100.359, 1008.398
1101.588, 545.264
1102.818, 612.197
1104.047, 1029.205
1105.276, 176.270
1106.505, 1333.316
1107.734, 380.416
1108.962, 237.570
1110.191, 574.777
1111.419, 117.979
1112.647, 779.307
1113.874, 536.625
1115.102, 16.035
1116.329, 1001.305
1117.556, 448.650
1118.783, 736.092
1120.010, 1323.676
1121.236, 521.406
1122.463, 1349.293
1123.689, 997.348
1124.914, 405.582
1126.140, 1004.008
1127.366, 662.637
1128.591, 581.488
1129.816, 1260.570
1131.041, 219.902
1132.266, 1019.500
1133.490, 709.367
1134.714, 439.504
1135.938, 859.926
1137.162, 500.625
1138.386, 361.598
1139.609, 1162.840
1140.833, 54.336
1142.056, 506.086
1143.279, 1048.094
1144.501, 149.641
1145.724, 1222.891
1146.946, 285.707
1148.168, 258.820
1149.390, 762.246
1150.612, 116.016
1151.833, 1011.887
1153.054, 575.617
1154.275, 10.277
1155.496, 1255.391
1156.717, 140.977
1157.937, 637.066
1159.158, 593.688
1160.378, 380.859
1161.598, 738.613
1162.817, 466.965
1164.037, 215.945
1165.256, 1265.594
1166.475, 104.066
1167.694, 618.633
1168.913, 788.914
1170.131, 299.879
1171.349, 551.859
1172.567, 655.031
1173.785, 229.125
1175.003, 1054.191
1176.220, 170.262
1177.438, 777.371
1178.655, 747.066
1179.872, 323.059
1181.088, 969.629
1182.305, 416.324
1183.521, 212.352
1184.737, 1073.082
1185.953, 7.418
1187.169, 888.746
1188.384, 831.594
1189.599, 0.000
##END=



