##NAMES=Anorthite
##RRUFFID=R050104
##IDEAL CHEMISTRY=CaAl_2_Si_2_O_8_
##LOCALITY=unknown
##OWNER=RRUFF
##SOURCE=Rock Currier
##DESCRIPTION=Iridescent slab, labradorite/andesine
##STATUS=The identification of this mineral has been confirmed by X-ray diffraction and chemical analysis
##URL=rruff.info/R050104
##MEASURED CHEMISTRY=Ca_0.50_Na_0.47_K_0.03_Al_1.50_Si_2.50_O_8_
##PIN_ID=L00412
##ORIENTATION=Laser parallel to (-1 -1 0). Fiducial mark perpendicular to laser is parallel to c [0 0 1]
131.615, 0.000
133.003, 314.850
134.390, 4.800
135.777, 2.721
137.164, 28.826
138.550, 71.867
139.937, 46.035
141.323, 26.089
142.709, 274.071
144.094, 335.427
145.480, 540.933
146.865, 802.754
148.250, 914.355
149.635, 1162.188
151.019, 1325.692
152.403, 1481.359
153.788, 1525.733
155.171, 1650.440
156.555, 1709.222
157.939, 1629.829
159.322, 1787.156
160.705, 1668.484
162.088, 1806.017
163.470, 1766.548
164.853, 2049.724
166.235, 2388.229
167.617, 2640.807
168.998, 3195.246
170.380, 3944.376
171.761, 4769.056
173.142, 5008.168
174.523, 5644.617
175.904, 6282.332
177.284, 6854.312
178.664, 7523.693
180.044, 7751.689
181.424, 8388.014
182.803, 8574.420
184.183, 8856.985
185.562, 9198.485
186.940, 9275.420
188.319, 9569.749
189.698, 9480.971
191.076, 9962.452
192.454, 9975.650
193.831, 10087.632
195.209, 10466.976
196.586, 10599.516
197.963, 10873.249
199.340, 10875.215
200.717, 11014.463
202.093, 10773.029
203.470, 10415.948
204.846, 10456.251
206.221, 9701.963
207.597, 9461.115
208.972, 8436.724
210.347, 7893.818
211.722, 6980.418
213.097, 6228.542
214.472, 5432.232
215.846, 4637.547
217.220, 4219.539
218.594, 3368.267
219.967, 3072.768
221.341, 2593.533
222.714, 2286.630
224.087, 2056.922
225.460, 1698.713
226.832, 1704.354
228.204, 1382.929
229.577, 1347.715
230.948, 1130.396
232.320, 1098.449
233.692, 1164.408
235.063, 1123.807
236.434, 1069.073
237.805, 1168.092
239.175, 1404.691
240.545, 1425.515
241.916, 1598.912
243.286, 1884.871
244.655, 2074.107
246.025, 2260.305
247.394, 2525.674
248.763, 2642.262
250.132, 2728.585
251.501, 2792.145
252.869, 3116.616
254.237, 3178.002
255.605, 3372.779
256.973, 3247.312
258.340, 3309.438
259.708, 3613.385
261.075, 3579.527
262.442, 3842.978
263.808, 3995.538
265.175, 4182.165
266.541, 4407.998
267.907, 4383.801
269.273, 4711.564
270.639, 4824.273
272.004, 5138.914
273.369, 5354.477
274.734, 5331.953
276.099, 5810.340
277.463, 5898.638
278.828, 6411.848
280.192, 6205.967
281.556, 6351.001
282.919, 6449.947
284.283, 6432.807
285.646, 6377.584
287.009, 6030.275
288.372, 5931.881
289.734, 5378.404
291.097, 5126.846
292.459, 4705.210
293.821, 4152.520
295.183, 3865.805
296.544, 3210.323
297.905, 2879.260
299.266, 2548.617
300.627, 2112.756
301.988, 1804.984
303.348, 1518.636
304.709, 1337.408
306.069, 1019.073
307.428, 851.978
308.788, 634.082
310.147, 412.361
311.507, 445.783
312.865, 254.328
314.224, 333.970
315.583, 198.690
316.941, 133.473
318.299, 159.300
319.657, 16.158
321.015, 187.062
322.372, 99.978
323.729, 213.896
325.086, 201.810
326.443, 233.707
327.800, 365.581
329.156, 341.423
330.512, 600.229
331.868, 526.996
333.224, 531.720
334.579, 593.409
335.935, 335.048
337.290, 423.630
338.645, 244.155
339.999, 268.614
341.354, 129.033
342.708, 3.623
344.062, 34.621
345.416, 138.225
346.769, 63.208
348.123, 217.301
349.476, 255.561
350.829, 176.002
352.182, 290.628
353.534, 156.480
354.887, 351.539
356.239, 339.855
357.591, 268.431
358.942, 283.243
360.294, 246.294
361.645, 309.570
362.996, 222.088
364.347, 167.819
365.698, 153.750
367.048, 58.872
368.398, 89.160
369.748, 7.382
371.098, 26.222
372.448, 57.023
373.797, 167.141
375.146, 71.144
376.495, 265.024
377.844, 117.801
379.192, 244.463
380.540, 405.024
381.889, 396.490
383.236, 541.860
384.584, 576.137
385.932, 810.313
387.279, 728.390
388.626, 816.352
389.973, 999.185
391.319, 1202.905
392.666, 1159.521
394.012, 1204.042
395.358, 1474.481
396.704, 1594.836
398.049, 1660.097
399.394, 2254.257
400.740, 2322.261
402.084, 2829.041
403.429, 2810.525
404.774, 3116.659
406.118, 3307.439
407.462, 3114.776
408.806, 3201.732
410.150, 2998.306
411.493, 2705.567
412.836, 2531.582
414.179, 2150.402
415.522, 2110.066
416.865, 1874.622
418.207, 1815.090
419.549, 1533.488
420.891, 1451.826
422.233, 1574.113
423.575, 1397.354
424.916, 1463.548
426.257, 1420.696
427.598, 1444.797
428.939, 1502.851
430.279, 1526.048
431.619, 1593.818
432.959, 1672.733
434.299, 1773.601
435.639, 1916.422
436.978, 2074.196
438.318, 2257.925
439.657, 2322.609
440.996, 2693.247
442.334, 2795.840
443.673, 2884.388
445.011, 3176.893
446.349, 3202.351
447.687, 3598.090
449.024, 3418.673
450.361, 3699.468
451.699, 3985.683
453.036, 3844.719
454.372, 4431.539
455.709, 4270.529
457.045, 4585.541
458.381, 4969.618
459.717, 5079.328
461.053, 5551.098
462.388, 5636.980
463.724, 6365.233
465.059, 6854.369
466.394, 7590.935
467.728, 8836.485
469.063, 9494.537
470.397, 10944.943
471.731, 12468.687
473.065, 14080.908
474.398, 16289.105
475.732, 17664.262
477.065, 19786.537
478.398, 20631.449
479.731, 21654.201
481.063, 21444.910
482.396, 21257.676
483.728, 20608.701
485.060, 18919.902
486.391, 18242.986
487.723, 16684.881
489.054, 15781.821
490.385, 15680.131
491.716, 15455.674
493.047, 15645.842
494.377, 16819.357
495.708, 18186.994
497.038, 20253.740
498.368, 22552.729
499.697, 26129.459
501.027, 28945.729
502.356, 32649.553
503.685, 35608.707
505.014, 37521.992
506.342, 40452.914
507.671, 40857.938
508.999, 41507.180
510.327, 41022.711
511.655, 38914.062
512.982, 36836.332
514.310, 32474.746
515.637, 28995.527
516.964, 25313.689
518.291, 21921.113
519.617, 18871.438
520.944, 16233.449
522.270, 14215.271
523.596, 12127.954
524.921, 10315.900
526.247, 9464.582
527.572, 8187.123
528.897, 7314.623
530.222, 6630.075
531.547, 5834.285
532.871, 5724.030
534.196, 4879.684
535.520, 5137.812
536.844, 4591.600
538.167, 4610.030
539.491, 4625.501
540.814, 4562.221
542.137, 4754.844
543.460, 4758.631
544.783, 4891.354
546.105, 4930.410
547.427, 4855.295
548.749, 4950.319
550.071, 4845.345
551.393, 5084.365
552.714, 5116.336
554.035, 4878.305
555.356, 5567.229
556.677, 5398.109
557.998, 6109.016
559.318, 6502.879
560.638, 6946.759
561.958, 7788.627
563.278, 7980.480
564.597, 8497.309
565.917, 8714.098
567.236, 8225.886
568.555, 8227.640
569.874, 7254.361
571.192, 7005.104
572.511, 6040.817
573.829, 5031.500
575.147, 4692.150
576.464, 3719.771
577.782, 3430.395
579.099, 2812.987
580.416, 2625.551
581.733, 2395.082
583.050, 2086.584
584.366, 1801.055
585.683, 1595.495
586.999, 1396.902
588.315, 1310.281
589.630, 1114.630
590.946, 1281.947
592.261, 994.233
593.576, 987.489
594.891, 935.715
596.206, 767.911
597.520, 995.075
598.834, 571.211
600.148, 663.314
601.462, 1042.390
602.776, 976.434
604.089, 476.449
605.402, 212.435
606.715, 237.387
608.028, 174.307
609.341, 23.806
610.653, 92.031
611.965, 61.167
613.277, 65.432
614.589, 61.238
615.901, 29.871
617.212, 103.466
618.523, 114.976
619.834, 28.508
621.145, 39.088
622.456, 8.723
623.766, 57.600
625.076, 42.888
626.386, 144.139
627.696, 40.358
629.006, 119.542
630.315, 13.694
631.624, 42.812
632.933, 106.897
634.242, 154.954
635.551, 84.985
636.859, 144.993
638.167, 134.023
639.475, 134.886
640.783, 89.771
642.090, 24.635
643.398, 266.474
644.705, 72.293
646.012, 165.086
647.318, 26.856
648.625, 101.598
649.931, 19.311
651.237, 72.006
652.543, 84.619
653.849, 20.217
655.155, 24.787
656.460, 89.331
657.765, 115.146
659.070, 243.306
660.375, 2.749
661.679, 9.807
662.984, 73.631
664.288, 67.888
665.592, 138.594
666.895, 44.854
668.199, 150.759
669.502, 75.432
670.805, 93.193
672.108, 139.010
673.411, 176.104
674.713, 185.289
676.016, 302.856
677.318, 302.033
678.620, 457.986
679.921, 309.038
681.223, 362.308
682.524, 401.552
683.825, 319.061
685.126, 519.270
686.427, 538.466
687.727, 427.945
689.028, 530.472
690.328, 425.454
691.628, 597.837
692.927, 447.269
694.227, 518.573
695.526, 567.389
696.825, 471.412
698.124, 528.831
699.423, 564.131
700.721, 726.947
702.020, 771.234
703.318, 821.404
704.616, 779.380
705.913, 900.663
707.211, 914.032
708.508, 992.659
709.805, 740.215
711.102, 1075.393
712.399, 1158.602
713.695, 826.991
714.992, 1393.747
716.288, 1011.655
717.584, 1375.958
718.879, 1229.501
720.175, 1247.528
721.470, 1398.002
722.765, 1213.609
724.060, 1482.413
725.355, 1428.188
726.649, 1412.074
727.944, 1705.192
729.238, 1376.367
730.532, 1941.102
731.825, 1823.189
733.119, 1577.935
734.412, 2487.968
735.705, 2114.125
736.998, 2153.297
738.291, 2528.246
739.584, 2447.168
740.876, 2801.062
742.168, 2719.931
743.460, 2671.827
744.752, 3049.640
746.043, 3022.424
747.334, 3093.182
748.626, 3138.912
749.916, 3190.614
751.207, 3152.291
752.498, 3068.940
753.788, 3458.562
755.078, 3326.156
756.368, 3522.725
757.658, 3668.268
758.947, 3706.782
760.237, 3887.271
761.526, 3648.407
762.815, 4074.630
764.104, 4181.571
765.392, 3904.022
766.680, 4492.583
767.969, 4167.289
769.257, 4221.758
770.544, 4450.138
771.832, 4126.369
773.119, 4645.893
774.406, 4175.281
775.693, 4427.477
776.980, 4454.219
778.267, 4224.991
779.553, 4540.245
780.839, 4427.422
782.125, 4502.010
783.411, 4853.146
784.697, 4786.600
785.982, 5173.599
787.267, 5520.703
788.552, 5808.062
789.837, 6148.028
791.122, 6397.849
792.406, 6686.637
793.690, 6726.778
794.974, 6829.008
796.258, 6529.215
797.542, 6374.136
798.825, 6017.916
800.108, 5878.012
801.391, 4925.481
802.674, 4937.362
803.957, 4172.544
805.239, 3984.369
806.522, 3725.470
807.804, 3114.543
809.085, 3106.337
810.367, 2721.139
811.649, 2277.200
812.930, 2374.788
814.211, 1877.323
815.492, 1913.956
816.772, 1364.357
818.053, 1282.300
819.333, 928.615
820.613, 694.807
821.893, 641.083
823.173, 534.302
824.452, 336.191
825.732, 471.144
827.011, 211.272
828.290, 214.540
829.568, 143.829
830.847, 14.095
832.125, 93.319
833.403, 93.514
834.681, 59.680
835.959, 80.815
837.236, 113.080
838.514, 111.914
839.791, 59.122
841.068, 61.758
842.345, 56.607
843.621, 166.576
844.898, 2.101
846.174, 110.274
847.450, 76.761
848.726, 10.661
850.001, 56.964
851.277, 69.328
852.552, 62.410
853.827, 71.233
855.102, 84.854
856.376, 171.087
857.651, 18.831
858.925, 129.293
860.199, 115.534
861.473, 207.113
862.746, 104.263
864.020, 60.258
865.293, 45.748
866.566, 231.790
867.839, 138.502
869.112, 194.230
870.384, 74.112
871.656, 63.080
872.928, 24.126
874.200, 164.771
875.472, 99.355
876.744, 68.422
878.015, 67.172
879.286, 171.104
880.557, 17.489
881.828, 184.050
883.098, 41.099
884.369, 198.153
885.639, 95.402
886.909, 253.003
888.178, 143.390
889.448, 130.755
890.717, 350.099
891.987, 202.422
893.256, 368.729
894.524, 407.017
895.793, 151.285
897.061, 594.536
898.330, 347.771
899.598, 394.987
900.865, 784.188
902.133, 323.371
903.401, 768.540
904.668, 550.691
905.935, 620.828
907.202, 1070.947
908.468, 673.053
909.735, 850.200
911.001, 1192.331
912.267, 1054.448
913.533, 1253.558
914.799, 962.654
916.064, 1171.738
917.330, 1235.811
918.595, 1281.879
919.860, 1248.938
921.124, 1345.002
922.389, 1257.072
923.653, 1435.139
924.918, 1179.196
926.182, 1368.248
927.445, 1339.318
928.709, 1188.388
929.972, 1380.459
931.236, 1218.526
932.499, 1270.588
933.761, 1409.644
935.024, 1197.691
936.286, 1678.734
937.549, 1485.772
938.811, 1618.805
940.073, 1685.834
941.334, 1451.858
942.596, 1700.875
943.857, 1682.888
945.118, 1818.895
946.379, 2091.928
947.640, 1618.955
948.900, 1989.979
950.161, 1988.999
951.421, 2125.013
952.681, 2341.023
953.940, 2260.045
955.200, 2526.065
956.459, 2597.083
957.719, 2573.101
958.978, 2942.129
960.236, 2939.156
961.495, 3179.184
962.753, 3326.210
964.012, 3237.236
965.270, 3771.286
966.527, 3625.333
967.785, 3757.381
969.043, 4048.432
970.300, 4180.482
971.557, 4223.549
972.814, 4664.611
974.071, 4659.683
975.327, 4917.742
976.583, 4781.794
977.840, 5035.834
979.095, 5283.697
980.351, 4579.564
981.607, 5175.129
982.862, 5063.168
984.117, 4720.507
985.372, 4873.842
986.627, 4448.027
987.882, 4531.299
989.136, 4691.364
990.390, 4220.760
991.644, 4525.207
992.898, 4008.393
994.152, 4065.557
995.405, 4017.271
996.659, 3822.584
997.912, 3945.853
999.165, 3798.240
1000.417, 3430.121
1001.670, 3804.789
1002.922, 3510.047
1004.174, 3327.418
1005.426, 3588.258
1006.678, 3274.617
1007.930, 3342.246
1009.181, 3131.721
1010.432, 3149.039
1011.683, 3491.260
1012.934, 3195.209
1014.185, 3234.219
1015.435, 3210.592
1016.685, 3049.922
1017.935, 3341.059
1019.185, 2984.816
1020.435, 3002.412
1021.684, 3131.602
1022.934, 2808.539
1024.183, 2976.979
1025.432, 3039.967
1026.680, 2762.809
1027.929, 2980.441
1029.177, 2872.098
1030.425, 3180.631
1031.673, 2992.924
1032.921, 2889.152
1034.169, 3092.816
1035.416, 3068.113
1036.663, 3026.752
1037.911, 3128.541
1039.157, 2892.303
1040.404, 3150.492
1041.650, 3175.898
1042.897, 3070.328
1044.143, 3327.779
1045.389, 3066.254
1046.634, 3244.693
1047.880, 3245.215
1049.125, 3228.055
1050.371, 3236.625
1051.615, 3282.221
1052.860, 3262.156
1054.105, 3528.805
1055.349, 2907.482
1056.593, 3521.191
1057.837, 3370.926
1059.081, 3089.881
1060.325, 3467.680
1061.568, 3048.508
1062.812, 3148.984
1064.055, 3387.883
1065.298, 2980.812
1066.540, 3056.775
1067.783, 3134.777
1069.025, 2942.814
1070.267, 3089.887
1071.509, 2733.998
1072.751, 2815.973
1073.993, 2863.160
1075.234, 2592.389
1076.475, 2717.660
1077.716, 2622.973
1078.957, 2461.328
1080.198, 2649.727
1081.438, 2175.168
1082.679, 2414.656
1083.919, 2569.191
1085.159, 2209.775
1086.398, 2360.404
1087.638, 2254.082
1088.877, 1992.805
1090.116, 2484.580
1091.355, 2248.145
1092.594, 2154.758
1093.833, 2263.375
1095.071, 1992.039
1096.309, 2191.748
1097.547, 1893.502
1098.785, 1826.273
1100.023, 1956.094
1101.260, 1783.955
1102.498, 2002.535
1103.735, 1951.480
1104.972, 1723.467
1106.208, 1800.492
1107.445, 1441.561
1108.681, 1840.688
1109.918, 1802.875
1111.154, 1292.125
1112.389, 1759.441
1113.625, 1594.574
1114.860, 1358.748
1116.096, 1659.953
1117.331, 1235.176
1118.566, 1280.820
1119.800, 1544.104
1121.035, 1246.301
1122.269, 1544.438
1123.503, 1091.803
1124.737, 1057.176
1125.971, 1250.555
1127.205, 1023.959
1128.438, 1107.391
1129.671, 1042.840
1130.904, 623.398
1132.137, 1247.037
1133.370, 762.764
1134.602, 1033.641
1135.834, 1041.668
1137.066, 881.797
1138.298, 865.053
1139.530, 830.441
1140.762, 947.994
1141.993, 822.732
1143.224, 913.600
1144.455, 671.598
1145.686, 890.799
1146.917, 599.227
1148.147, 912.775
1149.377, 813.469
1150.607, 534.287
1151.837, 773.242
1153.067, 629.256
1154.296, 536.416
1155.526, 798.637
1156.755, 405.916
1157.984, 747.252
1159.213, 516.654
1160.441, 492.109
1161.670, 717.623
1162.898, 412.195
1164.126, 443.830
1165.354, 798.365
1166.581, 214.951
1167.809, 611.586
1169.036, 251.277
1170.263, 312.029
1171.490, 656.834
1172.717, 282.691
1173.943, 361.605
1175.170, 565.578
1176.396, 246.609
1177.622, 426.699
1178.848, 260.846
1180.073, 194.045
1181.299, 593.309
1182.524, 211.633
1183.749, 220.020
1184.974, 520.471
1186.199, 54.957
1187.423, 293.477
1188.648, 256.055
1189.872, 53.693
1191.096, 547.389
1192.320, 36.148
1193.543, 159.969
1194.767, 515.852
1195.990, 22.195
1197.213, 297.885
1198.436, 64.119
1199.659, 21.486
1200.881, 358.074
1202.104, 72.799
1203.326, 95.688
1204.548, 347.736
1205.770, 261.055
1206.991, 155.309
1208.213, 127.818
1209.434, 54.525
1210.655, 445.266
1211.876, 32.195
1213.096, 98.262
1214.317, 391.465
1215.537, 18.814
1216.757, 200.312
1217.977, 341.963
1219.197, 22.221
1220.417, 470.768
1221.636, 217.934
1222.855, 48.281
1224.074, 415.820
1225.293, 181.561
1226.512, 252.512
1227.731, 303.680
1228.949, 47.086
1230.167, 538.744
1231.385, 103.662
1232.603, 184.660
1233.820, 434.115
1235.038, 260.508
1236.255, 172.521
1237.472, 362.031
1238.689, 139.146
1239.906, 548.170
1241.122, 241.137
1242.338, 76.156
1243.555, 492.205
1244.771, 151.188
1245.986, 153.908
1247.202, 664.492
1248.417, 47.141
1249.633, 412.895
1250.848, 451.516
1252.063, 52.602
1253.277, 681.402
1254.492, 143.916
1255.706, 232.016
1256.920, 552.709
1258.134, 221.270
1259.348, 360.170
1260.562, 167.184
1261.775, 176.732
1262.988, 573.391
1264.201, 0.441
1265.414, 38.936
1266.627, 520.162
1267.839, 0.000
##END=



