##NAMES=Aragonite
##RRUFFID=R060195
##IDEAL CHEMISTRY=CaCO_3_
##LOCALITY=Cicov Hill, Horenec, Czech Republic
##OWNER=RRUFF
##SOURCE=Marcus Origlieri
##DESCRIPTION=Colorless transparent elongated prismatic crystal
##STATUS=The identification of this mineral has been confirmed by X-ray diffraction and chemical analysis
##URL=rruff.info/R060195
##MEASURED CHEMISTRY=Ca_1.00_CO_3_
##PIN_ID=L01577
##ORIENTATION=Laser parallel to a* (1 0 0). Fiducial mark perpendicular to laser is parallel to b [0 1 0]
100.8830, 0.0000000E+00
102.1160, 53.43164
103.3490, 126.6348
104.5820, 10.93066
105.8150, 29.77051
107.0470, 170.0098
108.2800, 21.85742
109.5120, 81.14844
110.7440, 259.3066
111.9760, 148.0820
113.2080, 173.0645
114.4400, 163.9385
115.6710, 183.4473
116.9030, 199.3877
118.1340, 174.5928
119.3650, 173.7373
120.5960, 115.2725
121.8270, 172.5293
123.0580, 196.6064
124.2880, 280.4268
125.5190, 265.5908
126.7490, 258.0312
127.9790, 283.7090
129.2090, 263.9102
130.4390, 348.5996
131.6680, 294.7451
132.8980, 226.3193
134.1270, 328.2949
135.3560, 451.6494
136.5850, 493.3643
137.8140, 355.4189
139.0430, 431.7900
140.2710, 338.4443
141.5000, 667.3594
142.7280, 766.5166
143.9560, 955.8984
145.1840, 1115.093
146.4120, 1336.290
147.6390, 1306.277
148.8670, 1223.447
150.0940, 1181.790
151.3210, 1611.300
152.5490, 1859.977
153.7750, 2248.811
155.0020, 2739.801
156.2290, 2695.943
157.4550, 2697.227
158.6810, 2330.664
159.9080, 1987.264
161.1340, 1567.989
162.3590, 1311.871
163.5850, 1156.900
164.8110, 1147.035
166.0360, 946.2734
167.2610, 900.6416
168.4860, 783.1602
169.7110, 636.8047
170.9360, 719.5479
172.1610, 694.4443
173.3850, 609.4414
174.6100, 622.5088
175.8340, 661.5996
177.0580, 869.6689
178.2820, 1103.748
179.5050, 1375.826
180.7290, 1873.918
181.9520, 2009.029
183.1760, 2436.164
184.3990, 2141.329
185.6220, 1795.532
186.8450, 1423.798
188.0670, 1218.114
189.2900, 1043.470
190.5120, 1001.864
191.7340, 875.2988
192.9560, 918.7812
194.1780, 933.3096
195.4000, 1053.881
196.6220, 1133.493
197.8430, 1146.160
199.0640, 1504.896
200.2860, 1666.691
201.5070, 1708.590
202.7270, 2087.654
203.9480, 2979.626
205.1690, 3847.635
206.3890, 5044.695
207.6090, 6435.793
208.8290, 7980.500
210.0490, 7866.744
211.2690, 6545.023
212.4890, 4971.334
213.7080, 3425.688
214.9280, 2167.072
216.1470, 1828.215
217.3660, 1218.979
218.5850, 859.8613
219.8030, 776.3359
221.0220, 614.8447
222.2400, 702.4062
223.4590, 503.5752
224.6770, 391.1602
225.8950, 388.8711
227.1120, 277.5068
228.3300, 401.1660
229.5480, 260.8545
230.7650, 420.7559
231.9820, 364.4990
233.1990, 374.4551
234.4160, 232.3174
235.6330, 273.7549
236.8490, 212.1533
238.0660, 329.0498
239.2820, 329.9658
240.4980, 337.6611
241.7140, 375.1270
242.9300, 413.7002
244.1460, 476.8779
245.3610, 555.9424
246.5770, 670.3936
247.7920, 823.1797
249.0070, 941.0137
250.2220, 934.3994
251.4370, 870.9277
252.6510, 1012.686
253.8660, 909.8311
255.0800, 804.4424
256.2940, 853.7100
257.5080, 676.1143
258.7220, 658.6406
259.9360, 800.2803
261.1490, 784.0244
262.3630, 809.8633
263.5760, 803.7920
264.7890, 757.7021
266.0020, 806.8916
267.2150, 625.0820
268.4270, 451.5586
269.6400, 317.8867
270.8520, 461.0908
272.0640, 313.1924
273.2760, 444.6934
274.4880, 445.2451
275.7000, 432.8457
276.9120, 351.4922
278.1230, 483.1836
279.3340, 325.9170
280.5450, 241.6904
281.7560, 326.5029
282.9670, 345.3516
284.1780, 276.9355
285.3880, 175.8535
286.5980, 283.8027
287.8090, 301.7842
289.0190, 133.7959
290.2290, 233.8379
291.4380, 116.9141
292.6480, 139.0137
293.8570, 153.8584
295.0670, 119.0088
296.2760, 14.69043
297.4850, 74.88770
298.6930, 77.10645
299.9020, 204.4219
301.1110, 85.68164
302.3190, 9.041016
303.5270, 175.2559
304.7350, 67.57031
305.9430, 3.901367
307.1510, 101.2480
308.3580, 151.6113
309.5660, 28.17090
310.7730, 11.56250
311.9800, 99.96875
313.1870, 117.3887
314.3940, 25.25000
315.6010, 150.1924
316.8070, 27.00391
318.0130, 85.51367
319.2200, 111.9922
320.4260, 172.4863
321.6310, 115.9922
322.8370, 152.5059
324.0430, 106.8467
325.2480, 131.4854
326.4540, 214.0342
327.6590, 42.59180
328.8640, 124.1582
330.0680, 49.26660
331.2730, 15.86914
332.4780, 86.91504
333.6820, 18.48242
334.8860, 100.1250
336.0900, 27.74023
337.2940, 84.36426
338.4980, 19.26758
339.7010, 120.9053
340.9050, 132.5547
342.1080, 0.7949220
343.3110, 82.13965
344.5140, 53.13574
345.7170, 141.0908
346.9200, 52.74512
348.1220, 40.40234
349.3240, 4.938477
350.5270, 122.7246
351.7290, 81.39062
352.9310, 109.0615
354.1320, 11.73340
355.3340, 105.4053
356.5350, 47.07227
357.7370, 7.190430
358.9380, 128.9502
360.1390, 102.6328
361.3400, 106.3076
362.5400, 144.9395
363.7410, 66.41992
364.9410, 111.1777
366.1410, 27.31836
367.3410, 55.02344
368.5410, 45.61523
369.7410, 12.57812
370.9400, 19.42480
372.1400, 25.05566
373.3390, 14.68359
374.5380, 140.3135
375.7370, 167.6152
376.9360, 143.8691
378.1350, 36.91992
379.3330, 78.67773
380.5310, 31.70215
381.7300, 52.77539
382.9280, 101.8066
384.1260, 59.74512
385.3230, 78.98828
386.5210, 78.51270
387.7180, 100.1416
388.9160, 69.18945
390.1130, 23.31348
391.3100, 48.16699
392.5060, 66.34277
393.7030, 39.12402
394.9000, 123.5986
396.0960, 31.07812
397.2920, 17.43457
398.4880, 99.29004
399.6840, 67.77441
400.8800, 79.46387
402.0750, 212.2529
403.2710, 84.41504
404.4660, 93.92773
405.6610, 129.6299
406.8560, 148.1426
408.0510, 114.6553
409.2450, 129.1123
410.4400, 162.4307
411.6340, 10.22266
412.8280, 220.8945
414.0220, 2.473633
415.2160, 17.82715
416.4100, 95.63867
417.6030, 89.11914
418.7970, 86.57422
419.9900, 189.0225
421.1830, 152.6855
422.3760, 80.17188
423.5690, 139.6016
424.7610, 114.2471
425.9540, 78.66309
427.1460, 4.210938
428.3380, 178.7920
429.5300, 140.2783
430.7220, 231.6562
431.9140, 298.6709
433.1050, 88.41406
434.2970, 354.7979
435.4880, 117.1426
436.6790, 10.40918
437.8700, 36.90039
439.0610, 21.79980
440.2510, 77.46582
441.4420, 49.72266
442.6320, 61.03027
443.8220, 93.20898
445.0120, 62.39160
446.2020, 62.47266
447.3910, 88.63477
448.5810, 98.78516
449.7700, 164.9258
450.9600, 65.27441
452.1490, 5.391602
453.3370, 141.6357
454.5260, 85.72754
455.7150, 98.11719
456.9030, 12.56641
458.0910, 116.1982
459.2800, 74.61621
460.4670, 41.52441
461.6550, 219.1797
462.8430, 147.9863
464.0300, 168.1533
465.2180, 84.07715
466.4050, 20.00586
467.5920, 44.53125
468.7790, 96.42285
469.9650, 130.7285
471.1520, 150.6338
472.3380, 184.5742
473.5250, 203.6738
474.7110, 216.2236
475.8970, 272.2197
477.0820, 166.6748
478.2680, 237.8418
479.4540, 191.8975
480.6390, 44.80469
481.8240, 87.98633
483.0090, 75.77148
484.1940, 129.7627
485.3780, 94.20898
486.5630, 7.896484
487.7470, 45.75000
488.9320, 83.38086
490.1160, 107.9941
491.3000, 219.5947
492.4830, 150.3369
493.6670, 197.7666
494.8500, 232.0771
496.0340, 177.8164
497.2170, 95.34863
498.4000, 28.56445
499.5820, 84.04297
500.7650, 47.75391
501.9480, 116.6904
503.1300, 110.1152
504.3120, 87.47754
505.4940, 151.8457
506.6760, 9.190430
507.8580, 48.38770
509.0390, 253.6582
510.2210, 176.0420
511.4020, 68.24902
512.5830, 53.95508
513.7640, 186.3477
514.9450, 156.5771
516.1250, 131.4961
517.3060, 42.88867
518.4860, 25.97754
519.6660, 108.0381
520.8460, 202.4062
522.0260, 110.4307
523.2060, 64.02832
524.3850, 111.2783
525.5650, 49.80469
526.7440, 40.04883
527.9230, 197.8779
529.1020, 93.98730
530.2810, 48.80273
531.4590, 239.8125
532.6380, 208.1943
533.8160, 145.2598
534.9940, 168.5088
536.1720, 127.2373
537.3500, 226.9268
538.5270, 235.0762
539.7050, 68.53418
540.8820, 152.1680
542.0590, 80.78320
543.2360, 64.77734
544.4130, 46.31348
545.5900, 199.0781
546.7660, 92.92090
547.9430, 256.4492
549.1190, 185.9590
550.2950, 35.01953
551.4710, 71.48242
552.6470, 76.11621
553.8220, 27.27539
554.9980, 112.6250
556.1730, 106.1377
557.3480, 241.7881
558.5230, 140.0986
559.6980, 230.3643
560.8730, 183.6797
562.0470, 204.9053
563.2220, 84.11035
564.3960, 216.2969
565.5700, 97.46094
566.7440, 154.6016
567.9170, 118.7227
569.0910, 107.1289
570.2640, 129.2129
571.4380, 260.2754
572.6110, 134.3184
573.7840, 36.34961
574.9570, 32.80664
576.1290, 240.7695
577.3020, 130.7109
578.4740, 176.9102
579.6460, 210.8105
580.8180, 235.1797
581.9900, 197.0371
583.1620, 222.4219
584.3330, 142.0547
585.5040, 206.8477
586.6760, 249.8887
587.8470, 230.6406
589.0180, 277.3789
590.1880, 162.3535
591.3590, 104.0762
592.5290, 238.7578
593.7000, 121.2363
594.8700, 198.3223
596.0400, 86.03125
597.2090, 72.63086
598.3790, 298.8516
599.5490, 125.4082
600.7180, 114.7051
601.8870, 39.17188
603.0560, 1.316406
604.2250, 104.5293
605.3940, 201.9551
606.5620, 224.5488
607.7300, 5.128906
608.8990, 284.3945
610.0670, 67.96289
611.2350, 143.2793
612.4020, 155.5762
613.5700, 12.14844
614.7370, 263.0918
615.9050, 124.3301
617.0720, 256.0391
618.2390, 78.72070
619.4060, 102.2832
620.5720, 134.5234
621.7390, 69.74023
622.9050, 157.1172
624.0710, 104.1855
625.2370, 172.6270
626.4030, 178.2559
627.5690, 366.0508
628.7340, 192.2207
629.9000, 243.2656
631.0650, 198.9395
632.2300, 113.2227
633.3950, 169.4512
634.5600, 50.81836
635.7240, 124.8438
636.8890, 170.7109
638.0530, 42.55469
639.2170, 246.3867
640.3810, 75.35742
641.5450, 62.67578
642.7080, 222.7070
643.8720, 224.4375
645.0350, 240.2188
646.1980, 56.95508
647.3610, 89.93359
648.5240, 158.2910
649.6870, 2.072266
650.8490, 184.0801
652.0120, 345.5996
653.1740, 112.8066
654.3360, 147.3574
655.4980, 26.88867
656.6600, 100.4258
657.8210, 233.2637
658.9830, 259.5762
660.1440, 281.3281
661.3050, 243.7949
662.4660, 255.4648
663.6270, 174.0098
664.7870, 186.4922
665.9480, 167.5117
667.1080, 182.1895
668.2680, 87.09766
669.4280, 153.5840
670.5880, 101.5430
671.7480, 202.0449
672.9070, 80.33203
674.0670, 105.7930
675.2260, 156.1348
676.3850, 276.3770
677.5440, 48.00977
678.7030, 183.2148
679.8610, 295.1621
681.0200, 302.7324
682.1780, 66.84570
683.3360, 63.47656
684.4940, 112.3457
685.6520, 94.70508
686.8090, 204.8672
687.9670, 315.4766
689.1240, 39.45898
690.2810, 162.9668
691.4380, 115.0957
692.5950, 245.7559
693.7520, 236.0000
694.9080, 289.7598
696.0650, 179.4727
697.2210, 156.7656
698.3770, 269.5898
699.5330, 146.4121
700.6880, 559.2910
701.8440, 709.0723
702.9990, 946.1055
704.1550, 876.9082
705.3100, 1011.406
706.4650, 907.1074
707.6190, 1091.938
708.7740, 1011.514
709.9290, 655.5312
711.0830, 402.1523
712.2370, 162.8301
713.3910, 53.46680
714.5450, 258.0020
715.6980, 337.5469
716.8520, 298.9609
718.0050, 506.4727
719.1580, 366.9668
720.3110, 189.4531
721.4640, 138.9199
722.6170, 85.36328
723.7700, 256.7617
724.9220, 101.3086
726.0740, 171.8242
727.2260, 224.5664
728.3780, 104.9277
729.5300, 163.0137
730.6810, 246.1074
731.8330, 309.4062
732.9840, 26.60156
734.1350, 146.7324
735.2860, 270.1094
736.4370, 35.04102
737.5880, 200.2188
738.7380, 139.2246
739.8880, 225.4180
741.0390, 162.1055
742.1890, 26.63867
743.3380, 185.6191
744.4880, 53.79102
745.6380, 221.2168
746.7870, 187.7324
747.9360, 114.8125
749.0850, 248.3594
750.2340, 279.4883
751.3830, 231.9688
752.5310, 242.2500
753.6800, 20.74219
754.8280, 44.95117
755.9760, 46.80273
757.1240, 69.60742
758.2720, 141.1387
759.4190, 76.23633
760.5670, 97.57422
761.7140, 192.5859
762.8610, 77.03125
764.0080, 31.73047
765.1550, 73.50000
766.3020, 57.48828
767.4480, 161.9355
768.5950, 22.17773
769.7410, 94.84570
770.8870, 103.1699
772.0330, 63.70898
773.1780, 139.9316
774.3240, 207.0332
775.4690, 191.3418
776.6140, 276.6895
777.7590, 118.5137
778.9040, 185.5742
780.0490, 106.8477
781.1940, 182.4043
782.3380, 205.3340
783.4820, 163.0898
784.6260, 116.9766
785.7700, 130.0312
786.9140, 181.6953
788.0580, 44.11523
789.2010, 149.8008
790.3450, 240.0820
791.4880, 197.1191
792.6310, 185.2812
793.7730, 321.1387
794.9160, 214.0566
796.0590, 213.8730
797.2010, 106.5078
798.3430, 216.6504
799.4850, 118.8711
800.6270, 69.14453
801.7690, 161.7285
802.9100, 180.9121
804.0520, 249.3770
805.1930, 52.66016
806.3340, 118.4004
807.4750, 91.39258
808.6160, 266.4277
809.7560, 199.4004
810.8970, 135.5762
812.0370, 16.71875
813.1770, 309.3418
814.3170, 83.20898
815.4570, 200.2246
816.5960, 206.2480
817.7360, 91.66992
818.8750, 147.4727
820.0140, 14.85742
821.1530, 85.62305
822.2920, 36.88281
823.4310, 103.7617
824.5690, 37.58008
825.7070, 323.1836
826.8460, 39.80078
827.9840, 297.7148
829.1220, 180.8301
830.2590, 64.35156
831.3970, 271.2266
832.5340, 203.9219
833.6710, 81.38672
834.8080, 230.2090
835.9450, 348.6289
837.0820, 166.0547
838.2190, 289.4316
839.3550, 54.94141
840.4910, 169.5234
841.6270, 300.8320
842.7630, 315.4316
843.8990, 3.302734
845.0350, 159.9316
846.1700, 71.49414
847.3060, 185.6875
848.4410, 146.2129
849.5760, 287.3613
850.7100, 315.0977
851.8450, 185.8730
852.9800, 369.4707
854.1140, 304.5645
855.2480, 221.0371
856.3820, 529.0977
857.5160, 295.5000
858.6500, 196.4434
859.7830, 394.0977
860.9170, 155.3359
862.0500, 157.0352
863.1830, 3.939453
864.3160, 199.1895
865.4480, 10.11719
866.5810, 270.6973
867.7130, 233.5117
868.8460, 9.306641
869.9780, 160.6738
871.1100, 70.39648
872.2410, 155.3594
873.3730, 238.6055
874.5050, 258.2852
875.6360, 133.8223
876.7670, 123.4590
877.8980, 333.0508
879.0290, 83.25781
880.1590, 39.97070
881.2900, 214.0645
882.4200, 143.0391
883.5500, 151.1016
884.6800, 205.2910
885.8100, 116.8652
886.9400, 39.73242
888.0690, 258.1426
889.1990, 152.9395
890.3280, 206.3359
891.4570, 283.1875
892.5860, 98.10156
893.7140, 185.7793
894.8430, 74.97266
895.9710, 181.8691
897.1000, 34.16602
898.2280, 196.0469
899.3560, 305.8477
900.4830, 160.6152
901.6110, 105.3594
902.7380, 41.98438
903.8660, 34.04492
904.9930, 164.3945
906.1200, 329.0938
907.2460, 247.3184
908.3730, 109.8398
909.5000, 19.26367
910.6260, 14.89648
911.7520, 50.12305
912.8780, 102.0449
914.0040, 99.68555
915.1290, 288.5352
916.2550, 150.0879
917.3800, 55.03320
918.5050, 99.82227
919.6300, 204.5410
920.7550, 297.2441
921.8800, 101.7871
923.0040, 37.49414
924.1290, 92.64062
925.2530, 221.2383
926.3770, 227.9141
927.5010, 185.5703
928.6250, 113.7930
929.7480, 338.7559
930.8720, 5.712891
931.9950, 70.78320
933.1180, 235.9512
934.2410, 158.4141
935.3640, 139.7754
936.4860, 66.72656
937.6090, 156.0410
938.7310, 89.41602
939.8530, 127.7715
940.9750, 245.7051
942.0970, 230.7695
943.2180, 112.6992
944.3400, 197.9863
945.4610, 46.25391
946.5820, 284.3047
947.7030, 131.4531
948.8240, 292.6602
949.9450, 23.56641
951.0650, 128.5820
952.1860, 7.289063
953.3060, 169.4121
954.4260, 168.3301
955.5460, 203.5449
956.6650, 179.2051
957.7850, 103.9375
958.9040, 127.6348
960.0230, 218.0371
961.1420, 218.0234
962.2610, 296.5000
963.3800, 44.51562
964.4990, 229.4043
965.6170, 79.82031
966.7350, 116.7188
967.8530, 232.5957
968.9710, 69.36719
970.0890, 228.2070
971.2070, 143.0293
972.3240, 243.7578
973.4410, 128.5430
974.5580, 104.7715
975.6750, 172.4590
976.7920, 90.18750
977.9090, 267.8984
979.0250, 172.3047
980.1410, 80.22266
981.2580, 208.8750
982.3740, 81.34766
983.4890, 175.8105
984.6050, 11.27734
985.7200, 233.5234
986.8360, 49.08203
987.9510, 272.6152
989.0660, 68.13672
990.1810, 160.6367
991.2950, 74.29297
992.4100, 152.7539
993.5240, 183.2012
994.6390, 97.63281
995.7530, 156.1094
996.8660, 136.8945
997.9800, 103.5527
999.0940, 140.9160
1000.207, 198.5273
1001.320, 200.2227
1002.433, 206.6113
1003.546, 145.7129
1004.659, 140.9297
1005.772, 98.75586
1006.884, 128.1074
1007.996, 263.1797
1009.108, 219.4277
1010.220, 188.4570
1011.332, 258.4277
1012.444, 219.6328
1013.555, 109.6543
1014.666, 2.304688
1015.777, 40.48438
1016.888, 15.43164
1017.999, 67.46484
1019.110, 122.6953
1020.220, 46.49805
1021.331, 149.9629
1022.441, 54.00391
1023.551, 68.95898
1024.661, 222.0117
1025.770, 130.9707
1026.880, 17.30469
1027.989, 220.6152
1029.098, 193.1602
1030.207, 285.0469
1031.316, 259.6934
1032.425, 252.5625
1033.533, 97.42188
1034.642, 193.1699
1035.750, 177.6797
1036.858, 215.6934
1037.966, 255.8828
1039.073, 282.6055
1040.181, 16.39453
1041.288, 7.832031
1042.396, 82.38477
1043.503, 269.6875
1044.610, 220.5566
1045.716, 129.9297
1046.823, 217.2324
1047.929, 235.5176
1049.036, 254.1465
1050.142, 102.8066
1051.248, 228.0254
1052.353, 226.2656
1053.459, 86.84961
1054.564, 217.4219
1055.670, 174.0293
1056.775, 351.9648
1057.880, 223.3223
1058.985, 177.8535
1060.089, 280.3730
1061.194, 437.8789
1062.298, 364.9512
1063.402, 297.4375
1064.506, 305.4531
1065.610, 366.8145
1066.713, 228.2695
1067.817, 84.63281
1068.920, 245.0625
1070.023, 317.0215
1071.126, 252.3477
1072.229, 176.5781
1073.332, 97.47852
1074.435, 334.8809
1075.537, 281.2734
1076.639, 455.3789
1077.741, 307.8926
1078.843, 378.6992
1079.945, 1042.055
1081.046, 1557.217
1082.148, 2645.562
1083.249, 3702.246
1084.350, 6593.379
1085.451, 12788.09
1086.551, 24873.38
1087.652, 29131.66
1088.752, 19390.96
1089.853, 8619.262
1090.953, 3336.281
1092.053, 1394.393
1093.152, 726.6816
1094.252, 554.9648
1095.351, 672.7441
1096.451, 427.3691
1097.550, 338.6426
1098.649, 264.8652
1099.748, 143.9141
1100.846, 39.16602
1101.945, 162.0039
1103.043, 312.2363
1104.141, 182.3652
1105.239, 127.5840
1106.337, 243.6387
1107.434, 118.5918
1108.532, 230.7910
1109.629, 236.6680
1110.726, 311.8477
1111.823, 36.02734
1112.920, 5.849609
1114.017, 26.99219
1115.113, 242.8301
1116.210, 35.03711
1117.306, 61.38281
1118.402, 274.4863
1119.498, 147.1016
1120.593, 283.1895
1121.689, 259.8730
1122.784, 72.93945
1123.879, 145.6387
1124.974, 255.0098
1126.069, 169.0645
1127.164, 68.84766
1128.259, 400.8691
1129.353, 79.80664
1130.447, 161.6621
1131.541, 257.3105
1132.635, 208.6055
1133.729, 99.64258
1134.822, 192.7246
1135.916, 190.0527
1137.009, 157.0117
1138.102, 212.7930
1139.195, 302.6914
1140.288, 276.6816
1141.380, 345.8262
1142.473, 242.8203
1143.565, 176.8145
1144.657, 56.80078
1145.749, 248.5957
1146.841, 194.9102
1147.932, 194.4316
1149.024, 234.4648
1150.115, 88.87695
1151.206, 218.2324
1152.297, 109.7852
1153.388, 111.7676
1154.479, 16.65625
1155.569, 298.2734
1156.659, 189.2246
1157.750, 71.09961
1158.839, 331.3066
1159.929, 78.36133
1161.019, 337.3281
1162.108, 79.28711
1163.198, 154.2539
1164.287, 239.2207
1165.376, 268.0312
1166.465, 329.1328
1167.553, 275.7520
1168.642, 120.0625
1169.730, 153.0312
1170.818, 209.9961
1171.906, 198.4453
1172.994, 340.4082
1174.082, 59.76562
1175.170, 375.7148
1176.257, 29.66016
1177.344, 203.5801
1178.431, 238.5215
1179.518, 203.4648
1180.605, 51.39844
1181.691, 58.19727
1182.778, 186.1270
1183.864, 185.0527
1184.950, 167.7812
1186.036, 2.742188
1187.122, 296.7031
1188.207, 122.3418
1189.292, 121.5488
1190.378, 165.4395
1191.463, 340.3203
1192.548, 188.2207
1193.632, 373.1270
1194.717, 55.03320
1195.801, 45.05859
1196.886, 137.0098
1197.970, 123.1914
1199.054, 62.35938
1200.137, 194.2363
1201.221, 116.1445
1202.305, 54.01562
1203.388, 49.11914
1204.471, 174.5898
1205.554, 280.4277
1206.637, 124.2578
1207.719, 67.08398
1208.802, 115.9043
1209.884, 197.7246
1210.966, 177.5391
1212.048, 111.3516
1213.130, 212.1602
1214.212, 186.0527
1215.293, 345.0176
1216.374, 225.8301
1217.456, 158.6406
1218.536, 301.4453
1219.617, 151.2480
1220.698, 222.1250
1221.778, 411.9199
1222.859, 180.7090
1223.939, 338.4961
1225.019, 123.7207
1226.099, 76.99219
1227.178, 176.0723
1228.258, 27.10547
1229.337, 105.6387
1230.417, 154.5723
1231.496, 245.0332
1232.574, 214.7344
1233.653, 204.4336
1234.732, 272.1250
1235.810, 193.8145
1236.888, 256.0098
1237.966, 238.6895
1239.044, 179.3984
1240.122, 200.0703
1241.199, 258.8047
1242.277, 134.1250
1243.354, 338.6895
1244.431, 99.51172
1245.508, 363.9043
1246.585, 334.8691
1247.661, 347.8965
1248.738, 181.5605
1249.814, 202.4141
1250.890, 112.5293
1251.966, 233.1797
1253.042, 216.9219
1254.117, 25.00000
1255.193, 533.6309
1256.268, 316.0000
1257.343, 223.4355
1258.418, 329.3926
1259.493, 96.88281
1260.567, 44.61719
1261.642, 54.96094
1262.716, 308.5312
1263.790, 103.7285
1264.864, 32.28711
1265.938, 183.2461
1267.011, 142.9355
1268.085, 331.4746
1269.158, 87.00586
1270.231, 292.5352
1271.304, 229.0723
1272.377, 351.2559
1273.450, 425.7812
1274.522, 247.0898
1275.594, 458.6172
1276.666, 452.4883
1277.738, 230.3457
1278.810, 172.8633
1279.882, 8.066406
1280.953, 269.5820
1282.025, 323.5078
1283.096, 344.0195
1284.167, 142.3984
1285.238, 339.0000
1286.308, 238.7227
1287.379, 229.0586
1288.449, 110.5742
1289.519, 359.9844
1290.589, 224.8516
1291.659, 395.2539
1292.729, 343.2148
1293.798, 123.6953
1294.868, 103.2188
1295.937, 266.6836
1297.006, 170.1914
1298.075, 375.6367
1299.143, 204.0781
1300.212, 182.7070
1301.280, 318.1367
1302.348, 188.5664
1303.416, 209.6289
1304.484, 183.0820
1305.552, 183.1406
1306.620, 149.8477
1307.687, 247.3906
1308.754, 369.7852
1309.821, 360.9844
1310.888, 416.6641
1311.955, 338.1055
1313.021, 360.5312
1314.088, 251.8633
1315.154, 275.2578
1316.220, 435.6680
1317.286, 248.7812
1318.352, 316.0742
1319.417, 251.3594
1320.483, 145.6328
1321.548, 461.8867
1322.613, 268.1211
1323.678, 180.6680
1324.743, 108.5469
1325.807, 40.77734
1326.872, 40.58984
1327.936, 216.5547
1329.000, 144.9727
1330.064, 212.1445
1331.128, 157.1172
1332.191, 236.5664
1333.255, 256.5234
1334.318, 263.4453
1335.381, 323.5820
1336.444, 281.5703
1337.507, 285.6953
1338.569, 244.8164
1339.632, 453.9297
1340.694, 422.0352
1341.756, 19.79297
1342.818, 120.2930
1343.880, 205.3672
1344.941, 225.9023
1346.003, 392.1367
1347.064, 393.5859
1348.125, 141.5586
1349.186, 348.5898
1350.247, 428.6211
1351.308, 180.6367
1352.368, 208.1484
1353.428, 313.6562
1354.489, 72.53516
1355.549, 82.51172
1356.608, 0.1445310
1357.668, 105.0859
1358.727, 136.0234
1359.787, 218.2148
1360.846, 313.1367
1361.905, 241.0508
1362.964, 320.9766
1364.022, 39.87500
1365.081, 184.7344
1366.139, 154.5859
1367.197, 237.4336
1368.255, 147.2695
1369.313, 418.0508
1370.371, 75.82812
1371.428, 223.5898
1372.486, 9.312500
1373.543, 7.859375
1374.600, 32.87109
1375.657, 282.9805
1376.713, 125.6992
1377.770, 63.39844
1378.826, 295.0859
1379.882, 109.7656
1380.938, 70.43750
1381.994, 265.6562
1383.050, 19.21484
1384.106, 316.7578
1385.161, 95.29297
1386.216, 172.8164
1387.271, 41.73438
1388.326, 251.0547
1389.381, 347.2695
1390.435, 26.08984
1391.490, 219.6172
1392.544, 79.69922
1393.598, 143.1406
1394.652, 251.5391
1395.705, 382.9336
1396.759, 353.6094
1397.812, 352.6523
1398.866, 37.00391
1399.919, 283.3359
1400.972, 184.1250
1402.024, 316.4766
1403.077, 104.7695
1404.129, 106.2461
1405.181, 231.5078
1406.233, 51.24219
1407.285, 275.4883
1408.337, 90.82031
1409.389, 361.2344
1410.440, 238.2969
1411.491, 171.3906
1412.542, 143.8203
1413.593, 85.11719
1414.644, 232.9023
1415.695, 401.8164
1416.745, 104.8125
1417.795, 446.7891
1418.845, 78.75000
1419.895, 287.8594
1420.945, 5.917969
1421.995, 278.8477
1423.044, 183.9648
1424.093, 419.7539
1425.142, 244.4414
1426.191, 149.7266
1427.240, 205.2031
1428.289, 196.8203
1429.337, 161.5312
1430.385, 129.0781
1431.433, 132.4453
1432.481, 127.6953
1433.529, 165.0859
1434.577, 221.3945
1435.624, 308.6641
1436.672, 68.85938
1437.719, 203.9766
1438.766, 180.0039
1439.812, 146.7344
1440.859, 67.64062
1441.905, 207.7500
1442.952, 337.6680
1443.998, 267.3945
1445.044, 334.6289
1446.090, 354.3945
1447.135, 316.4180
1448.181, 364.5039
1449.226, 80.23828
1450.271, 19.43750
1451.316, 83.64453
1452.361, 167.2852
1453.405, 212.9609
1454.450, 140.6367
1455.494, 224.3047
1456.538, 226.9609
1457.582, 351.6094
1458.626, 65.80469
1459.670, 369.4062
1460.713, 202.9961
1461.757, 454.4844
1462.800, 401.0430
1463.843, 542.6328
1464.886, 528.4727
1465.928, 466.4688
1466.971, 188.3203
1468.013, 292.8906
1469.055, 217.8359
1470.097, 97.33984
1471.139, 169.7852
1472.181, 135.8516
1473.222, 258.4336
1474.263, 373.0977
1475.305, 616.2500
1476.346, 394.0508
1477.386, 93.50781
1478.427, 345.8945
1479.468, 256.7852
1480.508, 206.8398
1481.548, 274.1445
1482.588, 236.4766
1483.628, 213.9844
1484.668, 152.2461
1485.707, 496.4766
1486.747, 232.7344
1487.786, 212.8633
1488.825, 440.9805
1489.864, 264.9609
1490.902, 322.3555
1491.941, 355.3555
1492.979, 379.8906
1494.017, 219.8438
1495.055, 349.0625
1496.093, 460.0664
1497.131, 232.4453
1498.168, 47.94531
1499.206, 433.7422
1500.243, 114.0742
1501.280, 262.4688
1502.317, 269.1328
1503.354, 501.9883
1504.390, 472.6055
1505.426, 559.2266
1506.463, 320.0273
1507.499, 533.2812
1508.535, 339.5664
1509.570, 375.8594
1510.606, 214.1992
1511.641, 567.4258
1512.676, 496.4727
1513.711, 457.1641
1514.746, 106.3164
1515.781, 161.4258
1516.816, 470.1758
1517.850, 188.1602
1518.884, 283.0898
1519.918, 521.8008
1520.952, 95.62109
1521.986, 29.17969
1523.019, 405.6953
1524.053, 337.3281
1525.086, 25.40625
1526.119, 185.0859
1527.152, 418.5742
1528.185, 149.0508
1529.217, 285.6953
1530.250, 609.9531
1531.282, 339.2695
1532.314, 166.5938
1533.346, 142.9844
1534.377, 40.62500
1535.409, 352.8398
1536.440, 5.449219
1537.472, 462.2695
1538.503, 482.0078
1539.534, 277.9805
1540.564, 375.2305
1541.595, 477.3984
1542.625, 427.6055
1543.656, 14.16797
1544.686, 102.6172
1545.716, 292.4375
1546.745, 128.2656
1547.775, 356.2891
1548.804, 283.7422
1549.834, 32.37891
1550.863, 10.85547
1551.892, 243.1523
1552.920, 117.8398
1553.949, 141.6641
1554.977, 319.6094
1556.006, 10.26172
1557.034, 142.2578
1558.062, 311.1680
1559.089, 120.4805
1560.117, 285.0273
1561.144, 182.0898
1562.172, 153.9492
1563.199, 39.20703
1564.226, 6.324219
1565.252, 23.30078
1566.279, 35.88281
1567.305, 66.50000
1568.332, 1.875000
1569.358, 95.02734
1570.384, 262.0273
1571.409, 0.0000000E+00
##END=



