##NAMES=Aragonite
##RRUFFID=R060195
##IDEAL CHEMISTRY=CaCO_3_
##LOCALITY=Cicov Hill, Horenec, Czech Republic
##OWNER=RRUFF
##SOURCE=Marcus Origlieri
##DESCRIPTION=Colorless transparent elongated prismatic crystal
##STATUS=The identification of this mineral has been confirmed by X-ray diffraction and chemical analysis
##URL=rruff.info/R060195
##MEASURED CHEMISTRY=Ca_1.00_CO_3_
##PIN_ID=L01257
##ORIENTATION=Laser parallel to c* (0 0 1). Fiducial mark perpendicular to laser is parallel to a [1 0 0]
100.8830, 0.0000000E+00
102.1160, 4.003906
103.3490, 3.656250
104.5820, 136.9072
105.8150, 20.47168
107.0470, 92.84473
108.2800, 80.85742
109.5120, 211.0742
110.7440, 221.4912
111.9760, 228.3730
113.2080, 272.1641
114.4400, 308.4316
115.6710, 477.8350
116.9030, 449.1006
118.1340, 450.0088
119.3650, 386.3779
120.5960, 363.0537
121.8270, 333.8975
123.0580, 165.7959
124.2880, 224.6445
125.5190, 296.3555
126.7490, 197.8555
127.9790, 308.0811
129.2090, 282.9785
130.4390, 237.4961
131.6680, 389.5938
132.8980, 338.2383
134.1270, 314.3916
135.3560, 467.0244
136.5850, 593.1123
137.8140, 540.6299
139.0430, 587.5410
140.2710, 715.8047
141.5000, 955.3916
142.7280, 1218.283
143.9560, 1520.462
145.1840, 1752.908
146.4120, 2195.607
147.6390, 2299.545
148.8670, 2698.709
150.0940, 3265.094
151.3210, 4131.693
152.5490, 4937.519
153.7750, 6521.562
155.0020, 7593.790
156.2290, 8304.221
157.4550, 8076.828
158.6810, 6970.603
159.9080, 5149.543
161.1340, 3835.674
162.3590, 2757.040
163.5850, 1959.559
164.8110, 1607.219
166.0360, 1221.007
167.2610, 1010.951
168.4860, 707.0391
169.7110, 617.2148
170.9360, 715.7227
172.1610, 576.3105
173.3850, 491.0420
174.6100, 596.8350
175.8340, 592.5635
177.0580, 535.2656
178.2820, 601.9590
179.5050, 614.6729
180.7290, 649.3926
181.9520, 651.9902
183.1760, 808.0840
184.3990, 623.0283
185.6220, 690.0137
186.8450, 656.0420
188.0670, 792.1162
189.2900, 634.2402
190.5120, 758.4160
191.7340, 820.6445
192.9560, 894.9238
194.1780, 927.2559
195.4000, 951.6416
196.6220, 738.1182
197.8430, 720.6826
199.0640, 859.3779
200.2860, 660.1514
201.5070, 716.9883
202.7270, 655.8770
203.9480, 931.4570
205.1690, 873.4404
206.3890, 1102.482
207.6090, 1429.574
208.8290, 1652.726
210.0490, 1855.699
211.2690, 1711.966
212.4890, 1532.346
213.7080, 1453.830
214.9280, 1335.354
216.1470, 1443.914
217.3660, 1598.513
218.5850, 1473.146
219.8030, 1210.817
221.0220, 994.6797
222.2400, 921.4844
223.4590, 652.8447
224.6770, 579.6230
225.8950, 403.0322
227.1120, 304.8779
228.3300, 381.7490
229.5480, 109.6543
230.7650, 280.5898
231.9820, 238.8389
233.1990, 250.3652
234.4160, 180.3828
235.6330, 253.4277
236.8490, 154.7305
238.0660, 160.4795
239.2820, 340.5645
240.4980, 148.6807
241.7140, 288.0439
242.9300, 281.3447
244.1460, 189.9209
245.3610, 219.3164
246.5770, 255.4873
247.7920, 204.4922
249.0070, 164.4355
250.2220, 149.6719
251.4370, 236.1592
252.6510, 127.4883
253.8660, 129.0684
255.0800, 216.8652
256.2940, 1.857422
257.5080, 257.0225
258.7220, 251.3447
259.9360, 169.8105
261.1490, 251.4092
262.3630, 189.5674
263.5760, 400.9170
264.7890, 236.1699
266.0020, 230.9238
267.2150, 379.0654
268.4270, 261.2930
269.6400, 244.6035
270.8520, 296.9922
272.0640, 409.4512
273.2760, 292.9814
274.4880, 333.5762
275.7000, 504.2334
276.9120, 556.2051
278.1230, 357.9805
279.3340, 393.8105
280.5450, 438.6914
281.7560, 320.6230
282.9670, 263.6035
284.1780, 380.6318
285.3880, 364.7021
286.5980, 280.8389
287.8090, 216.9922
289.0190, 354.1836
290.2290, 301.4131
291.4380, 263.3721
292.6480, 264.6738
293.8570, 143.0166
295.0670, 201.5547
296.2760, 165.6543
297.4850, 25.32910
298.6930, 23.97949
299.9020, 114.5430
301.1110, 126.1338
302.3190, 174.7520
303.5270, 97.91602
304.7350, 59.41699
305.9430, 42.26953
307.1510, 38.97754
308.3580, 56.60547
309.5660, 88.35645
310.7730, 20.12695
311.9800, 86.91699
313.1870, 79.20703
314.3940, 1.033203
315.6010, 46.87695
316.8070, 28.36719
318.0130, 10.15430
319.2200, 22.62305
320.4260, 9.294922
321.6310, 103.4912
322.8370, 119.4219
324.0430, 143.1807
325.2480, 114.1396
326.4540, 145.6533
327.6590, 85.10059
328.8640, 155.1035
330.0680, 75.12012
331.2730, 21.14844
332.4780, 163.1895
333.6820, 35.24316
334.8860, 44.30859
336.0900, 120.3838
337.2940, 4.472656
338.4980, 80.41504
339.7010, 113.7061
340.9050, 197.8408
342.1080, 58.01562
343.3110, 130.1289
344.5140, 22.17090
345.7170, 10.99023
346.9200, 94.16016
348.1220, 20.66211
349.3240, 102.5127
350.5270, 1.694336
351.7290, 122.8828
352.9310, 132.0781
354.1320, 174.3428
355.3340, 112.7461
356.5350, 85.95508
357.7370, 114.1699
358.9380, 149.3887
360.1390, 8.387695
361.3400, 38.83887
362.5400, 18.21191
363.7410, 58.55371
364.9410, 32.67383
366.1410, 19.88965
367.3410, 46.10059
368.5410, 183.3105
369.7410, 89.47559
370.9400, 33.72168
372.1400, 16.08008
373.3390, 159.1182
374.5380, 5.317383
375.7370, 15.08984
376.9360, 15.29102
378.1350, 50.82129
379.3330, 26.25195
380.5310, 85.46875
381.7300, 12.27344
382.9280, 8.083984
384.1260, 28.89648
385.3230, 45.28418
386.5210, 90.44629
387.7180, 23.38281
388.9160, 89.77734
390.1130, 26.93066
391.3100, 238.0840
392.5060, 59.25684
393.7030, 140.4492
394.9000, 95.65723
396.0960, 59.09277
397.2920, 118.3291
398.4880, 86.57520
399.6840, 215.8320
400.8800, 124.0918
402.0750, 142.3662
403.2710, 60.64844
404.4660, 90.93555
405.6610, 112.7676
406.8560, 0.6826170
408.0510, 6.219727
409.2450, 2.534180
410.4400, 143.1533
411.6340, 144.3984
412.8280, 35.77930
414.0220, 220.0293
415.2160, 208.2832
416.4100, 44.53809
417.6030, 58.79395
418.7970, 208.0498
419.9900, 13.57520
421.1830, 98.87109
422.3760, 145.1250
423.5690, 126.3779
424.7610, 141.9473
425.9540, 195.3799
427.1460, 75.84766
428.3380, 93.17676
429.5300, 29.45312
430.7220, 61.69531
431.9140, 196.9346
433.1050, 39.17090
434.2970, 81.32812
435.4880, 105.8525
436.6790, 234.7949
437.8700, 70.03223
439.0610, 8.028320
440.2510, 26.07520
441.4420, 13.79297
442.6320, 57.50586
443.8220, 82.86328
445.0120, 90.01758
446.2020, 26.07520
447.3910, 248.1211
448.5810, 67.05371
449.7700, 88.08984
450.9600, 2.878906
452.1490, 173.1260
453.3370, 99.12402
454.5260, 70.11621
455.7150, 32.09961
456.9030, 63.07031
458.0910, 101.0244
459.2800, 33.01855
460.4670, 89.45312
461.6550, 184.2480
462.8430, 207.1592
464.0300, 68.88965
465.2180, 275.9385
466.4050, 60.24219
467.5920, 166.5166
468.7790, 181.2676
469.9650, 173.3467
471.1520, 247.6445
472.3380, 170.3662
473.5250, 84.08008
474.7110, 144.7852
475.8970, 109.4893
477.0820, 105.0742
478.2680, 110.8682
479.4540, 81.54395
480.6390, 160.4150
481.8240, 100.6816
483.0090, 184.6855
484.1940, 268.3164
485.3780, 108.1914
486.5630, 0.7578130
487.7470, 211.3027
488.9320, 118.0312
490.1160, 146.5957
491.3000, 254.6387
492.4830, 179.1855
493.6670, 127.7109
494.8500, 211.2324
496.0340, 71.74219
497.2170, 63.23828
498.4000, 187.7227
499.5820, 201.4395
500.7650, 251.9023
501.9480, 134.3574
503.1300, 178.7754
504.3120, 12.26367
505.4940, 233.6621
506.6760, 198.7871
507.8580, 127.1797
509.0390, 112.8008
510.2210, 137.1699
511.4020, 119.7656
512.5830, 123.5625
513.7640, 144.7773
514.9450, 91.44336
516.1250, 144.7500
517.3060, 52.04883
518.4860, 90.33398
519.6660, 30.65820
520.8460, 64.11719
522.0260, 208.0430
523.2060, 147.3691
524.3850, 296.9766
525.5650, 145.6719
526.7440, 103.4980
527.9230, 293.6602
529.1020, 426.3379
530.2810, 306.2480
531.4590, 261.5195
532.6380, 155.6992
533.8160, 281.7988
534.9940, 131.8828
536.1720, 147.0312
537.3500, 79.08789
538.5270, 202.1270
539.7050, 205.1523
540.8820, 100.1582
542.0590, 240.1523
543.2360, 332.1289
544.4130, 298.0918
545.5900, 190.0391
546.7660, 274.2227
547.9430, 39.71289
549.1190, 37.10156
550.2950, 132.6719
551.4710, 68.82617
552.6470, 448.8164
553.8220, 87.63867
554.9980, 306.4473
556.1730, 253.4355
557.3480, 174.2344
558.5230, 250.0137
559.6980, 178.7793
560.8730, 83.52539
562.0470, 108.0059
563.2220, 193.7344
564.3960, 178.4473
565.5700, 106.1426
566.7440, 76.81836
567.9170, 90.50781
569.0910, 107.1172
570.2640, 119.7402
571.4380, 228.3203
572.6110, 220.9102
573.7840, 310.4805
574.9570, 91.03320
576.1290, 151.8809
577.3020, 25.40234
578.4740, 206.8887
579.6460, 51.19922
580.8180, 132.9551
581.9900, 51.77344
583.1620, 103.5508
584.3330, 79.71875
585.5040, 105.5352
586.6760, 183.5781
587.8470, 211.5938
589.0180, 118.8887
590.1880, 228.7637
591.3590, 135.9316
592.5290, 188.1875
593.7000, 184.5664
594.8700, 284.6875
596.0400, 134.7910
597.2090, 169.3945
598.3790, 171.4824
599.5490, 160.2285
600.7180, 152.3379
601.8870, 143.3125
603.0560, 132.4688
604.2250, 121.9355
605.3940, 152.7070
606.5620, 145.6816
607.7300, 198.0195
608.8990, 219.9590
610.0670, 68.03516
611.2350, 53.02734
612.4020, 141.9766
613.5700, 199.8438
614.7370, 226.0410
615.9050, 242.0938
617.0720, 269.9121
618.2390, 237.7793
619.4060, 218.0156
620.5720, 16.21094
621.7390, 0.4589840
622.9050, 70.24414
624.0710, 233.9277
625.2370, 222.6016
626.4030, 66.86719
627.5690, 212.9746
628.7340, 105.3887
629.9000, 161.0098
631.0650, 159.1152
632.2300, 260.7070
633.3950, 207.3945
634.5600, 305.9492
635.7240, 247.6250
636.8890, 240.3398
638.0530, 184.7637
639.2170, 88.84180
640.3810, 203.9805
641.5450, 245.3398
642.7080, 92.86523
643.8720, 135.2852
645.0350, 312.5488
646.1980, 161.9434
647.3610, 157.3887
648.5240, 96.18750
649.6870, 157.5332
650.8490, 97.01172
652.0120, 150.0098
653.1740, 91.63086
654.3360, 218.9258
655.4980, 207.4141
656.6600, 181.7969
657.8210, 252.8574
658.9830, 145.0898
660.1440, 106.3535
661.3050, 26.35938
662.4660, 50.20703
663.6270, 147.9062
664.7870, 366.0117
665.9480, 146.1152
667.1080, 214.3984
668.2680, 24.51953
669.4280, 297.3047
670.5880, 125.8594
671.7480, 144.8672
672.9070, 320.3789
674.0670, 199.3516
675.2260, 143.3027
676.3850, 206.4180
677.5440, 252.1230
678.7030, 284.0215
679.8610, 320.8633
681.0200, 325.5781
682.1780, 314.6113
683.3360, 300.4395
684.4940, 174.2461
685.6520, 104.3926
686.8090, 349.3125
687.9670, 314.8867
689.1240, 175.6758
690.2810, 187.4570
691.4380, 127.7480
692.5950, 345.8613
693.7520, 396.9121
694.9080, 126.2578
696.0650, 474.0332
697.2210, 338.6777
698.3770, 460.3672
699.5330, 763.0176
700.6880, 967.5234
701.8440, 1447.520
702.9990, 1616.178
704.1550, 1992.715
705.3100, 1923.371
706.4650, 1998.762
707.6190, 2213.033
708.7740, 1761.633
709.9290, 1462.049
711.0830, 787.4746
712.2370, 488.8848
713.3910, 273.5625
714.5450, 213.9844
715.6980, 500.6699
716.8520, 407.5254
718.0050, 204.8906
719.1580, 308.3574
720.3110, 154.6992
721.4640, 162.9863
722.6170, 171.5176
723.7700, 43.52539
724.9220, 24.71094
726.0740, 216.4219
727.2260, 61.66016
728.3780, 32.83008
729.5300, 227.0273
730.6810, 335.2207
731.8330, 101.8340
732.9840, 319.0020
734.1350, 220.1523
735.2860, 242.2852
736.4370, 192.2305
737.5880, 36.35547
738.7380, 159.4512
739.8880, 96.68164
741.0390, 122.7617
742.1890, 307.8223
743.3380, 150.1016
744.4880, 290.1680
745.6380, 118.2129
746.7870, 407.3984
747.9360, 129.5410
749.0850, 144.2500
750.2340, 149.7090
751.3830, 183.7129
752.5310, 82.69727
753.6800, 15.32812
754.8280, 270.0078
755.9760, 149.9180
757.1240, 59.64648
758.2720, 235.5195
759.4190, 158.1738
760.5670, 170.0742
761.7140, 181.5645
762.8610, 258.8047
764.0080, 22.58203
765.1550, 223.7578
766.3020, 22.78516
767.4480, 192.5859
768.5950, 50.32031
769.7410, 262.1230
770.8870, 136.8203
772.0330, 216.4980
773.1780, 132.1602
774.3240, 103.5898
775.4690, 136.8027
776.6140, 39.41016
777.7590, 30.01172
778.9040, 12.69727
780.0490, 144.8633
781.1940, 311.2734
782.3380, 206.1484
783.4820, 62.35742
784.6260, 150.0762
785.7700, 61.49219
786.9140, 185.9727
788.0580, 129.6992
789.2010, 205.8203
790.3450, 207.7070
791.4880, 175.3359
792.6310, 115.9395
793.7730, 17.09375
794.9160, 74.84375
796.0590, 288.0801
797.2010, 72.53906
798.3430, 70.60938
799.4850, 289.8809
800.6270, 294.9668
801.7690, 254.6113
802.9100, 270.1680
804.0520, 116.7656
805.1930, 164.5215
806.3340, 11.00586
807.4750, 37.36523
808.6160, 277.9023
809.7560, 37.85938
810.8970, 199.8633
812.0370, 163.8496
813.1770, 115.7402
814.3170, 240.6914
815.4570, 332.6270
816.5960, 256.5469
817.7360, 277.4492
818.8750, 203.3340
820.0140, 222.2012
821.1530, 253.0547
822.2920, 73.89453
823.4310, 21.54102
824.5690, 259.2578
825.7070, 83.02930
826.8460, 150.7930
827.9840, 184.5293
829.1220, 63.20703
830.2590, 41.91211
831.3970, 62.23828
832.5340, 130.2070
833.6710, 220.8164
834.8080, 142.4082
835.9450, 147.1426
837.0820, 7.298828
838.2190, 27.74219
839.3550, 131.8496
840.4910, 355.4512
841.6270, 106.9648
842.7630, 79.68750
843.8990, 154.1152
845.0350, 104.5234
846.1700, 207.9160
847.3060, 204.2930
848.4410, 173.6523
849.5760, 87.15039
850.7100, 79.47656
851.8450, 82.87695
852.9800, 92.83789
854.1140, 149.8574
855.2480, 197.1191
856.3820, 267.8633
857.5160, 261.9844
858.6500, 48.60156
859.7830, 206.8652
860.9170, 161.5430
862.0500, 43.96289
863.1830, 221.1758
864.3160, 238.9551
865.4480, 287.6562
866.5810, 157.7578
867.7130, 53.90430
868.8460, 216.8340
869.9780, 195.9473
871.1100, 279.0391
872.2410, 63.83008
873.3730, 289.1895
874.5050, 161.5215
875.6360, 127.7988
876.7670, 321.7793
877.8980, 307.6094
879.0290, 90.54883
880.1590, 182.6719
881.2900, 264.5762
882.4200, 136.6113
883.5500, 143.4824
884.6800, 161.1855
885.8100, 196.1992
886.9400, 200.9551
888.0690, 193.7617
889.1990, 160.4102
890.3280, 63.96289
891.4570, 347.7949
892.5860, 1.462891
893.7140, 265.1875
894.8430, 163.2773
895.9710, 94.95508
897.1000, 152.8594
898.2280, 9.210938
899.3560, 15.49023
900.4830, 190.2012
901.6110, 98.82422
902.7380, 110.6484
903.8660, 205.4824
904.9930, 140.5508
906.1200, 319.1016
907.2460, 250.8652
908.3730, 289.3848
909.5000, 77.75000
910.6260, 153.9766
911.7520, 307.3242
912.8780, 99.18750
914.0040, 129.9512
915.1290, 18.46094
916.2550, 129.7695
917.3800, 56.37305
918.5050, 201.7305
919.6300, 348.1406
920.7550, 257.4023
921.8800, 77.27539
923.0040, 70.75391
924.1290, 190.8750
925.2530, 20.23242
926.3770, 19.52148
927.5010, 82.78906
928.6250, 5.833984
929.7480, 3.947266
930.8720, 305.7793
931.9950, 80.97266
933.1180, 131.7617
934.2410, 0.4726560
935.3640, 21.68945
936.4860, 24.01367
937.6090, 42.83594
938.7310, 24.26758
939.8530, 6.179688
940.9750, 3.232422
942.0970, 79.21680
943.2180, 7.060547
944.3400, 181.0938
945.4610, 251.5898
946.5820, 218.5938
947.7030, 291.5840
948.8240, 257.3789
949.9450, 274.3398
951.0650, 235.2988
952.1860, 241.4531
953.3060, 184.1719
954.4260, 217.0898
955.5460, 215.9922
956.6650, 146.8809
957.7850, 156.4004
958.9040, 141.1133
960.0230, 318.9609
961.1420, 143.4805
962.2610, 244.2676
963.3800, 119.0703
964.4990, 298.4629
965.6170, 104.7539
966.7350, 255.8516
967.8530, 193.4824
968.9710, 199.2168
970.0890, 101.8789
971.2070, 143.5430
972.3240, 134.0508
973.4410, 114.3066
974.5580, 107.8691
975.6750, 124.5371
976.7920, 69.96680
977.9090, 176.6211
979.0250, 158.2246
980.1410, 153.6348
981.2580, 268.1895
982.3740, 174.7617
983.4890, 99.44727
984.6050, 196.7070
985.7200, 89.92188
986.8360, 118.2949
987.9510, 78.28125
989.0660, 142.6250
990.1810, 18.10352
991.2950, 63.56445
992.4100, 123.0117
993.5240, 332.0039
994.6390, 398.4238
995.7530, 370.7461
996.8660, 294.9414
997.9800, 221.3301
999.0940, 83.70703
1000.207, 55.92383
1001.320, 322.4082
1002.433, 122.2910
1003.546, 337.5879
1004.659, 171.8887
1005.772, 73.82422
1006.884, 314.6035
1007.996, 151.6719
1009.108, 55.90625
1010.220, 58.97461
1011.332, 27.84180
1012.444, 321.3125
1013.555, 65.16797
1014.666, 350.2930
1015.777, 80.58789
1016.888, 202.3594
1017.999, 176.3262
1019.110, 63.35547
1020.220, 359.3828
1021.331, 152.3984
1022.441, 76.44922
1023.551, 176.4336
1024.661, 106.0176
1025.770, 158.0000
1026.880, 14.13672
1027.989, 30.09375
1029.098, 267.0293
1030.207, 81.93555
1031.316, 72.96680
1032.425, 116.5938
1033.533, 68.33203
1034.642, 223.5215
1035.750, 165.1055
1036.858, 30.26758
1037.966, 193.5410
1039.073, 195.2500
1040.181, 43.03516
1041.288, 241.8105
1042.396, 148.5762
1043.503, 242.9824
1044.610, 213.7012
1045.716, 173.4355
1046.823, 297.9062
1047.929, 134.5039
1049.036, 126.5898
1050.142, 69.17188
1051.248, 171.4336
1052.353, 104.1152
1053.459, 191.8086
1054.564, 141.4941
1055.670, 77.84961
1056.775, 329.1660
1057.880, 97.98633
1058.985, 249.5996
1060.089, 404.6680
1061.194, 157.3555
1062.298, 268.2930
1063.402, 242.2266
1064.506, 256.8340
1065.610, 298.5781
1066.713, 174.3613
1067.817, 7.488281
1068.920, 156.0996
1070.023, 179.8848
1071.126, 238.0410
1072.229, 367.3301
1073.332, 390.2363
1074.435, 376.8594
1075.537, 171.3027
1076.639, 467.1992
1077.741, 554.7227
1078.843, 713.2422
1079.945, 1344.893
1081.046, 2741.393
1082.148, 4647.885
1083.249, 5149.771
1084.350, 7525.244
1085.451, 14372.18
1086.551, 26681.64
1087.652, 32331.22
1088.752, 23598.66
1089.853, 11002.33
1090.953, 4266.758
1092.053, 1581.164
1093.152, 1132.578
1094.252, 516.9746
1095.351, 566.3730
1096.451, 414.6543
1097.550, 390.0391
1098.649, 355.2109
1099.748, 255.9160
1100.846, 244.4785
1101.945, 289.8516
1103.043, 175.3301
1104.141, 227.6875
1105.239, 118.0801
1106.337, 253.3379
1107.434, 123.5605
1108.532, 371.8496
1109.629, 42.90430
1110.726, 135.2324
1111.823, 269.5527
1112.920, 174.8652
1114.017, 239.3418
1115.113, 95.47070
1116.210, 186.6055
1117.306, 129.8887
1118.402, 52.24414
1119.498, 206.4414
1120.593, 15.47070
1121.689, 243.7246
1122.784, 157.4785
1123.879, 183.4141
1124.974, 134.5938
1126.069, 320.8496
1127.164, 86.09375
1128.259, 250.3340
1129.353, 130.5645
1130.447, 133.7910
1131.541, 182.0801
1132.635, 118.3535
1133.729, 147.5605
1134.822, 251.7109
1135.916, 130.1543
1137.009, 169.3379
1138.102, 324.4648
1139.195, 5.345703
1140.288, 113.8320
1141.380, 205.6973
1142.473, 200.5703
1143.565, 228.7910
1144.657, 120.8320
1145.749, 196.7129
1146.841, 138.8516
1147.932, 142.8398
1149.024, 188.9629
1150.115, 231.4590
1151.206, 224.3047
1152.297, 278.4121
1153.388, 102.5098
1154.479, 177.4121
1155.569, 152.5195
1156.659, 290.5430
1157.750, 309.6445
1158.839, 144.2754
1159.929, 29.00977
1161.019, 64.92383
1162.108, 79.92188
1163.198, 14.27539
1164.287, 199.8145
1165.376, 202.2441
1166.465, 287.2656
1167.553, 434.2812
1168.642, 126.4785
1169.730, 157.4844
1170.818, 203.4863
1171.906, 223.1387
1172.994, 234.2188
1174.082, 283.3828
1175.170, 224.3633
1176.257, 160.3359
1177.344, 121.3281
1178.431, 116.8906
1179.518, 150.2480
1180.605, 154.2051
1181.691, 227.0566
1182.778, 285.0312
1183.864, 199.9219
1184.950, 109.8867
1186.036, 210.8477
1187.122, 171.6191
1188.207, 69.56836
1189.292, 183.5840
1190.378, 299.2598
1191.463, 24.09961
1192.548, 337.9395
1193.632, 307.7773
1194.717, 116.6133
1195.801, 4.500000
1196.886, 43.32227
1197.970, 65.59570
1199.054, 93.08008
1200.137, 5.097656
1201.221, 351.2070
1202.305, 48.95312
1203.388, 197.9863
1204.471, 136.7891
1205.554, 67.58984
1206.637, 199.3867
1207.719, 180.1758
1208.802, 297.1602
1209.884, 81.93945
1210.966, 246.7129
1212.048, 301.9570
1213.130, 35.28320
1214.212, 342.4512
1215.293, 4.179688
1216.374, 365.9004
1217.456, 83.61133
1218.536, 200.3223
1219.617, 58.02344
1220.698, 114.7500
1221.778, 181.4414
1222.859, 280.1230
1223.939, 269.8047
1225.019, 199.4766
1226.099, 138.6289
1227.178, 163.2949
1228.258, 74.95312
1229.337, 92.60547
1230.417, 74.11914
1231.496, 212.0566
1232.574, 52.10742
1233.653, 120.7305
1234.732, 103.5605
1235.810, 353.1387
1236.888, 292.8125
1237.966, 160.6523
1239.044, 448.9297
1240.122, 328.4414
1241.199, 303.0586
1242.277, 231.6367
1243.354, 444.5664
1244.431, 297.1328
1245.508, 414.5664
1246.585, 145.1250
1247.661, 55.78125
1248.738, 392.0117
1249.814, 118.5547
1250.890, 278.6289
1251.966, 203.1758
1253.042, 144.7500
1254.117, 281.4375
1255.193, 174.9609
1256.268, 252.4648
1257.343, 308.8047
1258.418, 436.4297
1259.493, 231.6328
1260.567, 61.11719
1261.642, 344.9453
1262.716, 574.4141
1263.790, 223.8867
1264.864, 44.64453
1265.938, 375.7891
1267.011, 154.2109
1268.085, 131.6523
1269.158, 488.3789
1270.231, 229.3828
1271.304, 185.8203
1272.377, 382.2305
1273.450, 245.6484
1274.522, 255.0547
1275.594, 240.4531
1276.666, 82.84766
1277.738, 217.2539
1278.810, 40.74219
1279.882, 306.1328
1280.953, 161.5156
1282.025, 215.8906
1283.096, 420.4688
1284.167, 387.6445
1285.238, 453.5000
1286.308, 471.6797
1287.379, 432.5234
1288.449, 356.4531
1289.519, 428.7891
1290.589, 188.1836
1291.659, 312.3672
1292.729, 109.5781
1293.798, 124.8906
1294.868, 408.2148
1295.937, 260.5312
1297.006, 35.10547
1298.075, 233.4141
1299.143, 315.7148
1300.212, 172.0117
1301.280, 74.30078
1302.348, 155.5781
1303.416, 334.8438
1304.484, 313.1055
1305.552, 134.3633
1306.620, 430.6094
1307.687, 185.8477
1308.754, 339.2344
1309.821, 122.7148
1310.888, 314.2969
1311.955, 611.5156
1313.021, 233.3477
1314.088, 501.5508
1315.154, 380.7383
1316.220, 315.9258
1317.286, 475.9375
1318.352, 257.8281
1319.417, 527.9883
1320.483, 291.0938
1321.548, 236.5898
1322.613, 174.9922
1323.678, 127.1133
1324.743, 279.7617
1325.807, 106.2344
1326.872, 409.2617
1327.936, 432.3906
1329.000, 30.69922
1330.064, 266.7305
1331.128, 117.5078
1332.191, 410.5312
1333.255, 313.5508
1334.318, 240.3672
1335.381, 236.3789
1336.444, 104.3828
1337.507, 252.3867
1338.569, 175.2383
1339.632, 38.23047
1340.694, 227.2188
1341.756, 388.7969
1342.818, 286.9180
1343.880, 372.6367
1344.941, 281.7695
1346.003, 477.5898
1347.064, 379.5430
1348.125, 145.2461
1349.186, 358.1758
1350.247, 156.3867
1351.308, 224.7305
1352.368, 326.9961
1353.428, 39.87500
1354.489, 255.8281
1355.549, 352.6875
1356.608, 195.3711
1357.668, 116.1172
1358.727, 220.7812
1359.787, 57.62109
1360.846, 191.1797
1361.905, 107.0078
1362.964, 159.7852
1364.022, 142.6055
1365.081, 98.86719
1366.139, 14.22656
1367.197, 94.99609
1368.255, 153.2422
1369.313, 305.9648
1370.371, 76.67969
1371.428, 266.3867
1372.486, 166.0898
1373.543, 386.7891
1374.600, 0.5156250
1375.657, 202.8945
1376.713, 244.1875
1377.770, 162.8516
1378.826, 159.5234
1379.882, 153.1406
1380.938, 123.7461
1381.994, 93.65234
1383.050, 385.9102
1384.106, 296.4961
1385.161, 134.0312
1386.216, 17.55859
1387.271, 293.0742
1388.326, 81.20703
1389.381, 305.6133
1390.435, 215.9727
1391.490, 283.3242
1392.544, 236.4180
1393.598, 367.7539
1394.652, 197.0859
1395.705, 130.4062
1396.759, 31.71484
1397.812, 161.0156
1398.866, 180.3008
1399.919, 202.5742
1400.972, 244.7891
1402.024, 227.8789
1403.077, 226.3125
1404.129, 236.3398
1405.181, 146.5586
1406.233, 220.3828
1407.285, 183.6016
1408.337, 309.7852
1409.389, 48.63281
1410.440, 12.50781
1411.491, 50.63281
1412.542, 110.7539
1413.593, 353.8477
1414.644, 55.07422
1415.695, 246.9766
1416.745, 99.48828
1417.795, 237.5430
1418.845, 162.5859
1419.895, 285.5117
1420.945, 214.4961
1421.995, 348.5273
1423.044, 110.7773
1424.093, 184.6680
1425.142, 235.5156
1426.191, 260.5195
1427.240, 234.5156
1428.289, 443.2422
1429.337, 364.2227
1430.385, 203.1953
1431.433, 469.1680
1432.481, 210.1133
1433.529, 324.9648
1434.577, 144.3438
1435.624, 75.82031
1436.672, 93.91406
1437.719, 180.6758
1438.766, 44.42188
1439.812, 216.1562
1440.859, 382.8672
1441.905, 338.9336
1442.952, 188.5117
1443.998, 118.9102
1445.044, 205.1992
1446.090, 4.378906
1447.135, 95.39844
1448.181, 113.3555
1449.226, 307.1445
1450.271, 185.5977
1451.316, 128.3203
1452.361, 148.4844
1453.405, 135.0820
1454.450, 245.7812
1455.494, 39.73047
1456.538, 330.9570
1457.582, 295.1211
1458.626, 279.8125
1459.670, 381.5000
1460.713, 347.1797
1461.757, 532.8203
1462.800, 621.4844
1463.843, 581.8633
1464.886, 412.2344
1465.928, 469.6797
1466.971, 327.8242
1468.013, 151.1953
1469.055, 134.7344
1470.097, 146.2188
1471.139, 391.4453
1472.181, 187.5938
1473.222, 592.1719
1474.263, 413.3477
1475.305, 123.9023
1476.346, 91.42188
1477.386, 109.6758
1478.427, 322.9570
1479.468, 165.2031
1480.508, 279.6641
1481.548, 229.5859
1482.588, 343.9961
1483.628, 236.4414
1484.668, 205.6758
1485.707, 374.2305
1486.747, 515.6680
1487.786, 187.1055
1488.825, 370.5469
1489.864, 382.8672
1490.902, 272.3164
1491.941, 333.9531
1492.979, 75.15625
1494.017, 405.0742
1495.055, 403.8125
1496.093, 234.9375
1497.131, 422.1406
1498.168, 438.8984
1499.206, 347.0977
1500.243, 389.3047
1501.280, 60.50781
1502.317, 467.7188
1503.354, 529.9336
1504.390, 254.4492
1505.426, 506.7969
1506.463, 557.6211
1507.499, 481.6055
1508.535, 176.0977
1509.570, 379.4922
1510.606, 361.1797
1511.641, 190.1875
1512.676, 722.4414
1513.711, 307.6875
1514.746, 252.6602
1515.781, 581.0391
1516.816, 317.3711
1517.850, 226.6445
1518.884, 433.8711
1519.918, 379.0391
1520.952, 358.2773
1521.986, 470.9102
1523.019, 243.8867
1524.053, 275.1172
1525.086, 160.9805
1526.119, 431.7070
1527.152, 334.6094
1528.185, 415.4414
1529.217, 241.1992
1530.250, 248.8359
1531.282, 154.4102
1532.314, 313.9922
1533.346, 61.15234
1534.377, 492.8555
1535.409, 288.4648
1536.440, 157.9805
1537.472, 641.1875
1538.503, 371.5859
1539.534, 225.0938
1540.564, 35.60547
1541.595, 389.8281
1542.625, 492.5586
1543.656, 328.8047
1544.686, 207.1914
1545.716, 278.5625
1546.745, 109.9609
1547.775, 160.4023
1548.804, 135.9492
1549.834, 235.5859
1550.863, 498.2812
1551.892, 241.9023
1552.920, 438.1211
1553.949, 221.0312
1554.977, 290.0820
1556.006, 273.4453
1557.034, 316.4609
1558.062, 16.84375
1559.089, 552.6836
1560.117, 149.4609
1561.144, 246.7812
1562.172, 369.8828
1563.199, 302.5352
1564.226, 260.1172
1565.252, 27.92188
1566.279, 101.8672
1567.305, 342.5195
1568.332, 0.8906250
1569.358, 132.8281
1570.384, 6.285156
1571.409, 0.0000000E+00
##END=



