##NAMES=Aragonite
##RRUFFID=R060195
##IDEAL CHEMISTRY=CaCO_3_
##LOCALITY=Cicov Hill, Horenec, Czech Republic
##OWNER=RRUFF
##SOURCE=Marcus Origlieri
##DESCRIPTION=Colorless transparent elongated prismatic crystal
##STATUS=The identification of this mineral has been confirmed by X-ray diffraction and chemical analysis
##URL=rruff.info/R060195
##MEASURED CHEMISTRY=Ca_1.00_CO_3_
##PIN_ID=L01088
##ORIENTATION=Laser parallel to b* (0 1 0). Fiducial mark perpendicular to laser is parallel to c [0 0 1]
100.8830, 0.0000000E+00
102.1160, 39.67578
103.3490, 83.58691
104.5820, 39.20996
105.8150, 131.2207
107.0470, 115.2930
108.2800, 8.991211
109.5120, 156.5928
110.7440, 2.499023
111.9760, 57.33887
113.2080, 143.8047
114.4400, 46.66016
115.6710, 157.7188
116.9030, 136.8320
118.1340, 186.8789
119.3650, 260.7578
120.5960, 113.3867
121.8270, 213.6885
123.0580, 123.5957
124.2880, 171.0566
125.5190, 153.0176
126.7490, 233.4395
127.9790, 138.2861
129.2090, 272.5254
130.4390, 197.1299
131.6680, 233.0732
132.8980, 304.3350
134.1270, 340.8984
135.3560, 211.7510
136.5850, 484.8799
137.8140, 379.2676
139.0430, 477.8887
140.2710, 673.7256
141.5000, 843.7598
142.7280, 1223.980
143.9560, 1414.373
145.1840, 1592.927
146.4120, 1407.635
147.6390, 1241.490
148.8670, 903.4922
150.0940, 769.6309
151.3210, 1013.899
152.5490, 970.3213
153.7750, 1034.861
155.0020, 909.5186
156.2290, 1056.286
157.4550, 970.1621
158.6810, 995.1445
159.9080, 812.2314
161.1340, 967.4199
162.3590, 869.7100
163.5850, 824.1104
164.8110, 777.6162
166.0360, 671.4463
167.2610, 630.9824
168.4860, 509.8652
169.7110, 430.8486
170.9360, 419.9238
172.1610, 363.0703
173.3850, 238.2832
174.6100, 253.5488
175.8340, 259.7871
177.0580, 257.7041
178.2820, 426.2402
179.5050, 401.5205
180.7290, 438.8145
181.9520, 651.1338
183.1760, 519.4844
184.3990, 542.8594
185.6220, 553.2637
186.8450, 524.6992
188.0670, 496.1670
189.2900, 534.6689
190.5120, 502.8291
191.7340, 711.8467
192.9560, 568.5020
194.1780, 543.2383
195.4000, 747.0254
196.6220, 497.8457
197.8430, 496.7021
199.0640, 611.5947
200.2860, 519.5215
201.5070, 725.4854
202.7270, 626.5361
203.9480, 813.5635
205.1690, 866.6328
206.3890, 804.7461
207.6090, 953.8926
208.8290, 1007.075
210.0490, 963.2920
211.2690, 932.5439
212.4890, 908.4521
213.7080, 720.2383
214.9280, 776.6572
216.1470, 686.1436
217.3660, 544.6602
218.5850, 615.2246
219.8030, 508.8369
221.0220, 341.4873
222.2400, 374.1768
223.4590, 370.0947
224.6770, 212.3252
225.8950, 259.0908
227.1120, 238.5039
228.3300, 271.3164
229.5480, 227.1562
230.7650, 294.6182
231.9820, 229.3350
233.1990, 264.1689
234.4160, 131.1299
235.6330, 130.0361
236.8490, 94.42773
238.0660, 72.37109
239.2820, 177.2715
240.4980, 142.2744
241.7140, 162.4463
242.9300, 326.5049
244.1460, 245.5830
245.3610, 171.6836
246.5770, 361.4473
247.7920, 127.8359
249.0070, 183.5391
250.2220, 116.4639
251.4370, 317.5508
252.6510, 233.8018
253.8660, 163.1973
255.0800, 279.5605
256.2940, 155.9629
257.5080, 151.6875
258.7220, 230.5293
259.9360, 227.4590
261.1490, 165.4697
262.3630, 199.3301
263.5760, 219.4883
264.7890, 112.7129
266.0020, 282.0010
267.2150, 337.3467
268.4270, 165.7500
269.6400, 208.2129
270.8520, 322.7266
272.0640, 435.2881
273.2760, 265.8975
274.4880, 269.5498
275.7000, 342.2461
276.9120, 356.9824
278.1230, 508.7598
279.3340, 392.6836
280.5450, 402.5596
281.7560, 299.4707
282.9670, 358.4131
284.1780, 321.6475
285.3880, 267.7510
286.5980, 325.6279
287.8090, 270.6943
289.0190, 343.7920
290.2290, 272.9150
291.4380, 239.0664
292.6480, 173.2451
293.8570, 78.44629
295.0670, 158.6748
296.2760, 82.97656
297.4850, 235.2021
298.6930, 122.5010
299.9020, 58.82324
301.1110, 237.1660
302.3190, 35.46777
303.5270, 144.9141
304.7350, 143.7930
305.9430, 239.2246
307.1510, 81.68848
308.3580, 146.1348
309.5660, 38.65332
310.7730, 80.18848
311.9800, 95.75391
313.1870, 68.33691
314.3940, 73.56641
315.6010, 59.69141
316.8070, 51.18164
318.0130, 34.82715
319.2200, 64.48828
320.4260, 64.16309
321.6310, 62.54980
322.8370, 86.63281
324.0430, 54.29590
325.2480, 125.0293
326.4540, 114.7764
327.6590, 7.537109
328.8640, 38.74609
330.0680, 125.5381
331.2730, 40.34277
332.4780, 91.16211
333.6820, 182.9951
334.8860, 36.14941
336.0900, 156.0264
337.2940, 94.91699
338.4980, 147.8320
339.7010, 162.5117
340.9050, 36.45117
342.1080, 110.4023
343.3110, 30.36426
344.5140, 7.662109
345.7170, 15.67969
346.9200, 71.31348
348.1220, 51.31348
349.3240, 44.46191
350.5270, 18.51855
351.7290, 109.5088
352.9310, 138.5469
354.1320, 71.59375
355.3340, 37.65137
356.5350, 188.7266
357.7370, 59.18848
358.9380, 86.89258
360.1390, 91.98438
361.3400, 27.08398
362.5400, 42.80957
363.7410, 31.29785
364.9410, 224.4131
366.1410, 47.46484
367.3410, 83.65723
368.5410, 94.78320
369.7410, 34.95898
370.9400, 217.1719
372.1400, 116.3076
373.3390, 173.4492
374.5380, 7.744141
375.7370, 14.60352
376.9360, 110.5410
378.1350, 73.58496
379.3330, 99.72559
380.5310, 1.126953
381.7300, 58.01660
382.9280, 36.16699
384.1260, 183.3184
385.3230, 131.4756
386.5210, 134.6367
387.7180, 72.80371
388.9160, 80.97559
390.1130, 12.84668
391.3100, 119.3291
392.5060, 165.5254
393.7030, 284.7393
394.9000, 279.2266
396.0960, 155.2100
397.2920, 236.4648
398.4880, 16.73438
399.6840, 54.98438
400.8800, 174.2832
402.0750, 49.56445
403.2710, 41.85449
404.4660, 186.1553
405.6610, 12.53418
406.8560, 177.7803
408.0510, 82.10352
409.2450, 30.43555
410.4400, 101.7754
411.6340, 143.1250
412.8280, 185.8975
414.0220, 197.6816
415.2160, 120.6406
416.4100, 178.0273
417.6030, 93.41992
418.7970, 42.97266
419.9900, 51.37891
421.1830, 205.7910
422.3760, 52.03125
423.5690, 37.36523
424.7610, 190.7666
425.9540, 138.1719
427.1460, 5.583008
428.3380, 31.99902
429.5300, 26.60059
430.7220, 163.7842
431.9140, 112.1738
433.1050, 197.5664
434.2970, 145.9648
435.4880, 130.3652
436.6790, 129.4912
437.8700, 62.17871
439.0610, 83.59180
440.2510, 91.00781
441.4420, 87.42676
442.6320, 124.2598
443.8220, 102.2744
445.0120, 149.7031
446.2020, 80.39844
447.3910, 4.878906
448.5810, 110.3096
449.7700, 125.7129
450.9600, 3.851563
452.1490, 304.2256
453.3370, 44.65430
454.5260, 36.88379
455.7150, 154.3145
456.9030, 105.7461
458.0910, 169.1924
459.2800, 65.63672
460.4670, 113.0840
461.6550, 111.5293
462.8430, 75.97656
464.0300, 19.57715
465.2180, 69.85156
466.4050, 51.72070
467.5920, 190.6738
468.7790, 170.0664
469.9650, 144.4600
471.1520, 41.63281
472.3380, 165.7305
473.5250, 320.0918
474.7110, 197.6553
475.8970, 165.0146
477.0820, 36.19531
478.2680, 218.1416
479.4540, 72.47559
480.6390, 56.91895
481.8240, 7.750000
483.0090, 77.56348
484.1940, 147.8750
485.3780, 186.1836
486.5630, 247.7383
487.7470, 307.8730
488.9320, 166.8154
490.1160, 220.4707
491.3000, 35.76953
492.4830, 131.0654
493.6670, 92.82227
494.8500, 82.11523
496.0340, 207.4053
497.2170, 156.6934
498.4000, 124.0938
499.5820, 194.3779
500.7650, 100.3447
501.9480, 89.62793
503.1300, 124.9062
504.3120, 152.1826
505.4940, 226.8281
506.6760, 242.1016
507.8580, 217.3711
509.0390, 108.7500
510.2210, 121.0146
511.4020, 37.27539
512.5830, 83.17188
513.7640, 125.4238
514.9450, 164.6719
516.1250, 15.91699
517.3060, 166.8457
518.4860, 120.5039
519.6660, 25.26758
520.8460, 136.2715
522.0260, 84.46680
523.2060, 179.5303
524.3850, 104.7178
525.5650, 171.9150
526.7440, 107.4131
527.9230, 176.6016
529.1020, 163.8047
530.2810, 241.0029
531.4590, 147.1973
532.6380, 267.7422
533.8160, 280.8652
534.9940, 249.0469
536.1720, 147.2227
537.3500, 99.39746
538.5270, 163.5752
539.7050, 231.7480
540.8820, 157.9160
542.0590, 77.31738
543.2360, 202.4746
544.4130, 100.6270
545.5900, 161.7754
546.7660, 188.9180
547.9430, 187.7822
549.1190, 163.9160
550.2950, 76.04492
551.4710, 87.16797
552.6470, 119.2852
553.8220, 2.415039
554.9980, 133.5254
556.1730, 139.5508
557.3480, 213.6504
558.5230, 193.7432
559.6980, 42.83008
560.8730, 95.90918
562.0470, 121.9805
563.2220, 64.95508
564.3960, 304.9678
565.5700, 138.7207
566.7440, 137.6064
567.9170, 116.9561
569.0910, 55.68164
570.2640, 110.5625
571.4380, 165.6973
572.6110, 188.6621
573.7840, 102.6211
574.9570, 214.8428
576.1290, 264.7871
577.3020, 69.72559
578.4740, 111.6562
579.6460, 166.0811
580.8180, 211.9990
581.9900, 209.0527
583.1620, 198.1475
584.3330, 191.9434
585.5040, 83.83301
586.6760, 121.9443
587.8470, 7.176758
589.0180, 207.2344
590.1880, 21.89453
591.3590, 121.1387
592.5290, 32.97656
593.7000, 65.92969
594.8700, 19.27539
596.0400, 229.4883
597.2090, 157.2441
598.3790, 257.0273
599.5490, 261.7695
600.7180, 105.5039
601.8870, 249.2285
603.0560, 157.9453
604.2250, 100.6543
605.3940, 209.3145
606.5620, 243.0078
607.7300, 107.8242
608.8990, 133.5000
610.0670, 94.16797
611.2350, 27.83008
612.4020, 231.2383
613.5700, 294.8809
614.7370, 40.51562
615.9050, 198.1426
617.0720, 47.51367
618.2390, 218.7656
619.4060, 126.3281
620.5720, 28.11523
621.7390, 112.4062
622.9050, 193.1680
624.0710, 83.67383
625.2370, 232.1875
626.4030, 36.68945
627.5690, 217.2539
628.7340, 50.80859
629.9000, 31.28711
631.0650, 215.7539
632.2300, 160.3965
633.3950, 178.1875
634.5600, 135.8379
635.7240, 205.2969
636.8890, 121.7754
638.0530, 13.10742
639.2170, 199.3105
640.3810, 113.7188
641.5450, 101.0605
642.7080, 147.5625
643.8720, 204.9570
645.0350, 194.3418
646.1980, 222.3438
647.3610, 212.1074
648.5240, 208.4746
649.6870, 197.0566
650.8490, 150.5039
652.0120, 175.7246
653.1740, 223.0703
654.3360, 213.4551
655.4980, 113.7812
656.6600, 280.5547
657.8210, 167.8652
658.9830, 258.3340
660.1440, 33.81445
661.3050, 254.0977
662.4660, 150.7871
663.6270, 94.05273
664.7870, 89.86523
665.9480, 38.11523
667.1080, 131.3555
668.2680, 415.1035
669.4280, 115.3262
670.5880, 247.5371
671.7480, 298.7383
672.9070, 10.93164
674.0670, 215.1152
675.2260, 327.2832
676.3850, 183.1055
677.5440, 230.2910
678.7030, 124.4473
679.8610, 148.5820
681.0200, 208.7070
682.1780, 199.8359
683.3360, 114.9531
684.4940, 267.4141
685.6520, 155.5137
686.8090, 32.78906
687.9670, 264.2891
689.1240, 117.3633
690.2810, 253.4512
691.4380, 273.5098
692.5950, 151.9766
693.7520, 147.5977
694.9080, 8.236328
696.0650, 208.7598
697.2210, 425.7480
698.3770, 355.7266
699.5330, 487.5430
700.6880, 1025.496
701.8440, 1218.443
702.9990, 1582.682
704.1550, 1747.621
705.3100, 2042.549
706.4650, 2181.533
707.6190, 2215.445
708.7740, 1666.926
709.9290, 916.0156
711.0830, 589.9180
712.2370, 249.8086
713.3910, 50.68945
714.5450, 277.5586
715.6980, 376.4160
716.8520, 258.2617
718.0050, 31.42578
719.1580, 127.2480
720.3110, 75.10938
721.4640, 296.1484
722.6170, 88.93750
723.7700, 120.7148
724.9220, 57.48047
726.0740, 248.2363
727.2260, 182.0527
728.3780, 203.7871
729.5300, 71.54688
730.6810, 114.2656
731.8330, 88.44336
732.9840, 307.1406
734.1350, 216.0293
735.2860, 263.0664
736.4370, 30.26758
737.5880, 215.4844
738.7380, 121.3984
739.8880, 276.0195
741.0390, 171.6270
742.1890, 174.2246
743.3380, 104.8105
744.4880, 215.4805
745.6380, 96.05469
746.7870, 227.6367
747.9360, 181.2441
749.0850, 162.8047
750.2340, 69.06250
751.3830, 173.2969
752.5310, 305.9629
753.6800, 345.2930
754.8280, 10.18555
755.9760, 206.8926
757.1240, 141.3984
758.2720, 151.5957
759.4190, 167.9727
760.5670, 198.4492
761.7140, 202.9746
762.8610, 190.9492
764.0080, 284.4043
765.1550, 97.60547
766.3020, 99.03516
767.4480, 223.5059
768.5950, 132.5586
769.7410, 44.95703
770.8870, 42.34375
772.0330, 77.25781
773.1780, 185.9922
774.3240, 115.3535
775.4690, 18.96094
776.6140, 201.1680
777.7590, 209.4844
778.9040, 4.789063
780.0490, 96.41992
781.1940, 162.6934
782.3380, 127.9785
783.4820, 11.38281
784.6260, 67.16992
785.7700, 170.8418
786.9140, 50.12305
788.0580, 246.3398
789.2010, 203.5430
790.3450, 155.7402
791.4880, 110.9258
792.6310, 236.0977
793.7730, 95.25977
794.9160, 258.4121
796.0590, 83.55273
797.2010, 102.6816
798.3430, 181.4688
799.4850, 37.90039
800.6270, 263.3457
801.7690, 24.26758
802.9100, 128.0957
804.0520, 168.1270
805.1930, 55.68555
806.3340, 392.2949
807.4750, 142.2656
808.6160, 166.2285
809.7560, 168.1777
810.8970, 123.5918
812.0370, 256.5176
813.1770, 17.29688
814.3170, 15.80664
815.4570, 124.0586
816.5960, 242.9160
817.7360, 254.7617
818.8750, 156.7637
820.0140, 218.5234
821.1530, 45.56836
822.2920, 191.5703
823.4310, 82.35156
824.5690, 36.62109
825.7070, 148.7441
826.8460, 121.4844
827.9840, 132.5332
829.1220, 53.75000
830.2590, 183.9180
831.3970, 95.58008
832.5340, 203.3809
833.6710, 141.0176
834.8080, 175.7715
835.9450, 145.3867
837.0820, 237.9922
838.2190, 142.5840
839.3550, 111.1660
840.4910, 370.9883
841.6270, 283.7812
842.7630, 113.7148
843.8990, 208.4004
845.0350, 20.22461
846.1700, 83.75586
847.3060, 293.2754
848.4410, 172.7793
849.5760, 142.2734
850.7100, 195.4863
851.8450, 173.0820
852.9800, 215.6836
854.1140, 49.13672
855.2480, 146.3438
856.3820, 115.7715
857.5160, 70.04297
858.6500, 160.5918
859.7830, 213.9590
860.9170, 217.6250
862.0500, 157.8457
863.1830, 82.51172
864.3160, 308.1211
865.4480, 32.77930
866.5810, 234.2988
867.7130, 99.54688
868.8460, 158.6973
869.9780, 225.9414
871.1100, 41.30078
872.2410, 282.5312
873.3730, 100.8496
874.5050, 59.05273
875.6360, 172.2402
876.7670, 172.4199
877.8980, 285.5879
879.0290, 172.7402
880.1590, 105.9922
881.2900, 201.1328
882.4200, 214.5801
883.5500, 117.6973
884.6800, 349.8301
885.8100, 72.11328
886.9400, 7.009766
888.0690, 96.38672
889.1990, 300.5898
890.3280, 150.7109
891.4570, 224.0254
892.5860, 179.0996
893.7140, 5.472656
894.8430, 211.7090
895.9710, 126.0137
897.1000, 114.0488
898.2280, 41.92578
899.3560, 189.0605
900.4830, 124.0312
901.6110, 215.0020
902.7380, 100.0352
903.8660, 161.1973
904.9930, 409.1250
906.1200, 289.8379
907.2460, 74.59961
908.3730, 35.06250
909.5000, 120.8926
910.6260, 59.68555
911.7520, 207.8184
912.8780, 178.5234
914.0040, 192.4453
915.1290, 42.30469
916.2550, 135.0645
917.3800, 119.0742
918.5050, 87.83398
919.6300, 124.3535
920.7550, 200.8203
921.8800, 114.9258
923.0040, 184.3262
924.1290, 145.0234
925.2530, 188.0078
926.3770, 181.9277
927.5010, 207.5410
928.6250, 224.2109
929.7480, 238.7363
930.8720, 226.2656
931.9950, 210.8164
933.1180, 195.3359
934.2410, 49.93164
935.3640, 43.10156
936.4860, 53.67383
937.6090, 49.74023
938.7310, 52.33203
939.8530, 85.93359
940.9750, 175.8633
942.0970, 179.3750
943.2180, 118.8730
944.3400, 217.3633
945.4610, 20.83789
946.5820, 299.3008
947.7030, 18.23047
948.8240, 157.5547
949.9450, 167.9590
951.0650, 198.3711
952.1860, 153.7793
953.3060, 73.18359
954.4260, 333.5684
955.5460, 71.95703
956.6650, 63.97852
957.7850, 239.3418
958.9040, 133.5078
960.0230, 11.57227
961.1420, 224.7480
962.2610, 10.95312
963.3800, 120.3477
964.4990, 176.2168
965.6170, 162.4980
966.7350, 91.62891
967.8530, 149.8984
968.9710, 77.15430
970.0890, 155.4023
971.2070, 271.6406
972.3240, 176.9336
973.4410, 158.3984
974.5580, 52.53906
975.6750, 56.73438
976.7920, 14.08203
977.9090, 76.29297
979.0250, 39.44141
980.1410, 276.0000
981.2580, 288.9434
982.3740, 247.0625
983.4890, 160.1738
984.6050, 187.4277
985.7200, 75.78516
986.8360, 70.86328
987.9510, 181.2480
989.0660, 40.98047
990.1810, 263.0566
991.2950, 107.0469
992.4100, 69.84180
993.5240, 87.87891
994.6390, 35.49023
995.7530, 83.93555
996.8660, 34.94336
997.9800, 18.81836
999.0940, 8.195313
1000.207, 105.7695
1001.320, 124.7266
1002.433, 196.5586
1003.546, 189.4980
1004.659, 66.42969
1005.772, 230.9922
1006.884, 47.08594
1007.996, 112.6953
1009.108, 176.3145
1010.220, 97.20898
1011.332, 154.0645
1012.444, 179.9297
1013.555, 58.77539
1014.666, 121.7402
1015.777, 1.568359
1016.888, 179.3848
1017.999, 90.63672
1019.110, 50.43359
1020.220, 159.0137
1021.331, 21.11328
1022.441, 58.75977
1023.551, 83.12305
1024.661, 26.16211
1025.770, 146.6797
1026.880, 25.40234
1027.989, 53.59570
1029.098, 37.30078
1030.207, 129.9941
1031.316, 106.9199
1032.425, 171.0176
1033.533, 99.68359
1034.642, 75.48438
1035.750, 58.31445
1036.858, 40.51953
1037.966, 120.3008
1039.073, 65.92578
1040.181, 207.5410
1041.288, 274.6113
1042.396, 407.8379
1043.503, 202.5723
1044.610, 310.8906
1045.716, 27.21484
1046.823, 60.34180
1047.929, 127.8926
1049.036, 68.09375
1050.142, 29.69336
1051.248, 86.20117
1052.353, 35.72266
1053.459, 16.57617
1054.564, 66.91602
1055.670, 245.4941
1056.775, 248.9492
1057.880, 17.39844
1058.985, 29.00195
1060.089, 377.4297
1061.194, 82.85352
1062.298, 349.3555
1063.402, 126.7754
1064.506, 150.5117
1065.610, 322.0508
1066.713, 124.4531
1067.817, 135.5332
1068.920, 181.6953
1070.023, 71.78125
1071.126, 74.86523
1072.229, 123.9824
1073.332, 399.1758
1074.435, 286.5625
1075.537, 312.9434
1076.639, 484.3184
1077.741, 292.6875
1078.843, 626.6348
1079.945, 978.1484
1081.046, 1697.830
1082.148, 3051.176
1083.249, 5126.527
1084.350, 11282.87
1085.451, 21622.21
1086.551, 30362.37
1087.652, 26900.89
1088.752, 15985.03
1089.853, 6278.137
1090.953, 2469.539
1092.053, 1295.840
1093.152, 821.7715
1094.252, 330.7324
1095.351, 345.6973
1096.451, 355.9805
1097.550, 186.2734
1098.649, 417.5645
1099.748, 157.7754
1100.846, 265.2441
1101.945, 154.3887
1103.043, 172.6562
1104.141, 68.91992
1105.239, 25.17773
1106.337, 106.4277
1107.434, 164.4414
1108.532, 154.4688
1109.629, 18.33984
1110.726, 200.4375
1111.823, 95.45703
1112.920, 234.6719
1114.017, 130.8848
1115.113, 114.0898
1116.210, 45.29297
1117.306, 18.96875
1118.402, 130.5547
1119.498, 19.40625
1120.593, 89.75781
1121.689, 75.67578
1122.784, 179.8301
1123.879, 198.9824
1124.974, 193.0957
1126.069, 80.71094
1127.164, 154.5625
1128.259, 150.6113
1129.353, 118.4512
1130.447, 200.2715
1131.541, 101.6055
1132.635, 153.7617
1133.729, 176.9512
1134.822, 193.1094
1135.916, 126.2637
1137.009, 97.29883
1138.102, 81.44922
1139.195, 148.4590
1140.288, 75.59961
1141.380, 75.73828
1142.473, 225.8730
1143.565, 170.0039
1144.657, 309.1289
1145.749, 34.89258
1146.841, 113.2090
1147.932, 228.9160
1149.024, 22.98828
1150.115, 225.0742
1151.206, 76.95898
1152.297, 192.0312
1153.388, 98.79297
1154.479, 57.28711
1155.569, 13.31445
1156.659, 50.28320
1157.750, 116.7012
1158.839, 36.37109
1159.929, 164.1621
1161.019, 258.8789
1162.108, 23.84766
1163.198, 151.8125
1164.287, 208.8281
1165.376, 43.81055
1166.465, 204.7070
1167.553, 78.96875
1168.642, 93.75195
1169.730, 301.8223
1170.818, 88.70508
1171.906, 232.7012
1172.994, 97.71875
1174.082, 42.73242
1175.170, 186.7402
1176.257, 38.25000
1177.344, 215.8379
1178.431, 98.70898
1179.518, 238.7734
1180.605, 63.67188
1181.691, 196.4102
1182.778, 42.37695
1183.864, 22.86914
1184.950, 114.7852
1186.036, 101.3555
1187.122, 118.5996
1188.207, 278.5449
1189.292, 36.22656
1190.378, 121.1504
1191.463, 252.1191
1192.548, 55.08594
1193.632, 98.49219
1194.717, 1.765625
1195.801, 46.73828
1196.886, 104.7090
1197.970, 166.6738
1199.054, 19.34180
1200.137, 136.6289
1201.221, 130.6426
1202.305, 145.5625
1203.388, 299.5293
1204.471, 167.5137
1205.554, 138.8711
1206.637, 227.8477
1207.719, 108.8203
1208.802, 131.7871
1209.884, 53.24609
1210.966, 33.68750
1212.048, 347.6211
1213.130, 227.5547
1214.212, 123.4844
1215.293, 373.4102
1216.374, 95.33008
1217.456, 37.75195
1218.536, 121.1465
1219.617, 338.0391
1220.698, 60.01758
1221.778, 156.2539
1222.859, 196.1367
1223.939, 44.97461
1225.019, 157.8848
1226.099, 209.7422
1227.178, 295.6016
1228.258, 120.4531
1229.337, 186.5312
1230.417, 39.68945
1231.496, 143.5293
1232.574, 102.6367
1233.653, 127.4688
1234.732, 198.2324
1235.810, 233.8086
1236.888, 195.6270
1237.966, 129.4453
1239.044, 140.5781
1240.122, 248.8027
1241.199, 67.63672
1242.277, 219.5664
1243.354, 117.4824
1244.431, 312.3262
1245.508, 528.1680
1246.585, 197.8496
1247.661, 205.4160
1248.738, 200.2441
1249.814, 216.7559
1250.890, 83.57422
1251.966, 216.3652
1253.042, 339.1758
1254.117, 59.76367
1255.193, 263.2852
1256.268, 133.0352
1257.343, 161.8008
1258.418, 522.0000
1259.493, 142.7598
1260.567, 336.8965
1261.642, 161.6484
1262.716, 88.14062
1263.790, 124.0195
1264.864, 277.0039
1265.938, 310.6992
1267.011, 201.4258
1268.085, 304.1367
1269.158, 169.8672
1270.231, 194.9414
1271.304, 205.6367
1272.377, 146.3477
1273.450, 172.2422
1274.522, 257.1816
1275.594, 141.7949
1276.666, 162.4824
1277.738, 357.7109
1278.810, 201.9121
1279.882, 493.5820
1280.953, 402.2832
1282.025, 191.9434
1283.096, 218.6172
1284.167, 398.6641
1285.238, 280.7812
1286.308, 99.31836
1287.379, 389.9551
1288.449, 288.4082
1289.519, 98.03906
1290.589, 143.9023
1291.659, 166.3047
1292.729, 87.30859
1293.798, 219.1016
1294.868, 210.5469
1295.937, 9.507813
1297.006, 221.2305
1298.075, 92.80078
1299.143, 205.3633
1300.212, 175.9160
1301.280, 245.4629
1302.348, 174.0000
1303.416, 309.8516
1304.484, 249.5957
1305.552, 129.0234
1306.620, 186.7051
1307.687, 94.21289
1308.754, 308.7109
1309.821, 311.1367
1310.888, 170.6289
1311.955, 201.9531
1313.021, 135.0801
1314.088, 297.5410
1315.154, 43.01172
1316.220, 125.4824
1317.286, 311.1309
1318.352, 74.42188
1319.417, 199.1055
1320.483, 159.6426
1321.548, 30.01562
1322.613, 57.97070
1323.678, 245.0371
1324.743, 203.6445
1325.807, 159.3047
1326.872, 262.3516
1327.936, 143.6094
1329.000, 108.4199
1330.064, 483.8984
1331.128, 157.2578
1332.191, 313.9648
1333.255, 49.41016
1334.318, 299.7598
1335.381, 252.1367
1336.444, 251.4766
1337.507, 294.8125
1338.569, 168.9863
1339.632, 398.1191
1340.694, 176.4414
1341.756, 459.7578
1342.818, 247.3262
1343.880, 342.6367
1344.941, 336.0293
1346.003, 511.5957
1347.064, 322.8965
1348.125, 121.1914
1349.186, 58.62109
1350.247, 267.9062
1351.308, 285.4512
1352.368, 305.3496
1353.428, 425.3320
1354.489, 289.5957
1355.549, 217.8887
1356.608, 89.12500
1357.668, 69.33594
1358.727, 315.3887
1359.787, 80.60352
1360.846, 273.8105
1361.905, 377.0137
1362.964, 374.2363
1364.022, 282.4199
1365.081, 234.5996
1366.139, 211.7734
1367.197, 201.9453
1368.255, 144.1113
1369.313, 138.2539
1370.371, 140.4102
1371.428, 178.1797
1372.486, 276.3086
1373.543, 324.3652
1374.600, 347.3066
1375.657, 311.4648
1376.713, 372.5039
1377.770, 214.5410
1378.826, 199.5254
1379.882, 231.5273
1380.938, 103.5273
1381.994, 94.86914
1383.050, 405.0840
1384.106, 406.9980
1385.161, 57.12305
1386.216, 341.9746
1387.271, 71.81250
1388.326, 224.6016
1389.381, 23.43555
1390.435, 132.2930
1391.490, 104.9883
1392.544, 7.839844
1393.598, 326.5137
1394.652, 254.4863
1395.705, 264.3633
1396.759, 77.00195
1397.812, 281.6250
1398.866, 304.2383
1399.919, 121.8379
1400.972, 110.4238
1402.024, 3.994141
1403.077, 195.5586
1404.129, 49.11133
1405.181, 213.6484
1406.233, 267.1797
1407.285, 156.6992
1408.337, 294.2051
1409.389, 164.5742
1410.440, 224.1680
1411.491, 65.49805
1412.542, 333.8086
1413.593, 178.1191
1414.644, 184.4102
1415.695, 221.7188
1416.745, 112.9707
1417.795, 166.1973
1418.845, 76.40625
1419.895, 11.73242
1420.945, 224.7910
1421.995, 110.0684
1423.044, 6.607422
1424.093, 214.6738
1425.142, 278.6523
1426.191, 266.6738
1427.240, 172.6777
1428.289, 204.1035
1429.337, 62.63086
1430.385, 118.5781
1431.433, 117.5098
1432.481, 26.56445
1433.529, 316.3398
1434.577, 195.1582
1435.624, 343.0391
1436.672, 169.9102
1437.719, 361.7754
1438.766, 249.6406
1439.812, 277.5078
1440.859, 247.3809
1441.905, 197.9531
1442.952, 105.1113
1443.998, 360.0254
1445.044, 118.7207
1446.090, 55.46289
1447.135, 363.7031
1448.181, 50.83984
1449.226, 321.6543
1450.271, 88.75586
1451.316, 107.8184
1452.361, 48.23633
1453.405, 234.7891
1454.450, 73.38477
1455.494, 149.3672
1456.538, 227.3574
1457.582, 57.64062
1458.626, 157.3516
1459.670, 351.3379
1460.713, 172.3340
1461.757, 570.8320
1462.800, 338.8066
1463.843, 463.8027
1464.886, 423.7930
1465.928, 277.1426
1466.971, 207.7969
1468.013, 124.7637
1469.055, 200.7227
1470.097, 166.6758
1471.139, 82.59766
1472.181, 308.2539
1473.222, 400.0781
1474.263, 133.8945
1475.305, 385.7031
1476.346, 128.5078
1477.386, 232.9785
1478.427, 350.4434
1479.468, 317.6777
1480.508, 185.9707
1481.548, 359.0254
1482.588, 269.2539
1483.628, 207.6582
1484.668, 387.3887
1485.707, 426.5879
1486.747, 305.0391
1487.786, 187.7578
1488.825, 252.6855
1489.864, 319.3496
1490.902, 340.9688
1491.941, 282.6367
1492.979, 344.6621
1494.017, 105.6270
1495.055, 219.7031
1496.093, 18.75000
1497.131, 303.8672
1498.168, 395.6445
1499.206, 362.1367
1500.243, 265.6328
1501.280, 305.3203
1502.317, 260.0352
1503.354, 481.8594
1504.390, 365.3086
1505.426, 356.7500
1506.463, 195.2227
1507.499, 135.7031
1508.535, 366.2656
1509.570, 107.9609
1510.606, 407.8672
1511.641, 295.2344
1512.676, 443.9961
1513.711, 118.8945
1514.746, 317.4180
1515.781, 217.2070
1516.816, 115.5781
1517.850, 240.9648
1518.884, 81.29297
1519.918, 101.5625
1520.952, 242.1484
1521.986, 338.9102
1523.019, 325.7188
1524.053, 162.2461
1525.086, 308.3867
1526.119, 291.1250
1527.152, 283.7305
1528.185, 439.4023
1529.217, 318.9883
1530.250, 257.4102
1531.282, 416.8594
1532.314, 184.1836
1533.346, 378.5078
1534.377, 58.48828
1535.409, 222.7734
1536.440, 145.1016
1537.472, 340.2656
1538.503, 267.4102
1539.534, 106.3281
1540.564, 393.3789
1541.595, 251.6680
1542.625, 535.0078
1543.656, 138.5625
1544.686, 92.44922
1545.716, 117.4531
1546.745, 383.6055
1547.775, 105.6992
1548.804, 230.6602
1549.834, 168.4609
1550.863, 400.0586
1551.892, 386.4531
1552.920, 149.4062
1553.949, 251.6094
1554.977, 186.5820
1556.006, 250.3594
1557.034, 226.6094
1558.062, 203.3086
1559.089, 217.0000
1560.117, 158.8906
1561.144, 186.1484
1562.172, 176.8945
1563.199, 180.2734
1564.226, 307.2930
1565.252, 10.98828
1566.279, 115.7266
1567.305, 73.60938
1568.332, 295.9453
1569.358, 26.71484
1570.384, 143.8750
1571.409, 0.0000000E+00
##END=



