##NAMES=Aragonite
##RRUFFID=R060195
##IDEAL CHEMISTRY=CaCO_3_
##LOCALITY=Cicov Hill, Horenec, Czech Republic
##OWNER=RRUFF
##SOURCE=Marcus Origlieri
##DESCRIPTION=Colorless transparent elongated prismatic crystal
##STATUS=The identification of this mineral has been confirmed by X-ray diffraction and chemical analysis
##URL=rruff.info/R060195
##MEASURED CHEMISTRY=Ca_1.00_CO_3_
##PIN_ID=L01577
##ORIENTATION=Laser parallel to a* (1 0 0). Fiducial mark perpendicular to laser is parallel to b [0 1 0]
100.8830, 0.0000000E+00
102.1160, 10.83984
103.3490, 14.25000
104.5820, 127.4395
105.8150, 73.15625
107.0470, 115.2334
108.2800, 138.2295
109.5120, 229.5713
110.7440, 279.1885
111.9760, 143.3057
113.2080, 242.3467
114.4400, 184.8643
115.6710, 233.5156
116.9030, 298.0205
118.1340, 230.1553
119.3650, 116.7344
120.5960, 172.6064
121.8270, 301.6367
123.0580, 210.7051
124.2880, 272.7129
125.5190, 16.57617
126.7490, 120.2168
127.9790, 163.5771
129.2090, 226.6055
130.4390, 216.2520
131.6680, 46.46973
132.8980, 437.2246
134.1270, 442.4766
135.3560, 374.1982
136.5850, 224.3652
137.8140, 293.9561
139.0430, 432.9355
140.2710, 363.2705
141.5000, 469.9326
142.7280, 451.8955
143.9560, 600.1436
145.1840, 668.6602
146.4120, 542.4307
147.6390, 727.4434
148.8670, 802.6875
150.0940, 865.1514
151.3210, 951.8271
152.5490, 1114.709
153.7750, 1136.834
155.0020, 1266.200
156.2290, 1397.755
157.4550, 1449.493
158.6810, 1349.398
159.9080, 1121.466
161.1340, 1165.697
162.3590, 1287.090
163.5850, 1480.629
164.8110, 1539.312
166.0360, 1411.142
167.2610, 1227.107
168.4860, 711.2158
169.7110, 743.4668
170.9360, 542.9209
172.1610, 419.5127
173.3850, 431.2734
174.6100, 499.1377
175.8340, 384.9746
177.0580, 457.8096
178.2820, 425.6484
179.5050, 508.5303
180.7290, 512.4414
181.9520, 704.3887
183.1760, 668.3779
184.3990, 655.4150
185.6220, 658.5029
186.8450, 544.6455
188.0670, 441.8545
189.2900, 366.1504
190.5120, 380.2939
191.7340, 511.9189
192.9560, 496.3955
194.1780, 521.9346
195.4000, 644.5371
196.6220, 674.2012
197.8430, 619.9268
199.0640, 792.7148
200.2860, 763.5830
201.5070, 808.5264
202.7270, 743.5811
203.9480, 938.6611
205.1690, 1003.805
206.3890, 1170.757
207.6090, 1622.002
208.8290, 1481.207
210.0490, 1656.566
211.2690, 1341.041
212.4890, 1018.931
213.7080, 985.5088
214.9280, 690.1611
216.1470, 502.8633
217.3660, 501.6162
218.5850, 282.4199
219.8030, 421.3135
221.0220, 313.9180
222.2400, 279.9014
223.4590, 159.9336
224.6770, 289.0146
225.8950, 353.1416
227.1120, 296.3174
228.3300, 278.5439
229.5480, 249.1895
230.7650, 254.5156
231.9820, 268.8828
233.1990, 230.8018
234.4160, 323.7705
235.6330, 205.5791
236.8490, 253.1826
238.0660, 311.7695
239.2820, 235.6230
240.4980, 301.6104
241.7140, 389.3438
242.9300, 315.1182
244.1460, 331.5596
245.3610, 270.9980
246.5770, 338.8633
247.7920, 257.8623
249.0070, 270.8779
250.2220, 272.8398
251.4370, 311.3369
252.6510, 272.1230
253.8660, 322.1611
255.0800, 337.4580
256.2940, 386.5986
257.5080, 281.2686
258.7220, 338.0996
259.9360, 331.0791
261.1490, 238.1924
262.3630, 252.4297
263.5760, 101.7842
264.7890, 263.2480
266.0020, 169.8145
267.2150, 124.4775
268.4270, 176.2314
269.6400, 187.0723
270.8520, 209.2549
272.0640, 231.0762
273.2760, 239.7295
274.4880, 218.8760
275.7000, 141.8770
276.9120, 41.17676
278.1230, 209.5391
279.3340, 113.9609
280.5450, 34.44141
281.7560, 155.0352
282.9670, 159.6260
284.1780, 58.26758
285.3880, 119.9600
286.5980, 149.7002
287.8090, 209.4893
289.0190, 233.3223
290.2290, 106.1992
291.4380, 27.12109
292.6480, 35.08301
293.8570, 207.0869
295.0670, 229.1318
296.2760, 153.2139
297.4850, 45.33398
298.6930, 61.98047
299.9020, 42.17383
301.1110, 108.4043
302.3190, 193.4668
303.5270, 3.235352
304.7350, 131.0967
305.9430, 236.1709
307.1510, 40.56641
308.3580, 173.9932
309.5660, 107.9141
310.7730, 131.5576
311.9800, 106.4717
313.1870, 47.00684
314.3940, 39.43945
315.6010, 58.13672
316.8070, 144.7412
318.0130, 93.36816
319.2200, 131.1777
320.4260, 91.85156
321.6310, 85.54980
322.8370, 19.72949
324.0430, 25.47266
325.2480, 15.80371
326.4540, 75.39941
327.6590, 144.2090
328.8640, 163.0410
330.0680, 92.89648
331.2730, 57.77344
332.4780, 117.6719
333.6820, 139.5918
334.8860, 139.5332
336.0900, 152.2695
337.2940, 244.2500
338.4980, 27.74805
339.7010, 33.27148
340.9050, 57.30859
342.1080, 226.4492
343.3110, 151.5898
344.5140, 198.8262
345.7170, 196.9570
346.9200, 179.0918
348.1220, 90.24219
349.3240, 74.41211
350.5270, 69.60156
351.7290, 58.55469
352.9310, 9.902344
354.1320, 47.12500
355.3340, 14.93555
356.5350, 80.32031
357.7370, 133.5859
358.9380, 95.86719
360.1390, 99.16016
361.3400, 112.6582
362.5400, 30.79297
363.7410, 79.12695
364.9410, 130.4766
366.1410, 19.83594
367.3410, 107.3809
368.5410, 39.01953
369.7410, 0.6269530
370.9400, 121.7754
372.1400, 81.18945
373.3390, 87.61523
374.5380, 18.46289
375.7370, 66.48242
376.9360, 55.39844
378.1350, 58.54883
379.3330, 15.90430
380.5310, 69.36328
381.7300, 116.8281
382.9280, 83.10352
384.1260, 56.02148
385.3230, 15.41406
386.5210, 70.61523
387.7180, 40.11914
388.9160, 164.3789
390.1130, 16.85938
391.3100, 115.3516
392.5060, 6.125000
393.7030, 43.58203
394.9000, 110.9727
396.0960, 139.5527
397.2920, 92.15625
398.4880, 104.0352
399.6840, 34.32422
400.8800, 228.3203
402.0750, 117.9844
403.2710, 11.66406
404.4660, 132.3594
405.6610, 17.07031
406.8560, 220.7949
408.0510, 167.5410
409.2450, 16.30273
410.4400, 208.0801
411.6340, 180.8672
412.8280, 21.68359
414.0220, 136.5117
415.2160, 82.34961
416.4100, 4.792969
417.6030, 48.06445
418.7970, 29.06445
419.9900, 134.0020
421.1830, 87.87500
422.3760, 88.75781
423.5690, 109.6504
424.7610, 17.55273
425.9540, 29.46289
427.1460, 141.4453
428.3380, 83.37109
429.5300, 28.30469
430.7220, 37.24219
431.9140, 231.1895
433.1050, 119.1387
434.2970, 211.0996
435.4880, 75.06641
436.6790, 136.0410
437.8700, 301.0215
439.0610, 123.0039
440.2510, 47.99219
441.4420, 32.01367
442.6320, 61.95898
443.8220, 177.5137
445.0120, 3.498047
446.2020, 138.4785
447.3910, 34.97266
448.5810, 6.958984
449.7700, 213.3555
450.9600, 54.34375
452.1490, 10.33398
453.3370, 73.61133
454.5260, 15.60156
455.7150, 18.40820
456.9030, 369.5664
458.0910, 174.8828
459.2800, 225.4590
460.4670, 176.4434
461.6550, 74.57031
462.8430, 143.3711
464.0300, 135.3184
465.2180, 206.2656
466.4050, 122.9355
467.5920, 38.88672
468.7790, 10.16406
469.9650, 215.7852
471.1520, 246.7285
472.3380, 91.67578
473.5250, 211.6250
474.7110, 83.57227
475.8970, 285.5215
477.0820, 263.4707
478.2680, 42.58008
479.4540, 65.33594
480.6390, 68.25000
481.8240, 247.6211
483.0090, 246.5332
484.1940, 43.83008
485.3780, 45.74219
486.5630, 182.6504
487.7470, 41.55859
488.9320, 161.2285
490.1160, 232.1309
491.3000, 290.1953
492.4830, 168.3730
493.6670, 21.70117
494.8500, 47.04297
496.0340, 158.9238
497.2170, 1.804688
498.4000, 175.3496
499.5820, 117.2090
500.7650, 116.0664
501.9480, 240.9180
503.1300, 115.7695
504.3120, 250.6152
505.4940, 1.525391
506.6760, 301.3262
507.8580, 214.3086
509.0390, 17.15234
510.2210, 49.98438
511.4020, 139.6250
512.5830, 75.40234
513.7640, 302.2266
514.9450, 102.0449
516.1250, 42.13672
517.3060, 38.06250
518.4860, 10.37695
519.6660, 10.87695
520.8460, 207.6582
522.0260, 153.3730
523.2060, 203.0859
524.3850, 2.798828
525.5650, 42.31445
526.7440, 0.5585940
527.9230, 50.61523
529.1020, 173.3457
530.2810, 211.8242
531.4590, 112.4668
532.6380, 267.1074
533.8160, 254.7422
534.9940, 230.0215
536.1720, 292.8027
537.3500, 78.43359
538.5270, 197.0469
539.7050, 104.3340
540.8820, 268.2109
542.0590, 156.1016
543.2360, 83.63281
544.4130, 211.2656
545.5900, 238.7852
546.7660, 189.3242
547.9430, 247.8594
549.1190, 184.9961
550.2950, 185.5156
551.4710, 120.8184
552.6470, 130.3262
553.8220, 87.21094
554.9980, 113.7109
556.1730, 182.2012
557.3480, 193.0371
558.5230, 359.8574
559.6980, 198.3340
560.8730, 34.98438
562.0470, 231.4375
563.2220, 247.8555
564.3960, 209.2598
565.5700, 286.6562
566.7440, 89.98828
567.9170, 74.36914
569.0910, 92.74414
570.2640, 190.1074
571.4380, 239.4609
572.6110, 155.8086
573.7840, 202.1484
574.9570, 185.7461
576.1290, 141.5820
577.3020, 140.8926
578.4740, 154.6738
579.6460, 193.4863
580.8180, 226.7695
581.9900, 235.0449
583.1620, 300.8203
584.3330, 46.07422
585.5040, 165.3145
586.6760, 198.7461
587.8470, 47.96875
589.0180, 233.3027
590.1880, 53.78906
591.3590, 185.9746
592.5290, 203.1484
593.7000, 139.6758
594.8700, 227.8438
596.0400, 153.0410
597.2090, 275.1797
598.3790, 142.3164
599.5490, 44.45703
600.7180, 240.5723
601.8870, 224.6758
603.0560, 90.61328
604.2250, 320.6973
605.3940, 105.2598
606.5620, 280.3281
607.7300, 229.3828
608.8990, 179.4023
610.0670, 222.4395
611.2350, 111.4629
612.4020, 177.4766
613.5700, 103.5996
614.7370, 383.6035
615.9050, 290.8164
617.0720, 272.0625
618.2390, 248.0820
619.4060, 126.2734
620.5720, 229.2441
621.7390, 150.1895
622.9050, 198.1250
624.0710, 51.05078
625.2370, 89.88086
626.4030, 313.7168
627.5690, 200.6074
628.7340, 33.32812
629.9000, 235.1895
631.0650, 67.03906
632.2300, 57.87500
633.3950, 48.69922
634.5600, 11.81250
635.7240, 167.4707
636.8890, 168.2500
638.0530, 166.3516
639.2170, 178.1191
640.3810, 146.9629
641.5450, 184.6973
642.7080, 194.4258
643.8720, 97.16211
645.0350, 117.1309
646.1980, 98.25000
647.3610, 71.09961
648.5240, 271.6465
649.6870, 91.54492
650.8490, 151.9648
652.0120, 249.8516
653.1740, 192.4902
654.3360, 213.1133
655.4980, 167.3203
656.6600, 161.4355
657.8210, 171.4883
658.9830, 260.6426
660.1440, 278.6191
661.3050, 347.1973
662.4660, 222.9590
663.6270, 115.7285
664.7870, 17.33789
665.9480, 29.26562
667.1080, 115.1328
668.2680, 194.0039
669.4280, 43.46484
670.5880, 177.9766
671.7480, 134.5820
672.9070, 331.0195
674.0670, 215.6426
675.2260, 324.0625
676.3850, 17.62695
677.5440, 214.0469
678.7030, 128.3770
679.8610, 226.5371
681.0200, 102.9414
682.1780, 197.3418
683.3360, 62.73242
684.4940, 110.2168
685.6520, 358.9199
686.8090, 108.3984
687.9670, 0.2636720
689.1240, 141.2480
690.2810, 26.55078
691.4380, 168.8340
692.5950, 28.46289
693.7520, 243.7656
694.9080, 121.0449
696.0650, 5.542969
697.2210, 243.7227
698.3770, 250.7539
699.5330, 219.9160
700.6880, 192.9023
701.8440, 251.0840
702.9990, 107.2500
704.1550, 15.40820
705.3100, 98.54297
706.4650, 94.66797
707.6190, 161.7129
708.7740, 354.8105
709.9290, 108.9004
711.0830, 152.5273
712.2370, 346.5898
713.3910, 57.64258
714.5450, 39.67773
715.6980, 176.6992
716.8520, 286.7070
718.0050, 292.7031
719.1580, 295.6855
720.3110, 160.6602
721.4640, 305.6211
722.6170, 197.7344
723.7700, 104.1113
724.9220, 186.0469
726.0740, 218.9766
727.2260, 73.35742
728.3780, 149.2617
729.5300, 171.0684
730.6810, 186.9590
731.8330, 356.8301
732.9840, 158.8945
734.1350, 42.74414
735.2860, 285.5801
736.4370, 276.4121
737.5880, 11.23438
738.7380, 154.4375
739.8880, 208.2266
741.0390, 272.0020
742.1890, 256.8906
743.3380, 39.66406
744.4880, 193.6289
745.6380, 266.3730
746.7870, 380.1074
747.9360, 25.17383
749.0850, 118.5195
750.2340, 118.2012
751.3830, 79.93750
752.5310, 241.2461
753.6800, 67.36328
754.8280, 61.99609
755.9760, 100.6113
757.1240, 118.8184
758.2720, 108.4473
759.4190, 117.2734
760.5670, 114.8359
761.7140, 115.4082
762.8610, 173.5840
764.0080, 215.1289
765.1550, 203.5566
766.3020, 153.1895
767.4480, 210.9336
768.5950, 147.4355
769.7410, 195.9980
770.8870, 293.1934
772.0330, 98.46094
773.1780, 154.7461
774.3240, 227.4668
775.4690, 159.9062
776.6140, 105.3379
777.7590, 92.75977
778.9040, 143.1680
780.0490, 290.5664
781.1940, 109.9512
782.3380, 34.67578
783.4820, 36.79492
784.6260, 124.8809
785.7700, 110.5566
786.9140, 44.83008
788.0580, 7.097656
789.2010, 64.34375
790.3450, 199.5957
791.4880, 182.8164
792.6310, 29.02734
793.7730, 222.2168
794.9160, 123.4160
796.0590, 175.8496
797.2010, 175.0332
798.3430, 175.2168
799.4850, 72.42188
800.6270, 2.904297
801.7690, 75.48242
802.9100, 144.0508
804.0520, 145.6113
805.1930, 14.72852
806.3340, 243.8281
807.4750, 100.9531
808.6160, 76.02930
809.7560, 227.3594
810.8970, 70.87891
812.0370, 336.9180
813.1770, 90.90039
814.3170, 229.1152
815.4570, 30.55469
816.5960, 271.2324
817.7360, 437.2168
818.8750, 162.1914
820.0140, 167.1523
821.1530, 98.99414
822.2920, 84.06836
823.4310, 95.80078
824.5690, 207.7031
825.7070, 77.25195
826.8460, 154.0820
827.9840, 176.3867
829.1220, 6.806641
830.2590, 270.5938
831.3970, 106.4238
832.5340, 54.17969
833.6710, 392.5703
834.8080, 15.43359
835.9450, 127.2715
837.0820, 128.3164
838.2190, 203.0117
839.3550, 223.8887
840.4910, 248.9590
841.6270, 193.5371
842.7630, 264.3926
843.8990, 237.0527
845.0350, 164.7051
846.1700, 391.3594
847.3060, 29.00391
848.4410, 371.6309
849.5760, 342.3652
850.7100, 189.7012
851.8450, 215.9316
852.9800, 369.5234
854.1140, 668.1035
855.2480, 830.8145
856.3820, 684.6660
857.5160, 391.3203
858.6500, 89.18945
859.7830, 170.7305
860.9170, 271.2617
862.0500, 204.1113
863.1830, 133.6191
864.3160, 303.2188
865.4480, 50.70508
866.5810, 124.1777
867.7130, 212.6406
868.8460, 77.08984
869.9780, 241.5254
871.1100, 237.4961
872.2410, 201.9102
873.3730, 281.3125
874.5050, 207.6914
875.6360, 135.0723
876.7670, 128.4434
877.8980, 98.91406
879.0290, 282.1484
880.1590, 72.99609
881.2900, 227.3789
882.4200, 171.7500
883.5500, 129.1094
884.6800, 218.8008
885.8100, 182.3438
886.9400, 104.6699
888.0690, 29.13281
889.1990, 26.30469
890.3280, 166.3535
891.4570, 143.3457
892.5860, 13.54102
893.7140, 137.7656
894.8430, 139.9648
895.9710, 65.16797
897.1000, 343.3594
898.2280, 278.5410
899.3560, 151.7324
900.4830, 123.1289
901.6110, 269.2754
902.7380, 160.4141
903.8660, 290.5430
904.9930, 62.66211
906.1200, 208.7715
907.2460, 61.94531
908.3730, 7.828125
909.5000, 55.25781
910.6260, 167.3340
911.7520, 207.3965
912.8780, 217.4082
914.0040, 221.3574
915.1290, 271.3887
916.2550, 142.4102
917.3800, 200.4414
918.5050, 13.70508
919.6300, 27.93750
920.7550, 10.89844
921.8800, 125.8184
923.0040, 204.5410
924.1290, 193.1406
925.2530, 107.1660
926.3770, 171.0723
927.5010, 285.9688
928.6250, 218.2578
929.7480, 300.1348
930.8720, 52.00391
931.9950, 252.8574
933.1180, 447.7031
934.2410, 102.5391
935.3640, 7.361328
936.4860, 49.95703
937.6090, 46.57031
938.7310, 281.3730
939.8530, 170.1816
940.9750, 227.2676
942.0970, 11.07031
943.2180, 341.8047
944.3400, 27.57812
945.4610, 10.17383
946.5820, 189.7168
947.7030, 70.55469
948.8240, 11.00586
949.9450, 28.65039
951.0650, 53.61914
952.1860, 189.9863
953.3060, 161.5801
954.4260, 288.1641
955.5460, 289.5898
956.6650, 240.1992
957.7850, 216.4180
958.9040, 86.84375
960.0230, 22.38281
961.1420, 201.7246
962.2610, 31.25195
963.3800, 165.7734
964.4990, 199.8535
965.6170, 81.37305
966.7350, 367.8203
967.8530, 218.0332
968.9710, 30.53125
970.0890, 212.1602
971.2070, 130.3594
972.3240, 199.0391
973.4410, 55.14062
974.5580, 34.52344
975.6750, 92.89453
976.7920, 52.05078
977.9090, 210.9902
979.0250, 126.3379
980.1410, 216.5137
981.2580, 293.8457
982.3740, 456.6191
983.4890, 68.93555
984.6050, 316.2422
985.7200, 60.54102
986.8360, 181.6562
987.9510, 217.9414
989.0660, 64.21484
990.1810, 37.00195
991.2950, 80.54688
992.4100, 26.26953
993.5240, 125.6934
994.6390, 121.9297
995.7530, 21.15820
996.8660, 216.3770
997.9800, 45.58594
999.0940, 162.7832
1000.207, 356.6543
1001.320, 154.8340
1002.433, 115.0117
1003.546, 210.9785
1004.659, 271.1426
1005.772, 140.2969
1006.884, 113.4453
1007.996, 188.7754
1009.108, 300.9141
1010.220, 250.0430
1011.332, 188.1660
1012.444, 239.1777
1013.555, 330.2871
1014.666, 205.6836
1015.777, 355.7812
1016.888, 230.8672
1017.999, 71.94727
1019.110, 59.03320
1020.220, 110.1074
1021.331, 114.1035
1022.441, 67.51367
1023.551, 106.0938
1024.661, 187.1387
1025.770, 170.1777
1026.880, 234.6094
1027.989, 237.6328
1029.098, 186.6523
1030.207, 217.4336
1031.316, 144.4414
1032.425, 97.43750
1033.533, 45.42969
1034.642, 162.4121
1035.750, 179.3887
1036.858, 253.3555
1037.966, 230.3203
1039.073, 219.0391
1040.181, 81.99023
1041.288, 6.400391
1042.396, 199.2480
1043.503, 140.8984
1044.610, 241.8105
1045.716, 333.7188
1046.823, 242.6172
1047.929, 226.5117
1049.036, 219.4004
1050.142, 89.28125
1051.248, 71.36914
1052.353, 78.69922
1053.459, 135.2148
1054.564, 144.5820
1055.670, 51.50977
1056.775, 342.3828
1057.880, 248.2559
1058.985, 265.1016
1060.089, 494.9648
1061.194, 272.8242
1062.298, 404.8594
1063.402, 329.7422
1064.506, 341.3359
1065.610, 137.2715
1066.713, 386.1016
1067.817, 48.89648
1068.920, 261.2012
1070.023, 214.7754
1071.126, 171.8730
1072.229, 168.9785
1073.332, 244.7871
1074.435, 259.3008
1075.537, 479.7500
1076.639, 697.5488
1077.741, 358.0742
1078.843, 593.3906
1079.945, 728.1797
1081.046, 1486.000
1082.148, 2763.562
1083.249, 3711.008
1084.350, 6082.961
1085.451, 13368.73
1086.551, 26545.52
1087.652, 29600.29
1088.752, 18741.06
1089.853, 8170.820
1090.953, 3205.609
1092.053, 1324.352
1093.152, 757.9375
1094.252, 644.7188
1095.351, 572.2188
1096.451, 382.9922
1097.550, 423.7656
1098.649, 275.4805
1099.748, 106.2891
1100.846, 431.0508
1101.945, 285.5469
1103.043, 206.3086
1104.141, 264.7188
1105.239, 74.51953
1106.337, 416.0234
1107.434, 198.4766
1108.532, 13.17578
1109.629, 16.30469
1110.726, 195.3906
1111.823, 60.91797
1112.920, 124.7344
1114.017, 104.3867
1115.113, 230.0391
1116.210, 188.5625
1117.306, 221.2070
1118.402, 45.30078
1119.498, 78.31641
1120.593, 240.9570
1121.689, 72.54688
1122.784, 236.3633
1123.879, 48.87109
1124.974, 213.5312
1126.069, 275.1211
1127.164, 159.7070
1128.259, 131.9570
1129.353, 271.5664
1130.447, 424.9531
1131.541, 133.5547
1132.635, 376.1562
1133.729, 144.7539
1134.822, 355.3516
1135.916, 125.9453
1137.009, 180.6445
1138.102, 173.2422
1139.195, 23.84375
1140.288, 343.4688
1141.380, 271.0859
1142.473, 188.7344
1143.565, 496.3789
1144.657, 128.0195
1145.749, 232.3398
1146.841, 444.1758
1147.932, 265.6875
1149.024, 119.2031
1150.115, 437.5586
1151.206, 323.8594
1152.297, 158.3672
1153.388, 182.8711
1154.479, 68.25781
1155.569, 278.8008
1156.659, 276.3477
1157.750, 383.8867
1158.839, 145.4336
1159.929, 356.9805
1161.019, 100.5352
1162.108, 409.0898
1163.198, 142.6484
1164.287, 265.1758
1165.376, 130.4961
1166.465, 255.0430
1167.553, 440.5938
1168.642, 234.1484
1169.730, 282.6953
1170.818, 220.2422
1171.906, 65.28516
1172.994, 168.0391
1174.082, 81.59766
1175.170, 130.0742
1176.257, 258.5898
1177.344, 274.1016
1178.431, 494.6172
1179.518, 487.1289
1180.605, 79.63672
1181.691, 14.10156
1182.778, 128.5391
1183.864, 139.0234
1184.950, 301.5859
1186.036, 53.15234
1187.122, 301.5234
1188.207, 388.0820
1189.292, 317.6445
1190.378, 65.20703
1191.463, 64.76562
1192.548, 21.32031
1193.632, 56.87891
1194.717, 331.4375
1195.801, 42.00000
1196.886, 93.55859
1197.970, 355.1133
1199.054, 144.4727
1200.137, 262.1680
1201.221, 6.273438
1202.305, 1.273438
1203.388, 383.8203
1204.471, 47.63672
1205.554, 38.11719
1206.637, 225.6328
1207.719, 135.1484
1208.802, 284.1367
1209.884, 276.1992
1210.966, 373.7227
1212.048, 344.2695
1213.130, 249.8164
1214.212, 370.5586
1215.293, 252.1211
1216.374, 257.9102
1217.456, 385.4727
1218.536, 251.0312
1219.617, 117.6250
1220.698, 221.2148
1221.778, 443.8008
1222.859, 39.39453
1223.939, 520.9805
1225.019, 347.5625
1226.099, 457.1484
1227.178, 373.7344
1228.258, 190.3164
1229.337, 59.89062
1230.417, 350.4727
1231.496, 139.0469
1232.574, 182.6250
1233.653, 272.1992
1234.732, 203.8047
1235.810, 182.6992
1236.888, 380.3008
1237.966, 262.9062
1239.044, 445.2578
1240.122, 267.2305
1241.199, 304.8242
1242.277, 218.5859
1243.354, 435.1797
1244.431, 271.7695
1245.508, 352.3594
1246.585, 430.9453
1247.661, 91.86719
1248.738, 375.9844
1249.814, 98.03906
1250.890, 221.8984
1251.966, 10.04297
1253.042, 233.5273
1254.117, 27.90625
1255.193, 399.6445
1256.268, 539.5664
1257.343, 493.6094
1258.418, 217.4336
1259.493, 68.97656
1260.567, 168.5234
1261.642, 234.0625
1262.716, 360.5977
1263.790, 274.1328
1264.864, 434.0664
1265.938, 49.75391
1267.011, 234.3984
1268.085, 109.1328
1269.158, 322.3359
1270.231, 330.9609
1271.304, 322.5195
1272.377, 145.2344
1273.450, 363.9570
1274.522, 340.4922
1275.594, 416.4844
1276.666, 402.1719
1277.738, 167.5000
1278.810, 280.0625
1279.882, 299.5430
1280.953, 204.2656
1282.025, 526.7422
1283.096, 381.7969
1284.167, 177.7812
1285.238, 277.8711
1286.308, 438.3828
1287.379, 216.2070
1288.449, 381.6602
1289.519, 334.2227
1290.589, 261.2695
1291.659, 341.8125
1292.729, 325.2539
1293.798, 297.1133
1294.868, 426.8320
1295.937, 361.2656
1297.006, 531.6953
1298.075, 188.1289
1299.143, 456.2383
1300.212, 286.6602
1301.280, 188.5820
1302.348, 111.0000
1303.416, 356.4102
1304.484, 415.8242
1305.552, 228.2266
1306.620, 399.6250
1307.687, 308.0234
1308.754, 418.4180
1309.821, 208.3906
1310.888, 219.7656
1311.955, 124.1484
1313.021, 140.3828
1314.088, 183.3086
1315.154, 234.3945
1316.220, 304.3945
1317.286, 325.7500
1318.352, 340.1016
1319.417, 241.4570
1320.483, 292.8008
1321.548, 281.9648
1322.613, 112.0977
1323.678, 459.4258
1324.743, 523.6562
1325.807, 441.1367
1326.872, 387.4570
1327.936, 80.78125
1329.000, 539.5742
1330.064, 325.3477
1331.128, 418.3750
1332.191, 115.6953
1333.255, 57.45312
1334.318, 570.6484
1335.381, 445.9531
1336.444, 231.2617
1337.507, 420.5703
1338.569, 289.8750
1339.632, 204.1797
1340.694, 159.4844
1341.756, 71.41016
1342.818, 398.1523
1343.880, 11.30469
1344.941, 326.0508
1346.003, 389.5586
1347.064, 382.3828
1348.125, 173.6719
1349.186, 331.9531
1350.247, 326.5586
1351.308, 219.6875
1352.368, 517.0469
1353.428, 214.2891
1354.489, 393.4922
1355.549, 180.6992
1356.608, 447.8945
1357.668, 401.0547
1358.727, 455.2383
1359.787, 416.3789
1360.846, 348.6211
1361.905, 518.7188
1362.964, 141.8047
1364.022, 579.9180
1365.081, 212.0273
1366.139, 207.1289
1367.197, 19.18359
1368.255, 259.2344
1369.313, 285.2773
1370.371, 250.3086
1371.428, 264.3320
1372.486, 158.3516
1373.543, 171.3633
1374.600, 59.36328
1375.657, 54.90234
1376.713, 71.63672
1377.770, 75.33594
1378.826, 195.3086
1379.882, 316.6992
1380.938, 122.5781
1381.994, 237.0586
1383.050, 54.92188
1384.106, 25.77734
1385.161, 68.37891
1386.216, 284.4219
1387.271, 225.2031
1388.326, 382.9922
1389.381, 388.7695
1390.435, 290.5352
1391.490, 50.30078
1392.544, 110.0469
1393.598, 17.31250
1394.652, 96.41406
1395.705, 76.87109
1396.759, 122.8047
1397.812, 79.53125
1398.866, 100.0195
1399.919, 97.55859
1400.972, 142.0781
1402.024, 300.5898
1403.077, 142.1484
1404.129, 338.6992
1405.181, 133.2383
1406.233, 317.7617
1407.285, 94.28125
1408.337, 316.7852
1409.389, 87.40234
1410.440, 30.05859
1411.491, 17.50391
1412.542, 142.9336
1413.593, 66.35938
1414.644, 173.7695
1415.695, 31.82812
1416.745, 21.55078
1417.795, 132.9180
1418.845, 381.0391
1419.895, 59.39453
1420.945, 92.73828
1421.995, 297.2656
1423.044, 176.5898
1424.093, 204.9062
1425.142, 15.22656
1426.191, 164.9258
1427.240, 62.23438
1428.289, 183.7773
1429.337, 260.3711
1430.385, 410.6836
1431.433, 246.0000
1432.481, 216.3164
1433.529, 247.6367
1434.577, 211.2422
1435.624, 32.63672
1436.672, 174.1562
1437.719, 246.9766
1438.766, 486.0898
1439.812, 123.1836
1440.859, 165.2656
1441.905, 27.30859
1442.952, 389.7227
1443.998, 452.7734
1445.044, 171.4688
1446.090, 226.5547
1447.135, 248.8672
1448.181, 7.566406
1449.226, 320.6641
1450.271, 272.9023
1451.316, 134.9961
1452.361, 234.2227
1453.405, 202.4492
1454.450, 63.46094
1455.494, 309.7070
1456.538, 262.9531
1457.582, 459.1992
1458.626, 144.2383
1459.670, 384.1172
1460.713, 306.3008
1461.757, 253.4414
1462.800, 460.5820
1463.843, 284.7148
1464.886, 557.8398
1465.928, 357.9688
1466.971, 285.1016
1468.013, 171.2227
1469.055, 130.3438
1470.097, 173.4648
1471.139, 137.9805
1472.181, 90.90234
1473.222, 448.2070
1474.263, 237.8945
1475.305, 102.5508
1476.346, 295.2227
1477.386, 162.1484
1478.427, 402.7148
1479.468, 193.0625
1480.508, 294.0352
1481.548, 607.0078
1482.588, 336.4219
1483.628, 420.2148
1484.668, 264.5391
1485.707, 142.5664
1486.747, 397.6836
1487.786, 180.3633
1488.825, 241.0430
1489.864, 532.6641
1490.902, 370.0312
1491.941, 526.8164
1492.979, 393.3633
1494.017, 347.3633
1495.055, 539.9727
1496.093, 303.2969
1497.131, 391.6133
1498.168, 490.0547
1499.206, 707.3203
1500.243, 649.6211
1501.280, 373.4336
1502.317, 571.8359
1503.354, 608.2344
1504.390, 532.5742
1505.426, 591.3438
1506.463, 159.0312
1507.499, 405.8047
1508.535, 338.7852
1509.570, 176.7188
1510.606, 271.9688
1511.641, 518.8398
1512.676, 368.3281
1513.711, 510.0938
1514.746, 292.7812
1515.781, 476.0859
1516.816, 518.6758
1517.850, 443.2031
1518.884, 425.6562
1519.918, 313.0352
1520.952, 312.5078
1521.986, 504.1172
1523.019, 326.2773
1524.053, 421.0703
1525.086, 575.4453
1526.119, 389.1055
1527.152, 646.7422
1528.185, 491.3164
1529.217, 418.7383
1530.250, 397.5703
1531.282, 204.3008
1532.314, 545.0742
1533.346, 65.93359
1534.377, 412.8672
1535.409, 393.7383
1536.440, 182.5586
1537.472, 219.2812
1538.503, 453.9102
1539.534, 636.1719
1540.564, 235.4180
1541.595, 365.6719
1542.625, 43.05078
1543.656, 395.2188
1544.686, 267.4609
1545.716, 99.66406
1546.745, 330.8555
1547.775, 445.4844
1548.804, 230.6484
1549.834, 56.94141
1550.863, 438.3789
1551.892, 101.9805
1552.920, 89.67578
1553.949, 329.5078
1554.977, 531.5508
1556.006, 475.8477
1557.034, 195.3789
1558.062, 59.77734
1559.089, 110.1484
1560.117, 324.2969
1561.144, 339.9336
1562.172, 390.6406
1563.199, 422.6680
1564.226, 196.3281
1565.252, 370.4492
1566.279, 81.87109
1567.305, 174.6484
1568.332, 4.156250
1569.358, 18.80078
1570.384, 227.2930
1571.409, 0.0000000E+00
##END=



