##NAMES=Aragonite
##RRUFFID=R060195
##IDEAL CHEMISTRY=CaCO_3_
##LOCALITY=Cicov Hill, Horenec, Czech Republic
##OWNER=RRUFF
##SOURCE=Marcus Origlieri
##DESCRIPTION=Colorless transparent elongated prismatic crystal
##STATUS=The identification of this mineral has been confirmed by X-ray diffraction and chemical analysis
##URL=rruff.info/R060195
##MEASURED CHEMISTRY=Ca_1.00_CO_3_
##PIN_ID=L01088
##ORIENTATION=Laser parallel to b* (0 1 0). Fiducial mark perpendicular to laser is parallel to c [0 0 1]
100.8830, 0.0000000E+00
102.1160, 6.005859
103.3490, 178.9775
104.5820, 50.94727
105.8150, 68.75293
107.0470, 220.5420
108.2800, 139.7803
109.5120, 237.1582
110.7440, 388.0732
111.9760, 477.3652
113.2080, 479.1611
114.4400, 507.7803
115.6710, 678.6943
116.9030, 739.4756
118.1340, 643.7832
119.3650, 546.3398
120.5960, 429.9014
121.8270, 311.2607
123.0580, 271.2334
124.2880, 246.3828
125.5190, 393.4131
126.7490, 273.3721
127.9790, 378.4414
129.2090, 392.5420
130.4390, 422.5977
131.6680, 446.5469
132.8980, 510.1475
134.1270, 599.8945
135.3560, 643.2061
136.5850, 685.2178
137.8140, 730.8848
139.0430, 901.8896
140.2710, 1161.958
141.5000, 1384.263
142.7280, 1678.029
143.9560, 2155.226
145.1840, 2426.829
146.4120, 3107.817
147.6390, 3904.170
148.8670, 4929.880
150.0940, 6423.932
151.3210, 8035.316
152.5490, 9977.017
153.7750, 12242.06
155.0020, 13557.43
156.2290, 13425.11
157.4550, 12072.09
158.6810, 9665.340
159.9080, 7001.846
161.1340, 5061.680
162.3590, 3670.736
163.5850, 2597.016
164.8110, 1871.553
166.0360, 1390.444
167.2610, 1288.568
168.4860, 1018.957
169.7110, 826.5615
170.9360, 794.3652
172.1610, 623.3477
173.3850, 657.5146
174.6100, 674.7793
175.8340, 612.9824
177.0580, 629.1650
178.2820, 564.3594
179.5050, 659.5732
180.7290, 816.8213
181.9520, 783.1191
183.1760, 831.4766
184.3990, 776.9023
185.6220, 613.4023
186.8450, 705.9951
188.0670, 654.6797
189.2900, 646.4492
190.5120, 710.3076
191.7340, 699.2598
192.9560, 726.1621
194.1780, 825.4893
195.4000, 723.8945
196.6220, 747.4492
197.8430, 662.0908
199.0640, 704.8281
200.2860, 632.6797
201.5070, 697.6191
202.7270, 700.6953
203.9480, 814.8662
205.1690, 1214.198
206.3890, 1504.182
207.6090, 1645.723
208.8290, 1647.188
210.0490, 1566.737
211.2690, 1666.499
212.4890, 1663.165
213.7080, 1589.907
214.9280, 1741.727
216.1470, 1609.489
217.3660, 1486.455
218.5850, 1579.165
219.8030, 1353.219
221.0220, 1156.399
222.2400, 779.6494
223.4590, 797.9727
224.6770, 505.3604
225.8950, 742.4287
227.1120, 374.9873
228.3300, 400.6816
229.5480, 590.2246
230.7650, 393.9570
231.9820, 341.9521
233.1990, 131.6719
234.4160, 384.5479
235.6330, 292.4238
236.8490, 369.3701
238.0660, 432.3730
239.2820, 348.6543
240.4980, 189.1484
241.7140, 257.3281
242.9300, 213.6611
244.1460, 199.9297
245.3610, 92.39648
246.5770, 251.8516
247.7920, 341.3311
249.0070, 249.4561
250.2220, 257.3975
251.4370, 235.8018
252.6510, 247.3262
253.8660, 149.5781
255.0800, 417.1689
256.2940, 125.0879
257.5080, 251.2793
258.7220, 261.7168
259.9360, 144.3789
261.1490, 203.2520
262.3630, 319.3164
263.5760, 189.5762
264.7890, 198.0137
266.0020, 299.6055
267.2150, 22.36133
268.4270, 202.2539
269.6400, 169.2793
270.8520, 452.4297
272.0640, 384.0352
273.2760, 311.4180
274.4880, 512.9102
275.7000, 393.5039
276.9120, 447.1953
278.1230, 259.9824
279.3340, 220.8594
280.5450, 269.9258
281.7560, 387.9785
282.9670, 340.1094
284.1780, 317.3203
285.3880, 456.6035
286.5980, 211.7090
287.8090, 406.8281
289.0190, 421.9668
290.2290, 352.5254
291.4380, 238.1445
292.6480, 91.82617
293.8570, 174.5684
295.0670, 85.93750
296.2760, 184.7930
297.4850, 151.6699
298.6930, 112.8828
299.9020, 132.9004
301.1110, 61.96680
302.3190, 75.04492
303.5270, 65.20703
304.7350, 166.4727
305.9430, 142.7246
307.1510, 5.976563
308.3580, 7.361328
309.5660, 88.22852
310.7730, 11.21094
311.9800, 11.30859
313.1870, 6.207031
314.3940, 208.8887
315.6010, 125.4766
316.8070, 171.0996
318.0130, 2.757813
319.2200, 96.55469
320.4260, 63.15820
321.6310, 168.9023
322.8370, 158.6777
324.0430, 94.49023
325.2480, 208.3340
326.4540, 61.21094
327.6590, 22.12109
328.8640, 36.93555
330.0680, 16.53320
331.2730, 17.53516
332.4780, 138.6367
333.6820, 28.18555
334.8860, 30.12109
336.0900, 106.9512
337.2940, 271.1875
338.4980, 108.3535
339.7010, 227.5469
340.9050, 119.7676
342.1080, 17.01758
343.3110, 168.2910
344.5140, 2.591797
345.7170, 40.91406
346.9200, 105.2656
348.1220, 22.50195
349.3240, 10.89648
350.5270, 83.32031
351.7290, 207.8750
352.9310, 101.6699
354.1320, 28.37305
355.3340, 134.1426
356.5350, 117.3242
357.7370, 163.8145
358.9380, 89.32422
360.1390, 192.9199
361.3400, 4.527344
362.5400, 94.03711
363.7410, 92.38281
364.9410, 168.1855
366.1410, 135.9688
367.3410, 90.57422
368.5410, 111.8047
369.7410, 123.8164
370.9400, 99.45117
372.1400, 27.10547
373.3390, 60.76172
374.5380, 27.59375
375.7370, 7.412109
376.9360, 20.69531
378.1350, 50.15039
379.3330, 33.21094
380.5310, 145.8867
381.7300, 5.419922
382.9280, 35.98242
384.1260, 229.7285
385.3230, 125.4707
386.5210, 115.5508
387.7180, 21.68750
388.9160, 102.6758
390.1130, 8.455078
391.3100, 107.2480
392.5060, 21.91016
393.7030, 10.71875
394.9000, 45.68359
396.0960, 29.37305
397.2920, 142.5918
398.4880, 199.6074
399.6840, 77.96094
400.8800, 130.0137
402.0750, 89.09375
403.2710, 92.20117
404.4660, 291.3711
405.6610, 102.5234
406.8560, 194.7031
408.0510, 213.6152
409.2450, 81.83398
410.4400, 130.4668
411.6340, 41.72852
412.8280, 132.0078
414.0220, 186.3086
415.2160, 8.093750
416.4100, 162.2246
417.6030, 100.5586
418.7970, 194.9336
419.9900, 127.2969
421.1830, 100.6758
422.3760, 138.0684
423.5690, 32.36914
424.7610, 217.7871
425.9540, 275.2188
427.1460, 43.66016
428.3380, 115.1172
429.5300, 123.4160
430.7220, 15.99414
431.9140, 156.5918
433.1050, 80.75000
434.2970, 134.0996
435.4880, 82.46094
436.6790, 61.83008
437.8700, 24.21094
439.0610, 229.5938
440.2510, 7.015625
441.4420, 38.36328
442.6320, 232.7539
443.8220, 139.1504
445.0120, 43.44531
446.2020, 82.09375
447.3910, 16.47656
448.5810, 242.8574
449.7700, 206.2422
450.9600, 245.4062
452.1490, 214.3516
453.3370, 280.8379
454.5260, 192.3164
455.7150, 198.6133
456.9030, 57.03125
458.0910, 140.6426
459.2800, 96.06836
460.4670, 100.5195
461.6550, 88.95117
462.8430, 202.0098
464.0300, 153.4492
465.2180, 175.8926
466.4050, 178.8730
467.5920, 158.1211
468.7790, 130.9355
469.9650, 128.4434
471.1520, 86.96875
472.3380, 47.80859
473.5250, 129.3320
474.7110, 71.85547
475.8970, 12.61914
477.0820, 63.36523
478.2680, 39.61133
479.4540, 167.1699
480.6390, 139.6699
481.8240, 253.1719
483.0090, 384.6758
484.1940, 207.1797
485.3780, 157.6895
486.5630, 145.1992
487.7470, 112.7070
488.9320, 145.2188
490.1160, 4.269531
491.3000, 108.2051
492.4830, 103.5078
493.6670, 8.007813
494.8500, 142.4492
496.0340, 70.61133
497.2170, 302.7891
498.4000, 117.0547
499.5820, 237.4688
500.7650, 152.8828
501.9480, 80.29492
503.1300, 87.79883
504.3120, 109.0371
505.4940, 182.4570
506.6760, 92.72266
507.8580, 70.13477
509.0390, 105.5469
510.2210, 179.9551
511.4020, 293.7930
512.5830, 253.8672
513.7640, 248.2148
514.9450, 173.3320
516.1250, 142.7344
517.3060, 37.44336
518.4860, 124.4238
519.6660, 14.81250
520.8460, 62.18359
522.0260, 175.5449
523.2060, 98.12305
524.3850, 48.06055
525.5650, 263.5781
526.7440, 247.4980
527.9230, 69.27539
529.1020, 311.6113
530.2810, 56.28516
531.4590, 268.6055
532.6380, 195.8340
533.8160, 166.5176
534.9940, 18.41797
536.1720, 90.76758
537.3500, 254.0371
538.5270, 266.6348
539.7050, 95.89453
540.8820, 44.84961
542.0590, 218.3516
543.2360, 306.5488
544.4130, 196.7402
545.5900, 94.92578
546.7660, 183.1055
547.9430, 20.72070
549.1190, 22.41211
550.2950, 156.5430
551.4710, 9.593750
552.6470, 162.4980
553.8220, 238.7617
554.9980, 107.8457
556.1730, 80.92188
557.3480, 200.6562
558.5230, 129.7207
559.6980, 103.7812
560.8730, 301.8340
562.0470, 186.8809
563.2220, 164.9199
564.3960, 50.95117
565.5700, 295.8750
566.7440, 303.8867
567.9170, 132.8906
569.0910, 315.8906
570.2640, 110.8828
571.4380, 183.1133
572.6110, 246.4121
573.7840, 128.7461
574.9570, 182.7227
576.1290, 118.6914
577.3020, 166.6523
578.4740, 132.6797
579.6460, 309.0566
580.8180, 296.9922
581.9900, 223.9551
583.1620, 198.4180
584.3330, 159.3320
585.5040, 144.8887
586.6760, 75.17188
587.8470, 177.0605
589.0180, 250.8848
590.1880, 364.7559
591.3590, 170.6191
592.5290, 70.52539
593.7000, 238.2676
594.8700, 86.06055
596.0400, 127.8438
597.2090, 115.6211
598.3790, 73.25977
599.5490, 186.0625
600.7180, 93.81055
601.8870, 176.5508
603.0560, 210.2832
604.2250, 113.0195
605.3940, 347.7441
606.5620, 49.94727
607.7300, 173.1680
608.8990, 189.5410
610.0670, 148.8203
611.2350, 223.4434
612.4020, 265.1133
613.5700, 203.2754
614.7370, 169.9277
615.9050, 196.4980
617.0720, 157.0137
618.2390, 282.4199
619.4060, 177.2266
620.5720, 187.6543
621.7390, 178.2637
622.9050, 143.3105
624.0710, 155.7988
625.2370, 132.1562
626.4030, 145.7227
627.5690, 156.3945
628.7340, 128.5020
629.9000, 138.0371
631.0650, 61.69922
632.2300, 44.21289
633.3950, 201.7051
634.5600, 148.0684
635.7240, 278.3809
636.8890, 163.2773
638.0530, 285.7441
639.2170, 198.9277
640.3810, 169.3965
641.5450, 177.8516
642.7080, 88.69531
643.8720, 149.1211
645.0350, 243.5469
646.1980, 64.96289
647.3610, 157.3848
648.5240, 257.5977
649.6870, 338.4316
650.8490, 133.8203
652.0120, 49.28906
653.1740, 141.6582
654.3360, 43.13672
655.4980, 218.3828
656.6600, 60.95312
657.8210, 107.3496
658.9830, 136.7012
660.1440, 166.2500
661.3050, 173.2012
662.4660, 74.51758
663.6270, 155.8223
664.7870, 3.378906
665.9480, 25.34766
667.1080, 12.88281
668.2680, 204.7695
669.4280, 52.96680
670.5880, 257.5625
671.7480, 222.7344
672.9070, 14.48633
674.0670, 224.6230
675.2260, 200.0332
676.3850, 183.1328
677.5440, 301.2734
678.7030, 251.7324
679.8610, 234.5176
681.0200, 273.3066
682.1780, 173.4102
683.3360, 246.5020
684.4940, 149.5820
685.6520, 153.6133
686.8090, 334.6719
687.9670, 215.7148
689.1240, 241.8242
690.2810, 31.62500
691.4380, 391.2461
692.5950, 65.23047
693.7520, 184.2188
694.9080, 387.8652
696.0650, 433.5469
697.2210, 373.6719
698.3770, 490.6250
699.5330, 652.9961
700.6880, 782.4258
701.8440, 877.3418
702.9990, 1380.480
704.1550, 1771.338
705.3100, 1785.223
706.4650, 1972.094
707.6190, 1863.293
708.7740, 1651.242
709.9290, 1103.074
711.0830, 667.1152
712.2370, 329.9668
713.3910, 178.3184
714.5450, 107.9453
715.6980, 177.8027
716.8520, 78.64648
718.0050, 247.4844
719.1580, 100.3145
720.3110, 246.1309
721.4640, 28.95312
722.6170, 176.8594
723.7700, 300.6699
724.9220, 104.5957
726.0740, 138.2383
727.2260, 195.0293
728.3780, 174.8984
729.5300, 271.6953
730.6810, 274.4805
731.8330, 151.8770
732.9840, 190.6367
734.1350, 181.3164
735.2860, 283.3613
736.4370, 168.3086
737.5880, 84.83398
738.7380, 245.6172
739.8880, 218.2852
741.0390, 186.9688
742.1890, 197.6348
743.3380, 144.2891
744.4880, 44.93750
745.6380, 36.05859
746.7870, 102.3906
747.9360, 36.24414
749.0850, 27.26562
750.2340, 120.1875
751.3830, 146.8496
752.5310, 271.1855
753.6800, 211.6035
754.8280, 291.0098
755.9760, 255.4219
757.1240, 212.5840
758.2720, 10.02734
759.4190, 315.4297
760.5670, 134.7793
761.7140, 291.1270
762.8610, 5.554688
764.0080, 109.8672
765.1550, 30.16797
766.3020, 129.6211
767.4480, 227.0371
768.5950, 426.2988
769.7410, 163.0684
770.8870, 161.5098
772.0330, 200.7539
773.1780, 19.00586
774.3240, 145.2383
775.4690, 241.4883
776.6140, 42.08984
777.7590, 310.1035
778.9040, 165.3125
780.0490, 22.51562
781.1940, 234.5410
782.3380, 287.9102
783.4820, 246.4922
784.6260, 282.8789
785.7700, 254.9805
786.9140, 48.07031
788.0580, 278.1445
789.2010, 99.29492
790.3450, 8.236328
791.4880, 221.2656
792.6310, 285.7871
793.7730, 79.98242
794.9160, 233.5527
796.0590, 148.5352
797.2010, 134.5059
798.3430, 131.5566
799.4850, 249.6465
800.6270, 235.1133
801.7690, 262.7266
802.9100, 297.4336
804.0520, 227.0195
805.1930, 246.4824
806.3340, 134.3691
807.4750, 193.7676
808.6160, 266.6328
809.7560, 32.48828
810.8970, 120.9590
812.0370, 209.6602
813.1770, 127.9941
814.3170, 221.8125
815.4570, 205.8516
816.5960, 361.7637
817.7360, 251.5449
818.8750, 144.3359
820.0140, 245.1152
821.1530, 175.8809
822.2920, 424.6348
823.4310, 203.3770
824.5690, 285.1055
825.7070, 60.16016
826.8460, 21.09375
827.9840, 282.0293
829.1220, 6.699219
830.2590, 287.2637
831.3970, 28.90039
832.5340, 343.5215
833.6710, 0.9980470
834.8080, 414.5898
835.9450, 50.16406
837.0820, 44.71875
838.2190, 239.2578
839.3550, 79.85742
840.4910, 13.37305
841.6270, 196.0020
842.7630, 340.4863
843.8990, 63.95898
845.0350, 112.4180
846.1700, 205.8613
847.3060, 51.70508
848.4410, 158.6777
849.5760, 298.0469
850.7100, 82.63281
851.8450, 244.9785
852.9800, 176.6719
854.1140, 349.8086
855.2480, 219.2383
856.3820, 218.6387
857.5160, 178.7266
858.6500, 122.0273
859.7830, 218.4746
860.9170, 111.7285
862.0500, 220.2461
863.1830, 373.4746
864.3160, 133.4336
865.4480, 183.6367
866.5810, 251.8223
867.7130, 189.1816
868.8460, 404.3711
869.9780, 389.8906
871.1100, 76.05273
872.2410, 96.19922
873.3730, 183.5000
874.5050, 130.6074
875.6360, 187.7129
876.7670, 148.8027
877.8980, 210.8828
879.0290, 177.9473
880.1590, 6.000000
881.2900, 247.7520
882.4200, 127.5449
883.5500, 109.8770
884.6800, 298.2754
885.8100, 292.3086
886.9400, 130.2754
888.0690, 115.6309
889.1990, 275.5723
890.3280, 315.6211
891.4570, 253.5410
892.5860, 10.54883
893.7140, 148.5781
894.8430, 114.9121
895.9710, 333.7754
897.1000, 320.9746
898.2280, 116.5469
899.3560, 261.2871
900.4830, 348.1465
901.6110, 97.78711
902.7380, 103.6172
903.8660, 217.4395
904.9930, 187.2461
906.1200, 208.2070
907.2460, 179.9961
908.3730, 209.8633
909.5000, 292.7949
910.6260, 223.3242
911.7520, 96.76953
912.8780, 153.8242
914.0040, 131.5703
915.1290, 141.0176
916.2550, 220.5723
917.3800, 78.28516
918.5050, 39.04883
919.6300, 16.73438
920.7550, 181.4141
921.8800, 257.1953
923.0040, 207.7031
924.1290, 117.3457
925.2530, 32.90430
926.3770, 243.5312
927.5010, 86.13867
928.6250, 88.26758
929.7480, 365.0586
930.8720, 145.6816
931.9950, 205.5371
933.1180, 118.1230
934.2410, 105.6055
935.3640, 245.4980
936.4860, 378.9570
937.6090, 182.4062
938.7310, 77.85352
939.8530, 169.3164
940.9750, 296.7930
942.0970, 367.2559
943.2180, 157.7129
944.3400, 203.1562
945.4610, 293.9961
946.5820, 99.57812
947.7030, 29.77539
948.8240, 359.1152
949.9450, 53.44336
951.0650, 284.7559
952.1860, 284.0566
953.3060, 254.3477
954.4260, 406.6250
955.5460, 198.8887
956.6650, 261.1426
957.7850, 257.3848
958.9040, 177.6152
960.0230, 146.8301
961.1420, 17.24414
962.2610, 166.6582
963.3800, 267.8418
964.4990, 8.978516
965.6170, 231.1719
966.7350, 284.6367
967.8530, 4.236328
968.9710, 296.7109
970.0890, 192.8066
971.2070, 181.4395
972.3240, 184.0156
973.4410, 115.0820
974.5580, 146.6934
975.6750, 99.91016
976.7920, 189.1172
977.9090, 138.1387
979.0250, 188.8125
980.1410, 423.7188
981.2580, 387.7090
982.3740, 426.5098
983.4890, 194.4805
984.6050, 73.43945
985.7200, 241.1602
986.8360, 41.09570
987.9510, 6.759766
989.0660, 98.14453
990.1810, 102.0371
991.2950, 22.06836
992.4100, 57.06836
993.5240, 195.7363
994.6390, 287.5371
995.7530, 63.19922
996.8660, 206.9766
997.9800, 85.25586
999.0940, 133.3906
1000.207, 349.0898
1001.320, 84.77734
1002.433, 263.4551
1003.546, 46.12109
1004.659, 136.7734
1005.772, 182.1074
1006.884, 87.51953
1007.996, 120.1406
1009.108, 218.6699
1010.220, 207.2715
1011.332, 214.6250
1012.444, 137.4551
1013.555, 172.4688
1014.666, 78.03125
1015.777, 57.62891
1016.888, 252.1074
1017.999, 352.5625
1019.110, 218.1387
1020.220, 171.7207
1021.331, 31.25781
1022.441, 168.7207
1023.551, 97.51758
1024.661, 220.8770
1025.770, 101.5566
1026.880, 91.30664
1027.989, 60.81250
1029.098, 243.2188
1030.207, 28.28906
1031.316, 335.8828
1032.425, 175.6309
1033.533, 196.0820
1034.642, 23.52148
1035.750, 245.7754
1036.858, 185.0488
1037.966, 219.4551
1039.073, 25.01758
1040.181, 187.3496
1041.288, 6.820313
1042.396, 281.8125
1043.503, 139.1426
1044.610, 23.46289
1045.716, 398.7422
1046.823, 354.0547
1047.929, 15.78320
1049.036, 36.07227
1050.142, 150.3574
1051.248, 20.61328
1052.353, 171.4707
1053.459, 285.9746
1054.564, 113.1992
1055.670, 72.41406
1056.775, 216.6172
1057.880, 242.7266
1058.985, 318.4082
1060.089, 304.9180
1061.194, 330.8750
1062.298, 573.8438
1063.402, 109.9980
1064.506, 51.14258
1065.610, 112.2832
1066.713, 277.3301
1067.817, 32.41211
1068.920, 190.8223
1070.023, 141.5879
1071.126, 350.6797
1072.229, 288.7266
1073.332, 287.2578
1074.435, 521.4004
1075.537, 415.4551
1076.639, 400.5020
1077.741, 662.5410
1078.843, 589.5703
1079.945, 1013.994
1081.046, 1727.547
1082.148, 2873.551
1083.249, 5017.316
1084.350, 10611.30
1085.451, 20491.28
1086.551, 31093.24
1087.652, 31132.20
1088.752, 19609.15
1089.853, 8054.092
1090.953, 3066.021
1092.053, 1438.941
1093.152, 931.8555
1094.252, 514.2188
1095.351, 582.1367
1096.451, 463.0781
1097.550, 254.0078
1098.649, 215.9375
1099.748, 157.8633
1100.846, 295.9023
1101.945, 295.8203
1103.043, 392.0430
1104.141, 274.3516
1105.239, 214.3164
1106.337, 306.1289
1107.434, 203.3516
1108.532, 137.7930
1109.629, 140.6562
1110.726, 152.7148
1111.823, 130.5703
1112.920, 145.4180
1114.017, 282.2578
1115.113, 218.1094
1116.210, 245.0469
1117.306, 270.6523
1118.402, 478.4805
1119.498, 77.93750
1120.593, 281.8477
1121.689, 152.5234
1122.784, 37.79297
1123.879, 94.16406
1124.974, 107.9219
1126.069, 224.6602
1127.164, 372.3867
1128.259, 253.8320
1129.353, 373.5508
1130.447, 248.5234
1131.541, 261.1016
1132.635, 185.2422
1133.729, 259.7461
1134.822, 190.4414
1135.916, 226.7773
1137.009, 295.4570
1138.102, 184.1289
1139.195, 215.6250
1140.288, 236.3672
1141.380, 352.0156
1142.473, 179.5703
1143.565, 124.2109
1144.657, 17.84375
1145.749, 138.4648
1146.841, 112.8867
1147.932, 156.2383
1149.024, 194.0039
1150.115, 170.6055
1151.206, 197.1953
1152.297, 218.7773
1153.388, 164.9531
1154.479, 123.5273
1155.569, 104.9727
1156.659, 85.52344
1157.750, 396.9688
1158.839, 247.3672
1159.929, 261.6328
1161.019, 241.1602
1162.108, 2.140625
1163.198, 159.5977
1164.287, 185.8125
1165.376, 310.2148
1166.465, 447.1367
1167.553, 180.5273
1168.642, 199.9102
1169.730, 89.28516
1170.818, 320.4844
1171.906, 18.14844
1172.994, 47.11328
1174.082, 330.4492
1175.170, 216.7734
1176.257, 93.36719
1177.344, 315.8945
1178.431, 9.171875
1179.518, 327.8633
1180.605, 203.6914
1181.691, 120.9453
1182.778, 46.19141
1183.864, 42.53906
1184.950, 230.7383
1186.036, 134.9023
1187.122, 483.8828
1188.207, 202.1484
1189.292, 338.4023
1190.378, 37.28906
1191.463, 283.5312
1192.548, 298.7695
1193.632, 259.0234
1194.717, 192.3047
1195.801, 133.9844
1196.886, 132.1250
1197.970, 94.69531
1199.054, 44.49219
1200.137, 2.628906
1201.221, 138.9180
1202.305, 46.87891
1203.388, 66.71484
1204.471, 97.40234
1205.554, 127.5117
1206.637, 142.8359
1207.719, 273.9297
1208.802, 209.9727
1209.884, 51.10938
1210.966, 106.2109
1212.048, 196.3086
1213.130, 86.40234
1214.212, 159.4805
1215.293, 173.5625
1216.374, 321.6289
1217.456, 161.6914
1218.536, 281.7461
1219.617, 245.9414
1220.698, 269.9844
1221.778, 181.0156
1222.859, 298.5547
1223.939, 410.5742
1225.019, 301.5898
1226.099, 129.4805
1227.178, 103.4805
1228.258, 249.0859
1229.337, 173.1406
1230.417, 153.5312
1231.496, 458.5273
1232.574, 46.51953
1233.653, 25.83984
1234.732, 106.8086
1235.810, 203.2812
1236.888, 270.2344
1237.966, 114.3555
1239.044, 162.2969
1240.122, 10.71875
1241.199, 300.1914
1242.277, 286.2773
1243.354, 175.5469
1244.431, 421.4375
1245.508, 101.3164
1246.585, 155.1875
1247.661, 460.0508
1248.738, 223.9102
1249.814, 489.5430
1250.890, 251.4062
1251.966, 292.2461
1253.042, 192.0742
1254.117, 288.7578
1255.193, 216.5273
1256.268, 345.4688
1257.343, 395.2969
1258.418, 135.5195
1259.493, 120.3281
1260.567, 45.16016
1261.642, 130.0938
1262.716, 222.5352
1263.790, 340.3555
1264.864, 391.1523
1265.938, 229.9336
1267.011, 255.7148
1268.085, 309.4844
1269.158, 98.59375
1270.231, 230.3984
1271.304, 21.44531
1272.377, 336.5430
1273.450, 225.5781
1274.522, 252.8477
1275.594, 394.7695
1276.666, 119.4688
1277.738, 88.30469
1278.810, 468.9688
1279.882, 244.6289
1280.953, 432.3359
1282.025, 270.9766
1283.096, 132.2852
1284.167, 147.9102
1285.238, 366.4609
1286.308, 321.9141
1287.379, 439.5156
1288.449, 416.1094
1289.519, 165.6914
1290.589, 64.30078
1291.659, 117.1680
1292.729, 210.6484
1293.798, 148.3438
1294.868, 397.8906
1295.937, 178.4336
1297.006, 141.9648
1298.075, 372.7656
1299.143, 492.7500
1300.212, 389.0508
1301.280, 448.3945
1302.348, 400.6172
1303.416, 378.1523
1304.484, 436.3477
1305.552, 304.0508
1306.620, 362.4883
1307.687, 262.5273
1308.754, 243.0078
1309.821, 153.3164
1310.888, 113.8984
1311.955, 130.6445
1313.021, 159.8828
1314.088, 237.4805
1315.154, 557.9258
1316.220, 343.3633
1317.286, 185.7969
1318.352, 2.406250
1319.417, 623.4805
1320.483, 208.8672
1321.548, 272.2422
1322.613, 99.60938
1323.678, 16.96875
1324.743, 474.3672
1325.807, 50.69922
1326.872, 275.6875
1327.936, 402.7539
1329.000, 195.3945
1330.064, 202.6992
1331.128, 334.7852
1332.191, 248.6250
1333.255, 290.4180
1334.318, 9.875000
1335.381, 268.3984
1336.444, 177.6758
1337.507, 144.9414
1338.569, 245.8906
1339.632, 175.0625
1340.694, 275.2734
1341.756, 343.6562
1342.818, 349.8555
1343.880, 272.0508
1344.941, 185.2383
1346.003, 366.5000
1347.064, 95.66797
1348.125, 354.8242
1349.186, 380.9805
1350.247, 17.12891
1351.308, 252.2695
1352.368, 418.4062
1353.428, 98.38672
1354.489, 169.7070
1355.549, 6.710938
1356.608, 116.9883
1357.668, 34.03906
1358.727, 352.4375
1359.787, 347.4805
1360.846, 53.18359
1361.905, 168.7969
1362.964, 20.74219
1364.022, 151.7461
1365.081, 92.22656
1366.139, 380.6992
1367.197, 3.320313
1368.255, 183.4570
1369.313, 91.42188
1370.371, 45.38281
1371.428, 143.3398
1372.486, 238.2891
1373.543, 167.1328
1374.600, 225.0625
1375.657, 279.0898
1376.713, 197.0078
1377.770, 132.9062
1378.826, 316.4414
1379.882, 194.2969
1380.938, 184.1016
1381.994, 194.8164
1383.050, 111.6719
1384.106, 148.6133
1385.161, 41.91016
1386.216, 143.5938
1387.271, 174.2539
1388.326, 108.5859
1389.381, 12.21484
1390.435, 33.16406
1391.490, 297.4336
1392.544, 396.0234
1393.598, 395.6016
1394.652, 149.1719
1395.705, 53.73047
1396.759, 124.1602
1397.812, 38.11328
1398.866, 70.37891
1399.919, 57.89453
1400.972, 134.4023
1402.024, 80.89844
1403.077, 123.3867
1404.129, 97.79297
1405.181, 273.0547
1406.233, 142.4688
1407.285, 121.8711
1408.337, 187.2617
1409.389, 8.636719
1410.440, 195.0000
1411.491, 219.5703
1412.542, 247.9062
1413.593, 243.2344
1414.644, 258.7539
1415.695, 263.3906
1416.745, 126.3320
1417.795, 289.3477
1418.845, 60.57422
1419.895, 100.8828
1420.945, 188.1797
1421.995, 140.4727
1423.044, 261.7539
1424.093, 71.12500
1425.142, 19.39453
1426.191, 5.906250
1427.240, 64.15234
1428.289, 161.3984
1429.337, 177.6484
1430.385, 8.886719
1431.433, 54.60547
1432.481, 44.15234
1433.529, 149.0781
1434.577, 140.3125
1435.624, 7.847656
1436.672, 83.01953
1437.719, 76.03125
1438.766, 150.8789
1439.812, 104.1680
1440.859, 398.3633
1441.905, 145.1211
1442.952, 136.7930
1443.998, 91.38672
1445.044, 169.2188
1446.090, 287.5938
1447.135, 286.8945
1448.181, 287.8203
1449.226, 118.2031
1450.271, 147.7891
1451.316, 185.7031
1452.361, 12.60938
1453.405, 12.44531
1454.450, 284.2305
1455.494, 385.1758
1456.538, 146.1172
1457.582, 136.0547
1458.626, 508.9766
1459.670, 274.8945
1460.713, 438.6445
1461.757, 1049.555
1462.800, 884.8789
1463.843, 611.9062
1464.886, 357.0156
1465.928, 314.2617
1466.971, 61.00391
1468.013, 300.3438
1469.055, 134.4570
1470.097, 197.9688
1471.139, 113.4023
1472.181, 203.4180
1473.222, 148.1211
1474.263, 162.7422
1475.305, 181.5000
1476.346, 162.1602
1477.386, 160.8281
1478.427, 119.8516
1479.468, 156.4883
1480.508, 203.1367
1481.548, 89.78125
1482.588, 141.2539
1483.628, 31.15234
1484.668, 208.9492
1485.707, 377.8750
1486.747, 257.6211
1487.786, 337.8750
1488.825, 315.1602
1489.864, 277.6836
1490.902, 228.2656
1491.941, 244.8281
1492.979, 165.4141
1494.017, 179.0117
1495.055, 280.5508
1496.093, 322.6562
1497.131, 190.0352
1498.168, 423.6406
1499.206, 357.7734
1500.243, 115.4961
1501.280, 200.0430
1502.317, 316.6562
1503.354, 29.05469
1504.390, 353.9141
1505.426, 207.8945
1506.463, 399.6758
1507.499, 190.5117
1508.535, 249.9570
1509.570, 223.8047
1510.606, 395.6719
1511.641, 204.3984
1512.676, 274.6680
1513.711, 374.1211
1514.746, 171.7891
1515.781, 236.3945
1516.816, 189.9609
1517.850, 199.4805
1518.884, 398.1172
1519.918, 214.9961
1520.952, 168.5430
1521.986, 93.85156
1523.019, 238.3477
1524.053, 392.7891
1525.086, 337.1680
1526.119, 282.3047
1527.152, 402.8750
1528.185, 463.9023
1529.217, 507.9375
1530.250, 424.9219
1531.282, 397.8320
1532.314, 104.6641
1533.346, 305.4062
1534.377, 157.0508
1535.409, 42.58984
1536.440, 288.6836
1537.472, 114.0859
1538.503, 40.16406
1539.534, 203.2617
1540.564, 398.6445
1541.595, 378.9922
1542.625, 475.3320
1543.656, 496.8359
1544.686, 288.3008
1545.716, 394.7578
1546.745, 254.2227
1547.775, 18.58984
1548.804, 119.8438
1549.834, 41.38281
1550.863, 391.2383
1551.892, 156.2656
1552.920, 318.4062
1553.949, 395.1953
1554.977, 35.38672
1556.006, 396.7188
1557.034, 322.5664
1558.062, 137.5938
1559.089, 51.82422
1560.117, 153.5391
1561.144, 359.4180
1562.172, 319.7930
1563.199, 139.9766
1564.226, 1.296875
1565.252, 246.0352
1566.279, 316.8828
1567.305, 233.0508
1568.332, 373.3438
1569.358, 146.0195
1570.384, 258.2812
1571.409, 0.0000000E+00
##END=



