##NAMES=Aragonite
##RRUFFID=R060195
##IDEAL CHEMISTRY=CaCO_3_
##LOCALITY=Cicov Hill, Horenec, Czech Republic
##OWNER=RRUFF
##SOURCE=Marcus Origlieri
##DESCRIPTION=Colorless transparent elongated prismatic crystal
##STATUS=The identification of this mineral has been confirmed by X-ray diffraction and chemical analysis
##URL=rruff.info/R060195
##MEASURED CHEMISTRY=Ca_1.00_CO_3_
##PIN_ID=L01088
##ORIENTATION=Laser parallel to b* (0 1 0). Fiducial mark perpendicular to laser is parallel to c [0 0 1]
100.8830, 0.0000000E+00
102.1160, 176.1382
103.3490, 4.097656
104.5820, 108.6440
105.8150, 203.8311
107.0470, 99.42139
108.2800, 105.1284
109.5120, 164.0884
110.7440, 77.69385
111.9760, 160.4956
113.2080, 78.15186
114.4400, 199.3965
115.6710, 119.0161
116.9030, 162.8423
118.1340, 158.7373
119.3650, 270.5859
120.5960, 263.2910
121.8270, 260.8521
123.0580, 131.9331
124.2880, 232.7324
125.5190, 150.1069
126.7490, 167.0088
127.9790, 170.3994
129.2090, 165.2422
130.4390, 171.5537
131.6680, 274.1641
132.8980, 181.1924
134.1270, 308.5684
135.3560, 349.2725
136.5850, 335.2852
137.8140, 275.5898
139.0430, 439.1602
140.2710, 552.9736
141.5000, 908.0098
142.7280, 1205.260
143.9560, 1615.713
145.1840, 2039.357
146.4120, 2035.185
147.6390, 1569.185
148.8670, 1060.350
150.0940, 681.6738
151.3210, 539.1504
152.5490, 535.7744
153.7750, 517.5684
155.0020, 573.4980
156.2290, 652.5605
157.4550, 569.7705
158.6810, 698.1094
159.9080, 666.5664
161.1340, 782.1396
162.3590, 972.8691
163.5850, 977.7061
164.8110, 1239.653
166.0360, 1028.718
167.2610, 894.8828
168.4860, 509.1445
169.7110, 355.5195
170.9360, 473.9873
172.1610, 251.5449
173.3850, 321.1895
174.6100, 468.8916
175.8340, 355.5654
177.0580, 269.2314
178.2820, 368.9160
179.5050, 353.6299
180.7290, 317.3740
181.9520, 417.1729
183.1760, 471.0283
184.3990, 516.9883
185.6220, 438.0059
186.8450, 523.0635
188.0670, 517.1992
189.2900, 571.3008
190.5120, 545.4814
191.7340, 528.7070
192.9560, 503.9766
194.1780, 582.2949
195.4000, 553.6738
196.6220, 614.1123
197.8430, 463.5957
199.0640, 462.1240
200.2860, 361.7051
201.5070, 434.3389
202.7270, 481.0166
203.9480, 521.7412
205.1690, 502.6240
206.3890, 610.4453
207.6090, 792.3105
208.8290, 983.2383
210.0490, 775.2275
211.2690, 765.2812
212.4890, 755.0283
213.7080, 582.3955
214.9280, 642.5723
216.1470, 695.7891
217.3660, 632.0449
218.5850, 553.3398
219.8030, 435.6729
221.0220, 311.0459
222.2400, 421.5264
223.4590, 359.9795
224.6770, 257.4961
225.8950, 208.0762
227.1120, 181.7178
228.3300, 315.5674
229.5480, 190.7979
230.7650, 182.5371
231.9820, 309.3086
233.1990, 185.1143
234.4160, 228.9531
235.6330, 215.8252
236.8490, 131.6338
238.0660, 195.5742
239.2820, 216.5449
240.4980, 151.5479
241.7140, 184.5801
242.9300, 97.71582
244.1460, 186.8057
245.3610, 133.9248
246.5770, 115.0723
247.7920, 157.1025
249.0070, 175.2803
250.2220, 230.5498
251.4370, 258.2578
252.6510, 311.1426
253.8660, 272.2061
255.0800, 264.8213
256.2940, 149.1709
257.5080, 56.64355
258.7220, 229.2285
259.9360, 47.90332
261.1490, 267.8857
262.3630, 145.3652
263.5760, 161.3242
264.7890, 170.7812
266.0020, 166.9658
267.2150, 212.2070
268.4270, 236.2676
269.6400, 301.7549
270.8520, 263.1289
272.0640, 318.5625
273.2760, 275.0508
274.4880, 303.5928
275.7000, 332.1865
276.9120, 273.8291
278.1230, 328.5234
279.3340, 277.2637
280.5450, 306.0469
281.7560, 311.8740
282.9670, 289.4834
284.1780, 390.6719
285.3880, 300.6406
286.5980, 265.8125
287.8090, 338.8564
289.0190, 329.9570
290.2290, 351.0713
291.4380, 253.2246
292.6480, 202.4111
293.8570, 233.6289
295.0670, 267.8789
296.2760, 132.1611
297.4850, 221.4736
298.6930, 260.7852
299.9020, 276.1553
301.1110, 167.5557
302.3190, 54.98633
303.5270, 147.4424
304.7350, 125.9277
305.9430, 226.4395
307.1510, 241.9756
308.3580, 46.46191
309.5660, 95.83789
310.7730, 35.46387
311.9800, 65.11328
313.1870, 57.78516
314.3940, 170.6748
315.6010, 144.8604
316.8070, 128.9873
318.0130, 75.92383
319.2200, 47.70215
320.4260, 10.68945
321.6310, 24.49023
322.8370, 13.65039
324.0430, 15.25293
325.2480, 18.31543
326.4540, 40.21289
327.6590, 60.13184
328.8640, 119.0703
330.0680, 135.0273
331.2730, 117.0039
332.4780, 138.9980
333.6820, 57.01172
334.8860, 112.0439
336.0900, 73.09375
337.2940, 175.1611
338.4980, 42.24707
339.7010, 23.34961
340.9050, 65.53027
342.1080, 17.63574
343.3110, 42.81836
344.5140, 152.9287
345.7170, 134.1553
346.9200, 16.39941
348.1220, 134.3555
349.3240, 177.6309
350.5270, 75.29785
351.7290, 108.5986
352.9310, 10.08691
354.1320, 33.24219
355.3340, 22.41504
356.5350, 113.9404
357.7370, 109.3057
358.9380, 201.6836
360.1390, 193.2354
361.3400, 202.4805
362.5400, 153.8994
363.7410, 141.3301
364.9410, 123.7744
366.1410, 23.23145
367.3410, 1.691406
368.5410, 22.16406
369.7410, 31.35059
370.9400, 92.14355
372.1400, 174.1680
373.3390, 153.6836
374.5380, 163.0986
375.7370, 28.74805
376.9360, 75.29785
378.1350, 34.86035
379.3330, 23.43262
380.5310, 112.0146
381.7300, 98.60352
382.9280, 2.798828
384.1260, 231.8086
385.3230, 88.42871
386.5210, 94.05664
387.7180, 124.6934
388.9160, 68.34082
390.1130, 182.9971
391.3100, 155.4561
392.5060, 85.14551
393.7030, 165.0664
394.9000, 37.26270
396.0960, 31.01758
397.2920, 89.79297
398.4880, 36.41406
399.6840, 165.4717
400.8800, 94.28809
402.0750, 63.12109
403.2710, 25.03027
404.4660, 4.014648
405.6610, 38.39648
406.8560, 17.56250
408.0510, 33.55078
409.2450, 67.66504
410.4400, 30.79297
411.6340, 11.91895
412.8280, 1.676758
414.0220, 38.49316
415.2160, 33.75781
416.4100, 88.67480
417.6030, 82.60938
418.7970, 67.54883
419.9900, 50.50098
421.1830, 115.0840
422.3760, 141.0576
423.5690, 23.04297
424.7610, 90.03906
425.9540, 245.0459
427.1460, 78.02930
428.3380, 152.0557
429.5300, 3.090820
430.7220, 144.1338
431.9140, 36.81348
433.1050, 91.22949
434.2970, 134.3877
435.4880, 91.44824
436.6790, 124.5176
437.8700, 30.59473
439.0610, 62.68164
440.2510, 149.7734
441.4420, 12.12500
442.6320, 56.97461
443.8220, 138.6152
445.0120, 91.98730
446.2020, 36.11719
447.3910, 160.6875
448.5810, 42.83105
449.7700, 38.98242
450.9600, 33.13965
452.1490, 24.49316
453.3370, 167.4014
454.5260, 244.5625
455.7150, 90.72852
456.9030, 11.09961
458.0910, 4.068359
459.2800, 68.23633
460.4670, 36.59180
461.6550, 77.56348
462.8430, 9.275391
464.0300, 65.17773
465.2180, 179.9951
466.4050, 13.01367
467.5920, 132.0078
468.7790, 191.1826
469.9650, 134.3633
471.1520, 161.5469
472.3380, 185.7373
473.5250, 94.93164
474.7110, 50.12891
475.8970, 143.3311
477.0820, 43.53711
478.2680, 113.7529
479.4540, 202.9717
480.6390, 133.1943
481.8240, 150.4209
483.0090, 72.65234
484.1940, 123.5381
485.3780, 146.7754
486.5630, 68.96875
487.7470, 111.8350
488.9320, 147.0537
490.1160, 27.72363
491.3000, 187.4775
492.4830, 21.32031
493.6670, 88.86426
494.8500, 153.0615
496.0340, 157.0967
497.2170, 88.28516
498.4000, 150.0303
499.5820, 293.2383
500.7650, 146.4473
501.9480, 235.6582
503.1300, 88.86914
504.3120, 109.0820
505.4940, 80.29688
506.6760, 138.5127
507.8580, 115.7432
509.0390, 217.0215
510.2210, 117.3076
511.4020, 102.5898
512.5830, 84.22168
513.7640, 1.539063
514.9450, 226.6855
516.1250, 89.91211
517.3060, 237.9805
518.4860, 140.2080
519.6660, 177.4355
520.8460, 55.66699
522.0260, 72.89844
523.2060, 115.1289
524.3850, 158.3613
525.5650, 153.5996
526.7440, 110.9404
527.9230, 173.1729
529.1020, 74.40723
530.2810, 125.6406
531.4590, 212.8721
532.6380, 2.895508
533.8160, 134.3223
534.9940, 40.54004
536.1720, 3.756836
537.3500, 285.9600
538.5270, 169.1621
539.7050, 222.3652
540.8820, 48.16406
542.0590, 219.3623
543.2360, 107.5596
544.4130, 185.7559
545.5900, 160.9678
546.7660, 96.96777
547.9430, 63.56055
549.1190, 57.75586
550.2950, 136.8564
551.4710, 134.9795
552.6470, 72.84375
553.8220, 183.4951
554.9980, 160.5127
556.1730, 198.7021
557.3480, 177.8896
558.5230, 54.07715
559.6980, 119.2881
560.8730, 150.5000
562.0470, 21.70898
563.2220, 238.9111
564.3960, 68.11133
565.5700, 145.3086
566.7440, 106.5049
567.9170, 57.30176
569.0910, 210.8467
570.2640, 141.9951
571.4380, 222.9727
572.6110, 177.1152
573.7840, 129.2334
574.9570, 9.371094
576.1290, 113.4961
577.3020, 152.6191
578.4740, 257.7383
579.6460, 233.2168
580.8180, 222.2295
581.9900, 139.0830
583.1620, 144.2227
584.3330, 26.32910
585.5040, 40.19238
586.6760, 106.2861
587.8470, 31.41602
589.0180, 195.6182
590.1880, 79.69922
591.3590, 203.7754
592.5290, 142.8496
593.7000, 52.79492
594.8700, 99.23438
596.0400, 158.2627
597.2090, 223.2881
598.3790, 262.6953
599.5490, 220.6660
600.7180, 220.6875
601.8870, 197.1426
603.0560, 169.2822
604.2250, 34.07812
605.3940, 157.6641
606.5620, 96.67285
607.7300, 172.4482
608.8990, 189.1602
610.0670, 180.7207
611.2350, 195.7158
612.4020, 170.7324
613.5700, 115.7207
614.7370, 102.7061
615.9050, 156.6875
617.0720, 63.66504
618.2390, 281.9590
619.4060, 136.9336
620.5720, 133.9053
621.7390, 271.8721
622.9050, 141.8350
624.0710, 110.2061
625.2370, 171.6846
626.4030, 240.6289
627.5690, 18.40137
628.7340, 254.4541
629.9000, 110.3057
631.0650, 247.4551
632.2300, 186.2969
633.3950, 156.7539
634.5600, 55.58887
635.7240, 175.4199
636.8890, 301.2471
638.0530, 142.3340
639.2170, 88.15723
640.3810, 184.9746
641.5450, 157.7881
642.7080, 105.5977
643.8720, 169.4023
645.0350, 200.2031
646.1980, 225.0000
647.3610, 194.7949
648.5240, 54.58301
649.6870, 53.59375
650.8490, 54.81836
652.0120, 40.60547
653.1740, 182.3887
654.3360, 186.6494
655.4980, 166.4238
656.6600, 13.19238
657.8210, 65.95312
658.9830, 92.70898
660.1440, 67.89844
661.3050, 138.6465
662.4660, 193.3877
663.6270, 232.1396
664.7870, 192.8857
665.9480, 42.62891
667.1080, 108.4434
668.2680, 62.17285
669.4280, 194.8975
670.5880, 171.6182
671.7480, 281.3330
672.9070, 148.5156
674.0670, 179.2207
675.2260, 335.3545
676.3850, 135.5967
677.5440, 130.2959
678.7030, 129.9902
679.8610, 248.6777
681.0200, 173.2812
682.1780, 148.9658
683.3360, 196.6465
684.4940, 64.87891
685.6520, 222.5537
686.8090, 342.5732
687.9670, 208.2461
689.1240, 31.07617
690.2810, 311.8242
691.4380, 344.4980
692.5950, 66.17285
693.7520, 251.8457
694.9080, 257.5156
696.0650, 197.2930
697.2210, 185.9570
698.3770, 477.2041
699.5330, 647.8682
700.6880, 785.5322
701.8440, 963.5645
702.9990, 1294.217
704.1550, 1780.864
705.3100, 2131.506
706.4650, 2791.141
707.6190, 3028.805
708.7740, 2309.428
709.9290, 1381.046
711.0830, 569.6592
712.2370, 526.2676
713.3910, 224.8789
714.5450, 293.3770
715.6980, 177.9775
716.8520, 129.5742
718.0050, 146.1641
719.1580, 111.8008
720.3110, 235.3818
721.4640, 253.9570
722.6170, 165.5322
723.7700, 8.432617
724.9220, 184.8652
726.0740, 52.40820
727.2260, 42.58203
728.3780, 154.1123
729.5300, 225.6367
730.6810, 164.1562
731.8330, 227.6699
732.9840, 91.44531
734.1350, 243.0371
735.2860, 93.69141
736.4370, 267.2891
737.5880, 59.22266
738.7380, 114.4854
739.8880, 98.24902
741.0390, 67.74902
742.1890, 42.24512
743.3380, 14.44043
744.4880, 74.92578
745.6380, 176.4053
746.7870, 109.8799
747.9360, 29.34961
749.0850, 117.8125
750.2340, 50.26758
751.3830, 73.71875
752.5310, 192.1631
753.6800, 257.6035
754.8280, 165.0371
755.9760, 4.533203
757.1240, 166.9482
758.2720, 179.3545
759.4190, 66.87305
760.5670, 88.26855
761.7140, 126.6582
762.8610, 330.6670
764.0080, 51.95312
765.1550, 60.39941
766.3020, 231.1836
767.4480, 91.55371
768.5950, 195.9180
769.7410, 126.2891
770.8870, 95.65527
772.0330, 121.0264
773.1780, 77.38574
774.3240, 61.75195
775.4690, 40.81348
776.6140, 61.54297
777.7590, 125.8662
778.9040, 326.1836
780.0490, 101.4951
781.1940, 182.8037
782.3380, 384.2051
783.4820, 78.56055
784.6260, 37.14746
785.7700, 51.11328
786.9140, 26.00977
788.0580, 12.79004
789.2010, 100.9834
790.3450, 228.9766
791.4880, 101.2139
792.6310, 113.4521
793.7730, 285.6855
794.9160, 103.8711
796.0590, 171.0928
797.2010, 11.53711
798.3430, 131.7441
799.4850, 199.9473
800.6270, 58.40723
801.7690, 115.5986
802.9100, 68.78516
804.0520, 40.77734
805.1930, 144.9521
806.3340, 78.11914
807.4750, 281.4150
808.6160, 88.57422
809.7560, 23.72656
810.8970, 343.9424
812.0370, 3.088867
813.1770, 223.2080
814.3170, 115.3477
815.4570, 68.48047
816.5960, 129.6074
817.7360, 169.7305
818.8750, 123.8496
820.0140, 113.9590
821.1530, 7.066406
822.2920, 97.16406
823.4310, 18.25195
824.5690, 192.3340
825.7070, 32.41211
826.8460, 42.38672
827.9840, 88.44922
829.1220, 138.5059
830.2590, 190.5566
831.3970, 183.6621
832.5340, 40.08984
833.6710, 226.1250
834.8080, 92.50977
835.9450, 75.66602
837.0820, 61.62695
838.2190, 171.5820
839.3550, 184.9629
840.4910, 182.8203
841.6270, 186.7617
842.7630, 170.6953
843.8990, 171.6250
845.0350, 223.5664
846.1700, 76.50586
847.3060, 217.4375
848.4410, 84.36328
849.5760, 147.3008
850.7100, 122.2363
851.8450, 97.16992
852.9800, 212.2598
854.1140, 154.2148
855.2480, 53.31055
856.3820, 118.2539
857.5160, 231.4512
858.6500, 203.3848
859.7830, 142.3125
860.9170, 356.5762
862.0500, 131.4961
863.1830, 48.37109
864.3160, 92.16211
865.4480, 179.0664
866.5810, 94.96484
867.7130, 86.85742
868.8460, 65.74219
869.9780, 46.34180
871.1100, 34.94922
872.2410, 42.62500
873.3730, 9.601563
874.5050, 2.175781
875.6360, 10.31641
876.7670, 80.19727
877.8980, 74.32422
879.0290, 187.0801
880.1590, 234.5234
881.2900, 178.3574
882.4200, 297.1836
883.5500, 193.0039
884.6800, 223.5488
885.8100, 131.3613
886.9400, 132.1426
888.0690, 146.9023
889.1990, 128.7344
890.3280, 124.5234
891.4570, 145.3047
892.5860, 8.238281
893.7140, 127.7266
894.8430, 37.56445
895.9710, 167.3125
897.1000, 137.0547
898.2280, 102.9277
899.3560, 188.6973
900.4830, 215.5547
901.6110, 150.3984
902.7380, 190.1504
903.8660, 230.9082
904.9930, 168.9316
906.1200, 176.0977
907.2460, 101.1504
908.3730, 102.6992
909.5000, 95.42773
910.6260, 49.18945
911.7520, 56.64453
912.8780, 64.35742
914.0040, 182.0625
915.1290, 184.8047
916.2550, 105.5000
917.3800, 40.18945
918.5050, 50.03125
919.6300, 132.5488
920.7550, 61.31836
921.8800, 37.01562
923.0040, 3.595703
924.1290, 194.6016
925.2530, 248.2227
926.3770, 62.69336
927.5010, 178.3047
928.6250, 130.9121
929.7480, 6.484375
930.8720, 240.1094
931.9950, 16.69727
933.1180, 131.8574
934.2410, 195.4512
935.3640, 45.95898
936.4860, 197.5957
937.6090, 238.1465
938.7310, 116.6953
939.8530, 115.1582
940.9750, 247.6953
942.0970, 31.22461
943.2180, 163.7539
944.3400, 107.2754
945.4610, 47.52734
946.5820, 136.0371
947.7030, 26.08984
948.8240, 119.4043
949.9450, 152.8906
951.0650, 113.3730
952.1860, 66.85352
953.3060, 125.3262
954.4260, 78.79102
955.5460, 97.68359
956.6650, 106.5371
957.7850, 135.6074
958.9040, 71.70703
960.0230, 124.1484
961.1420, 12.41992
962.2610, 95.77148
963.3800, 99.19922
964.4990, 140.6230
965.6170, 47.04102
966.7350, 17.54492
967.8530, 269.7441
968.9710, 32.76367
970.0890, 8.027344
971.2070, 193.3984
972.3240, 109.7559
973.4410, 19.88281
974.5580, 235.4609
975.6750, 88.83203
976.7920, 214.1680
977.9090, 100.5000
979.0250, 202.8262
980.1410, 209.1504
981.2580, 182.4668
982.3740, 91.78320
983.4890, 191.3555
984.6050, 243.6621
985.7200, 243.9648
986.8360, 17.26172
987.9510, 237.3555
989.0660, 28.64453
990.1810, 77.39453
991.2950, 9.669922
992.4100, 151.9395
993.5240, 91.20508
994.6390, 38.46680
995.7530, 207.7305
996.8660, 185.1621
997.9800, 186.3457
999.0940, 94.59766
1000.207, 182.8438
1001.320, 179.0840
1002.433, 72.33203
1003.546, 205.5762
1004.659, 178.7363
1005.772, 15.82227
1006.884, 40.04492
1007.996, 133.8379
1009.108, 245.7129
1010.220, 270.6602
1011.332, 5.218750
1012.444, 85.42578
1013.555, 19.62695
1014.666, 162.8223
1015.777, 154.0176
1016.888, 161.2246
1017.999, 213.1699
1019.110, 229.9121
1020.220, 216.9336
1021.331, 237.1074
1022.441, 183.2793
1023.551, 173.5762
1024.661, 87.60938
1025.770, 139.7676
1026.880, 11.85938
1027.989, 42.01367
1029.098, 242.0430
1030.207, 189.1895
1031.316, 28.33203
1032.425, 192.5371
1033.533, 45.32812
1034.642, 39.93750
1035.750, 10.95117
1036.858, 121.2109
1037.966, 244.3086
1039.073, 168.4004
1040.181, 306.4883
1041.288, 8.427734
1042.396, 80.64258
1043.503, 50.71094
1044.610, 100.7012
1045.716, 189.8164
1046.823, 102.8887
1047.929, 49.95508
1049.036, 130.0176
1050.142, 167.0762
1051.248, 99.03125
1052.353, 86.02148
1053.459, 35.06641
1054.564, 271.1211
1055.670, 101.4844
1056.775, 97.94531
1057.880, 173.0020
1058.985, 26.94531
1060.089, 201.0859
1061.194, 170.1133
1062.298, 302.1387
1063.402, 104.3633
1064.506, 221.3809
1065.610, 201.5762
1066.713, 220.5879
1067.817, 311.5977
1068.920, 331.3438
1070.023, 207.3457
1071.126, 312.6328
1072.229, 171.6289
1073.332, 188.6230
1074.435, 423.6426
1075.537, 475.7266
1076.639, 439.7090
1077.741, 496.6895
1078.843, 725.6074
1079.945, 1090.910
1081.046, 1767.908
1082.148, 2779.881
1083.249, 4733.852
1084.350, 10067.82
1085.451, 21424.78
1086.551, 37397.74
1087.652, 39400.73
1088.752, 24227.71
1089.853, 9599.684
1090.953, 3594.664
1092.053, 1549.639
1093.152, 842.6113
1094.252, 672.3535
1095.351, 632.3223
1096.451, 354.4902
1097.550, 464.4512
1098.649, 155.4980
1099.748, 282.1914
1100.846, 29.14648
1101.945, 284.4609
1103.043, 282.2285
1104.141, 121.2012
1105.239, 79.17383
1106.337, 294.8027
1107.434, 43.76953
1108.532, 135.7305
1109.629, 376.7207
1110.726, 112.7109
1111.823, 101.6953
1112.920, 214.6797
1114.017, 234.7773
1115.113, 67.24609
1116.210, 231.6934
1117.306, 54.63086
1118.402, 216.5723
1119.498, 123.6543
1120.593, 206.2285
1121.689, 6.035156
1122.784, 124.8379
1123.879, 236.4492
1124.974, 178.4043
1126.069, 130.2734
1127.164, 160.0312
1128.259, 9.892578
1129.353, 217.7539
1130.447, 196.6094
1131.541, 141.5684
1132.635, 160.4219
1133.729, 201.8926
1134.822, 173.7383
1135.916, 265.5840
1137.009, 175.4258
1138.102, 32.07031
1139.195, 131.8125
1140.288, 37.34961
1141.380, 197.0000
1142.473, 1.179688
1143.565, 213.3574
1144.657, 234.1699
1145.749, 109.7988
1146.841, 297.6094
1147.932, 49.90625
1149.024, 127.7129
1150.115, 16.51758
1151.206, 145.3203
1152.297, 337.1191
1153.388, 339.9160
1154.479, 198.7129
1155.569, 189.5078
1156.659, 139.2988
1157.750, 110.0996
1158.839, 212.6973
1159.929, 312.4180
1161.019, 266.2188
1162.108, 129.0195
1163.198, 36.75977
1164.287, 204.5527
1165.376, 16.21680
1166.465, 67.94336
1167.553, 35.76758
1168.642, 209.5762
1169.730, 274.3828
1170.818, 205.1895
1171.906, 269.9922
1172.994, 155.9805
1174.082, 129.2266
1175.170, 246.5391
1176.257, 33.33789
1177.344, 92.13477
1178.431, 103.9297
1179.518, 80.68359
1180.605, 191.4785
1181.691, 132.2695
1182.778, 343.0566
1183.864, 151.8457
1184.950, 233.5312
1186.036, 218.3145
1187.122, 135.1074
1188.207, 197.0762
1189.292, 133.5195
1190.378, 231.4570
1191.463, 188.2441
1192.548, 227.0312
1193.632, 61.81836
1194.717, 158.6055
1195.801, 71.60938
1196.886, 232.1367
1197.970, 127.8965
1199.054, 297.6562
1200.137, 226.4258
1201.221, 0.6914060
1202.305, 228.0723
1203.388, 146.8340
1204.471, 45.59961
1205.554, 1.359375
1206.637, 168.1133
1207.719, 153.8691
1208.802, 124.6230
1209.884, 38.34375
1210.966, 143.3828
1212.048, 274.1172
1213.130, 98.84961
1214.212, 316.5820
1215.293, 213.3105
1216.374, 178.0391
1217.456, 186.0078
1218.536, 240.7285
1219.617, 151.4512
1220.698, 204.1738
1221.778, 139.8906
1222.859, 274.6035
1223.939, 110.3164
1225.019, 187.0293
1226.099, 11.73828
1227.178, 112.4453
1228.258, 26.15039
1229.337, 30.00586
1230.417, 172.7109
1231.496, 25.47070
1232.574, 244.2617
1233.653, 83.95508
1234.732, 250.6484
1235.810, 126.3379
1236.888, 152.0488
1237.966, 143.7070
1239.044, 249.4297
1240.122, 254.2461
1241.199, 215.9297
1242.277, 144.6094
1243.354, 41.28711
1244.431, 137.9629
1245.508, 246.3691
1246.585, 280.0391
1247.661, 190.8066
1248.738, 116.7383
1249.814, 141.3730
1250.890, 83.83789
1251.966, 129.0508
1253.042, 117.7207
1254.117, 42.38867
1255.193, 100.0527
1256.268, 252.7168
1257.343, 153.4863
1258.418, 149.9707
1259.493, 314.7500
1260.567, 39.40234
1261.642, 278.0508
1262.716, 40.27539
1263.790, 125.3438
1264.864, 196.9609
1265.938, 352.5762
1267.011, 136.1895
1268.085, 189.7148
1269.158, 195.3242
1270.231, 5.488281
1271.304, 229.1113
1272.377, 180.6211
1273.450, 157.2168
1274.522, 208.8105
1275.594, 175.0742
1276.666, 4.339844
1277.738, 175.3262
1278.810, 255.9043
1279.882, 88.36328
1280.953, 224.9375
1282.025, 180.8516
1283.096, 195.4199
1284.167, 110.1426
1285.238, 240.7051
1286.308, 261.0000
1287.379, 299.7012
1288.449, 241.2578
1289.519, 225.8125
1290.589, 103.6973
1291.659, 52.24805
1292.729, 308.7207
1293.798, 218.8594
1294.868, 391.3652
1295.937, 131.1484
1297.006, 161.6387
1298.075, 160.1895
1299.143, 166.0098
1300.212, 295.5527
1301.280, 87.09375
1302.348, 106.6348
1303.416, 307.6289
1304.484, 320.1777
1305.552, 89.65039
1306.620, 136.6895
1307.687, 188.5059
1308.754, 286.0449
1309.821, 170.6074
1310.888, 159.1504
1311.955, 378.6875
1313.021, 207.2246
1314.088, 253.7598
1315.154, 94.28711
1316.220, 23.18750
1317.286, 259.3184
1318.352, 200.8203
1319.417, 483.3223
1320.483, 190.9414
1321.548, 346.4355
1322.613, 213.9199
1323.678, 110.4043
1324.743, 294.4766
1325.807, 261.7695
1326.872, 330.3457
1327.936, 126.8242
1329.000, 58.30469
1330.064, 240.7969
1331.128, 233.2734
1332.191, 349.0000
1333.255, 342.4453
1334.318, 260.6582
1335.381, 165.0996
1336.444, 180.5391
1337.507, 19.97852
1338.569, 303.0918
1339.632, 134.5273
1340.694, 198.9590
1341.756, 122.3926
1342.818, 265.8223
1343.880, 368.2520
1344.941, 93.35352
1346.003, 228.0098
1347.064, 171.8320
1348.125, 393.1934
1349.186, 260.5410
1350.247, 196.8730
1351.308, 105.1992
1352.368, 212.5273
1353.428, 441.1562
1354.489, 145.2773
1355.549, 342.7266
1356.608, 54.23242
1357.668, 131.4219
1358.727, 39.95508
1359.787, 82.56641
1360.846, 195.8809
1361.905, 108.1895
1362.964, 429.4941
1364.022, 87.79688
1365.081, 125.0996
1366.139, 105.6035
1367.197, 61.66211
1368.255, 147.9062
1369.313, 224.1484
1370.371, 268.7637
1371.428, 193.7051
1372.486, 233.8984
1373.543, 112.1484
1374.600, 26.64648
1375.657, 36.92188
1376.713, 32.44727
1377.770, 135.4102
1378.826, 83.60938
1379.882, 102.8086
1380.938, 138.1465
1381.994, 222.1133
1383.050, 166.3047
1384.106, 73.49414
1385.161, 142.6797
1386.216, 71.86133
1387.271, 150.0410
1388.326, 142.8906
1389.381, 95.21875
1390.435, 163.7305
1391.490, 147.8594
1392.544, 166.9863
1393.598, 173.4277
1394.652, 100.5469
1395.705, 391.6641
1396.759, 105.7812
1397.812, 235.3730
1398.866, 39.48828
1399.919, 111.6035
1400.972, 348.7168
1402.024, 2.154297
1403.077, 382.9961
1404.129, 79.59766
1405.181, 287.6855
1406.233, 95.77148
1407.285, 326.8574
1408.337, 22.93945
1409.389, 180.0137
1410.440, 68.08789
1411.491, 211.3750
1412.542, 34.60547
1413.593, 72.39648
1414.644, 108.3965
1415.695, 204.3965
1416.745, 27.39258
1417.795, 180.3828
1418.845, 302.2988
1419.895, 79.71289
1420.945, 85.25195
1421.995, 53.20898
1423.044, 296.1641
1424.093, 305.1191
1425.142, 44.07227
1426.191, 228.0586
1427.240, 213.2207
1428.289, 119.1719
1429.337, 18.85742
1430.385, 133.7988
1431.433, 238.7832
1432.481, 13.73242
1433.529, 49.15430
1434.577, 173.1094
1435.624, 109.0742
1436.672, 194.4336
1437.719, 221.3516
1438.766, 210.3301
1439.812, 255.1562
1440.859, 134.9668
1441.905, 148.7305
1442.952, 235.4258
1443.998, 198.8516
1445.044, 268.1992
1446.090, 90.66016
1447.135, 187.2891
1448.181, 176.5176
1449.226, 195.9512
1450.271, 181.4043
1451.316, 47.16016
1452.361, 99.15820
1453.405, 172.5879
1454.450, 300.0195
1455.494, 51.45117
1456.538, 186.5898
1457.582, 65.03906
1458.626, 257.4883
1459.670, 324.0625
1460.713, 243.4453
1461.757, 405.8242
1462.800, 327.2070
1463.843, 522.5879
1464.886, 233.9688
1465.928, 450.1680
1466.971, 178.2598
1468.013, 308.6504
1469.055, 205.0254
1470.097, 340.8848
1471.139, 236.0332
1472.181, 24.33789
1473.222, 190.6504
1474.263, 179.3027
1475.305, 372.9648
1476.346, 161.0918
1477.386, 221.2930
1478.427, 47.49609
1479.468, 364.5508
1480.508, 90.58789
1481.548, 42.75195
1482.588, 295.9844
1483.628, 71.21484
1484.668, 137.4434
1485.707, 380.6797
1486.747, 164.5410
1487.786, 299.7969
1488.825, 349.8809
1489.864, 265.0625
1490.902, 419.7773
1491.941, 254.7676
1492.979, 222.7285
1494.017, 224.6777
1495.055, 79.31641
1496.093, 184.4883
1497.131, 231.2773
1498.168, 110.9336
1499.206, 354.5098
1500.243, 44.45508
1501.280, 99.78125
1502.317, 284.7598
1503.354, 414.3418
1504.390, 129.2344
1505.426, 323.1387
1506.463, 266.0391
1507.499, 203.9355
1508.535, 410.8730
1509.570, 337.5820
1510.606, 220.5469
1511.641, 549.5137
1512.676, 322.3340
1513.711, 208.1152
1514.746, 253.2168
1515.781, 191.3828
1516.816, 291.1953
1517.850, 47.98438
1518.884, 174.7441
1519.918, 386.4844
1520.952, 138.1953
1521.986, 359.0527
1523.019, 517.7363
1524.053, 450.6309
1525.086, 238.5469
1526.119, 123.6328
1527.152, 116.8418
1528.185, 480.4492
1529.217, 190.2266
1530.250, 265.9980
1531.282, 430.7617
1532.314, 204.5078
1533.346, 371.3496
1534.377, 432.5352
1535.409, 84.46680
1536.440, 347.8535
1537.472, 293.2656
1538.503, 313.0234
1539.534, 258.7617
1540.564, 258.7578
1541.595, 244.8008
1542.625, 238.0000
1543.656, 226.9727
1544.686, 193.9844
1545.716, 200.5098
1546.745, 203.2949
1547.775, 171.4629
1548.804, 215.4688
1549.834, 135.1113
1550.863, 94.22070
1551.892, 159.3457
1552.920, 23.51758
1553.949, 265.1777
1554.977, 143.0039
1556.006, 366.9473
1557.034, 62.02344
1558.062, 254.2402
1559.089, 383.6582
1560.117, 7.667969
1561.144, 233.8867
1562.172, 321.4492
1563.199, 298.3906
1564.226, 384.7598
1565.252, 213.1973
1566.279, 326.2715
1567.305, 143.6504
1568.332, 87.64258
1569.358, 26.15039
1570.384, 0.4023440
1571.409, 0.0000000E+00
##END=



