##NAMES=Aragonite
##RRUFFID=R060195
##IDEAL CHEMISTRY=CaCO_3_
##LOCALITY=Cicov Hill, Horenec, Czech Republic
##OWNER=RRUFF
##SOURCE=Marcus Origlieri
##DESCRIPTION=Colorless transparent elongated prismatic crystal
##STATUS=The identification of this mineral has been confirmed by X-ray diffraction and chemical analysis
##URL=rruff.info/R060195
##MEASURED CHEMISTRY=Ca_1.00_CO_3_
##PIN_ID=L01577
##ORIENTATION=Laser parallel to a* (1 0 0). Fiducial mark perpendicular to laser is parallel to b [0 1 0]
100.8830, 0.0000000E+00
102.1160, 2.945313
103.3490, 17.26904
104.5820, 104.6436
105.8150, 78.22119
107.0470, 139.7236
108.2800, 140.7241
109.5120, 212.2705
110.7440, 95.69141
111.9760, 187.4951
113.2080, 106.3052
114.4400, 53.83057
115.6710, 258.8418
116.9030, 140.1533
118.1340, 145.6147
119.3650, 215.1006
120.5960, 189.5049
121.8270, 233.7329
123.0580, 256.7046
124.2880, 248.3496
125.5190, 179.6084
126.7490, 143.4307
127.9790, 308.7788
129.2090, 298.6123
130.4390, 184.8950
131.6680, 281.5981
132.8980, 207.6934
134.1270, 313.1567
135.3560, 287.9663
136.5850, 383.1021
137.8140, 302.5459
139.0430, 484.2725
140.2710, 596.2549
141.5000, 711.4751
142.7280, 1074.916
143.9560, 1446.565
145.1840, 1987.415
146.4120, 1936.453
147.6390, 1403.670
148.8670, 978.0586
150.0940, 664.6143
151.3210, 474.8789
152.5490, 580.3071
153.7750, 415.4287
155.0020, 414.6890
156.2290, 618.0830
157.4550, 438.6064
158.6810, 524.2549
159.9080, 552.0586
161.1340, 702.9824
162.3590, 797.0234
163.5850, 983.1797
164.8110, 1109.460
166.0360, 1023.853
167.2610, 940.3516
168.4860, 660.9551
169.7110, 600.6602
170.9360, 574.4697
172.1610, 320.3799
173.3850, 312.3789
174.6100, 392.4453
175.8340, 245.4814
177.0580, 345.5117
178.2820, 280.5654
179.5050, 379.6494
180.7290, 455.7559
181.9520, 467.8896
183.1760, 543.0586
184.3990, 507.2656
185.6220, 612.5703
186.8450, 530.9355
188.0670, 564.3428
189.2900, 703.7949
190.5120, 567.2930
191.7340, 745.8379
192.9560, 736.4287
194.1780, 746.0742
195.4000, 813.7861
196.6220, 614.5547
197.8430, 421.3701
199.0640, 415.2354
200.2860, 465.1484
201.5070, 395.1094
202.7270, 333.6270
203.9480, 454.7158
205.1690, 384.8613
206.3890, 586.0537
207.6090, 642.2891
208.8290, 673.5801
210.0490, 675.9043
211.2690, 706.2734
212.4890, 501.6865
213.7080, 609.1426
214.9280, 457.6406
216.1470, 543.1875
217.3660, 381.2246
218.5850, 409.0029
219.8030, 274.7236
221.0220, 397.5078
222.2400, 330.3311
223.4590, 302.2520
224.6770, 312.2070
225.8950, 185.1963
227.1120, 150.6338
228.3300, 167.1094
229.5480, 253.2275
230.7650, 54.36816
231.9820, 237.5410
233.1990, 199.9229
234.4160, 119.1631
235.6330, 116.6650
236.8490, 117.8584
238.0660, 140.3008
239.2820, 174.6650
240.4980, 193.0361
241.7140, 193.6494
242.9300, 182.1914
244.1460, 168.3750
245.3610, 147.8809
246.5770, 105.8535
247.7920, 126.3057
249.0070, 214.4795
250.2220, 207.1963
251.4370, 277.1611
252.6510, 86.73828
253.8660, 231.0967
255.0800, 213.3750
256.2940, 169.0371
257.5080, 265.8291
258.7220, 238.6943
259.9360, 169.7598
261.1490, 286.8809
262.3630, 226.0957
263.5760, 265.3984
264.7890, 139.7852
266.0020, 137.4199
267.2150, 243.9590
268.4270, 147.2588
269.6400, 148.9326
270.8520, 374.9824
272.0640, 336.7822
273.2760, 406.6475
274.4880, 366.5654
275.7000, 406.5391
276.9120, 402.5674
278.1230, 322.6562
279.3340, 276.7920
280.5450, 370.9736
281.7560, 201.1992
282.9670, 297.4678
284.1780, 480.7764
285.3880, 266.4365
286.5980, 160.8242
287.8090, 302.0332
289.0190, 151.5576
290.2290, 275.0996
291.4380, 101.6416
292.6480, 265.2168
293.8570, 246.8506
295.0670, 109.5176
296.2760, 144.2148
297.4850, 73.85449
298.6930, 64.70215
299.9020, 33.48926
301.1110, 57.30566
302.3190, 124.1758
303.5270, 117.9551
304.7350, 100.9287
305.9430, 57.70215
307.1510, 197.6367
308.3580, 69.60059
309.5660, 129.5879
310.7730, 136.5996
311.9800, 114.6348
313.1870, 55.69238
314.3940, 0.7724610
315.6010, 57.87402
316.8070, 31.99609
318.0130, 72.13965
319.2200, 85.30273
320.4260, 53.48633
321.6310, 85.68945
322.8370, 136.9131
324.0430, 102.1572
325.2480, 193.4199
326.4540, 97.70410
327.6590, 100.0059
328.8640, 87.32910
330.0680, 124.0156
331.2730, 35.79590
332.4780, 52.40527
333.6820, 9.005859
334.8860, 81.90430
336.0900, 43.33887
337.2940, 18.81934
338.4980, 33.55273
339.7010, 77.04102
340.9050, 26.54590
342.1080, 57.30664
343.3110, 120.3057
344.5140, 9.859375
345.7170, 125.4287
346.9200, 48.01465
348.1220, 85.59473
349.3240, 63.19141
350.5270, 19.19727
351.7290, 3.487305
352.9310, 18.56836
354.1320, 36.79297
355.3340, 21.46582
356.5350, 0.1542970
357.7370, 87.87793
358.9380, 34.61328
360.1390, 106.3633
361.3400, 41.12598
362.5400, 8.750977
363.7410, 102.0322
364.9410, 95.82910
366.1410, 129.6367
367.3410, 10.54395
368.5410, 130.2852
369.7410, 44.12598
370.9400, 128.9766
372.1400, 105.8379
373.3390, 34.70605
374.5380, 125.5840
375.7370, 39.47266
376.9360, 31.62891
378.1350, 27.27441
379.3330, 93.18652
380.5310, 132.1074
381.7300, 130.7031
382.9280, 104.1436
384.1260, 92.09180
385.3230, 49.04492
386.5210, 21.00586
387.7180, 55.10645
388.9160, 13.91504
390.1130, 1.690430
391.3100, 51.06543
392.5060, 4.916992
393.7030, 35.12402
394.9000, 39.18652
396.0960, 11.42676
397.2920, 152.6709
398.4880, 45.16211
399.6840, 60.95508
400.8800, 127.0898
402.0750, 87.24121
403.2710, 18.40820
404.4660, 35.58984
405.6610, 22.78711
406.8560, 73.99805
408.0510, 133.2227
409.2450, 1.538086
410.4400, 121.7109
411.6340, 80.02637
412.8280, 106.2148
414.0220, 29.46387
415.2160, 58.13965
416.4100, 130.7246
417.6030, 10.00195
418.7970, 94.28906
419.9900, 7.586914
421.1830, 44.60547
422.3760, 169.9238
423.5690, 187.2510
424.7610, 49.58789
425.9540, 92.93555
427.1460, 30.29004
428.3380, 0.3457030
429.5300, 15.02344
430.7220, 10.48340
431.9140, 16.10547
433.1050, 10.57227
434.2970, 57.65527
435.4880, 62.04590
436.6790, 103.6465
437.8700, 123.0518
439.0610, 106.4043
440.2510, 113.7920
441.4420, 84.30664
442.6320, 32.73828
443.8220, 52.17480
445.0120, 104.3828
446.2020, 160.0146
447.3910, 20.31934
448.5810, 27.27148
449.7700, 170.1270
450.9600, 142.9512
452.1490, 221.3604
453.3370, 125.7734
454.5260, 41.47559
455.7150, 131.8984
456.9030, 75.32617
458.0910, 92.75098
459.2800, 149.1875
460.4670, 140.6279
461.6550, 42.07324
462.8430, 99.59180
464.0300, 54.04395
465.2180, 65.50000
466.4050, 86.96094
467.5920, 76.44043
468.7790, 69.94336
469.9650, 41.10156
471.1520, 32.91211
472.3380, 9.116211
473.5250, 28.78809
474.7110, 11.69336
475.8970, 114.0469
477.0820, 11.56152
478.2680, 152.9131
479.4540, 20.60742
480.6390, 6.143555
481.8240, 213.5840
483.0090, 111.0410
484.1940, 19.50000
485.3780, 80.03223
486.5630, 116.3906
487.7470, 59.81934
488.9320, 187.2500
490.1160, 100.6816
491.3000, 109.1162
492.4830, 100.5518
493.6670, 17.35840
494.8500, 115.6611
496.0340, 235.2500
497.2170, 187.6719
498.4000, 161.0957
499.5820, 114.7344
500.7650, 65.15918
501.9480, 124.5850
503.1300, 162.0117
504.3120, 24.43848
505.4940, 88.76367
506.6760, 106.1875
507.8580, 53.61230
509.0390, 125.0361
510.2210, 89.25000
511.4020, 148.6738
512.5830, 246.0986
513.7640, 277.5215
514.9450, 278.5859
516.1250, 288.3994
517.3060, 201.7939
518.4860, 229.2168
519.6660, 127.7041
520.8460, 77.12598
522.0260, 172.5488
523.2060, 37.96973
524.3850, 152.3887
525.5650, 180.8164
526.7440, 74.24414
527.9230, 163.6719
529.1020, 42.09766
530.2810, 169.5215
531.4590, 145.5146
532.6380, 239.9238
533.8160, 187.3438
534.9940, 193.5869
536.1720, 184.8740
537.3500, 36.41895
538.5270, 146.4287
539.7050, 50.85059
540.8820, 71.50977
542.0590, 208.9277
543.2360, 210.3438
544.4130, 151.7568
545.5900, 204.1689
546.7660, 213.5801
547.9430, 107.9883
549.1190, 286.3945
550.2950, 159.7969
551.4710, 268.0273
552.6470, 111.4268
553.8220, 126.1436
554.9980, 49.54883
556.1730, 33.64062
557.3480, 6.037109
558.5230, 174.4189
559.6980, 208.7969
560.8730, 95.17676
562.0470, 34.45312
563.2220, 77.88867
564.3960, 70.22656
565.5700, 207.5605
566.7440, 201.8926
567.9170, 180.2197
569.0910, 204.5449
570.2640, 167.5547
571.4380, 6.128906
572.6110, 105.3916
573.7840, 281.6309
574.9570, 87.88477
576.1290, 155.1699
577.3020, 74.54785
578.4740, 156.6777
579.6460, 128.9004
580.8180, 197.1191
581.9900, 71.33301
583.1620, 168.5439
584.3330, 220.7676
585.5040, 210.9697
586.6760, 143.1406
587.8470, 132.5215
589.0180, 68.72559
590.1880, 229.0596
591.3590, 2.255859
592.5290, 119.4355
593.7000, 231.6113
594.8700, 35.81543
596.0400, 310.9980
597.2090, 169.1582
598.3790, 151.3164
599.5490, 157.4688
600.7180, 145.6338
601.8870, 111.7949
603.0560, 51.95215
604.2250, 139.1035
605.3940, 94.25293
606.5620, 177.3975
607.7300, 145.0117
608.8990, 156.1494
610.0670, 270.2803
611.2350, 107.0693
612.4020, 34.22363
613.5700, 19.99707
614.7370, 76.91211
615.9050, 140.5957
617.0720, 260.0635
618.2390, 156.6631
619.4060, 297.3223
620.5720, 72.37695
621.7390, 37.19043
622.9050, 118.2627
624.0710, 167.3291
625.2370, 63.10449
626.4030, 200.0332
627.5690, 208.9170
628.7340, 185.9893
629.9000, 264.0566
631.0650, 146.1191
632.2300, 148.1777
633.3950, 142.2314
634.5600, 4.778320
635.7240, 22.25488
636.8890, 109.2793
638.0530, 60.29980
639.2170, 62.68555
640.3810, 177.2812
641.5450, 71.24219
642.7080, 118.2002
643.8720, 236.1523
645.0350, 4.745117
646.1980, 222.6777
647.3610, 211.6064
648.5240, 60.53027
649.6870, 273.4600
650.8490, 251.3867
652.0120, 146.3096
653.1740, 246.2266
654.3360, 73.20605
655.4980, 105.1133
656.6600, 133.0156
657.8210, 204.9111
658.9830, 174.8027
660.1440, 189.6934
661.3050, 165.5332
662.4660, 184.5137
663.6270, 95.35645
664.7870, 143.2256
665.9480, 140.2891
667.1080, 73.14844
668.2680, 345.0020
669.4280, 90.71875
670.5880, 300.5605
671.7480, 6.398438
672.9070, 221.2236
674.0670, 121.0420
675.2260, 223.8564
676.3850, 159.6641
677.5440, 173.3174
678.7030, 239.6221
679.8610, 194.7490
681.0200, 217.5615
682.1780, 222.3691
683.3360, 100.1709
684.4940, 63.96777
685.6520, 275.7588
686.8090, 112.7012
687.9670, 166.4795
689.1240, 231.2529
690.2810, 208.0205
691.4380, 164.7822
692.5950, 218.0352
693.7520, 223.3213
694.9080, 241.0195
696.0650, 266.4375
697.2210, 226.8789
698.3770, 341.6338
699.5330, 503.0898
700.6880, 832.8311
701.8440, 1366.857
702.9990, 1917.588
704.1550, 1866.312
705.3100, 1867.031
706.4650, 2234.744
707.6190, 2330.451
708.7740, 1729.151
709.9290, 1006.847
711.0830, 619.4219
712.2370, 268.3975
713.3910, 414.0840
714.5450, 267.8447
715.6980, 130.5205
716.8520, 189.9883
718.0050, 118.6523
719.1580, 266.3105
720.3110, 154.9629
721.4640, 222.6104
722.6170, 49.25195
723.7700, 222.8867
724.9220, 223.5176
726.0740, 32.16797
727.2260, 170.8154
728.3780, 66.45508
729.5300, 221.1309
730.6810, 231.3486
731.8330, 55.98145
732.9840, 45.64844
734.1350, 47.98535
735.2860, 175.5986
736.4370, 181.2080
737.5880, 106.8125
738.7380, 196.2285
739.8880, 216.8301
741.0390, 90.42676
742.1890, 99.94824
743.3380, 129.9473
744.4880, 133.5254
745.6380, 39.90234
746.7870, 143.7568
747.9360, 128.2861
749.0850, 27.12988
750.2340, 47.46484
751.3830, 120.4854
752.5310, 4.790039
753.6800, 255.6934
754.8280, 22.17383
755.9760, 107.7383
757.1240, 12.21289
758.2720, 196.6777
759.4190, 204.1465
760.5670, 152.6777
761.7140, 177.1416
762.8610, 15.66797
764.0080, 26.76660
765.1550, 3.895508
766.3020, 100.8789
767.4480, 77.32324
768.5950, 171.7480
769.7410, 305.1660
770.8870, 96.57812
772.0330, 189.2451
773.1780, 241.3037
774.3240, 66.19922
775.4690, 92.67188
776.6140, 123.1064
777.7590, 127.3115
778.9040, 71.86426
780.0490, 57.28223
781.1940, 69.69336
782.3380, 115.0977
783.4820, 132.4434
784.6260, 133.8281
785.7700, 117.2275
786.9140, 132.5117
788.0580, 104.8896
789.2010, 105.2617
790.3450, 136.6279
791.4880, 45.11328
792.6310, 194.4668
793.7730, 113.8369
794.9160, 241.1777
796.0590, 202.5146
797.2010, 171.8438
798.3430, 47.16602
799.4850, 146.5420
800.6270, 37.85352
801.7690, 18.84180
802.9100, 32.43945
804.0520, 225.7129
805.1930, 225.9795
806.3340, 176.2422
807.4750, 125.4990
808.6160, 124.7500
809.7560, 231.9971
810.8970, 69.30566
812.0370, 229.5391
813.1770, 138.7666
814.3170, 34.98926
815.4570, 25.77539
816.5960, 21.95410
817.7360, 162.5938
818.8750, 195.0342
820.0140, 136.2021
821.1530, 251.3662
822.2920, 166.5215
823.4310, 37.76270
824.5690, 291.9072
825.7070, 117.1660
826.8460, 211.2969
827.9840, 132.4199
829.1220, 31.46094
830.2590, 33.00000
831.3970, 252.0801
832.5340, 105.2988
833.6710, 100.3711
834.8080, 85.44141
835.9450, 3.507813
837.0820, 69.55859
838.2190, 103.6367
839.3550, 146.6934
840.4910, 86.86133
841.6270, 161.9043
842.7630, 219.9453
843.8990, 78.97461
845.0350, 229.0039
846.1700, 85.02344
847.3060, 158.0762
848.4410, 25.09375
849.5760, 69.10352
850.7100, 47.30469
851.8450, 126.3008
852.9800, 119.4023
854.1140, 215.3027
855.2480, 124.3086
856.3820, 130.3105
857.5160, 98.30273
858.6500, 157.2910
859.7830, 116.2578
860.9170, 179.2344
862.0500, 221.2070
863.1830, 210.9219
864.3160, 218.8809
865.4480, 59.83398
866.5810, 232.8477
867.7130, 266.7969
868.8460, 57.73828
869.9780, 131.6426
871.1100, 285.5547
872.2410, 154.5254
873.3730, 81.44531
874.5050, 48.31641
875.6360, 272.5586
876.7670, 145.4336
877.8980, 203.3008
879.0290, 14.16602
880.1590, 184.0195
881.2900, 159.8672
882.4200, 38.27734
883.5500, 75.14844
884.6800, 51.97852
885.8100, 40.14062
886.9400, 63.92773
888.0690, 47.74805
889.1990, 227.5352
890.3280, 125.4180
891.4570, 39.96289
892.5860, 81.31250
893.7140, 324.7070
894.8430, 240.4980
895.9710, 11.42773
897.1000, 127.2070
898.2280, 34.95312
899.3560, 126.8535
900.4830, 287.2812
901.6110, 43.69922
902.7380, 56.01172
903.8660, 193.7168
904.9930, 109.4160
906.1200, 155.1113
907.2460, 15.50586
908.3730, 16.21875
909.5000, 176.0000
910.6260, 60.26367
911.7520, 148.9355
912.8780, 74.60352
914.0040, 36.28906
915.1290, 176.9668
916.2550, 176.6387
917.3800, 188.3047
918.5050, 149.9629
919.6300, 88.62500
920.7550, 246.2773
921.8800, 35.07422
923.0040, 208.5449
924.1290, 73.15625
925.2530, 110.7656
926.3770, 36.36719
927.5010, 70.89453
928.6250, 60.49414
929.7480, 164.0938
930.8720, 75.68359
931.9950, 126.2695
933.1180, 230.8496
934.2410, 51.37109
935.3640, 209.9395
936.4860, 156.3711
937.6090, 127.9316
938.7310, 173.7207
939.8530, 140.8457
940.9750, 138.3945
942.0970, 181.9395
943.2180, 101.4785
944.3400, 157.0137
945.4610, 45.56445
946.5820, 67.10742
947.7030, 126.6484
948.8240, 110.1816
949.9450, 55.43555
951.0650, 77.56836
952.1860, 237.6934
953.3060, 9.179688
954.4260, 319.6562
955.5460, 251.1309
956.6650, 353.5996
957.7850, 36.06445
958.9040, 160.3672
960.0230, 27.82031
961.1420, 61.26953
962.2610, 227.7168
963.3800, 168.1562
964.4990, 16.20312
965.6170, 176.0039
966.7350, 19.42188
967.8530, 121.8340
968.9710, 209.2402
970.0890, 283.6445
971.2070, 246.3359
972.3240, 44.73242
973.4410, 154.1230
974.5580, 24.51172
975.6750, 189.8965
976.7920, 215.2754
977.9090, 140.6523
979.0250, 75.02539
980.1410, 74.39258
981.2580, 41.76172
982.3740, 198.1895
983.4890, 173.2598
984.6050, 7.615234
985.7200, 341.8867
986.8360, 97.23047
987.9510, 73.57617
989.0660, 230.9160
990.1810, 62.25391
991.2950, 115.5859
992.4100, 175.9160
993.5240, 80.24219
994.6390, 196.5664
995.7530, 239.8848
996.8660, 11.79688
997.9800, 160.5098
999.0940, 117.8125
1000.207, 31.08008
1001.320, 127.3789
1002.433, 113.6699
1003.546, 156.9180
1004.659, 209.2578
1005.772, 35.54297
1006.884, 124.8223
1007.996, 34.80469
1009.108, 244.6445
1010.220, 89.85352
1011.332, 186.1016
1012.444, 231.7949
1013.555, 135.6230
1014.666, 186.8633
1015.777, 32.10352
1016.888, 33.23047
1017.999, 121.4805
1019.110, 120.6680
1020.220, 47.82227
1021.331, 69.54297
1022.441, 0.7460940
1023.551, 25.01367
1024.661, 15.46094
1025.770, 7.367188
1026.880, 1.710938
1027.989, 49.96680
1029.098, 6.218750
1030.207, 198.1309
1031.316, 24.37695
1032.425, 253.8887
1033.533, 45.30664
1034.642, 16.56055
1035.750, 71.61719
1036.858, 109.8555
1037.966, 88.10352
1039.073, 106.4766
1040.181, 28.41016
1041.288, 28.56250
1042.396, 11.54492
1043.503, 138.2344
1044.610, 168.8809
1045.716, 197.0273
1046.823, 129.1719
1047.929, 90.18359
1049.036, 176.3242
1050.142, 171.4629
1051.248, 36.60156
1052.353, 159.7363
1053.459, 103.8711
1054.564, 145.0059
1055.670, 207.2383
1056.775, 54.36914
1057.880, 107.4980
1058.985, 129.6270
1060.089, 359.6270
1061.194, 152.3867
1062.298, 418.7207
1063.402, 278.8418
1064.506, 305.9648
1065.610, 102.0879
1066.713, 246.2090
1067.817, 148.2695
1068.920, 144.3906
1070.023, 244.5117
1071.126, 176.5566
1072.229, 270.7559
1073.332, 385.8828
1074.435, 486.0098
1075.537, 409.1328
1076.639, 237.2578
1077.741, 688.0078
1078.843, 798.0605
1079.945, 1062.189
1081.046, 2068.314
1082.148, 3682.188
1083.249, 5258.293
1084.350, 9453.430
1085.451, 20477.56
1086.551, 39394.44
1087.652, 43457.57
1088.752, 28077.70
1089.853, 11689.83
1090.953, 4402.875
1092.053, 1752.008
1093.152, 1049.016
1094.252, 476.1660
1095.351, 495.3164
1096.451, 383.4668
1097.550, 181.2695
1098.649, 226.4414
1099.748, 254.4707
1100.846, 113.6445
1101.945, 304.8184
1103.043, 77.98828
1104.141, 201.1660
1105.239, 48.30859
1106.337, 70.48242
1107.434, 67.54297
1108.532, 332.7500
1109.629, 132.9570
1110.726, 194.1738
1111.823, 263.3965
1112.920, 214.6152
1114.017, 8.796875
1115.113, 233.0176
1116.210, 204.2383
1117.306, 177.2637
1118.402, 297.4863
1119.498, 172.7051
1120.593, 102.9258
1121.689, 115.1465
1122.784, 168.3926
1123.879, 181.6133
1124.974, 174.4062
1126.069, 194.5391
1127.164, 182.8203
1128.259, 182.5059
1129.353, 164.8047
1130.447, 131.0293
1131.541, 122.2539
1132.635, 253.4102
1133.729, 101.6367
1134.822, 206.8633
1135.916, 12.09180
1137.009, 157.3184
1138.102, 59.50000
1139.195, 1.855469
1140.288, 28.75586
1141.380, 20.95117
1142.473, 61.73438
1143.565, 9.529297
1144.657, 218.7598
1145.749, 281.9941
1146.841, 312.2305
1147.932, 373.0977
1149.024, 142.6270
1150.115, 254.8633
1151.206, 251.1875
1152.297, 28.35156
1153.388, 146.8750
1154.479, 63.90820
1155.569, 184.0684
1156.659, 83.19336
1157.750, 272.8828
1158.839, 323.9512
1159.929, 211.1855
1161.019, 237.2773
1162.108, 216.5215
1163.198, 157.6992
1164.287, 40.04297
1165.376, 57.19531
1166.465, 19.33984
1167.553, 308.5938
1168.642, 79.84961
1169.730, 213.1035
1170.818, 240.3594
1171.906, 64.91016
1172.994, 152.1602
1174.082, 77.34180
1175.170, 232.0371
1176.257, 148.3223
1177.344, 74.60742
1178.431, 93.89258
1179.518, 186.1797
1180.605, 29.46875
1181.691, 133.7598
1182.778, 343.0469
1183.864, 22.33789
1184.950, 74.62891
1186.036, 153.9297
1187.122, 23.24414
1188.207, 109.5586
1189.292, 69.88281
1190.378, 81.20508
1191.463, 51.47266
1192.548, 4.707031
1193.632, 260.1328
1194.717, 75.43750
1195.801, 159.0039
1196.886, 312.3086
1197.970, 275.6172
1199.054, 77.92188
1200.137, 105.2285
1201.221, 21.45898
1202.305, 6.962891
1203.388, 340.1445
1204.471, 101.4512
1205.554, 221.7559
1206.637, 278.0625
1207.719, 66.63086
1208.802, 45.64453
1209.884, 171.4688
1210.966, 118.7441
1212.048, 16.97852
1213.130, 93.28906
1214.212, 112.5781
1215.293, 222.8652
1216.374, 38.15234
1217.456, 133.4414
1218.536, 174.7324
1219.617, 205.0215
1220.698, 242.0000
1221.778, 197.5977
1222.859, 273.8906
1223.939, 145.4883
1225.019, 155.8652
1226.099, 165.1562
1227.178, 68.26562
1228.258, 149.5625
1229.337, 128.8574
1230.417, 368.1543
1231.496, 60.45117
1232.574, 217.7461
1233.653, 187.0391
1234.732, 40.33594
1235.810, 167.6328
1236.888, 258.9258
1237.966, 309.8086
1239.044, 150.1055
1240.122, 200.5781
1241.199, 382.8809
1242.277, 77.17969
1243.354, 194.5703
1244.431, 51.79883
1245.508, 91.09570
1246.585, 150.3926
1247.661, 175.6895
1248.738, 132.9805
1249.814, 247.2734
1250.890, 372.5645
1251.966, 47.85352
1253.042, 232.4355
1254.117, 193.7227
1255.193, 153.2676
1256.268, 288.5508
1257.343, 178.8340
1258.418, 53.48633
1259.493, 264.7695
1260.567, 187.1367
1261.642, 299.4160
1262.716, 383.6953
1263.790, 231.9707
1264.864, 82.24609
1265.938, 198.6055
1267.011, 207.8789
1268.085, 29.25195
1269.158, 225.8809
1270.231, 127.1562
1271.304, 278.4766
1272.377, 288.7520
1273.450, 46.58008
1274.522, 240.8516
1275.594, 219.1211
1276.666, 200.3867
1277.738, 336.6523
1278.810, 233.9160
1279.882, 42.86523
1280.953, 63.87695
1282.025, 277.8926
1283.096, 124.1094
1284.167, 267.4141
1285.238, 234.1426
1286.308, 188.3555
1287.379, 324.5703
1288.449, 276.7832
1289.519, 221.9941
1290.589, 158.7578
1291.659, 248.9629
1292.729, 270.6328
1293.798, 162.6641
1294.868, 495.8633
1295.937, 479.1992
1297.006, 345.6270
1298.075, 329.8184
1299.143, 108.0078
1300.212, 157.2832
1301.280, 280.6992
1302.348, 136.9180
1303.416, 179.4336
1304.484, 246.0000
1305.552, 243.2480
1306.620, 301.4922
1307.687, 389.7363
1308.754, 366.9766
1309.821, 181.2715
1310.888, 362.5039
1311.955, 90.00977
1313.021, 149.2363
1314.088, 157.2676
1315.154, 213.4883
1316.220, 226.7070
1317.286, 228.7734
1318.352, 190.6719
1319.417, 209.8965
1320.483, 231.0195
1321.548, 207.9746
1322.613, 107.5430
1323.678, 21.71875
1324.743, 172.8926
1325.807, 180.0625
1326.872, 326.2344
1327.936, 158.4043
1329.000, 98.11523
1330.064, 89.36328
1331.128, 301.4512
1332.191, 270.1133
1333.255, 283.2715
1334.318, 176.4316
1335.381, 162.5879
1336.444, 206.1133
1337.507, 16.75000
1338.569, 161.3750
1339.632, 224.4863
1340.694, 444.8516
1341.756, 257.9590
1342.818, 291.1680
1343.880, 148.2754
1344.941, 179.3438
1346.003, 264.3887
1347.064, 183.4355
1348.125, 367.4785
1349.186, 133.5215
1350.247, 433.5605
1351.308, 59.40039
1352.368, 71.61523
1353.428, 142.6270
1354.489, 35.36523
1355.549, 356.6289
1356.608, 247.6895
1357.668, 188.9902
1358.727, 267.9766
1359.787, 203.9570
1360.846, 118.9336
1361.905, 126.9121
1362.964, 140.8848
1364.022, 109.8574
1365.081, 110.1777
1366.139, 100.4219
1367.197, 39.65039
1368.255, 181.3086
1369.313, 298.4297
1370.371, 78.31641
1371.428, 142.1973
1372.486, 236.0742
1373.543, 310.9473
1374.600, 264.8223
1375.657, 249.6504
1376.713, 166.4746
1377.770, 257.2930
1378.826, 233.1094
1379.882, 33.89258
1380.938, 145.6953
1381.994, 42.48242
1383.050, 182.2598
1384.106, 200.0234
1385.161, 23.77734
1386.216, 328.5117
1387.271, 86.25195
1388.326, 184.9902
1389.381, 303.7168
1390.435, 231.4414
1391.490, 272.5547
1392.544, 74.86328
1393.598, 196.5664
1394.652, 84.26562
1395.705, 17.39648
1396.759, 179.0840
1397.812, 197.0254
1398.866, 148.7090
1399.919, 272.4180
1400.972, 119.0391
1402.024, 365.7148
1403.077, 242.3828
1404.129, 196.0430
1405.181, 193.6992
1406.233, 4.353516
1407.285, 244.9141
1408.337, 327.3262
1409.389, 253.9395
1410.440, 89.54883
1411.491, 10.84570
1412.542, 118.7461
1413.593, 257.3359
1414.644, 184.9238
1415.695, 212.5039
1416.745, 10.91797
1417.795, 441.6523
1418.845, 20.21875
1419.895, 135.7793
1420.945, 250.3477
1421.995, 72.91406
1423.044, 59.46875
1424.093, 268.0117
1425.142, 400.5508
1426.191, 106.2090
1427.240, 65.25586
1428.289, 214.2910
1429.337, 51.80273
1430.385, 48.31055
1431.433, 280.8184
1432.481, 179.3262
1433.529, 232.8340
1434.577, 134.3438
1435.624, 111.8555
1436.672, 266.3711
1437.719, 60.59961
1438.766, 221.0840
1439.812, 9.275391
1440.859, 170.7773
1441.905, 243.1328
1442.952, 4.962891
1443.998, 234.8438
1445.044, 121.5078
1446.090, 24.10742
1447.135, 209.4512
1448.181, 42.56250
1449.226, 213.3125
1450.271, 325.3203
1451.316, 160.3242
1452.361, 202.3223
1453.405, 302.3242
1454.450, 29.31641
1455.494, 379.3203
1456.538, 162.6816
1457.582, 33.68555
1458.626, 294.6914
1459.670, 212.6934
1460.713, 223.6934
1461.757, 236.6934
1462.800, 355.8125
1463.843, 312.7129
1464.886, 291.9629
1465.928, 249.2617
1466.971, 231.1660
1468.013, 107.0684
1469.055, 198.9707
1470.097, 165.6582
1471.139, 275.5547
1472.181, 259.1777
1473.222, 282.9062
1474.263, 195.6328
1475.305, 212.3574
1476.346, 286.0781
1477.386, 321.4121
1478.427, 281.7793
1479.468, 347.9863
1480.508, 301.5684
1481.548, 110.2617
1482.588, 52.95117
1483.628, 148.4453
1484.668, 217.3379
1485.707, 254.0020
1486.747, 259.6641
1487.786, 235.3203
1488.825, 302.9785
1489.864, 384.6016
1490.902, 20.27148
1491.941, 188.8320
1492.979, 3.164063
1494.017, 77.82812
1495.055, 247.9961
1496.093, 166.8711
1497.131, 408.4922
1498.168, 194.4297
1499.206, 186.0391
1500.243, 181.5117
1501.280, 149.3613
1502.317, 329.1562
1503.354, 243.4961
1504.390, 307.7188
1505.426, 263.5312
1506.463, 281.5020
1507.499, 228.6895
1508.535, 279.9375
1509.570, 321.9941
1510.606, 215.4277
1511.641, 247.6289
1512.676, 165.7988
1513.711, 185.7930
1514.746, 154.8906
1515.781, 338.8613
1516.816, 172.8770
1517.850, 336.9004
1518.884, 351.9688
1519.918, 27.02734
1520.952, 246.8086
1521.986, 66.02539
1523.019, 313.2578
1524.053, 121.4648
1525.086, 250.6465
1526.119, 238.8184
1527.152, 307.7812
1528.185, 339.0234
1529.217, 340.1172
1530.250, 459.1602
1531.282, 336.1875
1532.314, 270.1211
1533.346, 225.0156
1534.377, 356.9219
1535.409, 524.7969
1536.440, 255.7695
1537.472, 311.8711
1538.503, 132.9570
1539.534, 181.0957
1540.564, 189.3320
1541.595, 210.6660
1542.625, 221.0117
1543.656, 337.4102
1544.686, 347.8652
1545.716, 149.3438
1546.745, 440.0938
1547.775, 185.1953
1548.804, 227.3926
1549.834, 66.25000
1550.863, 286.1641
1551.892, 25.59570
1552.920, 216.2871
1553.949, 269.1699
1554.977, 256.1387
1556.006, 252.1621
1557.034, 200.3008
1558.062, 261.5234
1559.089, 204.8320
1560.117, 362.5430
1561.144, 300.9102
1562.172, 34.81250
1563.199, 15.79883
1564.226, 165.2930
1565.252, 15.08984
1566.279, 169.0586
1567.305, 65.94922
1568.332, 198.2930
1569.358, 1.107422
1570.384, 99.19922
1571.409, 0.0000000E+00
##END=



