##NAMES=Arfvedsonite
##RRUFFID=R040127
##IDEAL CHEMISTRY=NaNa_2_(Fe^2+^_4_Fe^3+^)Si_8_O_22_(OH)_2_
##LOCALITY=Mont Saint-Hilaire, Rouville County, Quebec, Canada
##OWNER=RRUFF
##SOURCE=Bob Downs
##DESCRIPTION=Black prismatic crystal associated with white analcime, R040128
##STATUS=The identification of this mineral has been confirmed by X-ray diffraction and chemical analysis
##URL=rruff.info/R040127
##MEASURED CHEMISTRY=(Na_0.61_K_0.39_)Na_2.00_(Fe^2+^_2.40_Mg_0.80_Mn_0.75_Ca_0.05_)_&#931;=4_(Fe^3+^_0.60_Al_0.25_Mn_0.15_)(Si_0.99_Ti_0.01_)_8_O_22_((OH)_0.67_F_0.33_)_2_
##PIN_ID=M00446
##ORIENTATION=Laser parallel to (-1 0 -1). Fiducial mark perpendicular to laser is parallel to -b [0 -1 0]
155.9950, 0.0000000E+00
157.2280, 15.80078
158.4600, 337.6211
159.6920, 728.0547
160.9250, 1762.379
162.1560, 3167.195
163.3880, 4384.918
164.6200, 5279.445
165.8510, 5094.328
167.0820, 4926.406
168.3130, 5019.164
169.5440, 4579.383
170.7750, 4345.445
172.0050, 3216.145
173.2350, 2428.508
174.4650, 1684.164
175.6950, 1001.375
176.9250, 934.3633
178.1550, 379.9727
179.3840, 357.6836
180.6130, 139.1602
181.8420, 359.8164
183.0710, 872.3047
184.3000, 1118.949
185.5280, 2104.570
186.7570, 2986.688
187.9850, 3718.324
189.2130, 4563.320
190.4400, 5444.711
191.6680, 6533.289
192.8960, 7256.105
194.1230, 8259.352
195.3500, 8775.309
196.5770, 9613.777
197.8030, 10240.31
199.0300, 10764.38
200.2560, 11666.49
201.4830, 12248.16
202.7090, 11905.72
203.9340, 9992.484
205.1600, 7988.352
206.3860, 6714.793
207.6110, 6276.000
208.8360, 6079.184
210.0610, 6098.637
211.2860, 5968.215
212.5100, 6251.867
213.7350, 6300.137
214.9590, 6697.160
216.1830, 6408.512
217.4070, 6237.883
218.6310, 6205.410
219.8540, 5586.164
221.0780, 5289.301
222.3010, 4956.590
223.5240, 5143.996
224.7470, 4197.461
225.9690, 4219.758
227.1920, 3655.906
228.4140, 3548.633
229.6360, 3232.484
230.8580, 3842.059
232.0800, 3193.406
233.3020, 2499.574
234.5230, 3018.535
235.7440, 2538.203
236.9650, 2614.492
238.1860, 2581.379
239.4070, 2486.781
240.6280, 2603.664
241.8480, 2641.965
243.0680, 2481.777
244.2880, 2401.004
245.5080, 2124.738
246.7280, 2110.398
247.9470, 1829.363
249.1660, 1834.520
250.3860, 1671.832
251.6040, 1532.266
252.8230, 1361.758
254.0420, 1145.270
255.2600, 1115.785
256.4790, 849.2773
257.6970, 1872.723
258.9150, 1571.680
260.1320, 1351.090
261.3500, 1683.172
262.5670, 538.8789
263.7840, 331.3477
265.0010, 82.57031
266.2180, 101.5586
267.4350, 243.6836
268.6510, 328.1758
269.8680, 406.8438
271.0840, 523.7539
272.3000, 471.8750
273.5160, 359.2148
274.7310, 475.7617
275.9470, 305.5391
277.1620, 418.5586
278.3770, 361.8438
279.5920, 373.4375
280.8070, 251.2773
282.0210, 410.3594
283.2360, 115.8203
284.4500, 104.1172
285.6640, 326.1094
286.8780, 273.9180
288.0920, 429.5234
289.3050, 556.6680
290.5180, 880.4844
291.7320, 933.9727
292.9450, 1320.562
294.1570, 1450.645
295.3700, 1575.535
296.5830, 1818.180
297.7950, 1974.699
299.0070, 2201.141
300.2190, 2103.133
301.4310, 2410.812
302.6420, 2153.312
303.8540, 2085.773
305.0650, 2754.414
306.2760, 2684.855
307.4870, 2888.918
308.6980, 3083.414
309.9080, 3045.297
311.1190, 3253.996
312.3290, 3153.395
313.5390, 3211.004
314.7490, 3237.418
315.9580, 3306.852
317.1680, 3187.426
318.3770, 2944.832
319.5860, 3227.125
320.7950, 2950.723
322.0040, 2439.855
323.2130, 2377.805
324.4210, 2277.469
325.6290, 2111.039
326.8380, 2163.250
328.0460, 2124.324
329.2530, 1933.203
330.4610, 1806.164
331.6680, 1811.844
332.8760, 2113.168
334.0830, 1924.785
335.2890, 2183.203
336.4960, 2488.660
337.7030, 2508.105
338.9090, 2455.918
340.1150, 2986.348
341.3210, 3221.484
342.5270, 3434.266
343.7330, 3787.094
344.9380, 4176.668
346.1440, 4636.027
347.3490, 5051.570
348.5540, 5552.094
349.7590, 6042.133
350.9630, 6522.949
352.1680, 6941.215
353.3720, 7241.145
354.5760, 7384.730
355.7800, 7757.742
356.9840, 8125.953
358.1870, 8385.906
359.3910, 8340.414
360.5940, 8439.598
361.7970, 8246.551
363.0000, 8038.320
364.2030, 8078.047
365.4050, 7808.828
366.6080, 7648.203
367.8100, 7573.258
369.0120, 7081.105
370.2140, 6927.820
371.4150, 6630.434
372.6170, 6582.984
373.8180, 6325.469
375.0190, 6097.891
376.2200, 6019.676
377.4210, 5930.531
378.6220, 5762.746
379.8220, 5773.879
381.0230, 5595.938
382.2230, 5424.910
383.4230, 4952.797
384.6220, 5031.594
385.8220, 4772.305
387.0220, 4755.922
388.2210, 4428.434
389.4200, 4292.836
390.6190, 4069.059
391.8180, 4049.281
393.0160, 3713.164
394.2150, 3486.980
395.4130, 3592.023
396.6110, 2999.398
397.8090, 3079.957
399.0060, 2899.148
400.2040, 2924.020
401.4010, 2970.582
402.5980, 2868.914
403.7950, 3000.621
404.9920, 3304.852
406.1890, 3188.113
407.3860, 3164.262
408.5820, 3241.117
409.7780, 3670.969
410.9740, 3745.754
412.1700, 4003.734
413.3650, 4048.445
414.5610, 4371.250
415.7560, 4214.754
416.9510, 4588.551
418.1460, 4702.461
419.3410, 4608.098
420.5360, 4541.465
421.7300, 4445.785
422.9240, 4508.711
424.1180, 4251.539
425.3120, 4038.980
426.5060, 3744.988
427.7000, 3409.578
428.8930, 3052.078
430.0860, 2764.816
431.2790, 2725.523
432.4720, 2372.586
433.6650, 2354.695
434.8580, 2102.250
436.0500, 1983.281
437.2420, 1458.590
438.4340, 1435.449
439.6260, 1366.836
440.8180, 800.2539
442.0090, 785.2344
443.2010, 837.1875
444.3920, 176.0898
445.5830, 612.9219
446.7740, 67.61719
447.9640, 88.14844
449.1550, 63.50000
450.3450, 120.6758
451.5350, 181.6680
452.7250, 170.5117
453.9150, 226.0469
455.1050, 0.8007810
456.2940, 20.72266
457.4830, 416.1445
458.6720, 25.23047
459.8610, 253.6406
461.0500, 71.73047
462.2390, 159.4297
463.4270, 231.2305
464.6150, 247.5195
465.8040, 433.7656
466.9910, 56.04297
468.1790, 622.8945
469.3670, 369.6641
470.5540, 544.4258
471.7410, 78.44531
472.9280, 139.4844
474.1150, 81.71094
475.3020, 0.5585940
476.4890, 91.07812
477.6750, 25.77734
478.8610, 91.66797
480.0470, 81.86328
481.2330, 42.26172
482.4190, 413.4648
483.6040, 390.7930
484.7900, 373.3398
485.9750, 261.1328
487.1600, 461.8867
488.3450, 659.5391
489.5290, 760.4023
490.7140, 919.3047
491.8980, 1172.668
493.0820, 1245.090
494.2660, 1439.410
495.4500, 1801.633
496.6340, 1740.758
497.8170, 2466.789
499.0010, 2626.715
500.1840, 2656.547
501.3670, 2831.289
502.5500, 3186.949
503.7320, 3376.531
504.9150, 3562.066
506.0970, 3703.535
507.2790, 3840.961
508.4610, 4122.332
509.6430, 4262.980
510.8250, 4341.918
512.0060, 4655.125
513.1870, 4822.273
514.3680, 5029.371
515.5490, 5313.414
516.7300, 5647.398
517.9110, 6013.320
519.0910, 6480.195
520.2710, 6712.008
521.4510, 7280.773
522.6310, 7746.480
523.8110, 8534.141
524.9910, 9257.750
526.1700, 9932.297
527.3490, 10624.78
528.5280, 11299.82
529.7070, 11897.79
530.8860, 12570.30
532.0650, 13154.75
533.2430, 13653.53
534.4210, 14378.61
535.5990, 14288.09
536.7770, 14696.61
537.9550, 14717.20
539.1320, 14160.79
540.3100, 14251.50
541.4870, 13641.26
542.6640, 13353.06
543.8410, 12635.90
545.0170, 12641.78
546.1940, 11411.73
547.3700, 10787.70
548.5470, 10858.66
549.7230, 10626.71
550.8980, 9774.836
552.0740, 9431.102
553.2500, 9265.504
554.4250, 8812.141
555.6000, 8496.016
556.7750, 8701.207
557.9500, 8142.656
559.1250, 7855.371
560.2990, 8147.281
561.4730, 7984.473
562.6480, 7509.922
563.8220, 7528.543
564.9950, 7372.332
566.1690, 7353.289
567.3430, 7220.410
568.5160, 7136.375
569.6890, 7011.332
570.8620, 6947.609
572.0350, 6766.070
573.2070, 6639.547
574.3800, 6610.016
575.5520, 6218.469
576.7240, 5551.898
577.8960, 5391.293
579.0680, 4734.645
580.2400, 4467.953
581.4110, 3826.215
582.5830, 3057.098
583.7540, 2738.883
584.9250, 2330.859
586.0950, 2112.801
587.2660, 1683.781
588.4370, 1480.797
589.6070, 1302.977
590.7770, 1019.504
591.9470, 884.2578
593.1170, 574.3164
594.2860, 626.0547
595.4560, 361.2188
596.6250, 378.5508
597.7940, 237.4727
598.9630, 144.3477
600.1320, 258.9297
601.3000, 55.06641
602.4690, 103.0117
603.6370, 37.69141
604.8050, 118.6211
605.9730, 20.40625
607.1410, 311.6953
608.3090, 227.2109
609.4760, 320.8828
610.6430, 45.94922
611.8100, 535.6133
612.9770, 148.9102
614.1440, 215.9648
615.3110, 162.3672
616.4770, 546.8789
617.6430, 81.75391
618.8090, 137.8516
619.9750, 158.6445
621.1410, 60.95312
622.3070, 79.37891
623.4720, 228.8594
624.6370, 69.61328
625.8020, 54.50000
626.9670, 40.08984
628.1320, 39.50391
629.2970, 137.6875
630.4610, 476.2852
631.6250, 361.5703
632.7890, 523.6758
633.9530, 479.7266
635.1170, 467.6836
636.2810, 809.3086
637.4440, 574.5469
638.6070, 424.8828
639.7700, 821.8125
640.9330, 679.2305
642.0960, 784.9102
643.2590, 882.5742
644.4210, 949.9453
645.5830, 1104.863
646.7450, 1322.055
647.9070, 1182.328
649.0690, 1485.957
650.2310, 1889.523
651.3920, 1820.055
652.5530, 2088.543
653.7140, 2374.992
654.8750, 2665.480
656.0360, 3337.852
657.1970, 3595.180
658.3570, 4156.699
659.5170, 4474.953
660.6770, 5285.395
661.8370, 6603.766
662.9970, 8000.836
664.1570, 8664.930
665.3160, 9758.984
666.4750, 10809.25
667.6340, 12405.50
668.7930, 13877.11
669.9520, 15195.64
671.1110, 16723.95
672.2690, 18046.06
673.4270, 19673.84
674.5850, 20522.99
675.7430, 21645.79
676.9010, 19432.95
678.0590, 18371.44
679.2160, 16826.54
680.3730, 15328.39
681.5300, 13207.49
682.6870, 10841.86
683.8440, 9478.820
685.0010, 8056.051
686.1570, 6966.191
687.3130, 5906.848
688.4690, 5084.371
689.6250, 4445.070
690.7810, 3954.172
691.9370, 3625.785
693.0920, 3521.711
694.2470, 3457.449
695.4020, 3227.266
696.5570, 3188.336
697.7120, 2965.047
698.8670, 2625.004
700.0210, 2682.438
701.1750, 2675.906
702.3290, 2562.207
703.4830, 2628.438
704.6370, 2681.582
705.7910, 2364.371
706.9440, 2535.156
708.0970, 2348.055
709.2510, 2344.875
710.4030, 2542.605
711.5560, 2429.258
712.7090, 2488.004
713.8610, 2382.305
715.0140, 2528.703
716.1660, 2449.020
717.3180, 2580.250
718.4690, 2552.395
719.6210, 2459.461
720.7730, 2420.562
721.9240, 2298.348
723.0750, 2191.176
724.2260, 2557.926
725.3770, 2495.609
726.5270, 2710.223
727.6780, 2499.770
728.8280, 2157.258
729.9780, 2726.684
731.1280, 2363.051
732.2780, 2942.352
733.4280, 3056.219
734.5770, 3252.477
735.7260, 3435.352
736.8760, 2494.594
738.0250, 2490.379
739.1730, 2668.598
740.3220, 2267.898
741.4700, 2587.355
742.6190, 2766.480
743.7670, 2100.887
744.9150, 1546.105
746.0630, 1759.066
747.2100, 1566.227
748.3580, 1470.246
749.5050, 1443.062
750.6520, 1273.402
751.7990, 1016.805
752.9460, 1023.176
754.0930, 824.6680
755.2390, 929.7852
756.3860, 867.0312
757.5320, 1033.688
758.6780, 859.0742
759.8240, 776.5625
760.9690, 776.7891
762.1150, 863.6836
763.2600, 657.1758
764.4060, 666.8281
765.5510, 712.3984
766.6950, 544.8945
767.8400, 483.3750
768.9850, 507.8516
770.1290, 658.1641
771.2730, 545.5195
772.4170, 151.8086
773.5610, 286.0156
774.7050, 362.1523
775.8480, 325.2305
776.9920, 407.2344
778.1350, 499.1836
779.2780, 444.0742
780.4210, 336.9023
781.5640, 86.66797
782.7060, 119.8125
783.8490, 84.26953
784.9910, 223.4062
786.1330, 116.8320
787.2750, 466.1758
788.4170, 368.4609
789.5580, 412.6953
790.7000, 540.8711
791.8410, 319.9922
792.9820, 704.0547
794.1230, 527.0664
795.2640, 267.0312
796.4040, 555.9375
797.5450, 253.7930
798.6850, 254.5977
799.8250, 87.34375
800.9650, 347.0234
802.1050, 425.6562
803.2450, 100.2344
804.3840, 44.75000
805.5230, 316.9609
806.6630, 15.80469
807.8020, 144.7578
808.9400, 172.3203
810.0790, 331.3125
811.2170, 149.3516
812.3560, 242.4297
813.4940, 347.0078
814.6320, 69.18359
815.7700, 496.6172
816.9070, 225.3398
818.0450, 233.3281
819.1820, 113.7930
820.3190, 270.9609
821.4560, 342.9258
822.5930, 138.5078
823.7300, 87.42188
824.8670, 277.1875
826.0030, 150.6250
827.1390, 312.7891
828.2750, 264.1641
829.4110, 321.7383
830.5470, 244.0547
831.6820, 495.5352
832.8180, 141.8398
833.9530, 243.2734
835.0880, 74.87891
836.2230, 313.5742
837.3580, 383.4688
838.4920, 539.3906
839.6270, 393.2305
840.7610, 310.0469
841.8950, 139.1602
843.0290, 93.46484
844.1630, 192.1562
845.2960, 175.7656
846.4300, 194.4219
847.5630, 63.91797
848.6960, 85.47266
849.8290, 163.0117
850.9620, 86.53906
852.0940, 438.0547
853.2270, 362.5586
854.3590, 521.0508
855.4910, 466.5312
856.6230, 554.8906
857.7550, 663.8555
858.8870, 717.9219
860.0180, 888.3750
861.1500, 989.8203
862.2810, 1104.262
863.4120, 1042.703
864.5430, 1282.141
865.6730, 1567.574
866.8040, 1557.008
867.9340, 1839.441
869.0640, 1877.879
870.1940, 2286.316
871.3240, 2364.758
872.4540, 2472.203
873.5830, 2632.660
874.7130, 2910.129
875.8420, 2712.602
876.9710, 3071.094
878.1000, 3238.598
879.2290, 3704.113
880.3570, 3588.648
881.4860, 3478.207
882.6140, 3791.852
883.7420, 4007.562
884.8700, 3902.297
885.9980, 4073.047
887.1250, 3906.812
888.2530, 3956.629
889.3800, 3930.469
890.5070, 3932.965
891.6340, 4058.637
892.7610, 3976.230
893.8880, 4239.246
895.0140, 4199.316
896.1400, 4104.410
897.2670, 4366.555
898.3930, 4390.777
899.5180, 4352.051
900.6440, 4975.363
901.7700, 4489.703
902.8950, 4293.090
904.0200, 5509.508
905.1450, 5162.957
906.2700, 4597.430
907.3950, 5056.934
908.5190, 4850.582
909.6440, 5272.570
910.7680, 5282.922
911.8920, 5440.176
913.0160, 5360.832
914.1400, 5339.535
915.2630, 5458.285
916.3870, 5458.824
917.5100, 5370.039
918.6330, 5489.703
919.7560, 5510.168
920.8790, 5539.559
922.0010, 5618.656
923.1240, 5305.832
924.2460, 5427.078
925.3680, 5320.414
926.4900, 5315.832
927.6120, 5314.293
928.7340, 5266.910
929.8550, 5347.621
930.9760, 5441.207
932.0980, 5235.109
933.2190, 5434.875
934.3390, 5055.770
935.4600, 5515.008
936.5810, 5435.707
937.7010, 5573.082
938.8210, 5553.812
939.9410, 5830.051
941.0610, 5808.945
942.1810, 5722.988
943.3010, 5980.301
944.4200, 6038.871
945.5390, 6285.355
946.6580, 6446.422
947.7770, 6787.469
948.8960, 7218.289
950.0150, 7297.777
951.1330, 7563.684
952.2510, 7916.871
953.3690, 7952.820
954.4870, 8379.551
955.6050, 8682.695
956.7230, 8886.609
957.8400, 9233.668
958.9580, 9674.297
960.0750, 10037.21
961.1920, 10620.53
962.3090, 11270.98
963.4250, 11737.81
964.5420, 12321.36
965.6580, 12856.16
966.7740, 13692.53
967.8900, 14190.49
969.0060, 14886.45
970.1220, 15780.18
971.2380, 16457.45
972.3530, 16636.74
973.4680, 17721.23
974.5830, 18234.95
975.6980, 18154.77
976.8130, 18268.98
977.9280, 18186.23
979.0420, 18297.47
980.1560, 17669.80
981.2710, 17202.26
982.3850, 16937.84
983.4980, 15553.54
984.6120, 15036.34
985.7260, 14050.25
986.8390, 13328.27
987.9520, 12783.41
989.0650, 12118.65
990.1780, 10986.00
991.2910, 9941.477
992.4030, 9362.055
993.5160, 9007.746
994.6280, 8479.543
995.7400, 7498.504
996.8520, 7672.570
997.9640, 6927.750
999.0750, 6740.391
1000.187, 7271.516
1001.298, 6386.074
1002.409, 5986.746
1003.520, 5838.531
1004.631, 5767.426
1005.741, 5698.434
1006.852, 5575.973
1007.962, 5218.781
1009.072, 5377.125
1010.182, 5369.582
1011.292, 5291.152
1012.402, 4925.840
1013.511, 5261.633
1014.621, 5195.547
1015.730, 5582.590
1016.839, 5328.863
1017.948, 5233.031
1019.056, 4887.426
1020.165, 5103.938
1021.273, 5020.562
1022.382, 4900.336
1023.490, 4831.234
1024.598, 4844.238
1025.706, 4764.363
1026.813, 4641.590
1027.921, 4762.977
1029.028, 4713.395
1030.135, 4840.969
1031.242, 4943.648
1032.349, 4721.449
1033.456, 4468.355
1034.562, 4862.375
1035.668, 4703.504
1036.775, 4949.746
1037.881, 4911.098
1038.987, 5307.562
1040.092, 5243.789
1041.198, 5237.270
1042.303, 5239.094
1043.408, 5082.035
1044.514, 5059.094
1045.618, 5138.594
1046.723, 5173.906
1047.828, 5380.000
1048.932, 5444.684
1050.037, 5625.172
1051.141, 5808.129
1052.245, 5874.004
1053.349, 5992.105
1054.452, 6019.609
1055.556, 6162.250
1056.659, 6231.805
1057.762, 6382.891
1058.865, 6591.957
1059.968, 6686.086
1061.071, 6677.656
1062.174, 7050.824
1063.276, 7274.160
1064.378, 7281.137
1065.480, 7472.492
1066.582, 7279.711
1067.684, 7530.148
1068.786, 7400.871
1069.887, 7297.109
1070.988, 7581.438
1072.090, 7446.059
1073.191, 6984.961
1074.291, 7174.906
1075.392, 6864.836
1076.493, 7181.172
1077.593, 6712.617
1078.693, 6885.512
1079.793, 6865.602
1080.893, 6673.887
1081.993, 6568.051
1083.092, 6622.348
1084.192, 6651.879
1085.291, 6695.582
1086.390, 6912.254
1087.489, 6967.223
1088.588, 6844.137
1089.686, 7183.941
1090.785, 7146.461
1091.883, 7172.105
1092.981, 7298.805
1094.079, 7510.289
1095.177, 7618.406
1096.275, 7974.691
1097.373, 7887.141
1098.470, 7662.762
1099.567, 7910.461
1100.664, 8059.426
1101.761, 8003.531
1102.858, 8106.750
1103.954, 7971.488
1105.051, 7987.719
1106.147, 8188.000
1107.243, 7934.352
1108.339, 8029.117
1109.435, 7974.875
1110.531, 7875.172
1111.626, 7789.188
1112.722, 7729.371
1113.817, 7351.961
1114.912, 7567.273
1116.007, 7266.539
1117.101, 7357.859
1118.196, 7286.816
1119.290, 7342.453
1120.385, 7150.941
1121.479, 6950.824
1122.573, 6879.426
1123.666, 6766.191
1124.760, 6747.895
1125.853, 6462.652
1126.947, 6275.684
1128.040, 6251.613
1129.133, 6088.523
1130.226, 5861.129
1131.318, 5583.234
1132.411, 5656.938
1133.503, 5396.023
1134.596, 5450.156
1135.688, 5235.332
1136.780, 5025.547
1137.871, 4802.805
1138.963, 4630.629
1140.054, 4549.535
1141.146, 4335.980
1142.237, 4369.395
1143.328, 4338.836
1144.419, 4223.316
1145.509, 3844.832
1146.600, 3781.219
1147.690, 3696.387
1148.780, 3311.562
1149.870, 3307.211
1150.960, 3396.984
1152.050, 2994.836
1153.139, 3041.262
1154.229, 2266.660
1155.318, 2370.449
1156.407, 1693.398
1157.496, 1651.234
1158.585, 1260.301
1159.674, 1046.188
1160.762, 1023.512
1161.850, 757.4375
1162.939, 974.4023
1164.027, 584.3672
1165.114, 209.6055
1166.202, 365.6055
1167.290, 147.9844
1168.377, 160.0156
1169.464, 41.06250
1170.551, 90.46875
1171.638, 29.44922
1172.725, 239.0742
1173.812, 475.2969
1174.898, 582.7891
1175.984, 657.0703
1177.071, 176.1914
1178.157, 154.7734
1179.242, 4.789063
1180.328, 44.65234
1181.414, 6.527344
1182.499, 338.4023
1183.584, 31.64453
1184.669, 336.3672
1185.754, 17.43750
1186.839, 166.0703
1187.924, 226.2852
1189.008, 183.5039
1190.092, 329.8867
1191.177, 163.4180
1192.260, 205.6914
1193.344, 251.7188
1194.428, 169.5312
1195.512, 207.4297
1196.595, 221.4297
1197.678, 92.54688
1198.761, 197.7109
1199.844, 134.6406
1200.927, 75.98438
1202.009, 113.3789
1203.092, 162.1523
1204.174, 204.3281
1205.256, 101.9297
1206.338, 139.5625
1207.420, 212.1289
1208.502, 323.9570
1209.583, 13.38281
1210.665, 365.6680
1211.746, 156.1055
1212.827, 122.1367
1213.908, 134.8125
1214.988, 48.57422
1216.069, 2.800781
1217.149, 45.77344
1218.230, 4.320313
1219.310, 6.183594
1220.390, 103.2852
1221.470, 136.3047
1222.549, 211.0039
1223.629, 44.09375
1224.708, 177.1523
1225.787, 113.1797
1226.866, 104.8320
1227.945, 143.5820
1229.024, 80.53906
1230.103, 220.9922
1231.181, 163.6055
1232.259, 638.6562
1233.337, 19.40234
1234.415, 33.90625
1235.493, 361.6641
1236.571, 63.48438
1237.648, 184.9492
1238.726, 7.953125
1239.803, 155.8789
1240.880, 199.8711
1241.957, 97.58203
1243.034, 6.769531
1244.110, 150.3945
1245.187, 299.0508
1246.263, 307.4922
1247.339, 130.1562
1248.415, 224.4844
1249.491, 277.7617
1250.566, 121.9883
1251.642, 334.5898
1252.717, 137.6992
1253.793, 285.7422
1254.868, 432.9375
1255.943, 39.12500
1257.017, 228.6289
1258.092, 436.3711
1259.166, 25.05469
1260.241, 101.6211
1261.315, 191.1016
1262.389, 370.5469
1263.462, 396.0039
1264.536, 331.2695
1265.610, 323.5469
1266.683, 330.7656
1267.756, 276.2500
1268.829, 422.0430
1269.902, 293.0859
1270.975, 433.8477
1272.048, 646.9922
1273.120, 619.8555
1274.192, 388.9727
1275.264, 121.7227
1276.336, 252.3789
1277.408, 133.9727
1278.480, 369.4727
1279.551, 330.9062
1280.623, 452.2812
1281.694, 28.59375
1282.765, 214.7695
1283.836, 540.8633
1284.907, 343.8984
1285.977, 602.8711
1287.048, 334.7773
1288.118, 539.0352
1289.188, 310.8125
1290.258, 565.5234
1291.328, 396.1680
1292.398, 448.9258
1293.467, 348.2695
1294.537, 573.7148
1295.606, 339.5234
1296.675, 512.9375
1297.744, 745.1953
1298.813, 186.3828
1299.882, 584.8242
1300.950, 344.5469
1302.018, 291.6328
1303.086, 278.3594
1304.155, 169.1523
1305.222, 461.8438
1306.290, 281.4648
1307.358, 240.2383
1308.425, 564.1367
1309.492, 746.7891
1310.559, 797.0820
1311.626, 301.4766
1312.693, 506.5195
1313.760, 421.2070
1314.826, 339.5977
1315.893, 635.1055
1316.959, 221.8438
1318.025, 509.5820
1319.091, 509.1797
1320.157, 646.4883
1321.222, 504.2812
1322.288, 444.3594
1323.353, 665.6914
1324.418, 731.3711
1325.483, 555.3555
1326.548, 703.0117
1327.612, 278.6484
1328.677, 354.0312
1329.741, 646.4648
1330.806, 489.2148
1331.870, 645.3867
1332.934, 672.4844
1333.997, 173.2734
1335.061, 605.6523
1336.124, 624.4570
1337.188, 224.7305
1338.251, 624.9102
1339.314, 278.6914
1340.377, 213.9102
1341.439, 343.3477
1342.502, 270.1875
1343.564, 516.3008
1344.627, 452.9219
1345.689, 363.8086
1346.751, 392.8789
1347.813, 81.51172
1348.874, 402.8516
1349.936, 282.3828
1350.997, 371.1055
1352.058, 523.6445
1353.119, 305.0586
1354.180, 479.8438
1355.241, 34.48438
1356.301, 109.5586
1357.362, 120.7422
1358.422, 467.0195
1359.482, 34.42188
1360.542, 95.08984
1361.602, 362.3984
1362.662, 336.3789
1363.721, 408.3281
1364.781, 142.3906
1365.840, 219.7969
1366.899, 197.0664
1367.958, 490.3633
1369.017, 541.9766
1370.075, 282.5156
1371.134, 19.00391
1372.192, 169.3984
1373.250, 246.2812
1374.308, 37.24219
1375.366, 359.7812
1376.424, 542.5469
1377.481, 592.3281
1378.539, 110.1289
1379.596, 314.5391
1380.653, 242.9414
1381.710, 161.1484
1382.767, 461.9844
1383.824, 47.80469
1384.880, 342.4102
1385.937, 358.0312
1386.993, 494.6289
1388.049, 358.1797
1389.105, 316.0859
1390.161, 544.7422
1391.216, 620.1719
1392.272, 454.8594
1393.327, 606.0078
1394.382, 191.6289
1395.437, 273.7461
1396.492, 569.6445
1397.547, 417.9922
1398.601, 574.0273
1399.656, 612.8789
1400.710, 119.1797
1401.764, 553.7070
1402.818, 581.6992
1403.872, 201.6836
1404.925, 598.6680
1405.979, 276.3672
1407.032, 211.6211
1408.085, 341.2500
1409.139, 259.6953
1410.191, 504.4180
1411.244, 444.3828
1412.297, 355.4414
1413.349, 386.5586
1414.402, 77.54688
1415.454, 399.3086
1416.506, 289.8672
1417.558, 394.9531
1418.609, 548.4023
1419.661, 330.2539
1420.712, 505.2266
1421.764, 70.48438
1422.815, 145.7070
1423.866, 166.2930
1424.916, 513.1016
1425.967, 77.70703
1427.018, 138.9570
1428.068, 410.4453
1429.118, 386.6641
1430.168, 485.4336
1431.218, 217.8086
1432.268, 295.8867
1433.318, 278.2734
1434.367, 585.4844
1435.416, 637.8125
1436.465, 380.2188
1437.514, 123.9297
1438.563, 455.6055
1439.612, 230.0391
1440.661, 305.6367
1441.709, 73.05078
1442.757, 106.2305
1443.805, 133.1641
1444.853, 299.1875
1445.901, 47.33984
1446.949, 336.7070
1447.996, 314.3398
1449.044, 384.2383
1450.091, 443.9648
1451.138, 83.39453
1452.185, 67.49609
1453.232, 544.2695
1454.278, 268.4922
1455.325, 145.3594
1456.371, 130.4766
1457.417, 624.0898
1458.463, 644.9961
1459.509, 100.7305
1460.555, 569.8672
1461.601, 416.3594
1462.646, 448.7266
1463.691, 413.2812
1464.737, 393.7383
1465.782, 122.3242
1466.826, 183.7891
1467.871, 522.7539
1468.916, 395.5312
1469.960, 585.1602
1471.004, 198.1133
1472.048, 151.5820
1473.092, 58.16406
1474.136, 273.2695
1475.180, 425.9609
1476.223, 257.0469
1477.267, 393.4258
1478.310, 206.8086
1479.353, 389.4961
1480.396, 370.0352
1481.439, 523.9609
1482.481, 414.6328
1483.524, 452.2617
1484.566, 440.8828
1485.608, 265.4922
1486.650, 124.6172
1487.692, 144.1797
1488.734, 210.7852
1489.775, 354.3945
1490.817, 288.0430
1491.858, 392.7617
1492.899, 259.4648
1493.940, 243.5039
1494.981, 356.1953
1496.022, 109.0820
1497.062, 287.8672
1498.103, 294.1562
1499.143, 359.4648
1500.183, 353.0234
1501.223, 392.7969
1502.263, 219.6641
1503.302, 6.585938
1504.342, 248.5430
1505.381, 150.3438
1506.420, 478.3711
1507.459, 301.4414
1508.498, 22.39844
1509.537, 290.6953
1510.576, 108.8320
1511.614, 269.5352
1512.652, 457.1289
1513.691, 117.6445
1514.729, 161.6094
1515.767, 285.6250
1516.804, 277.9727
1517.842, 505.3398
1518.879, 327.8320
1519.917, 32.45703
1520.954, 258.1172
1521.991, 248.8281
1523.028, 531.0000
1524.064, 374.8242
1525.101, 239.7148
1526.137, 39.83203
1527.173, 283.6211
1528.210, 466.6367
1529.245, 516.7539
1530.281, 35.80469
1531.317, 240.7617
1532.352, 170.9297
1533.388, 89.92188
1534.423, 391.6133
1535.458, 11.68750
1536.493, 284.1875
1537.528, 299.2070
1538.562, 443.8555
1539.597, 312.0781
1540.631, 264.2227
1541.665, 494.5664
1542.700, 543.6758
1543.733, 379.4531
1544.767, 531.7969
1545.801, 116.7695
1546.834, 199.8398
1547.868, 497.0547
1548.901, 334.7773
1549.934, 491.6367
1550.967, 528.2578
1551.999, 35.08984
1553.032, 466.2891
1554.064, 489.1445
1555.097, 109.1328
1556.129, 508.7422
1557.161, 185.6406
1558.193, 121.4531
1559.224, 249.9805
1560.256, 177.5508
1561.287, 425.0039
1562.318, 355.6680
1563.350, 265.1875
1564.380, 297.8516
1565.411, 13.08984
1566.442, 309.9883
1567.472, 204.8281
1568.503, 155.8750
1569.533, 68.10156
1570.563, 0.0000000E+00
##END=



