##NAMES=Augelite
##RRUFFID=R050060
##IDEAL CHEMISTRY=Al_2_PO_4_(OH)_3_
##LOCALITY=Machacamarca, Potosi Department, Bolivia
##OWNER=RRUFF
##SOURCE=Rock Currier
##DESCRIPTION=Colorless prismatic crystals
##STATUS=The identification of this mineral has been confirmed by X-ray diffraction and chemical analysis
##URL=rruff.info/R050060
##MEASURED CHEMISTRY=Al_2.00_(P_1.00_O_4_)(OH)_3_; OH estimated by difference
##PIN_ID=L00994
##ORIENTATION=Laser parallel to -c* (0 0 -1). Fiducial mark perpendicular to laser is parallel to -a [-1 0 0]
146.2440, 0.0000000E+00
147.4820, 2.956055
148.7200, 84.51758
149.9580, 56.13867
151.1960, 248.9849
152.4340, 374.6177
153.6710, 488.7334
154.9080, 735.0010
156.1450, 937.2881
157.3820, 1083.344
158.6190, 1380.806
159.8550, 1796.906
161.0910, 2092.386
162.3270, 2575.663
163.5630, 2971.535
164.7980, 2415.685
166.0340, 2038.471
167.2690, 1847.969
168.5040, 1577.890
169.7390, 1327.893
170.9730, 1134.604
172.2080, 941.3364
173.4420, 765.0903
174.6760, 648.9277
175.9100, 528.1206
177.1440, 481.7964
178.3770, 396.0994
179.6100, 301.2600
180.8430, 263.6606
182.0760, 196.8574
183.3090, 204.6528
184.5410, 114.0581
185.7740, 69.24097
187.0060, 73.01953
188.2380, 8.629639
189.4690, 7.312500
190.7010, 82.84424
191.9320, 47.40698
193.1630, 90.67065
194.3940, 108.1548
195.6250, 66.50220
196.8550, 100.3787
198.0860, 167.8167
199.3160, 154.6145
200.5460, 155.0869
201.7750, 123.2600
203.0050, 83.52393
204.2340, 106.5222
205.4630, 31.08618
206.6920, 17.20850
207.9210, 110.0115
209.1500, 5.854248
210.3780, 47.16333
211.6060, 81.90479
212.8340, 22.57227
214.0620, 151.3545
215.2900, 115.5620
216.5170, 177.6587
217.7440, 199.5515
218.9710, 241.4275
220.1980, 285.9929
221.4250, 344.0669
222.6510, 352.1550
223.8770, 493.8042
225.1040, 533.8123
226.3290, 575.9829
227.5550, 715.6052
228.7810, 498.1902
230.0060, 364.5791
231.2310, 263.7881
232.4560, 252.0449
233.6810, 153.3433
234.9050, 130.6760
236.1290, 62.03125
237.3540, 54.40430
238.5770, 19.78833
239.8010, 61.17847
241.0250, 100.5569
242.2480, 73.91089
243.4710, 12.73999
244.6940, 2.603027
245.9170, 27.93701
247.1400, 23.73657
248.3620, 18.22461
249.5840, 21.76758
250.8060, 44.00171
252.0280, 47.04639
253.2500, 33.05664
254.4710, 14.03882
255.6920, 25.00488
256.9140, 26.95972
258.1340, 158.9021
259.3550, 161.6050
260.5760, 120.1851
261.7960, 228.6575
263.0160, 26.55225
264.2360, 22.56958
265.4560, 22.28369
266.6750, 16.85815
267.8940, 6.412598
269.1140, 22.91357
270.3330, 8.093506
271.5510, 77.28516
272.7700, 21.31250
273.9880, 5.114990
275.2070, 60.56958
276.4250, 21.03345
277.6420, 18.50342
278.8600, 19.00000
280.0770, 8.464355
281.2950, 0.8862300
282.5120, 62.25269
283.7290, 5.425781
284.9450, 3.829102
286.1620, 29.95215
287.3780, 1.253174
288.5940, 31.44653
289.8100, 13.61621
291.0260, 47.23340
292.2410, 12.89917
293.4570, 16.23975
294.6720, 14.71899
295.8870, 10.87036
297.1010, 14.06787
298.3160, 12.26807
299.5300, 18.55615
300.7450, 13.95679
301.9590, 5.366211
303.1730, 14.62598
304.3860, 36.26562
305.6000, 77.36279
306.8130, 101.1079
308.0260, 91.76904
309.2390, 136.3252
310.4510, 69.77881
311.6640, 208.1362
312.8760, 103.3989
314.0880, 263.5137
315.3000, 198.5186
316.5120, 273.4370
317.7240, 231.2739
318.9350, 331.0356
320.1460, 386.7275
321.3570, 432.3438
322.5680, 551.8115
323.7790, 522.9766
324.9890, 513.0166
326.1990, 578.1758
327.4090, 685.0669
328.6190, 725.9121
329.8290, 709.7173
331.0380, 703.4253
332.2480, 599.8984
333.4570, 627.3438
334.6660, 550.1201
335.8740, 481.7378
337.0830, 530.0986
338.2910, 450.1982
339.5000, 378.4521
340.7080, 420.7480
341.9150, 341.6948
343.1230, 321.6758
344.3300, 367.8726
345.5380, 285.9756
346.7450, 205.0273
347.9520, 223.9028
349.1580, 260.5986
350.3650, 308.3784
351.5710, 265.4175
352.7770, 245.1816
353.9830, 165.9365
355.1890, 226.7964
356.3940, 228.5933
357.6000, 247.6011
358.8050, 186.3560
360.0100, 245.7173
361.2150, 289.9097
362.4190, 345.3110
363.6240, 396.7954
364.8280, 484.3398
366.0320, 525.8633
367.2360, 678.3774
368.4400, 644.8828
369.6430, 612.3574
370.8460, 650.8184
372.0500, 422.2739
373.2530, 452.7271
374.4550, 323.1777
375.6580, 271.6270
376.8600, 121.0752
378.0620, 117.5225
379.2650, 94.71289
380.4660, 164.8140
381.6680, 122.2568
382.8690, 51.01074
384.0710, 79.78857
385.2720, 38.46436
386.4730, 0.5351560
387.6730, 0.2319340
388.8740, 17.34766
390.0740, 6.421387
391.2740, 8.195801
392.4740, 59.37793
393.6740, 77.36719
394.8740, 111.5068
396.0730, 104.1108
397.2730, 95.77197
398.4720, 187.2637
399.6700, 154.2896
400.8690, 350.6846
402.0680, 398.1494
403.2660, 397.4858
404.4640, 527.8418
405.6620, 521.0342
406.8600, 755.4800
408.0570, 725.0659
409.2550, 862.3149
410.4520, 928.8804
411.6490, 884.5752
412.8460, 787.7285
414.0430, 717.1011
415.2390, 653.3867
416.4350, 578.5371
417.6310, 511.1138
418.8270, 447.7793
420.0230, 378.0171
421.2190, 339.3667
422.4140, 405.7534
423.6090, 280.5322
424.8040, 270.1743
425.9990, 261.5029
427.1940, 108.6436
428.3880, 228.6738
429.5820, 142.3203
430.7760, 209.9233
431.9700, 160.5396
433.1640, 160.6113
434.3580, 96.55518
435.5510, 180.2832
436.7440, 221.2656
437.9370, 217.0024
439.1300, 186.9912
440.3230, 192.9399
441.5150, 134.9062
442.7070, 241.8486
443.8990, 175.4385
445.0910, 194.3120
446.2830, 162.7759
447.4750, 158.7012
448.6660, 233.7705
449.8570, 249.0117
451.0480, 270.8218
452.2390, 214.6392
453.4290, 281.1006
454.6200, 235.2808
455.8100, 175.6821
457.0000, 191.9927
458.1900, 143.4307
459.3800, 147.8643
460.5690, 156.6138
461.7590, 134.7197
462.9480, 128.6099
464.1370, 132.5615
465.3260, 93.97803
466.5140, 79.39307
467.7030, 64.80762
468.8910, 19.77930
470.0790, 60.63281
471.2670, 94.04541
472.4550, 27.45850
473.6420, 75.87305
474.8300, 48.28906
476.0170, 82.70996
477.2040, 7.133301
478.3900, 76.58496
479.5770, 53.04346
480.7640, 133.5044
481.9500, 104.9702
483.1360, 0.5576170
484.3220, 38.91992
485.5080, 48.40723
486.6930, 47.90576
487.8780, 46.40967
489.0640, 104.9185
490.2490, 83.85498
491.4330, 43.95166
492.6180, 82.47705
493.8030, 120.0244
494.9870, 126.8521
496.1710, 136.1836
497.3550, 123.8252
498.5390, 89.48535
499.7220, 88.15576
500.9060, 192.8359
502.0890, 190.5303
503.2720, 121.2324
504.4550, 261.9429
505.6370, 264.6685
506.8200, 408.4175
508.0020, 365.1729
509.1840, 317.9438
510.3660, 404.7222
511.5480, 518.5083
512.7290, 521.3032
513.9110, 544.1162
515.0920, 634.9473
516.2730, 729.7861
517.4540, 922.6372
518.6350, 801.5054
519.8150, 981.3813
520.9960, 990.2656
522.1760, 1030.165
523.3560, 1037.075
524.5350, 1111.994
525.7150, 1126.927
526.8950, 1103.884
528.0740, 1121.819
529.2530, 1068.595
530.4320, 1035.416
531.6100, 1064.917
532.7890, 957.7158
533.9670, 814.5063
535.1460, 742.6074
536.3240, 820.7227
537.5010, 614.8525
538.6790, 680.9941
539.8570, 524.1479
541.0340, 517.9546
542.2110, 531.1353
543.3880, 514.3359
544.5650, 499.5488
545.7410, 385.7739
546.9180, 232.0093
548.0940, 382.2549
549.2700, 413.5078
550.4460, 239.7725
551.6210, 387.0591
552.7970, 337.3579
553.9720, 307.6768
555.1480, 240.0088
556.3230, 277.3628
557.4970, 231.7300
558.6720, 327.1323
559.8460, 231.5469
561.0210, 304.3818
562.1950, 374.8428
563.3690, 232.3237
564.5420, 199.8232
565.7160, 260.3330
566.8890, 182.8545
568.0630, 141.3892
569.2360, 240.9331
570.4090, 189.4912
571.5810, 195.0239
572.7540, 167.4287
573.9260, 136.5483
575.0980, 103.6499
576.2700, 99.27051
577.4420, 71.04834
578.6140, 95.70215
579.7850, 92.37012
580.9560, 52.06934
582.1270, 25.75684
583.2980, 65.45459
584.4690, 3.161133
585.6400, 19.07471
586.8100, 7.187988
587.9800, 22.56104
589.1500, 87.31934
590.3200, 40.63672
591.4900, 36.41113
592.6590, 0.8061520
593.8290, 81.98438
594.9980, 46.78223
596.1670, 48.41260
597.3360, 103.3916
598.5040, 44.20361
599.6730, 59.02197
600.8410, 48.84717
602.0090, 106.6802
603.1770, 63.52002
604.3450, 105.3667
605.5130, 105.2202
606.6800, 140.0815
607.8470, 161.2051
609.0140, 167.8242
610.1810, 212.4937
611.3480, 216.3818
612.5140, 253.2773
613.6810, 283.1792
614.8470, 328.0884
616.0130, 430.3999
617.1790, 391.4121
618.3440, 448.4663
619.5100, 558.4165
620.6750, 638.3584
621.8400, 686.3076
623.0050, 729.9937
624.1700, 967.3164
625.3350, 1009.101
626.4990, 1307.656
627.6640, 1578.797
628.8280, 1835.938
629.9920, 2201.928
631.1550, 2599.978
632.3190, 3143.979
633.4820, 3581.783
634.6460, 4179.795
635.8090, 4588.855
636.9710, 4781.654
638.1340, 4737.680
639.2970, 4059.763
640.4590, 3585.798
641.6210, 2855.838
642.7830, 2438.881
643.9450, 1976.928
645.1070, 1614.529
646.2680, 1409.185
647.4300, 1223.243
648.5910, 944.1079
649.7520, 802.1743
650.9130, 796.3887
652.0730, 614.5459
653.2340, 618.2290
654.3940, 526.6348
655.5540, 482.7622
656.7140, 389.7871
657.8740, 337.9810
659.0330, 307.2715
660.1930, 259.2871
661.3520, 258.8813
662.5110, 297.0938
663.6700, 276.1665
664.8290, 234.3027
665.9870, 222.8267
667.1460, 127.9351
668.3040, 71.06494
669.4620, 99.12451
670.6200, 131.3193
671.7770, 26.44824
672.9350, 159.4150
674.0920, 109.5518
675.2500, 64.71338
676.4070, 40.18701
677.5630, 6.501465
678.7200, 27.35498
679.8770, 21.14844
681.0330, 77.01709
682.1890, 114.8257
683.3450, 118.0845
684.5010, 128.7476
685.6560, 2.664063
686.8120, 69.91602
687.9670, 65.09082
689.1220, 23.26318
690.2770, 84.43555
691.4320, 60.60547
692.5870, 77.77490
693.7410, 94.94238
694.8950, 59.10889
696.0490, 113.2734
697.2030, 9.436523
698.3570, 87.78906
699.5110, 30.05176
700.6640, 29.14941
701.8170, 54.29150
702.9700, 3.430664
704.1230, 16.56787
705.2760, 164.7358
706.4290, 103.8677
707.5810, 130.9961
708.7330, 69.12158
709.8850, 35.75586
711.0370, 15.65430
712.1890, 64.43604
713.3400, 6.522949
714.4920, 109.6064
715.6430, 0.3129880
716.7940, 27.76172
717.9450, 49.83252
719.0960, 7.898926
720.2460, 65.96191
721.3960, 84.02002
722.5470, 32.07520
723.6970, 0.1250000
724.8460, 65.16895
725.9960, 75.15186
727.1460, 42.18604
728.2950, 22.78418
729.4440, 39.22754
730.5930, 45.23438
731.7420, 64.22510
732.8910, 63.22168
734.0390, 105.2144
735.1870, 32.24854
736.3360, 102.2300
737.4840, 57.20703
738.6310, 159.1782
739.7790, 115.1450
740.9260, 47.10645
742.0740, 73.06152
743.2210, 89.01221
744.3680, 104.9570
745.5150, 45.89551
746.6610, 115.8291
747.8080, 39.75732
748.9540, 99.68018
750.1000, 88.59766
751.2460, 82.50928
752.3920, 43.41455
753.5380, 3.319336
754.6830, 15.49951
755.8280, 55.79297
756.9730, 35.07959
758.1180, 63.91406
759.2630, 86.74170
760.4080, 0.4370120
761.5520, 6.370605
762.6960, 1.193848
763.8410, 13.04980
764.9840, 13.71240
766.1280, 14.46631
767.2720, 51.21143
768.4150, 31.94971
769.5590, 92.68066
770.7020, 46.59521
771.8450, 113.0889
772.9870, 36.76660
774.1300, 13.56396
775.2720, 63.08301
776.4150, 36.72266
777.5570, 102.3550
778.6990, 116.9795
779.8400, 77.59717
780.9820, 92.20654
782.1230, 8.190918
783.2650, 40.60986
784.4060, 94.93262
785.5470, 11.53174
786.6870, 82.97998
787.8280, 23.48389
788.9680, 34.97900
790.1090, 23.53516
791.2490, 18.85840
792.3890, 45.34961
793.5280, 3.769531
794.6680, 14.82715
795.8070, 36.54932
796.9470, 48.91797
798.0860, 4.658203
799.2250, 30.68066
800.3630, 107.1157
801.5020, 109.4370
802.6410, 18.24951
803.7790, 62.03564
804.9170, 60.34082
806.0550, 72.89551
807.1930, 47.37061
808.3300, 141.5708
809.4680, 7.237305
810.6050, 160.7422
811.7420, 137.6455
812.8790, 29.79541
814.0160, 93.31738
815.1520, 59.24219
816.2890, 51.36230
817.4250, 100.8315
818.5610, 7.8612998E-02
819.6970, 51.15674
820.8330, 17.06250
821.9680, 30.54785
823.1040, 57.33105
824.2390, 75.61572
825.3740, 139.6362
826.5090, 134.7593
827.6440, 172.6494
828.7790, 150.6421
829.9130, 132.6260
831.0470, 145.6011
832.1810, 111.6035
833.3150, 119.5605
834.4490, 40.50879
835.5830, 90.44629
836.7160, 62.03564
837.8500, 83.95459
838.9830, 169.8652
840.1160, 112.7666
841.2480, 67.65918
842.3810, 152.5425
843.5140, 151.4175
844.6460, 199.2837
845.7780, 176.1406
846.9100, 162.0259
848.0420, 155.0508
849.1740, 155.3354
850.3050, 151.4673
851.4360, 175.5107
852.5680, 155.1831
853.6990, 172.9805
854.8290, 181.0894
855.9600, 178.9668
857.0910, 215.3013
858.2210, 206.0649
859.3510, 213.8208
860.4810, 266.3770
861.6110, 226.1157
862.7410, 297.8467
863.8700, 158.5693
865.0000, 227.7329
866.1290, 235.4390
867.2580, 222.1372
868.3870, 230.8271
869.5150, 83.50928
870.6440, 235.1836
871.7720, 106.8545
872.9000, 107.5171
874.0290, 191.1714
875.1560, 180.8179
876.2840, 143.4565
877.4120, 113.0874
878.5390, 178.7104
879.6660, 163.3262
880.7930, 124.9336
881.9200, 148.9668
883.0470, 101.1260
884.1740, 131.7104
885.3000, 129.2876
886.4260, 111.8569
887.5530, 177.4185
888.6780, 66.97314
889.8040, 40.12402
890.9300, 168.5732
892.0550, 55.97998
893.1810, 176.4902
894.3060, 96.00635
895.4310, 124.5156
896.5560, 253.2866
897.6800, 226.4097
898.8050, 218.5088
899.9290, 192.9795
901.0530, 140.2920
902.1770, 127.6040
903.3010, 136.0654
904.4250, 152.4658
905.5480, 69.91504
906.6720, 95.55957
907.7950, 63.99609
908.9180, 148.3813
910.0410, 117.5542
911.1630, 142.4478
912.2860, 106.8071
913.4080, 69.21338
914.5300, 64.61377
915.6530, 105.0088
916.7740, 102.8760
917.8960, 66.23682
919.0180, 134.0210
920.1390, 114.3984
921.2600, 93.96924
922.3820, 106.3364
923.5020, 107.5542
924.6230, 104.1162
925.7440, 98.57178
926.8640, 95.59277
927.9850, 140.8896
929.1050, 130.2876
930.2250, 88.51318
931.3450, 104.7622
932.4640, 18.05615
933.5840, 32.88330
934.7030, 10.91064
935.8220, 105.3979
936.9410, 33.70264
938.0600, 176.5859
939.1790, 27.11670
940.2970, 2.852539
941.4160, 8.477539
942.5340, 38.67139
943.6520, 118.9312
944.7700, 11.64600
945.8870, 90.39453
947.0050, 67.80420
948.1220, 21.31055
949.2400, 12.12939
950.3570, 80.98242
951.4740, 44.05713
952.5900, 1.774902
953.7070, 92.74609
954.8240, 30.17725
955.9400, 7.863281
957.0560, 18.90039
958.1720, 15.97705
959.2880, 41.25293
960.4030, 46.27783
961.5190, 91.42529
962.6340, 59.57129
963.7490, 122.7227
964.8640, 37.87549
965.9790, 1.027832
967.0940, 109.1870
968.2080, 21.34570
969.3230, 83.31396
970.4370, 1.526367
971.5510, 121.5796
972.6650, 50.74414
973.7790, 64.90625
974.8920, 21.06738
976.0060, 187.1934
977.1190, 152.3511
978.2320, 113.5083
979.3450, 171.6636
980.4580, 126.7319
981.5710, 148.4487
982.6830, 91.16797
983.7950, 156.3398
984.9080, 116.5107
986.0200, 84.69189
987.1310, 24.87354
988.2430, 52.95703
989.3550, 58.26514
990.4660, 86.41357
991.5770, 121.5923
992.6880, 90.77051
993.7990, 94.94824
994.9100, 147.1260
996.0200, 197.3042
997.1310, 117.4814
998.2410, 104.6587
999.3510, 61.84229
1000.461, 139.0259
1001.571, 155.2090
1002.681, 140.3916
1003.790, 183.5781
1004.899, 101.7729
1006.009, 41.96826
1007.118, 102.1455
1008.226, 199.3589
1009.335, 174.5547
1010.444, 231.7500
1011.552, 232.9458
1012.660, 215.1479
1013.768, 228.3516
1014.876, 199.5547
1015.984, 202.7583
1017.092, 246.9629
1018.199, 238.1680
1019.306, 154.3740
1020.413, 270.5825
1021.520, 293.7930
1022.627, 325.9976
1023.734, 175.0942
1024.840, 120.3086
1025.947, 243.5093
1027.053, 196.7432
1028.159, 215.9780
1029.265, 244.2129
1030.370, 270.4531
1031.476, 131.6958
1032.581, 93.94385
1033.687, 124.1997
1034.792, 189.4575
1035.897, 293.7178
1037.002, 251.9790
1038.106, 199.2417
1039.211, 172.5054
1040.315, 289.7866
1041.419, 336.0688
1042.523, 207.3530
1043.627, 309.6470
1044.731, 264.9419
1045.834, 324.2388
1046.938, 247.5366
1048.041, 345.8359
1049.144, 305.1372
1050.247, 345.6792
1051.349, 476.9907
1052.452, 491.3188
1053.555, 463.6523
1054.657, 433.9927
1055.759, 559.3340
1056.861, 671.6777
1057.963, 713.0278
1059.064, 623.3877
1060.166, 515.7588
1061.267, 616.1318
1062.368, 675.5112
1063.470, 574.3687
1064.570, 571.7622
1065.671, 409.0928
1066.772, 372.4961
1067.872, 309.7969
1068.972, 397.2075
1070.073, 480.6177
1071.173, 433.0410
1072.272, 380.4375
1073.372, 288.3691
1074.472, 429.7671
1075.571, 303.2642
1076.670, 387.1377
1077.769, 260.5078
1078.868, 402.2363
1079.967, 375.7114
1081.065, 439.8076
1082.164, 251.4946
1083.262, 484.9800
1084.360, 457.4683
1085.458, 494.8140
1086.556, 583.3306
1087.654, 463.9980
1088.751, 581.9512
1089.848, 573.4673
1090.946, 656.9868
1092.043, 661.5093
1093.139, 727.0347
1094.236, 819.5625
1095.333, 990.6602
1096.429, 1057.180
1097.525, 1120.724
1098.622, 1407.490
1099.718, 1520.298
1100.813, 1660.648
1101.909, 1935.196
1103.005, 2181.728
1104.100, 2486.676
1105.195, 2710.232
1106.290, 2954.792
1107.385, 3113.354
1108.480, 3409.918
1109.574, 3553.486
1110.669, 3385.056
1111.763, 3310.304
1112.857, 3090.879
1113.951, 2883.457
1115.045, 2464.037
1116.139, 2427.620
1117.232, 2065.945
1118.326, 1826.533
1119.419, 1565.123
1120.512, 1376.716
1121.605, 1230.311
1122.697, 1229.908
1123.790, 1056.508
1124.883, 1058.109
1125.975, 883.7148
1127.067, 712.3452
1128.159, 776.9551
1129.251, 739.5664
1130.342, 694.1812
1131.434, 688.7979
1132.525, 624.4170
1133.617, 589.0386
1134.708, 505.3003
1135.799, 590.0342
1136.889, 479.1812
1137.980, 485.5190
1139.071, 408.0098
1140.161, 326.6440
1141.251, 432.2812
1142.341, 105.7686
1143.431, 333.1094
1144.521, 385.7524
1145.610, 223.3975
1146.700, 341.0449
1147.789, 232.8022
1148.878, 149.4937
1149.967, 350.1982
1151.056, 298.4355
1152.144, 333.1021
1153.233, 280.7710
1154.321, 233.4424
1155.409, 259.1157
1156.498, 244.7910
1157.585, 260.4678
1158.673, 137.1465
1159.761, 67.82666
1160.848, 254.5088
1161.936, 42.19287
1163.023, 156.8784
1164.110, 209.5654
1165.197, 116.2539
1166.283, 158.9438
1167.370, 80.63525
1168.456, 182.3286
1169.542, 89.02344
1170.629, 152.7197
1171.714, 139.4170
1172.800, 144.1162
1173.886, 58.86279
1174.971, 62.56396
1176.057, 227.2666
1177.142, 30.97217
1178.227, 131.6787
1179.312, 105.3867
1180.397, 24.90430
1181.481, 159.7949
1182.566, 120.4951
1183.650, 2.304688
1184.734, 85.00732
1185.818, 88.71680
1186.902, 163.4277
1187.986, 3.139160
1189.069, 43.85156
1190.153, 13.56543
1191.236, 98.28027
1192.319, 113.9956
1193.402, 27.28809
1194.485, 37.43701
1195.567, 101.1421
1196.650, 76.84961
1197.732, 123.5591
1198.814, 6.273926
1199.896, 24.98975
1200.978, 27.90625
1202.060, 122.6240
1203.142, 195.3506
1204.223, 80.08057
1205.304, 0.8129880
1206.386, 8.454590
1207.467, 13.71973
1208.547, 112.0137
1209.628, 44.77100
1210.709, 71.52979
1211.789, 21.30127
1212.869, 43.07764
1213.950, 60.85400
1215.030, 24.63916
1216.109, 33.57471
1217.189, 96.19531
1218.269, 47.02588
1219.348, 64.74609
1220.427, 18.51904
1221.506, 33.29248
1222.585, 40.06641
1223.664, 27.83984
1224.743, 25.38672
1225.821, 16.02002
1226.899, 14.12305
1227.978, 36.12646
1229.056, 3.395996
1230.134, 12.66797
1231.211, 46.05176
1232.289, 6.770996
1233.366, 5.509277
1234.444, 19.65869
1235.521, 18.92529
1236.598, 33.64404
1237.675, 37.36768
1238.751, 28.09082
1239.828, 88.81396
1240.904, 25.46289
1241.981, 130.2451
1243.057, 30.95312
1244.133, 45.66064
1245.209, 71.37354
1246.284, 41.91406
1247.360, 75.77393
1248.435, 124.4619
1249.510, 34.14941
1250.585, 126.8364
1251.660, 63.52344
1252.735, 108.2095
1253.810, 36.89502
1254.884, 26.63184
1255.959, 19.31592
1257.033, 34.99951
1258.107, 91.68164
1259.181, 140.3638
1260.255, 109.0439
1261.328, 117.7231
1262.402, 69.40088
1263.475, 6.922363
1264.548, 30.25244
1265.621, 10.39746
1266.694, 25.04541
1267.767, 155.6919
1268.840, 74.33740
1269.912, 80.98096
1270.984, 161.6230
1272.056, 20.73682
1273.129, 32.88770
1274.200, 69.51025
1275.272, 128.1318
1276.344, 4.750488
1277.415, 21.36719
1278.486, 18.98096
1279.558, 3.766602
1280.629, 74.45264
1281.699, 45.13232
1282.770, 98.73193
1283.841, 191.3291
1284.911, 52.92432
1285.981, 121.5161
1287.051, 84.10596
1288.121, 62.69287
1289.191, 49.27734
1290.261, 61.85938
1291.330, 113.4390
1292.400, 195.0151
1293.469, 77.58838
1294.538, 137.1621
1295.607, 76.73340
1296.676, 77.30127
1297.745, 79.86475
1298.813, 56.42676
1299.881, 113.9883
1300.950, 72.54883
1302.018, 28.39502
1303.086, 122.4307
1304.154, 174.6533
1305.221, 187.5635
1306.289, 42.15771
1307.356, 100.8618
1308.423, 77.75928
1309.490, 50.06396
1310.557, 137.4839
1311.624, 15.06006
1312.691, 100.6685
1313.757, 104.5830
1314.823, 145.1514
1315.890, 103.4199
1316.956, 87.10107
1318.022, 153.1123
1319.087, 173.5352
1320.153, 122.3218
1321.219, 165.2998
1322.284, 38.51562
1323.349, 60.99805
1324.414, 147.3394
1325.479, 100.5151
1326.544, 144.9873
1327.608, 154.6646
1328.673, 5.794922
1329.737, 183.9004
1330.801, 129.4287
1331.865, 58.95557
1332.929, 162.8218
1333.993, 168.3066
1335.057, 81.04395
1336.120, 152.8545
1337.183, 201.3755
1338.247, 96.08789
1339.310, 101.9678
1340.373, 158.7017
1341.435, 79.22070
1342.498, 147.9204
1343.560, 160.2417
1344.623, 172.9609
1345.685, 201.4717
1346.747, 206.4683
1347.809, 85.60547
1348.871, 198.1133
1349.932, 161.6206
1350.994, 97.12646
1352.055, 245.6323
1353.116, 185.5542
1354.177, 131.0547
1355.238, 84.53320
1356.299, 159.7554
1357.359, 76.97510
1358.420, 150.6543
1359.480, 130.1387
1360.540, 166.5767
1361.600, 172.8076
1362.660, 166.9180
1363.720, 56.40088
1364.780, 207.0640
1365.839, 157.5444
1366.898, 90.10840
1367.958, 168.5894
1369.017, 83.76562
1370.076, 101.8613
1371.134, 59.50537
1372.193, 60.14160
1373.251, 157.6074
1374.310, 100.3330
1375.368, 59.79199
1376.426, 158.2500
1377.484, 152.7080
1378.542, 94.16602
1379.599, 93.61963
1380.657, 178.0537
1381.714, 42.48389
1382.771, 188.8950
1383.828, 116.2554
1384.885, 83.63135
1385.942, 62.95508
1386.999, 87.27002
1388.055, 118.6416
1389.111, 110.9810
1390.168, 93.28418
1391.224, 108.8965
1392.280, 88.13281
1393.335, 128.3486
1394.391, 180.6084
1395.446, 230.8521
1396.502, 126.0864
1397.557, 135.3145
1398.612, 90.50586
1399.667, 145.1396
1400.722, 155.3115
1401.776, 215.4712
1402.831, 62.72803
1403.885, 169.7559
1404.939, 121.8418
1405.994, 30.09131
1407.048, 121.4312
1408.101, 36.61035
1409.155, 117.6855
1410.209, 83.86816
1411.262, 240.9229
1412.315, 120.9707
1413.368, 77.02148
1414.421, 140.0508
1415.474, 62.07422
1416.527, 199.0859
1417.579, 140.0859
1418.632, 77.08203
1419.684, 138.0723
1420.736, 142.6885
1421.788, 98.84961
1422.840, 88.74219
1423.891, 133.0742
1424.943, 107.6895
1425.994, 117.0430
1427.046, 117.4766
1428.097, 84.95410
1429.148, 89.42871
1430.199, 96.90625
1431.249, 9.272461
1432.300, 114.7451
1433.350, 58.20898
1434.401, 102.6709
1435.451, 124.1299
1436.501, 81.57031
1437.551, 237.0371
1438.601, 162.7959
1439.650, 14.27344
1440.700, 130.1787
1441.749, 154.6270
1442.798, 186.0664
1443.847, 203.5049
1444.896, 172.5752
1445.945, 160.4697
1446.993, 82.73926
1448.042, 90.14551
1449.090, 35.54004
1450.138, 12.92871
1451.187, 14.31348
1452.234, 150.7188
1453.282, 47.13965
1454.330, 224.5811
1455.377, 219.0264
1456.425, 125.4688
1457.472, 92.89844
1458.519, 9.317383
1459.566, 224.7441
1460.613, 16.82227
1461.660, 100.5938
1462.706, 122.0410
1463.752, 26.48828
1464.799, 12.06836
1465.845, 24.29785
1466.891, 70.73926
1467.937, 19.81836
1468.982, 83.62598
1470.028, 13.07129
1471.073, 104.5439
1472.119, 47.96484
1473.164, 16.53320
1474.209, 129.0361
1475.254, 226.5693
1476.299, 76.11133
1477.343, 114.6650
1478.388, 121.2402
1479.432, 120.6260
1480.476, 152.7803
1481.520, 132.7100
1482.564, 187.2725
1483.608, 120.8496
1484.651, 112.4443
1485.695, 253.0439
1486.738, 43.66699
1487.782, 2.301758
1488.825, 119.9424
1489.868, 6.415039
1490.910, 162.6816
1491.953, 60.30664
1492.996, 197.9541
1494.038, 237.6074
1495.080, 288.1318
1496.122, 37.73926
1497.164, 5.648438
1498.206, 133.9688
1499.248, 125.2812
1500.290, 135.5479
1501.331, 250.9385
1502.372, 202.5400
1503.413, 244.2178
1504.455, 151.7959
1505.495, 223.7012
1506.536, 156.6152
1507.577, 79.30469
1508.617, 166.8184
1509.658, 201.9092
1510.698, 218.9883
1511.738, 100.6982
1512.778, 51.37598
1513.818, 58.05566
1514.857, 153.7451
1515.897, 169.3750
1516.936, 164.1953
1517.975, 166.8477
1519.015, 136.5938
1520.054, 138.3438
1521.092, 152.1748
1522.131, 79.96973
1523.170, 134.1006
1524.208, 120.3594
1525.246, 135.4717
1526.285, 66.34570
1527.323, 26.10840
1528.361, 123.8438
1529.398, 81.78711
1530.436, 160.2393
1531.473, 63.88965
1532.511, 25.97461
1533.548, 125.8604
1534.585, 18.93164
1535.622, 155.0889
1536.659, 108.7344
1537.695, 44.46484
1538.732, 166.0146
1539.768, 213.9375
1540.805, 128.5762
1541.841, 160.6064
1542.877, 153.6826
1543.913, 54.67090
1544.948, 1.786133
1545.984, 24.88379
1547.019, 11.78027
1548.055, 0.0000000E+00
##END=



