##NAMES=Augelite
##RRUFFID=R050060
##IDEAL CHEMISTRY=Al_2_PO_4_(OH)_3_
##LOCALITY=Machacamarca, Potosi Department, Bolivia
##OWNER=RRUFF
##SOURCE=Rock Currier
##DESCRIPTION=Colorless prismatic crystals
##STATUS=The identification of this mineral has been confirmed by X-ray diffraction and chemical analysis
##URL=rruff.info/R050060
##MEASURED CHEMISTRY=Al_2.00_(P_1.00_O_4_)(OH)_3_; OH estimated by difference
##PIN_ID=L00994
##ORIENTATION=Laser parallel to -c* (0 0 -1). Fiducial mark perpendicular to laser is parallel to -a [-1 0 0]
147.4820, 0.0000000E+00
148.7200, 35.65771
149.9580, 80.23291
151.1960, 251.8958
152.4340, 374.4907
153.6710, 590.9446
154.9080, 917.9866
156.1450, 1203.096
157.3820, 1512.302
158.6190, 1754.228
159.8550, 2134.499
161.0910, 2403.636
162.3270, 2650.695
163.5630, 2871.228
164.7980, 2817.284
166.0340, 2680.228
167.2690, 2402.521
168.5040, 2121.431
169.7390, 1785.365
170.9730, 1441.355
172.2080, 1033.681
173.4420, 833.8984
174.6760, 597.9736
175.9100, 520.8098
177.1440, 400.2283
178.3770, 261.2185
179.6100, 202.7251
180.8430, 100.6235
182.0760, 48.38037
183.3090, 10.12988
184.5410, 59.38477
185.7740, 33.55200
187.0060, 15.44702
188.2380, 8.875488
189.4690, 10.99561
190.7010, 24.13037
191.9320, 66.55859
193.1630, 99.34229
194.3940, 81.85913
195.6250, 40.78809
196.8550, 75.40430
198.0860, 27.25732
199.3160, 51.44751
200.5460, 101.4956
201.7750, 168.1936
203.0050, 27.16577
204.2340, 14.44800
205.4630, 42.46582
206.6920, 35.29590
207.9210, 3.042236
209.1500, 70.37598
210.3780, 167.2090
211.6060, 347.2578
212.8340, 485.6543
214.0620, 618.1829
215.2900, 749.0979
216.5170, 932.3274
217.7440, 1123.784
218.9710, 1480.810
220.1980, 1849.887
221.4250, 2075.058
222.6510, 2267.825
223.8770, 2463.327
225.1040, 2571.032
226.3290, 2619.466
227.5550, 2500.119
228.7810, 2086.303
230.0060, 1565.142
231.2310, 1240.872
232.4560, 1018.927
233.6810, 754.3765
234.9050, 513.8872
236.1290, 491.4507
237.3540, 461.0571
238.5770, 325.7002
239.8010, 345.3535
241.0250, 267.9844
242.2480, 258.6248
243.4710, 220.2832
244.6940, 186.9585
245.9170, 183.6460
247.1400, 145.3406
248.3620, 176.0422
249.5840, 202.7786
250.8060, 178.7004
252.0280, 176.3096
253.2500, 168.0886
254.4710, 165.6299
255.6920, 160.5017
256.9140, 133.6528
258.1340, 149.1279
259.3550, 146.1619
260.5760, 135.5452
261.7960, 158.4075
263.0160, 82.78516
264.2360, 3.493652
265.4560, 21.25977
266.6750, 69.75903
267.8940, 38.02539
269.1140, 14.59888
270.3330, 54.19067
271.5510, 70.01147
272.7700, 81.85791
273.9880, 44.73096
275.2070, 25.63037
276.4250, 22.44263
277.6420, 66.51147
278.8600, 0.5068360
280.0770, 74.54272
281.2950, 61.72241
282.5120, 25.99976
283.7290, 24.42969
284.9450, 91.98315
286.1620, 48.61548
287.3780, 66.34595
288.5940, 40.19238
289.8100, 13.13403
291.0260, 1.810059
292.2410, 42.10327
293.4570, 64.50000
294.6720, 123.4521
295.8870, 141.9922
297.1010, 186.8059
298.3160, 102.7593
299.5300, 148.7771
300.7450, 72.81104
301.9590, 35.83252
303.1730, 39.81885
304.3860, 6.259766
305.6000, 3.578125
306.8130, 66.33594
308.0260, 64.02051
309.2390, 8.622559
310.4510, 90.13013
311.6640, 155.5527
312.8760, 103.7876
314.0880, 150.8662
315.3000, 130.8533
316.5120, 239.7690
317.7240, 238.6196
318.9350, 247.4028
320.1460, 383.1150
321.3570, 318.7654
322.5680, 356.3081
323.7790, 474.6445
324.9890, 447.8782
326.1990, 510.0435
327.4090, 586.1394
328.6190, 565.1616
329.8290, 609.1074
331.0380, 613.9795
332.2480, 545.2319
333.4570, 548.2783
334.6660, 479.4734
335.8740, 527.9678
337.0830, 449.4324
338.2910, 399.9287
339.5000, 401.3726
340.7080, 325.7656
341.9150, 314.9985
343.1230, 280.2827
344.3300, 235.3096
345.5380, 247.3723
346.7450, 242.5017
347.9520, 251.5837
349.1580, 230.3572
350.3650, 196.6299
351.5710, 186.0527
352.7770, 159.6370
353.9830, 187.7188
355.1890, 208.8557
356.3940, 158.1125
357.6000, 186.3403
358.8050, 251.4617
360.0100, 239.4668
361.2150, 288.3545
362.4190, 308.1152
363.6240, 364.7563
364.8280, 467.3176
366.0320, 486.8467
367.2360, 587.3662
368.4400, 603.8823
369.6430, 629.3918
370.8460, 573.8853
372.0500, 551.3455
373.2530, 395.7803
374.4550, 386.1917
375.6580, 251.5955
376.8600, 169.9922
378.0620, 109.3848
379.2650, 140.7751
380.4660, 131.1633
381.6680, 94.54907
382.8690, 80.93164
384.0710, 89.31079
385.2720, 89.68677
386.4730, 114.9546
387.6730, 116.1880
388.8740, 96.26489
390.0740, 206.2065
391.2740, 172.1389
392.4740, 196.8091
393.6740, 182.7192
394.8740, 273.7456
396.0730, 283.6755
397.2730, 377.6011
398.4720, 473.4966
399.6700, 558.3879
400.8690, 658.2637
402.0680, 827.9055
403.2660, 1040.749
404.4640, 1215.553
405.6620, 1506.283
406.8600, 1758.185
408.0570, 1948.413
409.2550, 2083.142
410.4520, 2076.846
411.6490, 2024.097
412.8460, 1963.397
414.0430, 1735.957
415.2390, 1718.371
416.4350, 1644.853
417.6310, 1591.656
418.8270, 1570.855
420.0230, 1644.316
421.2190, 1532.586
422.4140, 1651.607
423.6090, 1506.896
424.8040, 1434.535
425.9990, 1313.039
427.1940, 1169.854
428.3880, 1165.838
429.5820, 1024.660
430.7760, 909.2754
431.9700, 897.8552
433.1640, 806.1528
434.3580, 760.2266
435.5510, 754.3191
436.7440, 699.7632
437.9370, 708.5254
439.1300, 729.6812
440.3230, 657.9045
441.5150, 649.3022
442.7070, 657.3335
443.8990, 627.5420
445.0910, 541.4019
446.2830, 563.7053
447.4750, 501.2129
448.6660, 583.8955
449.8570, 603.1455
451.0480, 567.7686
452.2390, 570.3582
453.4290, 581.2695
454.6200, 626.8430
455.8100, 619.9409
457.0000, 650.8118
458.1900, 694.8713
459.3800, 808.8386
460.5690, 760.1843
461.7590, 832.5234
462.9480, 817.8562
464.1370, 770.1826
465.3260, 788.5039
466.5140, 765.8198
467.7030, 773.1313
468.8910, 864.4387
470.0790, 711.7432
471.2670, 793.0444
472.4550, 730.3425
473.6420, 701.6384
474.8300, 697.9456
476.0170, 587.2583
477.2040, 636.5732
478.3900, 562.8894
479.5770, 470.2168
480.7640, 481.5439
481.9500, 381.8809
483.1360, 397.2180
484.3220, 343.5566
485.5080, 289.8960
486.6930, 327.2576
487.8780, 341.6216
489.0640, 279.9937
490.2490, 253.3743
491.4330, 277.7576
492.6180, 261.1448
493.8030, 249.5110
494.9870, 237.8735
496.1710, 326.1667
497.3550, 218.5969
498.5390, 331.0798
499.7220, 320.0728
500.9060, 372.9092
502.0890, 360.4287
503.2720, 361.9602
504.4550, 392.4988
505.6370, 472.0474
506.8200, 542.6089
508.0020, 609.1853
509.1840, 680.7905
510.3660, 794.4077
511.5480, 838.0352
512.7290, 962.6895
513.9110, 1117.358
515.0920, 1291.035
516.2730, 1370.722
517.4540, 1590.418
518.6350, 1694.134
519.8150, 1853.860
520.9960, 2039.387
522.1760, 2199.074
523.3560, 2335.737
524.5350, 2374.264
525.7150, 2424.752
526.8950, 2372.292
528.0740, 2338.850
529.2530, 2332.532
530.4320, 2275.240
531.6100, 2087.882
532.7890, 1884.732
533.9670, 1801.604
535.1460, 1718.487
536.3240, 1494.382
537.5010, 1328.290
538.6790, 1239.208
539.8570, 1102.137
541.0340, 1008.078
542.2110, 875.0300
543.3880, 876.9968
544.5650, 749.0542
545.7410, 732.0447
546.9180, 625.2866
548.0940, 579.3008
549.2700, 586.0984
550.4460, 551.6716
551.6210, 528.1726
552.7970, 510.9722
553.9720, 466.1858
555.1480, 454.4722
556.3230, 446.9614
557.4970, 403.6812
558.6720, 338.7422
559.8460, 363.9565
561.0210, 309.9871
562.1950, 333.8164
563.3690, 302.2554
564.5420, 299.3838
565.7160, 205.8374
566.8890, 248.4148
568.0630, 181.8809
569.2360, 224.1809
570.4090, 160.3000
571.5810, 181.9702
572.7540, 161.5164
573.9260, 100.2715
575.0980, 77.00171
576.2700, 58.03979
577.4420, 46.52368
578.6140, 44.30518
579.7850, 55.09619
580.9560, 75.96094
582.1270, 76.76807
583.2980, 55.58252
584.4690, 45.95117
585.6400, 12.76416
586.8100, 9.075195
587.9800, 17.07422
589.1500, 4.213623
590.3200, 7.665771
591.4900, 43.56177
592.6590, 15.46753
593.8290, 63.38379
594.9980, 22.68457
596.1670, 85.25366
597.3360, 94.19995
598.5040, 77.15479
599.6730, 149.1174
600.8410, 133.0886
602.0090, 92.06592
603.1770, 169.0500
604.3450, 208.0405
605.5130, 165.0376
606.6800, 269.0410
607.8470, 250.0515
609.0140, 337.0679
610.1810, 400.0906
611.3480, 431.1196
612.5140, 487.1550
613.6810, 490.1968
614.8470, 600.2446
616.0130, 701.2983
617.1790, 718.3586
618.3440, 695.4248
619.5100, 886.1182
620.6750, 974.1958
621.8400, 1114.566
623.0050, 1241.784
624.1700, 1430.076
625.3350, 1671.175
626.4990, 2022.295
627.6640, 2268.507
628.8280, 2767.049
629.9920, 3283.843
631.1550, 3876.161
632.3190, 4580.421
633.4820, 5258.678
634.6460, 6003.293
635.8090, 6663.414
636.9710, 6728.562
638.1340, 6752.890
639.2970, 6338.864
640.4590, 5542.115
641.6210, 4719.964
642.7830, 3914.327
643.9450, 3351.556
645.1070, 2673.247
646.2680, 2181.432
647.4300, 1888.133
648.5910, 1594.047
649.7520, 1360.988
650.9130, 1083.389
652.0730, 897.0327
653.2340, 843.2500
654.3940, 706.5276
655.5540, 719.8950
656.7140, 565.1514
657.8740, 528.6868
659.0330, 457.9756
660.1930, 403.0967
661.3520, 337.8186
662.5110, 301.0076
663.6700, 266.2000
664.8290, 216.5081
665.9870, 212.8606
667.1460, 162.1328
668.3040, 194.4197
669.4620, 161.0142
670.6200, 235.3198
671.7770, 84.77197
672.9350, 72.07300
674.0920, 119.3743
675.2500, 62.61255
676.4070, 49.11011
677.5630, 61.35205
678.7200, 76.55591
679.8770, 3.838379
681.0330, 24.03491
682.1890, 57.07104
683.3450, 1.697021
684.5010, 22.49341
685.6560, 7.227295
686.8120, 12.95581
687.9670, 19.86353
689.1220, 33.69238
690.2770, 31.53833
691.4320, 1.400635
692.5870, 16.26758
693.7410, 1.144775
694.8950, 59.02710
696.0490, 10.94214
697.2030, 33.86646
698.3570, 35.04639
699.5110, 13.77783
700.6640, 42.75610
701.8170, 10.23926
702.9700, 12.77100
704.1230, 30.20679
705.2760, 4.179443
706.4290, 15.85425
707.5810, 11.90137
708.7330, 24.49487
709.8850, 17.95898
711.0370, 13.12744
712.1890, 15.77173
713.3400, 51.66699
714.4920, 140.5557
715.6430, 75.43726
716.7940, 94.31177
717.9450, 90.17871
719.0960, 18.03857
720.2460, 104.8904
721.3960, 150.7346
722.5470, 152.5715
723.6970, 83.40063
724.8460, 48.12061
725.9960, 80.93433
727.1460, 107.5847
728.2950, 100.3516
729.4440, 129.1416
730.5930, 164.9233
731.7420, 111.6965
732.8910, 110.4614
734.0390, 136.9829
735.1870, 177.7312
736.3360, 141.4702
737.4840, 161.2009
738.6310, 293.9229
739.7790, 234.6360
740.9260, 280.3401
742.0740, 356.0356
743.2210, 361.7217
744.3680, 355.5347
745.5150, 325.0664
746.6610, 280.7251
747.8080, 215.3748
748.9540, 154.0144
750.1000, 134.6450
751.2460, 115.2661
752.3920, 135.8774
753.5380, 88.47925
754.6830, 65.07153
755.8280, 73.65405
756.9730, 23.77319
758.1180, 56.76660
759.2630, 17.70337
760.4080, 26.79590
761.5520, 22.28418
762.6960, 69.76025
763.8410, 59.77344
764.9840, 35.63940
766.1280, 1.959473
767.2720, 5.581299
768.4150, 25.77173
769.5590, 30.11182
770.7020, 32.44043
771.8450, 1.242676
772.9870, 8.949707
774.1300, 64.31543
775.2720, 43.43042
776.4150, 11.77734
777.5570, 41.96655
778.6990, 34.85596
779.8400, 5.279297
780.9820, 50.39233
782.1230, 20.49414
783.2650, 9.580322
784.4060, 0.6462400
785.5470, 50.31274
786.6870, 15.67700
787.8280, 31.64844
788.9680, 45.39355
790.1090, 10.51514
791.2490, 44.40356
792.3890, 34.27979
793.5280, 50.14355
794.6680, 11.00488
795.8070, 42.81519
796.9470, 13.62329
798.0860, 13.58813
799.2250, 101.1672
800.3630, 79.49219
801.5020, 42.10596
802.6410, 39.19922
803.7790, 51.91626
804.9170, 48.66772
806.0550, 30.37573
807.1930, 44.04419
808.3300, 35.95654
809.4680, 4.357422
810.6050, 45.30347
811.7420, 59.93384
812.8790, 34.52295
814.0160, 58.09741
815.1520, 68.46313
816.2890, 49.01440
817.4250, 96.55420
818.5610, 20.08252
819.6970, 59.85889
820.8330, 108.2783
821.9680, 46.76489
823.1040, 77.01855
824.2390, 139.4817
825.3740, 119.3345
826.5090, 139.5007
827.6440, 123.2354
828.7790, 117.5388
829.9130, 159.2629
831.0470, 122.5383
832.1810, 165.6201
833.3150, 83.50049
834.4490, 165.0713
835.5830, 93.52344
836.7160, 155.1843
837.8500, 153.0662
838.9830, 164.3457
840.1160, 184.9661
841.2480, 215.2734
842.3810, 229.2603
843.5140, 268.2075
844.6460, 268.8435
845.7780, 267.5801
846.9100, 288.8010
848.0420, 258.3721
849.1740, 270.2383
850.3050, 343.4709
851.4360, 350.6948
852.5680, 470.9097
853.6990, 362.1155
854.8290, 479.3123
855.9600, 397.4351
857.0910, 475.6143
858.2210, 589.7849
859.3510, 445.9468
860.4810, 503.0999
861.6110, 452.2449
862.7410, 480.3816
863.8700, 436.5105
865.0000, 475.6313
866.1290, 478.7439
867.2580, 423.8481
868.3870, 392.9446
869.5150, 355.0325
870.6440, 358.1133
871.7720, 363.1863
872.9000, 374.2515
874.0290, 310.3088
875.1560, 282.3579
876.2840, 330.3989
877.4120, 273.4326
878.5390, 265.4590
879.6660, 234.4773
880.7930, 281.4883
881.9200, 284.4915
883.0470, 324.4875
884.1740, 309.4761
885.3000, 325.3625
886.4260, 313.4316
887.5530, 324.3987
888.6780, 342.3584
889.8040, 320.3113
890.9300, 417.2573
892.0550, 455.1965
893.1810, 465.5073
894.3060, 525.4331
895.4310, 563.0654
896.5560, 460.8481
897.6800, 539.5581
898.8050, 524.4585
899.9290, 412.3376
901.0530, 324.1245
902.1770, 283.5801
903.3010, 301.7830
904.4250, 274.4619
905.5480, 227.1965
906.6720, 161.9336
907.7950, 175.3130
908.9180, 248.1860
910.0410, 135.0330
911.1630, 128.6980
912.2860, 170.7153
913.4080, 98.45557
914.5300, 137.5989
915.6530, 127.2246
916.7740, 42.98486
917.8960, 35.28247
919.0180, 53.08398
920.1390, 79.36914
921.2600, 43.36133
922.3820, 48.48486
923.5020, 16.06689
924.6230, 52.40552
925.7440, 97.17041
926.8640, 24.87329
927.9850, 46.48560
929.1050, 2.207764
930.2250, 14.64990
931.3450, 47.33765
932.4640, 8.191895
933.5840, 17.44482
934.7030, 14.76978
935.8220, 20.99072
936.9410, 10.49414
938.0600, 0.2800290
939.1790, 2.027100
940.2970, 0.7167970
941.4160, 8.019531
942.5340, 8.323730
943.6520, 1.812500
944.7700, 2.146240
945.8870, 1.303467
947.0050, 1.381836
948.1220, 16.73120
949.2400, 21.97217
950.3570, 10.11353
951.4740, 28.80371
952.5900, 34.96436
953.7070, 10.08545
954.8240, 10.71606
955.9400, 5.484131
957.0560, 0.9072270
958.1720, 29.09131
959.2880, 7.786621
960.4030, 21.64307
961.5190, 24.62085
962.6340, 39.71558
963.7490, 28.58228
964.8640, 25.55591
965.9790, 48.78296
967.0940, 57.49707
968.2080, 43.37988
969.3230, 8.825439
970.4370, 19.70239
971.5510, 23.58447
972.6650, 2.479492
973.7790, 25.37646
974.8920, 36.28442
976.0060, 9.194336
977.1190, 14.89331
978.2320, 5.977295
979.3450, 7.943604
980.4580, 34.87622
981.5710, 10.18848
982.6830, 23.24854
983.7950, 20.68823
984.9080, 62.62769
986.0200, 31.56958
987.1310, 41.51465
988.2430, 36.46265
989.3550, 4.169434
990.4660, 41.98755
991.5770, 66.48242
992.6880, 78.37183
993.7990, 39.90137
994.9100, 66.49048
996.0200, 67.00806
997.1310, 66.46875
998.2410, 121.2339
999.3510, 175.2366
1000.461, 185.4822
1001.571, 254.2529
1002.681, 235.2666
1003.790, 230.2852
1004.899, 263.3076
1006.009, 195.3340
1007.118, 180.3652
1008.226, 204.4009
1009.335, 208.4407
1010.444, 131.4844
1011.552, 229.5322
1012.660, 142.5845
1013.768, 233.6489
1014.876, 262.7180
1015.984, 215.7913
1017.092, 204.8691
1018.199, 141.9517
1019.306, 240.0391
1020.413, 226.1306
1021.520, 240.2273
1022.627, 144.3289
1023.734, 230.4353
1024.840, 198.5464
1025.947, 161.6624
1027.053, 198.7952
1028.159, 157.9338
1029.265, 201.0874
1030.370, 151.2471
1031.476, 205.4131
1032.581, 192.5852
1033.687, 184.7844
1034.792, 179.9895
1035.897, 250.2063
1037.002, 291.4363
1038.106, 249.6729
1039.211, 212.9155
1040.315, 296.1646
1041.419, 258.4258
1042.523, 283.7065
1043.627, 301.9932
1044.731, 313.3035
1045.834, 278.6284
1046.938, 413.9597
1048.041, 332.3125
1049.144, 401.6768
1050.247, 397.0476
1051.349, 378.4268
1052.452, 500.8164
1053.555, 500.2192
1054.657, 505.6484
1055.759, 529.0872
1056.861, 642.5334
1057.963, 681.0049
1059.064, 716.4873
1060.166, 769.9763
1061.267, 727.4727
1062.368, 691.9753
1063.470, 657.4951
1064.570, 567.0212
1065.671, 551.5581
1066.772, 583.1123
1067.872, 503.0918
1068.972, 480.7781
1070.073, 493.9795
1071.173, 467.5513
1072.272, 535.0840
1073.372, 516.6548
1074.472, 556.2588
1075.571, 464.0471
1076.670, 564.9270
1077.769, 501.1296
1078.868, 645.7412
1079.967, 652.3892
1081.065, 682.0449
1082.164, 702.9048
1083.262, 764.8125
1084.360, 795.4885
1085.458, 845.6194
1086.556, 953.0449
1087.654, 1073.744
1088.751, 1003.450
1089.848, 1131.796
1090.946, 1235.785
1092.043, 1455.874
1093.139, 1589.916
1094.236, 1746.654
1095.333, 1841.398
1096.429, 2082.149
1097.525, 2242.941
1098.622, 2552.704
1099.718, 2963.472
1100.813, 3298.699
1101.909, 3756.479
1103.005, 4258.266
1104.100, 4652.059
1105.195, 5201.854
1106.290, 5629.811
1107.385, 5779.626
1108.480, 5978.397
1109.574, 6071.910
1110.669, 5880.646
1111.763, 5565.961
1112.857, 5167.048
1113.951, 4670.451
1115.045, 4212.627
1116.139, 3784.487
1117.232, 3390.353
1118.326, 3035.831
1119.419, 2680.101
1120.512, 2416.984
1121.605, 2169.871
1122.697, 1924.765
1123.790, 1790.664
1124.883, 1852.278
1125.975, 1590.956
1127.067, 1567.385
1128.159, 1545.307
1129.251, 1419.235
1130.342, 1359.168
1131.434, 1209.108
1132.525, 1295.054
1133.617, 1255.004
1134.708, 1261.122
1135.799, 1170.082
1136.889, 1118.047
1137.980, 1121.234
1139.071, 1074.208
1140.161, 1085.188
1141.251, 1085.174
1142.341, 1060.163
1143.431, 1077.159
1144.521, 1095.934
1145.610, 1090.385
1146.700, 1095.136
1147.789, 1110.992
1148.878, 1088.020
1149.967, 1116.053
1151.056, 1122.091
1152.144, 1058.133
1153.233, 1075.179
1154.321, 1035.230
1155.409, 1130.286
1156.498, 1200.346
1157.585, 1213.410
1158.673, 1278.611
1159.761, 1301.684
1160.848, 1251.761
1161.936, 1259.842
1163.023, 1282.146
1164.110, 1117.239
1165.197, 1209.336
1166.283, 1083.437
1167.370, 990.5425
1168.456, 881.6521
1169.542, 828.7654
1170.629, 717.8826
1171.714, 614.0032
1172.800, 605.2607
1173.886, 543.3975
1174.971, 537.5376
1176.057, 460.7512
1177.142, 418.8979
1178.227, 431.0476
1179.312, 390.5151
1180.397, 381.6631
1181.481, 362.5845
1182.566, 333.9331
1183.650, 258.0049
1184.734, 250.1904
1185.818, 219.3733
1186.902, 190.5522
1187.986, 201.0891
1189.069, 147.8230
1190.153, 163.9116
1191.236, 156.6021
1192.319, 164.4661
1193.402, 149.1809
1194.485, 145.0352
1195.567, 78.85547
1196.650, 68.07666
1197.732, 85.27344
1198.814, 75.47510
1199.896, 101.6829
1200.978, 107.8943
1202.060, 98.10767
1203.142, 123.3232
1204.223, 55.54102
1205.304, 9.239502
1206.386, 25.02100
1207.467, 29.81274
1208.547, 38.38330
1209.628, 5.581055
1210.709, 62.78052
1211.789, 67.98145
1212.869, 38.81299
1213.950, 4.374756
1215.030, 8.436035
1216.109, 30.74976
1217.189, 36.93799
1218.269, 40.12744
1219.348, 11.68188
1220.427, 4.397705
1221.506, 26.21362
1222.585, 4.993408
1223.664, 47.17651
1224.743, 78.34766
1225.821, 18.51953
1226.899, 49.30786
1227.978, 76.83936
1229.056, 78.98730
1230.134, 6.863525
1231.211, 68.28125
1232.289, 28.42676
1233.366, 59.57300
1234.444, 86.71973
1235.521, 18.13159
1236.598, 48.63892
1237.675, 10.97168
1238.751, 49.91675
1239.828, 21.05811
1240.904, 5.799316
1241.981, 63.33838
1243.057, 86.47656
1244.133, 5.615723
1245.209, 85.76123
1246.284, 11.90698
1247.360, 62.15039
1248.435, 23.30298
1249.510, 91.45312
1250.585, 44.61011
1251.660, 46.76685
1252.735, 93.92407
1253.810, 39.86499
1254.884, 24.72876
1255.959, 4.608398
1257.033, 111.9248
1258.107, 31.24170
1259.181, 52.35645
1260.255, 90.80664
1261.328, 73.92041
1262.402, 76.05396
1263.475, 2.166748
1264.548, 8.715088
1265.621, 164.3870
1266.694, 1.496338
1267.767, 61.60254
1268.840, 111.7080
1269.912, 45.81299
1270.984, 115.9172
1272.056, 152.2820
1273.129, 22.61523
1274.200, 94.62134
1275.272, 29.70728
1276.344, 23.79175
1277.415, 28.87573
1278.486, 97.95850
1279.558, 73.04053
1280.629, 97.74316
1281.699, 104.2007
1282.770, 99.27930
1283.841, 59.35620
1284.911, 35.43188
1285.981, 18.52539
1287.051, 7.598145
1288.121, 56.66772
1289.191, 19.73584
1290.261, 86.80249
1291.330, 5.867188
1292.400, 116.7012
1293.469, 23.76025
1294.538, 83.87427
1295.607, 48.01001
1296.676, 109.0872
1297.745, 24.19360
1298.813, 134.2432
1299.881, 62.29126
1300.950, 8.581055
1302.018, 99.40723
1303.086, 61.43896
1304.154, 6.531250
1305.221, 42.48657
1306.289, 144.5039
1307.356, 138.6675
1308.423, 72.68164
1309.490, 65.69336
1310.557, 43.70288
1311.624, 45.31592
1312.691, 113.7122
1313.757, 106.7126
1314.823, 38.71167
1315.890, 121.7090
1316.956, 78.70483
1318.022, 109.6992
1319.087, 102.6917
1320.153, 68.68237
1321.219, 24.67114
1322.284, 79.65869
1323.349, 120.6440
1324.414, 24.62769
1325.479, 128.6099
1326.544, 88.59009
1327.608, 72.56836
1328.673, 109.5454
1329.737, 91.52051
1330.801, 141.4937
1331.865, 71.46436
1332.929, 88.43408
1333.993, 133.9678
1335.057, 44.62891
1336.120, 58.97754
1337.183, 94.94043
1338.247, 98.90234
1339.310, 100.1157
1340.373, 83.80322
1341.435, 86.51318
1342.498, 56.45996
1343.560, 59.95703
1344.623, 41.89990
1345.685, 61.84180
1346.747, 38.78174
1347.809, 15.06689
1348.871, 90.73047
1349.932, 19.12549
1350.994, 43.74902
1352.055, 92.67432
1353.116, 113.5977
1354.177, 33.52002
1355.238, 85.40479
1356.299, 56.32178
1357.359, 40.22363
1358.420, 83.67188
1359.480, 91.57031
1360.540, 113.4678
1361.600, 109.3638
1362.660, 34.49951
1363.720, 18.76123
1364.780, 45.12305
1365.839, 126.0059
1366.898, 101.8813
1367.958, 70.75391
1369.017, 71.14795
1370.076, 79.01709
1371.134, 107.8687
1372.193, 81.42188
1373.251, 90.29980
1374.310, 13.14502
1375.368, 32.95752
1376.426, 47.79883
1377.484, 94.33691
1378.542, 185.1758
1379.599, 42.06006
1380.657, 24.58643
1381.714, 60.70996
1382.771, 89.77344
1383.828, 9.0332001E-02
1384.885, 5.916992
1385.942, 87.79395
1386.999, 1.616211
1388.055, 92.43604
1389.111, 29.25928
1390.168, 89.07568
1391.224, 132.7280
1392.280, 129.5410
1393.335, 107.4009
1394.391, 115.5039
1395.446, 65.80420
1396.502, 68.61182
1397.557, 71.41748
1398.612, 4.222656
1399.667, 88.05469
1400.722, 27.91797
1401.776, 104.8701
1402.831, 89.65674
1403.885, 83.45068
1404.939, 50.23584
1405.994, 123.0088
1407.048, 76.78076
1408.101, 117.5356
1409.155, 88.30566
1410.209, 49.01270
1411.262, 94.71631
1412.315, 32.41797
1413.368, 40.11426
1414.421, 85.67627
1415.474, 53.36621
1416.527, 49.05078
1417.579, 57.73145
1418.632, 5.810059
1419.684, 80.87451
1420.736, 24.53662
1421.788, 19.19189
1422.840, 32.84082
1423.891, 25.48389
1424.943, 136.1211
1425.994, 75.82227
1427.046, 19.45361
1428.097, 25.05029
1429.148, 104.5669
1430.199, 42.23389
1431.249, 77.80029
1432.300, 130.7036
1433.350, 9.310059
1434.401, 119.2759
1435.451, 109.8706
1436.501, 125.4014
1437.551, 147.0815
1438.601, 191.9731
1439.650, 131.7910
1440.700, 144.6040
1441.749, 127.4131
1442.798, 171.2183
1443.847, 152.9956
1444.896, 176.7637
1445.945, 176.3237
1446.993, 188.3408
1448.042, 171.1230
1449.090, 162.6387
1450.138, 162.6831
1451.187, 158.4844
1452.234, 182.2812
1453.282, 207.0854
1454.330, 159.8989
1455.377, 245.7109
1456.425, 174.4092
1457.472, 238.1753
1458.519, 160.0059
1459.566, 171.8335
1460.613, 165.6895
1461.660, 242.5459
1462.706, 139.4033
1463.752, 179.2573
1464.799, 135.0566
1465.845, 146.8960
1466.891, 193.7363
1467.937, 90.57764
1468.982, 150.4097
1470.028, 134.0986
1471.073, 128.9038
1472.119, 73.69678
1473.164, 73.70117
1474.209, 121.6768
1475.254, 71.22217
1476.299, 43.56738
1477.343, 98.35791
1478.388, 70.17822
1479.432, 64.99854
1480.476, 80.49512
1481.520, 121.2412
1482.564, 64.75049
1483.608, 109.5439
1484.651, 73.33496
1485.695, 59.12500
1486.738, 137.9136
1487.782, 4.702148
1488.825, 105.4595
1489.868, 145.2520
1490.910, 97.04541
1491.953, 49.49512
1492.996, 66.03467
1494.038, 119.6733
1495.080, 83.45215
1496.122, 60.46973
1497.164, 6.787598
1498.206, 36.97217
1499.248, 53.43994
1500.290, 10.80811
1501.331, 63.95312
1502.372, 22.28369
1503.413, 79.47607
1504.455, 34.23340
1505.495, 6.012695
1506.536, 68.73779
1507.577, 59.48438
1508.617, 65.22656
1509.658, 68.96387
1510.698, 34.69873
1511.738, 57.42725
1512.778, 79.14795
1513.818, 46.85938
1514.857, 113.6084
1515.897, 89.34961
1516.936, 90.08545
1517.975, 37.81641
1519.015, 76.55029
1520.054, 60.27783
1521.092, 122.0254
1522.131, 72.76514
1523.170, 118.5527
1524.208, 44.19287
1525.246, 74.95996
1526.285, 91.59180
1527.323, 96.39551
1528.361, 50.86816
1529.398, 70.39404
1530.436, 61.30762
1531.473, 53.62939
1532.511, 78.44482
1533.548, 33.04883
1534.585, 57.60449
1535.622, 58.75439
1536.659, 71.98047
1537.695, 58.67676
1538.732, 53.65186
1539.768, 74.83398
1540.805, 81.16309
1541.841, 64.84229
1542.877, 78.45801
1543.913, 38.14355
1544.948, 44.97217
1545.984, 71.93604
1547.019, 56.42236
1548.055, 70.12646
1549.090, 72.91797
1550.125, 25.66943
1551.160, 66.24805
1552.195, 108.9971
1553.229, 80.23877
1554.264, 30.31836
1555.298, 37.77734
1556.332, 0.5439450
1557.366, 96.83301
1558.400, 0.4916990
1559.434, 75.66992
1560.468, 34.63770
1561.502, 1.297852
1562.535, 0.0000000E+00
##END=



