##NAMES=Augite
##RRUFFID=R061108
##IDEAL CHEMISTRY=(Ca,Mg,Fe^2+^,Fe^3+^)_2_(Si,Al)_2_O_6_
##LOCALITY=Monti Rossi, near Mt. Etna, Sicily, Italy
##OWNER=RRUFF
##SOURCE=Michael Scott
##DESCRIPTION=Euhedral, short prismatic, black crystals in vesicular basalt.
##STATUS=The identification of this mineral is confirmed by single-crystal X-ray diffraction and chemical analysis.
##URL=rruff.info/R061108
##MEASURED CHEMISTRY=(Ca_0.86_Mg_0.74_Fe^2+^_0.18_Fe^3+^_0.08_Al_0.05_Ti_0.04_Na_0.04_Mn_0.01_)_Σ=2_(Si_1.83_Al_0.17_)_Σ=2_O_6_
##PIN_ID=L01906
##ORIENTATION=Laser parallel to (1 0 1). Fiducial mark perpendicular to laser is parallel to -b [0 -1 0]
158.6970, 0.0000000E+00
159.9310, 208.0098
161.1660, 180.3613
162.4000, 469.0430
163.6330, 482.5625
164.8670, 638.4707
166.1000, 867.5820
167.3340, 860.2207
168.5670, 840.4141
169.8000, 893.0098
171.0320, 783.3223
172.2650, 827.0020
173.4970, 560.1387
174.7290, 498.1602
175.9610, 343.4512
177.1930, 582.5234
178.4240, 407.9785
179.6550, 400.4707
180.8870, 283.7012
182.1170, 99.87109
183.3480, 177.6953
184.5790, 203.2031
185.8090, 664.4941
187.0390, 521.3145
188.2690, 509.7734
189.4990, 211.6582
190.7290, 510.8926
191.9580, 525.4102
193.1870, 525.1523
194.4160, 418.0547
195.6450, 358.0840
196.8740, 391.1699
198.1020, 435.2188
199.3310, 352.1602
200.5590, 400.9414
201.7870, 656.5215
203.0140, 621.8691
204.2420, 424.9531
205.4690, 45.25195
206.6960, 168.3828
207.9230, 201.7383
209.1500, 13.50977
210.3760, 265.1367
211.6030, 659.6406
212.8290, 911.3340
214.0550, 1123.041
215.2810, 1176.404
216.5060, 1418.939
217.7320, 1644.049
218.9570, 1862.717
220.1820, 2027.600
221.4070, 2126.068
222.6320, 2231.918
223.8560, 2190.668
225.0800, 2075.896
226.3040, 1969.596
227.5280, 2000.754
228.7520, 1848.355
229.9760, 1884.395
231.1990, 1660.121
232.4220, 1625.318
233.6450, 1416.488
234.8680, 1179.660
236.0910, 1043.898
237.3130, 1067.250
238.5350, 971.7539
239.7570, 778.4453
240.9790, 879.3535
242.2010, 615.4961
243.4220, 551.8945
244.6430, 669.5586
245.8640, 454.4922
247.0850, 412.7070
248.3060, 403.2109
249.5270, 166.0039
250.7470, 282.0938
251.9670, 268.4746
253.1870, 42.84766
254.4070, 42.12305
255.6260, 66.29102
256.8460, 106.9902
258.0650, 110.9629
259.2840, 80.15625
260.5030, 90.47656
261.7220, 79.92969
262.9400, 141.5762
264.1580, 53.25000
265.3760, 178.8477
266.5940, 95.18945
267.8120, 91.28125
269.0290, 144.1250
270.2470, 135.7266
271.4640, 73.90820
272.6810, 75.77734
273.8980, 310.8770
275.1140, 312.2051
276.3310, 576.7520
277.5470, 448.5176
278.7630, 737.4961
279.9790, 758.6816
281.1940, 1133.072
282.4100, 1249.664
283.6250, 1618.436
284.8400, 1875.369
286.0550, 2058.451
287.2700, 2545.691
288.4850, 2742.084
289.6990, 3163.656
290.9130, 3489.404
292.1270, 3922.326
293.3410, 4000.416
294.5540, 4511.670
295.7680, 4525.084
296.9810, 5086.656
298.1940, 5234.385
299.4070, 5805.266
300.6200, 6024.439
301.8320, 6230.812
303.0450, 6578.148
304.2570, 6920.738
305.4690, 7306.762
306.6800, 7808.670
307.8920, 8411.535
309.1030, 8863.289
310.3150, 9509.951
311.5260, 10193.26
312.7360, 10704.81
313.9470, 11646.89
315.1580, 12331.67
316.3680, 13022.17
317.5780, 13805.28
318.7880, 14618.03
319.9980, 15022.37
321.2070, 15710.23
322.4170, 15996.61
323.6260, 16590.43
324.8350, 16265.69
326.0430, 16540.40
327.2520, 16436.48
328.4610, 15714.90
329.6690, 15801.62
330.8770, 15496.68
332.0850, 14886.07
333.2920, 14696.79
334.5000, 14008.80
335.7070, 14145.08
336.9140, 13760.61
338.1210, 13724.43
339.3280, 13933.49
340.5350, 13543.80
341.7410, 13892.37
342.9470, 14130.14
344.1540, 14425.11
345.3590, 14739.27
346.5650, 15257.28
347.7710, 15722.14
348.9760, 16343.82
350.1810, 16519.65
351.3860, 16904.22
352.5910, 17161.79
353.7950, 17590.03
355.0000, 17174.42
356.2040, 17197.91
357.4080, 16725.49
358.6120, 16089.14
359.8150, 15764.88
361.0190, 14919.71
362.2220, 14405.67
363.4250, 13725.73
364.6280, 13394.92
365.8310, 12692.21
367.0340, 12107.61
368.2360, 11754.11
369.4380, 11878.72
370.6400, 11416.43
371.8420, 11209.22
373.0440, 11216.12
374.2450, 11070.11
375.4470, 11504.18
376.6480, 11732.33
377.8490, 12220.57
379.0490, 12658.89
380.2500, 13418.29
381.4500, 14375.77
382.6510, 15263.32
383.8510, 16165.96
385.0500, 17059.67
386.2500, 17541.45
387.4500, 18336.31
388.6490, 18881.23
389.8480, 18777.23
391.0470, 18633.29
392.2460, 17840.42
393.4440, 17027.61
394.6430, 15598.86
395.8410, 14379.16
397.0390, 12547.53
398.2370, 10998.50
399.4340, 9480.969
400.6320, 8336.488
401.8290, 6901.062
403.0260, 5670.684
404.2230, 4886.348
405.4200, 4084.859
406.6170, 3444.592
407.8130, 2885.189
409.0090, 2395.432
410.2050, 2218.324
411.4010, 1810.949
412.5970, 1850.670
413.7920, 1358.387
414.9880, 1256.309
416.1830, 1290.318
417.3780, 943.3516
418.5730, 1143.406
419.7670, 804.4844
420.9620, 863.5820
422.1560, 721.6973
423.3500, 801.8242
424.5440, 738.9688
425.7380, 602.1250
426.9310, 442.2910
428.1240, 526.4648
429.3180, 413.6543
430.5110, 286.8652
431.7030, 212.0938
432.8960, 81.36914
434.0890, 185.6816
435.2810, 122.9922
436.4730, 55.37109
437.6650, 68.84961
438.8570, 6.615234
440.0480, 36.02148
441.2390, 83.23633
442.4310, 184.3965
443.6220, 307.4785
444.8120, 231.4844
446.0030, 128.4297
447.1940, 23.32227
448.3840, 26.37500
449.5740, 111.8340
450.7640, 4.259766
451.9540, 63.51172
453.1430, 176.5645
454.3330, 162.0234
455.5220, 343.9414
456.7110, 330.4766
457.9000, 488.8926
459.0890, 637.3223
460.2770, 767.2988
461.4650, 934.7812
462.6540, 1025.758
463.8420, 1131.156
465.0290, 963.0039
466.2170, 1106.658
467.4050, 1077.795
468.5920, 1288.602
469.7790, 1082.955
470.9660, 1270.508
472.1530, 1225.781
473.3390, 1393.904
474.5250, 1461.508
475.7120, 1412.422
476.8980, 1434.828
478.0840, 1448.924
479.2690, 1592.084
480.4550, 1700.250
481.6400, 1489.707
482.8250, 1700.691
484.0100, 1652.373
485.1950, 1810.275
486.3800, 1883.445
487.5640, 1705.941
488.7480, 1679.510
489.9320, 1819.076
491.1160, 2160.211
492.3000, 1933.338
493.4840, 2008.537
494.6670, 1901.107
495.8500, 2092.586
497.0330, 2162.959
498.2160, 2148.221
499.3990, 2107.375
500.5810, 2329.416
501.7630, 2395.344
502.9460, 2422.160
504.1280, 2668.859
505.3090, 2631.443
506.4910, 3212.908
507.6720, 3063.252
508.8540, 3324.477
510.0350, 3470.576
511.2160, 3511.555
512.3960, 3638.404
513.5770, 3949.129
514.7570, 4251.725
515.9380, 4209.189
517.1180, 4736.525
518.2970, 4708.730
519.4770, 4970.797
520.6570, 5051.732
521.8360, 5419.529
523.0150, 5390.189
524.1940, 5820.713
525.3730, 6064.096
526.5510, 6028.334
527.7300, 6298.434
528.9080, 6459.387
530.0860, 6365.195
531.2640, 6663.859
532.4420, 6571.375
533.6200, 6581.744
534.7970, 6694.959
535.9740, 6373.027
537.1510, 6351.943
538.3280, 6329.703
539.5050, 6147.312
540.6810, 6140.768
541.8580, 5927.068
543.0340, 5959.209
544.2100, 6100.191
545.3860, 5935.017
546.5610, 5715.680
547.7370, 5868.189
548.9120, 5987.541
550.0870, 5828.739
551.2620, 5859.775
552.4370, 5915.662
553.6120, 5713.389
554.7860, 5552.951
555.9600, 5770.358
557.1340, 5681.606
558.3080, 5648.682
559.4820, 5495.591
560.6560, 5531.328
561.8290, 5208.893
563.0020, 5203.284
564.1750, 4885.503
565.3480, 4820.549
566.5210, 4547.416
567.6930, 4455.111
568.8660, 4302.627
570.0380, 4371.432
571.2100, 4221.561
572.3820, 4001.943
573.5530, 3677.146
574.7250, 3534.092
575.8960, 3885.529
577.0670, 3031.521
578.2380, 2882.933
579.4090, 3299.585
580.5800, 2399.369
581.7500, 2052.721
582.9210, 1625.758
584.0910, 1558.689
585.2610, 1218.439
586.4300, 1053.352
587.6000, 1041.355
588.7690, 726.6191
589.9390, 1255.869
591.1080, 1138.794
592.2770, 1132.054
593.4450, 392.0322
594.6140, 19.65137
595.7820, 70.93359
596.9500, 86.10547
598.1190, 159.0537
599.2860, 333.0947
600.4540, 103.7217
601.6220, 341.8467
602.7890, 174.7178
603.9560, 119.3037
605.1230, 80.47266
606.2900, 87.79785
607.4570, 40.59375
608.6230, 42.10547
609.7890, 242.6582
610.9560, 191.0166
612.1220, 192.9482
613.2870, 235.4590
614.4530, 157.5645
615.6180, 187.2363
616.7840, 333.4863
617.9490, 362.3711
619.1140, 410.9033
620.2790, 272.0947
621.4430, 359.9072
622.6080, 312.3691
623.7720, 366.4668
624.9360, 509.2207
626.1000, 656.6719
627.2640, 543.8525
628.4270, 662.7412
629.5910, 769.3643
630.7540, 875.7393
631.9170, 1001.879
633.0800, 949.7949
634.2430, 1258.482
635.4050, 1370.951
636.5680, 1620.201
637.7300, 1893.233
638.8920, 1957.048
640.0540, 2495.646
641.2150, 2584.027
642.3770, 2986.193
643.5380, 3204.146
644.7000, 3775.882
645.8610, 4403.406
647.0210, 4851.717
648.1820, 5699.819
649.3430, 6368.710
650.5030, 7387.391
651.6630, 8721.862
652.8230, 9646.125
653.9830, 11130.18
655.1430, 12737.03
656.3020, 14391.68
657.4620, 16219.12
658.6210, 18239.35
659.7800, 20231.39
660.9390, 21929.23
662.0970, 23898.86
663.2560, 24491.29
664.4140, 24632.53
665.5720, 24422.57
666.7300, 23504.41
667.8880, 21896.06
669.0460, 19937.51
670.2030, 17898.78
671.3600, 15921.84
672.5180, 13857.72
673.6740, 12025.41
674.8310, 10617.91
675.9880, 8996.229
677.1440, 7882.362
678.3010, 6685.307
679.4570, 5998.070
680.6130, 4957.652
681.7690, 4223.055
682.9240, 4011.276
684.0800, 3271.321
685.2350, 2922.188
686.3900, 2524.882
687.5450, 2296.401
688.7000, 2069.748
689.8540, 1522.925
691.0090, 1445.932
692.1630, 1204.769
693.3170, 1126.439
694.4710, 930.9453
695.6250, 834.2881
696.7780, 805.4668
697.9320, 738.4854
699.0850, 631.3438
700.2380, 623.0439
701.3910, 413.5879
702.5440, 387.9785
703.6970, 453.2139
704.8490, 241.2998
706.0010, 207.2344
707.1530, 140.0215
708.3050, 70.07910
709.4570, 48.13281
710.6090, 31.43652
711.7600, 74.43359
712.9110, 65.52344
714.0620, 107.1719
715.2130, 216.2695
716.3640, 329.9883
717.5150, 202.0410
718.6650, 377.3555
719.8150, 428.0098
720.9650, 413.0332
722.1150, 421.3984
723.2650, 500.0918
724.4150, 520.1289
725.5640, 594.5254
726.7130, 715.3262
727.8630, 538.4180
729.0110, 563.0664
730.1600, 704.0840
731.3090, 456.5488
732.4570, 622.4746
733.6060, 640.0352
734.7540, 384.2812
735.9020, 507.3066
737.0490, 381.9766
738.1970, 207.3047
739.3440, 217.5801
740.4920, 70.12891
741.6390, 115.7285
742.7860, 353.0684
743.9320, 484.2969
745.0790, 634.8965
746.2250, 802.2871
747.3720, 981.6484
748.5180, 1149.568
749.6640, 1373.197
750.8100, 1605.891
751.9550, 2030.887
753.1010, 2026.191
754.2460, 2521.098
755.3910, 2570.420
756.5360, 2918.969
757.6810, 3245.365
758.8250, 3349.670
759.9700, 3710.596
761.1140, 4063.910
762.2580, 4097.449
763.4020, 4331.680
764.5460, 4506.564
765.6900, 4534.043
766.8330, 4651.367
767.9760, 4478.617
769.1200, 4710.219
770.2620, 4607.756
771.4050, 4466.143
772.5480, 4514.088
773.6900, 4225.062
774.8330, 4073.072
775.9750, 3924.121
777.1170, 3847.207
778.2590, 3639.549
779.4000, 3404.516
780.5420, 3249.740
781.6830, 3031.016
782.8240, 2801.344
783.9650, 2672.307
785.1060, 2535.170
786.2470, 2418.672
787.3870, 2133.238
788.5280, 2063.869
789.6680, 1957.570
790.8080, 1874.340
791.9480, 1809.184
793.0870, 1792.951
794.2270, 1948.100
795.3660, 1829.174
796.5060, 1895.334
797.6450, 1967.578
798.7830, 1918.910
799.9220, 2070.330
801.0610, 2117.844
802.1990, 2234.453
803.3370, 2218.158
804.4750, 2469.961
805.6130, 2322.867
806.7510, 2841.875
807.8890, 2956.990
809.0260, 2924.215
810.1630, 3055.551
811.3000, 3202.996
812.4370, 3215.561
813.5740, 3274.500
814.7110, 3123.039
815.8470, 3238.961
816.9830, 3251.006
818.1190, 3144.180
819.2550, 3472.480
820.3910, 3375.912
821.5270, 3285.477
822.6620, 3142.176
823.7970, 3149.012
824.9330, 3015.986
826.0670, 2636.104
827.2020, 2491.363
828.3370, 2646.770
829.4710, 2119.322
830.6060, 2437.027
831.7400, 2264.883
832.8740, 2099.891
834.0080, 1986.057
835.1410, 2079.379
836.2750, 1915.863
837.4080, 1844.510
838.5410, 1982.318
839.6740, 1724.295
840.8070, 1826.439
841.9400, 1836.752
843.0730, 1906.238
844.2050, 2043.898
845.3370, 2144.270
846.4690, 2361.320
847.6010, 2627.111
848.7330, 2835.090
849.8640, 3016.328
850.9960, 3167.080
852.1270, 3467.283
853.2580, 3540.074
854.3890, 3699.631
855.5200, 3769.932
856.6500, 4059.814
857.7810, 4261.408
858.9110, 4158.264
860.0410, 4086.977
861.1710, 4495.240
862.3010, 4288.656
863.4310, 4104.330
864.5600, 3846.973
865.6900, 4007.938
866.8190, 3950.934
867.9480, 3878.367
869.0770, 3635.436
870.2050, 3438.996
871.3340, 3436.312
872.4620, 3493.277
873.5900, 3702.184
874.7180, 3338.484
875.8460, 3601.166
876.9740, 3478.430
878.1010, 3468.297
879.2290, 3409.668
880.3560, 3464.520
881.4830, 3534.852
882.6100, 3556.654
883.7370, 3441.016
884.8630, 3533.840
885.9900, 3423.119
887.1160, 3596.875
888.2420, 3525.105
889.3680, 3451.830
890.4940, 3659.051
891.6200, 3358.736
892.7450, 3770.881
893.8700, 3330.479
894.9960, 3511.545
896.1210, 3413.057
897.2460, 3404.014
898.3700, 3591.408
899.4950, 3469.219
900.6190, 3523.432
901.7430, 3439.066
902.8670, 3510.104
903.9910, 3694.551
905.1150, 3656.373
906.2390, 3588.572
907.3620, 3648.141
908.4850, 3551.051
909.6080, 3469.309
910.7310, 3613.930
911.8540, 3759.932
912.9770, 3793.303
914.0990, 3861.012
915.2210, 3964.078
916.3440, 4041.482
917.4660, 4082.215
918.5870, 4393.289
919.7090, 4359.684
920.8310, 4464.400
921.9520, 4472.439
923.0730, 4323.805
924.1940, 4486.486
925.3150, 4244.486
926.4360, 4373.807
927.5560, 4419.436
928.6770, 4393.387
929.7970, 4198.656
930.9170, 4089.254
932.0370, 4200.176
933.1570, 3769.396
934.2760, 3995.926
935.3960, 3550.752
936.5150, 3509.885
937.6340, 3357.326
938.7530, 3573.084
939.8720, 3383.148
940.9910, 3416.525
942.1090, 3342.213
943.2280, 3177.207
944.3460, 3326.510
945.4640, 3289.115
946.5820, 3374.014
947.6990, 3393.219
948.8170, 3505.715
949.9340, 3563.502
951.0520, 3472.584
952.1690, 3734.951
953.2860, 3965.613
954.4030, 4027.562
955.5190, 4003.805
956.6360, 4187.338
957.7520, 4133.158
958.8680, 4338.266
959.9840, 4539.662
961.1000, 4718.340
962.2160, 4798.312
963.3310, 4997.564
964.4470, 4985.102
965.5620, 5351.922
966.6770, 5339.023
967.7920, 5763.410
968.9060, 5833.080
970.0210, 5957.033
971.1360, 6061.264
972.2500, 6426.770
973.3640, 6564.559
974.4780, 6567.623
975.5920, 6923.965
976.7050, 7035.586
977.8190, 7446.479
978.9320, 7495.646
980.0450, 7996.098
981.1580, 8341.695
982.2710, 8605.855
983.3840, 9071.186
984.4970, 9319.824
985.6090, 9391.727
986.7210, 10247.96
987.8330, 10710.57
988.9450, 11559.50
990.0570, 12261.80
991.1690, 13159.48
992.2800, 13777.54
993.3920, 15271.96
994.5030, 16497.78
995.6140, 17480.98
996.7250, 19030.59
997.8350, 20661.63
998.9460, 22173.05
1000.056, 24172.87
1001.167, 25877.09
1002.277, 27697.67
1003.387, 29119.64
1004.496, 30735.99
1005.606, 31794.82
1006.715, 32126.07
1007.825, 31904.07
1008.934, 31533.75
1010.043, 30094.76
1011.152, 28329.53
1012.260, 25869.63
1013.369, 23998.97
1014.477, 20775.40
1015.586, 18267.66
1016.694, 16221.28
1017.802, 14131.58
1018.909, 12614.75
1020.017, 11364.98
1021.124, 10052.00
1022.232, 9352.959
1023.339, 8629.934
1024.446, 7953.664
1025.553, 7324.344
1026.659, 7276.908
1027.766, 6741.051
1028.872, 6733.139
1029.979, 6519.455
1031.085, 6477.531
1032.191, 6297.592
1033.296, 5991.879
1034.402, 6139.572
1035.507, 5909.605
1036.613, 5911.436
1037.718, 5739.707
1038.823, 5668.512
1039.928, 5584.676
1041.032, 5489.924
1042.137, 5362.973
1043.241, 5360.615
1044.346, 5096.268
1045.450, 4980.898
1046.554, 4603.633
1047.657, 4361.377
1048.761, 4155.053
1049.864, 4086.717
1050.968, 3732.160
1052.071, 3611.369
1053.174, 3494.471
1054.277, 3279.295
1055.379, 3199.701
1056.482, 3130.980
1057.584, 2758.203
1058.687, 2856.988
1059.789, 2721.977
1060.891, 2472.656
1061.992, 2554.023
1063.094, 2375.309
1064.196, 2376.391
1065.297, 2328.723
1066.398, 2315.080
1067.499, 2134.613
1068.600, 2053.146
1069.701, 2042.943
1070.801, 2109.988
1071.902, 2070.531
1073.002, 2009.859
1074.102, 2110.344
1075.202, 2055.090
1076.302, 1913.865
1077.402, 1848.188
1078.501, 1844.529
1079.600, 1948.064
1080.700, 1846.408
1081.799, 1873.777
1082.898, 1814.182
1083.996, 1996.352
1085.095, 1818.828
1086.193, 1982.906
1087.292, 1912.400
1088.390, 1894.332
1089.488, 1869.400
1090.586, 1853.521
1091.683, 1987.395
1092.781, 1759.156
1093.878, 1756.920
1094.975, 1857.379
1096.073, 1720.887
1097.169, 1883.604
1098.266, 1768.387
1099.363, 1714.854
1100.459, 1916.887
1101.556, 1761.035
1102.652, 1699.848
1103.748, 1644.594
1104.844, 1711.201
1105.940, 1684.324
1107.035, 1685.567
1108.131, 1661.954
1109.226, 1523.744
1110.321, 1557.279
1111.416, 1494.138
1112.511, 1583.948
1113.605, 1484.569
1114.700, 1500.304
1115.794, 1723.055
1116.889, 1573.515
1117.983, 1448.852
1119.077, 1633.328
1120.170, 1464.593
1121.264, 1425.283
1122.357, 1346.817
1123.451, 1295.973
1124.544, 985.2402
1125.637, 1027.278
1126.730, 842.2139
1127.823, 900.6504
1128.915, 533.5254
1130.008, 493.2998
1131.100, 411.4199
1132.192, 296.0264
1133.284, 398.9131
1134.376, 252.7939
1135.467, 204.4502
1136.559, 0.1035160
1137.650, 5.349609
1138.742, 70.89258
1139.833, 137.2900
1140.924, 223.7998
1142.014, 246.0518
1143.105, 296.0293
1144.195, 250.6387
1145.286, 392.6260
1146.376, 311.7178
1147.466, 543.0381
1148.556, 412.7178
1149.646, 333.3525
1150.735, 416.7637
1151.825, 416.3867
1152.914, 418.5000
1154.003, 453.9531
1155.092, 421.7705
1156.181, 392.8574
1157.270, 410.9795
1158.358, 360.6006
1159.447, 316.3779
1160.535, 292.7139
1161.623, 277.7871
1162.711, 266.5254
1163.799, 259.3945
1164.886, 287.1787
1165.974, 250.2715
1167.061, 300.5840
1168.148, 186.0820
1169.235, 200.6094
1170.322, 148.8867
1171.409, 61.04980
1172.496, 64.39160
1173.582, 112.4160
1174.669, 189.3535
1175.755, 119.8652
1176.841, 7.459961
1177.927, 46.81543
1179.012, 10.56055
1180.098, 54.02734
1181.183, 31.74512
1182.269, 106.4092
1183.354, 111.3848
1184.439, 131.6270
1185.524, 107.6582
1186.608, 193.4688
1187.693, 155.1201
1188.777, 176.5225
1189.862, 238.7148
1190.946, 201.7158
1192.030, 194.5078
1193.113, 135.1592
1194.197, 223.5010
1195.281, 369.6299
1196.364, 300.5918
1197.447, 444.3926
1198.530, 356.9854
1199.613, 318.3877
1200.696, 292.0078
1201.779, 354.0312
1202.861, 336.3477
1203.944, 341.8828
1205.026, 381.2939
1206.108, 391.5039
1207.190, 421.5137
1208.271, 591.3242
1209.353, 409.3350
1210.435, 673.7637
1211.516, 583.0635
1212.597, 594.1367
1213.678, 780.2695
1214.759, 614.9922
1215.840, 661.5303
1216.920, 638.8916
1218.001, 616.3760
1219.081, 705.3623
1220.161, 712.1670
1221.241, 754.7939
1222.321, 783.2402
1223.401, 614.5195
1224.480, 884.6006
1225.560, 886.5059
1226.639, 720.2295
1227.718, 845.7646
1228.797, 763.1182
1229.876, 722.7520
1230.955, 820.4746
1232.033, 880.9492
1233.112, 906.1719
1234.190, 791.1240
1235.268, 856.7959
1236.346, 849.7705
1237.424, 839.5859
1238.501, 930.1494
1239.579, 834.5381
1240.656, 923.1133
1241.733, 938.0498
1242.811, 986.4102
1243.888, 961.5645
1244.964, 959.2178
1246.041, 1029.498
1247.117, 1059.189
1248.194, 1025.497
1249.270, 1075.096
1250.346, 975.0889
1251.422, 1005.750
1252.498, 1092.689
1253.573, 1061.434
1254.649, 1111.129
1255.724, 1129.793
1256.800, 1007.810
1257.875, 1130.415
1258.950, 1146.882
1260.024, 1054.763
1261.099, 1168.079
1262.173, 1090.227
1263.248, 1080.425
1264.322, 1121.521
1265.396, 1109.113
1266.470, 1120.069
1267.544, 1125.702
1268.617, 1068.801
1269.691, 1064.884
1270.764, 1213.132
1271.837, 1069.251
1272.910, 1175.067
1273.983, 1246.709
1275.056, 1154.269
1276.129, 1140.207
1277.201, 1111.642
1278.273, 1008.926
1279.346, 1076.254
1280.418, 1128.177
1281.489, 1117.742
1282.561, 1087.974
1283.633, 1044.849
1284.704, 995.5557
1285.776, 900.2539
1286.847, 910.0430
1287.918, 844.7441
1288.989, 882.0605
1290.059, 943.3574
1291.130, 826.1416
1292.200, 756.4385
1293.271, 1014.647
1294.341, 832.9951
1295.411, 789.4229
1296.481, 726.8975
1297.551, 646.1992
1298.620, 733.6904
1299.690, 622.1025
1300.759, 595.1328
1301.828, 687.1768
1302.897, 584.9385
1303.966, 624.3428
1305.035, 558.3848
1306.103, 687.2197
1307.172, 723.8242
1308.240, 570.4248
1309.308, 465.7393
1310.376, 661.8350
1311.444, 504.4561
1312.512, 651.9746
1313.580, 629.4463
1314.647, 640.0693
1315.714, 599.1543
1316.781, 618.2461
1317.848, 651.5811
1318.915, 620.8545
1319.982, 688.6016
1321.049, 566.3379
1322.115, 763.8994
1323.181, 668.6523
1324.248, 646.8232
1325.314, 556.2666
1326.380, 683.5791
1327.445, 686.9062
1328.511, 470.3760
1329.576, 639.6523
1330.642, 639.9199
1331.707, 451.0547
1332.772, 788.3135
1333.837, 611.4141
1334.902, 664.2129
1335.966, 686.1455
1337.031, 438.6172
1338.095, 757.6016
1339.159, 511.6152
1340.223, 602.2656
1341.287, 458.8203
1342.351, 612.0244
1343.415, 545.6914
1344.478, 712.9648
1345.541, 432.1641
1346.605, 657.8584
1347.668, 564.3447
1348.731, 645.4678
1349.793, 585.1113
1350.856, 589.6250
1351.918, 493.1152
1352.981, 573.8584
1354.043, 631.4492
1355.105, 557.7490
1356.167, 616.9639
1357.229, 522.3486
1358.290, 531.0869
1359.352, 506.6279
1360.413, 525.4131
1361.475, 499.1611
1362.536, 480.6045
1363.597, 521.3721
1364.657, 457.3682
1365.718, 456.1123
1366.779, 507.3584
1367.839, 493.7520
1368.899, 398.7295
1369.959, 413.6572
1371.019, 582.6777
1372.079, 387.4727
1373.139, 418.1416
1374.198, 518.9990
1375.258, 340.8701
1376.317, 334.4932
1377.376, 397.2139
1378.435, 483.3926
1379.494, 473.7656
1380.553, 475.6104
1381.611, 499.3486
1382.670, 367.6855
1383.728, 366.0068
1384.786, 239.6309
1385.844, 306.6855
1386.902, 287.3750
1387.960, 307.2646
1389.017, 389.2012
1390.075, 312.7256
1391.132, 470.1240
1392.189, 316.6055
1393.246, 233.9463
1394.303, 258.2559
1395.360, 228.5029
1396.417, 387.4150
1397.473, 212.2725
1398.529, 333.7490
1399.585, 336.6387
1400.642, 297.0137
1401.697, 325.5488
1402.753, 252.9482
1403.809, 415.3555
1404.864, 162.8350
1405.920, 187.0127
1406.975, 269.5674
1408.030, 166.3896
1409.085, 267.2744
1410.140, 223.2266
1411.194, 311.2588
1412.249, 93.28320
1413.303, 223.0703
1414.358, 117.0781
1415.412, 208.9736
1416.466, 7.833984
1417.520, 107.6104
1418.573, 214.8281
1419.627, 37.89062
1420.680, 77.51562
1421.733, 181.1895
1422.787, 272.8291
1423.840, 146.3857
1424.892, 230.5020
1425.945, 137.6660
1426.998, 223.0918
1428.050, 48.57031
1429.103, 19.52051
1430.155, 147.1602
1431.207, 22.85352
1432.259, 105.8174
1433.310, 152.2803
1434.362, 163.7539
1435.414, 34.86719
1436.465, 86.46582
1437.516, 66.93359
1438.567, 43.50586
1439.618, 121.1543
1440.669, 13.27734
1441.720, 89.76758
1442.770, 92.69824
1443.820, 129.2471
1444.871, 85.89355
1445.921, 64.75684
1446.971, 13.37109
1448.021, 162.0264
1449.070, 144.4053
1450.120, 43.76172
1451.169, 129.0820
1452.219, 106.4941
1453.268, 89.24707
1454.317, 127.2598
1455.366, 5.463867
1456.414, 60.80762
1457.463, 257.4795
1458.511, 48.10449
1459.560, 20.70410
1460.608, 58.27734
1461.656, 139.8369
1462.704, 148.3945
1463.752, 167.0039
1464.799, 45.46289
1465.847, 117.9932
1466.894, 124.5283
1467.941, 2.782227
1468.988, 26.12891
1470.035, 7.329102
1471.082, 153.4297
1472.129, 117.9570
1473.175, 146.5352
1474.222, 18.94629
1475.268, 59.82227
1476.314, 69.34180
1477.360, 83.02344
1478.406, 73.51367
1479.452, 157.5117
1480.498, 74.26855
1481.543, 57.47266
1482.588, 191.3740
1483.633, 125.3135
1484.679, 112.0869
1485.723, 70.78711
1486.768, 33.79102
1487.813, 17.12402
1488.857, 128.9590
1489.902, 90.07715
1490.946, 76.19922
1491.990, 185.3936
1493.034, 120.3174
1494.078, 255.3301
1495.122, 331.1611
1496.165, 301.9971
1497.209, 263.7441
1498.252, 276.7627
1499.295, 87.16895
1500.338, 170.7852
1501.381, 164.3496
1502.424, 240.8408
1503.466, 326.4863
1504.509, 296.8066
1505.551, 357.7148
1506.593, 330.4023
1507.635, 357.0234
1508.677, 273.5928
1509.719, 186.5605
1510.761, 172.9600
1511.802, 257.8252
1512.844, 221.6250
1513.885, 275.1924
1514.926, 168.0469
1515.967, 366.5654
1517.008, 428.9893
1518.049, 202.8564
1519.089, 327.2559
1520.130, 397.1846
1521.170, 181.0371
1522.210, 240.0605
1523.250, 147.9375
1524.290, 219.9531
1525.330, 305.9180
1526.370, 304.0088
1527.409, 310.7793
1528.448, 265.6006
1529.488, 124.4307
1530.527, 288.1660
1531.566, 312.9316
1532.605, 244.6602
1533.643, 123.3711
1534.682, 168.0791
1535.720, 125.6094
1536.759, 200.6221
1537.797, 239.2578
1538.835, 242.8945
1539.873, 106.4473
1540.910, 150.9531
1541.948, 123.0537
1542.986, 92.51660
1544.023, 163.2256
1545.060, 48.04004
1546.097, 117.6240
1547.134, 113.7852
1548.171, 143.8857
1549.208, 101.3320
1550.244, 81.68457
1551.281, 135.3984
1552.317, 149.1162
1553.353, 99.83984
1554.389, 134.6035
1555.425, 20.84961
1556.461, 38.70996
1557.497, 113.9326
1558.532, 72.22266
1559.567, 113.0107
1560.603, 124.5879
1561.638, 1.969727
1562.673, 160.5479
1563.708, 0.0000000E+00
##END=



