##NAMES=Augite
##RRUFFID=R061086
##IDEAL CHEMISTRY=(Ca,Mg,Fe^2+^,Fe^3+^)_2_(Si,Al)_2_O_6_
##LOCALITY=Boreslav, Teplitz, Bohemia, Czech Republic
##OWNER=RRUFF
##SOURCE=Michael Scott
##DESCRIPTION=Black to dark green tabular euhedral crystal
##STATUS=The identification of this mineral has been confirmed by X-ray diffraction and chemical analysis
##URL=rruff.info/R061086
##MEASURED CHEMISTRY=(Ca_0.88_Mg_0.83_Fe_0.13_Al_0.08_Na_0.04_Ti_0.03_Cr_0.01_)_Σ=2_(Si_1.89_Al_0.11_)_Σ=2_O_6_
##PIN_ID=M00162
##ORIENTATION=Laser parallel to c* (0 0 1). Fiducial mark perpendicular to laser is parallel to a [1 0 0]
166.1800, 0.0000000E+00
167.4110, 58.81519
168.6410, 7.261719
169.8720, 116.0442
171.1020, 30.38525
172.3320, 2.284668
173.5620, 115.4939
174.7910, 20.40186
176.0210, 68.33569
177.2500, 71.53003
178.4790, 86.09399
179.7080, 151.2183
180.9370, 71.03809
182.1650, 129.6450
183.3940, 111.1023
184.6220, 154.4565
185.8500, 117.7415
187.0780, 145.1575
188.3050, 189.3418
189.5330, 183.5083
190.7600, 251.7717
191.9870, 196.1387
193.2140, 280.5884
194.4410, 288.1150
195.6680, 247.7146
196.8940, 198.3828
198.1200, 195.1162
199.3470, 194.9114
200.5720, 213.7654
201.7980, 180.6777
203.0240, 120.6492
204.2490, 78.67578
205.4740, 16.75293
206.6990, 25.12231
207.9240, 27.06299
209.1490, 0.2583010
210.3740, 5.510498
211.5980, 44.80176
212.8220, 106.1306
214.0460, 92.49414
215.2700, 52.89014
216.4930, 55.54028
217.7170, 129.9929
218.9400, 86.47534
220.1630, 117.9868
221.3860, 133.5261
222.6090, 139.0933
223.8320, 107.6870
225.0540, 118.3064
226.2760, 190.9517
227.4980, 161.6221
228.7200, 207.3164
229.9420, 157.0349
231.1630, 187.7766
232.3850, 172.5410
233.6060, 108.3276
234.8270, 113.1409
236.0480, 98.99438
237.2690, 56.91992
238.4890, 73.86743
239.7090, 31.83057
240.9290, 68.80347
242.1490, 72.78394
243.3690, 92.76782
244.5890, 114.7612
245.8080, 89.76465
247.0270, 104.7788
248.2470, 134.8037
249.4650, 95.83960
250.6840, 109.8853
251.9030, 138.9402
253.1210, 125.7451
254.3390, 104.1179
255.5570, 150.2314
256.7750, 177.3550
257.9930, 215.4888
259.2100, 243.9453
260.4280, 260.6335
261.6450, 235.8826
262.8620, 244.7305
264.0790, 109.1685
265.2950, 5.670654
266.5120, 42.50244
267.7280, 75.68726
268.9440, 18.88428
270.1600, 11.09326
271.3760, 23.31396
272.5920, 64.54688
273.8070, 2.791748
275.0220, 89.04785
276.2370, 96.31616
277.4520, 77.63452
278.6670, 93.48535
279.8820, 66.18872
281.0960, 75.50244
282.3100, 97.82690
283.5240, 135.1626
284.7380, 134.5090
285.9520, 121.8662
287.1650, 123.2341
288.3780, 114.6125
289.5920, 132.0002
290.8050, 129.3984
292.0170, 162.8064
293.2300, 193.5950
294.4430, 212.6533
295.6550, 272.0913
296.8670, 285.5388
298.0790, 311.9963
299.2910, 288.4626
300.5020, 332.9385
301.7140, 427.6458
302.9250, 398.1375
304.1360, 470.8772
305.3470, 490.8879
306.5580, 466.2131
307.7680, 537.2434
308.9780, 594.7510
310.1890, 655.2739
311.3990, 711.0957
312.6090, 767.8564
313.8180, 826.5979
315.0280, 880.0593
316.2370, 934.2964
317.4460, 992.6587
318.6550, 1051.660
319.8640, 1098.057
321.0730, 1222.468
322.2810, 1222.891
323.4890, 1370.317
324.6980, 1326.753
325.9060, 1318.196
327.1130, 1437.664
328.3210, 1327.143
329.5280, 1260.636
330.7360, 1330.138
331.9430, 1258.651
333.1500, 1153.083
334.3560, 1077.528
335.5630, 1067.990
336.7690, 1037.466
337.9760, 966.9575
339.1820, 960.6689
340.3870, 872.8638
341.5930, 820.3938
342.7990, 935.9363
344.0040, 910.4912
345.2090, 880.0579
346.4140, 904.6357
347.6190, 836.2256
348.8240, 825.8257
350.0280, 865.4363
351.2330, 927.0574
352.4370, 948.1799
353.6410, 956.2290
354.8440, 974.5520
356.0480, 963.5229
357.2520, 961.1929
358.4550, 948.8726
359.6580, 912.5610
360.8610, 818.2583
362.0640, 874.9631
363.2660, 851.6765
364.4690, 768.3989
365.6710, 819.1289
366.8730, 803.8672
368.0750, 705.6138
369.2770, 698.3679
370.4780, 642.1304
371.6800, 566.8999
372.8810, 645.6770
374.0820, 675.4614
375.2830, 691.2529
376.4830, 693.0518
377.6840, 678.8574
378.8840, 757.6699
380.0840, 779.4893
381.2840, 743.3149
382.4840, 853.1467
383.6840, 989.9846
384.8830, 1061.828
386.0830, 1055.678
387.2820, 1163.533
388.4810, 1421.394
389.6800, 1309.261
390.8780, 1378.134
392.0770, 1387.011
393.2750, 1355.895
394.4730, 1342.784
395.6710, 1212.678
396.8690, 1144.578
398.0660, 1007.482
399.2640, 929.3916
400.4610, 769.3062
401.6580, 689.2253
402.8550, 546.1497
404.0520, 447.0781
405.2490, 391.0120
406.4450, 297.9502
407.6410, 247.8928
408.8370, 213.8403
410.0330, 116.7148
411.2290, 138.6709
412.4240, 104.6316
413.6200, 63.59644
414.8150, 27.56543
416.0100, 58.53809
417.2050, 25.51489
418.4000, 56.49561
419.5940, 92.47998
420.7880, 8.468018
421.9830, 50.45996
423.1770, 38.45532
424.3700, 37.45386
425.5640, 27.45654
426.7580, 32.46240
427.9510, 23.47119
429.1440, 56.48315
430.3370, 56.49805
431.5300, 48.51636
432.7220, 8.537598
433.9150, 11.43848
435.1070, 4.588135
436.2990, 58.61792
437.4910, 57.65039
438.6830, 7.313232
439.8750, 7.273926
441.0660, 43.23071
442.2570, 4.815918
443.4480, 5.881348
444.6390, 49.02808
445.8300, 7.838379
447.0210, 17.41382
448.2110, 17.74976
449.4010, 11.91870
450.5910, 12.29175
451.7810, 4.099121
452.9710, 23.91504
454.1610, 14.29004
455.3500, 26.01953
456.5390, 26.94824
457.7280, 172.3298
458.9170, 119.2817
460.1060, 120.8660
461.2940, 0.8059080
462.4830, 144.0986
463.6710, 224.6013
464.8590, 246.9460
466.0470, 36.36621
467.2350, 127.3513
468.4220, 96.92896
469.6090, 65.75049
470.7970, 198.3542
471.9840, 22.40527
473.1700, 152.1611
474.3570, 159.5886
475.5440, 66.55005
476.7300, 64.93311
477.9160, 144.6548
479.1020, 49.03687
480.2880, 50.56177
481.4740, 29.05737
482.6590, 19.34814
483.8440, 8.673340
485.0300, 15.03418
486.2140, 60.39380
487.3990, 97.75195
488.5840, 10.10889
489.7680, 1.464600
490.9530, 30.81836
492.1370, 128.1704
493.3210, 110.5208
494.5040, 30.86890
495.6880, 139.2219
496.8720, 72.57910
498.0550, 78.93457
499.2380, 109.2878
500.4210, 43.63843
501.6040, 75.98633
502.7860, 78.33154
503.9690, 90.67432
505.1510, 141.0137
506.3330, 122.3503
507.5150, 199.6836
508.6970, 149.0139
509.8780, 201.3408
511.0600, 185.6643
512.2410, 168.9844
513.4220, 203.3008
514.6030, 144.6133
515.7840, 209.9221
516.9640, 201.2271
518.1440, 172.5278
519.3250, 173.8245
520.5050, 200.1169
521.6850, 211.4050
522.8640, 280.6890
524.0440, 226.9683
525.2230, 240.2427
526.4020, 196.5127
527.5820, 288.7781
528.7600, 368.0383
529.9390, 390.2937
531.1180, 347.5439
532.2960, 289.7896
533.4740, 363.0295
534.6520, 312.2642
535.8300, 334.4937
537.0080, 296.7170
538.1850, 218.9351
539.3630, 254.1475
540.5400, 295.3545
541.7170, 300.5552
542.8940, 257.7505
544.0700, 281.9390
545.2470, 274.1218
546.4230, 315.2983
547.5990, 285.4690
548.7750, 265.6331
549.9510, 372.7908
551.1270, 281.9419
552.3020, 234.0867
553.4780, 395.2246
554.6530, 311.3560
555.8280, 331.4802
557.0030, 374.5979
558.1770, 342.7087
559.3520, 300.8123
560.5260, 355.9089
561.7000, 227.9980
562.8740, 281.0798
564.0480, 257.1545
565.2220, 196.2219
566.3950, 322.3662
567.5680, 243.4182
568.7420, 119.4626
569.9150, 192.4993
571.0870, 190.5278
572.2600, 216.6316
573.4320, 120.6443
574.6050, 105.6492
575.7770, 99.62256
576.9490, 193.7510
578.1210, 67.76196
579.2920, 81.00537
580.4640, 126.1023
581.6350, 47.34277
582.8060, 65.55737
583.9770, 59.24438
585.1480, 100.5671
586.3190, 33.42407
587.4890, 17.45093
588.6590, 93.57983
589.8290, 111.8010
590.9990, 33.30322
592.1690, 17.60938
593.3390, 21.73901
594.5080, 49.86499
595.6770, 33.99512
596.8470, 4.295410
598.0160, 2.933350
599.1840, 16.46460
600.3530, 36.76123
601.5210, 42.10107
602.6900, 14.64453
603.8580, 74.72729
605.0260, 57.29761
606.1930, 64.68945
607.3610, 27.99927
608.5280, 76.65796
609.6960, 29.87500
610.8630, 61.40063
612.0300, 31.96606
613.1970, 87.42383
614.3630, 81.60962
615.5300, 114.0374
616.6960, 152.1538
617.8620, 59.55298
619.0280, 149.9346
620.1940, 77.30176
621.3590, 122.6531
622.5250, 113.5286
623.6900, 122.0217
624.8550, 121.7356
626.0200, 150.0291
627.1850, 160.9897
628.3490, 195.5723
629.5140, 194.8225
630.6780, 211.0569
631.8420, 215.2776
633.0060, 230.4836
634.1700, 253.6753
635.3330, 286.8523
636.4970, 288.4268
637.6600, 317.1621
638.8230, 310.2949
639.9860, 334.4133
641.1490, 371.5166
642.3110, 430.6055
643.4740, 512.6794
644.6360, 570.7388
645.7980, 687.7832
646.9600, 675.8130
648.1220, 757.8281
649.2840, 899.8286
650.4450, 999.8140
651.6060, 1108.785
652.7670, 1286.741
653.9280, 1477.683
655.0890, 1780.267
656.2500, 2142.758
657.4100, 2445.151
658.5700, 2785.897
659.7300, 3165.463
660.8900, 3438.023
662.0500, 3867.862
663.2100, 4160.472
664.3690, 4365.679
665.5280, 4434.469
666.6880, 4408.069
667.8460, 4215.835
669.0050, 3918.587
670.1640, 3480.324
671.3220, 3025.046
672.4810, 2651.754
673.6390, 2245.448
674.7970, 1973.127
675.9540, 1711.792
677.1120, 1429.442
678.2690, 1279.078
679.4270, 1096.700
680.5840, 845.3066
681.7410, 783.8999
682.8980, 697.4790
684.0540, 578.0437
685.2110, 524.5942
686.3670, 434.1311
687.5230, 418.6541
688.6790, 417.1626
689.8350, 311.6575
690.9900, 248.1379
692.1460, 165.6050
693.3010, 233.0581
694.4560, 172.4976
695.6110, 170.9231
696.7660, 194.3347
697.9210, 123.7329
699.0750, 193.1177
700.2290, 149.4885
701.3840, 161.8462
702.5370, 179.1904
703.6910, 114.5210
704.8450, 57.83838
705.9980, 147.1418
707.1520, 86.43188
708.3050, 115.7087
709.4580, 89.97290
710.6110, 54.22363
711.7630, 81.46045
712.9160, 99.68457
714.0680, 37.89575
715.2200, 41.09351
716.3720, 62.27661
717.5240, 30.44678
718.6760, 30.92773
719.8270, 23.74219
720.9780, 4.133545
722.1300, 37.03076
723.2810, 63.62573
724.4310, 84.81909
725.5820, 62.11597
726.7330, 84.52490
727.8830, 16.71240
729.0330, 37.79883
730.1830, 35.39185
731.3330, 65.31323
732.4830, 34.27563
733.6320, 90.82251
734.7810, 49.23755
735.9310, 49.08838
737.0800, 11.52271
738.2290, 28.85156
739.3770, 11.02905
740.5260, 34.86108
741.6740, 28.71802
742.8220, 21.41846
743.9700, 67.27734
745.1180, 3.157227
746.2660, 7.146240
747.4130, 23.68506
748.5610, 7.721191
749.7080, 3.254883
750.8550, 53.55737
752.0020, 25.30396
753.1490, 65.77930
754.2950, 42.03931
755.4420, 79.10986
756.5880, 76.91162
757.7340, 32.04565
758.8800, 111.0295
760.0250, 116.1492
761.1710, 135.2678
762.3160, 93.38257
763.4620, 184.4910
764.6070, 164.5928
765.7520, 284.6887
766.8960, 225.7783
768.0410, 224.8621
769.1850, 238.9404
770.3300, 198.0129
771.4740, 212.0798
772.6180, 178.1416
773.7610, 283.1978
774.9050, 286.2493
776.0480, 253.2957
777.1920, 182.3372
778.3350, 266.3743
779.4780, 269.4067
780.6200, 189.4348
781.7630, 219.4585
782.9060, 248.4780
784.0480, 207.4941
785.1900, 249.5063
786.3320, 256.5151
787.4740, 180.5205
788.6150, 177.5229
789.7570, 219.5225
790.8980, 132.5190
792.0390, 239.5132
793.1800, 150.5046
794.3210, 101.4939
795.4620, 109.4807
796.6020, 148.4656
797.7420, 113.4487
798.8830, 171.4299
800.0230, 87.40967
801.1620, 108.3884
802.3020, 145.3652
803.4420, 129.3418
804.5810, 109.3169
805.7200, 136.2915
806.8590, 121.2654
807.9980, 70.23877
809.1370, 196.2119
810.2750, 141.1851
811.4140, 206.1580
812.5520, 156.1313
813.6900, 138.1047
814.8280, 172.0786
815.9650, 196.0530
817.1030, 232.0281
818.2400, 149.0044
819.3780, 195.9817
820.5150, 142.9600
821.6520, 158.9399
822.7880, 175.9209
823.9250, 112.9043
825.0610, 152.8887
826.1980, 191.8760
827.3340, 198.8647
828.4700, 119.0962
829.6050, 155.5542
830.7410, 174.4126
831.8760, 176.6152
833.0120, 112.2764
834.1470, 133.8706
835.2820, 121.0293
836.4160, 106.7788
837.5510, 140.4766
838.6860, 85.83252
839.8200, 118.7769
840.9540, 116.7612
842.0880, 101.8989
843.2220, 89.93408
844.3550, 119.9731
845.4890, 106.7734
846.6220, 63.06494
847.7550, 124.0361
848.8880, 111.0942
850.0210, 149.1582
851.1540, 171.0430
852.2860, 219.9771
853.4190, 238.0259
854.5510, 275.8403
855.6830, 238.6851
856.8150, 272.3838
857.9460, 324.7793
859.0780, 414.1401
860.2090, 394.8633
861.3410, 354.2900
862.4720, 378.1768
863.6020, 269.6968
864.7330, 289.5122
865.8640, 309.0444
866.9940, 261.7700
868.1240, 192.6680
869.2540, 212.5654
870.3840, 200.9619
871.5140, 199.1768
872.6440, 202.4155
873.7730, 189.0190
874.9020, 188.6392
876.0320, 216.3525
877.1600, 187.7788
878.2890, 152.6626
879.4180, 174.0581
880.5460, 152.6294
881.6750, 202.2910
882.8030, 174.5986
883.9310, 184.0986
885.0590, 163.7710
886.1860, 156.1519
887.3140, 144.6367
888.4410, 94.41504
889.5680, 96.96680
890.6950, 149.8418
891.8220, 91.44971
892.9490, 201.0918
894.0750, 103.7480
895.2020, 181.4214
896.3280, 144.1099
897.4540, 122.8135
898.5800, 160.5483
899.7050, 140.3262
900.8310, 94.12012
901.9560, 133.9292
903.0820, 128.7544
904.2070, 60.33350
905.3320, 106.0186
906.4560, 134.1084
907.5810, 145.5649
908.7050, 90.48193
909.8300, 121.3550
910.9540, 117.7983
912.0780, 112.8467
913.2010, 155.8442
914.3250, 110.5205
915.4480, 152.7910
916.5720, 160.1250
917.6950, 183.4736
918.8180, 172.2021
919.9410, 171.6489
921.0630, 205.7979
922.1860, 220.7798
923.3080, 205.6182
924.4300, 230.1284
925.5520, 183.8037
926.6740, 199.6689
927.7960, 242.3774
928.9170, 229.0474
930.0390, 254.2900
931.1600, 134.2769
932.2810, 144.6099
933.4020, 176.9600
934.5230, 203.3271
935.6430, 156.7119
936.7640, 242.1191
937.8840, 211.5552
939.0040, 203.0098
940.1240, 241.4819
941.2440, 152.9712
942.3630, 100.4780
943.4830, 202.0024
944.6020, 237.5454
945.7210, 163.1060
946.8400, 164.6841
947.9590, 208.2803
949.0770, 195.8940
950.1960, 276.5259
951.3140, 284.1748
952.4320, 238.8418
953.5500, 287.5352
954.6680, 250.2466
955.7860, 270.9829
956.9030, 249.7373
958.0210, 242.5093
959.1380, 205.2988
960.2550, 322.1064
961.3720, 311.9365
962.4890, 293.7852
963.6050, 309.6523
964.7220, 307.0361
965.8380, 269.4409
966.9540, 330.3770
968.0700, 293.3306
969.1860, 311.3027
970.3010, 404.2925
971.4170, 435.2998
972.5320, 466.3281
973.6470, 404.3750
974.7620, 486.4419
975.8770, 418.5283
976.9910, 480.6338
978.1060, 502.7568
979.2200, 565.9009
980.3340, 595.0630
981.4480, 656.2422
982.5620, 601.4443
983.6760, 670.6709
984.7890, 725.9141
985.9030, 809.1763
987.0160, 827.4575
988.1290, 853.7568
989.2420, 947.0752
990.3550, 976.4136
991.4670, 1160.773
992.5800, 1171.160
993.6920, 1441.581
994.8040, 1526.042
995.9160, 1729.551
997.0280, 1904.100
998.1390, 2121.694
999.2510, 2366.893
1000.362, 2660.979
1001.473, 2935.670
1002.584, 3263.402
1003.695, 3656.293
1004.805, 3852.104
1005.916, 4190.931
1007.026, 4488.981
1008.136, 4679.850
1009.246, 4687.735
1010.356, 4730.640
1011.466, 4647.603
1012.576, 4319.567
1013.685, 3812.557
1014.794, 3390.508
1015.903, 2904.555
1017.012, 2594.952
1018.121, 2215.042
1019.229, 1980.151
1020.338, 1731.163
1021.446, 1498.669
1022.554, 1340.376
1023.662, 1166.267
1024.770, 981.9346
1025.878, 992.2339
1026.985, 913.4775
1028.092, 774.0312
1029.200, 817.3022
1030.307, 788.5879
1031.413, 776.6357
1032.520, 731.4570
1033.627, 719.9341
1034.733, 686.2715
1035.839, 678.6216
1036.945, 680.9844
1038.051, 707.3594
1039.157, 698.7466
1040.262, 722.1465
1041.368, 706.5586
1042.473, 654.0366
1043.578, 675.4722
1044.683, 777.9199
1045.788, 577.3789
1046.893, 715.8491
1047.997, 508.3315
1049.101, 486.8281
1050.205, 531.0112
1051.309, 550.2158
1052.413, 514.7427
1053.517, 529.9067
1054.621, 473.7974
1055.724, 470.8169
1056.827, 362.4033
1057.930, 286.9805
1059.033, 244.5674
1060.136, 288.1641
1061.238, 245.9873
1062.341, 243.6025
1063.443, 234.0176
1064.545, 232.6406
1065.647, 174.2817
1066.749, 219.9785
1067.850, 143.6357
1068.952, 151.4331
1070.053, 230.6987
1071.154, 179.5742
1072.255, 247.2637
1073.356, 283.9609
1074.457, 115.6650
1075.557, 216.3774
1076.658, 191.3540
1077.758, 228.7090
1078.858, 248.4678
1079.958, 251.6353
1081.057, 188.2051
1082.157, 210.7178
1083.256, 198.7939
1084.356, 185.4644
1085.455, 222.0815
1086.554, 168.3633
1087.653, 203.8418
1088.751, 202.7578
1089.850, 217.6812
1090.948, 197.9595
1092.046, 188.9458
1093.144, 215.5571
1094.242, 222.2837
1095.340, 198.5942
1096.437, 214.5669
1097.534, 159.7905
1098.632, 170.5396
1099.729, 204.6729
1100.826, 182.7471
1101.922, 199.3745
1103.019, 201.3232
1104.115, 137.1606
1105.212, 188.4463
1106.308, 190.2295
1107.404, 140.0942
1108.499, 187.3979
1109.595, 144.0786
1110.691, 133.8281
1111.786, 147.2061
1112.881, 135.2104
1113.976, 164.0664
1115.071, 154.9473
1116.166, 139.8291
1117.260, 185.7119
1118.355, 145.7080
1119.449, 159.5938
1120.543, 177.5483
1121.637, 97.48828
1122.731, 194.7358
1123.824, 302.0029
1124.918, 112.8936
1126.011, 115.7847
1127.104, 172.6753
1128.197, 96.65039
1129.290, 30.54102
1130.382, 142.1846
1131.475, 134.0732
1132.567, 134.9619
1133.659, 162.8491
1134.751, 6.265625
1135.843, 40.61768
1136.935, 3.498047
1138.027, 8.624023
1139.118, 62.25049
1140.209, 35.12207
1141.300, 15.99170
1142.391, 0.1943360
1143.482, 59.67041
1144.573, 9.531738
1145.663, 42.60986
1146.754, 38.31152
1147.844, 9.695801
1148.934, 145.1309
1150.024, 38.56152
1151.113, 14.40039
1152.203, 90.78467
1153.292, 63.01953
1154.381, 49.12549
1155.470, 60.42041
1156.559, 69.61816
1157.648, 112.0132
1158.737, 5.360352
1159.825, 19.25781
1160.913, 24.87061
1162.001, 61.52148
1163.089, 104.9097
1164.177, 0.4013670
1165.265, 13.09912
1166.352, 61.59326
1167.440, 43.08252
1168.527, 77.82715
1169.614, 59.80713
1170.701, 102.5654
1171.788, 32.03076
1172.874, 4.490234
1173.961, 18.94141
1175.047, 119.3867
1176.133, 65.82520
1177.219, 45.25732
1178.305, 16.68213
1179.390, 11.10059
1180.476, 19.47559
1181.561, 35.08594
1182.646, 25.27197
1183.731, 114.2197
1184.816, 25.05811
1185.901, 17.67139
1186.985, 16.61377
1188.070, 77.85303
1189.154, 61.08496
1190.238, 94.30908
1191.322, 39.47412
1192.406, 30.70605
1193.489, 21.87842
1194.573, 14.95703
1195.656, 67.18311
1196.739, 20.32129
1197.822, 84.45117
1198.905, 3.427246
1199.988, 26.32422
1201.070, 15.74707
1202.153, 88.81396
1203.235, 50.87256
1204.317, 69.98438
1205.399, 80.02588
1206.481, 17.05859
1207.562, 86.07959
1208.644, 111.0923
1209.725, 30.09668
1210.806, 96.09131
1211.887, 45.14014
1212.968, 75.11670
1214.049, 97.08350
1215.129, 11.95850
1216.209, 97.97314
1217.290, 5.104492
1218.370, 73.79346
1219.450, 53.68262
1220.529, 99.56152
1221.609, 96.43213
1222.688, 7.292480
1223.768, 26.13428
1224.847, 107.9639
1225.926, 146.8208
1227.005, 37.65381
1228.083, 31.54736
1229.162, 90.21289
1230.240, 122.9629
1231.318, 156.7021
1232.396, 115.4326
1233.474, 19.15234
1234.552, 60.85645
1235.629, 17.55127
1236.707, 31.26221
1237.784, 97.92676
1238.861, 139.5815
1239.938, 18.22607
1241.015, 81.85449
1242.092, 135.4717
1243.168, 16.07861
1244.244, 4.667480
1245.321, 102.2329
1246.397, 95.78906
1247.473, 49.37646
1248.548, 133.9106
1249.624, 59.43408
1250.699, 63.94629
1251.775, 34.44727
1252.850, 33.93457
1253.925, 97.40820
1254.999, 102.8706
1256.074, 105.3291
1257.148, 59.77002
1258.223, 82.20020
1259.297, 22.61914
1260.371, 101.0205
1261.445, 91.41113
1262.519, 93.80273
1263.592, 107.1714
1264.666, 111.4121
1265.739, 108.4390
1266.812, 229.1157
1267.885, 99.24414
1268.958, 153.5693
1270.030, 155.0884
1271.103, 19.38281
1272.175, 120.6401
1273.247, 104.9141
1274.319, 105.2188
1275.391, 66.54785
1276.463, 54.78809
1277.535, 93.68604
1278.606, 141.9062
1279.677, 4.115723
1280.748, 94.30078
1281.819, 129.2407
1282.890, 48.33691
1283.961, 156.1772
1285.031, 46.87793
1286.102, 176.3979
1287.172, 86.53076
1288.242, 127.3574
1289.312, 153.4829
1290.381, 177.5869
1291.451, 60.93115
1292.520, 189.5063
1293.590, 138.4292
1294.659, 85.49512
1295.728, 172.5527
1296.797, 91.61377
1297.865, 54.65283
1298.934, 148.6821
1300.002, 155.7017
1301.070, 105.7114
1302.138, 216.6567
1303.206, 192.6455
1304.274, 110.6240
1305.341, 69.59326
1306.409, 151.5493
1307.476, 77.49805
1308.543, 66.43408
1309.610, 145.8096
1310.677, 130.0420
1311.744, 32.95605
1312.810, 71.14453
1313.877, 93.04248
1314.943, 49.21875
1316.009, 168.0835
1317.075, 103.9575
1318.140, 105.8252
1319.206, 68.68555
1320.272, 199.3203
1321.337, 127.1660
1322.402, 139.9775
1323.467, 203.0532
1324.532, 153.3027
1325.596, 88.07227
1326.661, 119.0073
1327.725, 90.82275
1328.790, 69.39355
1329.854, 87.98291
1330.918, 82.76611
1331.981, 40.54248
1333.045, 132.3125
1334.108, 69.07617
1335.172, 141.6904
1336.235, 118.4414
1337.298, 102.2681
1338.361, 187.9473
1339.423, 40.75830
1340.486, 136.4800
1341.548, 138.2007
1342.611, 134.9160
1343.673, 59.77539
1344.735, 105.4795
1345.796, 85.57129
1346.858, 168.2646
1347.919, 107.9536
1348.981, 118.1216
1350.042, 100.3979
1351.103, 57.11279
1352.164, 117.5190
1353.225, 44.22510
1354.285, 47.88184
1355.346, 138.4331
1356.406, 189.6318
1357.466, 54.27490
1358.526, 130.9106
1359.586, 117.5381
1360.645, 123.2285
1361.705, 134.3076
1362.764, 122.8486
1363.823, 41.85254
1364.882, 127.1792
1365.941, 75.77783
1367.000, 107.3735
1368.059, 135.2471
1369.117, 111.8354
1370.175, 184.4199
1371.233, 82.15967
1372.291, 187.3296
1373.349, 145.9043
1374.407, 37.48779
1375.464, 61.03027
1376.522, 93.59570
1377.579, 116.0903
1378.636, 121.2700
1379.693, 55.78418
1380.750, 91.94580
1381.806, 123.4668
1382.863, 45.98438
1383.919, 126.5557
1384.975, 128.9824
1386.031, 65.49023
1387.087, 148.2412
1388.143, 154.7437
1389.199, 44.24170
1390.254, 109.7363
1391.309, 103.4111
1392.364, 121.9009
1393.419, 128.4619
1394.474, 89.94727
1395.529, 89.43213
1396.583, 24.91504
1397.638, 25.39355
1398.692, 132.9233
1399.746, 131.4966
1400.800, 37.96973
1401.853, 143.4409
1402.907, 148.8350
1403.960, 167.1528
1405.014, 172.5171
1406.067, 176.6470
1407.120, 96.50684
1408.173, 85.98047
1409.225, 5.046387
1410.278, 2.894531
1411.330, 154.8218
1412.383, 4.832031
1413.435, 57.65967
1414.487, 76.14893
1415.538, 46.63818
1416.590, 158.1211
1417.641, 78.60156
1418.693, 124.0532
1419.744, 146.5498
1420.795, 105.0410
1421.846, 187.4897
1422.897, 47.10107
1423.947, 108.4277
1424.998, 204.8472
1426.048, 61.11963
1427.098, 128.3555
1428.148, 127.5718
1429.198, 127.6885
1430.247, 152.7544
1431.297, 110.9043
1432.346, 126.7124
1433.396, 142.2217
1434.445, 75.71680
1435.494, 20.08594
1436.542, 77.67480
1437.591, 84.23486
1438.639, 162.8271
1439.688, 154.7764
1440.736, 188.7715
1441.784, 127.6523
1442.832, 165.2554
1443.880, 97.87695
1444.927, 120.5591
1445.975, 94.03857
1447.022, 128.6479
1448.069, 139.2529
1449.116, 96.78027
1450.163, 20.62305
1451.209, 125.9790
1452.256, 21.59619
1453.302, 258.2178
1454.348, 88.83740
1455.394, 21.53418
1456.440, 208.0200
1457.486, 158.6655
1458.532, 83.32812
1459.577, 99.98926
1460.623, 27.65625
1461.668, 98.29004
1462.713, 33.96777
1463.758, 115.6553
1464.802, 35.34912
1465.847, 96.06641
1466.891, 121.7261
1467.936, 191.4473
1468.980, 21.17432
1470.024, 128.9121
1471.067, 61.64404
1472.111, 100.3896
1473.155, 71.14990
1474.198, 36.89844
1475.241, 104.6401
1476.284, 133.3862
1477.327, 138.9819
1478.370, 47.58936
1479.413, 62.29199
1480.455, 91.06836
1481.497, 130.8511
1482.540, 157.6479
1483.582, 91.67480
1484.624, 166.7988
1485.665, 42.79590
1486.707, 44.54590
1487.748, 134.3242
1488.790, 52.10938
1489.831, 57.90186
1490.872, 132.6772
1491.912, 94.48730
1492.953, 101.3140
1493.994, 65.16113
1495.034, 73.92578
1496.074, 64.91895
1497.114, 75.56250
1498.154, 91.46729
1499.194, 62.38135
1500.234, 45.30371
1501.273, 73.23486
1502.313, 85.17432
1503.352, 135.1309
1504.391, 127.7217
1505.430, 152.3276
1506.468, 113.5381
1507.507, 132.8564
1508.545, 51.23145
1509.584, 154.8057
1510.622, 80.43848
1511.660, 106.0752
1512.698, 87.92627
1513.735, 148.3564
1514.773, 160.2002
1515.810, 24.20752
1516.848, 151.6313
1517.885, 52.33594
1518.922, 174.1812
1519.958, 159.0239
1520.995, 91.89990
1522.032, 161.3296
1523.068, 189.0972
1524.104, 49.94287
1525.140, 107.8403
1526.176, 135.7344
1527.212, 152.6274
1528.248, 122.4619
1529.283, 10.95068
1530.318, 124.8008
1531.353, 75.78320
1532.389, 186.9355
1533.423, 22.18750
1534.458, 182.0166
1535.493, 118.0825
1536.527, 282.1787
1537.561, 114.3237
1538.596, 119.8779
1539.630, 145.3921
1540.663, 89.10010
1541.697, 90.44678
1542.731, 155.6938
1543.764, 130.6519
1544.797, 78.04443
1545.830, 32.04199
1546.863, 8.520020
1547.896, 131.7983
1548.929, 12.94385
1549.961, 68.47607
1550.994, 167.5312
1552.026, 19.65430
1553.058, 46.16260
1554.090, 75.75537
1555.121, 0.2797850
1556.153, 0.0000000E+00
##END=



