##NAMES=Augite
##RRUFFID=R061086
##IDEAL CHEMISTRY=(Ca,Mg,Fe^2+^,Fe^3+^)_2_(Si,Al)_2_O_6_
##LOCALITY=Boreslav, Teplitz, Bohemia, Czech Republic
##OWNER=RRUFF
##SOURCE=Michael Scott
##DESCRIPTION=Black to dark green tabular euhedral crystal
##STATUS=The identification of this mineral has been confirmed by X-ray diffraction and chemical analysis
##URL=rruff.info/R061086
##MEASURED CHEMISTRY=(Ca_0.88_Mg_0.83_Fe_0.13_Al_0.08_Na_0.04_Ti_0.03_Cr_0.01_)_Σ=2_(Si_1.89_Al_0.11_)_Σ=2_O_6_
##PIN_ID=M00351
##ORIENTATION=Laser parallel to (1 0 1). Fiducial mark perpendicular to laser is parallel to b [0 1 0]
226.3290, 0.0000000E+00
227.5550, 1.392578
228.7810, 77.93164
230.0060, 45.80859
231.2310, 282.5098
232.4560, 313.4727
233.6810, 164.6992
234.9050, 213.9492
236.1290, 199.7734
237.3540, 205.1152
238.5770, 180.0293
239.8010, 221.6055
241.0250, 319.0391
242.2480, 250.0723
243.4710, 343.7344
244.6940, 258.1504
245.9170, 449.9434
247.1400, 433.8008
248.3620, 485.7656
249.5840, 523.5547
250.8060, 349.5293
252.0280, 191.2500
253.2500, 330.2422
254.4710, 235.1719
255.6920, 360.9688
256.9140, 370.6914
258.1340, 518.6426
259.3550, 443.7129
260.5760, 398.9336
261.7960, 292.7793
263.0160, 188.5547
264.2360, 100.6660
265.4560, 1.378906
266.6750, 13.11523
267.8940, 32.70703
269.1140, 110.1680
270.3330, 80.49023
271.5510, 10.26367
272.7700, 37.14258
273.9880, 57.87891
275.2070, 67.19141
276.4250, 69.34375
277.6420, 34.59375
278.8600, 160.9316
280.0770, 60.34180
281.2950, 162.8242
282.5120, 182.8457
283.7290, 387.1719
284.9450, 271.0430
286.1620, 336.0117
287.3780, 422.1250
288.5940, 270.3555
289.8100, 390.6914
291.0260, 453.1250
292.2410, 408.6543
293.4570, 656.2676
294.6720, 763.9785
295.8870, 1025.758
297.1010, 934.6016
298.3160, 996.5039
299.5300, 1059.455
300.7450, 1116.549
301.9590, 1206.375
303.1730, 1359.359
304.3860, 1534.365
305.6000, 1719.391
306.8130, 1817.438
308.0260, 2084.504
309.2390, 2208.590
310.4510, 2452.691
311.6640, 2867.807
312.8760, 3434.938
314.0880, 3466.082
315.3000, 3953.238
316.5120, 4036.412
317.7240, 4490.600
318.9350, 4633.801
320.1460, 5177.002
321.3570, 4939.137
322.5680, 5351.293
323.7790, 5573.438
324.9890, 5647.596
326.1990, 5797.773
327.4090, 5519.123
328.6190, 5230.174
329.8290, 5070.463
331.0380, 4995.703
332.2480, 4529.969
333.4570, 4475.250
334.6660, 3944.562
335.8740, 3888.967
337.0830, 3645.732
338.2910, 3455.891
339.5000, 3320.020
340.7080, 3036.070
341.9150, 2927.514
343.1230, 2753.787
344.3300, 2684.271
345.5380, 2458.988
346.7450, 2480.025
347.9520, 2570.213
349.1580, 2320.658
350.3650, 2623.586
351.5710, 2510.770
352.7770, 2353.762
353.9830, 2400.977
355.1890, 2290.502
356.3940, 2141.494
357.6000, 2216.611
358.8050, 2011.600
360.0100, 1966.570
361.2150, 2149.654
362.4190, 1969.627
363.6240, 1936.502
364.8280, 1981.348
366.0320, 1837.166
367.2360, 2017.949
368.4400, 2028.703
369.6430, 1861.422
370.8460, 1921.111
372.0500, 1929.611
373.2530, 2081.195
374.4550, 2355.850
375.6580, 2344.520
376.8600, 2746.328
378.0620, 2983.186
379.2650, 3126.074
380.4660, 3277.990
381.6680, 3612.936
382.8690, 3995.887
384.0710, 4265.838
385.2720, 4390.797
386.4730, 4765.760
387.6730, 5002.730
388.8740, 5091.713
390.0740, 5442.709
391.2740, 5318.709
392.4740, 5348.670
393.6740, 5253.490
394.8740, 4918.332
396.0730, 4216.143
397.2730, 4044.975
398.4720, 3562.826
399.6700, 2891.697
400.8690, 2591.584
402.0680, 2257.486
403.2660, 2018.404
404.4640, 1737.234
405.6620, 1520.438
406.8600, 1223.232
408.0570, 1106.195
409.2550, 833.1660
410.4520, 580.0742
411.6490, 386.6465
412.8460, 396.4863
414.0430, 372.0020
415.2390, 459.0059
416.4350, 418.0117
417.6310, 519.0215
418.8270, 405.9863
420.0230, 259.0020
421.2190, 185.0156
422.4140, 246.0332
423.6090, 257.0488
424.8040, 190.0645
425.9990, 47.08008
427.1940, 91.09375
428.3880, 109.1016
429.5820, 18.89258
430.7760, 96.10742
431.9700, 69.06250
433.1640, 231.6445
434.3580, 326.8281
435.5510, 358.4883
436.7440, 135.2070
437.9370, 240.1523
439.1300, 214.0098
440.3230, 183.0137
441.5150, 335.0449
442.7070, 148.7598
443.8990, 309.5781
445.0910, 328.2324
446.2830, 76.66016
447.4750, 57.37109
448.6660, 46.70703
449.8570, 21.26172
451.0480, 8.523438
452.2390, 27.19141
453.4290, 29.03711
454.6200, 72.69141
455.8100, 300.8301
457.0000, 276.2617
458.1900, 330.4707
459.3800, 402.1191
460.5690, 440.2188
461.7590, 367.7441
462.9480, 347.0293
464.1370, 93.69141
465.3260, 131.6191
466.5140, 204.2383
467.7030, 26.44141
468.8910, 180.9004
470.0790, 209.8672
471.2670, 362.0234
472.4550, 445.6367
473.6420, 464.8066
474.8300, 229.3223
476.0170, 321.9355
477.2040, 283.0742
478.3900, 237.4531
479.5770, 375.8828
480.7640, 176.2695
481.9500, 310.3809
483.1360, 311.3711
484.3220, 372.9902
485.5080, 304.0234
486.6930, 274.9785
487.8780, 376.7695
489.0640, 405.8789
490.2490, 319.8906
491.4330, 384.5117
492.6180, 178.5332
493.8030, 189.7109
494.9870, 299.1484
496.1710, 357.5469
497.3550, 460.9004
498.5390, 651.2148
499.7220, 562.4863
500.9060, 835.7168
502.0890, 739.9062
503.2720, 819.0527
504.4550, 734.1543
505.6370, 1017.213
506.8200, 964.2305
508.0020, 949.2051
509.1840, 892.1367
510.3660, 1117.027
511.5480, 1130.875
512.7290, 1219.680
513.9110, 1184.441
515.0920, 1145.162
516.2730, 1172.848
517.4540, 1012.496
518.6350, 1131.105
519.8150, 806.6758
520.9960, 872.2051
522.1760, 846.6934
523.3560, 916.1426
524.5350, 924.4355
525.7150, 1073.910
526.8950, 958.2324
528.0740, 1015.510
529.2530, 1033.746
530.4320, 957.9395
531.6100, 987.0879
532.7890, 1056.193
533.9670, 988.7266
535.1460, 834.2734
536.3240, 929.2461
537.5010, 921.1758
538.6790, 894.0605
539.8570, 1005.900
541.0340, 868.6953
542.2110, 940.4453
543.3880, 796.1484
544.5650, 826.8066
545.7410, 833.4180
546.9180, 962.9824
548.0940, 924.5000
549.2700, 881.9707
550.4460, 981.3926
551.6210, 1322.768
552.7970, 1125.094
553.9720, 1342.377
555.1480, 1209.613
556.3230, 1216.824
557.4970, 1090.986
558.6720, 918.0996
559.8460, 1286.162
561.0210, 864.1855
562.1950, 893.1855
563.3690, 1177.109
564.5420, 1091.977
565.7160, 972.7969
566.8890, 893.6465
568.0630, 769.3047
569.2360, 645.9688
570.4090, 536.5840
571.5810, 433.5449
572.7540, 502.0527
573.9260, 205.5762
575.0980, 248.2090
576.2700, 226.5449
577.4420, 480.0547
578.6140, 400.2773
579.7850, 298.1367
580.9560, 172.2715
582.1270, 178.9297
583.2980, 406.7598
584.4690, 127.8945
585.6400, 10.39844
586.8100, 72.07227
587.9800, 143.4473
589.1500, 92.26953
590.3200, 15.18164
591.4900, 76.53516
592.6590, 50.85938
593.8290, 35.27148
594.9980, 173.1641
596.1670, 138.5059
597.3360, 65.57227
598.5040, 90.13477
599.6730, 76.97070
600.8410, 113.6387
602.0090, 155.2773
603.1770, 5.066406
604.3450, 210.5156
605.5130, 191.6289
606.6800, 147.0586
607.8470, 85.46289
609.0140, 90.61719
610.1810, 88.24805
611.3480, 78.49805
612.5140, 116.5801
613.6810, 147.8535
614.8470, 172.8105
616.0130, 173.4336
617.1790, 169.1562
618.3440, 302.7910
619.5100, 188.1699
620.6750, 249.6680
621.8400, 381.6055
623.0050, 278.9355
624.1700, 380.1934
625.3350, 159.3789
626.4990, 225.4785
627.6640, 527.3965
628.8280, 371.3555
629.9920, 342.2422
631.1550, 586.0547
632.3190, 585.8047
633.4820, 810.9375
634.6460, 690.0430
635.8090, 842.5312
636.9710, 770.0234
638.1340, 689.4531
639.2970, 796.8145
640.4590, 1072.113
641.6210, 1217.350
642.7830, 1241.523
643.9450, 1525.629
645.1070, 1644.674
646.2680, 1842.654
647.4300, 1966.574
648.5910, 2391.430
649.7520, 2633.223
650.9130, 3016.949
652.0730, 3340.617
653.2340, 3841.629
654.3940, 4301.760
655.5540, 4966.242
656.7140, 5638.828
657.8740, 6542.014
659.0330, 7189.307
660.1930, 8117.539
661.3520, 8965.707
662.5110, 9182.820
663.6700, 9664.867
664.8290, 9950.855
665.9870, 9819.781
667.1460, 9326.646
668.3040, 9204.453
669.4620, 8322.195
670.6200, 7595.883
671.7770, 6770.508
672.9350, 6034.070
674.0920, 5287.438
675.2500, 4144.025
676.4070, 3883.412
677.5630, 3151.738
678.7200, 2599.010
679.8770, 2370.219
681.0330, 2032.373
682.1890, 1788.465
683.3450, 1622.502
684.5010, 1937.479
685.6560, 1321.400
686.8120, 1361.266
687.9670, 1259.070
689.1220, 901.8184
690.2770, 666.5137
691.4320, 785.1484
692.5870, 574.7305
693.7410, 523.2559
694.8950, 690.7266
696.0490, 463.1387
697.2030, 665.4961
698.3570, 683.7988
699.5110, 661.0488
700.6640, 365.2422
701.8170, 412.3828
702.9700, 446.4688
704.1230, 524.5020
705.2760, 338.4824
706.4290, 341.4062
707.5810, 369.2773
708.7330, 384.0977
709.8850, 349.2324
711.0370, 449.5820
712.1890, 306.2500
713.3400, 274.9707
714.4920, 329.8105
715.6430, 268.5078
716.7940, 358.9629
717.9450, 151.2773
719.0960, 87.10352
720.2460, 162.3398
721.3960, 102.5488
722.5470, 200.6523
723.6970, 160.0586
724.8460, 367.0469
725.9960, 11.94531
727.1460, 130.9082
728.2950, 68.91992
729.4440, 45.36328
730.5930, 111.0234
731.7420, 29.19141
732.8910, 230.5449
734.0390, 274.6992
735.1870, 256.9883
736.3360, 97.41406
737.4840, 117.7090
738.6310, 52.45898
739.7790, 181.1172
740.9260, 93.70703
742.0740, 0.6191410
743.2210, 126.4902
744.3680, 51.95703
745.5150, 86.81445
746.6610, 271.0527
747.8080, 1.308594
748.9540, 124.6777
750.1000, 91.31641
751.2460, 5.578125
752.3920, 42.62109
753.5380, 132.1387
754.6830, 224.6523
755.8280, 189.0820
756.9730, 195.8320
758.1180, 22.55078
759.2630, 190.8984
760.4080, 137.9238
761.5520, 502.4902
762.6960, 362.4766
763.8410, 486.6699
764.9840, 361.7578
766.1280, 563.3125
767.2720, 804.2031
768.4150, 508.9609
769.5590, 475.4824
770.7020, 572.9863
771.8450, 350.4746
772.9870, 525.9473
774.1300, 588.4062
775.2720, 623.8477
776.4150, 547.2734
777.5570, 688.6836
778.6990, 652.0820
779.8400, 679.4609
780.9820, 655.8906
782.1230, 776.1855
783.2650, 481.5273
784.4060, 415.8574
785.5470, 201.1738
786.6870, 346.4844
787.8280, 310.7832
788.9680, 238.0664
790.1090, 303.3457
791.2490, 288.5742
792.3890, 326.6035
793.5280, 364.1250
794.6680, 416.3711
795.8070, 483.6094
796.9470, 503.8418
798.0860, 394.0664
799.2250, 407.3066
800.3630, 333.5039
801.5020, 366.7168
802.6410, 377.9219
803.7790, 496.1250
804.9170, 433.3262
806.0550, 504.5234
807.1930, 599.7188
808.3300, 409.9141
809.4680, 364.1074
810.6050, 200.2988
811.7420, 280.0918
812.8790, 638.6836
814.0160, 493.8770
815.1520, 735.0723
816.2890, 883.2695
817.4250, 592.4707
818.5610, 706.6738
819.6970, 696.8809
820.8330, 597.0898
821.9680, 811.3047
823.1040, 538.5234
824.2390, 588.7461
825.3740, 502.9805
826.5090, 425.2148
827.6440, 494.3105
828.7790, 497.7109
829.9130, 579.9707
831.0470, 691.2363
832.1810, 724.5137
833.3150, 598.7988
834.4490, 577.0938
835.5830, 466.4004
836.7160, 397.6445
837.8500, 471.0117
838.9830, 269.3516
840.1160, 358.7012
841.2480, 346.0625
842.3810, 239.3574
843.5140, 353.6934
844.6460, 276.0938
845.7780, 375.5117
846.9100, 611.9414
848.0420, 372.3887
849.1740, 332.7285
850.3050, 513.9727
851.4360, 267.4746
852.5680, 344.7637
853.6990, 158.3008
854.8290, 300.1699
855.9600, 125.7246
857.0910, 554.7129
858.2210, 541.4902
859.3510, 486.7188
860.4810, 628.9102
861.6110, 389.6719
862.7410, 650.4082
863.8700, 528.6836
865.0000, 546.8066
866.1290, 270.7930
867.2580, 375.7871
868.3870, 435.2266
869.5150, 449.1855
870.6440, 403.5039
871.7720, 584.4688
872.9000, 441.8457
874.0290, 389.4121
875.1560, 452.4453
876.2840, 188.9629
877.4120, 217.2480
878.5390, 169.3398
879.6660, 274.7910
880.7930, 134.3008
881.9200, 209.1191
883.0470, 216.3828
884.1740, 501.7930
885.3000, 341.6738
886.4260, 517.8730
887.5530, 350.8359
888.6780, 241.0762
889.8040, 299.4277
890.9300, 250.8281
892.0550, 319.2793
893.1810, 140.7988
894.3060, 126.3809
895.4310, 192.0527
896.5560, 118.8535
897.6800, 178.4297
898.8050, 218.6426
899.9290, 258.6523
901.0530, 316.6836
902.1770, 384.7539
903.3010, 398.8711
904.4250, 327.0449
905.5480, 52.26172
906.6720, 89.52344
907.7950, 231.8301
908.9180, 414.1777
910.0410, 415.6426
911.1630, 456.1719
912.2860, 574.7520
913.4080, 624.3770
914.5300, 483.0430
915.6530, 417.7539
916.7740, 485.1973
917.8960, 310.3086
919.0180, 597.1523
920.1390, 385.0391
921.2600, 407.9941
922.3820, 278.9941
923.5020, 568.0820
924.6230, 493.2129
925.7440, 678.4199
926.8640, 686.6699
927.9850, 632.9766
929.1050, 789.3301
930.2250, 532.7305
931.3450, 429.1738
932.4640, 605.6641
933.5840, 372.1992
934.7030, 758.7812
935.8220, 632.4121
936.9410, 411.0879
938.0600, 674.8086
939.1790, 607.5879
940.2970, 762.4121
941.4160, 522.2832
942.5340, 481.2031
943.6520, 508.1660
944.7700, 597.1797
945.8870, 625.2441
947.0050, 538.3691
948.1220, 564.5430
949.2400, 463.7734
950.3570, 533.2305
951.4740, 685.4316
952.5900, 653.8594
953.7070, 675.3418
954.8240, 708.8770
955.9400, 644.4590
957.0560, 386.0898
958.1720, 485.9141
959.2880, 513.6367
960.4030, 635.2578
961.5190, 696.0742
962.6340, 1024.939
963.7490, 958.8535
964.8640, 1031.826
965.9790, 1294.848
967.0940, 1014.938
968.2080, 1008.076
969.3230, 1129.262
970.4370, 961.4922
971.5510, 1197.771
972.6650, 1369.100
973.7790, 1394.473
974.8920, 1450.893
976.0060, 1489.357
977.1190, 1799.875
978.2320, 1859.441
979.3450, 2003.055
980.4580, 1913.732
981.5710, 2421.459
982.6830, 2357.230
983.7950, 2375.049
984.9080, 2689.914
986.0200, 2796.826
987.1310, 3061.785
988.2430, 3182.799
989.3550, 3627.852
990.4660, 3911.959
991.5770, 4372.113
992.6880, 4861.676
993.7990, 5358.287
994.9100, 5986.863
996.0200, 6569.207
997.1310, 7288.609
998.2410, 8055.105
999.3510, 8866.238
1000.461, 10032.85
1001.571, 11208.56
1002.681, 12192.33
1003.790, 13176.22
1004.899, 14074.25
1006.009, 14672.41
1007.118, 15185.70
1008.226, 15087.06
1009.335, 14800.47
1010.444, 14165.12
1011.552, 13490.64
1012.660, 12380.27
1013.768, 10627.06
1014.876, 9577.938
1015.984, 8123.283
1017.092, 7299.168
1018.199, 6121.582
1019.306, 5379.553
1020.413, 4608.586
1021.520, 3871.668
1022.627, 3476.785
1023.734, 2901.938
1024.840, 3031.129
1025.947, 2382.238
1027.053, 2273.363
1028.159, 1908.176
1029.265, 2236.188
1030.370, 2149.789
1031.476, 2190.178
1032.581, 2389.594
1033.687, 1871.043
1034.792, 1962.521
1035.897, 2185.027
1037.002, 1863.336
1038.106, 1668.900
1039.211, 1676.051
1040.315, 1474.674
1041.419, 1375.406
1042.523, 1605.441
1043.627, 1788.133
1044.731, 1695.783
1045.834, 1689.348
1046.938, 1613.736
1048.041, 1387.119
1049.144, 1353.949
1050.247, 1173.803
1051.349, 1047.680
1052.452, 850.5781
1053.555, 809.9824
1054.657, 885.9277
1055.759, 1103.480
1056.861, 1114.502
1057.963, 1024.680
1059.064, 817.7109
1060.166, 873.3242
1061.267, 980.3965
1062.368, 548.4844
1063.470, 698.5938
1064.570, 589.7188
1065.671, 266.8672
1066.772, 553.0312
1067.872, 537.4336
1068.972, 256.6328
1070.073, 427.8496
1071.173, 556.2227
1072.272, 401.4727
1073.372, 548.7363
1074.472, 557.0195
1075.571, 228.3164
1076.670, 301.5684
1077.769, 228.8926
1078.868, 54.23828
1079.967, 144.5918
1081.065, 203.7734
1082.164, 385.1543
1083.262, 519.8828
1084.360, 346.2852
1085.458, 277.0898
1086.556, 455.7441
1087.654, 277.1836
1088.751, 373.7051
1089.848, 365.1621
1090.946, 104.6309
1092.043, 176.1074
1093.139, 226.5918
1094.236, 199.0859
1095.333, 433.5859
1096.429, 361.1816
1097.525, 192.9004
1098.622, 516.4453
1099.718, 604.9766
1100.813, 266.5117
1101.909, 468.0527
1103.005, 400.5977
1104.100, 50.15234
1105.195, 40.71094
1106.290, 31.27148
1107.385, 84.83789
1108.480, 203.2363
1109.574, 319.8086
1110.669, 340.6953
1111.763, 449.8164
1112.857, 411.8672
1113.951, 524.4492
1115.045, 413.0332
1116.139, 304.6172
1117.232, 193.2051
1118.326, 192.7910
1119.419, 4.376953
1120.512, 328.9609
1121.605, 156.5449
1122.697, 319.1270
1123.790, 387.1016
1124.883, 440.2930
1125.975, 381.8711
1127.067, 465.4473
1128.159, 211.0215
1129.251, 294.5918
1130.342, 22.84180
1131.434, 367.7168
1132.525, 94.26758
1133.617, 19.81641
1134.708, 204.6543
1135.799, 120.2480
1136.889, 101.1895
1137.980, 345.5332
1139.071, 406.0469
1140.161, 109.5508
1141.251, 2.955078
1142.341, 161.5273
1143.431, 44.00000
1144.521, 97.55859
1145.610, 128.1758
1146.700, 244.8672
1147.789, 18.62500
1148.878, 64.30078
1149.967, 35.71289
1151.056, 136.7500
1152.144, 187.4766
1153.233, 254.5371
1154.321, 143.5801
1155.409, 173.6113
1156.498, 89.18945
1157.585, 103.2422
1158.673, 80.37305
1159.761, 320.5664
1160.848, 136.9551
1161.936, 97.56055
1163.023, 149.0566
1164.110, 169.5371
1165.197, 40.03320
1166.283, 283.4785
1167.370, 26.08984
1168.456, 103.2969
1169.542, 13.66211
1170.629, 93.00391
1171.714, 29.76953
1172.800, 252.3672
1173.886, 38.23047
1174.971, 4.154297
1176.057, 126.5859
1177.142, 273.9102
1178.227, 166.9121
1179.312, 307.8945
1180.397, 238.8594
1181.481, 247.8027
1182.566, 207.7266
1183.650, 52.37109
1184.734, 222.4629
1185.818, 115.7266
1186.902, 62.98242
1187.986, 59.33008
1189.069, 78.28125
1190.153, 0.1328130
1191.236, 321.4102
1192.319, 366.9316
1193.402, 219.4297
1194.485, 115.9082
1195.567, 328.3613
1196.650, 254.7949
1197.732, 65.20312
1198.814, 143.5898
1199.896, 102.9512
1200.978, 16.29102
1202.060, 207.5859
1203.142, 374.8574
1204.223, 274.1055
1205.304, 495.3320
1206.386, 50.53320
1207.467, 326.7012
1208.547, 9.152344
1209.628, 231.9316
1210.709, 31.98828
1211.789, 287.0078
1212.869, 154.9961
1213.950, 256.8594
1215.030, 46.69141
1216.109, 52.48633
1217.189, 148.2422
1218.269, 119.8340
1219.348, 513.6797
1220.427, 309.3613
1221.506, 379.0176
1222.585, 568.6504
1223.664, 300.2559
1224.743, 264.8359
1225.821, 16.39258
1226.899, 109.8945
1227.978, 14.63086
1229.056, 292.8027
1230.134, 371.2090
1231.211, 292.5879
1232.289, 209.9414
1233.366, 317.8105
1234.444, 524.5742
1235.521, 286.8516
1236.598, 490.1035
1237.675, 86.32812
1238.751, 323.5195
1239.828, 116.6836
1240.904, 6.822266
1241.981, 288.8926
1243.057, 472.9395
1244.133, 414.9609
1245.209, 238.9551
1246.284, 490.9258
1247.360, 383.8691
1248.435, 391.7852
1249.510, 578.6680
1250.585, 271.5293
1251.660, 336.3672
1252.735, 520.1797
1253.810, 235.9629
1254.884, 532.7207
1255.959, 296.4746
1257.033, 239.2012
1258.107, 359.9023
1259.181, 301.5781
1260.255, 314.3340
1261.328, 513.2656
1262.402, 258.8613
1263.475, 137.4316
1264.548, 11.97266
1265.621, 129.4512
1266.694, 96.09961
1267.767, 324.2324
1268.840, 241.5352
1269.912, 307.8145
1270.984, 374.8574
1272.056, 283.0859
1273.129, 498.2285
1274.200, 278.2500
1275.272, 385.2188
1276.344, 70.73438
1277.415, 65.79102
1278.486, 74.33008
1279.558, 35.64453
1280.629, 19.30469
1281.699, 258.2090
1282.770, 282.0898
1283.841, 357.9590
1284.911, 129.8066
1285.981, 433.7441
1287.051, 660.6797
1288.121, 310.9355
1289.191, 386.0039
1290.261, 296.4941
1291.330, 445.2109
1292.400, 420.9062
1293.469, 123.5840
1294.538, 510.2422
1295.607, 406.8770
1296.676, 719.7285
1297.745, 600.3281
1298.813, 357.3535
1299.881, 469.9160
1300.950, 527.3750
1302.018, 401.5410
1303.086, 456.0586
1304.154, 344.6270
1305.221, 390.1016
1306.289, 374.5625
1307.356, 398.0078
1308.423, 421.4375
1309.490, 309.8496
1310.557, 305.2480
1311.624, 510.6250
1312.691, 639.5039
1313.757, 373.8477
1314.823, 144.5840
1315.890, 321.8613
1316.956, 507.9883
1318.022, 413.2656
1319.087, 289.9609
1320.153, 131.2051
1321.219, 466.4336
1322.284, 131.6445
1323.349, 515.8438
1324.414, 172.0254
1325.479, 507.1934
1326.544, 709.1250
1327.608, 400.2637
1328.673, 364.3867
1329.737, 264.3555
1330.801, 397.4531
1331.865, 454.5352
1332.929, 209.6074
1333.993, 239.6641
1335.057, 444.7676
1336.120, 392.8008
1337.183, 583.8184
1338.247, 291.8242
1339.310, 513.0059
1340.373, 527.0898
1341.435, 351.8027
1342.498, 378.7656
1343.560, 517.3262
1344.623, 131.0410
1345.685, 409.9727
1346.747, 450.8164
1347.809, 162.7285
1348.871, 506.6289
1349.932, 523.5195
1350.994, 505.4023
1352.055, 586.6348
1353.116, 653.1387
1354.177, 459.9102
1355.238, 484.5547
1356.299, 303.8438
1357.359, 486.7676
1358.420, 265.5938
1359.480, 248.4160
1360.540, 402.2285
1361.600, 336.0371
1362.660, 156.8398
1363.720, 606.6367
1364.780, 213.4316
1365.839, 701.3887
1366.898, 412.1719
1367.958, 805.6426
1369.017, 441.4043
1370.076, 237.1758
1371.134, 265.9453
1372.193, 125.7129
1373.251, 553.4766
1374.310, 80.23828
1375.368, 376.9961
1376.426, 568.7500
1377.484, 283.5039
1378.542, 537.2559
1379.599, 566.0098
1380.657, 568.7598
1381.714, 359.5098
1382.771, 481.9414
1383.828, 420.6914
1384.885, 162.4434
1385.942, 159.1953
1386.999, 89.94531
1388.055, 389.7070
1389.111, 179.4668
1390.168, 318.2285
1391.224, 566.6953
1392.280, 306.4043
1393.335, 487.7637
1394.391, 271.7168
1395.446, 417.4961
1396.502, 410.2812
1397.557, 86.07227
1398.612, 274.7871
1399.667, 235.5020
1400.722, 263.2344
1401.776, 230.9941
1402.831, 154.7949
1403.885, 302.6504
1404.939, 395.2930
1405.994, 535.2832
1407.048, 483.2461
1408.101, 504.5117
1409.155, 388.5098
1410.209, 226.4785
1411.262, 317.3340
1412.315, 170.0117
1413.368, 131.9062
1414.421, 254.8379
1415.474, 174.8008
1416.527, 200.8555
1417.579, 454.9590
1418.632, 436.0684
1419.684, 443.8984
1420.736, 403.2871
1421.788, 275.4258
1422.840, 369.6562
1423.891, 143.8320
1424.943, 165.8965
1425.994, 133.9727
1427.046, 113.0586
1428.097, 173.7520
1429.148, 50.32617
1430.199, 256.5234
1431.249, 225.7324
1432.300, 187.3359
1433.350, 470.5684
1434.401, 379.8223
1435.451, 224.1074
1436.501, 234.4102
1437.551, 40.30859
1438.601, 364.8008
1439.650, 96.71289
1440.700, 255.6992
1441.749, 339.7344
1442.798, 228.7891
1443.847, 406.8379
1444.896, 408.8809
1445.945, 372.9199
1446.993, 453.9590
1448.042, 612.0137
1449.090, 397.0625
1450.138, 174.1172
1451.187, 537.1953
1452.234, 455.2988
1453.282, 345.4766
1454.330, 175.7266
1455.377, 207.0039
1456.425, 604.2871
1457.472, 445.5723
1458.519, 456.8633
1459.566, 345.1758
1460.613, 372.5098
1461.660, 410.8457
1462.706, 269.1855
1463.752, 448.5391
1464.799, 86.89648
1465.845, 3.726563
1466.891, 1.308594
1467.937, 124.1426
1468.982, 227.6035
1470.028, 363.0762
1471.073, 346.5645
1472.119, 404.0625
1473.164, 373.3887
1474.209, 292.0527
1475.254, 307.5352
1476.299, 211.0371
1477.343, 272.5488
1478.388, 104.1113
1479.432, 409.7871
1480.476, 181.5547
1481.520, 124.6582
1482.564, 227.1523
1483.608, 262.9863
1484.651, 266.8691
1485.695, 374.8340
1486.738, 263.9023
1487.782, 299.9551
1488.825, 398.0391
1489.868, 272.1523
1490.910, 169.2910
1491.953, 36.45117
1492.996, 243.6406
1494.038, 267.8496
1495.080, 148.0879
1496.122, 257.3535
1497.164, 163.6484
1498.206, 240.2773
1499.248, 566.2812
1500.290, 373.6309
1501.331, 482.0195
1502.372, 521.4570
1503.413, 76.93555
1504.455, 351.4609
1505.495, 260.0312
1506.536, 51.65234
1507.577, 80.67578
1508.617, 91.04883
1509.658, 101.8262
1510.698, 267.6504
1511.738, 287.5293
1512.778, 275.4648
1513.818, 153.4570
1514.857, 170.2539
1515.897, 260.1660
1516.936, 183.3359
1517.975, 177.5723
1519.015, 108.8809
1520.054, 101.2637
1521.092, 110.7266
1522.131, 285.2676
1523.170, 253.5234
1524.208, 369.6777
1525.246, 429.8848
1526.285, 367.1406
1527.323, 612.4414
1528.361, 357.7988
1529.398, 322.2031
1530.436, 385.6582
1531.473, 147.1699
1532.511, 216.7383
1533.548, 60.36328
1534.585, 36.95508
1535.622, 233.6660
1536.659, 88.62305
1537.695, 418.5605
1538.732, 351.4707
1539.768, 289.3496
1540.805, 459.1719
1541.841, 341.9062
1542.877, 509.5176
1543.913, 347.1191
1544.948, 200.7148
1545.984, 211.2910
1547.019, 67.82031
1548.055, 90.28516
1549.090, 342.1914
1550.125, 255.9824
1551.160, 222.6465
1552.195, 486.1602
1553.229, 366.4902
1554.264, 581.4141
1555.298, 277.4609
1556.332, 8.179688
1557.366, 286.2500
1558.400, 346.0977
1559.434, 353.1914
1560.468, 12.83008
1561.502, 385.0840
1562.535, 0.0000000E+00
##END=



