##NAMES=Augite
##RRUFFID=R061086
##IDEAL CHEMISTRY=(Ca,Mg,Fe^2+^,Fe^3+^)_2_(Si,Al)_2_O_6_
##LOCALITY=Boreslav, Teplitz, Bohemia, Czech Republic
##OWNER=RRUFF
##SOURCE=Michael Scott
##DESCRIPTION=Black to dark green tabular euhedral crystal
##STATUS=The identification of this mineral has been confirmed by X-ray diffraction and chemical analysis
##URL=rruff.info/R061086
##MEASURED CHEMISTRY=(Ca_0.88_Mg_0.83_Fe_0.13_Al_0.08_Na_0.04_Ti_0.03_Cr_0.01_)_Σ=2_(Si_1.89_Al_0.11_)_Σ=2_O_6_
##PIN_ID=M00162
##ORIENTATION=Laser parallel to c* (0 0 1). Fiducial mark perpendicular to laser is parallel to a [1 0 0]
166.1800, 0.0000000E+00
167.4110, 0.3596190
168.6410, 33.99292
169.8720, 76.92407
171.1020, 67.85352
172.3320, 40.59375
173.5620, 57.87524
174.7910, 6.497314
176.0210, 21.35718
177.2500, 16.63086
178.4790, 60.76709
179.7080, 41.50977
180.9370, 36.26685
182.1650, 90.06494
183.3940, 147.8926
184.6220, 137.7432
185.8500, 181.6140
187.0780, 123.5005
188.3050, 79.70801
189.5330, 172.2546
190.7600, 167.8535
191.9870, 203.5352
193.2140, 232.2742
194.4410, 310.3069
195.6680, 195.5051
196.8940, 150.6848
198.1200, 253.8511
199.3470, 132.0071
200.5720, 169.1567
201.7980, 174.3025
203.0240, 149.4490
204.2490, 77.59839
205.4740, 45.75171
206.6990, 19.91016
207.9240, 10.92651
209.1490, 15.75659
210.3740, 14.41968
211.5980, 40.60376
212.8220, 9.795410
214.0460, 3.994873
215.2700, 42.20190
216.4930, 68.10229
217.7170, 20.31006
218.9400, 37.52637
220.1630, 41.55835
221.3860, 125.0334
222.6090, 99.65820
223.8320, 164.4475
225.0540, 143.5054
226.2760, 168.5811
227.4980, 153.6738
228.7200, 195.7834
229.9420, 180.9087
231.1630, 139.0493
232.3850, 106.2036
233.6060, 147.3713
234.8270, 81.55225
236.0480, 44.74634
237.2690, 95.95532
238.4890, 81.19922
239.7090, 43.48657
240.9290, 76.77637
242.1490, 56.07227
243.3690, 52.37598
244.5890, 93.68750
245.8080, 27.00854
247.0270, 55.33887
248.2470, 66.67822
249.4650, 44.02832
250.6840, 145.3889
251.9030, 70.75830
253.1210, 107.1362
254.3390, 65.52319
255.5570, 69.91895
256.7750, 74.32349
257.9930, 186.7368
259.2100, 148.7505
260.4280, 138.7866
261.6450, 130.0122
262.8620, 72.44507
264.0790, 32.88647
265.2950, 51.33667
266.5120, 7.205322
267.7280, 12.26050
268.9440, 27.73315
270.1600, 12.21313
271.3760, 7.699951
272.5920, 8.488770
273.8070, 9.305664
275.0220, 8.201660
276.2370, 34.28418
277.4520, 23.76343
278.6670, 50.76392
279.8820, 25.70239
281.0960, 26.83789
282.3100, 33.38428
283.5240, 31.93701
284.7380, 58.49609
285.9520, 77.06104
287.1650, 66.63184
288.3780, 69.20874
289.5920, 95.78979
290.8050, 49.37549
292.0170, 80.54688
293.2300, 111.2061
294.4430, 89.15283
295.6550, 201.7319
296.8670, 178.3059
298.0790, 219.8860
299.2910, 170.4722
300.5020, 272.0635
301.7140, 254.6609
302.9250, 270.2637
304.1360, 299.8735
305.3470, 343.4871
306.5580, 345.1697
307.7680, 404.8391
308.9780, 443.4761
310.1890, 470.5850
311.3990, 542.7864
312.6090, 596.4177
313.8180, 663.7271
315.0280, 651.2566
316.2370, 789.8110
317.4460, 898.3921
318.6550, 845.0024
319.8640, 942.6299
321.0730, 1041.275
322.2810, 1098.936
323.4890, 1170.607
324.6980, 1207.759
325.9060, 1159.973
327.1130, 1230.667
328.3210, 1172.367
329.5280, 1114.074
330.7360, 1208.788
331.9430, 1013.680
333.1500, 991.3936
334.3560, 940.0981
335.5630, 938.8108
336.7690, 842.5327
337.9760, 758.2610
339.1820, 718.0059
340.3870, 698.7556
341.5930, 675.5195
342.7990, 625.2788
344.0040, 601.0427
345.2090, 581.8118
346.4140, 563.5852
347.6190, 612.3921
348.8240, 563.1743
350.0280, 628.9607
351.2330, 568.7939
352.4370, 553.5889
353.6410, 619.9492
354.8440, 582.0613
356.0480, 605.8689
357.2520, 526.6802
358.4550, 562.4958
359.6580, 584.3149
360.8610, 516.1382
362.0640, 617.9619
363.2660, 577.7891
364.4690, 469.6201
365.6710, 536.4509
366.8730, 510.2668
368.0750, 499.0757
369.2770, 438.8767
370.4780, 463.6824
371.6800, 452.4917
372.8810, 534.3054
374.0820, 522.1233
375.2830, 473.9448
376.4830, 573.7703
377.6840, 629.5994
378.8840, 541.4321
380.0840, 620.2686
381.2840, 702.1084
382.4840, 746.9512
383.6840, 852.0625
384.8830, 1003.647
386.0830, 1043.499
387.2820, 1158.354
388.4810, 1257.213
389.6800, 1338.073
390.8780, 1386.937
392.0770, 1557.803
393.2750, 1417.672
394.4730, 1497.543
395.6710, 1466.416
396.8690, 1361.292
398.0660, 1178.171
399.2640, 1107.051
400.4610, 988.9338
401.6580, 830.8186
402.8550, 655.7056
404.0520, 557.5942
405.2490, 485.4849
406.4450, 330.3772
407.6410, 284.2717
408.8370, 208.1677
410.0330, 222.0654
411.2290, 154.7271
412.4240, 199.6279
413.6200, 70.53052
414.8150, 84.43433
416.0100, 117.3398
417.2050, 42.24683
418.4000, 84.85449
419.5940, 18.76343
420.7880, 67.05273
421.9830, 26.99585
423.1770, 46.90820
424.3700, 55.75513
425.5640, 56.67285
426.7580, 47.59180
427.9510, 35.51270
429.1440, 45.43384
430.3370, 47.35596
431.5300, 38.27905
432.7220, 56.20312
433.9150, 49.13550
435.1070, 60.06836
436.2990, 39.00195
437.4910, 7.936279
438.6830, 15.68726
439.8750, 0.8071290
441.0660, 5.756104
442.2570, 8.705566
443.4480, 4.337402
444.6390, 28.68433
445.8300, 30.68750
447.0210, 3.219727
448.2110, 17.77612
449.4010, 16.88257
450.5910, 27.05396
451.7810, 31.87256
452.9710, 17.29102
454.1610, 58.27979
455.3500, 79.79590
456.5390, 82.65967
457.7280, 41.64624
458.9170, 44.67163
460.1060, 81.33008
461.2940, 11.34229
462.4830, 88.12280
463.6710, 70.73535
464.8590, 99.72095
466.0470, 41.49487
467.2350, 114.9717
468.4220, 70.25293
469.6090, 49.45093
470.7970, 30.64819
471.9840, 41.81323
473.1700, 91.02710
474.3570, 4.775391
475.5440, 107.5464
476.7300, 52.68579
477.9160, 35.84570
479.1020, 14.04468
480.2880, 45.55249
481.4740, 68.94092
482.6590, 102.0085
483.8440, 16.27148
485.0300, 45.34399
486.2140, 49.49634
487.3990, 62.76270
488.5840, 61.81543
489.7680, 13.86426
490.9530, 52.95117
492.1370, 70.99316
493.3210, 12.09692
494.5040, 30.13184
495.6880, 76.16333
496.8720, 40.22266
498.0550, 36.25146
499.2380, 27.27661
500.4210, 31.29785
501.6040, 72.31519
502.7860, 66.32886
503.9690, 109.3381
505.1510, 83.34326
506.3330, 60.34448
507.5150, 107.3411
508.6970, 127.3337
509.8780, 164.3218
511.0600, 165.8635
512.2410, 188.2852
513.4220, 151.2603
514.6030, 142.2307
515.7840, 118.1968
516.9640, 178.1587
518.1440, 178.1155
519.3250, 151.0676
520.5050, 167.0151
521.6850, 151.9573
522.8640, 184.8948
524.0440, 154.8274
525.2230, 223.7549
526.4020, 231.6772
527.5820, 233.5945
528.7600, 226.5061
529.9390, 229.4126
531.1180, 223.3137
532.2960, 245.2095
533.4740, 244.0996
534.6520, 218.9841
535.8300, 240.8633
537.0080, 240.7366
538.1850, 189.6042
539.3630, 270.4658
540.5400, 208.3220
541.7170, 241.1719
542.8940, 175.0159
544.0700, 126.8538
545.2470, 194.6860
546.4230, 211.5117
547.5990, 195.3311
548.7750, 243.1445
549.9510, 216.9514
551.1270, 171.7520
552.3020, 226.5469
553.4780, 224.3362
554.6530, 224.1191
555.8280, 248.8955
557.0030, 223.6650
558.1770, 217.4282
559.3520, 261.1843
560.5260, 264.9355
561.7000, 195.6797
562.8740, 209.4238
564.0480, 182.1653
565.2220, 177.5986
566.3950, 161.3311
567.5680, 119.1743
568.7420, 159.9983
569.9150, 74.70898
571.0870, 93.41211
572.2600, 106.2239
573.4320, 130.9126
574.6050, 127.3923
575.7770, 111.0662
576.9490, 76.73193
578.1210, 96.54688
579.2920, 66.19727
580.4640, 93.93872
581.6350, 109.5317
582.8060, 75.15820
583.9770, 57.49756
585.1480, 42.81616
586.3190, 51.60083
587.4890, 36.11182
588.6590, 60.05078
589.8290, 3.261230
590.9990, 44.42993
592.1690, 4.972900
593.3390, 4.393555
594.5080, 27.23291
595.6770, 9.427002
596.8470, 8.027100
598.0160, 0.7402340
599.1840, 69.76123
600.3530, 3.982422
601.5210, 25.51221
602.6900, 12.89185
603.8580, 1.480713
605.0260, 10.15527
606.1930, 17.84521
607.3610, 29.12866
608.5280, 44.65894
609.6960, 55.98950
610.8630, 61.70703
612.0300, 69.00171
613.1970, 56.78076
614.3630, 63.84644
615.5300, 45.87134
616.6960, 13.67944
617.8620, 71.84155
619.0280, 61.99219
620.1940, 34.12793
621.3590, 8.749023
622.5250, 98.34253
623.6900, 50.42261
624.8550, 88.48022
626.0200, 68.53589
627.1850, 48.57935
628.3490, 99.60962
629.5140, 112.6284
630.6780, 80.60645
631.8420, 130.6023
633.0060, 74.58667
634.1700, 91.51685
635.3330, 134.4778
636.4970, 82.42749
637.6600, 141.3655
638.8230, 185.2920
639.9860, 175.2070
641.1490, 247.1108
642.3110, 220.0032
643.4740, 207.8840
644.6360, 241.7539
645.7980, 267.6123
646.9600, 279.4587
648.1220, 357.2944
649.2840, 374.1187
650.4450, 462.9312
651.6060, 521.3909
652.7670, 630.5227
653.9280, 665.3013
655.0890, 742.0691
656.2500, 822.8250
657.4100, 951.5698
658.5700, 1138.303
659.7300, 1289.025
660.8900, 1441.736
662.0500, 1652.436
663.2100, 1765.125
664.3690, 1984.802
665.5280, 2011.468
666.6880, 2094.123
667.8460, 1951.767
669.0050, 1807.399
670.1640, 1751.021
671.3220, 1483.631
672.4810, 1363.230
673.6390, 1156.818
674.7970, 958.3958
675.9540, 842.9619
677.1120, 735.5173
678.2690, 636.0618
679.4270, 543.5947
680.5840, 497.1174
681.7410, 490.6292
682.8980, 332.1299
684.0540, 268.6199
685.2110, 323.0989
686.3670, 197.5674
687.5230, 279.0251
688.6790, 197.4722
689.8350, 243.9084
690.9900, 178.4546
692.1460, 177.8699
693.3010, 129.2747
694.4560, 89.66846
695.6110, 123.0522
696.7660, 114.4253
697.9210, 140.7881
699.0750, 127.0461
700.2290, 76.48242
701.3840, 75.81421
702.5370, 78.13550
703.6910, 10.44653
704.8450, 70.74072
705.9980, 37.02490
707.1520, 39.29785
708.3050, 120.5598
709.4580, 87.81152
710.6110, 35.05322
711.7630, 72.28394
712.9160, 10.49536
714.0680, 72.69971
715.2200, 72.88452
716.3720, 26.05981
717.5240, 61.22363
718.6760, 34.37793
719.8270, 30.47852
720.9780, 65.62988
722.1300, 11.27124
723.2810, 3.802734
724.4310, 19.20020
725.5820, 31.20435
726.7330, 10.68042
727.8830, 24.65088
729.0330, 20.04468
730.1830, 24.38354
731.3330, 13.13818
732.4830, 25.51733
733.6320, 39.19312
734.7810, 38.84009
735.9310, 33.64600
737.0800, 7.016357
738.2290, 99.22803
739.3770, 17.88989
740.5260, 21.64502
741.6740, 45.37720
742.8220, 42.74585
743.9700, 37.51245
745.1180, 33.41992
746.2660, 31.35938
747.4130, 5.038818
748.5610, 45.48901
749.7080, 59.96143
750.8550, 63.43604
752.0020, 27.14697
753.1490, 45.26953
754.2950, 8.447998
755.4420, 47.00562
756.5880, 86.42993
757.7340, 36.80762
758.8800, 27.86792
760.0250, 32.03955
761.1710, 46.55493
762.3160, 86.80444
763.4620, 119.2671
764.6070, 129.6423
765.7520, 162.8950
766.8960, 173.4365
768.0410, 181.8074
769.1850, 186.2158
770.3300, 112.6606
771.4740, 89.03589
772.6180, 148.4717
773.7610, 212.9038
774.9050, 193.3018
776.0480, 216.7253
777.1920, 163.1455
778.3350, 223.5618
779.4780, 164.9749
780.6200, 213.3840
781.7630, 150.8103
782.9060, 165.2131
784.0480, 81.61328
785.1900, 180.0100
786.3320, 155.4043
787.4740, 131.7952
788.6150, 123.1838
789.7570, 111.5698
790.8980, 133.9531
792.0390, 149.3342
793.1800, 92.71289
794.3210, 115.0894
795.4620, 105.4644
796.6020, 91.83691
797.7420, 71.20776
798.8830, 91.57690
800.0230, 65.94458
801.1620, 68.31079
802.3020, 118.6753
803.4420, 72.03857
804.5810, 97.40063
805.7200, 126.7620
806.8590, 69.12231
807.9980, 27.48145
809.1370, 127.8401
810.2750, 134.1982
811.4140, 105.5557
812.5520, 180.9128
813.6900, 101.2698
814.8280, 125.6265
815.9650, 54.98291
817.1030, 86.33960
818.2400, 178.6963
819.3780, 147.0530
820.5150, 138.4099
821.6520, 195.7673
822.7880, 134.1252
823.9250, 72.48413
825.0610, 138.8435
826.1980, 118.2034
827.3340, 9.435303
828.4700, 143.9253
829.6050, 117.2869
830.7410, 57.64966
831.8760, 144.0139
833.0120, 74.37939
834.1470, 108.7466
835.2820, 73.11523
836.4160, 55.48560
837.5510, 16.85791
838.6860, 103.2319
839.8200, 23.60815
840.9540, 73.28784
842.0880, 67.66821
843.2220, 28.93262
844.3550, 78.21191
845.4890, 82.59961
846.6220, 93.98975
847.7550, 112.0818
848.8880, 96.66309
850.0210, 117.2632
851.1540, 116.6655
852.2860, 102.0713
853.4190, 130.3230
854.5510, 163.7356
855.6830, 147.0525
856.8150, 202.5125
857.9460, 222.9363
859.0780, 204.6433
860.2090, 123.3062
861.3410, 126.5596
862.4720, 206.0828
863.6020, 86.13135
864.7330, 160.4695
865.8640, 214.7959
866.9940, 204.1592
868.1240, 143.4160
869.2540, 90.50073
870.3840, 152.8279
871.5140, 180.2092
872.6440, 64.95215
873.7730, 52.41699
874.9020, 143.1243
876.0320, 117.6072
877.1600, 141.1401
878.2890, 173.4473
879.4180, 105.0530
880.5460, 92.96387
881.6750, 86.59204
882.8030, 117.9692
883.9310, 110.5474
885.0590, 113.6672
886.1860, 109.5242
887.3140, 106.4641
888.4410, 77.29712
889.5680, 52.00708
890.6950, 23.10181
891.8220, 160.8357
892.9490, 220.5938
894.0750, 125.3621
895.2020, 88.14160
896.3280, 79.94092
897.4540, 150.7507
898.5800, 104.5710
899.7050, 100.4011
900.8310, 82.24121
901.9560, 32.09180
903.0820, 88.95215
904.2070, 74.82227
905.3320, 46.70630
906.4560, 99.60010
907.5810, 63.50415
908.7050, 94.43896
909.8300, 96.65381
910.9540, 65.37549
912.0780, 90.37109
913.2010, 117.3926
914.3250, 93.43140
915.4480, 53.48047
916.5720, 2.459961
917.6950, 76.60962
918.8180, 111.6899
919.9410, 155.7808
921.0630, 159.0461
922.1860, 166.3162
923.3080, 146.1221
924.4300, 140.2588
925.5520, 158.4062
926.6740, 132.5645
927.7960, 117.7488
928.9170, 52.94360
930.0390, 100.1497
931.1600, 163.3667
932.2810, 102.5947
933.4020, 158.8335
934.5230, 66.08569
935.6430, 96.34863
936.7640, 154.6228
937.8840, 104.9084
939.0040, 124.2161
940.1240, 110.5444
941.2440, 96.68042
942.3630, 157.2356
943.4830, 78.59814
944.6020, 130.9714
945.7210, 119.3562
946.8400, 153.7527
947.9590, 85.15991
949.0770, 102.5808
950.1960, 144.0127
951.3140, 85.45630
952.4320, 140.9111
953.5500, 98.37744
954.6680, 124.8552
955.7860, 160.3457
956.9030, 109.8479
958.0210, 206.3616
959.1380, 153.8862
960.2550, 198.4229
961.3720, 195.9709
962.4890, 147.4109
963.6050, 145.9822
964.7220, 162.5103
965.8380, 245.1597
966.9540, 229.7659
968.0700, 207.3845
969.1860, 266.0144
970.3010, 229.6562
971.4170, 242.3096
972.5320, 230.9741
973.6470, 240.4065
974.7620, 274.3379
975.8770, 276.0403
976.9910, 318.7544
978.1060, 344.4805
979.2200, 339.2234
980.3340, 382.9780
981.4480, 405.7441
982.5620, 364.5225
983.6760, 486.3125
984.7890, 532.1252
985.9030, 467.9497
987.0160, 564.7852
988.1290, 583.6333
989.2420, 619.4958
990.3550, 696.3696
991.4670, 733.2788
992.5800, 854.1992
993.6920, 966.1392
994.8040, 1067.096
995.9160, 1127.074
997.0280, 1227.076
998.1390, 1482.093
999.2510, 1536.122
1000.362, 1733.164
1001.473, 1970.237
1002.584, 2120.379
1003.695, 2355.040
1004.805, 2572.152
1005.916, 2853.290
1007.026, 3039.450
1008.136, 3056.627
1009.246, 3214.844
1010.356, 3269.071
1011.466, 3053.016
1012.576, 3023.278
1013.685, 2651.601
1014.794, 2228.897
1015.903, 2106.240
1017.012, 1694.620
1018.121, 1440.965
1019.229, 1199.335
1020.338, 1074.735
1021.446, 903.4956
1022.554, 790.2974
1023.662, 738.7368
1024.770, 628.2026
1025.878, 588.7578
1026.985, 549.6157
1028.092, 514.1099
1029.200, 514.6223
1030.307, 502.3555
1031.413, 516.8804
1032.520, 468.4143
1033.627, 495.9570
1034.733, 474.5085
1035.839, 438.0686
1036.945, 463.6367
1038.051, 476.9443
1039.157, 458.5295
1040.262, 464.1172
1041.368, 453.7070
1042.473, 457.3645
1043.578, 408.8552
1044.683, 417.2207
1045.788, 357.5098
1046.893, 433.6567
1047.997, 410.3049
1049.101, 266.9592
1050.205, 402.6006
1051.309, 391.2686
1052.413, 309.9424
1053.517, 359.6233
1054.621, 274.7158
1055.724, 255.5938
1056.827, 168.2935
1057.930, 305.9990
1059.033, 279.7190
1060.136, 157.9207
1061.238, 233.6440
1062.341, 174.4280
1063.443, 206.1636
1064.545, 215.9053
1065.647, 152.6523
1066.749, 165.8213
1067.850, 141.5784
1068.952, 55.35425
1070.053, 161.1414
1071.154, 216.4126
1072.255, 119.4309
1073.356, 128.2708
1074.457, 147.0569
1075.557, 80.84790
1076.658, 106.6431
1077.758, 160.4424
1078.858, 171.2458
1079.958, 166.0532
1081.057, 100.2683
1082.157, 106.0837
1083.256, 65.90576
1084.356, 146.7285
1085.455, 98.57007
1086.554, 175.4001
1087.653, 100.5059
1088.751, 119.3840
1089.850, 171.2239
1090.948, 108.0671
1092.046, 71.91479
1093.144, 67.83911
1094.242, 40.60474
1095.340, 39.58960
1096.437, 37.47876
1097.534, 85.34180
1098.632, 104.2080
1099.729, 93.28809
1100.826, 109.1592
1101.922, 53.03320
1103.019, 65.90918
1104.115, 76.78735
1105.212, 106.6675
1106.308, 65.55005
1107.404, 147.4346
1108.499, 66.32153
1109.595, 141.2102
1110.691, 45.21289
1111.786, 43.10498
1112.881, 64.00610
1113.976, 82.96143
1115.071, 137.8574
1116.166, 39.52466
1117.260, 97.42310
1118.355, 100.3220
1119.449, 29.22217
1120.543, 78.75537
1121.637, 98.65674
1122.731, 166.0032
1123.824, 140.9055
1124.918, 149.0569
1126.011, 104.2266
1127.104, 90.12891
1128.197, 86.10376
1129.290, 5.438965
1130.382, 91.38013
1131.475, 45.40186
1132.567, 0.6708980
1133.659, 3.770752
1134.751, 18.23877
1135.843, 29.05151
1136.935, 10.13892
1138.027, 82.02954
1139.118, 138.9187
1140.209, 39.81519
1141.300, 57.70068
1142.391, 19.41528
1143.482, 126.5225
1144.573, 1.509766
1145.663, 41.36060
1146.754, 0.7434080
1147.844, 24.84351
1148.934, 3.770264
1150.024, 29.61987
1151.113, 40.53369
1152.203, 7.622314
1153.292, 41.72461
1154.381, 20.34009
1155.470, 31.31836
1156.559, 56.23706
1157.648, 3.871338
1158.737, 31.63892
1159.825, 3.402832
1160.913, 1.837891
1162.001, 9.914551
1163.089, 32.66309
1164.177, 86.40698
1165.265, 54.70361
1166.352, 37.88428
1167.440, 25.61572
1168.527, 8.656982
1169.614, 14.05859
1170.701, 45.76880
1171.788, 71.52490
1172.874, 31.86499
1173.961, 56.87769
1175.047, 6.633301
1176.133, 52.73511
1177.219, 18.18750
1178.305, 16.37305
1179.390, 59.89673
1180.476, 110.4155
1181.561, 72.92920
1182.646, 68.43848
1183.731, 88.94214
1184.816, 1.439941
1185.901, 5.927979
1186.985, 55.40796
1188.070, 92.88208
1189.154, 23.35059
1190.238, 46.18677
1191.322, 127.2397
1192.406, 14.66064
1193.489, 44.23999
1194.573, 43.75952
1195.656, 37.16187
1196.739, 4.557617
1197.822, 51.94336
1198.905, 29.32251
1199.988, 28.69531
1201.070, 27.93848
1202.153, 23.60059
1203.235, 21.71143
1204.317, 82.01636
1205.399, 62.31470
1206.481, 97.60669
1207.562, 47.89233
1208.644, 57.17163
1209.725, 59.44482
1210.806, 8.711182
1211.887, 62.96704
1212.968, 41.21582
1214.049, 66.45776
1215.129, 39.69287
1216.209, 43.92090
1217.290, 14.14185
1218.370, 35.35327
1219.450, 56.55762
1220.529, 49.75513
1221.609, 57.30225
1222.688, 30.49976
1223.768, 39.45728
1224.847, 84.92603
1225.926, 43.14746
1227.005, 52.31714
1228.083, 57.47949
1229.162, 20.66016
1230.240, 94.86475
1231.318, 142.0029
1232.396, 110.1338
1233.474, 91.25708
1234.552, 57.37451
1235.629, 79.57520
1236.707, 110.6907
1237.784, 71.87109
1238.861, 101.9717
1239.938, 1.064697
1241.015, 100.1399
1242.092, 57.20752
1243.168, 45.26758
1244.244, 123.3198
1245.321, 8.364014
1246.397, 116.3933
1247.473, 70.41553
1248.548, 140.4299
1249.624, 12.43677
1250.699, 108.4302
1251.775, 18.58423
1252.850, 99.37256
1253.925, 47.32178
1254.999, 19.26221
1256.074, 101.1917
1257.148, 49.14844
1258.223, 20.27612
1259.297, 58.17700
1260.371, 40.67603
1261.445, 62.06860
1262.519, 91.80981
1263.592, 61.83594
1264.666, 122.1218
1265.739, 33.97314
1266.812, 96.81396
1267.885, 81.64722
1268.958, 68.47192
1270.030, 110.2886
1271.103, 106.0969
1272.175, 56.19116
1273.247, 48.98291
1274.319, 82.74023
1275.391, 65.52051
1276.463, 64.25098
1277.535, 7.044922
1278.606, 95.68945
1279.677, 59.58447
1280.748, 97.10205
1281.819, 58.42944
1282.890, 29.72656
1283.961, 30.61377
1285.031, 13.01147
1286.102, 22.18164
1287.172, 93.78223
1288.242, 115.4001
1289.312, 119.9783
1290.381, 71.33618
1291.451, 119.9021
1292.520, 129.4585
1293.590, 90.28784
1294.659, 98.83008
1295.728, 135.3652
1296.797, 141.8926
1297.865, 128.6829
1298.934, 125.1948
1300.002, 169.7007
1301.070, 113.4509
1302.138, 69.66211
1303.206, 105.2749
1304.274, 15.01367
1305.341, 104.8306
1306.409, 48.79004
1307.476, 92.33545
1308.543, 75.78857
1309.610, 125.3862
1310.677, 102.9775
1311.744, 99.51953
1312.810, 134.8433
1313.877, 89.86279
1314.943, 104.0977
1316.009, 145.5117
1317.075, 142.9204
1318.140, 141.3154
1319.206, 75.22949
1320.272, 109.6221
1321.337, 20.95312
1322.402, 28.33252
1323.467, 96.70508
1324.532, 104.0728
1325.596, 182.0181
1326.661, 149.3745
1327.725, 140.7124
1328.790, 103.0391
1329.854, 102.8804
1330.918, 125.9736
1331.981, 130.2456
1333.045, 153.5938
1334.108, 130.9131
1335.172, 183.2280
1336.235, 60.76709
1337.298, 157.0723
1338.361, 81.40479
1339.423, 138.2954
1340.486, 141.5854
1341.548, 138.8677
1342.611, 176.1475
1343.673, 130.0962
1344.735, 206.6782
1345.796, 82.67236
1346.858, 115.0366
1347.919, 162.2944
1348.981, 2.548828
1350.042, 69.07471
1351.103, 42.24609
1352.164, 85.44873
1353.225, 45.21729
1354.285, 75.42285
1355.346, 115.6543
1356.406, 49.88281
1357.466, 41.89453
1358.526, 76.11426
1359.586, 134.3320
1360.645, 75.54688
1361.705, 214.9961
1362.764, 40.22852
1363.823, 73.52441
1364.882, 41.72754
1365.941, 181.9268
1367.000, 118.1235
1368.059, 109.2065
1369.117, 131.9385
1370.175, 105.8027
1371.233, 142.7124
1372.291, 73.90088
1373.349, 155.3184
1374.407, 71.50439
1375.464, 58.68945
1376.522, 176.8735
1377.579, 161.4253
1378.636, 85.60498
1379.693, 124.3403
1380.750, 94.52002
1381.806, 93.62598
1382.863, 94.36377
1383.919, 47.54248
1384.975, 15.59814
1386.031, 59.29248
1387.087, 178.3706
1388.143, 110.3672
1389.199, 114.4575
1390.254, 13.57373
1391.309, 108.5952
1392.364, 152.6465
1393.419, 130.4985
1394.474, 106.5444
1395.529, 138.5874
1396.583, 126.6182
1397.638, 61.65381
1398.692, 74.68652
1399.746, 66.65576
1400.800, 50.58887
1401.853, 54.61084
1402.907, 138.6021
1403.960, 104.5845
1405.014, 128.8433
1406.067, 143.8652
1407.120, 70.46240
1408.173, 149.4907
1409.225, 130.4658
1410.278, 103.2666
1411.330, 91.16016
1412.383, 75.59521
1413.435, 106.1206
1414.487, 42.94922
1415.538, 141.7197
1416.590, 89.42236
1417.641, 90.08301
1418.693, 66.73633
1419.744, 3.836914
1420.795, 106.9277
1421.846, 151.0142
1422.897, 143.0957
1423.947, 100.2227
1424.998, 118.0620
1426.048, 73.23340
1427.098, 112.4404
1428.148, 133.6396
1429.198, 92.83301
1430.247, 124.0278
1431.297, 134.2197
1432.346, 134.4229
1433.396, 28.45312
1434.445, 154.5371
1435.494, 17.74707
1436.542, 17.95557
1437.591, 209.1738
1438.639, 122.4263
1439.688, 117.6768
1440.736, 140.9243
1441.784, 171.1685
1442.832, 109.4160
1443.880, 111.6626
1444.927, 112.9082
1445.975, 52.15527
1447.022, 147.9404
1448.069, 90.07227
1449.116, 84.21338
1450.163, 154.4087
1451.209, 81.48926
1452.256, 142.6836
1453.302, 161.8750
1454.348, 126.9185
1455.394, 86.96484
1456.440, 123.1182
1457.486, 124.2773
1458.532, 47.43604
1459.577, 84.60352
1460.623, 129.7705
1461.668, 12.94531
1462.713, 80.15186
1463.758, 46.36230
1464.802, 111.1816
1465.847, 110.3999
1466.891, 66.62256
1467.936, 167.4609
1468.980, 161.6875
1470.024, 77.91943
1471.067, 95.15625
1472.111, 25.39844
1473.155, 150.5981
1474.198, 88.85449
1475.241, 45.85547
1476.284, 121.4805
1477.327, 63.82764
1478.370, 0.7587890
1479.413, 108.6309
1480.455, 158.0903
1481.497, 107.5742
1482.540, 130.5015
1483.582, 87.00488
1484.624, 119.5234
1485.665, 100.0566
1486.707, 20.60107
1487.748, 38.84277
1488.790, 41.53027
1489.831, 142.7656
1490.872, 76.00195
1491.912, 113.5972
1492.953, 233.2056
1493.994, 88.82812
1495.034, 94.46484
1496.074, 118.1294
1497.114, 114.8159
1498.154, 108.5244
1499.194, 117.9087
1500.234, 103.0220
1501.273, 112.7446
1502.313, 139.5635
1503.352, 123.7036
1504.391, 135.4697
1505.430, 173.3740
1506.468, 162.3237
1507.507, 135.3120
1508.545, 112.8311
1509.584, 166.8394
1510.622, 94.55811
1511.660, 148.2144
1512.698, 136.8950
1513.735, 150.6045
1514.773, 136.3228
1515.810, 83.35254
1516.848, 85.10498
1517.885, 73.13086
1518.922, 126.3257
1519.958, 64.35498
1520.995, 109.3140
1522.032, 96.18604
1523.068, 220.9565
1524.104, 142.6406
1525.140, 161.1738
1526.176, 133.5298
1527.212, 121.4722
1528.248, 204.4429
1529.283, 84.28320
1530.318, 139.2002
1531.353, 23.75684
1532.389, 86.44678
1533.423, 121.8916
1534.458, 106.7065
1535.493, 160.0649
1536.527, 161.0830
1537.561, 65.48193
1538.596, 107.4033
1539.630, 77.33545
1540.663, 52.68994
1541.697, 32.09277
1542.731, 0.0000000E+00
##END=



