##NAMES=Augite
##RRUFFID=R070231
##IDEAL CHEMISTRY=(Ca,Mg,Fe^2+^,Fe^3+^)_2_(Si,Al)_2_O_6_
##LOCALITY=Old Goose Creek Quarry, Leesburg, Loudoun County, Virginia, USA
##OWNER=RRUFF
##SOURCE=Michael Scott
##DESCRIPTION=Very dark grey-green prismatic crystals frozen in quartz
##STATUS=The identification of this mineral is confirmed by single-crystal X-ray diffraction and chemical analysis.
##URL=rruff.info/R070231
##MEASURED CHEMISTRY=(Mg_0.44_Fe_0.37_Ca_0.17_Ti_0.01_Mn_0.01_)_Σ=1_(Si_0.98_Al_0.02_)_Σ=1_O_3_
##PIN_ID=M00250
##ORIENTATION=Laser parallel to (-1 0 -1). Fiducial mark perpendicular to laser is parallel to b [0 1 0]
143.6600, 0.0000000E+00
144.8940, 57.40723
146.1280, 301.2920
147.3620, 341.0059
148.5960, 96.12598
149.8300, 276.7021
151.0630, 434.5586
152.2960, 528.1113
153.5300, 185.0928
154.7620, 319.7607
155.9950, 231.9297
157.2280, 38.16992
158.4600, 29.62305
159.6920, 18.47461
160.9250, 10.98047
162.1560, 116.2236
163.3880, 178.1074
164.6200, 273.6465
165.8510, 185.9512
167.0820, 211.1895
168.3130, 239.4971
169.5440, 299.9941
170.7750, 419.7744
172.0050, 344.0732
173.2350, 441.0010
174.4650, 531.5742
175.6950, 561.9912
176.9250, 937.2656
178.1550, 928.1396
179.3840, 1144.683
180.6130, 1243.873
181.8420, 1409.286
183.0710, 1548.481
184.3000, 1607.597
185.5280, 1918.579
186.7570, 2101.427
187.9850, 2184.143
189.2130, 2163.731
190.4400, 2199.204
191.6680, 2107.362
192.8960, 1948.843
194.1230, 1819.027
195.3500, 1621.267
196.5770, 1343.295
197.8030, 1334.248
199.0300, 1193.760
200.2560, 1314.672
201.4830, 1224.808
202.7090, 1062.907
203.9340, 716.6982
205.1600, 322.0967
206.3860, 213.6621
207.6110, 43.58984
208.8360, 65.27148
210.0610, 3.817383
211.2860, 246.9434
212.5100, 183.0918
213.7350, 283.8838
214.9590, 287.6357
216.1830, 358.9395
217.4070, 363.9092
218.6310, 469.4453
219.8540, 520.5830
221.0780, 706.6758
222.3010, 683.3604
223.5240, 828.9902
224.7470, 956.4609
225.9690, 907.7109
227.1920, 1070.819
228.4140, 1088.827
229.6360, 1098.741
230.8580, 1051.588
232.0800, 1080.381
233.3020, 1031.337
234.5230, 1023.892
235.7440, 959.6533
236.9650, 933.4229
238.1860, 917.2002
239.4070, 865.9873
240.6280, 776.7910
241.8480, 782.6270
243.0680, 740.4785
244.2880, 810.3467
245.5080, 756.2256
246.7280, 676.1094
247.9470, 715.9736
249.1660, 786.7715
250.3860, 698.4795
251.6040, 680.1201
252.8230, 662.7080
254.0420, 514.2539
255.2600, 393.7676
256.4790, 529.2705
257.6970, 640.7734
258.9150, 505.9102
260.1320, 693.7842
261.3500, 288.2930
262.5670, 155.8027
263.7840, 25.68457
265.0010, 58.82910
266.2180, 42.34375
267.4350, 75.13867
268.6510, 32.62012
269.8680, 10.10059
271.0840, 40.41992
272.3000, 9.061523
273.5160, 107.4443
274.7310, 14.94629
275.9470, 21.44043
277.1620, 65.65332
278.3770, 72.30762
279.5920, 89.65137
280.8070, 220.9492
282.0210, 171.8613
283.2360, 253.4346
284.4500, 332.6924
285.6640, 303.4941
286.8780, 506.3477
288.0920, 526.3037
289.3050, 615.3389
290.5180, 781.4316
291.7320, 899.4258
292.9450, 1053.686
294.1570, 1214.488
295.3700, 1361.180
296.5830, 1515.318
297.7950, 1674.930
299.0070, 1899.176
300.2190, 2056.139
301.4310, 2319.887
302.6420, 2656.177
303.8540, 2782.827
305.0650, 3130.480
306.2760, 3572.030
307.4870, 3906.050
308.6980, 4426.189
309.9080, 4948.653
311.1190, 5517.974
312.3290, 6045.914
313.5390, 6624.794
314.7490, 7477.984
315.9580, 8350.744
317.1680, 9143.054
318.3770, 9979.212
319.5860, 10698.56
320.7950, 11396.38
322.0040, 11682.23
323.2130, 11920.50
324.4210, 12003.67
325.6290, 11698.09
326.8380, 11278.45
328.0460, 10564.75
329.2530, 9825.032
330.4610, 9147.305
331.6680, 8128.570
332.8760, 7400.953
334.0830, 6590.450
335.2890, 5956.118
336.4960, 5483.904
337.7030, 4910.579
338.9090, 4564.361
340.1150, 4200.074
341.3210, 4055.604
342.5270, 3782.464
343.7330, 3678.120
344.9380, 3647.556
346.1440, 3657.123
347.3490, 3775.298
348.5540, 3983.454
349.7590, 3804.938
350.9630, 4083.749
352.1680, 4079.025
353.3720, 4230.174
354.5760, 4361.504
355.7800, 4226.323
356.9840, 4203.677
358.1870, 4173.764
359.3910, 4036.273
360.5940, 3999.552
361.7970, 3820.674
363.0000, 3822.584
364.2030, 3689.957
365.4050, 3559.562
366.6080, 3475.964
367.8100, 3572.284
369.0120, 3508.029
370.2140, 3727.772
371.4150, 3883.512
372.6170, 4202.249
373.8180, 4420.986
375.0190, 4650.719
376.2200, 5025.453
377.4210, 5287.186
378.6220, 5860.918
379.8220, 6376.648
381.0230, 6835.378
382.2230, 7393.107
383.4230, 7912.832
384.6220, 8325.557
385.8220, 8913.282
387.0220, 9514.002
388.2210, 9628.723
389.4200, 9931.438
390.6190, 9964.151
391.8180, 9563.816
393.0160, 9036.525
394.2150, 8632.230
395.4130, 7847.935
396.6110, 7283.637
397.8090, 6476.323
399.0060, 5733.410
400.2040, 5041.006
401.4010, 4399.266
402.5980, 3757.848
403.7950, 3228.960
404.9920, 2718.646
406.1890, 2293.668
407.3860, 1814.571
408.5820, 1602.105
409.7780, 1242.420
410.9740, 994.6787
412.1700, 849.5254
413.3650, 654.9492
414.5610, 511.9346
415.7560, 448.2393
416.9510, 258.2676
418.1460, 113.8779
419.3410, 275.1104
420.5360, 175.3818
421.7300, 92.84961
422.9240, 70.35449
424.1180, 12.94141
425.3120, 62.91602
426.5060, 31.01758
427.7000, 51.29785
428.8930, 30.08789
430.0860, 32.61816
431.2790, 35.30566
432.4720, 17.06738
433.6650, 41.45508
434.8580, 22.87500
436.0500, 116.9023
437.2420, 47.80859
438.4340, 60.80078
439.6260, 101.8564
440.8180, 19.98926
442.0090, 42.15723
443.2010, 8.351563
444.3920, 10.28613
445.5830, 1.391602
446.7740, 88.05176
447.9640, 63.13770
449.1550, 33.77344
450.3450, 136.2607
451.5350, 119.3252
452.7250, 281.4414
453.9150, 289.7422
455.1050, 151.5000
456.2940, 334.4697
457.4830, 284.4189
458.6720, 459.4258
459.8610, 532.8496
461.0500, 481.6035
462.2390, 493.1904
463.4270, 519.2285
464.6150, 390.0771
465.8040, 386.8584
466.9910, 366.0137
468.1790, 332.5254
469.3670, 332.9121
470.5540, 365.4404
471.7410, 330.8457
472.9280, 306.7920
474.1150, 265.6484
475.3020, 214.0420
476.4890, 184.4492
477.6750, 134.8730
478.8610, 119.3066
480.0470, 7.248047
481.2330, 110.1914
482.4190, 125.6367
483.6040, 168.0869
484.7900, 88.54980
485.9750, 136.0107
487.1600, 186.4736
488.3450, 149.9277
489.5290, 273.3662
490.7140, 249.7842
491.8980, 327.1865
493.0820, 507.5732
494.2660, 536.9561
495.4500, 757.3311
496.6340, 815.7051
497.8170, 1114.075
499.0010, 1393.445
500.1840, 1680.809
501.3670, 1997.417
502.5500, 2255.517
503.7320, 2619.857
504.9150, 2972.188
506.0970, 3257.508
507.2790, 3256.815
508.4610, 3588.108
509.6430, 3444.385
510.8250, 3558.642
512.0060, 3284.880
513.1870, 3159.099
514.3680, 2963.298
515.5490, 2818.477
516.7300, 2725.635
517.9110, 2632.773
519.0910, 2531.650
520.2710, 2489.758
521.4510, 2367.062
522.6310, 2429.117
523.8110, 2370.150
524.9910, 2373.161
526.1700, 2502.150
527.3490, 2413.119
528.5280, 2342.064
529.7070, 2521.986
530.8860, 2408.888
532.0650, 2392.766
533.2430, 2348.619
534.4210, 2247.451
535.5990, 2145.259
536.7770, 2099.043
537.9550, 2043.805
539.1320, 1877.541
540.3100, 1883.254
541.4870, 1817.944
542.6640, 1798.615
543.8410, 1864.265
545.0170, 1921.889
546.1940, 1907.490
547.3700, 2182.065
548.5470, 2275.623
549.7230, 2383.161
550.8980, 2751.688
552.0740, 2916.198
553.2500, 3146.693
554.4250, 3362.183
555.6000, 3473.660
556.7750, 3548.121
557.9500, 3460.566
559.1250, 3370.983
560.2990, 2954.785
561.4730, 2772.258
562.6480, 2447.214
563.8220, 2121.893
564.9950, 2028.463
566.1690, 1682.782
567.3430, 1722.946
568.5160, 1489.309
569.6890, 1303.740
570.8620, 1161.078
572.0350, 1013.312
573.2070, 927.4238
574.3800, 927.6299
575.5520, 821.4551
576.7240, 745.6406
577.8960, 605.0742
579.0680, 532.8154
580.2400, 461.7559
581.4110, 322.0479
582.5830, 333.4707
583.7540, 295.9561
584.9250, 173.8916
586.0950, 186.1982
587.2660, 173.3662
588.4370, 164.3271
589.6070, 83.50879
590.7770, 26.35156
591.9470, 48.41016
593.1170, 21.88867
594.2860, 29.11523
595.4560, 122.1182
596.6250, 87.46289
597.7940, 64.59375
598.9630, 3.938477
600.1320, 0.8417970
601.3000, 1.491211
602.4690, 73.45312
603.6370, 162.2744
604.8050, 7.533203
605.9730, 233.2080
607.1410, 225.2812
608.3090, 218.0762
609.4760, 393.3584
610.6430, 300.2891
611.8100, 448.8682
612.9770, 593.8223
614.1440, 765.1543
615.3110, 764.8496
616.4770, 784.5869
617.6430, 870.5059
618.8090, 858.9521
619.9750, 1034.640
621.1410, 1130.766
622.3070, 1372.443
623.4720, 1414.704
624.6370, 1717.336
625.8020, 1845.692
626.9670, 1954.730
628.1320, 2029.797
629.2970, 2341.767
630.4610, 2387.778
631.6250, 2631.747
632.7890, 2762.492
633.9530, 3011.881
635.1170, 3020.719
636.2810, 3234.514
637.4440, 3383.266
638.6070, 3514.974
639.7700, 3862.637
640.9330, 4172.433
642.0960, 4418.010
643.2590, 4720.543
644.4210, 5174.031
645.5830, 5820.477
646.7450, 6470.927
647.9070, 7145.236
649.0690, 8174.551
650.2310, 9245.821
651.3920, 10355.05
652.5530, 11832.23
653.7140, 13497.37
654.8750, 15210.47
656.0360, 17240.52
657.1970, 19267.53
658.3570, 21646.49
659.5170, 24124.42
660.6770, 26510.29
661.8370, 28798.13
662.9970, 30557.93
664.1570, 31337.68
665.3160, 31421.44
666.4750, 30416.10
667.6340, 28967.73
668.7930, 26635.30
669.9520, 24527.84
671.1110, 22272.34
672.2690, 19699.79
673.4270, 17677.20
674.5850, 15356.57
675.7430, 13841.90
676.9010, 11949.18
678.0590, 10577.42
679.2160, 9232.622
680.3730, 7915.785
681.5300, 6636.902
682.6870, 5812.980
683.8440, 5035.016
685.0010, 4286.010
686.1570, 3829.965
687.3130, 3382.878
688.4690, 3029.751
689.6250, 2700.583
690.7810, 2364.376
691.9370, 2124.127
693.0920, 1822.840
694.2470, 1754.513
695.4020, 1613.144
696.5570, 1467.736
697.7120, 1450.289
698.8670, 1148.802
700.0210, 1223.278
701.1750, 1051.715
702.3290, 1019.114
703.4830, 1007.478
704.6370, 942.8057
705.7910, 961.0986
706.9440, 765.3672
708.0970, 733.6006
709.2510, 568.7998
710.4030, 581.9707
711.5560, 496.1123
712.7090, 430.2246
713.8610, 539.3037
715.0140, 264.3574
716.1660, 344.3779
717.3180, 174.3857
718.4690, 341.3662
719.6210, 174.3242
720.7730, 304.2666
721.9240, 53.17969
723.0750, 21.04980
724.2260, 84.39453
725.3770, 6.4452998E-02
726.5270, 58.38574
727.6780, 126.3506
728.8280, 81.60742
729.9780, 88.76855
731.1280, 39.56445
732.2780, 11.46680
733.4280, 65.40039
734.5770, 76.22656
735.7260, 19.12988
736.8760, 130.0615
738.0250, 17.13184
739.1730, 102.6670
740.3220, 117.6074
741.4700, 135.4580
742.6190, 1.841797
743.7670, 47.08105
744.9150, 49.68848
746.0630, 84.60059
747.2100, 47.03418
748.3580, 40.95215
749.5050, 152.2441
750.6520, 24.59180
751.7990, 89.60156
752.9460, 41.11914
754.0930, 87.18457
755.2390, 110.5713
756.3860, 93.05078
757.5320, 100.6084
758.6780, 77.24902
759.8240, 90.60156
760.9690, 85.73145
762.1150, 107.5811
763.2600, 79.51074
764.4060, 73.97949
765.5510, 39.55371
766.6950, 5.646484
767.8400, 27.23828
768.9850, 25.10449
770.1290, 29.95312
771.2730, 12.21387
772.4170, 13.59473
773.5610, 111.3896
774.7050, 41.16797
775.8480, 107.9316
776.9920, 136.6816
778.1350, 9.582031
779.2780, 114.1377
780.4210, 72.67480
781.5640, 141.5391
782.7060, 102.2217
783.8490, 185.8945
784.9910, 212.5547
786.1330, 191.2061
787.2750, 214.9775
788.4170, 223.0508
789.5580, 150.1045
790.7000, 216.7207
791.8410, 109.3291
792.9820, 28.92969
794.1230, 110.5244
795.2640, 84.11230
796.4040, 103.4854
797.5450, 52.27344
798.6850, 142.8467
799.8250, 84.41699
800.9650, 71.98242
802.1050, 3.453125
803.2450, 16.60742
804.3840, 134.6660
805.5230, 100.2227
806.6630, 81.78027
807.8020, 230.3350
808.9400, 281.8916
810.0790, 251.4482
811.2170, 366.0068
812.3560, 424.5664
813.4940, 407.1289
814.6320, 470.6943
815.7700, 465.2627
816.9070, 485.8350
818.0450, 716.4092
819.1820, 786.9912
820.3190, 895.5762
821.4560, 887.1670
822.5930, 972.7637
823.7300, 995.3662
824.8670, 1084.977
826.0030, 1210.594
827.1390, 1177.218
828.2750, 1182.851
829.4110, 1155.492
830.5470, 1097.142
831.6820, 1082.651
832.8180, 1027.471
833.9530, 1012.150
835.0880, 936.8428
836.2230, 898.5439
837.3580, 862.2979
838.4920, 825.9814
839.6270, 776.7207
840.7610, 665.4707
841.8950, 594.2354
843.0290, 543.0137
844.1630, 499.8066
845.2960, 533.6133
846.4300, 450.4346
847.5630, 507.2715
848.6960, 455.1250
849.8290, 305.9941
850.9620, 425.8779
852.0940, 495.7803
853.2270, 552.7002
854.3590, 475.3975
855.4910, 479.3525
856.6230, 613.1123
857.7550, 567.1045
858.8870, 627.2432
860.0180, 508.0518
861.1500, 576.4365
862.2810, 441.2197
863.4120, 606.8838
864.5430, 454.9326
865.6730, 447.8955
866.8040, 519.6309
867.9340, 405.5723
869.0640, 327.4209
870.1940, 537.0039
871.3240, 382.1543
872.4540, 342.0117
873.5830, 481.2412
874.7130, 372.7617
875.8420, 369.1289
876.9710, 456.7852
878.1000, 427.7080
879.2290, 423.1602
880.3570, 396.0361
881.4860, 515.5762
882.6140, 372.3896
883.7420, 498.7119
884.8700, 302.3828
885.9980, 462.4180
887.1250, 539.0791
888.2530, 544.4121
889.3800, 602.7910
890.5070, 596.7383
891.6340, 590.7021
892.7610, 557.4912
893.8880, 549.9951
895.0140, 503.1562
896.1400, 585.6777
897.2670, 489.7012
898.3930, 607.5488
899.5180, 362.3477
900.6440, 552.6650
901.7700, 454.2246
902.8950, 526.7695
904.0200, 536.7041
905.1450, 669.7109
906.2700, 738.7783
907.3950, 761.6104
908.5190, 878.8184
909.6440, 859.0967
910.7680, 949.4229
911.8920, 918.8145
913.0160, 905.2910
914.1400, 982.6416
915.2630, 1094.237
916.3870, 1111.888
917.5100, 1166.643
918.6330, 1172.445
919.7560, 1234.358
920.8790, 1454.320
922.0010, 1367.364
923.1240, 1108.467
924.2460, 1113.620
925.3680, 1251.834
926.4900, 1330.111
927.6120, 1277.452
928.7340, 1191.853
929.8550, 1095.326
930.9760, 1118.879
932.0980, 1230.515
933.2190, 1091.221
934.3390, 1168.993
935.4600, 1068.822
936.5810, 1086.704
937.7010, 950.6055
938.8210, 1006.646
939.9410, 951.7451
941.0610, 1076.926
942.1810, 1075.160
943.3010, 1160.449
944.4200, 1158.812
945.5390, 1152.240
946.6580, 1181.762
947.7770, 1215.338
948.8960, 1287.968
950.0150, 1293.655
951.1330, 1219.395
952.2510, 1465.188
953.3690, 1230.035
954.4870, 1314.936
955.6050, 1281.889
956.7230, 1427.896
957.8400, 1498.957
958.9580, 1687.072
960.0750, 1661.245
961.1920, 1680.473
962.3090, 1787.754
963.4250, 1955.091
964.5420, 1991.475
965.6580, 2298.932
966.7740, 2231.434
967.8900, 2370.986
969.0060, 2671.596
970.1220, 2937.259
971.2380, 2959.974
972.3530, 3235.742
973.4680, 3608.565
974.5830, 3946.442
975.6980, 4229.371
976.8130, 4461.355
977.9280, 4873.392
979.0420, 5374.151
980.1560, 5990.625
981.2710, 6648.823
982.3850, 7380.081
983.4980, 8256.394
984.6120, 9481.758
985.7260, 10637.17
986.8390, 12019.64
987.9520, 13172.17
989.0650, 14793.74
990.1780, 16425.38
991.2910, 17771.06
992.4030, 19263.81
993.5160, 20214.62
994.6280, 21526.49
995.7400, 22233.46
996.8520, 22863.49
997.9640, 23389.60
999.0750, 24019.80
1000.187, 24864.09
1001.298, 26158.48
1002.409, 27517.95
1003.520, 29460.49
1004.631, 31440.08
1005.741, 33956.77
1006.852, 36754.51
1007.962, 39549.36
1009.072, 41374.28
1010.182, 42533.29
1011.292, 43324.38
1012.402, 42181.57
1013.511, 39723.83
1014.621, 35943.15
1015.730, 31999.52
1016.839, 27767.96
1017.948, 23412.48
1019.056, 19663.64
1020.165, 16634.42
1021.273, 13895.91
1022.382, 12110.69
1023.490, 10476.05
1024.598, 9180.736
1025.706, 8475.483
1026.813, 7552.521
1027.921, 6984.729
1029.028, 6600.947
1030.135, 5958.922
1031.242, 5902.715
1032.349, 5431.960
1033.456, 5205.422
1034.562, 5230.535
1035.668, 5097.256
1036.775, 5115.352
1037.881, 4967.676
1038.987, 4872.238
1040.092, 5068.205
1041.198, 4702.131
1042.303, 4788.648
1043.408, 4553.550
1044.514, 4556.010
1045.618, 4128.127
1046.723, 3984.150
1047.828, 3819.902
1048.932, 3315.562
1050.037, 3190.189
1051.141, 3044.240
1052.245, 2638.788
1053.349, 2610.035
1054.452, 2278.295
1055.556, 2206.980
1056.659, 2067.170
1057.762, 1776.443
1058.865, 1704.994
1059.968, 1424.270
1061.071, 1476.011
1062.174, 1415.870
1063.276, 1400.093
1064.378, 1300.982
1065.480, 1206.797
1066.582, 1150.740
1067.684, 1022.546
1068.786, 1011.354
1069.887, 1004.554
1070.988, 979.8838
1072.090, 899.5605
1073.191, 851.8457
1074.291, 807.9746
1075.392, 709.7080
1076.493, 873.2217
1077.593, 844.1797
1078.693, 970.4150
1079.793, 850.3877
1080.893, 952.2451
1081.993, 1110.527
1083.092, 1069.169
1084.192, 1012.044
1085.291, 786.8252
1086.390, 789.5000
1087.489, 800.2988
1088.588, 679.9961
1089.686, 617.7441
1090.785, 658.8164
1091.883, 682.3721
1092.981, 637.1445
1094.079, 573.6338
1095.177, 591.5967
1096.275, 481.0996
1097.373, 477.1826
1098.470, 489.1113
1099.567, 627.8818
1100.664, 451.9834
1101.761, 487.7861
1102.858, 429.5713
1103.954, 393.5850
1105.051, 567.3066
1106.147, 425.5176
1107.243, 493.3154
1108.339, 623.4092
1109.435, 413.2100
1110.531, 430.2148
1111.626, 322.1895
1112.722, 581.1230
1113.817, 550.0352
1114.912, 506.8379
1116.007, 501.6396
1117.101, 524.8613
1118.196, 592.2734
1119.290, 613.5957
1120.385, 683.7031
1121.479, 738.5430
1122.573, 549.4463
1123.666, 653.5938
1124.760, 548.4512
1125.853, 450.3145
1126.947, 522.3965
1128.040, 420.1572
1129.133, 358.9121
1130.226, 363.6602
1131.318, 230.9297
1132.411, 116.7432
1133.503, 323.4648
1134.596, 197.2812
1135.688, 201.9844
1136.780, 136.7021
1137.871, 229.3828
1138.963, 104.0527
1140.054, 233.7373
1141.146, 263.3818
1142.237, 193.0137
1143.328, 104.6309
1144.419, 31.23242
1145.509, 209.8203
1146.600, 126.3926
1147.690, 72.95508
1148.780, 110.5010
1149.870, 64.96973
1150.960, 4.475586
1152.050, 208.0010
1153.139, 59.35156
1154.229, 16.31543
1155.318, 41.00879
1156.407, 38.74121
1157.496, 72.89258
1158.585, 72.26270
1159.674, 85.23438
1160.762, 62.19434
1161.850, 56.21094
1162.939, 11.28516
1164.027, 98.60742
1165.114, 195.5254
1166.202, 138.7920
1167.290, 142.1631
1168.377, 79.64355
1169.464, 33.20215
1170.551, 148.8145
1171.638, 29.45703
1172.725, 57.29980
1173.812, 59.87305
1174.898, 35.98145
1175.984, 107.8975
1177.071, 66.08496
1178.157, 49.95996
1179.242, 19.92090
1180.328, 171.2344
1181.414, 122.4727
1182.499, 181.8516
1183.584, 79.67969
1184.669, 77.82031
1185.754, 13.58496
1186.839, 149.9453
1187.924, 7.274414
1189.008, 4.552734
1190.092, 5.223633
1191.177, 23.94043
1192.260, 26.94141
1193.344, 62.89746
1194.428, 55.94629
1195.512, 21.27539
1196.595, 5.001953
1197.678, 45.42871
1198.761, 81.11230
1199.844, 21.24023
1200.927, 61.67090
1202.009, 52.80176
1203.092, 43.77051
1204.174, 77.56543
1205.256, 132.8633
1206.338, 17.87598
1207.420, 27.30664
1208.502, 90.56836
1209.583, 106.4385
1210.665, 133.4062
1211.746, 89.33691
1212.827, 235.2256
1213.908, 145.0801
1214.988, 172.8965
1216.069, 235.6768
1217.149, 178.4199
1218.230, 256.1260
1219.310, 199.7959
1220.390, 130.4297
1221.470, 96.02344
1222.549, 117.5742
1223.629, 157.0820
1224.708, 169.5498
1225.787, 107.9814
1226.866, 148.3672
1227.945, 188.7139
1229.024, 293.0215
1230.103, 154.2920
1231.181, 228.5215
1232.259, 302.7139
1233.337, 200.8682
1234.415, 294.9844
1235.493, 151.0615
1236.571, 283.0967
1237.648, 175.0957
1238.726, 281.0547
1239.803, 200.9883
1240.880, 209.8828
1241.957, 221.7373
1243.034, 74.55273
1244.110, 272.3105
1245.187, 328.0293
1246.263, 317.7109
1247.339, 174.3525
1248.415, 217.9531
1249.491, 189.5322
1250.566, 124.0693
1251.642, 239.5586
1252.717, 111.0088
1253.793, 251.4072
1254.868, 249.7686
1255.943, 198.0898
1257.017, 321.3701
1258.092, 348.6113
1259.166, 332.8135
1260.241, 171.9756
1261.315, 260.0947
1262.389, 289.1729
1263.462, 257.2148
1264.536, 419.2158
1265.610, 278.1777
1266.683, 349.1016
1267.756, 294.9854
1268.829, 280.8301
1269.902, 374.7158
1270.975, 402.4814
1272.048, 334.2080
1273.120, 361.8965
1274.192, 358.5938
1275.264, 380.2080
1276.336, 345.1797
1277.408, 302.7168
1278.480, 354.2148
1279.551, 448.1592
1280.623, 433.4551
1281.694, 377.0566
1282.765, 492.4023
1283.836, 439.1807
1284.907, 367.6670
1285.977, 410.1348
1287.048, 429.3438
1288.118, 388.4209
1289.188, 442.5156
1290.258, 431.7373
1291.328, 449.8018
1292.398, 434.6357
1293.467, 472.6123
1294.537, 428.9648
1295.606, 373.7207
1296.675, 394.1094
1297.744, 370.2725
1298.813, 356.2021
1299.882, 286.2881
1300.950, 395.7432
1302.018, 454.7871
1303.086, 475.0996
1304.155, 318.6816
1305.222, 381.2236
1306.290, 362.2441
1307.358, 334.8721
1308.425, 436.3428
1309.492, 295.9355
1310.559, 396.0449
1311.626, 391.6680
1312.693, 442.2295
1313.760, 395.5977
1314.826, 382.3916
1315.893, 460.8936
1316.959, 487.3584
1318.025, 435.0449
1319.091, 485.2100
1320.157, 352.5195
1321.222, 378.4932
1322.288, 471.9219
1323.353, 419.7803
1324.418, 470.0264
1325.483, 426.9326
1326.548, 476.9219
1327.612, 494.5869
1328.677, 397.8545
1329.741, 461.4893
1330.806, 294.3721
1331.870, 436.9434
1332.934, 387.2656
1333.997, 422.9775
1335.061, 313.9053
1336.124, 482.3818
1337.188, 255.5742
1338.251, 471.0234
1339.314, 436.5820
1340.377, 380.7080
1341.439, 436.4688
1342.502, 345.9873
1343.564, 317.5938
1344.627, 334.2979
1345.689, 442.8691
1346.751, 504.5371
1347.813, 361.1436
1348.874, 534.4170
1349.936, 292.1973
1350.997, 404.2627
1352.058, 336.5811
1353.119, 428.9268
1354.180, 346.7207
1355.241, 231.9258
1356.301, 405.2744
1357.362, 207.7695
1358.422, 435.9248
1359.482, 433.3672
1360.542, 415.8154
1361.602, 360.0938
1362.662, 304.5020
1363.721, 298.4795
1364.781, 268.0576
1365.840, 209.1855
1366.899, 241.8730
1367.958, 181.9941
1369.017, 291.2998
1370.075, 285.4658
1371.134, 227.6377
1372.192, 374.9072
1373.250, 200.3008
1374.308, 379.5615
1375.366, 276.5674
1376.424, 241.9912
1377.481, 252.8877
1378.539, 301.0703
1379.596, 339.3027
1380.653, 274.1133
1381.710, 209.8408
1382.767, 311.9053
1383.824, 162.7373
1384.880, 200.8740
1385.937, 171.0020
1386.993, 215.1191
1388.049, 201.7373
1389.105, 197.7578
1390.161, 404.1260
1391.216, 207.2881
1392.272, 393.3672
1393.327, 177.4111
1394.382, 163.4756
1395.437, 179.5332
1396.492, 66.55566
1397.547, 220.5996
1398.601, 309.7354
1399.656, 174.7676
1400.710, 72.76953
1401.764, 259.7910
1402.818, 23.19238
1403.872, 271.8145
1404.925, 149.0859
1405.979, 34.91602
1407.032, 265.1299
1408.085, 152.2441
1409.139, 161.2383
1410.191, 161.6787
1411.244, 286.6680
1412.297, 163.5957
1413.349, 232.5264
1414.402, 277.4697
1415.454, 218.4160
1416.506, 163.3809
1417.558, 161.3594
1418.609, 148.3496
1419.661, 170.3320
1420.712, 201.4170
1421.764, 178.4434
1422.815, 89.50488
1423.866, 201.6006
1424.916, 226.6904
1425.967, 309.7881
1427.018, 241.1836
1428.068, 282.2969
1429.118, 300.4902
1430.168, 286.6377
1431.218, 310.7559
1432.268, 291.9229
1433.318, 233.1748
1434.367, 264.3281
1435.416, 349.5225
1436.465, 261.7217
1437.514, 433.9033
1438.563, 336.1387
1439.612, 283.3633
1440.661, 303.8057
1441.709, 376.0488
1442.757, 354.3691
1443.805, 356.6143
1444.853, 430.6309
1445.901, 363.6270
1446.949, 236.1592
1447.996, 376.4287
1449.044, 219.7881
1450.091, 351.1875
1451.138, 254.6025
1452.185, 282.0977
1453.232, 384.6504
1454.278, 177.2197
1455.325, 356.8721
1456.371, 353.5674
1457.417, 200.2666
1458.463, 242.9619
1459.509, 185.6553
1460.555, 273.3457
1461.601, 223.0400
1462.646, 263.7461
1463.691, 219.4561
1464.737, 207.1738
1465.782, 155.8955
1466.826, 143.6201
1467.871, 254.3457
1468.916, 129.0791
1469.960, 168.7998
1471.004, 109.5088
1472.048, 225.2363
1473.092, 67.98145
1474.136, 87.73340
1475.180, 96.45020
1476.223, 94.18555
1477.267, 160.9443
1478.310, 66.71191
1479.353, 175.4902
1480.396, 300.2832
1481.439, 100.0918
1482.481, 118.9102
1483.524, 217.7441
1484.566, 62.47461
1485.608, 75.33594
1486.650, 157.1406
1487.692, 80.94727
1488.734, 133.8174
1489.775, 3.552734
1490.817, 37.41602
1491.858, 60.70703
1492.899, 57.18945
1493.940, 15.10742
1494.981, 147.0479
1496.022, 128.0088
1497.062, 135.9922
1498.103, 23.99609
1499.143, 53.02051
1500.183, 22.06348
1501.223, 74.87305
1502.263, 134.2119
1503.302, 50.31738
1504.342, 20.44629
1505.381, 157.5977
1506.420, 12.23730
1507.459, 235.9404
1508.498, 114.1436
1509.537, 68.38379
1510.576, 93.65625
1511.614, 66.95410
1512.652, 54.27148
1513.691, 91.60645
1514.729, 6.958984
1515.767, 22.32812
1516.804, 71.71582
1517.842, 111.1221
1518.879, 68.54688
1519.917, 116.9902
1520.954, 92.45508
1521.991, 94.94238
1523.028, 47.45215
1524.064, 134.9854
1525.101, 10.43359
1526.137, 96.55078
1527.173, 157.7637
1528.210, 175.6523
1529.245, 20.37305
1530.281, 88.82129
1531.317, 66.88770
1532.352, 31.49609
1533.388, 130.7520
1534.423, 0.6494140
1535.458, 97.97949
1536.493, 88.67285
1537.528, 136.5859
1538.562, 93.82031
1539.597, 76.99414
1540.631, 152.7510
1541.665, 178.5352
1542.700, 125.6318
1543.733, 173.9678
1544.767, 39.84082
1545.801, 67.45312
1546.834, 164.7754
1547.868, 115.5869
1548.901, 161.6758
1549.934, 174.5518
1550.967, 11.94922
1551.999, 151.5391
1553.032, 158.8984
1554.064, 35.31543
1555.097, 166.3916
1556.129, 61.65527
1557.161, 40.94141
1558.193, 82.52051
1559.224, 58.83008
1560.256, 139.3926
1561.287, 116.5762
1562.318, 88.24707
1563.350, 97.32812
1564.380, 5.155273
1565.411, 99.12695
1566.442, 63.86328
1567.472, 218.5947
1568.503, 104.4648
1569.533, 5.943359
1570.563, 0.0000000E+00
##END=



