##NAMES=Augite
##RRUFFID=R061086
##IDEAL CHEMISTRY=(Ca,Mg,Fe^2+^,Fe^3+^)_2_(Si,Al)_2_O_6_
##LOCALITY=Boreslav, Teplitz, Bohemia, Czech Republic
##OWNER=RRUFF
##SOURCE=Michael Scott
##DESCRIPTION=Black to dark green tabular euhedral crystal
##STATUS=The identification of this mineral has been confirmed by X-ray diffraction and chemical analysis
##URL=rruff.info/R061086
##MEASURED CHEMISTRY=(Ca_0.88_Mg_0.83_Fe_0.13_Al_0.08_Na_0.04_Ti_0.03_Cr_0.01_)_Σ=2_(Si_1.89_Al_0.11_)_Σ=2_O_6_
##PIN_ID=M00244
##ORIENTATION=Laser parallel to -b* (0 -1 0). Fiducial mark perpendicular to laser is parallel to c [0 0 1]
161.2560, 0.0000000E+00
162.4870, 12.50146
163.7180, 29.20679
164.9490, 28.07935
166.1800, 98.57178
167.4110, 2.965820
168.6410, 92.81738
169.8720, 122.8206
171.1020, 128.5859
172.3320, 123.6953
173.5620, 83.86328
174.7910, 170.5820
176.0210, 225.7759
177.2500, 137.8213
178.4790, 250.9890
179.7080, 333.4768
180.9370, 200.4343
182.1650, 185.9741
183.3940, 217.1030
184.6220, 232.5300
185.8500, 274.4973
187.0780, 257.0559
188.3050, 260.2866
189.5330, 234.5627
190.7600, 253.4961
191.9870, 274.5427
193.2140, 273.6970
194.4410, 249.9543
195.6680, 240.3115
196.8940, 237.7646
198.1200, 171.3123
199.3470, 158.9526
200.5720, 129.6816
201.7980, 114.4939
203.0240, 66.58154
204.2490, 58.99048
205.4740, 20.59839
206.6990, 3.516113
207.9240, 3.301270
209.1490, 89.05347
210.3740, 23.74536
211.5980, 43.61743
212.8220, 49.03394
214.0460, 52.50342
215.2700, 108.0383
216.4930, 39.61035
217.7170, 25.23340
218.9400, 136.9062
220.1630, 112.6284
221.3860, 32.39868
222.6090, 184.2168
223.8320, 224.0823
225.0540, 198.9937
226.2760, 247.9514
227.4980, 264.9541
228.7200, 275.0015
229.9420, 200.0923
231.1630, 221.2263
232.3850, 153.4028
233.6060, 135.6360
234.8270, 163.9512
236.0480, 82.30518
237.2690, 132.6885
238.4890, 78.09131
239.7090, 103.5247
240.9290, 88.98877
242.1490, 126.4836
243.3690, 118.0085
244.5890, 158.5632
245.8080, 121.1475
247.0270, 245.7576
248.2470, 205.4238
249.4650, 362.0435
250.6840, 212.7207
251.9030, 260.4221
253.1210, 313.1477
254.3390, 241.8975
255.5570, 230.6721
256.7750, 202.4587
257.9930, 293.2456
259.2100, 270.8152
260.4280, 234.3606
261.6450, 277.4653
262.8620, 137.2583
264.0790, 70.07983
265.2950, 46.92969
266.5120, 29.80811
267.7280, 25.70166
268.9440, 0.6489260
270.1600, 53.61084
271.3760, 38.60010
272.5920, 44.61646
273.8070, 45.65967
275.0220, 53.63965
276.2370, 62.82593
277.4520, 81.94849
278.6670, 121.0967
279.8820, 140.6680
281.0960, 146.0720
282.3100, 169.6941
283.5240, 148.9434
284.7380, 139.2163
285.9520, 143.5142
287.1650, 168.3848
288.3780, 275.1804
289.5920, 246.5491
290.8050, 286.9404
292.0170, 330.3547
293.2300, 331.7913
294.4430, 384.2502
295.6550, 500.7307
296.8670, 504.2334
298.0790, 607.7571
299.2910, 574.3020
300.5020, 624.8669
301.7140, 647.4524
302.9250, 739.0579
304.1360, 745.1733
305.3470, 932.2915
306.5580, 966.9910
307.7680, 1087.702
308.9780, 1120.556
310.1890, 1293.187
311.3990, 1435.665
312.6090, 1525.221
313.8180, 1602.169
315.0280, 1675.793
316.2370, 1906.442
317.4460, 2012.111
318.6550, 2251.800
319.8640, 2392.502
321.0730, 2543.213
322.2810, 2677.943
323.4890, 2802.683
324.6980, 2917.438
325.9060, 2943.215
327.1130, 3028.013
328.3210, 2924.825
329.5280, 2991.594
330.7360, 2947.350
331.9430, 2708.927
333.1500, 2709.536
334.3560, 2501.171
335.5630, 2428.833
336.7690, 2351.521
337.9760, 2257.236
339.1820, 2186.976
340.3870, 2061.739
341.5930, 2111.528
342.7990, 1969.338
344.0040, 1936.172
345.2090, 1943.027
346.4140, 2001.904
347.6190, 2013.802
348.8240, 1962.721
350.0280, 1992.660
351.2330, 2074.619
352.4370, 2169.180
353.6410, 2190.429
354.8440, 2211.396
356.0480, 2191.560
357.2520, 2169.615
358.4550, 2115.688
359.6580, 2105.779
360.8610, 2002.887
362.0640, 2066.013
363.2660, 1956.157
364.4690, 1938.317
365.6710, 1892.494
366.8730, 1823.897
368.0750, 1805.897
369.2770, 1714.124
370.4780, 1711.814
371.6800, 1681.565
372.8810, 1686.895
374.0820, 1641.182
375.2830, 1618.484
376.4830, 1570.801
377.6840, 1729.132
378.8840, 1830.477
380.0840, 1886.836
381.2840, 1999.208
382.4840, 2142.738
383.6840, 2273.481
384.8830, 2475.403
386.0830, 2626.828
387.2820, 2818.264
388.4810, 3054.714
389.6800, 3106.175
390.8780, 3228.648
392.0770, 3186.133
393.2750, 3210.631
394.4730, 3054.139
395.6710, 2902.659
396.8690, 2620.190
398.0660, 2421.733
399.2640, 2043.286
400.4610, 1734.850
401.6580, 1482.424
402.8550, 1227.010
404.0520, 1082.606
405.2490, 859.2124
406.4450, 713.8298
407.6410, 649.4575
408.8370, 509.0955
410.0330, 474.7432
411.2290, 369.4009
412.4240, 299.0679
413.6200, 319.7397
414.8150, 245.4258
416.0100, 191.1206
417.2050, 200.8245
418.4000, 157.5369
419.5940, 105.2581
420.7880, 183.9875
421.9830, 79.72510
423.1770, 125.4705
424.3700, 86.22412
425.5640, 100.9851
426.7580, 75.75342
427.9510, 52.52905
429.1440, 105.3118
430.3370, 46.10107
431.5300, 49.89746
432.7220, 92.70020
433.9150, 60.50952
435.1070, 37.32495
436.2990, 3.146484
437.4910, 51.97363
438.6830, 40.94678
439.8750, 9.645508
441.0660, 60.48950
442.2570, 13.33862
443.4480, 21.80542
444.6390, 18.94604
445.8300, 15.92212
447.0210, 32.19263
448.2110, 13.27026
449.4010, 78.24585
450.5910, 13.91406
451.7810, 16.92017
452.9710, 1.224121
454.1610, 21.55542
455.3500, 29.67480
456.5390, 41.03369
457.7280, 48.09741
458.9170, 69.81665
460.1060, 102.3914
461.2940, 122.4248
462.4830, 130.2759
463.6710, 178.3098
464.8590, 182.3206
466.0470, 178.2349
467.2350, 174.3333
468.4220, 175.1038
469.6090, 129.4546
470.7970, 172.7458
471.9840, 180.7952
473.1700, 130.3091
474.3570, 144.1113
475.5440, 193.4204
476.7300, 135.9214
477.9160, 177.5867
479.1020, 135.9934
480.2880, 112.9385
481.4740, 179.3428
482.6590, 234.7944
483.8440, 152.4214
485.0300, 193.8662
486.2140, 214.2612
487.3990, 181.6538
488.5840, 216.0437
489.7680, 203.3770
490.9530, 230.8135
492.1370, 184.1931
493.3210, 265.5691
494.5040, 234.9500
495.6880, 284.3284
496.8720, 266.7063
498.0550, 359.1052
499.2380, 417.5076
500.4210, 445.9053
501.6040, 519.2976
502.7860, 549.6846
503.9690, 684.0662
505.1510, 727.4421
506.3330, 875.8123
507.5150, 881.1760
508.6970, 823.5337
509.8780, 834.8850
511.0600, 762.2295
512.2410, 739.5674
513.4220, 642.8979
514.6030, 736.2214
515.7840, 602.5376
516.9640, 552.8462
518.1440, 651.1475
519.3250, 675.4404
520.5050, 650.7256
521.6850, 665.0020
522.8640, 719.2703
524.0440, 717.5303
525.2230, 644.7812
526.4020, 738.0232
527.5820, 688.2563
528.7600, 732.4802
529.9390, 804.6943
531.1180, 974.8992
532.2960, 885.0945
533.4740, 878.2795
534.6520, 1014.455
535.8300, 856.6196
537.0080, 986.7744
538.1850, 829.9189
539.3630, 880.0525
540.5400, 870.1750
541.7170, 821.2866
542.8940, 786.3875
544.0700, 745.4766
545.2470, 748.5547
546.4230, 733.6213
547.5990, 654.6760
548.7750, 776.7188
549.9510, 697.7500
551.1270, 709.7686
552.3020, 632.7754
553.4780, 664.7695
554.6530, 761.7510
555.8280, 683.7200
557.0030, 716.6763
558.1770, 662.6196
559.3520, 718.5496
560.5260, 676.4663
561.7000, 676.3701
562.8740, 622.2600
564.0480, 615.1365
565.2220, 571.9995
566.3950, 551.8481
567.5680, 649.6831
568.7420, 497.5039
569.9150, 562.3105
571.0870, 490.1028
572.2600, 454.8806
573.4320, 367.6440
574.6050, 430.3926
575.7770, 384.1265
576.9490, 320.8452
578.1210, 408.5491
579.2920, 322.2375
580.4640, 286.9111
581.6350, 275.5691
582.8060, 278.2119
583.9770, 188.0530
585.1480, 135.3999
586.3190, 175.6028
587.4890, 114.9336
588.6590, 79.60474
589.8290, 60.01343
590.9990, 45.20776
592.1690, 8.672363
593.3390, 29.13477
594.5080, 12.74365
595.6770, 60.41016
596.8470, 42.27686
598.0160, 63.54980
599.1840, 22.75366
600.3530, 2.325195
601.5210, 0.9716800
602.6900, 25.81934
603.8580, 12.22168
605.0260, 23.01270
606.1930, 30.77490
607.3610, 28.70825
608.5280, 15.47461
609.6960, 25.62891
610.8630, 84.63477
612.0300, 96.19067
613.1970, 77.43408
614.3630, 114.2229
615.5300, 85.68555
616.6960, 150.1155
617.8620, 124.5203
619.0280, 175.8977
620.1940, 103.2510
621.3590, 170.5745
622.5250, 157.8735
623.6900, 126.1472
624.8550, 157.3940
626.0200, 199.6162
627.1850, 250.8137
628.3490, 322.9863
629.5140, 294.1348
630.6780, 362.2585
631.8420, 444.3579
633.0060, 430.4333
634.1700, 521.4839
635.3330, 516.5098
636.4970, 525.5112
637.6600, 644.4883
638.8230, 707.4409
639.9860, 787.3689
641.1490, 934.2722
642.3110, 1013.151
643.4740, 1125.005
644.6360, 1260.835
645.7980, 1408.808
646.9600, 1585.421
648.1220, 1794.177
649.2840, 2051.910
650.4450, 2338.618
651.6060, 2641.302
652.7670, 3020.961
653.9280, 3451.596
655.0890, 4051.208
656.2500, 4730.795
657.4100, 5393.358
658.5700, 6091.896
659.7300, 6747.412
660.8900, 7892.905
662.0500, 8836.370
663.2100, 9633.817
664.3690, 10275.24
665.5280, 10589.63
666.6880, 10512.01
667.8460, 10026.36
669.0050, 9230.685
670.1640, 8440.988
671.3220, 7458.269
672.4810, 6399.527
673.6390, 5589.763
674.7970, 4864.973
675.9540, 4196.163
677.1120, 3597.328
678.2690, 3153.472
679.4270, 2636.594
680.5840, 2232.692
681.7410, 1900.769
682.8980, 1744.823
684.0540, 1553.855
685.2110, 1396.865
686.3670, 1239.420
687.5230, 1091.967
688.6790, 949.7654
689.8350, 829.6887
690.9900, 719.5906
692.1460, 607.4714
693.3010, 540.7642
694.4560, 512.1694
695.6110, 439.9868
696.7660, 438.7834
697.9210, 428.5596
699.0750, 464.3149
700.2290, 425.0498
701.3840, 335.7644
702.5370, 353.4590
703.6910, 346.1335
704.8450, 351.7881
705.9980, 354.8418
707.1520, 311.0381
708.3050, 337.6338
709.4580, 274.2104
710.6110, 219.7673
711.7630, 176.3057
712.9160, 246.8250
714.0680, 138.3257
715.2200, 180.8079
716.3720, 202.2712
717.5240, 189.7168
718.6760, 162.1440
719.8270, 104.5535
720.9780, 69.94482
722.1300, 37.31885
723.2810, 56.67163
724.4310, 19.00830
725.5820, 14.68042
726.7330, 108.4124
727.8830, 36.23413
729.0330, 78.19067
730.1830, 53.33423
731.3330, 69.51782
732.4830, 25.27100
733.6320, 138.1333
734.7810, 155.3894
735.9310, 152.9429
737.0800, 111.2546
738.2290, 135.3223
739.3770, 132.1836
740.5260, 110.6079
741.6740, 6.891846
742.8220, 135.3730
743.9700, 13.12207
745.1180, 41.29639
746.2660, 3.081299
747.4130, 50.22437
748.5610, 8.132080
749.7080, 11.00781
750.8550, 38.61938
752.0020, 6.728760
753.1490, 77.86328
754.2950, 83.93994
755.4420, 87.81836
756.5880, 180.5242
757.7340, 139.4812
758.8800, 228.8933
760.0250, 173.8391
761.1710, 173.7302
762.3160, 252.4392
763.4620, 265.3237
764.6070, 246.2512
765.7520, 278.1750
766.8960, 362.0952
768.0410, 334.0122
769.1850, 402.9265
770.3300, 292.8381
771.4740, 371.7476
772.6180, 365.6553
773.7610, 384.5610
774.9050, 390.4656
776.0480, 365.3694
777.1920, 322.2727
778.3350, 367.1755
779.4780, 370.0786
780.6200, 297.9817
781.7630, 334.8860
782.9060, 272.7913
784.0480, 325.6980
785.1900, 339.6064
786.3320, 341.5166
787.4740, 357.4297
788.6150, 365.3455
789.7570, 262.2642
790.8980, 272.1863
792.0390, 225.1125
793.1800, 270.0422
794.3210, 304.9768
795.4620, 284.9163
796.6020, 291.8604
797.7420, 344.8101
798.8830, 299.7651
800.0230, 248.7258
801.1620, 308.6926
802.3020, 367.6660
803.4420, 238.6458
804.5810, 329.6328
805.7200, 307.6270
806.8590, 290.6287
807.9980, 333.6379
809.1370, 386.6555
810.2750, 389.6814
811.4140, 383.7163
812.5520, 383.7595
813.6900, 365.8123
814.8280, 499.8745
815.9650, 455.9465
817.1030, 537.0286
818.2400, 412.1211
819.3780, 491.2241
820.5150, 516.3381
821.6520, 454.4634
822.7880, 451.6001
823.9250, 435.7483
825.0610, 538.9087
826.1980, 354.0815
827.3340, 494.2671
828.4700, 401.4653
829.6050, 391.6768
830.7410, 445.9014
831.8760, 367.1396
833.0120, 348.3921
834.1470, 393.6592
835.2820, 368.9395
836.4160, 327.2354
837.5510, 295.5459
838.6860, 337.8716
839.8200, 403.2129
840.9540, 307.5698
842.0880, 353.9429
843.2220, 337.3320
844.3550, 383.7373
845.4890, 471.1602
846.6220, 373.5996
847.7550, 432.0562
848.8880, 549.5303
850.0210, 567.0225
851.1540, 640.5317
852.2860, 786.0601
853.4190, 846.6069
854.5510, 888.1719
855.6830, 1098.756
856.8150, 1075.359
857.9460, 1035.981
859.0780, 1154.410
860.2090, 1103.072
861.3410, 1110.930
862.4720, 1041.881
863.6020, 1104.024
864.7330, 966.7729
865.8640, 902.9673
866.9940, 955.8032
868.1240, 874.7231
869.2540, 778.6030
870.3840, 835.5513
871.5140, 647.6792
872.6440, 720.1953
873.7730, 681.6191
874.9020, 592.7456
876.0320, 540.2397
877.1600, 464.2739
878.2890, 442.8452
879.4180, 479.7910
880.5460, 370.1401
881.6750, 408.3408
882.8030, 440.7070
883.9310, 371.6890
885.0590, 329.8145
886.1860, 376.3960
887.3140, 305.2954
888.4410, 330.6509
889.5680, 321.3604
890.6950, 283.1152
891.8220, 282.9258
892.9490, 251.4580
894.0750, 344.6953
895.2020, 216.6553
896.3280, 271.6533
897.4540, 298.6924
898.5800, 245.4590
899.7050, 333.9482
900.8310, 202.1475
901.9560, 329.3896
903.0820, 296.6714
904.2070, 175.0039
905.3320, 249.3716
906.4560, 218.7905
907.5810, 274.2471
908.7050, 268.7437
909.8300, 230.2876
910.9540, 244.8750
912.0780, 218.5171
913.2010, 266.2144
914.3250, 233.9595
915.4480, 218.7573
916.5720, 289.6064
917.6950, 312.4912
918.8180, 220.4131
919.9410, 247.3970
921.0630, 291.4165
922.1860, 389.5156
923.3080, 384.6641
924.4300, 427.9766
925.5520, 405.0830
926.6740, 437.3589
927.7960, 422.6807
928.9170, 375.0537
930.0390, 367.4663
931.1600, 401.9150
932.2810, 495.3994
933.4020, 393.9194
934.5230, 471.4775
935.6430, 416.0718
936.7640, 382.7021
937.8840, 435.3691
939.0040, 369.0737
940.1240, 371.8159
941.2440, 371.0068
942.3630, 388.4194
943.4830, 364.2808
944.6020, 421.1880
945.7210, 437.1313
946.8400, 532.1152
947.9590, 519.1353
949.0770, 409.1909
950.1960, 479.2832
951.3140, 400.4102
952.4320, 481.5820
953.5500, 475.7900
954.6680, 426.0342
955.7860, 468.3301
956.9030, 528.6621
958.0210, 580.0352
959.1380, 623.4443
960.2550, 543.8911
961.3720, 690.3750
962.4890, 541.8945
963.6050, 536.4546
964.7220, 625.0508
965.8380, 618.6826
966.9540, 625.3506
968.0700, 643.0566
969.1860, 637.7979
970.3010, 703.5742
971.4170, 717.3857
972.5320, 818.2314
973.6470, 790.2891
974.7620, 856.1548
975.8770, 797.9854
976.9910, 899.9741
978.1060, 1008.998
979.2200, 947.0562
980.3340, 1087.148
981.4480, 1123.275
982.5620, 1280.437
983.6760, 1210.632
984.7890, 1272.863
985.9030, 1339.127
987.0160, 1440.426
988.1290, 1585.758
989.2420, 1802.125
990.3550, 1916.526
991.4670, 2006.961
992.5800, 2396.431
993.6920, 2532.937
994.8040, 2833.476
995.9160, 3113.053
997.0280, 3390.677
998.1390, 3917.371
999.2510, 4302.116
1000.362, 4690.923
1001.473, 5408.785
1002.584, 5765.708
1003.695, 6407.675
1004.805, 6940.719
1005.916, 7652.840
1007.026, 7981.043
1008.136, 8392.308
1009.246, 8342.647
1010.356, 8334.052
1011.466, 8054.519
1012.576, 7590.024
1013.685, 6888.592
1014.794, 5989.466
1015.903, 5345.732
1017.012, 4442.951
1018.121, 3883.840
1019.229, 3305.137
1020.338, 2882.903
1021.446, 2431.706
1022.554, 2325.317
1023.662, 2075.065
1024.770, 1853.101
1025.878, 1655.224
1026.985, 1633.243
1028.092, 1483.294
1029.200, 1493.175
1030.307, 1424.766
1031.413, 1313.345
1032.520, 1433.461
1033.627, 1304.159
1034.733, 1297.147
1035.839, 1324.359
1036.945, 1250.912
1038.051, 1302.477
1039.157, 1325.353
1040.262, 1314.162
1041.368, 1180.337
1042.473, 1207.346
1043.578, 1169.639
1044.683, 1132.002
1045.788, 1183.131
1046.893, 1069.234
1047.997, 1118.420
1049.101, 1005.533
1050.205, 832.0278
1051.309, 848.8013
1052.413, 800.3838
1053.517, 617.8579
1054.621, 649.6401
1055.724, 659.3882
1056.827, 538.2314
1057.930, 663.9810
1059.033, 543.1719
1060.136, 501.0562
1061.238, 515.0000
1062.341, 550.3950
1063.443, 394.0312
1064.545, 438.5850
1065.647, 342.2334
1066.749, 374.1724
1067.850, 282.8784
1068.952, 329.6001
1070.053, 421.3252
1071.154, 361.4111
1072.255, 317.3457
1073.356, 358.2295
1074.457, 323.9595
1075.557, 350.9014
1076.658, 315.7339
1077.758, 311.5176
1078.858, 362.2734
1079.958, 278.9561
1081.057, 274.6455
1082.157, 311.3760
1083.256, 244.1147
1084.356, 317.7783
1085.455, 331.6030
1086.554, 261.3223
1087.653, 207.7061
1088.751, 265.7080
1089.850, 258.5996
1090.948, 229.4160
1092.046, 330.7246
1093.144, 235.7417
1094.242, 293.6118
1095.340, 322.4370
1096.437, 373.4854
1097.534, 281.2646
1098.632, 279.2314
1099.729, 242.6572
1100.826, 264.4399
1101.922, 307.2002
1103.019, 319.9609
1104.115, 284.7217
1105.212, 294.4941
1106.308, 354.6240
1107.404, 256.7749
1108.499, 284.6768
1109.595, 268.4893
1110.691, 219.2495
1111.786, 227.0088
1112.881, 219.8643
1113.976, 228.6489
1115.071, 253.4448
1116.166, 249.3784
1117.260, 250.5728
1118.355, 254.7002
1119.449, 230.8174
1120.543, 253.6323
1121.637, 234.6030
1122.731, 240.4365
1123.824, 254.7231
1124.918, 202.4424
1126.011, 173.2158
1127.104, 202.9575
1128.197, 160.0581
1129.290, 237.7554
1130.382, 137.4468
1131.475, 107.1758
1132.567, 216.8525
1133.659, 180.8799
1134.751, 205.7520
1135.843, 17.40430
1136.935, 81.04834
1138.027, 56.37646
1139.118, 57.18701
1140.209, 54.97021
1141.300, 35.61865
1142.391, 50.16650
1143.482, 2.889160
1144.573, 12.52979
1145.663, 10.91064
1146.754, 19.71802
1147.844, 53.67432
1148.934, 6.187500
1150.024, 15.71631
1151.113, 38.85596
1152.203, 23.31348
1153.292, 82.21387
1154.381, 34.78076
1155.470, 85.40942
1156.559, 69.13672
1157.648, 33.91626
1158.737, 64.59375
1159.825, 12.43970
1160.913, 22.08960
1162.001, 84.01416
1163.089, 91.00293
1164.177, 19.06177
1165.265, 22.15283
1166.352, 8.279053
1167.440, 52.43359
1168.527, 17.35962
1169.614, 49.70068
1170.701, 4.022705
1171.788, 2.278809
1172.874, 30.60522
1173.961, 12.96191
1175.047, 54.37354
1176.133, 54.41357
1177.219, 27.37329
1178.305, 42.94824
1179.390, 36.57788
1180.476, 32.74048
1181.561, 23.03760
1182.646, 73.68945
1183.731, 55.51025
1184.816, 138.3062
1185.901, 25.13208
1186.985, 30.89307
1188.070, 7.105713
1189.154, 2.853516
1190.238, 7.197998
1191.322, 23.05371
1192.406, 22.80542
1193.489, 65.60889
1194.573, 139.3896
1195.656, 72.14917
1196.739, 45.00562
1197.822, 67.87207
1198.905, 68.56079
1199.988, 72.22632
1201.070, 45.86792
1202.153, 55.48364
1203.235, 61.07349
1204.317, 7.638916
1205.399, 61.16235
1206.481, 7.659912
1207.562, 86.11523
1208.644, 33.54639
1209.725, 157.9446
1210.806, 128.3196
1211.887, 112.6711
1212.968, 113.9995
1214.049, 17.30371
1215.129, 99.56641
1216.209, 159.8047
1217.290, 9.980957
1218.370, 80.18701
1219.450, 41.31885
1220.529, 115.4170
1221.609, 65.49048
1222.688, 85.54199
1223.768, 109.5684
1224.847, 48.56982
1225.926, 87.53784
1227.005, 137.4795
1228.083, 99.39526
1229.162, 68.28516
1230.240, 142.1443
1231.318, 181.9775
1232.396, 211.7871
1233.474, 181.5718
1234.552, 90.33325
1235.629, 175.0652
1236.707, 91.78052
1237.784, 123.8760
1238.861, 146.8010
1239.938, 202.4377
1241.015, 173.0488
1242.092, 176.6370
1243.168, 133.1995
1244.244, 154.7356
1245.321, 122.2456
1246.397, 157.7285
1247.473, 177.1860
1248.548, 129.6172
1249.624, 152.0759
1250.699, 120.4539
1251.775, 147.8042
1252.850, 94.12842
1253.925, 184.4214
1254.999, 161.6885
1256.074, 168.9292
1257.148, 109.1436
1258.223, 213.5093
1259.297, 191.6685
1260.371, 169.8013
1261.445, 237.9084
1262.519, 115.9890
1263.592, 134.0405
1264.666, 187.1111
1265.739, 263.1089
1266.812, 95.08081
1267.885, 142.0212
1268.958, 146.9338
1270.030, 202.8191
1271.103, 272.6792
1272.175, 155.5122
1273.247, 174.0271
1274.319, 229.8064
1275.391, 163.2822
1276.463, 179.3801
1277.535, 200.5288
1278.606, 213.0266
1279.677, 161.1211
1280.748, 185.7476
1281.819, 179.3477
1282.890, 171.1421
1283.961, 176.8020
1285.031, 224.1738
1286.102, 256.6099
1287.172, 143.9998
1288.242, 168.3579
1289.312, 118.8857
1290.381, 175.7031
1291.451, 172.5332
1292.520, 220.8257
1293.590, 243.5361
1294.659, 175.9556
1295.728, 222.1504
1296.797, 185.4795
1297.865, 116.6592
1298.934, 178.2344
1300.002, 152.8926
1301.070, 150.9985
1302.138, 145.2373
1303.206, 180.4937
1304.274, 192.0625
1305.341, 193.5425
1306.409, 222.6846
1307.476, 226.8569
1308.543, 193.2070
1309.610, 132.0977
1310.677, 160.6919
1311.744, 168.4746
1312.810, 193.5396
1313.877, 94.11230
1314.943, 137.7153
1316.009, 117.2744
1317.075, 175.8662
1318.140, 106.9023
1319.206, 55.35107
1320.272, 100.9634
1321.337, 169.8916
1322.402, 112.5728
1323.467, 195.3315
1324.532, 77.98975
1325.596, 69.35205
1326.661, 235.0000
1327.725, 133.5684
1328.790, 146.1270
1329.854, 185.4224
1330.918, 107.7583
1331.981, 130.1396
1333.045, 222.6675
1334.108, 182.9771
1335.172, 174.3882
1336.235, 164.8413
1337.298, 183.3149
1338.361, 116.8540
1339.423, 162.4141
1340.486, 221.8853
1341.548, 206.3403
1342.611, 122.8623
1343.673, 179.2139
1344.735, 157.7119
1345.796, 92.48730
1346.858, 124.6904
1347.919, 95.96826
1348.981, 154.3408
1350.042, 165.9766
1351.103, 152.3535
1352.164, 253.7812
1353.225, 159.2427
1354.285, 109.2729
1355.346, 160.5610
1356.406, 168.6509
1357.466, 116.2661
1358.526, 165.5142
1359.586, 149.9072
1360.645, 121.2383
1361.705, 174.7505
1362.764, 170.5947
1363.823, 169.5908
1364.882, 22.40088
1365.941, 36.01953
1367.000, 95.14453
1368.059, 122.3086
1369.117, 193.8354
1370.175, 127.9761
1371.233, 93.05518
1372.291, 133.1328
1373.349, 103.0591
1374.407, 148.1177
1375.464, 112.2065
1376.522, 73.10889
1377.579, 137.0908
1378.636, 193.9932
1379.693, 166.9204
1380.750, 190.6890
1381.806, 111.3901
1382.863, 143.3330
1383.919, 109.2939
1384.975, 38.87939
1386.031, 167.8545
1387.087, 152.8198
1388.143, 168.7319
1389.199, 151.6812
1390.254, 127.2642
1391.309, 67.98633
1392.364, 130.9106
1393.419, 122.8271
1394.474, 172.0679
1395.529, 107.7563
1396.583, 214.4502
1397.638, 75.32764
1398.692, 114.1743
1399.746, 1.129883
1400.800, 112.6226
1401.853, 137.4116
1402.907, 171.0664
1403.960, 117.7847
1405.014, 122.7690
1406.067, 96.62939
1407.120, 105.2607
1408.173, 107.9844
1409.225, 74.66895
1410.278, 102.4077
1411.330, 81.76221
1412.383, 32.88086
1413.435, 84.65430
1414.487, 77.29150
1415.538, 121.0542
1416.590, 75.76367
1417.641, 146.5425
1418.693, 133.6030
1419.744, 90.41602
1420.795, 114.2295
1421.846, 73.13477
1422.897, 172.9082
1423.947, 129.6919
1424.998, 11.30029
1426.048, 46.08154
1427.098, 117.8569
1428.148, 132.6172
1429.198, 88.35107
1430.247, 265.1001
1431.297, 144.8511
1432.346, 48.61182
1433.396, 26.37451
1434.445, 109.1445
1435.494, 55.93604
1436.542, 113.7139
1437.591, 143.8359
1438.639, 14.68799
1439.688, 119.2700
1440.736, 131.3848
1441.784, 44.49023
1442.832, 120.3472
1443.880, 10.49170
1444.927, 136.5317
1445.975, 9.507813
1447.022, 176.6362
1448.069, 127.7588
1449.116, 108.8843
1450.163, 187.0234
1451.209, 90.16943
1452.256, 41.31152
1453.302, 73.44434
1454.348, 66.58984
1455.394, 29.73486
1456.440, 155.9102
1457.486, 117.0791
1458.532, 84.23535
1459.577, 100.3970
1460.623, 54.55615
1461.668, 100.7188
1462.713, 67.50098
1463.758, 86.56689
1464.802, 43.64600
1465.847, 91.43408
1466.891, 113.5488
1467.936, 56.65918
1468.980, 83.76953
1470.024, 39.87891
1471.067, 105.9170
1472.111, 38.02979
1473.155, 44.15039
1474.198, 37.27295
1475.241, 26.85352
1476.284, 0.1738280
1477.327, 8.559570
1478.370, 8.482422
1479.413, 69.63086
1480.455, 73.79297
1481.497, 93.95898
1482.540, 123.0396
1483.582, 105.2124
1484.624, 17.38818
1485.665, 29.56445
1486.707, 0.2485350
1487.748, 68.95020
1488.790, 26.09229
1489.831, 71.12598
1490.872, 6.644531
1491.912, 87.59180
1492.953, 62.83740
1493.994, 2.905762
1495.034, 99.75830
1496.074, 31.03369
1497.114, 99.32275
1498.154, 67.53271
1499.194, 83.57617
1500.234, 76.87500
1501.273, 52.84082
1502.313, 92.15137
1503.352, 26.35498
1504.391, 98.79590
1505.430, 109.5967
1506.468, 117.8853
1507.507, 61.17627
1508.545, 156.3369
1509.584, 74.38867
1510.622, 67.67871
1511.660, 103.9697
1512.698, 54.26270
1513.735, 98.55713
1514.773, 143.7710
1515.810, 109.7441
1516.848, 95.27881
1517.885, 110.4517
1518.922, 42.53223
1519.958, 86.78906
1520.995, 44.81055
1522.032, 38.97021
1523.068, 62.14062
1524.104, 76.89258
1525.140, 57.87891
1526.176, 43.99805
1527.212, 43.96289
1528.248, 52.82568
1529.283, 18.70557
1530.318, 13.77637
1531.353, 63.50439
1532.389, 94.23242
1533.423, 39.57568
1534.458, 24.32080
1535.493, 94.02539
1536.527, 52.68506
1537.561, 69.28906
1538.596, 98.82471
1539.630, 88.28564
1540.663, 3.665039
1541.697, 92.95410
1542.731, 1.625977
1543.764, 49.86523
1544.797, 92.52490
1545.830, 17.44873
1546.863, 43.28711
1547.896, 52.64551
1548.929, 49.90137
1549.961, 75.07080
1550.994, 84.72705
1552.026, 88.77588
1553.058, 89.13330
1554.090, 68.21240
1555.121, 64.05420
1556.153, 64.48486
1557.185, 54.86914
1558.216, 141.1113
1559.247, 29.30957
1560.278, 52.27197
1561.309, 0.3574220
1562.340, 0.0000000E+00
##END=



