##NAMES=Augite
##RRUFFID=R061086
##IDEAL CHEMISTRY=(Ca,Mg,Fe^2+^,Fe^3+^)_2_(Si,Al)_2_O_6_
##LOCALITY=Boreslav, Teplitz, Bohemia, Czech Republic
##OWNER=RRUFF
##SOURCE=Michael Scott
##DESCRIPTION=Black to dark green tabular euhedral crystal
##STATUS=The identification of this mineral has been confirmed by X-ray diffraction and chemical analysis
##URL=rruff.info/R061086
##MEASURED CHEMISTRY=(Ca_0.88_Mg_0.83_Fe_0.13_Al_0.08_Na_0.04_Ti_0.03_Cr_0.01_)_Σ=2_(Si_1.89_Al_0.11_)_Σ=2_O_6_
##PIN_ID=M00351
##ORIENTATION=Laser parallel to (1 0 1). Fiducial mark perpendicular to laser is parallel to b [0 1 0]
158.6190, 0.0000000E+00
159.8550, 0.7426760
161.0910, 104.4346
162.3270, 46.96753
163.5630, 130.7844
164.7980, 127.1079
166.0340, 162.8638
167.2690, 62.58667
168.5040, 67.89014
169.7390, 90.59595
170.9730, 58.81128
172.2080, 164.8774
173.4420, 68.97192
174.6760, 85.89160
175.9100, 85.68628
177.1440, 31.39478
178.3770, 88.04614
179.6100, 80.66260
180.8430, 109.6309
182.0760, 96.53784
183.3090, 112.0454
184.5410, 88.30176
185.7740, 148.2808
187.0060, 105.4783
188.2380, 117.7959
189.4690, 125.1506
190.7010, 136.4385
191.9320, 197.9856
193.1630, 193.4707
194.3940, 191.0032
195.6250, 220.5852
196.8550, 156.2166
198.0860, 246.8950
199.3160, 293.6187
200.5460, 272.3877
201.7750, 246.1877
203.0050, 204.4976
204.2340, 74.22656
205.4630, 76.00806
206.6920, 16.16016
207.9210, 15.72144
209.1500, 43.34961
210.3780, 47.62451
211.6060, 28.35596
212.8340, 63.23389
214.0620, 83.21973
215.2900, 37.85596
216.5170, 8.862793
217.7440, 55.91895
218.9710, 84.02295
220.1980, 177.1748
221.4250, 106.3735
222.6510, 214.6177
223.8770, 278.9058
225.1040, 272.2373
226.3290, 219.6118
227.5550, 218.0278
228.7810, 177.4854
230.0060, 147.9893
231.2310, 177.5405
232.4560, 91.14307
233.6810, 125.7568
234.9050, 96.38818
236.1290, 138.0391
237.3540, 56.71094
238.5770, 71.40625
239.8010, 27.12598
241.0250, 44.87158
242.2480, 30.64404
243.4710, 50.55615
244.6940, 37.27197
245.9170, 101.1255
247.1400, 38.00488
248.3620, 60.91016
249.5840, 93.84082
250.8060, 76.79785
252.0280, 92.77979
253.2500, 111.7886
254.4710, 116.8223
255.6920, 129.3999
256.9140, 117.9556
258.1340, 136.0278
259.3550, 133.2710
260.5760, 117.4209
261.7960, 138.3511
263.0160, 74.50928
264.2360, 38.69287
265.4560, 75.90088
266.6750, 58.86572
267.8940, 2.392578
269.1140, 25.67529
270.3330, 45.01709
271.5510, 74.31445
272.7700, 132.6704
273.9880, 48.05029
275.2070, 23.43213
276.4250, 112.8379
277.6420, 106.2671
278.8600, 31.72119
280.0770, 54.19775
281.2950, 131.6978
282.5120, 62.22021
283.7290, 126.7666
284.9450, 150.3350
286.1620, 131.9155
287.3780, 188.5078
288.5940, 122.1089
289.8100, 109.7319
291.0260, 231.3774
292.2410, 189.0444
293.4570, 350.7329
294.6720, 324.4434
295.8870, 311.1743
297.1010, 306.9263
298.3160, 495.6987
299.5300, 351.7559
300.7450, 494.5674
301.9590, 497.3984
303.1730, 486.9927
304.3860, 486.4375
305.6000, 506.7368
306.8130, 541.7861
308.0260, 579.0972
309.2390, 782.4561
310.4510, 775.8647
311.6640, 781.3159
312.8760, 946.8125
314.0880, 919.3486
315.3000, 978.9229
316.5120, 1126.529
317.7240, 1241.180
318.9350, 1243.862
320.1460, 1360.566
321.3570, 1491.322
322.5680, 1515.106
323.7790, 1684.927
324.9890, 1664.781
326.1990, 1671.672
327.4090, 1759.585
328.6190, 1828.516
329.8290, 1690.443
331.0380, 1702.338
332.2480, 1537.233
333.4570, 1573.148
334.6660, 1446.088
335.8740, 1483.048
337.0830, 1436.026
338.2910, 1336.025
339.5000, 1381.043
340.7080, 1377.080
341.9150, 1282.136
343.1230, 1299.210
344.3300, 1342.301
345.5380, 1311.411
346.7450, 1253.538
347.9520, 1293.653
349.1580, 1327.786
350.3650, 1481.937
351.5710, 1616.105
352.7770, 1522.494
353.9830, 1620.696
355.1890, 1611.822
356.3940, 1688.058
357.6000, 1681.425
358.8050, 1634.285
360.0100, 1618.544
361.2150, 1562.536
362.4190, 1532.082
363.6240, 1437.375
364.8280, 1400.683
366.0320, 1326.489
367.2360, 1435.348
368.4400, 1250.703
369.6430, 1286.073
370.8460, 1268.458
372.0500, 1163.858
373.2530, 1275.272
374.4550, 1201.700
375.6580, 1226.142
376.8600, 1202.598
378.0620, 1297.067
379.2650, 1352.549
380.4660, 1278.045
381.6680, 1491.555
382.8690, 1492.077
384.0710, 1690.612
385.2720, 1897.160
386.4730, 1914.721
387.6730, 2119.294
388.8740, 2235.914
390.0740, 2265.512
391.2740, 2380.122
392.4740, 2395.744
393.6740, 2371.378
394.8740, 2267.025
396.0730, 2111.682
397.2730, 1952.352
398.4720, 1674.032
399.6700, 1445.724
400.8690, 1222.427
402.0680, 1080.141
403.2660, 961.8652
404.4640, 774.6006
405.6620, 693.3467
406.8600, 478.1030
408.0570, 452.8706
409.2550, 346.6479
410.4520, 364.4351
411.6490, 236.1748
412.8460, 249.9824
414.0430, 240.7998
415.2390, 163.2251
416.4350, 100.0610
417.6310, 75.90674
418.8270, 83.76123
420.0230, 149.6250
421.2190, 142.4980
422.4140, 7.379883
423.6090, 162.2700
424.8040, 53.16895
425.9990, 52.07617
427.1940, 49.99219
428.3880, 30.91602
429.5820, 100.8477
430.7760, 31.78760
431.9700, 27.73438
433.1640, 95.69189
434.3580, 28.65723
435.5510, 67.63623
436.7440, 19.37744
437.9370, 21.61475
439.1300, 40.61670
440.3230, 39.63965
441.5150, 11.68408
442.7070, 31.75439
443.8990, 15.15869
445.0910, 32.04590
446.2830, 47.07373
447.4750, 32.41260
448.6660, 57.74316
449.8570, 41.11621
451.0480, 0.6845700
452.2390, 19.57031
453.4290, 53.78760
454.6200, 128.0601
455.8100, 139.9609
457.0000, 89.41650
458.1900, 154.8608
459.3800, 179.3301
460.5690, 100.1216
461.7590, 120.8726
462.9480, 46.54150
464.1370, 115.1479
465.3260, 137.9556
466.5140, 141.4878
467.7030, 96.55127
468.8910, 111.3940
470.0790, 187.8569
471.2670, 135.5112
472.4550, 164.6826
473.6420, 204.6572
474.8300, 162.1611
476.0170, 168.9033
477.2040, 169.4346
478.3900, 227.1143
479.5770, 140.6611
480.7640, 85.22021
481.9500, 111.8477
483.1360, 197.6123
484.3220, 165.1743
485.5080, 250.7280
486.6930, 176.2827
487.8780, 191.8374
489.0640, 283.3931
490.2490, 131.9492
491.4330, 205.5059
492.6180, 192.0630
493.8030, 221.6196
494.9870, 105.1763
496.1710, 132.7363
497.3550, 124.2959
498.5390, 96.86426
499.7220, 128.4312
500.9060, 207.0034
502.0890, 151.5747
503.2720, 228.1445
504.4550, 127.7134
505.6370, 131.2812
506.8200, 305.8472
508.0020, 261.4116
509.1840, 227.9741
510.3660, 175.5347
511.5480, 224.0928
512.7290, 265.6489
513.9110, 261.2026
515.0920, 311.7534
516.2730, 291.3018
517.4540, 279.8477
518.6350, 360.3906
519.8150, 417.9297
520.9960, 367.4658
522.1760, 370.9985
523.3560, 451.5273
524.5350, 415.0527
525.7150, 459.5737
526.8950, 509.0913
528.0740, 562.6045
529.2530, 523.1133
530.4320, 645.6177
531.6100, 678.1265
532.7890, 757.6304
533.9670, 645.1294
535.1460, 820.6235
536.3240, 722.4043
537.5010, 912.5962
538.6790, 637.0747
539.8570, 669.5469
541.0340, 682.0142
542.2110, 571.4751
543.3880, 504.9307
544.5650, 629.3794
545.7410, 525.8228
546.9180, 494.2598
548.0940, 524.6904
549.2700, 496.1138
550.4460, 451.5312
551.6210, 511.9414
552.7970, 541.3447
553.9720, 452.7500
555.1480, 469.1479
556.3230, 393.5391
557.4970, 519.9282
558.6720, 553.3105
559.8460, 486.6851
561.0210, 436.0522
562.1950, 458.4106
563.3690, 459.7612
564.5420, 412.1040
565.7160, 384.4380
566.8890, 397.7642
568.0630, 290.0815
569.2360, 319.3901
570.4090, 221.6904
571.5810, 214.7397
572.7540, 276.2642
573.9260, 198.9536
575.0980, 256.2886
576.2700, 275.8555
577.4420, 145.1001
578.6140, 135.0952
579.7850, 204.8145
580.9560, 148.2500
582.1270, 173.6621
583.2980, 55.33105
584.4690, 163.9473
585.6400, 136.5610
586.8100, 114.0420
587.9800, 9.991211
589.1500, 112.1084
590.3200, 19.24658
591.4900, 57.88867
592.6590, 38.16895
593.8290, 53.31396
594.9980, 95.71143
596.1670, 8.570313
597.3360, 3.826172
598.5040, 6.649902
599.6730, 10.30029
600.8410, 40.91260
602.0090, 21.93457
603.1770, 15.46289
604.3450, 96.09277
605.5130, 1.342285
606.6800, 28.51270
607.8470, 19.60645
609.0140, 31.52051
610.1810, 34.10791
611.3480, 75.96094
612.5140, 86.22803
613.6810, 125.6875
614.8470, 14.37646
616.0130, 73.78271
617.1790, 38.16992
618.3440, 80.53027
619.5100, 135.8711
620.6750, 105.1948
621.8400, 89.50098
623.0050, 73.78809
624.1700, 105.9541
625.3350, 147.3042
626.4990, 184.5361
627.6640, 188.7495
628.8280, 207.9453
629.9920, 224.4404
631.1550, 260.2822
632.3190, 268.4238
633.4820, 255.5474
634.6460, 315.6528
635.8090, 314.7402
636.9710, 350.8101
638.1340, 418.8613
639.2970, 436.8945
640.4590, 533.9102
641.6210, 597.9067
642.7830, 604.8853
643.9450, 719.8457
645.1070, 827.7881
646.2680, 777.7114
647.4300, 1029.617
648.5910, 1108.504
649.7520, 1219.373
650.9130, 1416.224
652.0730, 1601.056
653.2340, 1783.869
654.3940, 2111.665
655.5540, 2383.500
656.7140, 2629.202
657.8740, 3121.942
659.0330, 3547.665
660.1930, 4066.369
661.3520, 4405.055
662.5110, 4946.722
663.6700, 5389.371
664.8290, 5771.002
665.9870, 6027.614
667.1460, 5960.209
668.3040, 5681.787
669.4620, 5297.344
670.6200, 4753.884
671.7770, 4199.405
672.9350, 3622.909
674.0920, 3144.396
675.2500, 2687.863
676.4070, 2377.312
677.5630, 2072.743
678.7200, 1714.157
679.8770, 1530.553
681.0330, 1302.930
682.1890, 1123.290
683.3450, 1005.632
684.5010, 940.9561
685.6560, 744.2632
686.8120, 773.5518
687.9670, 579.8232
689.1220, 615.0767
690.2770, 571.3125
691.4320, 323.5308
692.5870, 409.7319
693.7410, 406.9155
694.8950, 279.0815
696.0490, 267.2305
697.2030, 323.3613
698.3570, 330.4756
699.5110, 262.5728
700.6640, 277.2100
701.8170, 210.7158
702.9700, 220.7617
704.1230, 168.7905
705.2760, 139.8022
706.4290, 99.79736
707.5810, 97.77637
708.7330, 189.7378
709.8850, 94.68262
711.0370, 139.6113
712.1890, 33.52393
713.3400, 58.41504
714.4920, 8.290039
715.6430, 114.1353
716.7940, 68.96436
717.9450, 26.77930
719.0960, 24.42773
720.2460, 24.67969
721.3960, 45.35840
722.5470, 13.32764
723.6970, 48.71631
724.8460, 11.83936
725.9960, 12.37256
727.1460, 81.50391
728.2950, 10.06299
729.4440, 34.85596
730.5930, 27.50439
731.7420, 37.80176
732.8910, 160.8706
734.0390, 9.345215
735.1870, 6.514648
736.3360, 82.06543
737.4840, 55.92383
738.6310, 63.11963
739.7790, 53.51367
740.9260, 46.89258
742.0740, 17.21289
743.2210, 59.48486
744.3680, 1.016602
745.5150, 35.21582
746.6610, 8.998047
747.8080, 100.5698
748.9540, 41.79541
750.1000, 49.56104
751.2460, 38.35547
752.3920, 7.985840
753.5380, 42.69385
754.6830, 79.12842
755.8280, 49.76709
756.9730, 131.2500
758.1180, 208.8604
759.2630, 181.4512
760.4080, 295.9673
761.5520, 225.3394
762.6960, 227.9082
763.8410, 283.4785
764.9840, 82.04150
766.1280, 248.5981
767.2720, 280.1475
768.4150, 230.6899
769.5590, 323.2261
770.7020, 264.7568
771.8450, 297.2812
772.9870, 371.7993
774.1300, 175.3120
775.2720, 333.8198
776.4150, 250.3218
777.5570, 235.8193
778.6990, 330.3120
779.8400, 237.7998
780.9820, 244.2837
782.1230, 274.7627
783.2650, 216.2378
784.4060, 308.7090
785.5470, 221.1768
786.6870, 248.6406
787.8280, 213.1021
788.9680, 193.5601
790.1090, 205.0161
791.2490, 186.4688
792.3890, 148.9189
793.5280, 131.3677
794.6680, 220.8140
795.8070, 217.2583
796.9470, 183.7012
798.0860, 254.1426
799.2250, 144.5835
800.3630, 137.0234
801.5020, 207.4624
802.6410, 217.9014
803.7790, 224.3394
804.9170, 185.7773
806.0550, 279.2153
807.1930, 281.6533
808.3300, 172.0923
809.4680, 297.5308
810.6050, 212.9707
811.7420, 234.4111
812.8790, 341.8530
814.0160, 307.2964
815.1520, 247.7412
816.2890, 275.1880
817.4250, 203.6372
818.5610, 288.0874
819.6970, 308.5410
820.8330, 300.9966
821.9680, 344.4556
823.1040, 244.9170
824.2390, 293.3809
825.3740, 262.8486
826.5090, 358.3203
827.6440, 271.7949
828.7790, 202.2744
829.9130, 239.7573
831.0470, 278.2446
832.1810, 182.7358
833.3150, 274.2319
834.4490, 272.7324
835.5830, 238.2388
836.7160, 216.7495
837.8500, 231.2969
838.9830, 171.7876
840.1160, 273.3154
841.2480, 251.8486
842.3810, 297.3882
843.5140, 139.9336
844.6460, 199.4854
845.7780, 184.0439
846.9100, 253.6094
848.0420, 351.1812
849.1740, 396.3447
850.3050, 464.8525
851.4360, 494.4048
852.5680, 561.7441
853.6990, 543.3394
854.8290, 560.4644
855.9600, 599.8706
857.0910, 641.2993
858.2210, 694.4697
859.3510, 710.6919
860.4810, 758.7349
861.6110, 805.5342
862.7410, 793.4014
863.8700, 690.5576
865.0000, 681.2451
866.1290, 603.4268
867.2580, 634.9561
868.3870, 606.6318
869.5150, 568.0557
870.6440, 590.1577
871.7720, 536.5918
872.9000, 518.5928
874.0290, 448.7188
875.1560, 445.7412
876.2840, 388.5542
877.4120, 320.9316
878.5390, 370.2554
879.6660, 217.2388
880.7930, 296.1328
881.9200, 305.9326
883.0470, 294.5361
884.1740, 261.5786
885.3000, 180.3921
886.4260, 188.8013
887.5530, 248.0308
888.6780, 343.0327
889.8040, 161.3193
890.9300, 152.6250
892.0550, 254.9536
893.1810, 260.3076
894.3060, 222.6797
895.4310, 365.0845
896.5560, 275.5884
897.6800, 198.9834
898.8050, 203.4888
899.9290, 226.0186
901.0530, 228.5791
902.1770, 195.1763
903.3010, 139.8076
904.4250, 161.4580
905.5480, 154.1387
906.6720, 169.8408
907.7950, 148.5625
908.9180, 254.3208
910.0410, 169.0991
911.1630, 185.8975
912.2860, 203.7280
913.4080, 157.5781
914.5300, 103.4482
915.6530, 113.3384
916.7740, 169.2490
917.8960, 142.1904
919.0180, 203.1519
920.1390, 157.1562
921.2600, 260.1816
922.3820, 155.2334
923.5020, 210.3247
924.6230, 291.4370
925.7440, 258.5762
926.8640, 206.7373
927.9850, 323.9209
929.1050, 208.1260
930.2250, 212.3760
931.3450, 269.6465
932.4640, 243.9385
933.5840, 274.2666
934.7030, 253.6182
935.8220, 213.9912
936.9410, 223.3862
938.0600, 250.8018
939.1790, 245.2393
940.2970, 228.6973
941.4160, 271.1782
942.5340, 259.6929
943.6520, 263.2290
944.7700, 236.7866
945.8870, 342.3657
947.0050, 215.9663
948.1220, 343.6006
949.2400, 331.2563
950.3570, 304.9541
951.4740, 326.6733
952.5900, 333.4141
953.7070, 309.1768
954.8240, 348.9614
955.9400, 331.7676
957.0560, 290.5967
958.1720, 198.4536
959.2880, 325.3320
960.4030, 424.2329
961.5190, 357.1553
962.6340, 403.0991
963.7490, 406.0645
964.8640, 322.0576
965.9790, 372.0723
967.0940, 390.1089
968.2080, 343.1670
969.3230, 457.2471
970.4370, 466.3521
971.5510, 488.4805
972.6650, 405.6294
973.7790, 481.8003
974.8920, 481.9917
976.0060, 583.2070
977.1190, 478.4438
978.2320, 467.7026
979.3450, 437.9819
980.4580, 459.5317
981.5710, 558.6055
982.6830, 609.9497
983.7950, 660.3174
984.9080, 715.0479
986.0200, 745.1250
987.1310, 795.5630
988.2430, 839.0234
989.3550, 885.5078
990.4660, 974.7642
991.5770, 1107.583
992.6880, 1163.178
993.7990, 1339.807
994.9100, 1442.477
996.0200, 1697.171
997.1310, 1833.893
998.2410, 2135.663
999.3510, 2291.465
1000.461, 2423.305
1001.571, 2758.167
1002.681, 2969.061
1003.790, 3245.027
1004.899, 3713.018
1006.009, 3819.273
1007.118, 4258.564
1008.226, 4333.132
1009.335, 4421.256
1010.444, 4554.417
1011.552, 4199.613
1012.660, 4072.836
1013.768, 3776.096
1014.876, 3275.377
1015.984, 2875.687
1017.092, 2482.018
1018.199, 2150.394
1019.306, 1828.052
1020.413, 1579.083
1021.520, 1287.942
1022.627, 1231.557
1023.734, 1073.045
1024.840, 991.5518
1025.947, 803.3745
1027.053, 828.9146
1028.159, 849.7065
1029.265, 710.6338
1030.370, 704.0566
1031.476, 649.8989
1032.581, 657.7402
1033.687, 722.7915
1034.792, 751.5532
1035.897, 742.0918
1037.002, 656.0693
1038.106, 743.2402
1039.211, 703.1577
1040.315, 772.8765
1041.419, 655.3652
1042.523, 614.1499
1043.627, 583.9429
1044.731, 596.3076
1045.834, 555.7686
1046.938, 582.8838
1048.041, 520.6890
1049.144, 502.5063
1050.247, 512.5542
1051.349, 452.3945
1052.452, 386.4448
1053.555, 385.3076
1054.657, 283.5225
1055.759, 335.5903
1056.861, 304.4844
1057.963, 377.9771
1059.064, 267.8901
1060.166, 174.2002
1061.267, 171.1328
1062.368, 250.6440
1063.470, 373.6309
1064.570, 298.5894
1065.671, 124.7568
1066.772, 163.4551
1067.872, 266.4390
1068.972, 170.4307
1070.073, 246.4302
1071.173, 229.4365
1072.272, 187.4507
1073.372, 227.5620
1074.472, 161.4497
1075.571, 130.4844
1076.670, 227.5386
1077.769, 152.5859
1078.868, 127.6392
1079.967, 175.4160
1081.065, 186.5151
1082.164, 179.3228
1083.262, 255.3979
1084.360, 231.4780
1085.458, 223.4404
1086.556, 159.6528
1087.654, 175.7466
1088.751, 176.0967
1089.848, 166.6450
1090.946, 281.7515
1092.043, 166.8613
1093.139, 243.9741
1094.236, 215.0918
1095.333, 199.2119
1096.429, 297.7163
1097.525, 63.84277
1098.622, 228.0244
1099.718, 145.1558
1100.813, 139.2896
1101.909, 283.3955
1103.005, 180.5337
1104.100, 159.6729
1105.195, 242.8145
1106.290, 146.9570
1107.385, 166.4736
1108.480, 190.6187
1109.574, 230.8145
1110.669, 152.9668
1111.763, 195.1187
1112.857, 111.2822
1113.951, 155.4565
1115.045, 251.6289
1116.139, 222.8857
1117.232, 158.0576
1118.326, 94.22998
1119.419, 178.4126
1120.512, 149.5942
1121.605, 130.7754
1122.697, 286.9551
1123.790, 55.13379
1124.883, 95.31055
1125.975, 82.48584
1127.067, 183.6733
1128.159, 259.8442
1129.251, 47.50244
1130.342, 54.66846
1131.434, 112.1572
1132.525, 6.376953
1133.617, 197.0903
1134.708, 64.03711
1135.799, 123.1851
1136.889, 50.56641
1137.980, 32.44824
1139.071, 36.34668
1140.161, 3.915039
1141.251, 8.974609
1142.341, 40.06348
1143.431, 41.12939
1144.521, 44.18896
1145.610, 63.24316
1146.700, 62.29102
1147.789, 24.19971
1148.878, 49.36621
1149.967, 39.99707
1151.056, 44.60547
1152.144, 7.636719
1153.233, 35.67969
1154.321, 57.25000
1155.409, 13.17188
1156.498, 19.74023
1157.585, 27.15332
1158.673, 48.96143
1159.761, 34.11426
1160.848, 25.04932
1161.936, 78.50439
1163.023, 13.76660
1164.110, 32.04980
1165.197, 58.36377
1166.283, 42.72266
1167.370, 90.88037
1168.456, 30.20703
1169.542, 7.354980
1170.629, 95.90381
1171.714, 48.55615
1172.800, 16.93994
1173.886, 19.42627
1174.971, 28.09814
1176.057, 106.3442
1177.142, 71.77588
1178.227, 101.1973
1179.312, 82.60791
1180.397, 18.99121
1181.481, 44.37842
1182.566, 65.26270
1183.650, 100.0405
1184.734, 2.667480
1185.818, 47.39893
1186.902, 111.8218
1187.986, 4.968750
1189.069, 113.2148
1190.153, 19.38721
1191.236, 76.54395
1192.319, 66.31152
1193.402, 45.77393
1194.485, 112.8472
1195.567, 27.09131
1196.650, 15.17334
1197.732, 107.1758
1198.814, 118.1660
1199.896, 123.3569
1200.978, 70.10986
1202.060, 69.06396
1203.142, 44.00537
1204.223, 18.06689
1205.304, 91.82422
1206.386, 65.70166
1207.467, 153.5669
1208.547, 124.4194
1209.628, 13.74072
1210.709, 65.06152
1211.789, 45.14795
1212.869, 80.58789
1213.950, 88.31104
1215.030, 140.0205
1216.109, 102.7173
1217.189, 136.4004
1218.269, 44.07080
1219.348, 10.72510
1220.427, 83.37012
1221.506, 114.0015
1222.585, 143.6196
1223.664, 143.2241
1224.743, 93.81494
1225.821, 14.39258
1226.899, 124.9438
1227.978, 75.48096
1229.056, 108.0039
1230.134, 190.5132
1231.211, 26.00928
1232.289, 150.4829
1233.366, 131.9419
1234.444, 153.4585
1235.521, 143.8906
1236.598, 48.30811
1237.675, 199.7090
1238.751, 84.09521
1239.828, 95.46680
1240.904, 150.6875
1241.981, 101.5649
1243.057, 98.89355
1244.133, 131.2290
1245.209, 84.53125
1246.284, 174.8174
1247.360, 185.0894
1248.435, 119.9473
1249.510, 170.1899
1250.585, 165.4185
1251.660, 217.6323
1252.735, 197.8315
1253.810, 182.7231
1254.884, 227.2754
1255.959, 109.4307
1257.033, 113.5713
1258.107, 56.69727
1259.181, 140.8037
1260.255, 65.89502
1261.328, 100.9702
1262.402, 5.029297
1263.475, 46.17773
1264.548, 136.0615
1265.621, 92.05225
1266.694, 139.7871
1267.767, 132.5181
1268.840, 75.97852
1269.912, 242.9087
1270.984, 122.8242
1272.056, 129.7251
1273.129, 205.6118
1274.200, 205.4849
1275.272, 236.3540
1276.344, 243.1865
1277.415, 251.0688
1278.486, 198.8838
1279.558, 143.4326
1280.629, 229.6226
1281.699, 231.0059
1282.770, 132.6226
1283.841, 230.3687
1284.911, 73.10107
1285.981, 112.5190
1287.051, 184.2231
1288.121, 233.6782
1289.191, 204.0010
1290.261, 141.8311
1291.330, 112.2441
1292.400, 262.6611
1293.469, 99.87109
1294.538, 278.3716
1295.607, 145.7974
1296.676, 39.38916
1297.745, 185.4873
1298.813, 147.8403
1299.881, 134.3950
1300.950, 111.1831
1302.018, 88.67725
1303.086, 166.1646
1304.154, 191.0825
1305.221, 203.5854
1306.289, 175.0781
1307.356, 221.5615
1308.423, 173.0337
1309.490, 186.4385
1310.557, 155.7319
1311.624, 163.9814
1312.691, 126.4175
1313.757, 138.4863
1314.823, 141.7334
1315.890, 147.1396
1316.956, 155.9473
1318.022, 150.3345
1319.087, 166.3242
1320.153, 156.6929
1321.219, 65.48193
1322.284, 217.7964
1323.349, 75.13770
1324.414, 16.27148
1325.479, 68.87305
1326.544, 169.1890
1327.608, 179.4971
1328.673, 187.7979
1329.737, 212.0898
1330.801, 205.0239
1331.865, 179.5615
1332.929, 202.9712
1333.993, 190.2334
1335.057, 207.9189
1336.120, 194.4453
1337.183, 232.9619
1338.247, 139.4771
1339.310, 179.6689
1340.373, 107.1504
1341.435, 211.3438
1342.498, 151.5181
1343.560, 166.6860
1344.623, 152.8325
1345.685, 127.9722
1346.747, 70.85254
1347.809, 84.68652
1348.871, 123.8057
1349.932, 155.9185
1350.994, 107.0244
1352.055, 107.1245
1353.116, 242.2188
1354.177, 206.9263
1355.238, 211.0088
1356.299, 87.04639
1357.359, 146.1187
1358.420, 98.34814
1359.480, 69.82275
1360.540, 164.4951
1361.600, 28.60156
1362.660, 103.6470
1363.720, 75.72949
1364.780, 176.4131
1365.839, 50.44482
1366.898, 68.42236
1367.958, 8.560059
1369.017, 35.36865
1370.076, 133.4541
1371.134, 27.56152
1372.193, 85.75342
1373.251, 201.6489
1374.310, 95.62402
1375.368, 37.40430
1376.426, 77.55322
1377.484, 141.5059
1378.542, 110.4565
1379.599, 114.4028
1380.657, 75.34668
1381.714, 18.28760
1382.771, 74.22559
1383.828, 88.14648
1384.885, 211.0791
1385.942, 132.5186
1386.999, 111.4463
1388.055, 154.0459
1389.111, 114.1055
1390.168, 87.34961
1391.224, 122.4736
1392.280, 118.3936
1393.335, 144.2070
1394.391, 125.0869
1395.446, 160.9717
1396.502, 163.6836
1397.557, 178.5732
1398.612, 137.4619
1399.667, 110.3486
1400.722, 215.2334
1401.776, 141.1162
1402.831, 145.0000
1403.885, 17.88379
1404.939, 72.76758
1405.994, 153.6455
1407.048, 69.53418
1408.101, 25.43555
1409.155, 102.3398
1410.209, 79.25391
1411.262, 182.1699
1412.315, 186.9121
1413.368, 182.8359
1414.421, 233.8408
1415.474, 142.7568
1416.527, 90.68555
1417.579, 92.62402
1418.632, 66.72168
1419.684, 102.5635
1420.736, 77.55371
1421.788, 75.56445
1422.840, 58.59570
1423.891, 113.3135
1424.943, 64.36719
1425.994, 80.42969
1427.046, 165.8027
1428.097, 93.89551
1429.148, 79.00098
1430.199, 143.1211
1431.249, 50.26758
1432.300, 56.43262
1433.350, 40.58984
1434.401, 166.7676
1435.451, 165.9668
1436.501, 128.2031
1437.551, 279.3027
1438.601, 163.8281
1439.650, 145.8848
1440.700, 156.9775
1441.749, 157.0791
1442.798, 107.1777
1443.847, 64.32129
1444.896, 124.2188
1445.945, 152.3887
1446.993, 38.55469
1448.042, 189.7168
1449.090, 98.89160
1450.138, 179.0762
1451.187, 72.26074
1452.234, 123.4678
1453.282, 168.7217
1454.330, 113.9746
1455.377, 132.2295
1456.425, 218.4746
1457.472, 151.7090
1458.519, 159.9434
1459.566, 70.18750
1460.613, 96.44141
1461.660, 82.57520
1462.706, 25.96680
1463.752, 98.15137
1464.799, 76.42773
1465.845, 89.71094
1466.891, 130.6094
1467.937, 43.21582
1468.982, 115.4326
1470.028, 175.1836
1471.073, 60.37109
1472.119, 57.56348
1473.164, 77.36426
1474.209, 200.8359
1475.254, 116.0439
1476.299, 96.26367
1477.343, 203.5020
1478.388, 164.7666
1479.432, 69.04004
1480.476, 153.3242
1481.520, 12.61816
1482.564, 152.9219
1483.608, 4.765625
1484.651, 109.4736
1485.695, 90.80566
1486.738, 3.124023
1487.782, 74.47656
1488.825, 6.841797
1489.868, 12.21777
1490.910, 68.60449
1491.953, 144.0020
1492.996, 202.4082
1494.038, 198.8281
1495.080, 90.25879
1496.122, 171.6924
1497.164, 9.865234
1498.206, 156.5850
1499.248, 109.0410
1500.290, 58.50000
1501.331, 188.9551
1502.372, 67.42480
1503.413, 123.9062
1504.455, 106.3994
1505.495, 85.90527
1506.536, 104.4219
1507.577, 58.94727
1508.617, 75.45508
1509.658, 91.02637
1510.698, 79.57715
1511.738, 80.13965
1512.778, 66.70996
1513.818, 29.29199
1514.857, 25.11523
1515.897, 62.62207
1516.936, 160.4502
1517.975, 215.3457
1519.015, 18.59473
1520.054, 143.2705
1521.092, 101.9658
1522.131, 66.67676
1523.170, 186.3643
1524.208, 157.5879
1525.246, 95.15625
1526.285, 127.7783
1527.323, 164.4844
1528.361, 129.2734
1529.398, 208.0801
1530.436, 144.6445
1531.473, 157.4434
1532.511, 110.2578
1533.548, 129.0889
1534.585, 179.9365
1535.622, 213.8008
1536.659, 152.6816
1537.695, 201.5791
1538.732, 9.494141
1539.768, 49.70898
1540.805, 181.3672
1541.841, 87.57422
1542.877, 200.8184
1543.913, 103.1191
1544.948, 181.4961
1545.984, 184.9346
1547.019, 137.4746
1548.055, 78.13965
1549.090, 153.8965
1550.125, 125.7637
1551.160, 6.060547
1552.195, 43.60547
1553.229, 112.5518
1554.264, 198.8184
1555.298, 124.4844
1556.332, 157.6611
1557.366, 179.9668
1558.400, 94.35938
1559.434, 223.0498
1560.468, 192.8936
1561.502, 0.5195310
1562.535, 0.0000000E+00
##END=



