##NAMES=Augite
##RRUFFID=R061086
##IDEAL CHEMISTRY=(Ca,Mg,Fe^2+^,Fe^3+^)_2_(Si,Al)_2_O_6_
##LOCALITY=Boreslav, Teplitz, Bohemia, Czech Republic
##OWNER=RRUFF
##SOURCE=Michael Scott
##DESCRIPTION=Black to dark green tabular euhedral crystal
##STATUS=The identification of this mineral has been confirmed by X-ray diffraction and chemical analysis
##URL=rruff.info/R061086
##MEASURED CHEMISTRY=(Ca_0.88_Mg_0.83_Fe_0.13_Al_0.08_Na_0.04_Ti_0.03_Cr_0.01_)_Σ=2_(Si_1.89_Al_0.11_)_Σ=2_O_6_
##PIN_ID=M00351
##ORIENTATION=Laser parallel to (1 0 1). Fiducial mark perpendicular to laser is parallel to b [0 1 0]
168.5040, 0.0000000E+00
169.7390, 33.96436
170.9730, 59.56885
172.2080, 35.79346
173.4420, 14.34229
174.6760, 24.60986
175.9100, 0.7294920
177.1440, 15.95264
178.3770, 43.23340
179.6100, 55.51807
180.8430, 5.621094
182.0760, 22.08350
183.3090, 34.67139
184.5410, 95.96777
185.7740, 106.9277
187.0060, 209.6289
188.2380, 309.8594
189.4690, 177.1914
190.7010, 250.6938
191.9320, 266.1860
193.1630, 234.9824
194.3940, 232.0576
195.6250, 227.9902
196.8550, 309.2847
198.0860, 185.4448
199.3160, 216.6392
200.5460, 132.8701
201.7750, 146.1406
203.0050, 247.4512
204.2340, 93.80518
205.4630, 121.2031
206.6920, 67.35596
207.9210, 2.127930
209.1500, 40.65381
210.3780, 14.22021
211.6060, 54.82666
212.8340, 7.472168
214.0620, 29.49316
215.2900, 93.87646
216.5170, 91.91016
217.7440, 69.30664
218.9710, 185.7441
220.1980, 181.3989
221.4250, 270.0967
222.6510, 227.8359
223.8770, 289.6162
225.1040, 358.4360
226.3290, 448.2964
227.5550, 324.1948
228.7810, 214.1313
230.0060, 346.1055
231.2310, 205.1157
232.4560, 250.1611
233.6810, 205.2407
234.9050, 70.35449
236.1290, 15.52246
237.3540, 106.7222
238.5770, 75.95605
239.8010, 149.2354
241.0250, 145.5454
242.2480, 120.8892
243.4710, 147.2632
244.6940, 170.6631
245.9170, 63.08398
247.1400, 70.52588
248.3620, 79.98926
249.5840, 150.4741
250.8060, 105.9819
252.0280, 87.51172
253.2500, 42.06152
254.4710, 138.6304
255.6920, 173.2192
256.9140, 109.8281
258.1340, 108.4575
259.3550, 101.6226
260.5760, 53.71387
261.7960, 158.4062
263.0160, 35.94580
264.2360, 138.7241
265.4560, 70.41699
266.6750, 23.86914
267.8940, 53.86670
269.1140, 42.37598
270.3330, 38.40186
271.5510, 17.20166
272.7700, 33.02148
273.9880, 2.862305
275.2070, 80.72461
276.4250, 110.6079
277.6420, 125.5112
278.8600, 137.4346
280.0770, 150.7935
281.2950, 165.3433
282.5120, 163.3271
283.7290, 125.3306
284.9450, 124.3530
286.1620, 237.3955
287.3780, 231.4570
288.5940, 158.5376
289.8100, 300.6250
291.0260, 279.7285
292.2410, 299.8398
293.4570, 395.9634
294.6720, 385.1050
295.8870, 504.2651
297.1010, 557.4434
298.3160, 565.6392
299.5300, 690.8525
300.7450, 632.0830
301.9590, 635.2773
303.1730, 752.5596
304.3860, 751.8320
305.6000, 748.1216
306.8130, 819.4277
308.0260, 872.9253
309.2390, 922.9204
310.4510, 990.7852
311.6640, 1042.593
312.8760, 1137.037
314.0880, 1177.400
315.3000, 1295.137
316.5120, 1379.655
317.7240, 1471.116
318.9350, 1700.497
320.1460, 1751.862
321.3570, 1760.235
322.5680, 1831.280
323.7790, 2103.663
324.9890, 2005.097
326.1990, 2170.531
327.4090, 2038.730
328.6190, 2102.133
329.8290, 2034.583
331.0380, 2005.045
332.2480, 1950.521
333.4570, 1842.035
334.6660, 1827.408
335.8740, 1786.802
337.0830, 1800.217
338.2910, 1595.652
339.5000, 1626.106
340.7080, 1515.578
341.9150, 1747.066
343.1230, 1563.572
344.3300, 1451.094
345.5380, 1622.632
346.7450, 1572.187
347.9520, 1601.758
349.1580, 1721.344
350.3650, 1794.947
351.5710, 1940.564
352.7770, 1954.524
353.9830, 2017.913
355.1890, 2068.576
356.3940, 2008.250
357.6000, 1961.942
358.8050, 2098.634
360.0100, 1916.354
361.2150, 1866.089
362.4190, 1686.822
363.6240, 1677.562
364.8280, 1649.299
366.0320, 1607.050
367.2360, 1671.814
368.4400, 1519.593
369.6430, 1364.385
370.8460, 1533.190
372.0500, 1502.009
373.2530, 1341.840
374.4550, 1346.683
375.6580, 1339.539
376.8600, 1419.407
378.0620, 1598.287
379.2650, 1497.179
380.4660, 1497.082
381.6680, 1823.997
382.8690, 1917.923
384.0710, 1952.860
385.2720, 2109.808
386.4730, 2277.766
387.6730, 2285.733
388.8740, 2463.713
390.0740, 2661.701
391.2740, 2590.700
392.4740, 2704.708
393.6740, 2663.728
394.8740, 2560.754
396.0730, 2439.792
397.2730, 2145.836
398.4720, 1865.892
399.6700, 1652.956
400.8690, 1457.029
402.0680, 1236.110
403.2660, 1065.201
404.4640, 864.2988
405.6620, 713.4053
406.8600, 599.5210
408.0570, 499.2046
409.2550, 407.6919
410.4520, 375.8315
411.6490, 373.4062
412.8460, 319.5610
414.0430, 272.4272
415.2390, 212.5972
416.4350, 180.8022
417.6310, 160.9580
418.8270, 126.1494
420.0230, 61.34766
421.2190, 53.55273
422.4140, 30.24072
423.6090, 136.9814
424.8040, 46.20508
425.9990, 30.43506
427.1940, 101.6709
428.3880, 52.91162
429.5820, 93.15869
430.7760, 91.41162
431.9700, 45.33057
433.1640, 40.93018
434.3580, 2.804688
435.5510, 33.46631
436.7440, 27.74365
437.9370, 4.044434
439.1300, 69.37500
440.3230, 40.71094
441.5150, 82.06836
442.7070, 62.44336
443.8990, 15.15625
445.0910, 22.24805
446.2830, 34.18213
447.4750, 17.26953
448.6660, 5.748047
449.8570, 54.23242
451.0480, 97.91504
452.2390, 17.60742
453.4290, 95.96191
454.6200, 66.59473
455.8100, 153.1680
457.0000, 96.35693
458.1900, 86.08301
459.3800, 178.6802
460.5690, 144.7930
461.7590, 120.9268
462.9480, 139.3608
464.1370, 179.3477
465.3260, 189.0713
466.5140, 172.5669
467.7030, 134.6729
468.8910, 190.3198
470.0790, 184.8574
471.2670, 115.6357
472.4550, 162.8237
473.6420, 121.7061
474.8300, 93.16943
476.0170, 46.59277
477.2040, 199.5918
478.3900, 151.4468
479.5770, 147.5806
480.7640, 84.34814
481.9500, 203.1875
483.1360, 216.9512
484.3220, 200.7598
485.5080, 202.5181
486.6930, 206.2729
487.8780, 165.0259
489.0640, 87.77539
490.2490, 106.5210
491.4330, 178.2642
492.6180, 67.00293
493.8030, 80.73828
494.9870, 194.4692
496.1710, 250.2158
497.3550, 204.9600
498.5390, 260.6997
499.7220, 126.4341
500.9060, 180.1636
502.0890, 157.8882
503.2720, 282.6079
504.4550, 288.3223
505.6370, 199.0312
506.8200, 432.7344
508.0020, 344.4316
509.1840, 433.1240
510.3660, 389.8096
511.5480, 405.4888
512.7290, 479.1626
513.9110, 415.8291
515.0920, 485.4888
516.2730, 403.1426
517.4540, 581.7891
518.6350, 503.4287
519.8150, 522.0605
520.9960, 478.6855
522.1760, 514.3027
523.3560, 497.0024
524.5350, 517.8818
525.7150, 480.1069
526.8950, 568.6924
528.0740, 555.2686
529.2530, 575.8374
530.4320, 665.3970
531.6100, 798.9482
532.7890, 768.4907
533.9670, 708.0234
535.1460, 797.5479
536.3240, 663.0620
537.5010, 717.5669
538.6790, 676.0625
539.8570, 667.5483
541.0340, 597.0239
542.2110, 625.4897
543.3880, 588.9458
544.5650, 565.3911
545.7410, 515.8262
546.9180, 502.2505
548.0940, 505.1270
549.2700, 501.8330
550.4460, 548.4634
551.6210, 545.8496
552.7970, 598.2236
553.9720, 648.5894
555.1480, 566.9443
556.3230, 503.2930
557.4970, 481.6299
558.6720, 517.9546
559.8460, 558.2676
561.0210, 533.5684
562.1950, 468.8574
563.3690, 558.1333
564.5420, 411.3979
565.7160, 361.6489
566.8890, 395.8877
568.0630, 398.1138
569.2360, 350.3267
570.4090, 336.5273
571.5810, 275.7861
572.7540, 267.0947
573.9260, 295.3374
575.0980, 245.5894
576.2700, 277.8545
577.4420, 287.5493
578.6140, 173.4883
579.7850, 290.3110
580.9560, 217.5879
582.1270, 189.4834
583.2980, 163.4487
584.4690, 126.2466
585.6400, 99.21045
586.8100, 57.21436
587.9800, 204.3975
589.1500, 120.6836
590.3200, 252.0122
591.4900, 75.68311
592.6590, 1.370117
593.8290, 2.609863
594.9980, 7.535156
596.1670, 47.07373
597.3360, 52.21924
598.5040, 57.40381
599.6730, 36.43506
600.8410, 27.35205
602.0090, 71.49023
603.1770, 56.55225
604.3450, 101.7109
605.5130, 9.285645
606.6800, 16.73389
607.8470, 50.52393
609.0140, 68.33594
610.1810, 73.52930
611.3480, 170.6943
612.5140, 95.98682
613.6810, 59.10303
614.8470, 77.18799
616.0130, 46.75635
617.1790, 116.2197
618.3440, 150.1719
619.5100, 99.10010
620.6750, 175.0029
621.8400, 151.8838
623.0050, 267.7412
624.1700, 157.5767
625.3350, 222.3892
626.4990, 238.1787
627.6640, 391.9458
628.8280, 236.6909
629.9920, 413.4131
631.1550, 450.1128
632.3190, 400.7900
633.4820, 443.4448
634.6460, 625.0767
635.8090, 572.6865
636.9710, 556.2739
638.1340, 659.8379
639.2970, 558.3799
640.4590, 692.8984
641.6210, 829.3955
642.7830, 815.8691
643.9450, 880.3203
645.1070, 1030.749
646.2680, 1084.155
647.4300, 1206.539
648.5910, 1281.899
649.7520, 1434.238
650.9130, 1566.553
652.0730, 1919.847
653.2340, 2078.117
654.3940, 2238.365
655.5540, 2791.591
656.7140, 3192.795
657.8740, 3439.977
659.0330, 3904.135
660.1930, 4416.271
661.3520, 4719.386
662.5110, 5160.478
663.6700, 5734.548
664.8290, 6119.594
665.9870, 6009.619
667.1460, 6026.623
668.3040, 5741.604
669.4620, 5250.564
670.6200, 4787.500
671.7770, 4152.416
672.9350, 3542.311
674.0920, 3065.182
675.2500, 2685.032
676.4070, 2345.861
677.5630, 2115.667
678.7200, 1557.453
679.8770, 1523.216
681.0330, 1223.959
682.1890, 1121.680
683.3450, 1074.380
684.5010, 788.0586
685.6560, 631.7163
686.8120, 703.3525
687.9670, 539.9683
689.1220, 471.5625
690.2770, 482.1362
691.4320, 455.6890
692.5870, 415.9272
693.7410, 405.8579
694.8950, 354.2236
696.0490, 355.6943
697.2030, 339.1445
698.3570, 315.5747
699.5110, 244.9839
700.6640, 153.3740
701.8170, 145.7427
702.9700, 122.2109
704.1230, 171.4229
705.2760, 141.7329
706.4290, 150.0234
707.5810, 162.2944
708.7330, 158.5459
709.8850, 83.77734
711.0370, 95.99023
712.1890, 81.18262
713.3400, 71.35986
714.4920, 57.51709
715.6430, 42.65381
716.7940, 34.23096
717.9450, 60.17139
719.0960, 43.81934
720.2460, 31.21045
721.3960, 17.29297
722.5470, 47.42041
723.6970, 54.39209
724.8460, 12.18604
725.9960, 129.2095
727.1460, 60.54297
728.2950, 27.05908
729.4440, 67.36035
730.5930, 41.01709
731.7420, 41.28271
732.8910, 75.20068
734.0390, 59.43213
735.1870, 12.25195
736.3360, 84.73730
737.4840, 75.60596
738.6310, 76.38428
739.7790, 67.71436
740.9260, 98.09961
742.0740, 75.82617
743.2210, 98.13818
744.3680, 75.22852
745.5150, 7.878906
746.6610, 11.63672
747.8080, 171.2920
748.9540, 97.31689
750.1000, 2.908691
751.2460, 105.4434
752.3920, 24.08936
753.5380, 78.14404
754.6830, 36.22656
755.8280, 47.72168
756.9730, 40.35156
758.1180, 62.47607
759.2630, 177.3882
760.4080, 127.0029
761.5520, 220.6826
762.6960, 257.3086
763.8410, 248.9741
764.9840, 390.6328
766.1280, 378.2847
767.2720, 388.9297
768.4150, 293.5688
769.5590, 261.2021
770.7020, 461.8296
771.8450, 312.4517
772.9870, 366.0679
774.1300, 406.6792
775.2720, 384.2866
776.4150, 337.8882
777.5570, 386.4858
778.6990, 367.0791
779.8400, 373.6694
780.9820, 380.2549
782.1230, 258.8374
783.2650, 221.4165
784.4060, 193.9927
785.5470, 270.5664
786.6870, 287.1377
787.8280, 213.7070
788.9680, 261.2744
790.1090, 264.8408
791.2490, 319.4053
792.3890, 218.9688
793.5280, 300.5322
794.6680, 149.0947
795.8070, 149.6572
796.9470, 106.2197
798.0860, 273.7822
799.2250, 244.3457
800.3630, 319.9092
801.5020, 183.4746
802.6410, 151.0410
803.7790, 191.6084
804.9170, 337.1768
806.0550, 234.7480
807.1930, 319.3213
808.3300, 234.8975
809.4680, 298.4746
810.6050, 252.0557
811.7420, 277.6406
812.8790, 271.2275
814.0160, 364.8174
815.1520, 320.4121
816.2890, 469.0098
817.4250, 355.6123
818.5610, 398.2207
819.6970, 325.8320
820.8330, 204.4482
821.9680, 316.0713
823.1040, 406.6973
824.2390, 322.3301
825.3740, 246.9688
826.5090, 230.6133
827.6440, 245.2646
828.7790, 340.9219
829.9130, 203.5859
831.0470, 295.2568
832.1810, 324.9355
833.3150, 204.6211
834.4490, 101.3145
835.5830, 215.0166
836.7160, 141.7256
837.8500, 163.4424
838.9830, 261.1689
840.1160, 168.9033
841.2480, 90.64648
842.3810, 254.3994
843.5140, 244.1621
844.6460, 210.9326
845.7780, 254.7139
846.9100, 308.4326
848.0420, 298.2197
849.1740, 336.9600
850.3050, 488.6777
851.4360, 482.3545
852.5680, 591.9316
853.6990, 521.6455
854.8290, 664.7803
855.9600, 621.4600
857.0910, 749.5186
858.2210, 788.5049
859.3510, 756.6562
860.4810, 735.4727
861.6110, 626.4141
862.7410, 626.6084
863.8700, 657.1758
865.0000, 690.8760
866.1290, 661.8291
867.2580, 646.5029
868.3870, 603.0781
869.5150, 579.1387
870.6440, 533.2432
871.7720, 535.6016
872.9000, 495.0566
874.0290, 469.4941
875.1560, 417.5098
876.2840, 418.1670
877.4120, 339.0010
878.5390, 305.5186
879.6660, 395.7227
880.7930, 332.5293
881.9200, 310.0361
883.0470, 278.9922
884.1740, 256.5605
885.3000, 324.1572
886.4260, 155.6514
887.5530, 340.3184
888.6780, 336.0361
889.8040, 265.7803
890.9300, 209.5752
892.0550, 197.2471
893.1810, 162.3965
894.3060, 182.1748
895.4310, 153.1221
896.5560, 206.1221
897.6800, 235.1631
898.8050, 226.2285
899.9290, 150.3184
901.0530, 140.4482
902.1770, 175.6279
903.3010, 242.8320
904.4250, 161.0674
905.5480, 109.3320
906.6720, 293.6221
907.7950, 240.9404
908.9180, 166.2910
910.0410, 154.6660
911.1630, 191.0674
912.2860, 163.4932
913.4080, 324.9443
914.5300, 222.4287
915.6530, 174.9385
916.7740, 281.4736
917.8960, 200.0352
919.0180, 244.6299
920.1390, 144.2998
921.2600, 331.0010
922.3820, 407.7354
923.5020, 272.5098
924.6230, 255.3115
925.7440, 351.1553
926.8640, 303.0303
927.9850, 312.9385
929.1050, 295.8887
930.2250, 295.8721
931.3450, 414.8916
932.4640, 252.9365
933.5840, 406.0156
934.7030, 271.1201
935.8220, 345.2510
936.9410, 284.4082
938.0600, 270.5986
939.1790, 303.8154
940.2970, 252.0596
941.4160, 295.3301
942.5340, 290.6260
943.6520, 291.9482
944.7700, 228.2979
945.8870, 414.6943
947.0050, 284.1191
948.1220, 357.5771
949.2400, 259.0615
950.3570, 321.5742
951.4740, 406.1133
952.5900, 398.6787
953.7070, 229.2715
954.8240, 348.8896
955.9400, 342.5361
957.0560, 375.2070
958.1720, 400.9297
959.2880, 327.6797
960.4030, 358.4570
961.5190, 451.2617
962.6340, 512.0918
963.7490, 446.9590
964.8640, 425.8535
965.9790, 459.7744
967.0940, 449.3750
968.2080, 493.6943
969.3230, 509.6953
970.4370, 595.7207
971.5510, 648.7734
972.6650, 495.8525
973.7790, 598.9570
974.8920, 545.0889
976.0060, 602.2471
977.1190, 653.4365
978.2320, 634.6523
979.3450, 766.8926
980.4580, 744.1602
981.5710, 776.4521
982.6830, 782.7725
983.7950, 990.1172
984.9080, 888.4873
986.0200, 866.8848
987.1310, 1152.311
988.2430, 1116.780
989.3550, 1190.301
990.4660, 1379.847
991.5770, 1582.436
992.6880, 1522.063
993.7990, 1675.737
994.9100, 2015.436
996.0200, 2195.168
997.1310, 2469.967
998.2410, 2740.814
999.3510, 3034.148
1000.461, 3407.615
1001.571, 3708.583
1002.681, 4063.576
1003.790, 4451.623
1004.899, 4795.691
1006.009, 5175.805
1007.118, 5343.970
1008.226, 5585.180
1009.335, 5782.438
1010.444, 5529.744
1011.552, 5251.812
1012.660, 4726.211
1013.768, 4518.361
1014.876, 3941.854
1015.984, 3445.928
1017.092, 2971.468
1018.199, 2447.031
1019.306, 2251.419
1020.413, 1868.021
1021.520, 1695.501
1022.627, 1415.145
1023.734, 1344.809
1024.840, 1146.605
1025.947, 1123.308
1027.053, 966.0273
1028.159, 968.4707
1029.265, 1005.685
1030.370, 1080.417
1031.476, 980.2070
1032.581, 1004.705
1033.687, 843.5869
1034.792, 945.1357
1035.897, 916.0430
1037.002, 869.3281
1038.106, 851.0820
1039.211, 739.9980
1040.315, 798.6973
1041.419, 871.1240
1042.523, 750.3447
1043.627, 829.1475
1044.731, 606.1230
1045.834, 731.1455
1046.938, 721.8232
1048.041, 623.8389
1049.144, 618.8691
1050.247, 494.9463
1051.349, 484.7852
1052.452, 507.6436
1053.555, 548.5850
1054.657, 532.3047
1055.759, 433.7666
1056.861, 458.8789
1057.963, 494.8125
1059.064, 356.8887
1060.166, 378.1025
1061.267, 411.2480
1062.368, 263.0557
1063.470, 311.2305
1064.570, 158.5371
1065.671, 192.1445
1066.772, 237.3408
1067.872, 315.5459
1068.972, 253.7588
1070.073, 302.3057
1071.173, 224.7012
1072.272, 257.9355
1073.372, 237.1777
1074.472, 89.42578
1075.571, 179.6797
1076.670, 244.9902
1077.769, 93.19336
1078.868, 207.5605
1079.967, 247.4658
1081.065, 144.7500
1082.164, 237.3027
1083.262, 318.6055
1084.360, 284.9033
1085.458, 228.2051
1086.556, 256.5117
1087.654, 133.8994
1088.751, 153.2129
1089.848, 282.2188
1090.946, 205.5391
1092.043, 225.1572
1093.139, 270.6064
1094.236, 192.9346
1095.333, 381.3584
1096.429, 270.9580
1097.525, 195.2920
1098.622, 276.6260
1099.718, 224.9775
1100.813, 207.3145
1101.909, 231.7051
1103.005, 198.0645
1104.100, 242.4648
1105.195, 217.8047
1106.290, 223.2812
1107.385, 314.6670
1108.480, 203.1748
1109.574, 195.5137
1110.669, 104.8516
1111.763, 160.2324
1112.857, 283.5684
1113.951, 236.9033
1115.045, 221.2363
1116.139, 186.5674
1117.232, 174.8975
1118.326, 260.2256
1119.419, 287.6504
1120.512, 292.9746
1121.605, 286.5957
1122.697, 268.2627
1123.790, 203.9961
1124.883, 200.3066
1125.975, 148.6123
1127.067, 109.3574
1128.159, 142.6553
1129.251, 145.1104
1130.342, 158.3994
1131.434, 168.0195
1132.525, 140.2988
1133.617, 127.5215
1134.708, 55.13379
1135.799, 78.39355
1136.889, 82.98926
1137.980, 86.43066
1139.071, 174.6709
1140.161, 94.90430
1141.251, 91.85547
1142.341, 71.92773
1143.431, 105.2998
1144.521, 85.53516
1145.610, 56.58008
1146.700, 33.20898
1147.789, 30.87207
1148.878, 2.943359
1149.967, 97.98047
1151.056, 44.01953
1152.144, 80.82715
1153.233, 64.10840
1154.321, 40.03418
1155.409, 82.05078
1156.498, 190.8076
1157.585, 30.65430
1158.673, 120.5078
1159.761, 99.75000
1160.848, 59.05762
1161.936, 58.58594
1163.023, 53.21777
1164.110, 53.16211
1165.197, 83.58691
1166.283, 16.92480
1167.370, 13.57520
1168.456, 4.102539
1169.542, 32.34766
1170.629, 1.213867
1171.714, 11.79590
1172.800, 23.59180
1173.886, 32.96777
1174.971, 78.32910
1176.057, 38.67773
1177.142, 10.98926
1178.227, 103.3154
1179.312, 149.6055
1180.397, 45.88184
1181.481, 9.855469
1182.566, 168.6240
1183.650, 6.492188
1184.734, 5.415039
1185.818, 32.35156
1186.902, 159.6670
1187.986, 38.32910
1189.069, 8.626953
1190.153, 9.441406
1191.236, 23.54395
1192.319, 1.529297
1193.402, 6.705078
1194.485, 45.98535
1195.567, 3.759766
1196.650, 95.50488
1197.732, 84.23340
1198.814, 125.9473
1199.896, 7.644531
1200.978, 46.31348
1202.060, 125.0400
1203.142, 223.6748
1204.223, 100.2959
1205.304, 129.8984
1206.386, 79.48633
1207.467, 46.94336
1208.547, 71.57031
1209.628, 7.005859
1210.709, 130.5283
1211.789, 48.97461
1212.869, 96.40234
1213.950, 173.8125
1215.030, 113.2061
1216.109, 161.5830
1217.189, 84.94434
1218.269, 180.2871
1219.348, 54.38672
1220.427, 133.8799
1221.506, 55.13184
1222.585, 79.36230
1223.664, 156.5742
1224.743, 4.770508
1225.821, 60.93066
1226.899, 180.0713
1227.978, 190.1934
1229.056, 111.3125
1230.134, 164.4160
1231.211, 104.5010
1232.289, 98.56934
1233.366, 177.6191
1234.444, 134.6514
1235.521, 87.66602
1236.598, 110.6699
1237.675, 29.65723
1238.751, 131.6162
1239.828, 142.5566
1240.904, 114.4805
1241.981, 236.3857
1243.057, 215.2744
1244.133, 147.1445
1245.209, 215.9971
1246.284, 178.8320
1247.360, 273.7578
1248.435, 106.5596
1249.510, 167.3428
1250.585, 115.1084
1251.660, 187.8564
1252.735, 180.5869
1253.810, 207.2988
1254.884, 220.9932
1255.959, 66.67090
1257.033, 202.6270
1258.107, 98.26562
1259.181, 203.8896
1260.255, 76.49707
1261.328, 238.1943
1262.402, 202.7656
1263.475, 81.31934
1264.548, 219.8730
1265.621, 10.38965
1266.694, 95.00488
1267.767, 191.4736
1268.840, 191.9238
1269.912, 56.35938
1270.984, 149.7686
1272.056, 127.4492
1273.129, 152.8242
1274.200, 282.4814
1275.272, 111.8223
1276.344, 226.5859
1277.415, 325.8916
1278.486, 133.1787
1279.558, 199.6436
1280.629, 92.89941
1281.699, 171.2812
1282.770, 229.5049
1283.841, 183.7109
1284.911, 264.7891
1285.981, 194.9639
1287.051, 195.1240
1288.121, 170.5645
1289.191, 242.2344
1290.261, 145.3906
1291.330, 115.4902
1292.400, 256.5742
1293.469, 209.9043
1294.538, 245.2598
1295.607, 278.2568
1296.676, 205.8799
1297.745, 251.4219
1298.813, 239.0273
1299.881, 235.2383
1300.950, 221.7227
1302.018, 149.6143
1303.086, 272.5234
1304.154, 202.4609
1305.221, 114.3486
1306.289, 203.9434
1307.356, 275.4775
1308.423, 223.3604
1309.490, 380.1934
1310.557, 265.2637
1311.624, 234.3115
1312.691, 251.2744
1313.757, 202.6338
1314.823, 147.0752
1315.890, 130.8652
1316.956, 229.8340
1318.022, 237.6602
1319.087, 173.3477
1320.153, 200.1025
1321.219, 154.1953
1322.284, 55.91895
1323.349, 107.1602
1324.414, 169.7988
1325.479, 165.4990
1326.544, 109.1875
1327.608, 176.8672
1328.673, 239.2109
1329.737, 50.70410
1330.801, 171.3564
1331.865, 134.0020
1332.929, 142.6367
1333.993, 257.2637
1335.057, 97.83301
1336.120, 63.50879
1337.183, 228.0186
1338.247, 226.9863
1339.310, 378.5723
1340.373, 208.8887
1341.435, 312.4502
1342.498, 133.0137
1343.560, 163.5723
1344.623, 185.1221
1345.685, 245.5859
1346.747, 330.1221
1347.809, 217.5254
1348.871, 278.0801
1349.932, 173.4570
1350.994, 237.8398
1352.055, 225.3389
1353.116, 143.7373
1354.177, 75.95703
1355.238, 164.4512
1356.299, 170.3135
1357.359, 150.0879
1358.420, 165.1484
1359.480, 108.7354
1360.540, 198.1074
1361.600, 156.5547
1362.660, 329.9980
1363.720, 209.2188
1364.780, 348.6084
1365.839, 105.8926
1366.898, 103.3164
1367.958, 94.73730
1369.017, 258.1104
1370.076, 119.5225
1371.134, 99.92969
1372.193, 83.33398
1373.251, 290.7344
1374.310, 31.55469
1375.368, 173.9473
1376.426, 206.2393
1377.484, 157.6260
1378.542, 141.9404
1379.599, 123.3213
1380.657, 136.7012
1381.714, 207.0791
1382.771, 149.4541
1383.828, 1.004883
1384.885, 97.59375
1385.942, 154.9678
1386.999, 171.7705
1388.055, 29.31445
1389.111, 92.38574
1390.168, 73.02246
1391.224, 49.97070
1392.280, 141.9033
1393.335, 20.14551
1394.391, 112.3066
1395.446, 118.7471
1396.502, 163.5850
1397.557, 124.6982
1398.612, 112.0840
1399.667, 182.3623
1400.722, 206.7715
1401.776, 159.0146
1402.831, 206.0303
1403.885, 83.64648
1404.939, 110.0039
1405.994, 200.5898
1407.048, 157.0234
1408.101, 205.5010
1409.155, 219.3594
1410.209, 73.29980
1411.262, 204.8008
1412.315, 216.2783
1413.368, 104.4785
1414.421, 226.4453
1415.474, 131.6523
1416.527, 114.2617
1417.579, 155.0498
1418.632, 135.1357
1419.684, 212.5664
1420.736, 196.4248
1421.788, 161.6455
1422.840, 59.97852
1423.891, 168.3105
1424.943, 181.6279
1425.994, 120.9355
1427.046, 148.2373
1428.097, 113.8662
1429.148, 137.8311
1430.199, 88.00488
1431.249, 114.1592
1432.300, 149.2891
1433.350, 75.39746
1434.401, 102.8721
1435.451, 164.9189
1436.501, 214.9414
1437.551, 126.8154
1438.601, 156.5879
1439.650, 10.04980
1440.700, 176.5420
1441.749, 116.0664
1442.798, 163.6230
1443.847, 199.1514
1444.896, 167.7559
1445.945, 199.3652
1446.993, 68.97754
1448.042, 106.5146
1449.090, 126.1289
1450.138, 220.7412
1451.187, 52.39941
1452.234, 89.07520
1453.282, 180.7539
1454.330, 165.4326
1455.377, 308.1123
1456.425, 220.8125
1457.472, 166.5361
1458.519, 183.2646
1459.566, 243.0195
1460.613, 170.7617
1461.660, 160.4912
1462.706, 202.2236
1463.752, 127.9609
1464.799, 90.68262
1465.845, 87.42285
1466.891, 107.0957
1467.937, 142.9160
1468.982, 193.6709
1470.028, 185.2881
1471.073, 187.0498
1472.119, 74.81836
1473.164, 24.40527
1474.209, 14.96094
1475.254, 171.7432
1476.299, 119.3711
1477.343, 168.1592
1478.388, 73.92969
1479.432, 265.5537
1480.476, 58.37305
1481.520, 51.79004
1482.564, 202.0605
1483.608, 39.92285
1484.651, 153.7988
1485.695, 225.6865
1486.738, 119.5859
1487.782, 96.49707
1488.825, 26.58105
1489.868, 100.3564
1490.910, 61.30859
1491.953, 83.26270
1492.996, 125.2148
1494.038, 113.1826
1495.080, 89.16602
1496.122, 280.1680
1497.164, 185.1885
1498.206, 137.2344
1499.248, 4.300781
1500.290, 210.3945
1501.331, 81.52246
1502.372, 157.3203
1503.413, 155.4863
1504.455, 115.6709
1505.495, 93.87109
1506.536, 226.0908
1507.577, 209.3193
1508.617, 40.57324
1509.658, 180.8438
1510.698, 4.868164
1511.738, 44.43750
1512.778, 12.76074
1513.818, 67.10449
1514.857, 83.46875
1515.897, 201.8545
1516.936, 171.2646
1517.975, 142.6982
1519.015, 21.78027
1520.054, 125.5996
1521.092, 61.00293
1522.131, 201.3916
1523.170, 133.3330
1524.208, 195.2197
1525.246, 357.4170
1526.285, 157.1582
1527.323, 126.1035
1528.361, 88.11914
1529.398, 96.12695
1530.436, 65.12500
1531.473, 155.4580
1532.511, 212.3672
1533.548, 25.26074
1534.585, 185.1201
1535.622, 201.9385
1536.659, 236.9619
1537.695, 94.79688
1538.732, 132.5605
1539.768, 138.6836
1540.805, 184.6846
1541.841, 108.5771
1542.877, 88.17188
1543.913, 14.26172
1544.948, 22.29297
1545.984, 98.84570
1547.019, 100.6738
1548.055, 165.8359
1549.090, 225.9131
1550.125, 213.7402
1551.160, 105.8066
1552.195, 266.1523
1553.229, 120.5830
1554.264, 226.9355
1555.298, 144.6572
1556.332, 78.49316
1557.366, 156.1309
1558.400, 0.6367190
1559.434, 68.07520
1560.468, 110.3838
1561.502, 90.81445
1562.535, 0.0000000E+00
##END=



