##NAMES=Augite
##RRUFFID=R061086
##IDEAL CHEMISTRY=(Ca,Mg,Fe^2+^,Fe^3+^)_2_(Si,Al)_2_O_6_
##LOCALITY=Boreslav, Teplitz, Bohemia, Czech Republic
##OWNER=RRUFF
##SOURCE=Michael Scott
##DESCRIPTION=Black to dark green tabular euhedral crystal
##STATUS=The identification of this mineral has been confirmed by X-ray diffraction and chemical analysis
##URL=rruff.info/R061086
##MEASURED CHEMISTRY=(Ca_0.88_Mg_0.83_Fe_0.13_Al_0.08_Na_0.04_Ti_0.03_Cr_0.01_)_Σ=2_(Si_1.89_Al_0.11_)_Σ=2_O_6_
##PIN_ID=M00179
##ORIENTATION=Laser parallel to a* (1 0 0). Fiducial mark perpendicular to laser is parallel to b [0 1 0]
174.7910, 0.0000000E+00
176.0210, 27.51514
177.2500, 63.40137
178.4790, 108.2061
179.7080, 131.3418
180.9370, 29.78320
182.1650, 148.2944
183.3940, 35.46875
184.6220, 6.097656
185.8500, 18.36182
187.0780, 89.80127
188.3050, 58.23584
189.5330, 29.42236
190.7600, 0.1899410
191.9870, 65.42236
193.2140, 85.04004
194.4410, 106.9844
195.6680, 25.21094
196.8940, 147.6865
198.1200, 0.8999020
199.3470, 23.59424
200.5720, 44.51465
201.7980, 93.35840
203.0240, 27.15283
204.2490, 8.920898
205.4740, 105.6792
206.6990, 21.44043
207.9240, 136.2163
209.1490, 232.0142
210.3740, 336.8467
211.5980, 326.7202
212.8220, 532.6367
214.0460, 483.5952
215.2700, 624.5972
216.4930, 696.6455
217.7170, 673.7417
218.9400, 758.8882
220.1630, 828.2524
221.3860, 921.9243
222.6090, 1024.157
223.8320, 921.8003
225.0540, 952.2314
226.2760, 945.7646
227.4980, 985.3950
228.7200, 911.1201
229.9420, 887.0522
231.1630, 755.8428
232.3850, 748.8350
233.6060, 700.9116
234.8270, 589.0679
236.0480, 689.2993
237.2690, 440.6021
238.4890, 532.9731
239.7090, 406.4121
240.9290, 421.9175
242.1490, 432.4878
243.3690, 341.1270
244.5890, 354.8872
245.8080, 263.7075
247.0270, 317.5947
248.2470, 324.5400
249.4650, 303.5044
250.6840, 281.4980
251.9030, 356.5264
253.1210, 176.5928
254.3390, 172.7007
255.5570, 223.8540
256.7750, 138.0552
257.9930, 218.3057
259.2100, 149.5317
260.4280, 123.9175
261.6450, 33.35693
262.8620, 68.80566
264.0790, 13.13428
265.2950, 3.846680
266.5120, 51.56250
267.7280, 94.92627
268.9440, 89.24463
270.1600, 27.51904
271.3760, 74.75049
272.5920, 46.94238
273.8070, 40.90332
275.0220, 57.78662
276.2370, 73.70508
277.4520, 31.66064
278.6670, 33.65283
279.8820, 176.6797
281.0960, 176.7412
282.3100, 292.8374
283.5240, 291.9663
284.7380, 353.1289
285.9520, 410.3228
287.1650, 518.5498
288.3780, 648.8076
289.5920, 684.0957
290.8050, 723.4141
292.0170, 848.7617
293.2300, 988.1338
294.4430, 1140.495
295.6550, 1153.828
296.8670, 1232.149
298.0790, 1399.491
299.2910, 1425.862
300.5020, 1634.260
301.7140, 1831.685
302.9250, 2027.135
304.1360, 2083.610
305.3470, 2333.111
306.5580, 2487.636
307.7680, 2745.183
308.9780, 3070.822
310.1890, 3248.617
311.3990, 3656.237
312.6090, 3763.864
313.8180, 4220.536
315.0280, 4497.278
316.2370, 4888.156
317.4460, 5068.185
318.6550, 5311.356
319.8640, 5582.687
321.0730, 5756.394
322.2810, 5767.320
323.4890, 5986.389
324.6980, 5791.609
325.9060, 5808.925
327.1130, 5612.345
328.3210, 5508.849
329.5280, 5248.432
330.7360, 5018.962
331.9430, 4812.711
333.1500, 4501.546
334.3560, 4270.443
335.5630, 4069.419
336.7690, 3690.440
337.9760, 3597.517
339.1820, 3407.660
340.3870, 3375.847
341.5930, 3262.080
342.7990, 3134.349
344.0040, 3096.646
345.2090, 3193.966
346.4140, 3109.308
347.6190, 3097.668
348.8240, 3170.051
350.0280, 3138.451
351.2330, 3012.873
352.4370, 3009.313
353.6410, 3054.773
354.8440, 3042.252
356.0480, 3236.750
357.2520, 3074.266
358.4550, 3119.800
359.6580, 2924.351
360.8610, 2974.921
362.0640, 2893.507
363.2660, 3010.109
364.4690, 3031.729
365.6710, 2829.358
366.8730, 2870.930
368.0750, 2978.466
369.2770, 3032.965
370.4780, 3001.483
371.6800, 3137.470
372.8810, 3166.273
374.0820, 3398.145
375.2830, 3373.732
376.4830, 3637.336
377.6840, 3902.955
378.8840, 4423.589
380.0840, 4713.237
381.2840, 5077.899
382.4840, 5465.576
383.6840, 5801.265
384.8830, 6279.966
386.0830, 6510.680
387.2820, 6632.406
388.4810, 6918.143
389.6800, 6778.889
390.8780, 6880.645
392.0770, 6747.412
393.2750, 6465.187
394.4730, 5893.974
395.6710, 5584.768
396.8690, 5074.570
398.0660, 4946.379
399.2640, 4079.195
400.4610, 3296.022
401.6580, 2999.854
402.8550, 2355.693
404.0520, 2014.538
405.2490, 1630.389
406.4450, 1380.245
407.6410, 1227.106
408.8370, 1134.607
410.0330, 937.4775
411.2290, 866.6455
412.4240, 729.9297
413.6200, 692.4980
414.8150, 583.3003
416.0100, 482.1567
417.2050, 451.3120
418.4000, 342.2031
419.5940, 388.0967
420.7880, 317.9731
421.9830, 302.8872
423.1770, 262.7837
424.3700, 291.6812
425.5640, 298.5781
426.7580, 264.4751
427.9510, 201.3716
429.1440, 163.2671
430.3370, 132.1616
431.5300, 152.0630
432.7220, 110.9624
433.9150, 120.8623
435.1070, 156.7612
436.2990, 107.6582
437.4910, 81.55273
438.6830, 105.4463
439.8750, 35.33887
441.0660, 6.757813
442.2570, 27.15869
443.4480, 17.81885
444.6390, 61.60693
445.8300, 60.75049
447.0210, 53.75781
448.2110, 70.71436
449.4010, 42.33545
450.5910, 71.57715
451.7810, 81.97559
452.9710, 52.56787
454.1610, 90.67822
455.3500, 66.45459
456.5390, 146.1963
457.7280, 97.37402
458.9170, 169.3848
460.1060, 175.1055
461.2940, 274.8306
462.4830, 245.7173
463.6710, 151.9023
464.8590, 175.8823
466.0470, 236.3706
467.2350, 324.4849
468.4220, 334.5337
469.6090, 223.6748
470.7970, 213.3398
471.9840, 223.7222
473.1700, 223.0996
474.3570, 169.9971
475.5440, 261.1079
476.7300, 263.9517
477.9160, 283.0771
479.1020, 231.3491
480.2880, 375.2534
481.4740, 314.3828
482.6590, 297.7329
483.8440, 397.9873
485.0300, 259.8057
486.2140, 273.2441
487.3990, 334.7104
488.5840, 260.8833
489.7680, 542.8726
490.9530, 407.7676
492.1370, 451.5811
493.3210, 354.6514
494.5040, 388.4473
495.6880, 497.2183
496.8720, 435.9639
498.0550, 547.6841
499.2380, 496.3779
500.4210, 533.0459
501.6040, 645.6875
502.7860, 649.0005
503.9690, 680.4751
505.1510, 821.4478
506.3330, 677.9790
507.5150, 874.4829
508.6970, 857.9575
509.8780, 1009.404
511.0600, 954.8232
512.2410, 953.2134
513.4220, 1109.574
514.6030, 1171.907
515.7840, 1109.210
516.9640, 1230.484
518.1440, 1218.728
519.3250, 1296.941
520.5050, 1386.124
521.6850, 1382.276
522.8640, 1341.398
524.0440, 1262.488
525.2230, 1375.546
526.4020, 1325.574
527.5820, 1379.568
528.7600, 1538.531
529.9390, 1447.461
531.1180, 1555.358
532.2960, 1496.223
533.4740, 1385.054
534.6520, 1324.851
535.8300, 1398.614
537.0080, 1288.344
538.1850, 1287.040
539.3630, 1372.700
540.5400, 1327.326
541.7170, 1231.917
542.8940, 1217.474
544.0700, 1161.873
545.2470, 1202.480
546.4230, 1126.930
547.5990, 1066.343
548.7750, 1131.720
549.9510, 1093.061
551.1270, 1105.366
552.3020, 1067.635
553.4780, 1042.843
554.6530, 999.0938
555.8280, 980.2891
557.0030, 968.4507
558.1770, 937.5859
559.3520, 962.6904
560.5260, 945.7559
561.7000, 992.7837
562.8740, 927.7729
564.0480, 918.3823
565.2220, 874.6348
566.3950, 833.5068
567.5680, 784.4038
568.7420, 716.1978
569.9150, 712.4531
571.0870, 874.6670
572.2600, 683.7949
573.4320, 724.4297
574.6050, 682.3955
575.7770, 494.1606
576.9490, 553.8770
578.1210, 471.4814
579.2920, 474.1206
580.4640, 582.7998
581.6350, 385.9482
582.8060, 371.8667
583.9770, 238.8760
585.1480, 154.8936
586.3190, 234.6074
587.4890, 165.0474
588.6590, 298.2314
589.8290, 117.7368
590.9990, 29.72852
592.1690, 62.65967
593.3390, 61.04688
594.5080, 8.255859
595.6770, 78.60791
596.8470, 6.195313
598.0160, 12.03418
599.1840, 10.73633
600.3530, 48.87207
601.5210, 60.31934
602.6900, 161.0264
603.8580, 11.69580
605.0260, 44.24316
606.1930, 79.38281
607.3610, 63.11035
608.5280, 38.25244
609.6960, 35.52197
610.8630, 102.6963
612.0300, 77.79932
613.1970, 76.82275
614.3630, 31.23291
615.5300, 19.41455
616.6960, 60.28223
617.8620, 37.10352
619.0280, 157.3809
620.1940, 54.80469
621.3590, 7.855957
622.5250, 98.37061
623.6900, 67.52637
624.8550, 176.6025
626.0200, 215.6211
627.1850, 207.5850
628.3490, 263.4946
629.5140, 299.3516
630.6780, 262.1577
631.8420, 419.9121
633.0060, 413.6167
634.1700, 372.2729
635.3330, 390.8789
636.4970, 525.4365
637.6600, 548.9453
638.8230, 651.4038
639.9860, 810.8145
641.1490, 845.1768
642.3110, 960.4902
643.4740, 1098.756
644.6360, 1229.567
645.7980, 1405.142
646.9600, 1594.263
648.1220, 1837.337
649.2840, 2086.362
650.4450, 2346.341
651.6060, 2799.272
652.7670, 3182.156
653.9280, 3657.994
655.0890, 4097.785
656.2500, 4851.528
657.4100, 5375.227
658.5700, 5974.879
659.7300, 6588.484
660.8900, 7026.044
662.0500, 7474.557
663.2100, 7766.027
664.3690, 7717.450
665.5280, 7643.829
666.6880, 7432.162
667.8460, 7104.451
669.0050, 6420.698
670.1640, 5826.897
671.3220, 5201.054
672.4810, 4630.167
673.6390, 3868.238
674.7970, 3534.264
675.9540, 2987.249
677.1120, 2657.189
678.2690, 2275.088
679.4270, 1973.944
680.5840, 1749.758
681.7410, 1479.531
682.8980, 1350.263
684.0540, 1133.953
685.2110, 955.6016
686.3670, 891.2100
687.5230, 761.7783
688.6790, 705.3062
689.8350, 594.7939
690.9900, 643.2427
692.1460, 603.6514
693.3010, 539.0225
694.4560, 411.3530
695.6110, 341.6460
696.7660, 253.9004
697.9210, 310.1167
699.0750, 305.2954
700.2290, 204.4360
701.3840, 261.5400
702.5370, 250.6069
703.6910, 179.6372
704.8450, 254.6309
705.9980, 93.58887
707.1520, 142.5107
708.3050, 221.3965
709.4580, 189.2476
710.6110, 0.9365230
711.7630, 125.8291
712.9160, 15.56055
714.0680, 28.25195
715.2200, 25.90771
716.3720, 38.52832
717.5240, 16.11475
718.6760, 10.81641
719.8270, 34.82178
720.9780, 50.36816
722.1300, 84.97998
723.2810, 106.3887
724.4310, 101.0088
725.5820, 115.0415
726.7330, 130.4888
727.8830, 69.55908
729.0330, 115.6904
730.1830, 134.0806
731.3330, 96.69678
732.4830, 184.5679
733.6320, 125.0405
734.7810, 151.2451
735.9310, 155.4990
737.0800, 129.2603
738.2290, 3.917480
739.3770, 1.319824
740.5260, 92.76074
741.6740, 84.41602
742.8220, 182.4180
743.9700, 0.7231450
745.1180, 53.32861
746.2660, 96.28076
747.4130, 84.27051
748.5610, 52.14062
749.7080, 67.45996
750.8550, 143.0347
752.0020, 118.5879
753.1490, 246.5942
754.2950, 241.3599
755.4420, 218.3662
756.5880, 316.0640
757.7340, 368.5884
758.8800, 215.4541
760.0250, 521.0684
761.1710, 460.4365
762.3160, 406.8735
763.4620, 597.7207
764.6070, 499.9224
765.7520, 588.0713
766.8960, 685.4883
768.0410, 720.0640
769.1850, 693.4907
770.3300, 651.1611
771.4740, 640.8311
772.6180, 638.4111
773.7610, 809.1738
774.9050, 692.8481
776.0480, 631.5244
777.1920, 730.2031
778.3350, 633.8853
779.4780, 820.5713
780.6200, 614.2617
781.7630, 620.9580
782.9060, 707.6592
784.0480, 676.3672
785.1900, 714.0811
786.3320, 724.8018
787.4740, 625.5317
788.6150, 488.2690
789.7570, 414.0146
790.8980, 721.7705
792.0390, 552.5356
793.1800, 606.3110
794.3210, 793.0977
795.4620, 582.8955
796.6020, 747.7061
797.7420, 585.5288
798.8830, 725.3638
800.0230, 728.2134
801.1620, 622.0767
802.3020, 737.9541
803.4420, 682.8467
804.5810, 733.7544
805.7200, 749.6777
806.8590, 873.6177
807.9980, 909.5747
809.1370, 1007.549
810.2750, 999.5410
811.4140, 1026.510
812.5520, 1055.579
813.6900, 1002.627
814.8280, 975.6943
815.9650, 912.7822
817.1030, 1038.892
818.2400, 980.0195
819.3780, 1136.171
820.5150, 1164.343
821.6520, 1004.538
822.7880, 1008.756
823.9250, 1065.997
825.0610, 1073.263
826.1980, 967.5518
827.3340, 985.8652
828.4700, 824.2041
829.6050, 980.5674
830.7410, 835.9580
831.8760, 855.3730
833.0120, 960.8174
834.1470, 870.2871
835.2820, 856.7852
836.4160, 870.3105
837.5510, 834.8652
838.6860, 836.4482
839.8200, 752.0605
840.9540, 824.7031
842.0880, 717.3750
843.2220, 838.0156
844.3550, 798.5107
845.4890, 865.5146
846.6220, 815.3115
847.7550, 908.6895
848.8880, 989.5508
850.0210, 1016.076
851.1540, 1044.794
852.2860, 1092.555
853.4190, 1111.421
854.5510, 1119.247
855.6830, 1090.027
856.8150, 1118.332
857.9460, 1110.799
859.0780, 1150.232
860.2090, 1129.815
861.3410, 1029.183
862.4720, 1104.169
863.6020, 1036.340
864.7330, 1031.488
865.8640, 897.9053
866.9940, 817.3652
868.1240, 803.3564
869.2540, 741.0225
870.3840, 805.7109
871.5140, 749.1953
872.6440, 803.6855
873.7730, 707.1445
874.9020, 839.9717
876.0320, 558.9883
877.1600, 639.5312
878.2890, 672.9355
879.4180, 615.9746
880.5460, 723.4219
881.6750, 609.9785
882.8030, 642.6357
883.9310, 698.4062
885.0590, 582.2783
886.1860, 640.2383
887.3140, 630.3223
888.4410, 550.5020
889.5680, 663.7969
890.6950, 522.1855
891.8220, 710.6445
892.9490, 634.2070
894.0750, 621.8340
895.2020, 495.5410
896.3280, 454.3633
897.4540, 474.3164
898.5800, 598.3037
899.7050, 535.3896
900.8310, 542.5410
901.9560, 564.7480
903.0820, 576.0352
904.2070, 566.3984
905.3320, 551.8193
906.4560, 550.9521
907.5810, 530.8672
908.7050, 524.4795
909.8300, 587.1641
910.9540, 559.9316
912.0780, 574.7832
913.2010, 498.6943
914.3250, 551.6748
915.4480, 579.5996
916.5720, 605.8643
917.6950, 645.0674
918.8180, 706.3398
919.9410, 628.6836
921.0630, 848.0957
922.1860, 576.5654
923.3080, 710.0996
924.4300, 711.6914
925.5520, 622.3525
926.6740, 692.0879
927.7960, 645.9004
928.9170, 738.8223
930.0390, 642.8076
931.1600, 634.8555
932.2810, 674.9600
933.4020, 555.1230
934.5230, 660.3438
935.6430, 655.6230
936.7640, 610.9639
937.8840, 629.3623
939.0040, 562.8174
940.1240, 553.3291
941.2440, 548.8965
942.3630, 581.5293
943.4830, 500.2207
944.6020, 412.9756
945.7210, 447.0918
946.8400, 581.6650
947.9590, 478.6045
949.0770, 504.6025
950.1960, 552.6562
951.3140, 528.7646
952.4320, 677.9316
953.5500, 753.1553
954.6680, 732.4346
955.7860, 742.7705
956.9030, 807.1641
958.0210, 873.6133
959.1380, 843.1240
960.2550, 850.6904
961.3720, 974.3115
962.4890, 890.9941
963.6050, 930.7314
964.7220, 1066.526
965.8380, 1033.375
966.9540, 1148.279
968.0700, 1280.236
969.1860, 1368.249
970.3010, 1423.315
971.4170, 1406.436
972.5320, 1447.611
973.6470, 1589.838
974.7620, 1549.122
975.8770, 1615.462
976.9910, 1520.856
978.1060, 1673.304
979.2200, 1893.815
980.3340, 1907.382
981.4480, 2108.001
982.5620, 2197.684
983.6760, 2293.419
984.7890, 2462.215
985.9030, 2708.068
987.0160, 2875.972
988.1290, 3184.928
989.2420, 3411.938
990.3550, 3836.000
991.4670, 4039.128
992.5800, 4531.323
993.6920, 4943.595
994.8040, 5461.947
995.9160, 6012.471
997.0280, 6515.896
998.1390, 7219.498
999.2510, 7934.166
1000.362, 8646.918
1001.473, 9532.754
1002.584, 10167.66
1003.695, 10653.67
1004.805, 11247.76
1005.916, 11526.95
1007.026, 11808.21
1008.136, 11718.96
1009.246, 11294.42
1010.356, 10780.08
1011.466, 10136.57
1012.576, 9092.114
1013.685, 7977.935
1014.794, 7108.343
1015.903, 6085.454
1017.012, 5112.488
1018.121, 4611.785
1019.229, 3943.229
1020.338, 3399.218
1021.446, 2983.902
1022.554, 2874.353
1023.662, 2574.466
1024.770, 2247.482
1025.878, 2214.893
1026.985, 2062.089
1028.092, 2028.890
1029.200, 1772.068
1030.307, 1912.294
1031.413, 1705.810
1032.520, 1808.980
1033.627, 1873.824
1034.733, 1849.127
1035.839, 1860.465
1036.945, 1814.013
1038.051, 1735.344
1039.157, 1672.902
1040.262, 1627.156
1041.368, 1451.235
1042.473, 1511.347
1043.578, 1502.282
1044.683, 1404.097
1045.788, 1248.365
1046.893, 1380.055
1047.997, 1154.376
1049.101, 1218.981
1050.205, 1137.104
1051.309, 1039.655
1052.413, 1185.664
1053.517, 871.8828
1054.621, 914.0615
1055.724, 838.1709
1056.827, 740.5801
1057.930, 720.8623
1059.033, 753.8916
1060.136, 697.3613
1061.238, 697.9639
1062.341, 677.9277
1063.443, 628.7744
1064.545, 608.6943
1065.647, 561.2002
1066.749, 496.1846
1067.850, 434.6387
1068.952, 520.7471
1070.053, 558.6846
1071.154, 558.8105
1072.255, 548.3301
1073.356, 564.7549
1074.457, 496.3789
1075.557, 416.0342
1076.658, 471.8350
1077.758, 489.9717
1078.858, 436.8828
1079.958, 450.3789
1081.057, 414.6982
1082.157, 321.7158
1083.256, 280.7383
1084.356, 387.1924
1085.455, 300.6309
1086.554, 303.1562
1087.653, 287.9932
1088.751, 280.2109
1089.850, 334.3789
1090.948, 422.7646
1092.046, 352.8125
1093.144, 331.6904
1094.242, 214.5020
1095.340, 197.5830
1096.437, 322.0273
1097.534, 333.1699
1098.632, 315.2178
1099.729, 281.2656
1100.826, 340.3096
1101.922, 349.3516
1103.019, 390.5146
1104.115, 399.6670
1105.212, 349.6641
1106.308, 363.9971
1107.404, 383.9424
1108.499, 272.0498
1109.595, 253.0635
1110.691, 123.9316
1111.786, 310.9326
1112.881, 259.3730
1113.976, 433.7920
1115.071, 231.0410
1116.166, 284.6377
1117.260, 136.8809
1118.355, 244.8340
1119.449, 133.7773
1120.543, 183.7129
1121.637, 265.6357
1122.731, 184.5479
1123.824, 148.4492
1124.918, 98.33887
1126.011, 55.21484
1127.104, 82.08008
1128.197, 50.21973
1129.290, 36.34961
1130.382, 42.66406
1131.475, 46.47168
1132.567, 36.68359
1133.659, 138.4590
1134.751, 70.22363
1135.843, 94.17578
1136.935, 0.8994140
1138.027, 22.89355
1139.118, 79.21387
1140.209, 135.5820
1141.300, 34.75391
1142.391, 20.76172
1143.482, 13.36035
1144.573, 65.08301
1145.663, 18.59375
1146.754, 9.202148
1147.844, 155.8389
1148.934, 109.5469
1150.024, 93.36719
1151.113, 210.9961
1152.203, 108.0254
1153.292, 85.90137
1154.381, 14.05469
1155.470, 27.91895
1156.559, 30.33301
1157.648, 8.634766
1158.737, 15.97363
1159.825, 99.35742
1160.913, 113.8281
1162.001, 84.38184
1163.089, 13.01855
1164.177, 5.701172
1165.265, 75.57227
1166.352, 65.18359
1167.440, 44.01660
1168.527, 25.08301
1169.614, 22.85059
1170.701, 8.843750
1171.788, 63.18555
1172.874, 25.84668
1173.961, 68.98535
1175.047, 65.20605
1176.133, 31.48438
1177.219, 11.86133
1178.305, 4.267578
1179.390, 86.73047
1180.476, 20.70508
1181.561, 2.904297
1182.646, 8.572266
1183.731, 5.695313
1184.816, 59.90918
1185.901, 32.02441
1186.985, 56.21582
1188.070, 11.30566
1189.154, 15.65918
1190.238, 21.25684
1191.322, 138.8096
1192.406, 30.94141
1193.489, 57.64062
1194.573, 138.2969
1195.656, 74.91895
1196.739, 134.5000
1197.822, 83.04492
1198.905, 58.55176
1199.988, 162.0107
1201.070, 118.4355
1202.153, 164.8232
1203.235, 174.1738
1204.317, 52.49121
1205.399, 90.75781
1206.481, 50.98145
1207.562, 148.1533
1208.644, 51.28809
1209.725, 65.36816
1210.806, 127.4004
1211.887, 240.4385
1212.968, 225.3936
1214.049, 123.3125
1215.129, 203.1914
1216.209, 144.0332
1217.290, 128.8350
1218.370, 164.5967
1219.450, 179.3193
1220.529, 86.00488
1221.609, 260.6396
1222.688, 171.2559
1223.768, 87.83301
1224.847, 212.3594
1225.926, 146.8477
1227.005, 201.2949
1228.083, 227.7031
1229.162, 276.0723
1230.240, 274.4053
1231.318, 282.7852
1232.396, 203.9561
1233.474, 216.1729
1234.552, 307.3525
1235.629, 173.4912
1236.707, 126.5918
1237.784, 221.6455
1238.861, 347.6611
1239.938, 59.63574
1241.015, 259.5498
1242.092, 166.4229
1243.168, 169.2578
1244.244, 190.0488
1245.321, 103.8037
1246.397, 191.5068
1247.473, 292.1797
1248.548, 346.8154
1249.624, 385.3701
1250.699, 401.5156
1251.775, 410.4854
1252.850, 334.9648
1253.925, 316.4043
1254.999, 316.9111
1256.074, 282.8262
1257.148, 295.4912
1258.223, 320.7754
1259.297, 253.0225
1260.371, 391.2295
1261.445, 191.3984
1262.519, 316.5254
1263.592, 273.6133
1264.666, 225.6621
1265.739, 291.6699
1266.812, 211.6113
1267.885, 229.5400
1268.958, 294.0068
1270.030, 205.7725
1271.103, 290.3447
1272.175, 227.2900
1273.247, 345.0371
1274.319, 253.5371
1275.391, 287.4521
1276.463, 386.6680
1277.535, 254.0586
1278.606, 322.0967
1279.677, 188.6035
1280.748, 355.9521
1281.819, 177.6094
1282.890, 221.5020
1283.961, 181.7314
1285.031, 240.0605
1286.102, 269.0088
1287.172, 268.2725
1288.242, 251.7324
1289.312, 283.3125
1290.381, 308.4609
1291.451, 299.4541
1292.520, 327.6377
1293.590, 307.1455
1294.659, 313.1943
1295.728, 213.7021
1296.797, 207.4102
1297.865, 210.0107
1298.934, 224.7881
1300.002, 178.3184
1301.070, 186.1182
1302.138, 203.6299
1303.206, 214.2080
1304.274, 273.7061
1305.341, 242.8164
1306.409, 332.4258
1307.476, 226.3955
1308.543, 321.0771
1309.610, 220.2334
1310.677, 186.9521
1311.744, 311.2070
1312.810, 253.2441
1313.877, 280.3145
1314.943, 347.4463
1316.009, 317.2705
1317.075, 415.2129
1318.140, 260.4033
1319.206, 306.1426
1320.272, 282.4072
1321.337, 226.9268
1322.402, 280.3076
1323.467, 248.4111
1324.532, 188.2197
1325.596, 251.3906
1326.661, 260.0801
1327.725, 283.1055
1328.790, 316.8740
1329.854, 329.2588
1330.918, 361.3896
1331.981, 285.5195
1333.045, 289.0869
1334.108, 387.4961
1335.172, 231.7471
1336.235, 291.6494
1337.298, 136.7637
1338.361, 256.2812
1339.423, 112.9609
1340.486, 249.9287
1341.548, 273.8770
1342.611, 275.3818
1343.673, 353.2930
1344.735, 318.0986
1345.796, 270.5400
1346.858, 409.2197
1347.919, 291.9336
1348.981, 275.4150
1350.042, 333.3867
1351.103, 161.9883
1352.164, 227.3496
1353.225, 223.0713
1354.285, 185.4121
1355.346, 337.0371
1356.406, 369.7383
1357.466, 343.5088
1358.526, 294.1797
1359.586, 275.8340
1360.645, 350.3447
1361.705, 252.9297
1362.764, 300.5352
1363.823, 319.1025
1364.882, 267.3057
1365.941, 284.2842
1367.000, 260.8193
1368.059, 215.4678
1369.117, 307.9629
1370.175, 222.5723
1371.233, 211.6104
1372.291, 133.9424
1373.349, 223.7559
1374.407, 170.6455
1375.464, 276.0605
1376.522, 260.4990
1377.579, 246.8926
1378.636, 279.5342
1379.693, 133.6445
1380.750, 253.0049
1381.806, 261.3555
1382.863, 195.6953
1383.919, 269.0254
1384.975, 274.3457
1386.031, 230.9336
1387.087, 94.15918
1388.143, 299.4512
1389.199, 238.3125
1390.254, 115.5869
1391.309, 224.8457
1392.364, 231.8906
1393.419, 286.1396
1394.474, 190.0908
1395.529, 239.0684
1396.583, 128.2598
1397.638, 284.1982
1398.692, 42.46777
1399.746, 79.49023
1400.800, 200.6875
1401.853, 151.8213
1402.907, 232.0186
1403.960, 57.21387
1405.014, 161.4004
1406.067, 2.622070
1407.120, 242.5498
1408.173, 160.7920
1409.225, 303.8174
1410.278, 207.0635
1411.330, 234.1797
1412.383, 153.2363
1413.435, 119.5078
1414.487, 224.7773
1415.538, 12.04492
1416.590, 38.66406
1417.641, 35.64062
1418.693, 196.9668
1419.744, 94.29492
1420.795, 170.6230
1421.846, 203.9463
1422.897, 158.2881
1423.947, 232.6475
1424.998, 139.0098
1426.048, 233.2295
1427.098, 146.3740
1428.148, 94.53809
1429.198, 0.7470700
1430.247, 93.96484
1431.297, 45.18945
1432.346, 116.3926
1433.396, 191.6045
1434.445, 89.82324
1435.494, 165.0791
1436.542, 91.36133
1437.591, 176.6963
1438.639, 104.1201
1439.688, 73.66895
1440.736, 259.2168
1441.784, 59.79297
1442.832, 193.4678
1443.880, 146.2031
1444.927, 193.9355
1445.975, 172.6621
1447.022, 181.3926
1448.069, 177.1133
1449.116, 122.8320
1450.163, 184.5664
1451.209, 135.3115
1452.256, 154.0215
1453.302, 118.7803
1454.348, 167.5371
1455.394, 175.2920
1456.440, 116.0479
1457.486, 244.7920
1458.532, 22.52246
1459.577, 138.2598
1460.623, 159.9990
1461.668, 212.7354
1462.713, 146.4717
1463.758, 270.2090
1464.802, 70.95312
1465.847, 124.7051
1466.891, 112.4912
1467.936, 60.28320
1468.980, 107.0820
1470.024, 11.86816
1471.067, 166.6592
1472.111, 76.45898
1473.155, 63.26660
1474.198, 130.0850
1475.241, 62.09082
1476.284, 56.74414
1477.327, 185.5957
1478.370, 300.4600
1479.413, 183.3438
1480.455, 82.24512
1481.497, 261.9014
1482.540, 23.81641
1483.582, 108.7705
1484.624, 58.59766
1485.665, 199.6064
1486.707, 32.60645
1487.748, 74.62695
1488.790, 2.613281
1489.831, 20.94141
1490.872, 54.50684
1491.912, 178.4590
1492.953, 92.42676
1493.994, 126.4102
1495.034, 4.588867
1496.074, 110.4355
1497.114, 13.45410
1498.154, 87.46191
1499.194, 38.46094
1500.234, 191.6396
1501.273, 29.76172
1502.313, 177.8994
1503.352, 154.0537
1504.391, 152.2188
1505.430, 252.3975
1506.468, 52.58691
1507.507, 71.79004
1508.545, 83.00586
1509.584, 144.2363
1510.622, 4.481445
1511.660, 212.4639
1512.698, 85.73535
1513.735, 270.0254
1514.773, 222.3330
1515.810, 118.6602
1516.848, 121.5352
1517.885, 168.8896
1518.922, 140.2637
1519.958, 69.65332
1520.995, 119.7734
1522.032, 70.89844
1523.068, 18.77539
1524.104, 77.91113
1525.140, 109.9346
1526.176, 71.15625
1527.212, 127.0820
1528.248, 51.40820
1529.283, 168.6377
1530.318, 126.5791
1531.353, 169.0156
1532.389, 181.6934
1533.423, 58.47266
1534.458, 141.2129
1535.493, 11.90820
1536.527, 55.45117
1537.561, 97.78027
1538.596, 91.24121
1539.630, 210.6143
1540.663, 88.90234
1541.697, 219.3691
1542.731, 106.0586
1543.764, 153.3271
1544.797, 232.9014
1545.830, 184.4209
1546.863, 48.12207
1547.896, 142.6719
1548.929, 88.31250
1549.961, 58.56250
1550.994, 80.46484
1552.026, 172.0518
1553.058, 230.2012
1554.090, 165.7617
1555.121, 279.4570
1556.153, 154.6260
1557.185, 95.31348
1558.216, 314.3398
1559.247, 95.55957
1560.278, 77.93652
1561.309, 0.4218750
1562.340, 0.0000000E+00
##END=



