##NAMES=Augite
##RRUFFID=R061086
##IDEAL CHEMISTRY=(Ca,Mg,Fe^2+^,Fe^3+^)_2_(Si,Al)_2_O_6_
##LOCALITY=Boreslav, Teplitz, Bohemia, Czech Republic
##OWNER=RRUFF
##SOURCE=Michael Scott
##DESCRIPTION=Black to dark green tabular euhedral crystal
##STATUS=The identification of this mineral has been confirmed by X-ray diffraction and chemical analysis
##URL=rruff.info/R061086
##MEASURED CHEMISTRY=(Ca_0.88_Mg_0.83_Fe_0.13_Al_0.08_Na_0.04_Ti_0.03_Cr_0.01_)_Σ=2_(Si_1.89_Al_0.11_)_Σ=2_O_6_
##PIN_ID=M00244
##ORIENTATION=Laser parallel to -b* (0 -1 0). Fiducial mark perpendicular to laser is parallel to c [0 0 1]
139.0610, 0.0000000E+00
140.2950, 31.97217
141.5290, 66.84521
142.7640, 34.93726
143.9980, 4.494385
145.2320, 78.00684
146.4650, 9.664795
147.6990, 87.12769
148.9320, 68.06201
150.1650, 81.42090
151.3980, 75.45020
152.6310, 122.3301
153.8640, 101.5413
155.0960, 71.05908
156.3280, 51.86011
157.5600, 29.07666
158.7920, 18.22803
160.0240, 38.75635
161.2560, 16.50854
162.4870, 74.42114
163.7180, 2.466797
164.9490, 135.8171
166.1800, 146.2637
167.4110, 197.8635
168.6410, 202.6074
169.8720, 239.4878
171.1020, 269.4961
172.3320, 247.6250
173.5620, 310.8677
174.7910, 336.2178
176.0210, 423.6687
177.2500, 445.2153
178.4790, 531.8508
179.7080, 601.5703
180.9370, 549.3696
182.1650, 583.2468
183.3940, 567.2046
184.6220, 531.2407
185.8500, 492.3528
187.0780, 431.5366
188.3050, 521.7922
189.5330, 471.1177
190.7600, 401.5103
191.9870, 505.9666
193.2140, 543.4824
194.4410, 452.0549
195.6680, 434.6812
196.8940, 398.3574
198.1200, 330.0823
199.3470, 315.8525
200.5720, 338.6663
201.7980, 338.5212
203.0240, 330.4158
204.2490, 228.3479
205.4740, 112.3162
206.6990, 146.3184
207.9240, 18.35327
209.1490, 97.41919
210.3740, 130.5146
211.5980, 45.63843
212.8220, 72.79248
214.0460, 131.9778
215.2700, 200.1797
216.4930, 158.3899
217.7170, 200.6252
218.9400, 116.8862
220.1630, 204.1501
221.3860, 172.4700
222.6090, 209.8142
223.8320, 258.1938
225.0540, 243.6431
226.2760, 319.1807
227.4980, 425.7407
228.7200, 484.3647
229.9420, 533.0044
231.1630, 624.6543
232.3850, 621.1470
233.6060, 643.0972
234.8270, 624.7522
236.0480, 649.5364
237.2690, 650.3652
238.4890, 701.2139
239.7090, 712.0779
240.9290, 685.9509
242.1490, 751.8447
243.3690, 853.7434
244.5890, 831.6475
245.8080, 923.5566
247.0270, 993.4712
248.2470, 1045.391
249.4650, 1113.801
250.6840, 1222.247
251.9030, 1215.183
253.1210, 1215.125
254.3390, 1246.072
255.5570, 1180.024
256.7750, 1079.980
257.9930, 1038.943
259.2100, 936.6626
260.4280, 826.2051
261.6450, 745.8574
262.8620, 614.8384
264.0790, 501.8228
265.2950, 467.8115
266.5120, 387.8037
267.7280, 335.8003
268.9440, 281.7998
270.1600, 312.8022
271.3760, 269.8076
272.5920, 314.8164
273.8070, 268.8276
275.0220, 319.8418
276.2370, 309.8574
277.4520, 320.8145
278.6670, 367.8950
279.8820, 341.9160
281.0960, 313.9390
282.3100, 298.9634
283.5240, 375.9883
284.7380, 439.0137
285.9520, 412.5249
287.1650, 432.8398
288.3780, 411.9453
289.5920, 495.8882
290.8050, 591.5029
292.0170, 555.2954
293.2300, 535.7012
294.4430, 578.4751
295.6550, 728.1304
296.8670, 744.8491
298.0790, 850.2676
299.2910, 900.8359
300.5020, 876.4082
301.7140, 882.8960
302.9250, 1138.948
304.1360, 1148.904
305.3470, 1295.548
306.5580, 1417.071
307.7680, 1593.966
308.9780, 1632.039
310.1890, 1843.165
311.3990, 2165.388
312.6090, 2228.008
313.8180, 2484.065
315.0280, 2728.897
316.2370, 3007.387
317.4460, 3259.044
318.6550, 3574.107
319.8640, 3913.352
321.0730, 4112.403
322.2810, 4461.500
323.4890, 4604.211
324.6980, 4686.505
325.9060, 4827.443
327.1130, 4830.098
328.3210, 4795.163
329.5280, 4703.500
330.7360, 4542.765
331.9430, 4367.699
333.1500, 4056.916
334.3560, 3854.549
335.5630, 3655.008
336.7690, 3454.936
337.9760, 3288.223
339.1820, 3131.900
340.3870, 2933.911
341.5930, 2890.210
342.7990, 2800.361
344.0040, 2759.533
345.2090, 2608.709
346.4140, 2639.892
347.6190, 2558.079
348.8240, 2582.271
350.0280, 2479.468
351.2330, 2491.670
352.4370, 2347.877
353.6410, 2382.087
354.8440, 2301.301
356.0480, 2244.519
357.2520, 2148.740
358.4550, 2049.965
359.6580, 1953.779
360.8610, 1883.423
362.0640, 1733.656
363.2660, 1671.892
364.4690, 1567.131
365.6710, 1423.372
366.8730, 1369.615
368.0750, 1259.860
369.2770, 1191.106
370.4780, 1112.354
371.6800, 1087.603
372.8810, 1046.853
374.0820, 998.9131
375.2830, 939.3521
376.4830, 947.6016
377.6840, 880.8516
378.8840, 909.1006
380.0840, 820.3496
381.2840, 834.6719
382.4840, 933.8447
383.6840, 862.0903
384.8830, 896.3340
386.0830, 967.5762
387.2820, 993.8169
388.4810, 950.0557
389.6800, 908.2920
390.8780, 985.5269
392.0770, 903.7593
393.2750, 880.9897
394.4730, 878.2178
395.6710, 768.4434
396.8690, 725.6655
398.0660, 631.8857
399.2640, 584.1030
400.4610, 526.3179
401.6580, 389.5293
402.8550, 430.7383
404.0520, 356.9438
405.2490, 342.1455
406.4450, 229.3442
407.6410, 188.5400
408.8370, 181.7314
410.0330, 198.9199
411.2290, 154.1045
412.4240, 174.2852
413.6200, 129.4614
414.8150, 107.6343
416.0100, 145.8027
417.2050, 104.9673
418.4000, 88.17529
419.5940, 67.28320
420.7880, 41.43457
421.9830, 41.21094
423.1770, 30.72314
424.3700, 44.86035
425.5640, 42.33740
426.7580, 55.28564
427.9510, 46.24316
429.1440, 85.36035
430.3370, 59.47119
431.5300, 113.5767
432.7220, 116.7661
433.9150, 82.77148
435.1070, 104.8638
436.2990, 118.9512
437.4910, 24.03662
438.6830, 39.88281
439.8750, 6.825195
441.0660, 21.22559
442.2570, 21.27344
443.4480, 27.55273
444.6390, 50.64355
445.8300, 11.63477
447.0210, 19.63574
448.2110, 86.64062
449.4010, 48.30615
450.5910, 12.68604
451.7810, 53.75293
452.9710, 44.85645
454.1610, 54.56787
455.3500, 27.08252
456.5390, 3.693359
457.7280, 53.26611
458.9170, 54.43799
460.1060, 7.008301
461.2940, 27.89844
462.4830, 11.90918
463.6710, 48.43604
464.8590, 44.35986
466.0470, 13.48877
467.2350, 37.11377
468.4220, 22.12598
469.6090, 1.495605
470.7970, 83.86475
471.9840, 10.92920
473.1700, 35.81006
474.3570, 0.7114260
475.5440, 20.63232
476.7300, 8.421387
477.9160, 21.47363
479.1020, 1.511719
480.2880, 43.53369
481.4740, 28.54346
482.6590, 53.53906
483.8440, 47.52393
485.0300, 0.4956050
486.2140, 130.4468
487.3990, 168.3862
488.5840, 131.3149
489.7680, 168.2314
490.9530, 172.1362
492.1370, 209.0293
493.3210, 371.9106
494.5040, 444.7798
495.6880, 517.6377
496.8720, 547.4824
498.0550, 642.3145
499.2380, 864.1348
500.4210, 1043.942
501.6040, 1216.737
502.7860, 1623.519
503.9690, 1850.288
505.1510, 2151.044
506.3330, 2344.788
507.5150, 2458.518
508.6970, 2279.234
509.8780, 2238.938
511.0600, 2056.628
512.2410, 1745.304
513.4220, 1520.966
514.6030, 1366.614
515.7840, 1174.249
516.9640, 1053.870
518.1440, 946.4771
519.3250, 900.0698
520.5050, 809.6484
521.6850, 681.2129
522.8640, 672.7632
524.0440, 628.2983
525.2230, 547.8193
526.4020, 537.3247
527.5820, 487.8169
528.7600, 502.2939
529.9390, 476.9692
531.1180, 525.2031
532.2960, 468.6357
533.4740, 490.0532
534.6520, 520.4556
535.8300, 533.8423
537.0080, 544.2144
538.1850, 470.5713
539.3630, 516.9126
540.5400, 585.2383
541.7170, 506.5488
542.8940, 466.8442
544.0700, 396.1235
545.2470, 409.4009
546.4230, 376.6362
547.5990, 437.8691
548.7750, 496.0854
549.9510, 482.2866
551.1270, 483.4717
552.3020, 378.6411
553.4780, 507.7944
554.6530, 430.9321
555.8280, 522.0532
557.0030, 499.1582
558.1770, 524.2471
559.3520, 548.3203
560.5260, 466.3774
561.7000, 488.4175
562.8740, 495.4424
564.0480, 502.4502
565.2220, 461.4419
566.3950, 357.4170
567.5680, 377.3755
568.7420, 344.3179
569.9150, 389.2441
571.0870, 340.1533
572.2600, 387.0459
573.4320, 447.9224
574.6050, 330.7827
575.7770, 383.6255
576.9490, 403.4517
578.1210, 251.2617
579.2920, 204.0044
580.4640, 260.5400
581.6350, 209.9355
582.8060, 200.6104
583.9770, 247.2676
585.1480, 157.9331
586.3190, 100.6245
587.4890, 204.7021
588.6590, 140.2744
589.8290, 151.6084
590.9990, 17.76367
592.1690, 24.93018
593.3390, 26.63623
594.5080, 19.95898
595.6770, 15.70654
596.8470, 39.32568
598.0160, 23.03223
599.1840, 35.14648
600.3530, 19.08154
601.5210, 7.093750
602.6900, 11.02393
603.8580, 24.88965
605.0260, 53.05420
606.1930, 65.17188
607.3610, 102.9766
608.5280, 88.44971
609.6960, 123.3154
610.8630, 126.9077
612.0300, 143.2261
613.1970, 200.0342
614.3630, 167.2109
615.5300, 229.3037
616.6960, 258.6895
617.8620, 271.8179
619.0280, 296.3472
620.1940, 270.6382
621.3590, 285.3120
622.5250, 357.8379
623.6900, 325.5068
624.8550, 331.1274
626.0200, 384.8818
627.1850, 443.6011
628.3490, 393.2998
629.5140, 506.9780
630.6780, 605.6362
631.8420, 528.2739
633.0060, 763.8906
634.1700, 726.4873
635.3330, 942.0645
636.4970, 953.6211
637.6600, 964.1577
638.8230, 1124.674
639.9860, 1220.171
641.1490, 1341.523
642.3110, 1516.546
643.4740, 1658.544
644.6360, 1890.962
645.7980, 2126.361
646.9600, 2379.741
648.1220, 2735.103
649.2840, 3020.444
650.4450, 3530.767
651.6060, 3993.071
652.7670, 4643.355
653.9280, 5230.622
655.0890, 6045.870
656.2500, 7002.101
657.4100, 7964.311
658.5700, 9318.506
659.7300, 10433.68
660.8900, 11892.84
662.0500, 13201.98
663.2100, 14573.10
664.3690, 15554.21
665.5280, 16161.29
666.6880, 15919.36
667.8460, 15307.42
669.0050, 14136.45
670.1640, 12577.47
671.3220, 11070.47
672.4810, 9594.459
673.6390, 8251.428
674.7970, 7021.382
675.9540, 5929.318
677.1120, 4992.240
678.2690, 4434.145
679.4270, 3815.034
680.5840, 3263.907
681.7410, 2777.766
682.8980, 2589.609
684.0540, 2121.438
685.2110, 1941.251
686.3670, 1618.050
687.5230, 1501.833
688.6790, 1383.603
689.8350, 1126.359
690.9900, 1130.100
692.1460, 935.8271
693.3010, 968.5400
694.4560, 829.2402
695.6110, 847.9268
696.7660, 755.6006
697.9210, 710.2598
699.0750, 761.9072
700.2290, 656.5415
701.3840, 690.1631
702.5370, 710.7725
703.6910, 684.3701
704.8450, 708.9551
705.9980, 646.5283
707.1520, 699.0908
708.3050, 613.6406
709.4580, 680.1802
710.6110, 592.7080
711.7630, 709.2251
712.9160, 529.7310
714.0680, 570.2266
715.2200, 578.7119
716.3720, 454.1870
717.5240, 496.6519
718.6760, 450.1074
719.8270, 410.5635
720.9780, 407.0122
722.1300, 306.4526
723.2810, 192.8838
724.4310, 134.3066
725.5820, 340.7344
726.7330, 164.3550
727.8830, 147.5767
729.0330, 73.01123
730.1830, 123.6279
731.3330, 55.24023
732.4830, 105.8647
733.6320, 117.9375
734.7810, 41.27148
735.9310, 108.9321
737.0800, 97.43652
738.2290, 151.7065
739.3770, 112.1831
740.5260, 93.18408
741.6740, 109.4248
742.8220, 145.0356
743.9700, 94.92334
745.1180, 105.6113
746.2660, 75.38721
747.4130, 32.89307
748.5610, 71.63525
749.7080, 39.41016
750.8550, 20.04443
752.0020, 58.61670
753.1490, 35.79346
754.2950, 8.792969
755.4420, 53.37695
756.5880, 16.01514
757.7340, 2.590820
758.8800, 89.80420
760.0250, 73.20117
761.1710, 81.60059
762.3160, 158.0029
763.4620, 131.4082
764.6070, 166.8213
765.7520, 191.2363
766.8960, 105.6553
768.0410, 179.0771
769.1850, 65.50391
770.3300, 244.9346
771.4740, 232.3696
772.6180, 236.8101
773.7610, 243.2563
774.9050, 180.7080
776.0480, 277.1655
777.1920, 334.6299
778.3350, 348.1011
779.4780, 126.5796
780.6200, 216.0654
781.7630, 236.5586
782.9060, 336.0610
784.0480, 265.5713
785.1900, 237.0903
786.3320, 266.6187
787.4740, 310.1567
788.6150, 295.7031
789.7570, 286.2598
790.8980, 413.8271
792.0390, 245.4053
793.1800, 386.9941
794.3210, 314.5933
795.4620, 351.2051
796.6020, 353.8276
797.7420, 247.4619
798.8830, 299.1089
800.0230, 236.7681
801.1620, 352.4404
802.3020, 266.1250
803.4420, 359.8237
804.5810, 464.5361
805.7200, 400.2617
806.8590, 318.0015
807.9980, 361.7563
809.1370, 379.5259
810.2750, 453.3105
811.4140, 393.1104
812.5520, 570.9258
813.6900, 432.7573
814.8280, 506.6050
815.9650, 499.4688
817.1030, 591.3496
818.2400, 573.2471
819.3780, 652.1626
820.5150, 666.0947
821.6520, 619.0449
822.7880, 583.0132
823.9250, 636.9995
825.0610, 659.0044
826.1980, 618.0283
827.3340, 675.0713
828.4700, 618.1338
829.6050, 667.2148
830.7410, 673.3154
831.8760, 614.4370
833.0120, 611.5781
834.1470, 638.7402
835.2820, 534.9233
836.4160, 563.1265
837.5510, 538.3516
838.6860, 477.5972
839.8200, 421.8662
840.9540, 451.1558
842.0880, 359.4683
843.2220, 372.8022
844.3550, 360.1597
845.4890, 337.5396
846.6220, 327.9424
847.7550, 409.3687
848.8880, 404.8184
850.0210, 398.2920
851.1540, 326.7891
852.2860, 301.3101
853.4190, 304.8564
854.5510, 462.4268
855.6830, 314.0215
856.8150, 362.6416
857.9460, 410.2866
859.0780, 310.9570
860.2090, 434.6533
861.3410, 406.3745
862.4720, 412.1221
863.6020, 355.8955
864.7330, 438.6953
865.8640, 424.5215
866.9940, 424.5142
868.1240, 347.8989
869.2540, 329.2075
870.3840, 319.5576
871.5140, 306.4692
872.6440, 298.9839
873.7730, 311.3438
874.9020, 263.4155
876.0320, 230.1826
877.1600, 271.3384
878.2890, 294.6426
879.4180, 272.8677
880.5460, 332.3823
881.6750, 299.9697
882.8030, 254.2485
883.9310, 267.6289
885.0590, 264.9712
886.1860, 252.2148
887.3140, 265.5649
888.4410, 243.9741
889.5680, 269.6909
890.6950, 313.8716
891.8220, 246.9521
892.9490, 333.8413
894.0750, 385.5288
895.2020, 265.4980
896.3280, 327.5215
897.4540, 328.5815
898.5800, 414.7012
899.7050, 279.8804
900.8310, 333.0986
901.9560, 258.3574
903.0820, 327.6758
904.2070, 415.0479
905.3320, 316.5093
906.4560, 338.0293
907.5810, 323.6177
908.7050, 361.2690
909.8300, 363.4731
910.9540, 318.7241
912.0780, 369.5229
913.2010, 364.3765
914.3250, 329.2749
915.4480, 298.2358
916.5720, 436.2520
917.6950, 404.3198
918.8180, 375.4316
919.9410, 547.5811
921.0630, 475.7832
922.1860, 573.0249
923.3080, 429.3135
924.4300, 520.6470
925.5520, 596.0278
926.6740, 459.4492
927.7960, 556.9092
928.9170, 530.4150
930.0390, 573.9634
931.1600, 573.5498
932.2810, 557.7285
933.4020, 511.8447
934.5230, 523.5513
935.6430, 536.2988
936.7640, 518.0869
937.8840, 509.2036
939.0040, 516.2051
940.1240, 493.7397
941.2440, 524.7295
942.3630, 506.7026
943.4830, 522.1270
944.6020, 501.9614
945.7210, 537.1255
946.8400, 560.3359
947.9590, 544.5854
949.0770, 541.8760
950.1960, 610.2056
951.3140, 634.5742
952.4320, 577.9907
953.5500, 521.4512
954.6680, 545.9492
955.7860, 552.4126
956.9030, 569.4458
958.0210, 651.6880
959.1380, 646.3438
960.2550, 714.0391
961.3720, 763.7725
962.4890, 751.5449
963.6050, 712.3584
964.7220, 802.2085
965.8380, 893.1035
966.9540, 848.0376
968.0700, 869.0093
969.1860, 972.0210
970.3010, 906.0693
971.4170, 979.1611
972.5320, 1100.291
973.6470, 1058.457
974.7620, 1194.660
975.8770, 1272.900
976.9910, 1374.178
978.1060, 1316.492
979.2200, 1470.844
980.3340, 1503.232
981.4480, 1775.654
982.5620, 1714.114
983.6760, 2040.609
984.7890, 2056.140
985.9030, 2243.706
987.0160, 2347.307
988.1290, 2598.943
989.2420, 2869.617
990.3550, 3209.325
991.4670, 3544.068
992.5800, 3891.846
993.6920, 4133.660
994.8040, 4443.508
995.9160, 5193.391
997.0280, 5659.307
998.1390, 6430.255
999.2510, 7284.238
1000.362, 8062.254
1001.473, 8933.342
1002.584, 9754.483
1003.695, 10918.69
1004.805, 11765.97
1005.916, 12760.30
1007.026, 13405.69
1008.136, 13772.14
1009.246, 14028.67
1010.356, 13805.26
1011.466, 13310.91
1012.576, 12303.64
1013.685, 11237.45
1014.794, 9862.289
1015.903, 8437.188
1017.012, 7128.360
1018.121, 6160.191
1019.229, 5212.746
1020.338, 4248.891
1021.446, 3894.999
1022.554, 3301.350
1023.662, 2942.195
1024.770, 2606.337
1025.878, 2396.993
1026.985, 2174.087
1028.092, 2073.786
1029.200, 1900.705
1030.307, 1953.062
1031.413, 1902.348
1032.520, 1757.917
1033.627, 1756.458
1034.733, 1586.302
1035.839, 1632.659
1036.945, 1536.798
1038.051, 1485.192
1039.157, 1414.410
1040.262, 1385.239
1041.368, 1360.591
1042.473, 1340.838
1043.578, 1330.501
1044.683, 1304.126
1045.788, 1268.508
1046.893, 1191.618
1047.997, 1148.848
1049.101, 1035.218
1050.205, 1009.818
1051.309, 995.3701
1052.413, 905.2515
1053.517, 797.9131
1054.621, 910.8247
1055.724, 753.4238
1056.827, 772.4404
1057.930, 726.0303
1059.033, 712.1904
1060.136, 604.1138
1061.238, 642.3877
1062.341, 606.9604
1063.443, 674.8213
1064.545, 583.1338
1065.647, 467.2368
1066.749, 565.1421
1067.850, 429.6245
1068.952, 440.9126
1070.053, 415.1396
1071.154, 517.1187
1072.255, 446.8188
1073.356, 511.2988
1074.457, 351.5771
1075.557, 394.6616
1076.658, 408.6255
1077.758, 404.6909
1078.858, 349.3145
1079.958, 405.6099
1081.057, 377.1304
1082.157, 438.2891
1083.256, 353.4961
1084.356, 387.7373
1085.455, 312.9551
1086.554, 289.9609
1087.653, 337.1440
1088.751, 371.1553
1089.850, 434.4189
1090.948, 339.4346
1092.046, 385.9507
1093.144, 351.9692
1094.242, 297.3906
1095.340, 307.1841
1096.437, 314.2046
1097.534, 274.8828
1098.632, 357.3140
1099.729, 212.5024
1100.826, 331.0962
1101.922, 361.2095
1103.019, 270.8188
1104.115, 249.8804
1105.212, 266.0347
1106.308, 275.2612
1107.404, 205.4463
1108.499, 167.8228
1109.595, 271.0078
1110.691, 249.1509
1111.786, 188.2256
1112.881, 299.2119
1113.976, 210.3887
1115.071, 265.5435
1116.166, 144.5142
1117.260, 166.4800
1118.355, 182.5703
1119.449, 199.5244
1120.543, 188.0815
1121.637, 308.0757
1122.731, 138.2056
1123.824, 113.1890
1124.918, 42.58545
1126.011, 237.5864
1127.104, 91.48926
1128.197, 93.41406
1129.290, 126.2993
1130.382, 88.27734
1131.475, 97.14355
1132.567, 76.21924
1133.659, 78.06592
1134.751, 66.90967
1135.843, 54.17773
1136.935, 59.83008
1138.027, 30.70605
1139.118, 58.49512
1140.209, 51.27197
1141.300, 8.036133
1142.391, 29.82422
1143.482, 1.560547
1144.573, 47.63379
1145.663, 75.06689
1146.754, 48.73926
1147.844, 7.604492
1148.934, 38.96631
1150.024, 48.30078
1151.113, 39.73730
1152.203, 50.78906
1153.292, 118.7021
1154.381, 61.06738
1155.470, 127.6880
1156.559, 38.39600
1157.648, 18.14502
1158.737, 30.31836
1159.825, 53.48047
1160.913, 21.84912
1162.001, 72.02100
1163.089, 74.95410
1164.177, 10.04785
1165.265, 3.027832
1166.352, 66.99170
1167.440, 46.10107
1168.527, 176.1567
1169.614, 60.44238
1170.701, 96.79053
1171.788, 73.22070
1172.874, 0.2783200
1173.961, 78.25537
1175.047, 107.1367
1176.133, 39.49316
1177.219, 2.078125
1178.305, 61.79980
1179.390, 40.59033
1180.476, 22.43945
1181.561, 12.66309
1182.646, 43.73438
1183.731, 20.21875
1184.816, 47.77832
1185.901, 1.249512
1186.985, 9.681152
1188.070, 0.9067380
1189.154, 37.76123
1190.238, 71.58936
1191.322, 9.391602
1192.406, 27.15674
1193.489, 100.8896
1194.573, 40.59863
1195.656, 58.27881
1196.739, 103.9316
1197.822, 38.56055
1198.905, 50.15771
1199.988, 15.27295
1201.070, 103.2412
1202.153, 5.270508
1203.235, 32.83252
1204.317, 61.54053
1205.399, 9.115234
1206.481, 147.1753
1207.562, 31.43994
1208.644, 18.66895
1209.725, 69.85645
1210.806, 56.01514
1211.887, 93.14258
1212.968, 86.24219
1214.049, 10.31348
1215.129, 34.33838
1216.209, 148.3257
1217.290, 37.28662
1218.370, 149.3169
1219.450, 90.21533
1220.529, 183.0850
1221.609, 69.93311
1222.688, 183.7490
1223.768, 79.54248
1224.847, 58.31348
1225.926, 175.0420
1227.005, 30.74316
1228.083, 83.40234
1229.162, 117.0303
1230.240, 73.63037
1231.318, 137.1973
1232.396, 35.73779
1233.474, 151.2358
1234.552, 129.7051
1235.629, 113.1460
1236.707, 123.5571
1237.784, 95.93945
1238.861, 124.2910
1239.938, 134.5078
1241.015, 150.9062
1242.092, 176.1714
1243.168, 126.4087
1244.244, 131.6162
1245.321, 192.7944
1246.397, 245.9458
1247.473, 146.0684
1248.548, 178.2026
1249.624, 86.26904
1250.699, 167.3027
1251.775, 134.3091
1252.850, 168.2852
1253.925, 99.23438
1254.999, 162.1519
1256.074, 249.2568
1257.148, 178.1177
1258.223, 250.0688
1259.297, 162.8779
1260.371, 202.6582
1261.445, 136.4116
1262.519, 256.1455
1263.592, 285.8516
1264.666, 126.5293
1265.739, 199.1782
1266.812, 174.7993
1267.885, 231.3931
1268.958, 229.9585
1270.030, 281.4961
1271.103, 186.0063
1272.175, 243.4893
1273.247, 175.9292
1274.319, 191.3291
1275.391, 232.7734
1276.463, 256.1460
1277.535, 219.3530
1278.606, 179.8286
1279.677, 200.6016
1280.748, 194.7983
1281.819, 238.0376
1282.890, 136.0518
1283.961, 219.8599
1285.031, 291.0898
1286.102, 245.8184
1287.172, 114.7139
1288.242, 174.7979
1289.312, 127.2661
1290.381, 247.2944
1291.451, 243.3945
1292.520, 181.2109
1293.590, 205.0786
1294.659, 155.5952
1295.728, 186.6211
1296.797, 128.8633
1297.865, 206.8496
1298.934, 142.0098
1300.002, 134.8101
1301.070, 221.0044
1302.138, 177.7300
1303.206, 188.4453
1304.274, 158.1963
1305.341, 95.18652
1306.409, 156.4473
1307.476, 196.8838
1308.543, 270.5767
1309.610, 148.3354
1310.677, 182.1406
1311.744, 191.6108
1312.810, 199.2939
1313.877, 232.7212
1314.943, 122.4546
1316.009, 33.79541
1317.075, 145.5278
1318.140, 276.6841
1319.206, 216.0718
1320.272, 141.1025
1321.337, 205.8281
1322.402, 111.2593
1323.467, 268.4873
1324.532, 253.5630
1325.596, 244.2925
1326.661, 270.5630
1327.725, 240.5347
1328.790, 235.3135
1329.854, 153.8281
1330.918, 217.3657
1331.981, 192.1172
1333.045, 213.0625
1334.108, 280.1934
1335.172, 217.4365
1336.235, 163.5698
1337.298, 234.1372
1338.361, 261.0249
1339.423, 179.7119
1340.486, 100.7178
1341.548, 242.6675
1342.611, 170.5728
1343.673, 221.4927
1344.735, 141.6152
1345.796, 51.55078
1346.858, 160.0298
1347.919, 183.9966
1348.981, 141.0225
1350.042, 172.7666
1351.103, 179.5264
1352.164, 74.16064
1353.225, 273.4126
1354.285, 120.4268
1355.346, 154.7715
1356.406, 101.3530
1357.466, 78.16602
1358.526, 150.5615
1359.586, 71.42676
1360.645, 121.8359
1361.705, 157.7295
1362.764, 147.5151
1363.823, 173.2256
1364.882, 140.9697
1365.941, 152.9150
1367.000, 216.2061
1368.059, 177.9429
1369.117, 175.7363
1370.175, 237.6060
1371.233, 138.2715
1372.291, 85.94678
1373.349, 114.7935
1374.407, 141.6323
1375.464, 55.33252
1376.522, 95.27588
1377.579, 87.48486
1378.636, 187.3354
1379.693, 165.9443
1380.750, 105.9224
1381.806, 110.2759
1382.863, 9.972656
1383.919, 165.7549
1384.975, 32.50049
1386.031, 153.0449
1387.087, 232.7100
1388.143, 238.4731
1389.199, 188.4663
1390.254, 151.2207
1391.309, 211.9712
1392.364, 197.4287
1393.419, 165.2510
1394.474, 183.5952
1395.529, 215.6084
1396.583, 158.3135
1397.638, 178.0156
1398.692, 152.6782
1399.746, 150.3750
1400.800, 84.98535
1401.853, 45.67480
1402.907, 155.3750
1403.960, 35.07422
1405.014, 83.77393
1406.067, 186.4204
1407.120, 109.1387
1408.173, 119.8657
1409.225, 186.5908
1410.278, 3.862793
1411.330, 129.9038
1412.383, 143.7056
1413.435, 97.50293
1414.487, 164.0093
1415.538, 148.7573
1416.590, 158.3374
1417.641, 121.0967
1418.693, 219.9727
1419.744, 89.77441
1420.795, 85.57617
1421.846, 186.3530
1422.897, 149.1929
1423.947, 99.92383
1424.998, 152.8120
1426.048, 133.5122
1427.098, 74.44971
1428.148, 151.4155
1429.198, 90.38770
1430.247, 118.3896
1431.297, 224.3975
1432.346, 83.32764
1433.396, 147.2109
1434.445, 145.1865
1435.494, 133.0430
1436.542, 100.3848
1437.591, 121.1357
1438.639, 158.2915
1439.688, 156.2212
1440.736, 111.8271
1441.784, 42.77832
1442.832, 119.7280
1443.880, 73.68066
1444.927, 147.6294
1445.975, 148.5718
1447.022, 165.5278
1448.069, 111.5044
1449.116, 127.5332
1450.163, 101.5869
1451.209, 136.6558
1452.256, 85.73389
1453.302, 116.8145
1454.348, 155.9214
1455.394, 147.9165
1456.440, 102.0342
1457.486, 269.1421
1458.532, 192.2368
1459.577, 133.3516
1460.623, 207.4863
1461.668, 93.62939
1462.713, 119.7856
1463.758, 67.95654
1464.802, 41.13477
1465.847, 97.32373
1466.891, 94.52002
1467.936, 204.7236
1468.980, 159.9355
1470.024, 156.1025
1471.067, 83.33154
1472.111, 8.426758
1473.155, 18.82520
1474.198, 23.14502
1475.241, 6.887695
1476.284, 17.84180
1477.327, 79.41211
1478.370, 91.67773
1479.413, 72.95654
1480.455, 205.2476
1481.497, 88.55273
1482.540, 102.8721
1483.582, 76.13867
1484.624, 181.3535
1485.665, 40.71680
1486.707, 71.09570
1487.748, 92.01709
1488.790, 52.42236
1489.831, 51.84717
1490.872, 60.29053
1491.912, 109.7495
1492.953, 56.22510
1493.994, 56.71924
1495.034, 187.2158
1496.074, 124.7124
1497.114, 234.2212
1498.154, 160.7441
1499.194, 103.2822
1500.234, 126.8340
1501.273, 31.40723
1502.313, 133.0093
1503.352, 38.57178
1504.391, 202.2168
1505.430, 8.882324
1506.468, 53.57031
1507.507, 152.2778
1508.545, 175.0059
1509.584, 97.75586
1510.622, 11.47217
1511.660, 105.3223
1512.698, 106.1401
1513.735, 37.01904
1514.773, 97.75879
1515.810, 124.6465
1516.848, 107.5596
1517.885, 51.45020
1518.922, 132.3452
1519.958, 156.6748
1520.995, 122.5439
1522.032, 216.4365
1523.068, 107.3530
1524.104, 147.2974
1525.140, 105.0957
1526.176, 92.07422
1527.212, 179.0630
1528.248, 139.1187
1529.283, 83.20020
1530.318, 183.3091
1531.353, 139.4463
1532.389, 111.1299
1533.423, 151.9150
1534.458, 163.0811
1535.493, 204.0854
1536.527, 200.2822
1537.561, 112.7300
1538.596, 98.32861
1539.630, 140.8569
1540.663, 101.8965
1541.697, 136.5688
1542.731, 61.27148
1543.764, 183.9287
1544.797, 110.5376
1545.830, 136.0732
1546.863, 85.50977
1547.896, 114.8350
1548.929, 169.0840
1549.961, 13.80176
1550.994, 123.9946
1552.026, 280.4019
1553.058, 163.7241
1554.090, 248.2544
1555.121, 201.7090
1556.153, 241.7017
1557.185, 86.19727
1558.216, 56.45312
1559.247, 99.41943
1560.278, 0.1752930
1561.309, 160.6455
1562.340, 0.0000000E+00
##END=



