##NAMES=Augite
##RRUFFID=R061086
##IDEAL CHEMISTRY=(Ca,Mg,Fe^2+^,Fe^3+^)_2_(Si,Al)_2_O_6_
##LOCALITY=Boreslav, Teplitz, Bohemia, Czech Republic
##OWNER=RRUFF
##SOURCE=Michael Scott
##DESCRIPTION=Black to dark green tabular euhedral crystal
##STATUS=The identification of this mineral has been confirmed by X-ray diffraction and chemical analysis
##URL=rruff.info/R061086
##MEASURED CHEMISTRY=(Ca_0.88_Mg_0.83_Fe_0.13_Al_0.08_Na_0.04_Ti_0.03_Cr_0.01_)_Σ=2_(Si_1.89_Al_0.11_)_Σ=2_O_6_
##PIN_ID=M00244
##ORIENTATION=Laser parallel to -b* (0 -1 0). Fiducial mark perpendicular to laser is parallel to c [0 0 1]
162.4870, 0.0000000E+00
163.7180, 46.92871
164.9490, 38.69629
166.1800, 42.53491
167.4110, 32.38403
168.6410, 76.12793
169.8720, 102.6458
171.1020, 30.09595
172.3320, 109.0073
173.5620, 44.33301
174.7910, 105.0691
176.0210, 109.4902
177.2500, 162.2686
178.4790, 153.5854
179.7080, 235.5657
180.9370, 226.2971
182.1650, 240.8474
183.3940, 187.2664
184.6220, 160.1350
185.8500, 194.4607
187.0780, 203.8674
188.3050, 205.3010
189.5330, 248.0195
190.7600, 269.7043
191.9870, 315.6062
193.2140, 257.6262
194.4410, 291.7395
195.6680, 264.9407
196.8940, 170.2261
198.1200, 116.5913
199.3470, 105.0359
200.5720, 184.5652
201.7980, 131.1746
203.0240, 101.8589
204.2490, 52.61255
205.4740, 0.5688480
206.6990, 5.042725
207.9240, 24.75073
209.1490, 13.75806
210.3740, 2.713623
211.5980, 5.378662
212.8220, 73.48560
214.0460, 22.69165
215.2700, 19.90845
216.4930, 28.16382
217.7170, 145.6323
218.9400, 22.93530
220.1630, 51.27368
221.3860, 57.64673
222.6090, 69.37549
223.8320, 167.8083
225.0540, 148.2727
226.2760, 183.7676
227.4980, 187.2922
228.7200, 187.8518
229.9420, 129.4453
231.1630, 185.0645
232.3850, 141.7090
233.6060, 173.3955
234.8270, 138.1157
236.0480, 194.9912
237.2690, 135.9551
238.4890, 146.9324
239.7090, 142.9204
240.9290, 115.9192
242.1490, 177.9294
243.3690, 204.9521
244.5890, 208.9878
245.8080, 197.0371
247.0270, 276.1003
248.2470, 269.1763
249.4650, 294.2629
250.6840, 341.3623
251.9030, 350.4731
253.1210, 317.5955
254.3390, 337.7288
255.5570, 252.8740
256.7750, 415.0315
257.9930, 478.5337
259.2100, 551.3521
260.4280, 503.5132
261.6450, 397.6377
262.8620, 315.2834
264.0790, 75.92920
265.2950, 101.0952
266.5120, 5.275391
267.7280, 79.46851
268.9440, 74.67456
270.1600, 16.89404
271.3760, 3.873779
272.5920, 16.62891
273.8070, 33.62842
275.0220, 47.89819
276.2370, 67.17944
277.4520, 49.47290
278.6670, 57.77759
279.8820, 85.09351
281.0960, 19.42041
282.3100, 8.241943
283.5240, 108.1062
284.7380, 109.4648
285.9520, 219.8330
287.1650, 256.8584
288.3780, 232.5293
289.5920, 354.9966
290.8050, 217.4001
292.0170, 274.8101
293.2300, 380.2288
294.4430, 347.2236
295.6550, 394.6533
296.8670, 408.0903
298.0790, 504.5352
299.2910, 478.9875
300.5020, 595.4470
301.7140, 706.9141
302.9250, 580.1355
304.1360, 786.6096
305.3470, 787.0896
306.5580, 996.6663
307.7680, 1001.503
308.9780, 1083.499
310.1890, 1103.730
311.3990, 1216.958
312.6090, 1345.446
313.8180, 1481.958
315.0280, 1593.335
316.2370, 1844.760
317.4460, 1908.221
318.6550, 2004.705
319.8640, 2312.213
321.0730, 2339.453
322.2810, 2553.288
323.4890, 2500.848
324.6980, 2667.423
325.9060, 2638.009
327.1130, 2594.610
328.3210, 2554.242
329.5280, 2525.884
330.7360, 2445.531
331.9430, 2440.146
333.1500, 2307.769
334.3560, 2248.314
335.5630, 2135.879
336.7690, 2036.592
337.9760, 1841.200
339.1820, 1858.808
340.3870, 1800.429
341.5930, 1619.063
342.7990, 1675.711
344.0040, 1687.370
345.2090, 1687.041
346.4140, 1597.724
347.6190, 1669.417
348.8240, 1630.122
350.0280, 1709.836
351.2330, 1693.446
352.4370, 1627.901
353.6410, 1784.450
354.8440, 1705.570
356.0480, 1681.184
357.2520, 1719.954
358.4550, 1611.794
359.6580, 1558.580
360.8610, 1613.374
362.0640, 1482.176
363.2660, 1400.979
364.4690, 1375.790
365.6710, 1241.608
366.8730, 1276.433
368.0750, 1198.263
369.2770, 1135.099
370.4780, 1161.942
371.6800, 1045.792
372.8810, 1120.646
374.0820, 977.5078
375.2830, 1089.375
376.4830, 1131.247
377.6840, 1125.124
378.8840, 1072.007
380.0840, 1241.894
381.2840, 1250.785
382.4840, 1417.680
383.6840, 1392.579
384.8830, 1531.480
386.0830, 1800.385
387.2820, 1680.294
388.4810, 1852.205
389.6800, 1936.120
390.8780, 1934.037
392.0770, 1957.957
393.2750, 1893.851
394.4730, 1829.805
395.6710, 1676.732
396.8690, 1546.662
398.0660, 1359.594
399.2640, 1206.527
400.4610, 957.4634
401.6580, 874.4014
402.8550, 704.3408
404.0520, 645.2822
405.2490, 540.2251
406.4450, 367.1699
407.6410, 393.1160
408.8370, 292.0637
410.0330, 154.0129
411.2290, 151.9634
412.4240, 224.9148
413.6200, 158.8674
414.8150, 170.8206
416.0100, 187.7202
417.2050, 81.28149
418.4000, 100.2368
419.5940, 127.1921
420.7880, 102.1479
421.9830, 79.10400
423.1770, 60.06006
424.3700, 18.98389
425.5640, 64.96948
426.7580, 14.78882
427.9510, 3.740967
429.1440, 111.6929
430.3370, 33.64404
431.5300, 43.59448
432.7220, 58.54419
433.9150, 73.49268
435.1070, 64.26416
436.2990, 54.34058
437.4910, 38.33154
438.6830, 15.27222
439.8750, 8.788330
441.0660, 17.85181
442.2570, 49.08008
443.4480, 37.01001
444.6390, 57.93823
445.8300, 30.72852
447.0210, 41.87329
448.2110, 25.18140
449.4010, 84.21387
450.5910, 48.30493
451.7810, 25.66699
452.9710, 88.04297
454.1610, 85.87988
455.3500, 6.729004
456.5390, 4.506348
457.7280, 74.84888
458.9170, 36.46436
460.1060, 88.85571
461.2940, 72.43896
462.4830, 154.9712
463.6710, 143.0051
464.8590, 111.3516
466.0470, 125.7373
467.2350, 98.70923
468.4220, 142.5259
469.6090, 92.39600
470.7970, 46.94458
471.9840, 77.74707
473.1700, 90.55933
474.3570, 154.8152
475.5440, 64.12939
476.7300, 122.9077
477.9160, 223.6011
479.1020, 29.81763
480.2880, 52.90674
481.4740, 170.9885
482.6590, 89.06274
483.8440, 160.1294
485.0300, 84.18872
486.2140, 172.2397
487.3990, 143.2834
488.5840, 145.3188
489.7680, 204.3462
490.9530, 206.3647
492.1370, 203.3750
493.3210, 238.0923
494.5040, 226.3699
495.6880, 279.3557
496.8720, 298.3379
498.0550, 330.3140
499.2380, 415.2812
500.4210, 505.2393
501.6040, 609.2046
502.7860, 742.1602
503.9690, 785.1060
505.1510, 978.0417
506.3330, 957.9673
507.5150, 1072.883
508.6970, 941.7886
509.8780, 859.6836
511.0600, 861.5684
512.2410, 719.4424
513.4220, 670.3054
514.6030, 621.1580
515.7840, 600.9993
516.9640, 629.8296
518.1440, 477.6487
519.3250, 517.4563
520.5050, 533.2529
521.6850, 594.0381
522.8640, 487.8113
524.0440, 549.5728
525.2230, 542.3228
526.4020, 571.0605
527.5820, 615.7866
528.7600, 627.4905
529.9390, 613.2021
531.1180, 689.8914
532.2960, 661.5686
533.4740, 704.0706
534.6520, 612.8848
535.8300, 679.5239
537.0080, 636.1504
538.1850, 599.7642
539.3630, 542.3647
540.5400, 620.9529
541.7170, 590.5273
542.8940, 607.0889
544.0700, 569.6372
545.2470, 568.1719
546.4230, 561.6934
547.5990, 584.2009
548.7750, 519.6953
549.9510, 580.1763
551.1270, 586.6433
552.3020, 468.0964
553.4780, 486.5356
554.6530, 477.9609
555.8280, 553.3726
557.0030, 489.7695
558.1770, 561.1531
559.3520, 551.5239
560.5260, 509.8804
561.7000, 464.2227
562.8740, 465.0293
564.0480, 470.8635
565.2220, 446.1621
566.3950, 433.9312
567.5680, 409.2002
568.7420, 392.2637
569.9150, 385.6960
571.0870, 348.9216
572.2600, 369.1326
573.4320, 335.3281
574.6050, 228.5088
575.7770, 314.6743
576.9490, 276.8250
578.1210, 330.9600
579.2920, 278.0803
580.4640, 284.1851
581.6350, 199.0999
582.8060, 260.6255
583.9770, 168.6843
585.1480, 189.7278
586.3190, 106.7556
587.4890, 83.21338
588.6590, 98.39917
589.8290, 90.29883
590.9990, 93.69580
592.1690, 2.497559
593.3390, 50.47925
594.5080, 48.02344
595.6770, 14.90942
596.8470, 28.43799
598.0160, 68.80273
599.1840, 45.74243
600.3530, 24.11987
601.5210, 30.89648
602.6900, 13.09204
603.8580, 7.321533
605.0260, 11.09814
606.1930, 26.30957
607.3610, 16.93384
608.5280, 84.97998
609.6960, 46.64648
610.8630, 19.25366
612.0300, 94.22144
613.1970, 54.40527
614.3630, 41.55322
615.5300, 129.7932
616.6960, 94.87866
617.8620, 98.93774
619.0280, 136.9702
620.1940, 174.8462
621.3590, 223.8225
622.5250, 208.6394
623.6900, 250.2334
624.8550, 253.5239
626.0200, 283.5779
627.1850, 255.4653
628.3490, 251.3328
629.5140, 233.1792
630.6780, 260.8816
631.8420, 304.9700
633.0060, 345.5979
634.1700, 426.3638
635.3330, 506.1091
636.4970, 552.8345
637.6600, 581.5396
638.8230, 579.2251
639.9860, 660.8901
641.1490, 746.5352
642.3110, 816.1606
643.4740, 1017.766
644.6360, 1138.352
645.7980, 1268.897
646.9600, 1440.464
648.1220, 1578.990
649.2840, 1738.497
650.4450, 1978.984
651.6060, 2285.452
652.7670, 2729.900
653.9280, 3001.329
655.0890, 3546.740
656.2500, 4106.130
657.4100, 4563.502
658.5700, 5279.855
659.7300, 6141.189
660.8900, 6822.504
662.0500, 7605.801
663.2100, 8372.078
664.3690, 8933.337
665.5280, 9212.577
666.6880, 9166.803
667.8460, 8817.007
669.0050, 8009.190
670.1640, 7181.357
671.3220, 6318.508
672.4810, 5583.640
673.6390, 4926.753
674.7970, 4060.851
675.9540, 3512.930
677.1120, 2959.991
678.2690, 2618.035
679.4270, 2212.062
680.5840, 1980.072
681.7410, 1553.064
682.8980, 1507.041
684.0540, 1254.000
685.2110, 1062.942
686.3670, 993.8677
687.5230, 858.7773
688.6790, 816.6704
689.8350, 714.5474
690.9900, 649.6880
692.1460, 597.2529
693.3010, 540.0820
694.4560, 502.8955
695.6110, 467.6934
696.7660, 407.4761
697.9210, 434.2432
699.0750, 315.9951
700.2290, 326.7319
701.3840, 448.4546
702.5370, 251.1621
703.6910, 259.8550
704.8450, 393.5332
705.9980, 233.1997
707.1520, 310.8525
708.3050, 244.4912
709.4580, 295.1162
710.6110, 269.7271
711.7630, 282.3247
712.9160, 322.9082
714.0680, 224.4790
715.2200, 215.0361
716.3720, 204.5811
717.5240, 147.1123
718.6760, 179.6313
719.8270, 93.13770
720.9780, 149.6328
722.1300, 80.11865
723.2810, 63.59229
724.4310, 117.0542
725.5820, 18.49561
726.7330, 19.84277
727.8830, 47.22852
729.0330, 16.57812
730.1830, 53.03369
731.3330, 48.77441
732.4830, 59.86182
733.6320, 116.6372
734.7810, 116.9282
735.9310, 97.09863
737.0800, 35.44434
738.2290, 58.07520
739.3770, 99.51172
740.5260, 88.17969
741.6740, 90.90283
742.8220, 83.02734
743.9700, 67.56738
745.1180, 73.17676
746.2660, 66.40234
747.4130, 26.50195
748.5610, 118.6724
749.7080, 27.56250
750.8550, 74.27588
752.0020, 45.09424
753.1490, 47.54199
754.2950, 102.7432
755.4420, 80.55420
756.5880, 171.4409
757.7340, 76.79443
758.8800, 133.2661
760.0250, 78.73584
761.1710, 151.2036
762.3160, 133.6704
763.4620, 206.1348
764.6070, 202.5996
765.7520, 183.0630
766.8960, 264.5269
768.0410, 243.9897
769.1850, 317.4531
770.3300, 308.9170
771.4740, 254.3813
772.6180, 251.8462
773.7610, 164.3125
774.9050, 276.7803
776.0480, 333.2490
777.1920, 235.7202
778.3350, 320.1938
779.4780, 277.6689
780.6200, 289.1465
781.7630, 247.6270
782.9060, 247.1118
784.0480, 315.5986
785.1900, 223.0898
786.3320, 232.5854
787.4740, 288.0840
788.6150, 204.5879
789.7570, 265.0972
790.8980, 296.6104
792.0390, 221.1289
793.1800, 247.6528
794.3210, 198.1836
795.4620, 245.7197
796.6020, 205.2627
797.7420, 211.8120
798.8830, 212.3677
800.0230, 194.9312
801.1620, 245.5024
802.3020, 196.0801
803.4420, 289.6670
804.5810, 237.2612
805.7200, 287.8652
806.8590, 309.4766
807.9980, 265.0977
809.1370, 321.7275
810.2750, 322.3667
811.4140, 335.0161
812.5520, 302.6758
813.6900, 280.3452
814.8280, 279.0254
815.9650, 234.7163
817.1030, 354.4180
818.2400, 368.1309
819.3780, 325.8555
820.5150, 415.5908
821.6520, 394.3389
822.7880, 434.0986
823.9250, 380.8701
825.0610, 465.6548
826.1980, 275.4521
827.3340, 370.2627
828.4700, 307.0864
829.6050, 404.9233
830.7410, 350.7744
831.8760, 309.6396
833.0120, 310.5190
834.1470, 314.4116
835.2820, 359.3198
836.4160, 262.2427
837.5510, 323.1802
838.6860, 243.1333
839.8200, 191.1016
840.9540, 220.0859
842.0880, 308.0859
843.2220, 249.1021
844.3550, 253.1343
845.4890, 251.1836
846.6220, 274.2490
847.7550, 199.3306
848.8880, 353.4302
850.0210, 443.5464
851.1540, 427.6812
852.2860, 356.8325
853.4190, 513.0020
854.5510, 566.1890
855.6830, 678.3945
856.8150, 702.6182
857.9460, 657.8604
859.0780, 711.1216
860.2090, 639.4019
861.3410, 618.7012
862.4720, 673.5747
863.6020, 695.7231
864.7330, 554.0811
865.8640, 523.2295
866.9940, 589.2144
868.1240, 506.5796
869.2540, 468.3242
870.3840, 459.7207
871.5140, 435.1963
872.6440, 362.1050
873.7730, 306.9688
874.9020, 305.6494
876.0320, 278.9233
877.1600, 305.0171
878.2890, 313.0747
879.4180, 390.7729
880.5460, 238.6328
881.6750, 272.2725
882.8030, 226.5044
883.9310, 298.1289
885.0590, 223.3286
886.1860, 167.1382
887.3140, 223.2441
888.4410, 187.4014
889.5680, 206.4863
890.6950, 297.7349
891.8220, 190.0151
892.9490, 231.3271
894.0750, 255.6841
895.2020, 139.0742
896.3280, 244.5234
897.4540, 209.0034
898.5800, 188.5181
899.7050, 219.0713
900.8310, 165.6626
901.9560, 157.2993
903.0820, 199.9658
904.2070, 186.6621
905.3320, 146.3877
906.4560, 160.1436
907.5810, 185.9355
908.7050, 244.7598
909.8300, 123.6187
910.9540, 204.5078
912.0780, 180.4272
913.2010, 299.3848
914.3250, 149.3745
915.4480, 139.4204
916.5720, 166.5093
917.6950, 230.6294
918.8180, 284.7983
919.9410, 272.9980
921.0630, 284.2383
922.1860, 265.5122
923.3080, 302.8208
924.4300, 406.1602
925.5520, 273.5493
926.6740, 385.9688
927.7960, 382.4316
928.9170, 299.9419
930.0390, 305.4927
931.1600, 294.0762
932.2810, 372.7002
933.4020, 298.3638
934.5230, 325.0586
935.6430, 367.7847
936.7640, 373.5576
937.8840, 403.1890
939.0040, 351.2568
940.1240, 432.1621
941.2440, 293.1050
942.3630, 272.0796
943.4830, 391.0884
944.6020, 360.1343
945.7210, 297.2300
946.8400, 439.3662
947.9590, 443.5337
949.0770, 398.7344
950.1960, 451.9653
951.3140, 356.2285
952.4320, 408.5244
953.5500, 433.8511
954.6680, 316.2085
955.7860, 395.5962
956.9030, 421.0166
958.0210, 424.4683
959.1380, 435.9565
960.2550, 360.4819
961.3720, 452.0527
962.4890, 551.6602
963.6050, 489.3062
964.7220, 500.9824
965.8380, 603.6924
966.9540, 554.4336
968.0700, 690.2041
969.1860, 598.0054
970.3010, 598.8369
971.4170, 642.6987
972.5320, 659.5952
973.6470, 662.5225
974.7620, 812.4810
975.8770, 714.4697
976.9910, 751.4888
978.1060, 869.5381
979.2200, 1020.616
980.3340, 867.7241
981.4480, 1017.861
982.5620, 1077.028
983.6760, 1144.223
984.7890, 1218.448
985.9030, 1334.606
987.0160, 1461.984
988.1290, 1591.295
989.2420, 1730.635
990.3550, 1863.003
991.4670, 2082.399
992.5800, 2176.825
993.6920, 2523.279
994.8040, 2696.760
995.9160, 3040.933
997.0280, 3370.820
998.1390, 3781.400
999.2510, 4208.009
1000.362, 4610.647
1001.473, 5227.332
1002.584, 5598.064
1003.695, 6392.006
1004.805, 6844.850
1005.916, 7443.889
1007.026, 7750.850
1008.136, 8055.357
1009.246, 8226.560
1010.356, 8055.659
1011.466, 7786.144
1012.576, 7319.343
1013.685, 6606.592
1014.794, 5899.883
1015.903, 4935.929
1017.012, 4278.133
1018.121, 3737.437
1019.229, 3183.418
1020.338, 2708.908
1021.446, 2466.786
1022.554, 2242.456
1023.662, 1932.367
1024.770, 1798.955
1025.878, 1553.570
1026.985, 1471.698
1028.092, 1394.093
1029.200, 1367.729
1030.307, 1335.694
1031.413, 1239.446
1032.520, 1260.245
1033.627, 1299.771
1034.733, 1205.097
1035.839, 1259.892
1036.945, 1267.704
1038.051, 1136.592
1039.157, 1168.440
1040.262, 1276.732
1041.368, 1216.915
1042.473, 1151.667
1043.578, 1164.583
1044.683, 1066.516
1045.788, 1037.169
1046.893, 947.4844
1047.997, 1032.318
1049.101, 958.1934
1050.205, 871.2891
1051.309, 719.5918
1052.413, 614.6304
1053.517, 728.7876
1054.621, 615.4546
1055.724, 593.3545
1056.827, 503.4849
1057.930, 488.8252
1059.033, 482.9419
1060.136, 566.7134
1061.238, 424.8633
1062.341, 446.1333
1063.443, 362.3965
1064.545, 313.9907
1065.647, 399.9644
1066.749, 271.1753
1067.850, 271.5527
1068.952, 350.3726
1070.053, 222.3325
1071.154, 282.8042
1072.255, 319.0420
1073.356, 338.7822
1074.457, 242.1392
1075.557, 253.1309
1076.658, 293.6172
1077.758, 273.3159
1078.858, 344.8652
1079.958, 297.1504
1081.057, 329.8423
1082.157, 300.1919
1083.256, 320.6318
1084.356, 211.4263
1085.455, 155.7402
1086.554, 234.0537
1087.653, 174.3716
1088.751, 274.9834
1089.850, 290.4897
1090.948, 229.2925
1092.046, 233.0132
1093.144, 196.8247
1094.242, 211.5947
1095.340, 254.6777
1096.437, 229.1113
1097.534, 322.2129
1098.632, 158.6401
1099.729, 235.9829
1100.826, 229.4233
1101.922, 129.7676
1103.019, 222.2959
1104.115, 312.6602
1105.212, 219.1938
1106.308, 259.8301
1107.404, 336.3848
1108.499, 194.8999
1109.595, 258.2637
1110.691, 244.7324
1111.786, 199.0674
1112.881, 286.4009
1113.976, 247.8193
1115.071, 233.1533
1116.166, 208.4780
1117.260, 243.8003
1118.355, 242.1187
1119.449, 180.4336
1120.543, 253.7866
1121.637, 159.0942
1122.731, 128.4443
1123.824, 195.8540
1124.918, 228.1743
1126.011, 134.4629
1127.104, 139.7461
1128.197, 121.3003
1129.290, 105.7188
1130.382, 125.0645
1131.475, 115.4497
1132.567, 118.7026
1133.659, 119.3374
1134.751, 9.423828
1135.843, 35.99219
1136.935, 7.563965
1138.027, 86.64648
1139.118, 20.15039
1140.209, 7.961914
1141.300, 75.21484
1142.391, 13.61768
1143.482, 44.54639
1144.573, 18.68994
1145.663, 36.89307
1146.754, 87.98486
1147.844, 40.90527
1148.934, 40.83008
1150.024, 14.81982
1151.113, 58.17334
1152.203, 60.83496
1153.292, 87.89746
1154.381, 8.001953
1155.470, 38.86084
1156.559, 15.87988
1157.648, 57.28369
1158.737, 12.16797
1159.825, 110.3984
1160.913, 1.688477
1162.001, 14.01025
1163.089, 29.35742
1164.177, 23.73828
1165.265, 51.15088
1166.352, 64.39014
1167.440, 45.91602
1168.527, 15.42773
1169.614, 36.94385
1170.701, 12.57666
1171.788, 6.873535
1172.874, 1.570801
1173.961, 51.83447
1175.047, 83.22852
1176.133, 12.39893
1177.219, 11.94141
1178.305, 76.73877
1179.390, 28.48633
1180.476, 35.72266
1181.561, 49.08594
1182.646, 68.05127
1183.731, 12.82812
1184.816, 14.25586
1185.901, 10.34277
1186.985, 60.37646
1188.070, 43.60791
1189.154, 78.35254
1190.238, 16.70459
1191.322, 37.72412
1192.406, 6.877441
1193.489, 57.93115
1194.573, 10.27979
1195.656, 0.4677730
1196.739, 83.18066
1197.822, 51.87402
1198.905, 26.45361
1199.988, 43.83203
1201.070, 35.27100
1202.153, 160.2407
1203.235, 10.73291
1204.317, 75.19141
1205.399, 31.62939
1206.481, 19.04004
1207.562, 34.58105
1208.644, 0.3139650
1209.725, 128.0215
1210.806, 51.28174
1211.887, 98.51904
1212.968, 79.73438
1214.049, 49.92871
1215.129, 115.0977
1216.209, 122.2456
1217.290, 122.3735
1218.370, 67.48047
1219.450, 80.68408
1220.529, 22.74951
1221.609, 25.48145
1222.688, 12.22168
1223.768, 25.72510
1224.847, 19.07129
1225.926, 107.5142
1227.005, 49.36768
1228.083, 112.1938
1229.162, 145.9971
1230.240, 111.7788
1231.318, 181.7852
1232.396, 94.52344
1233.474, 44.23779
1234.552, 95.92236
1235.629, 84.58350
1236.707, 95.21973
1237.784, 101.4727
1238.861, 138.4219
1239.938, 113.9893
1241.015, 176.5337
1242.092, 234.0576
1243.168, 127.5596
1244.244, 148.0391
1245.321, 168.4961
1246.397, 179.9331
1247.473, 181.3491
1248.548, 192.3711
1249.624, 144.1147
1250.699, 195.4644
1251.775, 144.8433
1252.850, 130.1479
1253.925, 151.4297
1254.999, 175.6895
1256.074, 161.9819
1257.148, 104.1968
1258.223, 131.3867
1259.297, 137.5542
1260.371, 132.6978
1261.445, 182.8184
1262.519, 95.91650
1263.592, 200.9888
1264.666, 120.8789
1265.739, 115.9058
1266.812, 247.7754
1267.885, 250.7554
1268.958, 208.2061
1270.030, 179.9844
1271.103, 188.8696
1272.175, 166.3232
1273.247, 212.3213
1274.319, 153.1675
1275.391, 186.9917
1276.463, 164.0825
1277.535, 157.0332
1278.606, 166.6260
1279.677, 183.1084
1280.748, 161.8335
1281.819, 180.1655
1282.890, 153.7080
1283.961, 161.0205
1285.031, 44.65723
1286.102, 228.2627
1287.172, 92.35791
1288.242, 202.1836
1289.312, 145.7690
1290.381, 159.0249
1291.451, 251.4937
1292.520, 219.1895
1293.590, 192.6094
1294.659, 241.5020
1295.728, 218.9263
1296.797, 225.3306
1297.865, 138.6567
1298.934, 183.0249
1300.002, 174.9463
1301.070, 112.9751
1302.138, 166.4312
1303.206, 141.7202
1304.274, 184.9873
1305.341, 161.5796
1306.409, 156.5317
1307.476, 204.9268
1308.543, 220.2407
1309.610, 153.3301
1310.677, 257.2095
1311.744, 237.6421
1312.810, 183.7329
1313.877, 122.2373
1314.943, 129.5039
1316.009, 182.5361
1317.075, 236.3555
1318.140, 147.3931
1319.206, 102.7720
1320.272, 146.3984
1321.337, 192.6421
1322.402, 198.5176
1323.467, 171.0566
1324.532, 165.2266
1325.596, 167.1387
1326.661, 125.9185
1327.725, 137.2114
1328.790, 131.3589
1329.854, 110.6396
1330.918, 151.4990
1331.981, 161.8477
1333.045, 191.5742
1334.108, 166.6602
1335.172, 213.2446
1336.235, 185.6987
1337.298, 146.2075
1338.361, 183.9741
1339.423, 174.1113
1340.486, 166.1099
1341.548, 171.7002
1342.611, 194.0117
1343.673, 115.7134
1344.735, 133.4224
1345.796, 152.1030
1346.858, 63.48242
1347.919, 149.0938
1348.981, 175.2661
1350.042, 154.5366
1351.103, 148.8228
1352.164, 148.0024
1353.225, 118.8604
1354.285, 164.3584
1355.346, 131.1802
1356.406, 119.7354
1357.466, 135.6094
1358.526, 31.75195
1359.586, 131.2930
1360.645, 143.6416
1361.705, 116.2837
1362.764, 231.6074
1363.823, 109.8179
1364.882, 209.1006
1365.941, 122.4131
1367.000, 157.8672
1368.059, 118.2056
1369.117, 105.0601
1370.175, 178.5698
1371.233, 92.92676
1372.291, 84.35400
1373.349, 123.1870
1374.407, 176.8052
1375.464, 105.3052
1376.522, 107.7085
1377.579, 190.1084
1378.636, 63.49805
1379.693, 120.9692
1380.750, 129.2148
1381.806, 111.5396
1382.863, 60.88379
1383.919, 134.2212
1384.975, 87.27539
1386.031, 158.5381
1387.087, 149.8057
1388.143, 103.9907
1389.199, 139.2954
1390.254, 156.1909
1391.309, 201.4673
1392.364, 120.5513
1393.419, 119.6455
1394.474, 114.9058
1395.529, 110.1606
1396.583, 161.4102
1397.638, 89.65674
1398.692, 164.8970
1399.746, 132.0283
1400.800, 123.3491
1401.853, 116.4980
1402.907, 110.7002
1403.960, 98.12646
1405.014, 82.66504
1406.067, 82.31006
1407.120, 61.52734
1408.173, 73.08789
1409.225, 100.3081
1410.278, 121.5303
1411.330, 114.9341
1412.383, 95.04980
1413.435, 152.4556
1414.487, 134.3691
1415.538, 149.6851
1416.590, 156.9385
1417.641, 74.20264
1418.693, 90.47021
1419.744, 84.68066
1420.795, 163.8999
1421.846, 93.10498
1422.897, 74.36523
1423.947, 61.52393
1424.998, 167.1587
1426.048, 101.3159
1427.098, 136.4116
1428.148, 181.2578
1429.198, 101.2222
1430.247, 142.9023
1431.297, 45.04004
1432.346, 38.19385
1433.396, 46.38037
1434.445, 56.58545
1435.494, 85.76660
1436.542, 120.9692
1437.591, 1.193848
1438.639, 35.35938
1439.688, 134.6357
1440.736, 180.9312
1441.784, 63.22217
1442.832, 119.5586
1443.880, 112.9312
1444.927, 68.30859
1445.975, 100.6909
1447.022, 69.92676
1448.069, 76.56445
1449.116, 63.99902
1450.163, 46.43164
1451.209, 86.85645
1452.256, 40.12744
1453.302, 49.55371
1454.348, 96.02588
1455.394, 26.47803
1456.440, 81.02295
1457.486, 60.20605
1458.532, 85.70068
1459.577, 153.2051
1460.623, 50.71338
1461.668, 27.22412
1462.713, 59.73340
1463.758, 91.23926
1464.802, 24.74365
1465.847, 203.2427
1466.891, 59.74170
1467.936, 27.16748
1468.980, 168.6685
1470.024, 43.08984
1471.067, 70.59863
1472.111, 110.1123
1473.155, 18.36670
1474.198, 133.1621
1475.241, 40.70020
1476.284, 13.24316
1477.327, 136.7925
1478.370, 66.34961
1479.413, 135.9146
1480.455, 66.48828
1481.497, 30.05176
1482.540, 162.6216
1483.582, 111.1987
1484.624, 80.79834
1485.665, 89.40967
1486.707, 13.02930
1487.748, 130.6567
1488.790, 115.2954
1489.831, 107.9453
1490.872, 51.59961
1491.912, 72.27100
1492.953, 126.9663
1493.994, 4.564453
1495.034, 33.08643
1496.074, 95.82959
1497.114, 84.79883
1498.154, 4.439453
1499.194, 7.335938
1500.234, 26.12500
1501.273, 50.92529
1502.313, 36.97412
1503.352, 57.45215
1504.391, 16.27002
1505.430, 60.96631
1506.468, 69.74072
1507.507, 57.52734
1508.545, 124.0889
1509.584, 54.88721
1510.622, 31.42676
1511.660, 33.99805
1512.698, 112.7690
1513.735, 90.59912
1514.773, 83.91943
1515.810, 95.15576
1516.848, 102.9058
1517.885, 33.66064
1518.922, 72.18408
1519.958, 125.9409
1520.995, 72.18604
1522.032, 120.9312
1523.068, 144.6743
1524.104, 150.4155
1525.140, 159.2646
1526.176, 96.94873
1527.212, 73.89062
1528.248, 84.03076
1529.283, 54.31885
1530.318, 94.18848
1531.353, 109.7822
1532.389, 15.64453
1533.423, 146.2300
1534.458, 160.7192
1535.493, 17.37109
1536.527, 38.66113
1537.561, 17.58008
1538.596, 80.85840
1539.630, 35.41357
1540.663, 54.06885
1541.697, 90.94629
1542.731, 198.9243
1543.764, 73.52051
1544.797, 44.09229
1545.830, 133.2690
1546.863, 25.91797
1547.896, 96.79346
1548.929, 1.460449
1549.961, 32.25586
1550.994, 57.32520
1552.026, 44.68408
1553.058, 1.175293
1554.090, 0.0000000E+00
##END=



