##NAMES=Axinite-(Fe)
##RRUFFID=R050026
##IDEAL CHEMISTRY=Ca_4_Fe^2+^_2_Al_4_[B_2_Si_8_O_30_](OH)_2_
##LOCALITY=Pouyva mine, Polar Urals, Western Siberian Region, Russia
##OWNER=RRUFF
##SOURCE=Rock Currier
##DESCRIPTION=Brown transparent flat crystal
##STATUS=The identification of this mineral has been confirmed by X-ray diffraction and chemical analysis
##URL=rruff.info/R050026
##MEASURED CHEMISTRY=Ca_2.00_(Fe^2+^_0.61_Mn_0.26_Mg_0.13_)Al_2.00_BSi_4_O_15_(OH)
##PIN_ID=L00147
##ORIENTATION=Laser parallel to -a* (-1 0 0). Fiducial mark perpendicular to laser is parallel to -b [0 -1 0]
86.858, 0.000
88.260, 1.898
89.663, 18.961
91.065, 155.375
92.466, 175.978
93.868, 319.774
95.269, 353.274
96.670, 417.035
98.070, 484.702
99.471, 458.869
100.871, 512.062
102.271, 425.332
103.670, 370.240
105.070, 367.913
106.469, 341.953
107.868, 294.276
109.267, 357.210
110.665, 369.183
112.063, 371.363
113.461, 332.804
114.859, 340.047
116.256, 276.457
117.653, 76.721
119.050, 38.174
120.447, 79.153
121.843, 65.121
123.240, 103.251
124.636, 90.932
126.031, 238.226
127.427, 274.177
128.822, 343.256
130.217, 333.107
131.612, 281.866
133.006, 213.649
134.400, 253.373
135.794, 353.699
137.188, 388.352
138.581, 399.073
139.975, 456.481
141.368, 415.918
142.760, 415.916
144.153, 481.027
145.545, 1338.786
146.937, 1105.263
148.329, 2055.179
149.720, 1132.809
151.112, 1074.391
152.503, 873.928
153.893, 638.417
155.284, 751.845
156.674, 465.962
158.064, 328.700
159.454, 214.943
160.843, 187.045
162.233, 166.712
163.622, 166.563
165.011, 254.806
166.399, 377.574
167.787, 674.971
169.175, 913.808
170.563, 1234.676
171.951, 1376.743
173.338, 1386.000
174.725, 1356.431
176.112, 1154.022
177.499, 1006.757
178.885, 744.619
180.271, 552.593
181.657, 291.665
183.043, 150.822
184.428, 95.052
185.813, 40.661
187.198, 96.341
188.583, 118.997
189.967, 129.636
191.351, 114.254
192.735, 85.446
194.119, 77.190
195.502, 64.738
196.885, 44.354
198.268, 9.015
199.651, 110.275
201.033, 336.530
202.415, 607.750
203.797, 980.935
205.179, 1266.083
206.561, 1565.171
207.942, 1765.169
209.323, 1954.078
210.703, 2167.935
212.084, 2150.757
213.464, 2423.548
214.844, 2533.306
216.224, 2684.035
217.603, 2849.734
218.983, 2550.368
220.362, 2139.823
221.741, 1489.012
223.119, 976.936
224.497, 641.646
225.875, 418.404
227.253, 315.015
228.631, 171.288
230.008, 131.115
231.385, 84.343
232.762, 68.093
234.139, 45.942
235.515, 50.549
236.891, 79.146
238.267, 25.731
239.643, 62.303
241.018, 76.849
242.393, 77.347
243.768, 122.785
245.143, 158.162
246.517, 265.476
247.891, 355.739
249.265, 570.963
250.639, 808.165
252.012, 1197.359
253.386, 1648.606
254.759, 1848.879
256.131, 1930.160
257.504, 1685.377
258.876, 1883.502
260.248, 1898.519
261.620, 1795.411
262.991, 1920.161
264.363, 2657.771
265.734, 2886.241
267.104, 2450.565
268.475, 1825.722
269.845, 1627.683
271.215, 1497.457
272.585, 1353.059
273.955, 1199.521
275.324, 1096.440
276.693, 973.035
278.062, 888.088
279.431, 809.975
280.799, 715.653
282.167, 785.155
283.535, 734.127
284.903, 821.634
286.270, 771.219
287.638, 758.496
289.005, 696.764
290.371, 645.673
291.738, 589.987
293.104, 515.292
294.470, 477.510
295.836, 464.645
297.201, 397.650
298.567, 412.397
299.932, 374.112
301.296, 450.222
302.661, 534.905
304.025, 616.975
305.389, 824.275
306.753, 834.892
308.117, 986.159
309.480, 847.641
310.843, 927.611
312.206, 1090.568
313.569, 1286.511
314.931, 1739.440
316.293, 2098.356
317.655, 2662.260
319.017, 2935.151
320.378, 3033.029
321.740, 2775.430
323.101, 2331.209
324.461, 2151.938
325.822, 1866.253
327.182, 1785.255
328.542, 1634.192
329.902, 1675.061
331.261, 1653.715
332.621, 1748.198
333.980, 1908.677
335.339, 2069.150
336.697, 2443.617
338.056, 2789.077
339.414, 3109.530
340.772, 3416.974
342.129, 3306.450
343.487, 3140.952
344.844, 2658.667
346.201, 2125.387
347.557, 1824.872
348.914, 1514.979
350.270, 1381.303
351.626, 1161.120
352.982, 1006.316
354.337, 730.841
355.693, 492.756
357.048, 358.624
358.402, 214.038
359.757, 230.596
361.111, 142.956
362.465, 57.350
363.819, 101.839
365.173, 1.112
366.526, 58.938
367.879, 53.134
369.232, 90.853
370.585, 74.783
371.937, 139.454
373.290, 137.775
374.642, 162.419
375.993, 201.741
377.345, 248.087
378.696, 308.461
380.047, 434.538
381.398, 578.747
382.748, 863.805
384.099, 1051.855
385.449, 1396.897
386.799, 1648.932
388.148, 1635.958
389.497, 1579.663
390.847, 1287.926
392.196, 1223.335
393.544, 1038.404
394.893, 811.885
396.241, 722.114
397.589, 600.934
398.936, 525.367
400.284, 566.371
401.631, 439.755
402.978, 468.014
404.325, 417.542
405.672, 501.102
407.018, 509.226
408.364, 543.660
409.710, 660.745
411.055, 810.213
412.401, 1066.094
413.746, 1348.940
415.091, 1772.973
416.435, 2149.685
417.780, 2769.493
419.124, 3410.268
420.468, 3954.010
421.812, 4685.719
423.155, 4652.396
424.498, 4721.042
425.842, 4593.656
427.184, 4083.240
428.527, 3792.794
429.869, 3015.318
431.211, 2528.813
432.553, 1898.281
433.895, 1498.722
435.236, 1270.136
436.577, 1015.524
437.918, 954.887
439.259, 942.226
440.599, 984.551
441.940, 1196.842
443.280, 1206.110
444.619, 1157.996
445.959, 1077.585
447.298, 902.794
448.637, 695.985
449.976, 439.159
451.315, 373.316
452.653, 274.457
453.991, 258.581
455.329, 264.687
456.667, 231.777
458.004, 211.850
459.341, 159.643
460.678, 178.485
462.015, 101.156
463.352, 114.132
464.688, 154.128
466.024, 191.117
467.360, 266.097
468.695, 316.084
470.031, 412.086
471.366, 426.090
472.701, 469.113
474.035, 685.142
475.370, 780.183
476.704, 1146.237
478.038, 1535.295
479.372, 2014.368
480.705, 2764.452
482.038, 3169.554
483.371, 3571.681
484.704, 3369.822
486.037, 2794.996
487.369, 2179.192
488.701, 1522.414
490.033, 1112.666
491.365, 789.930
492.696, 677.207
494.027, 489.490
495.358, 388.777
496.689, 409.061
498.019, 327.337
499.350, 253.607
500.680, 227.871
502.009, 139.129
503.339, 129.380
504.668, 74.623
505.997, 46.858
507.326, 21.721
508.655, 14.684
509.983, 19.453
511.311, 40.431
512.639, 35.637
513.967, 34.691
515.295, 20.244
516.622, 22.848
517.949, 108.421
519.276, 49.450
520.602, 73.365
521.929, 101.629
523.255, 54.315
524.581, 80.795
525.906, 52.465
527.232, 55.164
528.557, 3.194
529.882, 32.458
531.207, 4.802
532.531, 84.330
533.855, 3.850
535.179, 76.469
536.503, 67.252
537.827, 57.229
539.150, 128.401
540.473, 90.567
541.796, 128.726
543.119, 143.880
544.441, 156.027
545.764, 151.168
547.086, 134.303
548.407, 205.433
549.729, 195.557
551.050, 202.679
552.371, 268.802
553.692, 319.927
555.013, 478.056
556.333, 531.191
557.653, 805.334
558.973, 973.483
560.293, 1003.637
561.612, 1102.800
562.932, 1014.969
564.251, 1045.141
565.569, 910.318
566.888, 1000.496
568.206, 1154.675
569.524, 1193.851
570.842, 1380.022
572.160, 1410.188
573.477, 1300.347
574.795, 1315.500
576.112, 1023.648
577.428, 966.789
578.745, 775.925
580.061, 621.055
581.377, 576.180
582.693, 496.299
584.009, 508.412
585.324, 439.521
586.639, 428.624
587.954, 439.722
589.269, 345.815
590.583, 313.080
591.897, 255.163
593.212, 181.383
594.525, 171.466
595.839, 117.545
597.152, 148.663
598.465, 94.723
599.778, 149.047
601.091, 169.122
602.403, 141.239
603.716, 254.421
605.028, 302.459
606.339, 384.560
607.651, 481.589
608.962, 563.615
610.273, 771.637
611.584, 929.654
612.895, 1211.668
614.205, 1468.678
615.515, 1643.683
616.825, 1913.685
618.135, 1973.555
619.444, 2066.980
620.754, 1883.775
622.063, 1533.613
623.372, 1296.565
624.680, 912.774
625.989, 752.584
627.297, 552.763
628.605, 386.295
629.912, 354.587
631.220, 335.357
632.527, 324.689
633.834, 308.204
635.141, 340.833
636.447, 436.718
637.754, 446.661
639.060, 551.800
640.366, 565.381
641.671, 700.079
642.977, 745.360
644.282, 575.510
645.587, 668.045
646.892, 569.909
648.196, 469.207
649.501, 407.271
650.805, 299.972
652.109, 280.061
653.412, 252.167
654.716, 205.998
656.019, 292.819
657.322, 266.601
658.625, 391.433
659.927, 321.186
661.230, 317.893
662.532, 376.365
663.834, 449.717
665.135, 522.993
666.437, 603.478
667.738, 735.039
669.039, 961.833
670.340, 1098.735
671.640, 1488.590
672.940, 1800.163
674.241, 2127.507
675.540, 2572.853
676.840, 2580.867
678.139, 2681.390
679.439, 2329.128
680.738, 1955.829
682.036, 1659.860
683.335, 1292.663
684.633, 1109.300
685.931, 888.394
687.229, 803.256
688.527, 807.360
689.824, 642.795
691.121, 713.888
692.418, 678.285
693.715, 755.639
695.012, 843.948
696.308, 907.536
697.604, 1080.974
698.900, 1237.545
700.195, 1453.108
701.491, 1838.662
702.786, 2142.209
704.081, 2650.747
705.376, 3216.277
706.670, 3963.800
707.964, 5221.314
709.259, 6063.821
710.552, 7629.320
711.846, 8330.811
713.139, 8791.292
714.433, 9171.767
715.726, 7664.233
717.018, 6817.691
718.311, 5316.141
719.603, 4119.583
720.895, 3307.017
722.187, 2511.443
723.479, 2083.860
724.770, 1567.270
726.061, 1279.672
727.352, 1116.065
728.643, 829.451
729.934, 723.829
731.224, 553.198
732.514, 550.560
733.804, 435.914
735.094, 377.260
736.383, 318.598
737.672, 287.929
738.961, 238.730
740.250, 209.567
741.539, 175.874
742.827, 151.174
744.115, 147.466
745.403, 53.751
746.691, 112.027
747.978, 61.296
749.265, 92.556
750.552, 91.808
751.839, 81.053
753.126, 96.290
754.412, 28.509
755.698, 86.730
756.984, 74.943
758.270, 58.148
759.555, 110.345
760.840, 74.535
762.125, 123.717
763.410, 174.892
764.695, 118.060
765.979, 141.221
767.263, 105.376
768.547, 143.523
769.831, 128.664
771.114, 90.798
772.398, 112.926
773.681, 12.047
774.964, 46.156
776.246, 49.259
777.529, 0.645
778.811, 29.434
780.093, 28.496
781.375, 50.458
782.656, 8.465
783.937, 84.494
785.219, 28.584
786.499, 53.707
787.780, 56.875
789.060, 27.090
790.341, 63.336
791.621, 48.632
792.901, 83.970
794.180, 91.368
795.459, 45.831
796.739, 103.333
798.017, 53.906
799.296, 60.522
800.575, 82.185
801.853, 25.906
803.131, 38.655
804.409, 33.439
805.686, 24.254
806.964, 10.904
808.241, 79.054
809.518, 72.199
810.795, 104.339
812.071, 138.474
813.347, 124.605
814.623, 172.731
815.899, 113.853
817.175, 100.972
818.450, 45.089
819.726, 4.797
821.001, 42.309
822.275, 5.417
823.550, 26.527
824.824, 45.642
826.098, 18.762
827.372, 53.882
828.646, 66.006
829.920, 90.155
831.193, 92.327
832.466, 60.484
833.739, 98.680
835.011, 67.886
836.284, 92.112
837.556, 144.349
838.828, 141.596
840.100, 192.845
841.371, 238.100
842.642, 215.355
843.914, 274.608
845.184, 287.860
846.455, 372.112
847.726, 424.363
848.996, 421.613
850.266, 597.861
851.536, 556.109
852.805, 608.357
854.075, 676.608
855.344, 615.857
856.613, 720.105
857.881, 719.352
859.150, 772.597
860.418, 839.844
861.686, 832.508
862.954, 863.335
864.222, 847.581
865.489, 884.825
866.756, 892.074
868.023, 828.323
869.290, 863.574
870.557, 827.838
871.823, 814.105
873.089, 827.374
874.355, 805.642
875.621, 866.910
876.886, 852.183
878.152, 851.456
879.417, 909.729
880.682, 869.005
881.946, 964.280
883.211, 1063.557
884.475, 979.834
885.739, 1234.112
887.003, 1257.389
888.266, 1387.674
889.530, 1649.960
890.793, 1683.248
892.056, 2048.540
893.318, 2325.832
894.581, 2671.134
895.843, 3261.437
897.105, 3491.749
898.367, 4303.885
899.629, 4823.200
900.890, 5066.375
902.152, 5975.686
903.413, 5589.998
904.673, 5595.267
905.934, 5314.591
907.194, 4584.655
908.454, 4419.966
909.714, 3662.230
910.974, 3220.432
912.234, 2951.773
913.493, 2426.050
914.752, 2243.399
916.011, 1905.750
917.270, 1695.102
918.528, 1569.464
919.786, 1329.829
921.044, 1326.197
922.302, 1272.568
923.560, 1149.945
924.817, 1200.325
926.074, 1098.234
927.331, 1211.457
928.588, 1197.700
929.844, 1133.001
931.101, 1238.177
932.357, 1174.750
933.613, 1190.954
934.868, 1310.804
936.124, 1205.894
937.379, 1398.505
938.634, 1462.558
939.889, 1497.427
941.144, 1798.185
942.398, 1834.691
943.652, 2153.141
944.906, 2432.397
946.160, 2585.215
947.414, 3139.917
948.667, 3225.038
949.920, 3636.290
951.173, 4070.157
952.426, 4242.696
953.678, 4798.800
954.931, 5167.139
956.183, 5714.839
957.435, 6846.155
958.686, 7331.459
959.938, 8621.037
961.189, 8990.625
962.440, 8940.223
963.691, 9039.830
964.941, 7854.449
966.192, 7318.076
967.442, 6544.715
968.692, 5830.365
969.942, 5928.992
971.191, 5638.883
972.441, 5573.528
973.690, 6169.000
974.939, 6140.616
976.187, 6538.326
977.436, 6502.938
978.684, 6073.676
979.932, 6268.422
981.180, 5542.179
982.428, 5600.945
983.675, 5391.721
984.922, 5046.506
986.169, 5372.869
987.416, 5093.673
988.663, 5027.487
989.909, 5057.749
991.155, 4534.582
992.401, 4615.423
993.647, 4432.275
994.893, 4193.137
996.138, 4411.009
997.383, 4052.140
998.628, 4111.030
999.873, 3901.954
1001.117, 3498.125
1002.362, 3441.500
1003.606, 2946.321
1004.850, 2682.262
1006.093, 2548.499
1007.337, 2087.458
1008.580, 2020.432
1009.823, 1782.098
1011.066, 1562.091
1012.308, 1469.548
1013.551, 1241.686
1014.793, 1135.713
1016.035, 1093.857
1017.277, 872.298
1018.518, 895.708
1019.760, 852.878
1021.001, 829.065
1022.242, 848.382
1023.483, 724.560
1024.723, 826.668
1025.964, 757.995
1027.204, 707.159
1028.444, 754.297
1029.683, 627.990
1030.923, 610.148
1032.162, 580.627
1033.401, 532.831
1034.640, 599.022
1035.879, 551.224
1037.117, 563.912
1038.355, 601.129
1039.593, 622.885
1040.831, 662.651
1042.069, 670.897
1043.306, 712.278
1044.544, 799.543
1045.781, 820.527
1047.017, 884.919
1048.254, 990.208
1049.490, 983.256
1050.726, 1142.561
1051.962, 1148.906
1053.198, 1179.228
1054.434, 1300.556
1055.669, 1173.481
1056.904, 1147.824
1058.139, 1118.175
1059.374, 857.055
1060.608, 821.421
1061.843, 759.806
1063.077, 655.877
1064.311, 660.263
1065.544, 543.656
1066.778, 571.816
1068.011, 505.256
1069.244, 490.906
1070.477, 529.377
1071.710, 474.729
1072.942, 553.284
1074.174, 553.721
1075.406, 600.240
1076.638, 717.420
1077.870, 709.879
1079.101, 711.424
1080.332, 795.917
1081.563, 706.479
1082.794, 662.099
1084.025, 563.633
1085.255, 471.413
1086.485, 434.716
1087.715, 310.333
1088.945, 322.660
1090.175, 375.497
1091.404, 238.632
1092.633, 243.141
1093.862, 214.378
1095.091, 241.645
1096.319, 277.844
1097.548, 262.773
1098.776, 293.910
1100.004, 273.797
1101.231, 225.715
1102.459, 301.670
1103.686, 289.654
1104.913, 206.219
1106.140, 277.243
1107.367, 201.303
1108.593, 202.296
1109.819, 212.293
1111.046, 141.335
1112.271, 203.683
1113.497, 124.719
1114.722, 126.340
1115.948, 112.415
1117.173, 69.962
1118.398, 109.982
1119.622, 66.009
1120.847, 98.201
1122.071, 122.870
1123.295, 61.925
1124.519, 57.047
1125.742, 33.162
1126.966, 48.243
1128.189, 38.386
1129.412, 12.435
1130.635, 35.514
1131.857, 19.426
1133.080, 24.283
1134.302, 9.891
1135.524, 34.020
1136.746, 19.868
1137.967, 20.297
1139.188, 22.587
1140.410, 25.635
1141.631, 59.155
1142.851, 22.281
1144.072, 12.670
1145.292, 44.541
1146.512, 1.349
1147.732, 12.436
1148.952, 18.075
1150.172, 28.292
1151.391, 38.216
1152.610, 12.633
1153.829, 6.450
1155.048, 34.660
1156.266, 22.203
1157.484, 33.143
1158.702, 16.208
1159.920, 5.972
1161.138, 26.130
1162.356, 28.793
1163.573, 13.750
1164.790, 12.137
1166.007, 9.919
1167.224, 2.055
1168.440, 8.240
1169.656, 3.109
1170.872, 4.913
1172.088, 6.723
1173.304, 1.080
1174.519, 8.862
1175.735, 13.838
1176.950, 13.428
1178.165, 8.029
1179.379, 0.216
1180.594, 29.587
1181.808, 44.675
1183.022, 27.408
1184.236, 13.554
1185.449, 10.422
1186.663, 10.032
1187.876, 8.580
1189.089, 35.541
1190.302, 10.870
1191.515, 28.063
1192.727, 0.184
1193.939, 11.850
1195.151, 11.367
1196.363, 44.520
1197.575, 5.641
1198.786, 49.428
1199.997, 31.184
1201.208, 23.053
1202.419, 30.679
1203.630, 40.422
1204.840, 4.757
1206.051, 22.987
1207.261, 17.704
1208.470, 6.556
1209.680, 40.131
1210.889, 33.812
1212.099, 22.514
1213.308, 17.139
1214.516, 2.786
1215.725, 14.457
1216.933, 7.833
1218.142, 6.783
1219.350, 55.398
1220.557, 13.109
1221.765, 3.297
1222.972, 54.284
1224.180, 8.143
1225.387, 30.414
1226.593, 18.992
1227.800, 12.604
1229.006, 52.170
1230.213, 9.013
1231.419, 0.471
1232.624, 38.046
1233.830, 0.588
1235.035, 6.935
1236.241, 5.527
1237.446, 0.040
1238.650, 5.769
1239.855, 6.213
1241.059, 8.725
1242.264, 24.194
1243.468, 13.225
1244.671, 60.655
1245.875, 73.067
1247.078, 44.750
1248.282, 43.010
1249.485, 7.156
1250.687, 0.503
1251.890, 35.818
1253.092, 56.129
1254.295, 73.464
1255.497, 44.888
1256.699, 16.172
1257.900, 49.443
1259.102, 9.703
1260.303, 43.201
1261.504, 12.439
1262.705, 68.658
1263.905, 86.873
1265.106, 28.071
1266.306, 6.632
1267.506, 57.526
1268.706, 42.666
1269.905, 46.013
1271.105, 55.122
1272.304, 41.215
1273.503, 76.295
1274.702, 58.365
1275.900, 42.415
1277.099, 70.441
1278.297, 36.883
1279.495, 47.880
1280.693, 52.864
1281.891, 39.390
1283.088, 29.382
1284.285, 73.316
1285.482, 20.238
1286.679, 51.142
1287.876, 77.035
1289.072, 36.666
1290.268, 55.567
1291.464, 10.399
1292.660, 27.981
1293.856, 56.356
1295.051, 37.282
1296.247, 42.102
1297.442, 57.745
1298.637, 3.522
1299.831, 45.337
1301.026, 27.407
1302.220, 16.141
1303.414, 33.405
1304.608, 4.986
1305.802, 55.673
1306.995, 60.234
1308.188, 4.512
1309.381, 50.815
1310.574, 34.374
1311.767, 8.863
1312.960, 32.218
1314.152, 47.708
1315.344, 49.261
1316.536, 51.368
1317.728, 2.853
1318.919, 21.360
1320.110, 22.307
1321.301, 7.218
1322.492, 22.929
1323.683, 17.347
1324.874, 32.770
1326.064, 33.633
1327.254, 46.099
1328.444, 35.485
1329.634, 14.326
1330.823, 7.153
1332.013, 59.495
1333.202, 10.709
1334.391, 26.023
1335.580, 45.200
1336.768, 25.188
1337.956, 71.058
1339.145, 37.567
1340.333, 18.823
1341.520, 59.024
1342.708, 70.242
1343.895, 62.729
1345.083, 84.053
1346.270, 60.221
1347.456, 40.375
1348.643, 55.993
1349.829, 61.229
1351.016, 54.345
1352.202, 63.508
1353.387, 68.823
1354.573, 76.910
1355.759, 72.215
1356.944, 64.233
1358.129, 54.034
1359.314, 43.008
1360.498, 66.096
1361.683, 59.397
1362.867, 35.039
1364.051, 67.939
1365.235, 68.202
1366.419, 62.152
1367.602, 67.188
1368.785, 52.919
1369.968, 42.753
1371.151, 51.538
1372.334, 16.407
1373.517, 87.053
1374.699, 55.996
1375.881, 45.738
1377.063, 93.060
1378.245, 58.611
1379.426, 4.363
1380.608, 64.859
1381.789, 56.324
1382.970, 11.120
1384.150, 41.362
1385.331, 2.775
1386.511, 46.740
1387.691, 48.397
1388.871, 53.072
1390.051, 63.383
1391.231, 68.696
1392.410, 52.752
1393.589, 79.852
1394.768, 63.941
1395.947, 46.969
1397.126, 26.981
1398.304, 55.952
1399.483, 76.636
1400.661, 121.154
1401.838, 16.132
1403.016, 66.901
1404.194, 53.422
1405.371, 51.144
1406.548, 61.903
1407.725, 26.162
1408.901, 54.817
1410.078, 75.946
1411.254, 14.658
1412.430, 62.161
1413.606, 48.727
1414.782, 89.170
1415.958, 49.770
1417.133, 87.528
1418.308, 47.077
1419.483, 63.802
1420.658, 73.272
1421.832, 75.031
1423.007, 87.116
1424.181, 27.764
1425.355, 44.854
1426.529, 42.070
1427.702, 64.905
1428.876, 58.429
1430.049, 38.967
1431.222, 28.317
1432.395, 56.773
1433.567, 45.219
1434.740, 36.722
1435.912, 60.234
1437.084, 30.526
1438.256, 10.005
1439.428, 68.275
1440.599, 20.742
1441.770, 32.156
1442.942, 43.403
1444.112, 38.200
1445.283, 52.489
1446.454, 62.914
1447.624, 29.073
1448.794, 45.564
1449.964, 15.348
1451.134, 15.431
1452.303, 47.622
1453.473, 49.819
1454.642, 70.994
1455.811, 57.739
1456.980, 9.167
1458.148, 95.271
1459.317, 25.304
1460.485, 29.299
1461.653, 61.011
1462.821, 41.446
1463.989, 49.498
1465.156, 60.537
1466.323, 60.628
1467.490, 35.760
1468.657, 55.505
1469.824, 46.885
1470.991, 48.110
1472.157, 73.270
1473.323, 15.300
1474.489, 72.416
1475.655, 21.446
1476.820, 37.989
1477.986, 21.786
1479.151, 31.792
1480.316, 12.781
1481.481, 56.826
1482.645, 40.487
1483.810, 61.573
1484.974, 90.655
1486.138, 9.808
1487.302, 52.749
1488.465, 32.707
1489.629, 1.333
1490.792, 66.608
1491.955, 43.526
1493.118, 21.413
1494.281, 45.189
1495.443, 54.870
1496.606, 40.270
1497.768, 47.567
1498.930, 22.825
1500.091, 34.031
1501.253, 2.241
1502.414, 1.071
1503.575, 50.829
1504.736, 0.271
1505.897, 27.635
1507.058, 64.553
1508.218, 24.429
1509.379, 25.001
1510.539, 46.806
1511.698, 1.869
1512.858, 0.000
##END=



