##NAMES=Axinite-(Fe)
##RRUFFID=R040074
##IDEAL CHEMISTRY=Ca_4_Fe^2+^_2_Al_4_[B_2_Si_8_O_30_](OH)_2_
##LOCALITY=Luning, Nevada, USA
##OWNER=RRUFF
##SOURCE=University of Arizona Mineral Museum
##DESCRIPTION=Pale brown wedge-shaped crystal
##STATUS=The identification of this mineral has been confirmed by X-ray diffraction and chemical analysis
##URL=rruff.info/R040074
##MEASURED CHEMISTRY=(Ca_0.98_Mn_0.01_)_2_(Fe_0.41_Mg_0.39_Mn_0.20_)Al_1.95_B_1.20_Si_3.90_O_15_(OH)
##PIN_ID=L00132
##ORIENTATION=Laser parallel to (-1 -1 0). Fiducial mark perpendicular to laser is parallel to c [0 0 1]
102.550, 0.000
103.943, 9.856
105.336, 636.569
106.729, 933.737
108.121, 1637.477
109.513, 2009.479
110.905, 2324.451
112.297, 2691.355
113.688, 2526.391
115.079, 2647.720
116.470, 2213.668
117.861, 2482.896
119.251, 1986.886
120.642, 1734.661
122.032, 1667.405
123.422, 1492.985
124.811, 1390.683
126.201, 1268.992
127.590, 987.698
128.979, 866.315
130.367, 894.417
131.756, 591.878
133.144, 438.621
134.532, 88.320
135.920, 14.791
137.307, 75.154
138.695, 141.901
140.082, 394.610
141.469, 463.410
142.856, 938.715
144.242, 1652.806
145.628, 2160.504
147.014, 3407.026
148.400, 4761.317
149.786, 6393.604
151.171, 7845.631
152.556, 8471.661
153.941, 8388.823
155.325, 6844.653
156.710, 5429.270
158.094, 4292.771
159.478, 3625.243
160.862, 3216.769
162.245, 2807.412
163.629, 2717.230
165.012, 2786.808
166.395, 3290.562
167.777, 4620.029
169.160, 6391.496
170.542, 8304.480
171.924, 9069.733
173.306, 9292.757
174.687, 7833.243
176.068, 6771.508
177.449, 5459.968
178.830, 4348.540
180.211, 3327.197
181.591, 2355.927
182.972, 1864.726
184.351, 1163.587
185.731, 862.562
187.111, 641.811
188.490, 791.368
189.869, 1191.241
191.248, 1631.424
192.626, 2381.914
194.005, 3022.700
195.383, 3003.778
196.761, 2215.150
198.139, 1386.799
199.516, 828.684
200.893, 600.774
202.271, 743.051
203.647, 1085.487
205.024, 1308.078
206.400, 1740.801
207.777, 1933.643
209.152, 2436.588
210.528, 2539.630
211.904, 2992.756
213.279, 2925.955
214.654, 3119.225
216.029, 3152.555
217.403, 2955.937
218.778, 2809.326
220.152, 2322.676
221.526, 1995.974
222.900, 1419.222
224.273, 932.424
225.646, 485.579
227.019, 198.689
228.392, 38.269
229.765, 295.271
231.137, 472.276
232.509, 639.066
233.881, 650.449
235.253, 675.999
236.625, 694.367
237.996, 387.880
239.367, 132.115
240.738, 53.776
242.108, 269.663
243.479, 435.504
244.849, 651.288
246.219, 956.998
247.589, 1302.594
248.958, 1547.765
250.328, 1932.046
251.697, 2295.227
253.065, 2297.375
254.434, 2369.051
255.803, 2020.586
257.171, 1812.068
258.539, 1583.515
259.906, 1444.925
261.274, 1446.299
262.641, 1507.635
264.008, 1858.936
265.375, 2000.197
266.742, 2431.421
268.108, 2800.104
269.475, 3028.400
270.840, 3109.882
272.206, 3109.089
273.572, 2918.197
274.937, 2768.676
276.302, 2379.295
277.667, 2020.001
279.032, 1580.754
280.396, 1701.754
281.760, 1602.877
283.125, 1694.063
284.488, 1664.830
285.852, 1715.986
287.215, 1847.980
288.578, 1739.338
289.941, 1881.551
291.304, 1822.774
292.666, 2054.306
294.029, 2194.719
295.391, 2404.561
296.753, 2884.334
298.114, 3283.916
299.476, 3853.372
300.837, 4262.492
302.198, 4770.836
303.558, 5360.158
304.919, 6088.677
306.279, 6456.984
307.639, 6385.090
308.999, 6173.005
310.359, 5550.705
311.718, 4518.244
313.077, 3515.630
314.436, 2672.870
315.795, 2419.970
317.154, 2256.910
318.512, 2373.732
319.870, 2390.445
321.228, 2277.053
322.586, 2423.557
323.943, 1959.962
325.300, 1866.273
326.657, 1632.490
328.014, 1608.616
329.371, 1624.564
330.727, 1579.883
332.083, 1744.087
333.439, 1777.087
334.795, 1929.091
336.150, 2090.759
337.506, 2382.369
338.861, 3523.977
340.215, 4485.594
341.570, 5927.218
342.924, 7008.846
344.279, 8220.476
345.633, 8602.105
346.986, 8373.729
348.340, 7825.352
349.693, 7116.473
351.046, 6786.607
352.399, 6287.460
353.752, 5339.043
355.104, 4680.617
356.457, 3484.105
357.809, 2538.327
359.160, 1598.412
360.512, 1133.831
361.863, 830.158
363.214, 504.507
364.565, 439.033
365.916, 374.114
367.267, 535.518
368.617, 688.079
369.967, 1058.659
371.317, 1306.478
372.666, 1574.006
374.016, 1688.601
375.365, 1743.354
376.714, 1704.541
378.063, 1558.023
379.411, 1332.479
380.760, 1525.664
382.108, 1559.702
383.456, 2052.629
384.803, 2725.200
386.151, 3687.579
387.498, 4999.435
388.845, 6510.386
390.192, 8026.344
391.539, 8882.063
392.885, 9111.790
394.231, 8690.122
395.577, 7258.111
396.923, 6103.947
398.269, 5008.154
399.614, 4441.182
400.959, 3783.428
402.304, 3231.700
403.649, 3081.323
404.993, 2457.086
406.337, 2154.643
407.681, 1743.374
409.025, 1683.116
410.369, 1662.804
411.712, 1822.438
413.055, 2472.021
414.398, 3201.560
415.741, 4341.055
417.084, 5100.510
418.426, 5439.926
419.768, 5409.304
421.110, 4748.641
422.452, 4757.938
423.793, 4637.193
425.134, 4556.410
426.475, 4655.586
427.816, 4604.723
429.157, 4683.816
430.497, 4542.842
431.837, 4121.801
433.177, 3760.686
434.517, 3029.495
435.857, 2498.228
437.196, 1866.879
438.535, 1325.449
439.874, 1053.938
441.213, 902.346
442.551, 870.669
443.889, 848.905
445.227, 937.054
446.565, 815.119
447.903, 593.097
449.240, 720.979
450.577, 488.770
451.914, 696.461
453.251, 594.061
454.588, 831.566
455.924, 938.986
457.260, 926.322
458.596, 1103.576
459.932, 970.749
461.267, 947.839
462.602, 854.851
463.938, 801.783
465.272, 1078.632
466.607, 1235.403
467.941, 2252.096
469.276, 2298.711
470.610, 2375.255
471.943, 3231.725
473.277, 2388.125
474.610, 2364.477
475.944, 2611.406
477.276, 3218.715
478.609, 4336.650
479.942, 5814.706
481.274, 8252.642
482.606, 11110.323
483.938, 14457.842
485.270, 16005.607
486.601, 16752.441
487.932, 14379.096
489.263, 10596.447
490.594, 7953.650
491.925, 5301.170
493.255, 3868.962
494.585, 3007.398
495.915, 2135.486
497.245, 1944.060
498.575, 1812.410
499.904, 1880.870
501.233, 2049.275
502.562, 2227.413
503.891, 2594.447
505.219, 2772.012
506.548, 3008.057
507.876, 3044.041
509.203, 2719.967
510.531, 2445.837
511.859, 1861.653
513.186, 1337.413
514.513, 1033.119
515.840, 438.773
517.166, 274.353
518.493, 20.129
519.819, 264.752
521.145, 279.628
522.470, 255.911
523.796, 434.129
525.121, 593.468
526.446, 364.303
527.771, 384.082
529.096, 513.238
530.421, 311.383
531.745, 148.953
533.069, 246.733
534.393, 55.226
535.716, 52.921
537.040, 268.773
538.363, 140.385
539.686, 311.904
541.009, 173.341
542.331, 344.688
543.654, 415.955
544.976, 447.145
546.298, 558.258
547.620, 289.299
548.941, 540.266
550.263, 431.188
551.584, 412.106
552.905, 493.089
554.225, 474.183
555.546, 885.434
556.866, 1156.854
558.186, 1478.451
559.506, 2070.231
560.826, 2132.113
562.145, 2224.029
563.465, 2025.932
564.784, 1577.789
566.103, 1469.596
567.421, 1161.345
568.740, 1203.034
570.058, 1214.661
571.376, 1246.228
572.694, 1717.732
574.011, 1629.176
575.329, 1900.559
576.646, 2021.879
577.963, 1963.140
579.279, 2254.339
580.596, 1935.477
581.912, 2076.554
583.228, 1957.569
584.544, 2218.522
585.860, 2359.418
587.175, 2460.250
588.491, 2651.021
589.806, 2551.730
591.121, 2302.699
592.435, 2033.328
593.750, 1603.855
595.064, 1424.323
596.378, 1104.730
597.692, 1045.079
599.006, 845.366
600.319, 865.361
601.632, 935.169
602.945, 1064.829
604.258, 1164.805
605.571, 1354.214
606.883, 1632.641
608.195, 1961.550
609.507, 2279.432
610.819, 2948.131
612.131, 3476.350
613.442, 4095.509
614.753, 5135.064
616.064, 5814.518
617.375, 6953.993
618.685, 7843.412
619.995, 8392.775
621.306, 8561.728
622.615, 7650.406
623.925, 6439.604
625.235, 5018.744
626.544, 3677.832
627.853, 2667.982
629.162, 1857.471
630.471, 1407.464
631.779, 852.065
633.087, 558.112
634.395, 467.036
635.703, 335.770
637.011, 323.052
638.318, 373.291
639.625, 450.211
640.932, 510.076
642.239, 487.280
643.546, 722.385
644.852, 797.938
646.158, 662.641
647.464, 724.024
648.770, 677.108
650.076, 607.239
651.381, 464.681
652.686, 533.317
653.991, 401.608
655.296, 439.192
656.600, 396.692
657.905, 394.107
659.209, 441.436
660.513, 688.682
661.817, 545.852
663.120, 1022.942
664.423, 1049.967
665.726, 1256.924
667.029, 1643.955
668.332, 1890.816
669.635, 2607.760
670.937, 3165.485
672.239, 4143.557
673.541, 5288.858
674.842, 6397.271
676.144, 7345.568
677.445, 7492.033
678.746, 7364.257
680.047, 6837.734
681.348, 5520.144
682.648, 4741.797
683.948, 3788.237
685.248, 3153.121
686.548, 2599.811
687.848, 2089.173
689.147, 2018.738
690.447, 1862.181
691.746, 1783.318
693.044, 1858.965
694.343, 1832.229
695.641, 2224.433
696.940, 2317.820
698.238, 2770.268
699.535, 3363.737
700.833, 3887.477
702.130, 4771.321
703.427, 5865.604
704.724, 7508.736
706.021, 9372.895
707.318, 12181.511
708.614, 15010.144
709.910, 19214.031
711.206, 23647.811
712.502, 28533.020
713.798, 30478.180
715.093, 32533.312
716.388, 30488.393
717.683, 25923.438
718.978, 22498.443
720.272, 16843.408
721.567, 13798.331
722.861, 10253.213
724.155, 8228.058
725.448, 6562.857
726.742, 4987.621
728.035, 4202.347
729.328, 3357.035
730.621, 2871.686
731.914, 2446.298
733.206, 1760.873
734.499, 1875.411
735.791, 1379.911
737.083, 1194.377
738.374, 1088.807
739.666, 813.201
740.957, 677.560
742.248, 751.884
743.539, 576.174
744.830, 690.429
746.120, 374.650
747.410, 438.836
748.701, 512.989
749.990, 517.109
751.280, 589.526
752.570, 625.252
753.859, 689.275
755.148, 773.268
756.437, 919.920
757.725, 1072.933
759.014, 1285.068
760.302, 1508.943
761.590, 1732.791
762.878, 2066.614
764.166, 2520.414
765.453, 2794.193
766.740, 3297.949
768.027, 3221.682
769.314, 3005.389
770.601, 3159.068
771.887, 2622.720
773.174, 2136.346
774.460, 1919.944
775.745, 1323.516
777.031, 1327.063
778.316, 770.587
779.602, 614.085
780.887, 637.560
782.172, 111.007
783.456, 254.420
784.741, 117.805
786.025, 68.844
787.309, 95.574
788.593, 143.016
789.876, 300.982
791.160, 279.763
792.443, 328.842
793.726, 277.996
795.009, 327.071
796.291, 446.176
797.574, 255.748
798.856, 424.558
800.138, 413.402
801.420, 363.155
802.702, 392.951
803.983, 103.267
805.264, 233.973
806.545, 104.529
807.826, 163.303
809.107, 551.513
810.387, 949.873
811.667, 988.050
812.947, 1356.211
814.227, 1244.564
815.507, 1093.948
816.786, 1152.730
818.065, 852.961
819.344, 673.177
820.623, 233.379
821.902, 253.567
823.180, 213.743
824.459, 13.906
825.737, 5.957
827.014, 84.151
828.292, 85.747
829.569, 134.307
830.847, 75.612
832.124, 44.523
833.401, 84.754
834.677, 45.073
835.954, 275.526
837.230, 116.164
838.506, 186.924
839.782, 317.811
841.057, 468.861
842.333, 640.024
843.608, 531.254
844.883, 852.587
846.158, 993.936
847.433, 875.329
848.707, 1146.732
849.981, 1228.144
851.255, 1149.624
852.529, 1461.126
853.803, 1142.634
855.076, 1494.159
856.350, 995.695
857.623, 1137.271
858.895, 1158.904
860.168, 1140.546
861.441, 1252.264
862.713, 884.049
863.985, 935.836
865.257, 1177.710
866.528, 809.604
867.800, 991.502
869.071, 983.442
870.342, 785.392
871.613, 1187.406
872.884, 779.474
874.154, 1111.548
875.425, 833.724
876.695, 1095.904
877.965, 1058.092
879.234, 910.340
880.504, 1302.590
881.773, 1184.875
883.042, 1157.170
884.311, 1249.475
885.580, 1391.797
886.848, 1424.130
888.117, 1676.475
889.385, 1808.843
890.653, 2371.220
891.920, 3283.607
893.188, 2895.998
894.455, 3488.395
895.722, 3830.897
896.989, 4883.409
898.256, 5525.928
899.523, 5958.162
900.789, 6700.686
902.055, 6773.254
903.321, 6765.836
904.587, 6918.424
905.852, 6061.025
907.118, 5843.637
908.383, 4966.254
909.648, 4578.902
910.913, 4281.553
912.177, 3384.214
913.442, 3326.885
914.706, 2889.560
915.970, 2562.262
917.233, 2364.970
918.497, 2147.725
919.760, 2120.412
921.024, 2033.146
922.287, 2005.885
923.550, 2218.635
924.812, 2321.391
926.075, 2534.156
927.337, 2906.929
928.599, 2829.711
929.861, 3372.502
931.122, 3315.305
932.384, 3568.111
933.645, 3850.932
934.906, 3642.637
936.167, 3904.961
937.428, 3936.730
938.688, 4053.848
939.948, 4689.471
941.208, 4862.168
942.468, 5465.006
943.728, 6039.238
944.987, 6760.461
946.247, 8174.945
947.506, 9096.430
948.765, 10790.523
950.023, 12476.660
951.282, 12872.301
952.540, 15138.738
953.798, 15388.445
955.056, 16156.395
956.314, 17262.551
957.572, 17510.736
958.829, 19422.969
960.086, 21035.494
961.343, 22908.662
962.600, 25701.859
963.856, 25145.074
965.113, 26188.326
966.369, 24731.588
967.625, 21864.883
968.881, 20488.189
970.136, 17261.523
971.392, 16244.863
972.647, 15338.082
973.902, 14291.418
975.157, 14464.617
976.411, 14856.984
977.666, 14918.951
978.920, 15331.699
980.174, 14300.537
981.428, 13623.557
982.682, 12873.004
983.935, 10975.707
985.188, 11138.910
986.441, 9381.668
987.694, 8945.164
988.947, 8728.961
990.199, 7782.381
991.452, 7886.523
992.704, 7830.383
993.956, 7443.920
995.207, 7989.707
996.459, 7793.238
997.710, 8807.977
998.961, 9132.676
1000.212, 9836.211
1001.463, 11434.758
1002.714, 11560.836
1003.964, 11905.109
1005.214, 12001.996
1006.464, 10877.371
1007.714, 10729.471
1008.964, 9155.461
1010.213, 8100.439
1011.462, 7211.084
1012.711, 5649.367
1013.960, 5263.488
1015.209, 4406.412
1016.457, 3685.145
1017.705, 3520.344
1018.954, 2924.303
1020.201, 2830.529
1021.449, 2589.742
1022.697, 2456.252
1023.944, 2471.627
1025.191, 2499.691
1026.438, 2315.018
1027.685, 2430.801
1028.931, 2118.293
1030.177, 2033.102
1031.423, 2084.605
1032.669, 1671.035
1033.915, 1916.887
1035.161, 1484.828
1036.406, 1531.033
1037.651, 1536.941
1038.896, 1546.268
1040.141, 1671.803
1041.386, 1857.439
1042.630, 1782.264
1043.874, 1996.934
1045.118, 1915.646
1046.362, 1940.730
1047.606, 2246.393
1048.849, 2247.760
1050.092, 2382.773
1051.336, 2647.727
1052.578, 2813.766
1053.821, 3198.293
1055.064, 3375.338
1056.306, 3899.861
1057.548, 4245.031
1058.790, 3994.662
1060.032, 4758.992
1061.273, 4504.094
1062.515, 4549.340
1063.756, 4473.518
1064.997, 3662.316
1066.237, 3667.078
1067.478, 3061.398
1068.718, 2646.662
1069.959, 2671.234
1071.199, 2305.512
1072.438, 2410.459
1073.678, 2515.051
1074.918, 2189.625
1076.157, 2914.217
1077.396, 2948.791
1078.635, 3273.680
1079.873, 3958.340
1081.112, 4092.732
1082.350, 4607.389
1083.588, 4861.684
1084.826, 4405.969
1086.064, 4460.230
1087.301, 3654.334
1088.539, 3348.326
1089.776, 2872.240
1091.013, 2376.443
1092.250, 2230.189
1093.486, 2113.857
1094.723, 1617.492
1095.959, 1780.965
1097.195, 1484.379
1098.431, 1738.740
1099.666, 1962.201
1100.902, 1665.695
1102.137, 2349.562
1103.372, 2203.125
1104.607, 2356.760
1105.842, 2820.369
1107.076, 2553.668
1108.311, 2657.633
1109.545, 2580.809
1110.779, 2253.898
1112.012, 2156.861
1113.246, 1979.756
1114.479, 1582.791
1115.712, 1775.482
1116.945, 1398.090
1118.178, 1441.703
1119.411, 1384.143
1120.643, 1136.488
1121.875, 1358.730
1123.108, 1200.875
1124.339, 1062.908
1125.571, 1054.840
1126.802, 506.674
1128.034, 808.400
1129.265, 560.047
1130.496, 371.600
1131.727, 433.062
1132.957, 264.439
1134.187, 395.713
1135.418, 516.891
1136.648, 177.965
1137.877, 389.309
1139.107, 200.203
1140.336, 270.998
1141.566, 352.844
1142.795, 16.578
1144.023, 384.141
1145.252, 75.033
1146.480, 85.326
1147.709, 405.527
1148.937, 214.355
1150.165, 14.385
1151.392, 195.533
1152.620, 24.689
1153.847, 4.943
1155.074, 105.156
1156.301, 165.805
1157.528, 53.402
1158.755, 237.498
1159.981, 198.615
1161.207, 241.539
1162.433, 269.830
1163.659, 42.791
1164.885, 43.760
1166.110, 119.766
1167.336, 6.533
1168.561, 197.314
1169.786, 151.266
1171.010, 64.666
1172.235, 329.467
1173.459, 86.371
1174.683, 52.176
1175.907, 152.072
1177.131, 193.674
1178.355, 50.693
1179.578, 44.820
1180.801, 80.254
1182.024, 15.676
1183.247, 71.076
1184.470, 96.459
1185.692, 1.785
1186.915, 147.102
1188.137, 142.391
1189.359, 287.654
1190.580, 332.902
1191.802, 291.855
1193.023, 253.377
1194.244, 178.604
1195.465, 6.184
1196.686, 299.021
1197.907, 324.221
1199.127, 169.418
1200.347, 444.619
1201.567, 119.820
1202.787, 465.035
1204.007, 320.262
1205.226, 55.494
1206.446, 540.742
1207.665, 366.000
1208.884, 341.270
1210.102, 706.559
1211.321, 101.869
1212.539, 487.213
1213.758, 602.592
1214.976, 388.002
1216.193, 563.461
1217.411, 658.979
1218.628, 494.561
1219.846, 590.217
1221.063, 605.953
1222.280, 611.271
1223.496, 626.008
1224.713, 560.939
1225.929, 626.430
1227.145, 718.643
1228.361, 640.668
1229.577, 969.648
1230.793, 859.660
1232.008, 966.027
1233.223, 931.959
1234.438, 651.525
1235.653, 816.385
1236.868, 491.758
1238.082, 691.066
1239.297, 616.533
1240.511, 558.221
1241.725, 654.033
1242.938, 539.949
1244.152, 250.057
1245.365, 738.484
1246.578, 502.037
1247.791, 372.270
1249.004, 621.402
1250.217, 494.121
1251.429, 345.277
1252.642, 666.453
1253.854, 214.793
1255.066, 580.875
1256.277, 473.430
1257.489, 395.938
1258.700, 612.447
1259.911, 308.164
1261.122, 540.496
1262.333, 723.578
1263.544, 107.938
1264.754, 679.012
1265.964, 590.109
1267.174, 498.900
1268.384, 987.703
1269.594, 375.383
1270.803, 643.023
1272.013, 530.896
1273.222, 367.582
1274.431, 496.637
1275.640, 476.820
1276.848, 424.041
1278.057, 504.920
1279.265, 223.873
1280.473, 423.504
1281.681, 421.824
1282.888, 113.385
1284.096, 335.188
1285.303, 445.518
1286.510, 9.889
1287.717, 381.191
1288.924, 112.412
1290.131, 43.986
1291.337, 566.049
1292.543, 298.500
1293.749, 201.404
1294.955, 304.736
1296.161, 134.492
1297.366, 428.303
1298.571, 136.887
1299.777, 38.580
1300.981, 470.500
1302.186, 211.629
1303.391, 420.381
1304.595, 258.479
1305.799, 2.268
1307.003, 327.969
1308.207, 0.000
##END=



