##NAMES=Axinite-(Fe)
##RRUFFID=R050026
##IDEAL CHEMISTRY=Ca_4_Fe^2+^_2_Al_4_[B_2_Si_8_O_30_](OH)_2_
##LOCALITY=Pouyva mine, Polar Urals, Western Siberian Region, Russia
##OWNER=RRUFF
##SOURCE=Rock Currier
##DESCRIPTION=Brown transparent flat crystal
##STATUS=The identification of this mineral has been confirmed by X-ray diffraction and chemical analysis
##URL=rruff.info/R050026
##MEASURED CHEMISTRY=Ca_2.00_(Fe^2+^_0.61_Mn_0.26_Mg_0.13_)Al_2.00_BSi_4_O_15_(OH)
##PIN_ID=L00535
##ORIENTATION=Laser parallel to -c* (0 0 -1). Fiducial mark perpendicular to laser is parallel to a [1 0 0]
91.065, 0.000
92.466, 1.073
93.868, 54.690
95.269, 10.451
96.670, 55.633
98.070, 128.983
99.471, 202.528
100.871, 272.053
102.271, 340.547
103.670, 652.244
105.070, 1184.558
106.469, 2226.330
107.868, 3096.757
109.267, 4647.801
110.665, 10399.868
112.063, 36745.707
113.461, 12381.154
114.859, 3280.260
116.256, 1621.790
117.653, 1106.977
119.050, 754.819
120.447, 589.660
121.843, 538.760
123.240, 636.341
124.636, 501.371
126.031, 442.449
127.427, 441.014
128.822, 407.176
130.217, 433.531
131.612, 472.931
133.006, 681.446
134.400, 960.167
135.794, 1401.180
137.188, 1793.085
138.581, 2019.693
139.975, 1903.129
141.368, 1664.485
142.760, 1353.983
144.153, 1116.742
145.545, 1027.010
146.937, 930.913
148.329, 794.472
149.720, 727.025
151.112, 605.569
152.503, 514.849
153.893, 511.253
155.284, 481.487
156.674, 319.659
158.064, 222.623
159.454, 186.081
160.843, 231.980
162.233, 300.215
163.622, 365.200
165.011, 566.738
166.399, 791.787
167.787, 1054.998
169.175, 1102.761
170.563, 1152.867
171.951, 1153.972
173.338, 983.077
174.725, 793.208
176.112, 553.443
177.499, 443.777
178.885, 498.215
180.271, 636.754
181.657, 31.388
183.043, 66.889
184.428, 112.084
185.813, 62.204
187.198, 87.480
188.583, 75.247
189.967, 129.186
191.351, 29.078
192.735, 24.070
194.119, 57.254
195.502, 1.531
196.885, 11.725
198.268, 69.072
199.651, 149.505
201.033, 268.997
202.415, 448.524
203.797, 716.055
205.179, 943.570
206.561, 1266.068
207.942, 1471.550
209.323, 1665.004
210.703, 1697.435
212.084, 1668.845
213.464, 1537.248
214.844, 1485.692
216.224, 1302.128
217.603, 1228.557
218.983, 1086.966
220.362, 837.281
221.741, 562.374
223.119, 365.266
224.497, 230.948
225.875, 104.560
227.253, 40.224
228.631, 34.521
230.008, 46.828
231.385, 19.520
232.762, 10.903
234.139, 11.097
235.515, 19.353
236.891, 106.920
238.267, 35.367
239.643, 54.812
241.018, 82.254
242.393, 76.677
243.768, 83.015
245.143, 137.270
246.517, 190.479
247.891, 317.667
249.265, 576.834
250.639, 873.985
252.012, 1267.130
253.386, 1850.275
254.759, 2078.422
256.131, 2188.571
257.504, 1950.176
258.876, 1739.646
260.248, 1583.238
261.620, 1649.606
262.991, 1863.341
264.363, 1935.103
265.734, 2225.870
267.104, 2483.628
268.475, 2803.366
269.845, 3010.073
271.215, 3245.737
272.585, 3541.351
273.955, 3745.911
275.324, 3811.412
276.693, 3674.855
278.062, 3381.240
279.431, 3026.568
280.799, 2615.823
282.167, 2242.983
283.535, 2148.047
284.903, 2030.017
286.270, 2000.905
287.638, 1950.714
289.005, 2011.451
290.371, 2040.112
291.738, 2019.690
293.104, 2021.198
294.470, 2000.643
295.836, 1893.027
297.201, 1771.356
298.567, 1636.632
299.932, 1377.080
301.296, 1280.784
302.661, 1219.087
304.025, 1057.951
305.389, 1062.547
306.753, 998.504
308.117, 953.839
309.480, 892.465
310.843, 970.167
312.206, 1060.017
313.569, 1318.327
314.931, 1581.207
316.293, 1953.080
317.655, 2253.947
319.017, 2389.806
320.378, 2423.658
321.740, 2203.505
323.101, 1924.980
324.461, 1794.268
325.822, 1628.558
327.182, 1655.010
328.542, 1652.573
329.902, 1576.113
331.261, 1600.694
332.621, 1534.373
333.980, 1587.541
335.339, 1738.212
336.697, 1969.893
338.056, 2332.703
339.414, 2699.648
340.772, 2992.333
342.129, 3187.036
343.487, 3096.520
344.844, 3068.000
346.201, 2471.851
347.557, 2105.152
348.914, 1709.663
350.270, 1524.348
351.626, 1242.490
352.982, 1043.439
354.337, 913.044
355.693, 638.969
357.048, 438.855
358.402, 321.547
359.757, 245.308
361.111, 151.831
362.465, 102.851
363.819, 96.541
365.173, 48.085
366.526, 57.758
367.879, 14.636
369.232, 15.157
370.585, 32.678
371.937, 5.868
373.290, 13.489
374.642, 34.836
375.993, 53.175
377.345, 110.506
378.696, 138.831
380.047, 252.149
381.398, 327.462
382.748, 484.769
384.099, 714.069
385.449, 825.365
386.799, 1064.657
388.148, 1046.750
389.497, 1023.170
390.847, 835.836
392.196, 668.074
393.544, 507.569
394.893, 386.802
396.241, 304.586
397.589, 296.622
398.936, 315.922
400.284, 348.401
401.631, 337.081
402.978, 411.068
404.325, 413.371
405.672, 445.637
407.018, 531.967
408.364, 600.694
409.710, 740.649
411.055, 932.875
412.401, 1311.100
413.746, 1763.325
415.091, 2202.550
416.435, 2651.774
417.780, 2760.999
419.124, 2812.222
420.468, 2844.432
421.812, 2960.628
423.155, 2947.809
424.498, 2689.978
425.842, 2483.131
427.184, 2146.270
428.527, 1933.392
429.869, 1677.499
431.211, 1440.590
432.553, 1259.666
433.895, 1060.726
435.236, 1023.772
436.577, 1038.803
437.918, 1184.819
439.259, 1549.821
440.599, 1905.808
441.940, 2538.916
443.280, 2962.025
444.619, 3036.931
445.959, 2703.183
447.298, 2072.846
448.637, 1482.882
449.976, 1090.839
451.315, 772.723
452.653, 551.595
453.991, 445.456
455.329, 292.306
456.667, 193.145
458.004, 165.974
459.341, 125.792
460.678, 41.600
462.015, 26.603
463.352, 55.831
464.688, 38.097
466.024, 70.390
467.360, 32.726
468.695, 40.073
470.031, 62.423
471.366, 12.827
472.701, 35.226
474.035, 1.641
475.370, 91.950
476.704, 168.553
478.038, 302.162
479.372, 390.780
480.705, 592.416
482.038, 700.054
483.371, 759.706
484.704, 753.356
486.037, 551.025
487.369, 340.709
488.701, 232.407
490.033, 114.112
491.365, 58.815
492.696, 30.520
494.027, 32.777
495.358, 73.093
496.689, 25.552
498.019, 0.193
499.350, 29.173
500.680, 21.445
502.009, 16.058
503.339, 85.673
504.668, 103.278
505.997, 175.881
507.326, 233.492
508.655, 371.142
509.983, 467.839
511.311, 524.573
512.639, 561.347
513.967, 534.165
515.295, 416.033
516.622, 336.929
517.949, 180.839
519.276, 185.754
520.602, 107.687
521.929, 38.531
523.255, 18.820
524.581, 1.796
525.906, 0.208
527.232, 7.341
528.557, 23.189
529.882, 21.955
531.207, 35.248
532.531, 77.934
533.855, 60.075
535.179, 78.399
536.503, 111.817
537.827, 70.476
539.150, 82.255
540.473, 52.135
541.796, 69.012
543.119, 58.886
544.441, 70.758
545.764, 97.627
547.086, 92.493
548.407, 55.357
549.729, 47.222
551.050, 66.091
552.371, 108.979
553.692, 155.890
555.013, 218.816
556.333, 216.754
557.653, 336.700
558.973, 367.651
560.293, 345.603
561.612, 366.558
562.932, 302.516
564.251, 190.476
565.569, 200.436
566.888, 185.398
568.206, 201.359
569.524, 194.317
570.842, 219.273
572.160, 212.226
573.477, 246.176
574.795, 224.123
576.112, 187.067
577.428, 189.008
578.745, 197.945
580.061, 236.880
581.377, 308.811
582.693, 312.740
584.009, 426.665
585.324, 549.587
586.639, 554.507
587.954, 657.424
589.269, 602.338
590.583, 501.249
591.897, 393.157
593.212, 265.062
594.525, 235.043
595.839, 105.973
597.152, 68.915
598.465, 44.810
599.778, 9.762
601.091, 5.651
602.403, 17.464
603.716, 2.591
605.028, 12.724
606.339, 10.134
607.651, 25.988
608.962, 48.839
610.273, 110.688
611.584, 146.534
612.895, 157.378
614.205, 209.221
615.515, 242.061
616.825, 226.898
618.135, 236.734
619.444, 222.353
620.754, 170.661
622.063, 137.250
623.372, 115.953
624.680, 65.736
625.989, 33.361
627.297, 26.196
628.605, 80.384
629.912, 146.055
631.220, 142.289
632.527, 144.106
633.834, 295.827
635.141, 309.521
636.447, 473.388
637.754, 596.434
639.060, 733.698
640.366, 868.394
641.671, 914.420
642.977, 980.904
644.282, 909.433
645.587, 848.139
646.892, 757.203
648.196, 565.134
649.501, 422.923
650.805, 354.969
652.109, 259.071
653.412, 188.666
654.716, 92.247
656.019, 93.695
657.322, 81.003
658.625, 68.567
659.927, 54.108
661.230, 61.863
662.532, 89.615
663.834, 141.403
665.135, 153.596
666.437, 205.734
667.738, 271.976
669.039, 361.337
670.340, 452.131
671.640, 617.422
672.940, 806.578
674.241, 967.477
675.540, 1201.292
676.840, 1194.806
678.139, 1165.571
679.439, 1026.240
680.738, 811.068
682.036, 655.512
683.335, 558.927
684.633, 413.127
685.931, 346.671
687.229, 307.205
688.527, 300.794
689.824, 274.469
691.121, 309.144
692.418, 326.815
693.715, 352.483
695.012, 447.147
696.308, 483.807
697.604, 593.460
698.900, 748.109
700.195, 895.754
701.491, 1173.393
702.786, 1452.027
704.081, 1827.657
705.376, 2373.281
706.670, 2912.888
707.964, 3825.502
709.259, 4764.111
710.552, 5711.715
711.846, 6561.313
713.139, 6841.907
714.433, 7014.493
715.726, 6073.074
717.018, 5347.652
718.311, 4273.223
719.603, 3416.788
720.895, 2768.348
722.187, 2118.902
723.479, 1697.451
724.770, 1366.994
726.061, 1125.532
727.352, 946.064
728.643, 768.591
729.934, 649.113
731.224, 497.629
732.514, 443.139
733.804, 374.644
735.094, 312.144
736.383, 294.639
737.672, 243.128
738.961, 181.612
740.250, 162.090
741.539, 163.563
742.827, 117.031
744.115, 129.493
745.403, 64.951
746.691, 92.403
747.978, 120.850
749.265, 37.291
750.552, 48.727
751.839, 45.157
753.126, 59.582
754.412, 41.002
755.698, 65.283
756.984, 64.542
758.270, 56.987
759.555, 99.067
760.840, 85.718
762.125, 114.979
763.410, 138.302
764.695, 106.682
765.979, 166.057
767.263, 104.427
768.547, 132.792
769.831, 112.152
771.114, 64.508
772.398, 103.859
773.681, 50.206
774.964, 69.549
776.246, 29.894
777.529, 31.249
778.811, 12.609
780.093, 31.020
781.375, 9.667
782.656, 37.663
783.937, 46.980
785.219, 10.656
786.499, 43.339
787.780, 51.056
789.060, 18.810
790.341, 37.587
791.621, 72.395
792.901, 12.252
794.180, 51.128
795.459, 9.958
796.739, 63.962
798.017, 48.928
799.296, 51.931
800.575, 25.971
801.853, 12.963
803.131, 7.108
804.409, 2.806
805.686, 68.712
806.964, 54.622
808.241, 108.547
809.518, 114.468
810.795, 110.387
812.071, 110.309
813.347, 105.228
814.623, 87.138
815.899, 64.051
817.175, 30.959
818.450, 15.135
819.726, 1.752
821.001, 16.368
822.275, 2.506
823.550, 25.655
824.824, 1.825
826.098, 16.006
827.372, 12.203
828.646, 10.585
829.920, 6.631
831.193, 19.142
832.466, 19.910
833.739, 16.676
835.011, 44.442
836.284, 50.208
837.556, 53.973
838.828, 104.738
840.100, 89.507
841.371, 150.274
842.642, 130.039
843.914, 202.802
845.184, 243.562
846.455, 252.320
847.726, 350.077
848.996, 345.830
850.266, 458.581
851.536, 431.330
852.805, 426.076
854.075, 460.819
855.344, 440.560
856.613, 470.299
857.881, 463.036
859.150, 416.770
860.418, 456.502
861.686, 451.232
862.954, 501.964
864.222, 468.696
865.489, 478.426
866.756, 467.155
868.023, 505.882
869.290, 506.608
870.557, 504.333
871.823, 469.057
873.089, 523.780
874.355, 563.501
875.621, 590.222
876.886, 588.942
878.152, 620.660
879.417, 647.380
880.682, 672.104
881.946, 685.827
883.211, 747.548
884.475, 767.275
885.739, 807.001
887.003, 880.727
888.266, 967.451
889.530, 1090.174
890.793, 1153.896
892.056, 1305.618
893.318, 1448.339
894.581, 1996.059
895.843, 1884.779
897.105, 1913.505
898.367, 2013.236
899.629, 2156.966
900.890, 1986.698
902.152, 2092.352
903.413, 1967.055
904.673, 1835.743
905.934, 1754.474
907.194, 1551.145
908.454, 1390.876
909.714, 1303.609
910.974, 1098.345
912.234, 1069.084
913.493, 937.826
914.752, 839.572
916.011, 822.317
917.270, 740.069
918.528, 721.824
919.786, 722.581
921.044, 677.338
922.302, 727.096
923.560, 746.854
924.817, 761.615
926.074, 791.371
927.331, 796.134
928.588, 855.813
929.844, 796.498
931.101, 821.089
932.357, 740.211
933.613, 690.673
934.868, 758.394
936.124, 757.520
937.379, 758.927
938.634, 752.285
939.889, 769.166
941.144, 872.080
942.398, 876.820
943.652, 943.380
944.906, 1108.723
946.160, 1165.633
947.414, 1322.213
948.667, 1390.336
949.920, 1548.413
951.173, 1713.317
952.426, 1791.862
953.678, 1983.542
954.931, 2223.301
956.183, 2379.688
957.435, 2830.524
958.686, 3024.364
959.938, 3571.208
961.189, 3833.061
962.440, 3872.921
963.691, 3787.784
964.941, 3693.651
966.192, 3495.522
967.442, 3406.396
968.692, 3369.235
969.942, 3523.669
971.191, 3696.160
972.441, 4021.546
973.690, 4630.814
974.939, 4946.650
976.187, 5260.986
977.436, 5453.461
978.684, 5126.189
979.932, 4984.001
981.180, 4455.116
982.428, 4015.980
983.675, 3777.854
984.922, 3438.723
986.169, 3337.075
987.416, 3144.044
988.663, 3057.997
989.909, 3050.449
991.155, 2950.411
992.401, 2931.443
993.647, 2928.416
994.893, 2839.650
996.138, 2863.634
997.383, 2749.778
998.628, 2621.771
999.873, 2600.769
1001.117, 2394.774
1002.362, 2277.784
1003.606, 2061.798
1004.850, 1826.822
1006.093, 1742.862
1007.337, 1493.891
1008.580, 1279.925
1009.823, 1125.965
1011.066, 979.010
1012.308, 908.906
1013.551, 790.418
1014.793, 704.565
1016.035, 665.651
1017.277, 560.737
1018.518, 583.088
1019.760, 549.326
1021.001, 480.432
1022.242, 506.590
1023.483, 522.710
1024.723, 506.222
1025.964, 478.350
1027.204, 406.482
1028.444, 476.082
1029.683, 375.546
1030.923, 375.726
1032.162, 358.887
1033.401, 324.534
1034.640, 275.704
1035.879, 326.890
1037.117, 267.074
1038.355, 344.262
1039.593, 273.474
1040.831, 299.703
1042.069, 305.906
1043.306, 294.114
1044.544, 338.327
1045.781, 314.104
1047.017, 318.677
1048.254, 354.912
1049.490, 356.405
1050.726, 363.921
1051.962, 393.166
1053.198, 376.414
1054.434, 410.667
1055.669, 404.924
1056.904, 387.240
1058.139, 356.505
1059.374, 303.787
1060.608, 297.090
1061.843, 312.367
1063.077, 236.216
1064.311, 218.506
1065.544, 246.270
1066.778, 233.956
1068.011, 229.756
1069.244, 189.113
1070.477, 254.444
1071.710, 270.751
1072.942, 238.862
1074.174, 281.184
1075.406, 330.536
1076.638, 345.119
1077.870, 389.462
1079.101, 401.033
1080.332, 405.366
1081.563, 389.714
1082.794, 346.955
1084.025, 377.395
1085.255, 305.936
1086.485, 272.401
1087.715, 219.895
1088.945, 203.588
1090.175, 219.045
1091.404, 171.500
1092.633, 148.980
1093.862, 183.528
1095.091, 155.038
1096.319, 181.631
1097.548, 179.177
1098.776, 158.561
1100.004, 214.135
1101.231, 176.722
1102.459, 192.934
1103.686, 170.628
1104.913, 132.330
1106.140, 206.235
1107.367, 127.841
1108.593, 94.612
1109.819, 173.006
1111.046, 117.618
1112.271, 124.233
1113.497, 103.886
1114.722, 87.551
1115.948, 61.260
1117.173, 63.881
1118.398, 90.577
1119.622, 93.282
1120.847, 68.942
1122.071, 56.696
1123.295, 37.437
1124.519, 36.145
1125.742, 75.814
1126.966, 56.497
1128.189, 34.174
1129.412, 16.424
1130.635, 24.135
1131.857, 27.873
1133.080, 17.403
1134.302, 1.721
1135.524, 25.026
1136.746, 19.257
1137.967, 31.493
1139.188, 4.569
1140.410, 33.172
1141.631, 12.086
1142.851, 26.868
1144.072, 8.457
1145.292, 12.293
1146.512, 9.049
1147.732, 19.159
1148.952, 52.900
1150.172, 16.572
1151.391, 0.406
1152.610, 0.887
1153.829, 7.783
1155.048, 31.567
1156.266, 15.337
1157.484, 23.198
1158.702, 22.498
1159.920, 14.806
1161.138, 3.954
1162.356, 0.134
1163.573, 21.564
1164.790, 9.298
1166.007, 5.750
1167.224, 5.042
1168.440, 2.222
1169.656, 0.515
1170.872, 11.090
1172.088, 29.425
1173.304, 9.056
1174.519, 11.744
1175.735, 26.037
1176.950, 0.799
1178.165, 6.934
1179.379, 27.409
1180.594, 4.251
1181.808, 3.151
1183.022, 6.731
1184.236, 11.372
1185.449, 2.085
1186.663, 0.765
1187.876, 15.526
1189.089, 13.238
1190.302, 36.884
1191.515, 25.181
1192.727, 21.630
1193.939, 10.907
1195.151, 3.418
1196.363, 3.566
1197.575, 13.297
1198.786, 39.362
1199.997, 35.905
1201.208, 16.489
1202.419, 3.021
1203.630, 21.569
1204.840, 14.150
1206.051, 10.647
1207.261, 32.244
1208.470, 6.074
1209.680, 18.406
1210.889, 20.076
1212.099, 2.616
1213.308, 4.158
1214.516, 8.357
1215.725, 15.795
1216.933, 29.290
1218.142, 7.943
1219.350, 22.475
1220.557, 16.889
1221.765, 14.663
1222.972, 21.731
1224.180, 2.120
1225.387, 44.606
1226.593, 28.984
1227.800, 7.580
1229.006, 9.965
1230.213, 5.320
1231.419, 11.672
1232.624, 9.980
1233.830, 12.640
1235.035, 26.688
1236.241, 56.009
1237.446, 37.326
1238.650, 18.638
1239.855, 41.936
1241.059, 14.268
1242.264, 31.558
1243.468, 4.140
1244.671, 40.137
1245.875, 37.409
1247.078, 0.291
1248.282, 13.968
1249.485, 14.219
1250.687, 6.518
1251.890, 61.757
1253.092, 8.009
1254.295, 1.787
1255.497, 45.465
1256.699, 45.693
1257.900, 30.893
1259.102, 29.084
1260.303, 19.335
1261.504, 43.514
1262.705, 25.687
1263.905, 24.843
1265.106, 37.986
1266.306, 19.115
1267.506, 23.229
1268.706, 32.335
1269.905, 50.433
1271.105, 42.521
1272.304, 62.599
1273.503, 4.658
1274.702, 38.708
1275.900, 32.741
1277.099, 36.789
1278.297, 66.396
1279.495, 30.696
1280.693, 38.153
1281.891, 28.861
1283.088, 13.836
1284.285, 31.736
1285.482, 31.692
1286.679, 13.384
1287.876, 70.322
1289.072, 29.095
1290.268, 28.015
1291.464, 8.928
1292.660, 31.830
1293.856, 65.745
1295.051, 20.629
1296.247, 40.500
1297.442, 52.351
1298.637, 25.208
1299.831, 27.056
1301.026, 19.896
1302.220, 11.272
1303.414, 41.705
1304.608, 4.938
1305.802, 20.780
1306.995, 2.444
1308.188, 8.329
1309.381, 0.168
1310.574, 22.445
1311.767, 28.185
1312.960, 27.868
1314.152, 35.584
1315.344, 5.905
1316.536, 49.605
1317.728, 6.298
1318.919, 29.546
1320.110, 3.899
1321.301, 4.468
1322.492, 36.182
1323.683, 30.341
1324.874, 8.025
1326.064, 54.590
1327.254, 36.717
1328.444, 24.324
1329.634, 27.904
1330.823, 20.464
1332.013, 24.047
1333.202, 32.623
1334.391, 7.809
1335.580, 69.193
1336.768, 61.395
1337.956, 21.933
1339.145, 54.211
1340.333, 47.463
1341.520, 16.985
1342.708, 41.502
1343.895, 31.012
1345.083, 42.517
1346.270, 37.962
1347.456, 29.410
1348.643, 77.837
1349.829, 26.239
1351.016, 18.662
1352.202, 69.510
1353.387, 37.911
1354.573, 71.832
1355.759, 44.825
1356.944, 28.696
1358.129, 68.008
1359.314, 31.342
1360.498, 9.697
1361.683, 69.248
1362.867, 55.660
1364.051, 35.973
1365.235, 51.035
1366.419, 51.323
1367.602, 22.973
1368.785, 54.955
1369.968, 29.571
1371.151, 15.218
1372.334, 42.704
1373.517, 44.508
1374.699, 78.239
1375.881, 61.922
1377.063, 50.794
1378.245, 63.864
1379.426, 57.377
1380.608, 90.759
1381.789, 73.277
1382.970, 31.945
1384.150, 59.504
1385.331, 37.041
1386.511, 64.508
1387.691, 54.974
1388.871, 33.419
1390.051, 41.997
1391.231, 51.882
1392.410, 28.337
1393.589, 73.834
1394.768, 65.244
1395.947, 56.351
1397.126, 31.701
1398.304, 35.842
1399.483, 43.123
1400.661, 49.931
1401.838, 25.171
1403.016, 58.566
1404.194, 45.703
1405.371, 59.591
1406.548, 37.259
1407.725, 44.899
1408.901, 75.237
1410.078, 80.178
1411.254, 46.224
1412.430, 55.629
1413.606, 86.889
1414.782, 86.458
1415.958, 55.470
1417.133, 60.624
1418.308, 23.477
1419.483, 52.152
1420.658, 61.916
1421.832, 30.765
1423.007, 68.618
1424.181, 69.693
1425.355, 46.348
1426.529, 81.226
1427.702, 32.037
1428.876, 44.863
1430.049, 47.511
1431.222, 30.429
1432.395, 56.286
1433.567, 54.163
1434.740, 17.493
1435.912, 53.384
1437.084, 31.358
1438.256, 69.111
1439.428, 64.554
1440.599, 38.493
1441.770, 37.401
1442.942, 43.299
1444.112, 53.179
1445.283, 67.989
1446.454, 59.813
1447.624, 25.648
1448.794, 44.375
1449.964, 49.031
1451.134, 47.785
1452.303, 56.414
1453.473, 28.062
1454.642, 30.575
1455.811, 24.230
1456.980, 37.931
1458.148, 42.689
1459.317, 10.457
1460.485, 44.236
1461.653, 80.077
1462.821, 45.889
1463.989, 49.777
1465.156, 65.724
1466.323, 37.671
1467.490, 21.375
1468.657, 69.587
1469.824, 38.556
1470.991, 21.446
1472.157, 42.437
1473.323, 25.445
1474.489, 44.464
1475.655, 17.491
1476.820, 18.530
1477.986, 39.585
1479.151, 25.668
1480.316, 37.785
1481.481, 36.949
1482.645, 24.154
1483.810, 35.234
1484.974, 40.513
1486.138, 35.831
1487.302, 64.228
1488.465, 22.922
1489.629, 55.575
1490.792, 60.166
1491.955, 33.676
1493.118, 12.079
1494.281, 41.330
1495.443, 50.371
1496.606, 22.106
1497.768, 52.909
1498.930, 28.724
1500.091, 31.604
1501.253, 38.703
1502.414, 0.721
1503.575, 40.256
1504.736, 46.107
1505.897, 0.000
##END=



