##NAMES=Axinite-(Fe)
##RRUFFID=R050026
##IDEAL CHEMISTRY=Ca_4_Fe^2+^_2_Al_4_[B_2_Si_8_O_30_](OH)_2_
##LOCALITY=Pouyva mine, Polar Urals, Western Siberian Region, Russia
##OWNER=RRUFF
##SOURCE=Rock Currier
##DESCRIPTION=Brown transparent flat crystal
##STATUS=The identification of this mineral has been confirmed by X-ray diffraction and chemical analysis
##URL=rruff.info/R050026
##MEASURED CHEMISTRY=Ca_2.00_(Fe^2+^_0.61_Mn_0.26_Mg_0.13_)Al_2.00_BSi_4_O_15_(OH)
##PIN_ID=L00137
##ORIENTATION=Laser parallel to (1 0 1). Fiducial mark perpendicular to laser is parallel to b* (0 1 0)
100.871, 0.000
102.271, 142.468
103.670, 596.086
105.070, 1281.311
106.469, 2548.028
107.868, 3326.139
109.267, 4250.555
110.665, 3501.071
112.063, 2402.326
113.461, 1724.333
114.859, 1229.514
116.256, 625.799
117.653, 200.980
119.050, 110.795
120.447, 39.795
121.843, 7.799
123.240, 31.016
124.636, 0.645
126.031, 17.603
127.427, 11.883
128.822, 53.697
130.217, 25.939
131.612, 77.644
133.006, 286.600
134.400, 565.999
135.794, 1309.003
137.188, 1613.227
138.581, 2003.383
139.975, 1766.190
141.368, 1453.133
142.760, 1220.660
144.153, 1158.795
145.545, 1284.730
146.937, 1289.727
148.329, 1554.133
149.720, 1424.077
151.112, 1223.234
152.503, 973.611
153.893, 731.085
155.284, 642.414
156.674, 405.610
158.064, 455.675
159.454, 447.615
160.843, 429.433
162.233, 610.813
163.622, 623.204
165.011, 976.102
166.399, 1271.076
167.787, 1823.838
169.175, 2108.930
170.563, 2060.036
171.951, 2008.502
173.338, 1495.778
174.725, 1267.074
176.112, 848.357
177.499, 662.203
178.885, 437.993
180.271, 234.724
181.657, 87.398
183.043, 62.982
184.428, 69.339
185.813, 99.437
187.198, 86.286
188.583, 96.906
189.967, 96.324
191.351, 3.435
192.735, 45.651
194.119, 32.392
195.502, 17.462
196.885, 44.773
198.268, 126.075
199.651, 200.432
201.033, 422.857
202.415, 615.354
203.797, 938.953
205.179, 1224.631
206.561, 1710.362
207.942, 2138.127
209.323, 2251.893
210.703, 2554.629
212.084, 2122.318
213.464, 1997.931
214.844, 1640.472
216.224, 1480.964
217.603, 1280.419
218.983, 1007.838
220.362, 828.207
221.741, 520.526
223.119, 349.777
224.497, 188.901
225.875, 115.723
227.253, 99.183
228.631, 52.713
230.008, 23.128
231.385, 9.350
232.762, 19.876
234.139, 25.282
235.515, 76.368
236.891, 154.480
238.267, 94.021
239.643, 169.363
241.018, 145.096
242.393, 183.647
243.768, 201.662
245.143, 199.642
246.517, 310.555
247.891, 320.348
249.265, 549.985
250.639, 757.899
252.012, 1174.828
253.386, 1717.172
254.759, 2007.591
256.131, 2124.824
257.504, 1727.020
258.876, 1557.194
260.248, 1230.356
261.620, 1243.504
262.991, 1349.640
264.363, 1469.762
265.734, 1812.870
267.104, 1958.388
268.475, 2568.236
269.845, 2973.112
271.215, 3434.894
272.585, 4212.513
273.955, 4213.936
275.324, 4708.146
276.693, 4444.070
278.062, 4220.764
279.431, 3701.205
280.799, 3091.387
282.167, 2815.298
283.535, 2442.032
284.903, 2496.584
286.270, 2366.829
287.638, 2319.687
289.005, 2430.441
290.371, 2299.653
291.738, 2421.588
293.104, 2321.095
294.470, 2441.602
295.836, 2331.823
297.201, 2168.068
298.567, 2082.192
299.932, 1686.025
301.296, 1638.911
302.661, 1438.598
304.025, 1404.852
305.389, 1369.883
306.753, 1249.714
308.117, 1331.902
309.480, 1200.640
310.843, 1442.104
312.206, 1557.039
313.569, 1964.278
314.931, 2597.176
316.293, 3035.939
317.655, 3862.413
319.017, 3873.996
320.378, 3937.942
321.740, 3423.865
323.101, 2743.490
324.461, 2596.058
325.822, 2140.526
327.182, 2216.779
328.542, 2076.279
329.902, 2001.056
331.261, 1897.959
332.621, 1661.055
333.980, 1707.032
335.339, 1681.484
336.697, 1999.767
338.056, 2308.066
339.414, 2669.245
340.772, 3356.319
342.129, 3475.853
343.487, 3652.228
344.844, 3217.108
346.201, 2719.551
347.557, 2290.487
348.914, 1787.092
350.270, 1620.874
351.626, 1217.543
352.982, 1067.604
354.337, 849.755
355.693, 610.218
357.048, 501.650
358.402, 363.671
359.757, 311.961
361.111, 166.541
362.465, 127.139
363.819, 131.826
365.173, 95.319
366.526, 67.531
367.879, 62.129
369.232, 119.568
370.585, 108.051
371.937, 42.760
373.290, 125.928
374.642, 42.206
375.993, 137.366
377.345, 83.487
378.696, 149.567
380.047, 193.475
381.398, 255.357
382.748, 378.215
384.099, 506.051
385.449, 706.347
386.799, 864.914
388.148, 853.298
389.497, 874.757
390.847, 658.953
392.196, 553.634
393.544, 468.874
394.893, 362.370
396.241, 317.550
397.589, 254.991
398.936, 305.874
400.284, 227.913
401.631, 331.133
402.978, 319.335
404.325, 283.269
405.672, 352.593
407.018, 312.077
408.364, 451.554
409.710, 490.795
411.055, 715.078
412.401, 1069.323
413.746, 1397.732
415.091, 2143.130
416.435, 2426.520
417.780, 2636.899
419.124, 2542.269
420.468, 2178.631
421.812, 2428.985
423.155, 2283.330
424.498, 2404.666
425.842, 2448.994
427.184, 2313.313
428.527, 2511.624
429.869, 2275.887
431.211, 2330.102
432.553, 1968.266
433.895, 1610.382
435.236, 1391.448
436.577, 1082.468
437.918, 1143.611
439.259, 1114.559
440.599, 1385.512
441.940, 1711.728
443.280, 1940.788
444.619, 1881.864
445.959, 1763.216
447.298, 1547.773
448.637, 1081.030
449.976, 714.890
451.315, 563.740
452.653, 336.311
453.991, 319.891
455.329, 219.349
456.667, 148.774
458.004, 155.166
459.341, 50.525
460.678, 77.846
462.015, 24.130
463.352, 24.624
464.688, 18.424
466.024, 8.605
467.360, 19.181
468.695, 17.134
470.031, 41.126
471.366, 46.162
472.701, 43.240
474.035, 35.350
475.370, 32.490
476.704, 4.659
478.038, 31.152
479.372, 0.043
480.705, 86.742
482.038, 86.519
483.371, 216.295
484.704, 258.069
486.037, 210.848
487.369, 176.630
488.701, 103.404
490.033, 53.177
491.365, 3.064
492.696, 15.312
494.027, 14.585
495.358, 13.119
496.689, 35.804
498.019, 16.472
499.350, 34.121
500.680, 52.754
502.009, 119.370
503.339, 196.973
504.668, 203.569
505.997, 359.164
507.326, 428.769
508.655, 601.415
509.983, 726.109
511.311, 727.860
512.639, 852.668
513.967, 713.538
515.295, 628.462
516.622, 531.419
517.949, 334.417
519.276, 331.170
520.602, 177.769
521.929, 165.796
523.255, 131.689
524.581, 69.613
525.906, 84.363
527.232, 37.885
528.557, 67.365
529.882, 49.228
531.207, 1.962
532.531, 107.360
533.855, 73.236
535.179, 92.563
536.503, 94.482
537.827, 96.163
539.150, 178.129
540.473, 136.278
541.796, 236.686
543.119, 262.593
544.441, 293.491
545.764, 301.381
547.086, 256.268
548.407, 345.155
549.729, 241.047
551.050, 295.945
552.371, 298.876
553.692, 317.823
555.013, 459.791
556.333, 468.711
557.653, 602.403
558.973, 699.330
560.293, 741.945
561.612, 765.956
562.932, 515.969
564.251, 450.860
565.569, 353.877
566.888, 222.893
568.206, 315.909
569.524, 242.923
570.842, 317.932
572.160, 254.935
573.477, 250.929
574.795, 286.915
576.112, 217.893
577.428, 233.863
578.745, 167.825
580.061, 171.779
581.377, 254.724
582.693, 223.662
584.009, 362.592
585.324, 365.513
586.639, 446.427
587.954, 489.332
589.269, 402.230
590.583, 421.120
591.897, 246.003
593.212, 175.878
594.525, 148.747
595.839, 46.608
597.152, 81.461
598.465, 19.692
599.778, 26.862
601.091, 20.948
602.403, 80.249
603.716, 35.489
605.028, 37.751
606.339, 32.037
607.651, 17.658
608.962, 10.345
610.273, 68.024
611.584, 56.698
612.895, 149.366
614.205, 218.926
615.515, 228.195
616.825, 309.495
618.135, 293.361
619.444, 384.346
620.754, 357.110
622.063, 226.917
623.372, 245.006
624.680, 147.151
625.989, 126.292
627.297, 77.650
628.605, 91.894
629.912, 95.631
631.220, 104.909
632.527, 229.177
633.834, 242.179
635.141, 313.094
636.447, 483.907
637.754, 542.288
639.060, 723.189
640.366, 820.709
641.671, 906.237
642.977, 950.357
644.282, 963.731
645.587, 900.917
646.892, 757.734
648.196, 597.813
649.501, 563.992
650.805, 417.584
652.109, 318.965
653.412, 239.688
654.716, 141.659
656.019, 113.554
657.322, 100.528
658.625, 128.586
659.927, 90.928
661.230, 78.487
662.532, 121.043
663.834, 76.597
665.135, 196.167
666.437, 194.522
667.738, 273.786
669.039, 370.392
670.340, 394.544
671.640, 629.430
672.940, 748.186
674.241, 939.763
675.540, 1175.393
676.840, 1110.997
678.139, 1242.512
679.439, 1022.588
680.738, 846.044
682.036, 802.358
683.335, 493.738
684.633, 497.819
685.931, 375.032
687.229, 328.174
688.527, 344.060
689.824, 285.459
691.121, 335.720
692.418, 344.071
693.715, 360.434
695.012, 449.811
696.308, 463.332
697.604, 628.852
698.900, 724.369
700.195, 913.882
701.491, 1243.390
702.786, 1369.894
704.081, 1958.394
705.376, 2324.889
706.670, 2943.381
707.964, 3902.866
709.259, 4592.348
710.552, 6142.827
711.846, 6607.299
713.139, 7339.767
714.433, 8004.232
715.726, 7163.692
717.018, 6593.149
718.311, 4824.602
719.603, 3786.049
720.895, 3219.492
722.187, 2277.930
723.479, 2021.363
724.770, 1584.791
726.061, 1293.215
727.352, 1129.634
728.643, 792.047
729.934, 803.457
731.224, 619.861
732.514, 550.261
733.804, 533.656
735.094, 370.047
736.383, 381.433
737.672, 292.814
738.961, 225.191
740.250, 264.564
741.539, 229.932
742.827, 211.296
744.115, 177.656
745.403, 103.011
746.691, 177.363
747.978, 106.710
749.265, 171.053
750.552, 151.392
751.839, 110.555
753.126, 112.864
754.412, 113.119
755.698, 139.063
756.984, 143.117
758.270, 108.248
759.555, 173.781
760.840, 119.202
762.125, 199.887
763.410, 162.928
764.695, 169.938
765.979, 222.190
767.263, 189.395
768.547, 244.687
769.831, 233.977
771.114, 156.265
772.398, 189.553
773.681, 96.841
774.964, 82.129
776.246, 74.419
777.529, 47.714
778.811, 45.014
780.093, 28.055
781.375, 10.652
782.656, 10.976
783.937, 5.755
785.219, 29.361
786.499, 22.041
787.780, 14.729
789.060, 12.424
790.341, 56.129
791.621, 0.868
792.901, 37.613
794.180, 47.382
795.459, 23.181
796.739, 58.001
798.017, 44.858
799.296, 18.746
800.575, 50.651
801.853, 8.589
803.131, 48.536
804.409, 43.487
805.686, 31.515
806.964, 85.545
808.241, 195.577
809.518, 143.609
810.795, 176.643
812.071, 193.677
813.347, 140.711
814.623, 139.745
815.899, 64.776
817.175, 101.807
818.450, 24.835
819.726, 5.138
821.001, 21.121
822.275, 27.121
823.550, 36.614
824.824, 15.188
826.098, 30.247
827.372, 10.328
828.646, 9.579
829.920, 10.483
831.193, 32.385
832.466, 36.714
833.739, 24.162
835.011, 8.038
836.284, 7.912
837.556, 88.785
838.828, 50.659
840.100, 67.534
841.371, 96.410
842.642, 74.288
843.914, 190.165
845.184, 124.043
846.455, 165.923
847.726, 227.802
848.996, 220.682
850.266, 336.561
851.536, 278.442
852.805, 298.329
854.075, 346.218
855.344, 312.106
856.613, 389.993
857.881, 354.880
859.150, 401.767
860.418, 389.663
861.686, 322.557
862.954, 451.452
864.222, 393.347
865.489, 406.243
866.756, 420.141
868.023, 373.039
869.290, 483.937
870.557, 437.835
871.823, 456.734
873.089, 529.634
874.355, 463.537
875.621, 563.443
876.886, 495.348
878.152, 479.254
879.417, 519.160
880.682, 448.067
881.946, 508.974
883.211, 539.881
884.475, 438.789
885.739, 543.697
887.003, 507.606
888.266, 561.516
889.530, 652.430
890.793, 622.350
892.056, 773.270
893.318, 737.195
894.581, 764.120
895.843, 961.046
897.105, 869.978
898.367, 997.912
899.629, 1021.846
900.890, 931.785
902.152, 1039.724
903.413, 846.665
904.673, 811.608
905.934, 778.552
907.194, 630.505
908.454, 708.465
909.714, 547.427
910.974, 548.411
912.234, 545.405
913.493, 468.408
914.752, 462.428
916.011, 425.450
917.270, 447.478
918.528, 514.508
919.786, 426.540
921.044, 536.577
922.302, 595.615
923.560, 599.655
924.817, 743.696
926.074, 677.739
927.331, 815.784
928.588, 815.831
929.844, 755.879
931.101, 854.931
932.357, 726.927
933.613, 661.807
934.868, 726.697
936.124, 626.843
937.379, 672.629
938.634, 663.844
939.889, 608.486
941.144, 727.265
942.398, 698.396
943.652, 876.816
944.906, 937.112
946.160, 974.796
947.414, 1242.955
948.667, 1156.983
949.920, 1344.841
951.173, 1522.278
952.426, 1512.788
953.678, 1868.833
954.931, 1904.493
956.183, 2175.609
957.435, 2654.718
958.686, 2705.842
959.938, 3354.970
961.189, 3443.105
962.440, 3390.243
963.691, 3773.386
964.941, 3156.533
966.192, 3116.684
967.442, 2947.839
968.692, 2760.999
969.942, 3058.145
971.191, 3052.508
972.441, 3415.963
973.690, 3931.077
974.939, 3878.646
976.187, 4521.481
977.436, 4341.447
978.684, 4050.594
979.932, 4191.686
981.180, 3246.806
982.428, 3199.016
983.675, 2843.671
984.922, 2339.890
986.169, 2513.002
987.416, 2121.198
988.663, 2043.434
989.909, 2071.946
991.155, 1828.192
992.401, 1987.444
993.647, 1866.750
994.893, 1758.011
996.138, 1920.787
997.383, 1681.073
998.628, 1790.349
999.873, 1755.632
1001.117, 1479.629
1002.362, 1511.535
1003.606, 1252.149
1004.850, 1212.462
1006.093, 1163.892
1007.337, 851.220
1008.580, 889.579
1009.823, 720.933
1011.066, 646.278
1012.308, 641.631
1013.551, 510.277
1014.793, 522.645
1016.035, 422.629
1017.277, 363.030
1018.518, 471.422
1019.760, 327.818
1021.001, 332.378
1022.242, 382.080
1023.483, 274.026
1024.723, 297.876
1025.964, 296.305
1027.204, 242.740
1028.444, 276.189
1029.683, 242.642
1030.923, 260.107
1032.162, 236.569
1033.401, 223.035
1034.640, 283.505
1035.879, 257.980
1037.117, 267.462
1038.355, 300.835
1039.593, 289.308
1040.831, 268.825
1042.069, 287.981
1043.306, 241.510
1044.544, 291.014
1045.781, 256.698
1047.017, 259.279
1048.254, 327.846
1049.490, 291.957
1050.726, 346.479
1051.962, 313.034
1053.198, 329.605
1054.434, 382.138
1055.669, 323.142
1056.904, 328.686
1058.139, 318.234
1059.374, 232.102
1060.608, 267.657
1061.843, 244.261
1063.077, 233.378
1064.311, 229.946
1065.544, 220.270
1066.778, 270.838
1068.011, 265.686
1069.244, 283.637
1070.477, 343.296
1071.710, 297.929
1072.942, 387.510
1074.174, 489.097
1075.406, 459.737
1076.638, 655.354
1077.870, 665.942
1079.101, 680.946
1080.332, 787.540
1081.563, 673.221
1082.794, 720.536
1084.025, 607.157
1085.255, 489.378
1086.485, 489.077
1087.715, 347.709
1088.945, 309.853
1090.175, 329.684
1091.404, 210.400
1092.633, 262.122
1093.862, 212.810
1095.091, 163.006
1096.319, 209.026
1097.548, 147.916
1098.776, 215.181
1100.004, 171.986
1101.231, 145.850
1102.459, 210.633
1103.686, 165.433
1104.913, 173.390
1106.140, 164.269
1107.367, 88.072
1108.593, 166.381
1109.819, 149.186
1111.046, 105.273
1112.271, 112.131
1113.497, 85.939
1114.722, 97.824
1115.948, 97.915
1117.173, 85.820
1118.398, 82.683
1119.622, 71.682
1120.847, 62.506
1122.071, 54.436
1123.295, 53.342
1124.519, 16.385
1125.742, 51.247
1126.966, 32.160
1128.189, 49.049
1129.412, 25.918
1130.635, 20.834
1131.857, 24.787
1133.080, 8.770
1134.302, 5.246
1135.524, 46.668
1136.746, 12.360
1137.967, 30.704
1139.188, 1.637
1140.410, 3.491
1141.631, 32.379
1142.851, 17.652
1144.072, 0.789
1145.292, 41.186
1146.512, 1.125
1147.732, 20.590
1148.952, 35.737
1150.172, 11.980
1151.391, 43.463
1152.610, 5.626
1153.829, 42.369
1155.048, 1.621
1156.266, 39.990
1157.484, 15.824
1158.702, 6.396
1159.920, 9.733
1161.138, 31.241
1162.356, 14.840
1163.573, 0.890
1164.790, 47.257
1166.007, 2.086
1167.224, 5.037
1168.440, 7.759
1169.656, 11.852
1170.872, 9.167
1172.088, 21.899
1173.304, 21.842
1174.519, 37.094
1175.735, 23.831
1176.950, 9.589
1178.165, 16.744
1179.379, 13.334
1180.594, 14.053
1181.808, 22.861
1183.022, 13.579
1184.236, 13.708
1185.449, 15.007
1186.663, 9.682
1187.876, 9.357
1189.089, 10.507
1190.302, 6.608
1191.515, 16.895
1192.727, 2.755
1193.939, 7.401
1195.151, 6.958
1196.363, 28.697
1197.575, 14.404
1198.786, 12.037
1199.997, 24.744
1201.208, 3.500
1202.419, 35.172
1203.630, 43.854
1204.840, 0.551
1206.051, 26.161
1207.261, 15.742
1208.470, 19.681
1209.680, 26.877
1210.889, 6.571
1212.099, 29.970
1213.308, 1.533
1214.516, 0.083
1215.725, 10.601
1216.933, 18.113
1218.142, 31.619
1219.350, 31.120
1220.557, 19.615
1221.765, 26.104
1222.972, 40.587
1224.180, 1.088
1225.387, 34.556
1226.593, 15.018
1227.800, 3.181
1229.006, 32.367
1230.213, 1.140
1231.419, 19.288
1232.624, 39.710
1233.830, 1.143
1235.035, 9.553
1236.241, 28.010
1237.446, 28.551
1238.650, 42.940
1239.855, 2.325
1241.059, 6.702
1242.264, 13.070
1243.468, 2.484
1244.671, 31.838
1245.875, 22.185
1247.078, 46.633
1248.282, 44.980
1249.485, 15.308
1250.687, 26.639
1251.890, 51.953
1253.092, 4.326
1254.295, 46.685
1255.497, 10.978
1256.699, 35.263
1257.900, 52.541
1259.102, 29.813
1260.303, 12.146
1261.504, 26.401
1262.705, 36.686
1263.905, 17.907
1265.106, 69.118
1266.306, 27.319
1267.506, 36.507
1268.706, 18.675
1269.905, 56.826
1271.105, 40.969
1272.304, 47.100
1273.503, 55.210
1274.702, 41.296
1275.900, 35.374
1277.099, 28.443
1278.297, 28.502
1279.495, 45.476
1280.693, 31.519
1281.891, 21.279
1283.088, 40.299
1284.285, 59.311
1285.482, 56.384
1286.679, 31.263
1287.876, 66.731
1289.072, 28.685
1290.268, 36.642
1291.464, 11.590
1292.660, 1.086
1293.856, 0.593
1295.051, 4.860
1296.247, 3.213
1297.442, 22.568
1298.637, 21.448
1299.831, 1.291
1301.026, 50.133
1302.220, 0.978
1303.414, 35.834
1304.608, 5.631
1305.802, 4.727
1306.995, 21.459
1308.188, 8.776
1309.381, 40.993
1310.574, 28.752
1311.767, 6.342
1312.960, 23.784
1314.152, 18.024
1315.344, 12.259
1316.536, 18.956
1317.728, 27.359
1318.919, 28.249
1320.110, 47.718
1321.301, 26.600
1322.492, 48.236
1323.683, 24.130
1324.874, 32.748
1326.064, 81.357
1327.254, 56.748
1328.444, 87.655
1329.634, 53.294
1330.823, 13.842
1332.013, 18.747
1333.202, 14.273
1334.391, 63.818
1335.580, 64.179
1336.768, 54.638
1337.956, 61.106
1339.145, 45.354
1340.333, 31.856
1341.520, 48.320
1342.708, 29.774
1343.895, 6.749
1345.083, 34.276
1346.270, 30.733
1347.456, 61.182
1348.643, 59.842
1349.829, 62.725
1351.016, 58.098
1352.202, 58.979
1353.387, 49.377
1354.573, 48.014
1355.759, 41.403
1356.944, 42.495
1358.129, 82.478
1359.314, 68.746
1360.498, 77.035
1361.683, 47.371
1362.867, 51.693
1364.051, 68.957
1365.235, 50.238
1366.419, 41.542
1367.602, 65.430
1368.785, 47.723
1369.968, 6.931
1371.151, 22.582
1372.334, 32.783
1373.517, 62.922
1374.699, 58.224
1375.881, 41.785
1377.063, 76.516
1378.245, 32.453
1379.426, 17.494
1380.608, 61.080
1381.789, 65.792
1382.970, 56.239
1384.150, 49.372
1385.331, 32.727
1386.511, 52.318
1387.691, 66.549
1388.871, 21.997
1390.051, 42.386
1391.231, 78.788
1392.410, 43.132
1393.589, 49.605
1394.768, 30.085
1395.947, 31.393
1397.126, 72.732
1398.304, 45.878
1399.483, 57.286
1400.661, 53.629
1401.838, 28.948
1403.016, 58.750
1404.194, 31.709
1405.371, 72.914
1406.548, 80.828
1407.725, 61.108
1408.901, 80.240
1410.078, 68.518
1411.254, 73.697
1412.430, 61.743
1413.606, 56.073
1414.782, 57.095
1415.958, 33.364
1417.133, 54.460
1418.308, 31.370
1419.483, 51.119
1420.658, 32.194
1421.832, 69.274
1423.007, 53.621
1424.181, 52.264
1425.355, 27.319
1426.529, 45.326
1427.702, 25.210
1428.876, 60.169
1430.049, 43.894
1431.222, 29.642
1432.395, 66.590
1433.567, 4.546
1434.740, 21.449
1435.912, 18.355
1437.084, 16.292
1438.256, 44.215
1439.428, 31.251
1440.599, 33.079
1441.770, 22.185
1442.942, 23.739
1444.112, 14.596
1445.283, 20.393
1446.454, 1.787
1447.624, 19.573
1448.794, 33.332
1449.964, 24.951
1451.134, 18.415
1452.303, 28.337
1453.473, 36.679
1454.642, 35.990
1455.811, 25.562
1456.980, 21.100
1458.148, 49.431
1459.317, 19.855
1460.485, 30.412
1461.653, 64.009
1462.821, 16.662
1463.989, 4.650
1465.156, 45.150
1466.323, 12.942
1467.490, 48.722
1468.657, 63.510
1469.824, 1.287
1470.991, 22.070
1472.157, 31.893
1473.323, 48.372
1474.489, 37.080
1475.655, 22.767
1476.820, 44.537
1477.986, 53.328
1479.151, 5.980
1480.316, 40.400
1481.481, 24.184
1482.645, 5.984
1483.810, 32.802
1484.974, 2.645
1486.138, 36.523
1487.302, 22.430
1488.465, 63.798
1489.629, 71.658
1490.792, 56.521
1491.955, 0.103
1493.118, 34.964
1494.281, 63.848
1495.443, 149.742
1496.606, 191.753
1497.768, 154.829
1498.930, 136.808
1500.091, 74.420
1501.253, 30.129
1502.414, 26.416
1503.575, 11.985
1504.736, 20.661
1505.897, 6.593
1507.058, 11.650
1508.218, 17.948
1509.379, 25.633
1510.539, 0.150
1511.698, 0.000
##END=



