##NAMES=Axinite-(Fe)
##RRUFFID=R040074
##IDEAL CHEMISTRY=Ca_4_Fe^2+^_2_Al_4_[B_2_Si_8_O_30_](OH)_2_
##LOCALITY=Luning, Nevada, USA
##OWNER=RRUFF
##SOURCE=University of Arizona Mineral Museum
##DESCRIPTION=Pale brown wedge-shaped crystal
##STATUS=The identification of this mineral has been confirmed by X-ray diffraction and chemical analysis
##URL=rruff.info/R040074
##MEASURED CHEMISTRY=(Ca_0.98_Mn_0.01_)_2_(Fe_0.41_Mg_0.39_Mn_0.20_)Al_1.95_B_1.20_Si_3.90_O_15_(OH)
##PIN_ID=L00239
##ORIENTATION=Laser parallel to b* (0 1 0). Fiducial mark perpendicular to laser is parallel to c [0 0 1]
90.003, 0.000
91.398, 33.615
92.793, 18.261
94.188, 298.166
95.582, 453.596
96.976, 913.282
98.370, 1729.639
99.764, 2094.273
101.157, 3003.959
102.550, 5895.819
103.943, 7247.475
105.336, 10177.057
106.729, 13173.129
108.121, 16555.604
109.513, 14292.815
110.905, 14770.316
112.297, 9169.765
113.688, 6072.596
115.079, 4348.127
116.470, 3105.854
117.861, 2445.391
119.251, 1736.454
120.642, 1448.821
122.032, 1012.314
123.422, 926.785
124.811, 496.883
126.201, 369.325
127.590, 236.195
128.979, 121.569
130.367, 245.647
131.756, 67.599
133.144, 410.547
134.532, 761.605
135.920, 1151.883
137.307, 1941.479
138.695, 2930.482
140.082, 3688.975
141.469, 4347.020
142.856, 4814.682
144.242, 4822.036
145.628, 4849.166
147.014, 4866.113
148.400, 4992.904
149.786, 5389.566
151.171, 5286.109
152.556, 5322.553
153.941, 4438.907
155.325, 4065.187
156.710, 3601.401
158.094, 3658.369
159.478, 3650.141
160.862, 3558.633
162.245, 3660.471
163.629, 3791.290
165.012, 4277.507
166.395, 4834.117
167.777, 5851.066
169.160, 6958.306
170.542, 7505.816
171.924, 7333.592
173.306, 6721.557
174.687, 5669.566
176.068, 4617.711
177.449, 3646.045
178.830, 2674.599
180.211, 1783.390
181.591, 1292.429
182.972, 771.721
184.351, 521.268
185.731, 441.068
187.111, 541.119
188.490, 941.413
189.869, 1371.949
191.248, 2022.718
192.626, 2083.712
194.005, 2464.920
195.383, 2026.375
196.761, 1758.365
198.139, 1741.028
199.516, 2004.259
200.893, 2677.742
202.271, 3241.364
203.647, 3945.119
205.024, 4389.005
206.400, 4613.016
207.777, 4567.142
209.152, 4141.350
210.528, 3985.617
211.904, 3769.941
213.279, 3264.326
214.654, 2798.770
216.029, 2283.275
217.403, 1824.032
218.778, 1292.509
220.152, 927.214
221.526, 501.977
222.900, 121.800
224.273, 40.749
225.646, 356.063
227.019, 311.457
228.392, 622.382
229.765, 638.758
231.137, 676.792
232.509, 628.712
233.881, 460.615
235.253, 459.505
236.625, 93.383
237.996, 257.750
239.367, 724.894
240.738, 881.949
242.108, 1168.596
243.479, 1844.582
244.849, 1839.958
246.219, 2454.974
247.589, 2739.999
248.958, 3125.067
250.328, 3470.178
251.697, 3745.328
253.065, 3790.521
254.434, 3725.750
255.803, 3754.863
257.171, 3675.500
258.539, 4087.134
259.906, 4660.260
261.274, 5384.236
262.641, 6458.910
264.008, 7684.166
265.375, 9199.918
266.742, 10276.097
268.108, 11472.639
269.475, 12469.501
270.840, 12826.646
272.206, 12564.047
273.572, 11961.662
274.937, 11259.467
276.302, 10137.432
277.667, 8945.538
279.032, 7863.765
280.396, 6772.104
281.760, 5990.545
283.125, 5309.074
284.488, 5087.688
285.852, 4816.379
287.215, 4505.140
288.578, 4803.967
289.941, 4772.832
291.304, 5101.684
292.666, 5610.500
294.029, 6209.286
295.391, 7018.049
296.753, 7576.791
298.114, 8406.303
299.476, 8837.829
300.837, 9321.150
302.198, 9295.997
303.558, 9392.378
304.919, 9522.188
306.279, 8754.765
307.639, 8184.505
308.999, 6955.125
310.359, 5823.802
311.718, 4642.477
313.077, 3601.152
314.436, 3009.851
315.795, 2678.556
317.154, 2377.304
318.512, 2326.058
319.870, 2064.822
321.228, 1933.591
322.586, 1912.129
323.943, 1890.115
325.300, 2047.354
326.657, 2514.000
328.014, 3000.356
329.371, 3076.758
330.727, 3013.206
332.083, 2649.696
333.439, 2106.230
334.795, 1802.814
336.150, 1659.438
337.506, 1606.311
338.861, 1783.168
340.215, 2370.104
341.570, 3138.367
342.924, 3825.233
344.279, 4742.137
345.633, 5289.072
346.986, 6486.036
348.340, 6943.028
349.693, 8490.049
351.046, 9317.098
352.399, 9484.167
353.752, 8921.525
355.104, 7323.693
356.457, 5631.848
357.809, 3929.126
359.160, 2667.400
360.512, 1831.067
361.863, 1293.271
363.214, 823.302
364.565, 561.294
365.916, 455.287
367.267, 419.019
368.617, 466.927
369.967, 577.873
371.317, 582.188
372.666, 809.562
374.016, 776.967
375.365, 794.174
376.714, 881.376
378.063, 678.573
379.411, 995.765
380.760, 1062.949
382.108, 1610.128
383.456, 2137.300
384.803, 3064.481
386.151, 4261.638
387.498, 5498.615
388.845, 7056.582
390.192, 7445.854
391.539, 7499.727
392.885, 6670.161
394.231, 5368.155
395.577, 4179.061
396.923, 3169.754
398.269, 2630.453
399.614, 2450.826
400.959, 2137.820
402.304, 2144.797
403.649, 1981.757
404.993, 2058.703
406.337, 2085.635
407.681, 2352.559
409.025, 3219.473
410.369, 4176.379
411.712, 6283.275
413.055, 9040.163
414.398, 12397.041
415.741, 14903.908
417.084, 14940.764
418.426, 13407.640
419.768, 10284.530
421.110, 8071.428
422.452, 6758.326
423.793, 6105.223
425.134, 6282.111
426.475, 6368.990
427.816, 7075.858
429.157, 7012.709
430.497, 7019.545
431.837, 6356.360
433.177, 5363.158
434.517, 4519.932
435.857, 3376.685
437.196, 2873.412
438.535, 2400.115
439.874, 2276.793
441.213, 2783.442
442.551, 3000.065
443.889, 3346.659
445.227, 3143.225
446.565, 2469.760
447.903, 1786.265
449.240, 1152.739
450.577, 959.182
451.914, 535.592
453.251, 391.971
454.588, 278.317
455.924, 194.631
457.260, 190.913
458.596, 107.163
459.932, 43.367
461.267, 150.491
462.602, 174.515
463.938, 198.718
465.272, 253.111
466.607, 137.727
467.941, 92.502
469.276, 72.589
470.610, 377.627
471.943, 492.721
473.277, 858.599
474.610, 878.173
475.944, 1304.631
477.276, 2088.821
478.609, 2925.140
479.942, 4382.426
481.274, 6208.316
482.606, 8583.581
483.938, 10328.891
485.270, 10484.253
486.601, 9739.619
487.932, 6875.015
489.263, 4560.496
490.594, 3016.396
491.925, 1691.905
493.255, 1188.094
494.585, 685.734
495.915, 401.737
497.245, 223.417
498.575, 240.058
499.904, 238.307
501.233, 124.631
502.562, 402.242
503.891, 318.251
505.219, 403.642
506.548, 518.774
507.876, 383.873
509.203, 446.215
510.531, 583.961
511.859, 318.951
513.186, 243.907
514.513, 18.825
515.840, 163.695
517.166, 61.427
518.493, 76.678
519.819, 162.052
521.145, 297.609
522.470, 103.414
523.796, 389.366
525.121, 325.623
526.446, 162.153
527.771, 228.871
529.096, 54.188
530.421, 12.827
531.745, 300.047
533.069, 292.879
534.393, 445.669
535.716, 438.417
537.040, 481.124
538.363, 523.789
539.686, 437.330
541.009, 738.991
542.331, 411.530
543.654, 344.027
544.976, 646.482
546.298, 218.893
547.620, 171.262
548.941, 373.668
550.263, 96.109
551.584, 398.640
552.905, 481.288
554.225, 794.062
555.546, 1276.952
556.866, 1669.913
558.186, 1992.946
559.506, 2345.970
560.826, 2538.947
562.145, 2521.884
563.465, 2384.774
564.784, 2497.621
566.103, 2650.425
567.421, 3323.184
568.740, 3815.898
570.058, 4748.568
571.376, 5471.193
572.694, 6003.772
574.011, 6160.617
575.329, 6378.797
576.646, 5851.244
577.963, 5363.643
579.279, 4745.998
580.596, 4508.307
581.912, 4410.568
583.228, 4542.785
584.544, 5264.953
585.860, 5567.077
587.175, 6559.152
588.491, 6261.184
589.806, 6163.166
591.121, 5425.104
592.435, 4186.993
593.750, 3558.837
595.064, 2620.633
596.378, 2092.381
597.692, 1644.083
599.006, 1285.739
600.319, 1237.347
601.632, 1078.908
602.945, 910.423
604.258, 961.470
605.571, 843.309
606.883, 1134.682
608.195, 1206.008
609.507, 1507.287
610.819, 1598.519
612.131, 1819.702
613.442, 2080.841
614.753, 2451.932
616.064, 2882.977
617.375, 3313.188
618.685, 3601.328
619.995, 3887.617
621.306, 3232.328
622.615, 2895.453
623.925, 1985.102
625.235, 1381.938
626.544, 1052.298
627.853, 431.619
629.162, 314.742
630.471, 153.056
631.779, 9.047
633.087, 121.135
634.395, 69.730
635.703, 163.074
637.011, 111.110
638.318, 255.052
639.625, 458.017
640.932, 526.164
642.239, 786.405
643.546, 703.683
644.852, 756.200
646.158, 762.748
647.464, 417.563
648.770, 580.165
650.076, 360.532
651.381, 210.145
652.686, 389.685
653.991, 59.167
655.296, 278.357
656.600, 167.539
657.905, 306.615
659.209, 194.340
660.513, 333.434
661.817, 472.468
663.120, 691.447
664.423, 890.376
665.726, 1269.253
667.029, 1518.079
668.332, 2156.854
669.635, 2906.150
670.937, 3694.774
672.239, 4807.014
673.541, 5607.311
674.842, 6845.957
676.144, 6566.764
677.445, 6309.020
678.746, 5664.107
680.047, 4611.155
681.348, 3768.653
682.648, 3000.106
683.948, 2471.783
685.248, 2099.238
686.548, 1743.613
687.848, 1614.578
689.147, 1462.441
690.447, 1489.740
691.746, 1574.204
693.044, 1796.078
694.343, 2003.943
695.641, 2341.771
696.940, 2759.561
698.238, 3337.312
699.535, 3805.024
700.833, 5082.682
702.130, 6050.322
703.427, 7837.318
704.724, 9973.785
706.021, 12261.315
707.318, 15986.380
708.614, 19663.840
709.910, 25311.256
711.206, 30318.635
712.502, 33365.988
713.798, 34673.281
715.093, 32590.547
716.388, 28857.775
717.683, 23514.961
718.978, 18842.111
720.272, 14759.227
721.567, 11746.302
722.861, 8773.343
724.155, 7320.346
725.448, 5617.314
726.742, 4604.245
728.035, 3701.141
729.328, 3008.002
730.621, 2634.828
731.914, 2101.619
733.206, 1768.377
734.499, 1675.100
735.791, 1221.790
737.083, 1058.448
738.374, 945.072
739.666, 811.664
740.957, 678.224
742.248, 574.751
743.539, 541.248
744.830, 387.713
746.120, 604.146
747.410, 460.550
748.701, 296.924
749.990, 503.267
751.280, 309.579
752.570, 605.863
753.859, 602.118
755.148, 578.345
756.437, 794.542
757.725, 930.712
759.014, 1046.854
760.302, 1332.968
761.590, 1339.055
762.878, 1905.114
764.166, 1951.147
765.453, 2307.152
766.740, 2433.133
768.027, 2209.090
769.314, 2145.018
770.601, 1790.922
771.887, 1426.801
773.174, 1132.661
774.460, 838.514
775.745, 714.407
777.031, 450.350
778.316, 316.347
779.602, 312.416
780.887, 68.525
782.172, 94.655
783.456, 9.230
784.741, 93.243
786.025, 88.134
787.309, 286.812
788.593, 112.518
789.876, 336.053
791.160, 261.871
792.443, 198.792
793.726, 344.436
795.009, 269.610
796.291, 304.965
797.574, 100.515
798.856, 186.152
800.138, 411.920
801.420, 67.938
802.702, 194.444
803.983, 19.338
805.264, 342.391
806.545, 413.947
807.826, 847.094
809.107, 1134.520
810.387, 1546.938
811.667, 1977.700
812.947, 1740.341
814.227, 1881.641
815.507, 1354.498
816.786, 1087.929
818.065, 1021.569
819.344, 645.199
820.623, 288.819
821.902, 352.430
823.180, 6.030
824.459, 69.614
825.737, 156.812
827.014, 223.303
828.292, 50.088
829.569, 76.483
830.847, 26.951
832.124, 39.552
833.401, 35.972
834.677, 107.642
835.954, 141.382
837.230, 235.238
838.506, 219.163
839.782, 213.174
841.057, 517.202
842.333, 371.258
843.608, 735.321
844.883, 879.382
846.158, 953.439
847.433, 1147.533
848.707, 1211.625
849.981, 1335.717
851.255, 1289.865
852.529, 1314.013
853.803, 1388.198
855.076, 1172.383
856.350, 1186.568
857.623, 1240.817
858.895, 1025.071
860.168, 1339.330
861.441, 1153.604
862.713, 977.886
863.985, 1302.174
865.257, 1146.465
866.528, 1270.771
867.800, 1075.165
869.071, 1169.562
870.342, 1354.000
871.613, 1298.479
872.884, 1252.963
874.154, 1717.482
875.425, 1542.012
876.695, 2066.546
877.965, 1741.133
879.234, 1995.729
880.504, 2480.361
881.773, 2305.016
883.042, 2909.677
884.311, 2864.396
885.580, 3429.123
886.848, 3933.859
888.117, 4258.637
889.385, 5213.426
890.653, 6038.281
891.920, 7003.149
893.188, 8538.029
894.455, 9212.920
895.722, 10697.824
896.989, 11772.745
898.256, 12637.683
899.523, 13442.637
900.789, 13267.623
902.055, 13342.620
903.321, 12587.628
904.587, 12122.654
905.852, 11707.698
907.118, 10632.757
908.383, 10127.831
909.648, 9682.923
910.913, 8508.031
912.177, 7853.151
913.442, 7118.289
914.706, 6053.443
915.970, 5658.612
917.233, 4563.799
918.497, 4189.003
919.760, 4084.223
921.024, 3649.459
922.287, 3984.711
923.550, 3739.979
924.812, 4175.266
926.075, 4450.566
927.337, 4765.885
928.599, 5271.219
929.861, 5496.568
931.122, 5441.936
932.384, 5327.316
933.645, 4731.977
934.906, 4766.768
936.167, 4099.674
937.428, 3807.361
938.688, 3865.432
939.948, 3531.167
941.208, 3857.914
942.468, 3770.920
943.728, 3888.660
944.987, 4590.457
946.247, 4823.201
947.506, 5860.732
948.765, 6516.145
950.023, 7064.493
951.282, 7637.570
952.540, 8106.592
953.798, 8287.316
955.056, 8580.222
956.314, 8175.332
957.572, 8881.164
958.829, 9187.032
960.086, 9822.924
961.343, 10888.871
962.600, 11354.843
963.856, 11470.852
965.113, 11646.890
966.369, 10702.956
967.625, 10419.049
968.881, 9825.163
970.136, 9351.302
971.392, 10187.461
972.647, 10343.642
973.902, 11459.840
975.157, 12515.486
976.411, 13811.517
977.666, 15679.107
978.920, 15882.648
980.174, 16078.703
981.428, 15411.592
982.682, 14507.622
983.935, 13792.271
985.188, 13267.108
986.441, 12663.517
987.694, 12930.949
988.947, 12537.404
990.199, 12663.878
991.452, 12350.917
992.704, 12057.438
993.956, 12055.741
995.207, 11502.521
996.459, 11719.152
997.710, 12254.685
998.961, 12161.391
1000.212, 13228.595
1001.463, 13498.864
1002.714, 14075.715
1003.964, 14541.188
1005.214, 13268.078
1006.464, 12685.215
1007.714, 11216.062
1008.964, 9783.058
1010.213, 8610.728
1011.462, 6918.328
1012.711, 6037.180
1013.960, 5304.969
1015.209, 4092.602
1016.457, 3891.770
1017.705, 3129.270
1018.954, 3016.541
1020.201, 2852.378
1021.449, 2277.719
1022.697, 2307.353
1023.944, 2009.934
1025.191, 1948.336
1026.438, 2016.023
1027.685, 1574.535
1028.931, 1572.163
1030.177, 1527.169
1031.423, 1497.910
1032.669, 1685.558
1033.915, 1504.715
1035.161, 1302.569
1036.406, 1630.813
1037.651, 1506.583
1038.896, 1854.405
1040.141, 1826.069
1041.386, 1914.613
1042.630, 2072.794
1043.874, 1841.696
1045.118, 1950.421
1046.362, 1919.476
1047.606, 1829.518
1048.849, 2058.271
1050.092, 1840.914
1051.336, 2119.236
1052.578, 2447.493
1053.821, 2187.160
1055.064, 2546.160
1056.306, 2764.498
1057.548, 2954.654
1058.790, 3023.078
1060.032, 2941.937
1061.273, 3210.689
1062.515, 3109.230
1063.756, 2578.483
1064.997, 2727.204
1066.237, 2125.858
1067.478, 1625.104
1068.718, 1843.828
1069.959, 1372.793
1071.199, 1611.388
1072.438, 1479.937
1073.678, 1238.894
1074.918, 1837.382
1076.157, 1745.893
1077.396, 1954.716
1078.635, 2353.240
1079.873, 2422.405
1081.112, 2800.595
1082.350, 2938.725
1083.588, 2727.292
1084.826, 2995.329
1086.064, 2323.268
1087.301, 2091.117
1088.539, 2069.004
1089.776, 1376.883
1091.013, 1524.617
1092.250, 1292.432
1093.486, 1300.673
1094.723, 1358.551
1095.959, 1176.444
1097.195, 1265.620
1098.431, 1713.609
1099.666, 1531.577
1100.902, 1939.736
1102.137, 2197.784
1103.372, 2325.811
1104.607, 2713.834
1105.842, 2551.803
1107.076, 2760.135
1108.311, 2517.987
1109.545, 2065.771
1110.779, 2173.480
1112.012, 1701.124
1113.246, 1608.714
1114.479, 1596.252
1115.712, 1053.742
1116.945, 1111.178
1118.178, 1028.570
1119.411, 965.879
1120.643, 1173.133
1121.875, 920.340
1123.108, 937.568
1124.339, 754.670
1125.571, 381.730
1126.802, 428.791
1128.034, 555.873
1129.265, 212.920
1130.496, 540.152
1131.727, 97.164
1132.957, 154.172
1134.187, 291.184
1135.418, 31.828
1136.648, 146.842
1137.877, 183.871
1139.107, 10.744
1140.336, 360.521
1141.566, 48.162
1142.795, 53.188
1144.023, 174.566
1145.252, 164.109
1146.480, 197.205
1147.709, 8.518
1148.937, 230.168
1150.165, 121.197
1151.392, 147.391
1152.620, 153.965
1153.847, 95.250
1155.074, 223.529
1156.301, 247.676
1157.528, 8.875
1158.755, 40.043
1159.981, 18.811
1161.207, 22.273
1162.433, 73.363
1163.659, 15.611
1164.885, 304.615
1166.110, 226.412
1167.336, 112.541
1168.561, 101.492
1169.786, 99.572
1171.010, 79.338
1172.235, 31.777
1173.459, 182.922
1174.683, 135.900
1175.907, 225.309
1177.131, 73.451
1178.355, 2.176
1179.578, 269.137
1180.801, 129.510
1182.024, 241.887
1183.247, 163.324
1184.470, 65.188
1185.692, 316.355
1186.915, 152.035
1188.137, 149.646
1189.359, 251.400
1190.580, 123.227
1191.802, 155.121
1193.023, 126.576
1194.244, 74.074
1195.465, 191.248
1196.686, 23.453
1197.907, 325.748
1199.127, 358.143
1200.347, 130.648
1201.567, 213.268
1202.787, 496.010
1204.007, 128.887
1205.226, 401.904
1206.446, 315.070
1207.665, 358.396
1208.884, 521.885
1210.102, 275.547
1211.321, 417.391
1212.539, 520.262
1213.758, 320.764
1214.976, 534.441
1216.193, 389.793
1217.411, 553.570
1218.628, 637.893
1219.846, 350.400
1221.063, 721.777
1222.280, 581.445
1223.496, 358.092
1224.713, 674.457
1225.929, 216.633
1227.145, 456.082
1228.361, 697.062
1229.577, 263.541
1230.793, 513.131
1232.008, 582.650
1233.223, 448.014
1234.438, 632.807
1235.653, 375.492
1236.868, 297.041
1238.082, 687.086
1239.297, 164.660
1240.511, 368.504
1241.725, 504.420
1242.938, 29.770
1244.152, 476.637
1245.365, 358.428
1246.578, 183.049
1247.791, 526.270
1249.004, 280.375
1250.217, 451.203
1251.429, 522.771
1252.642, 93.539
1253.854, 565.541
1255.066, 214.754
1256.277, 232.547
1257.489, 752.277
1258.700, 184.678
1259.911, 457.904
1261.122, 592.150
1262.333, 304.348
1263.544, 348.994
1264.754, 494.729
1265.964, 237.525
1267.174, 491.555
1268.384, 115.809
1269.594, 346.385
1270.803, 631.432
1272.013, 297.312
1273.222, 513.555
1274.431, 500.264
1275.640, 88.600
1276.848, 716.736
1278.057, 147.961
1279.265, 171.008
1280.473, 830.027
1281.681, 3.170
1282.888, 397.461
1284.096, 0.000
##END=



