##NAMES=Axinite-(Fe)
##RRUFFID=R060558
##IDEAL CHEMISTRY=Ca_4_Fe^2+^_2_Al_4_[B_2_Si_8_O_30_](OH)_2_
##LOCALITY=unknown
##OWNER=RRUFF
##SOURCE=Gemological Institute of America
##DESCRIPTION=Brown flattened crystal
##STATUS=The identification of this mineral has been confirmed by X-ray diffraction and chemical analysis
##URL=rruff.info/R060558
##MEASURED CHEMISTRY=Ca_2.00_(Fe^2+^_0.60_Mg_0.35_Mn_0.05_)_Î£=1_Al_2.00_BSi_4.00_O_15_(OH) ; B not measured
##PIN_ID=M00869
##ORIENTATION=Laser parallel to (0 1 1). Fiducial mark perpendicular to laser is parallel to a [1 0 0]
132.7000, 0.0000000E+00
133.9330, 64.45044
135.1660, 4.214355
136.3990, 47.96765
137.6310, 134.8092
138.8640, 265.7148
140.0960, 422.7479
141.3280, 515.3334
142.5600, 582.8518
143.7910, 625.8259
145.0230, 559.9092
146.2540, 541.3582
147.4850, 559.2168
148.7160, 488.9133
149.9470, 532.1877
151.1780, 590.8679
152.4080, 765.8374
153.6380, 820.0149
154.8690, 900.3445
156.0980, 863.7869
157.3280, 810.3186
158.5580, 812.5181
159.7870, 795.1719
161.0170, 627.8103
162.2460, 554.9868
163.4750, 505.7700
164.7030, 488.2222
165.9320, 463.3870
167.1600, 457.3020
168.3890, 559.9985
169.6170, 634.5046
170.8450, 804.8411
172.0730, 946.2219
173.3000, 943.0278
174.5280, 908.3879
175.7550, 875.8735
176.9820, 686.6313
178.2090, 510.3145
179.4350, 433.9314
180.6620, 246.4929
181.8880, 202.0076
183.1150, 113.7317
184.3410, 58.62061
185.5670, 46.12610
186.7920, 5.974365
188.0180, 26.65417
189.2430, 60.89868
190.4690, 133.2100
191.6940, 171.5853
192.9180, 305.0280
194.1430, 539.6057
195.3680, 717.2811
196.5920, 794.9967
197.8160, 706.7515
199.0400, 694.5476
200.2640, 648.3855
201.4880, 680.2642
202.7110, 733.1827
203.9350, 818.1406
205.1580, 1067.137
206.3810, 1226.169
207.6040, 1335.221
208.8270, 1499.301
210.0490, 1475.418
211.2710, 1419.575
212.4940, 1415.774
213.7160, 1333.014
214.9370, 1329.298
216.1590, 1261.621
217.3810, 1210.986
218.6020, 1011.389
219.8230, 892.8298
221.0440, 794.3059
222.2650, 656.8157
223.4860, 552.1329
224.7060, 441.3223
225.9260, 324.5306
227.1470, 235.2025
228.3670, 120.9121
229.5860, 39.64697
230.8060, 4.406494
232.0260, 79.81299
233.2450, 23.02222
234.4640, 105.2244
235.6830, 78.41406
236.9020, 93.59155
238.1200, 108.7566
239.3390, 76.25195
240.5570, 31.04858
241.7750, 23.17578
242.9930, 12.29004
244.2110, 21.60864
245.4290, 107.5200
246.6460, 122.4448
247.8630, 189.3823
249.0810, 222.3328
250.2980, 282.2964
251.5140, 432.2722
252.7310, 504.6467
253.9470, 593.3574
255.1640, 699.9243
256.3800, 733.6663
257.5960, 809.5198
258.8120, 862.3308
260.0270, 929.0205
261.2430, 948.9446
262.4580, 1078.888
263.6730, 1038.831
264.8880, 1117.831
266.1030, 1303.856
267.3170, 1499.894
268.5320, 1662.943
269.7460, 1816.006
270.9600, 1974.080
272.1740, 1960.171
273.3880, 2126.292
274.6010, 2008.431
275.8150, 1975.583
277.0280, 1872.744
278.2410, 1723.916
279.4540, 1494.960
280.6670, 1262.842
281.8790, 1119.563
283.0920, 951.7534
284.3040, 874.0493
285.5160, 710.4309
286.7280, 635.8828
287.9400, 648.3921
289.1510, 606.9492
290.3630, 681.5469
291.5740, 746.1802
292.7850, 774.8416
293.9960, 926.5244
295.2070, 1036.225
296.4170, 1219.939
297.6280, 1412.667
298.8380, 1525.405
300.0480, 1609.155
301.2580, 1835.912
302.4680, 1844.678
303.6770, 1899.453
304.8870, 1986.228
306.0960, 2118.976
307.3050, 2099.445
308.5140, 2103.881
309.7230, 2025.163
310.9310, 1915.879
312.1400, 1733.591
313.3480, 1452.300
314.5560, 1286.005
315.7640, 1135.710
316.9720, 933.4141
318.1790, 916.1177
319.3870, 804.8564
320.5940, 838.5605
321.8010, 733.9587
323.0080, 752.6655
324.2150, 604.3738
325.4210, 502.0837
326.6280, 376.7959
327.8340, 452.5100
329.0400, 392.1487
330.2460, 353.6572
331.4510, 352.0293
332.6570, 328.9180
333.8620, 347.0696
335.0680, 353.3804
336.2730, 376.7031
337.4780, 441.0371
338.6820, 464.3826
339.8870, 631.7383
341.0910, 683.1042
342.2950, 837.4802
343.5000, 1015.866
344.7030, 1233.261
345.9070, 1435.665
347.1110, 1580.171
348.3140, 1817.501
349.5170, 1860.932
350.7200, 2017.372
351.9230, 2148.830
353.1260, 2318.298
354.3290, 2334.774
355.5310, 2245.260
356.7330, 2016.754
357.9350, 1690.256
359.1370, 1368.766
360.3390, 1002.282
361.5400, 762.8062
362.7420, 530.3369
363.9430, 363.8740
365.1440, 307.4177
366.3450, 152.9678
367.5460, 95.52393
368.7460, 72.08618
369.9470, 6.345459
371.1470, 22.22681
372.3470, 0.1933590
373.5470, 38.60938
374.7460, 10.02563
375.9460, 5.576416
377.1450, 30.58911
378.3450, 57.81177
379.5440, 48.34546
380.7430, 100.0493
381.9410, 47.35156
383.1400, 202.7415
384.3380, 321.8301
385.5370, 408.9644
386.7350, 579.8794
387.9320, 749.0171
389.1300, 977.1616
390.3280, 1226.856
391.5250, 1314.575
392.7220, 1333.160
393.9190, 1354.716
395.1160, 1220.420
396.3130, 1072.141
397.5100, 904.0437
398.7060, 696.5244
399.9020, 506.2122
401.0980, 467.8945
402.2940, 410.5815
403.4900, 324.2729
404.6860, 263.9690
405.8810, 265.5254
407.0760, 286.3157
408.2710, 325.0820
409.4660, 439.7776
410.6610, 552.0078
411.8550, 692.1414
413.0500, 901.9067
414.2440, 1155.633
415.4380, 1403.381
416.6320, 1786.119
417.8260, 2311.854
419.0190, 2832.592
420.2130, 3062.333
421.4060, 2970.077
422.5990, 2859.824
423.7920, 2751.575
424.9850, 2621.332
426.1770, 2709.094
427.3700, 2749.858
428.5620, 2853.626
429.7540, 2741.395
430.9460, 2656.167
432.1380, 2310.940
433.3290, 2044.714
434.5210, 1745.490
435.7120, 1399.267
436.9030, 1155.044
438.0940, 991.8213
439.2850, 899.5991
440.4750, 878.3774
441.6660, 907.1562
442.8560, 1111.935
444.0460, 1259.714
445.2360, 1527.493
446.4260, 1710.271
447.6160, 1785.050
448.8050, 1504.828
449.9940, 1236.606
451.1830, 956.3848
452.3720, 720.1631
453.5610, 404.9412
454.7500, 217.7190
455.9380, 197.4971
457.1260, 109.2751
458.3150, 116.0527
459.5020, 65.83032
460.6900, 31.60767
461.8780, 50.61523
463.0650, 54.13452
464.2530, 13.11597
465.4400, 48.62549
466.6270, 24.36670
467.8130, 39.10742
469.0000, 23.84790
470.1870, 135.5879
471.3730, 156.3271
472.5590, 249.0664
473.7450, 304.8059
474.9310, 327.5461
476.1160, 425.2908
477.3020, 515.0366
478.4870, 587.7837
479.6720, 757.5317
480.8570, 932.8245
482.0420, 1106.031
483.2270, 1419.781
484.4110, 1677.532
485.5960, 2031.284
486.7800, 2264.036
487.9640, 2168.789
489.1480, 1997.542
490.3310, 1542.296
491.5150, 1204.050
492.6980, 868.8372
493.8810, 653.7424
495.0640, 428.6689
496.2470, 285.7673
497.4300, 245.6746
498.6120, 241.4275
499.7950, 215.3027
500.9770, 162.0549
502.1590, 98.80640
503.3410, 221.5574
504.5220, 107.3074
505.7040, 190.0569
506.8850, 275.8054
508.0660, 167.5530
509.2470, 208.2998
510.4280, 215.0454
511.6090, 251.7920
512.7890, 232.3276
513.9700, 161.4624
515.1500, 185.1409
516.3300, 93.65991
517.5100, 94.67725
518.6900, 93.96240
519.8690, 12.94043
521.0490, 16.61548
522.2280, 7.626465
523.4070, 47.76245
524.5860, 47.89795
525.7640, 26.01562
526.9430, 4.879395
528.1210, 97.20898
529.3000, 59.32739
530.4780, 50.46777
531.6560, 16.35864
532.8330, 12.18237
534.0110, 8.996826
535.1880, 40.18774
536.3650, 26.40674
537.5430, 17.35254
538.7190, 29.10913
539.8960, 33.21191
541.0730, 24.61328
542.2490, 34.36108
543.4250, 42.10571
544.6020, 57.84766
545.7780, 80.58643
546.9530, 47.32837
548.1290, 36.06860
549.3040, 44.80566
550.4800, 8.454346
551.6550, 0.7192380
552.8300, 14.98413
554.0040, 18.74536
555.1790, 34.47852
556.3540, 25.22192
557.5280, 28.96143
558.7020, 53.70532
559.8760, 146.4543
561.0500, 181.2019
562.2230, 219.9531
563.3970, 241.7046
564.5700, 298.4524
565.7430, 347.1987
566.9160, 335.9409
568.0890, 340.6799
569.2620, 426.4146
570.4340, 479.1448
571.6070, 554.8711
572.7790, 612.0176
573.9510, 643.3098
575.1230, 720.0227
576.2940, 714.7310
577.4660, 758.4346
578.6370, 756.1338
579.8080, 681.8284
580.9790, 753.5181
582.1500, 743.2034
583.3210, 791.8835
584.4910, 848.5588
585.6620, 969.2295
586.8320, 1043.895
588.0020, 1198.556
589.1720, 1429.211
590.3410, 1480.862
591.5110, 1554.508
592.6800, 1474.148
593.8500, 1403.783
595.0190, 1172.413
596.1880, 955.0381
597.3560, 708.6580
598.5250, 606.2722
599.6930, 451.8813
600.8620, 373.4849
602.0300, 325.0830
603.1970, 308.6406
604.3650, 288.2278
605.5330, 255.1172
606.7000, 313.6938
607.8680, 286.2651
609.0350, 336.8311
610.2020, 392.3916
611.3680, 494.9465
612.5350, 498.4958
613.7010, 534.0400
614.8680, 598.5786
616.0340, 634.1111
617.2000, 660.6382
618.3660, 656.1594
619.5310, 586.6750
620.6970, 633.1848
621.8620, 554.6890
623.0270, 566.1870
624.1920, 435.6792
625.3570, 412.1655
626.5220, 253.6458
627.6860, 192.1201
628.8500, 149.8303
630.0140, 78.01929
631.1780, 67.50635
632.3420, 39.95630
633.5060, 19.60034
634.6700, 21.81738
635.8330, 13.22705
636.9960, 23.62720
638.1590, 74.01953
639.3220, 26.40527
640.4850, 123.7837
641.6470, 171.1555
642.8100, 199.5212
643.9720, 170.8801
645.1340, 251.2329
646.2960, 191.5791
647.4570, 189.9187
648.6190, 172.2517
649.7800, 142.5854
650.9420, 55.26074
652.1030, 29.57422
653.2640, 14.57349
654.4240, 56.98340
655.5850, 2.226318
656.7450, 42.48804
657.9060, 12.70850
659.0660, 10.46167
660.2260, 4.486084
661.3850, 2.473633
662.5450, 71.04175
663.7040, 69.53198
664.8640, 72.10327
666.0230, 193.3054
667.1820, 206.0942
668.3410, 266.8665
669.4990, 379.8359
670.6580, 479.4910
671.8160, 596.6011
672.9740, 793.6741
674.1320, 979.8994
675.2900, 1172.127
676.4480, 1258.202
677.6050, 1360.258
678.7630, 1410.331
679.9200, 1239.396
681.0770, 1123.453
682.2340, 976.5020
683.3900, 794.5435
684.5470, 648.5767
685.7030, 555.8328
686.8590, 425.0625
688.0150, 405.0720
689.1710, 278.3542
690.3270, 271.0554
691.4830, 271.6230
692.6380, 277.5640
693.7930, 299.0652
694.9480, 332.1211
696.1030, 351.0537
697.2580, 418.8022
698.4130, 437.5271
699.5670, 584.8105
700.7210, 631.4148
701.8750, 785.0491
703.0290, 984.9490
704.1830, 1269.307
705.3370, 1503.189
706.4900, 1883.135
707.6430, 2317.999
708.7970, 2847.854
709.9490, 3380.700
711.1020, 4099.538
712.2550, 4857.367
713.4070, 5440.187
714.5600, 5940.998
715.7120, 6074.802
716.8640, 5943.595
718.0160, 5298.379
719.1670, 4622.156
720.3190, 3795.924
721.4700, 3132.684
722.6210, 2511.434
723.7720, 2106.176
724.9230, 1597.910
726.0740, 1349.635
727.2250, 1058.352
728.3750, 921.0601
729.5250, 740.7598
730.6750, 624.4512
731.8250, 497.1343
732.9750, 435.8093
734.1240, 368.4758
735.2740, 309.1343
736.4230, 255.7842
737.5720, 233.4263
738.7210, 227.0603
739.8700, 161.6860
741.0190, 164.3040
742.1670, 133.5703
743.3150, 108.5430
744.4630, 88.15479
745.6110, 93.75879
746.7590, 65.35522
747.9070, 87.94385
749.0540, 82.52466
750.2020, 65.09839
751.3490, 110.6643
752.4960, 101.2227
753.6430, 68.77393
754.7890, 127.3176
755.9360, 122.8540
757.0820, 167.3831
758.2280, 203.9053
759.3740, 232.5332
760.5200, 274.7590
761.6660, 322.4285
762.8120, 353.9224
763.9570, 419.4089
765.1020, 470.8887
766.2470, 566.3618
767.3920, 632.8276
768.5370, 583.2869
769.6810, 568.7397
770.8260, 578.1519
771.9700, 533.4404
773.1140, 536.7007
774.2580, 438.7827
775.4020, 411.0493
776.5460, 317.4631
777.6890, 218.7485
778.8320, 253.1506
779.9750, 147.5464
781.1180, 131.9360
782.2610, 134.3198
783.4040, 133.6978
784.5460, 60.07007
785.6890, 67.35059
786.8310, 35.79761
787.9730, 10.15234
789.1150, 48.49829
790.2560, 13.26953
791.3980, 4.332764
792.5390, 2.029297
793.6810, 42.31885
794.8220, 20.14746
795.9630, 61.40576
797.1030, 34.89722
798.2440, 47.66821
799.3840, 56.29590
800.5240, 16.14185
801.6650, 65.99194
802.8040, 38.87207
803.9440, 35.77368
805.0840, 72.70215
806.2230, 38.65063
807.3630, 40.38965
808.5020, 13.44189
809.6410, 59.49097
810.7790, 8.536865
811.9180, 38.58374
813.0570, 116.6404
814.1950, 72.70312
815.3330, 83.76318
816.4710, 134.8208
817.6090, 49.87549
818.7470, 59.92725
819.8840, 16.97681
821.0220, 24.02417
822.1590, 17.93091
823.2960, 1.900146
824.4330, 9.125000
825.5690, 19.85181
826.7060, 26.84277
827.8420, 33.56177
828.9790, 38.51172
830.1150, 27.90723
831.2510, 48.96265
832.3860, 3.953613
833.5220, 31.13159
834.6570, 31.23486
835.7930, 8.355713
836.9280, 30.48267
838.0630, 15.62622
839.1980, 39.22119
840.3320, 11.93188
841.4670, 54.90918
842.6010, 2.250732
843.7350, 101.5876
844.8690, 52.42578
846.0030, 134.2637
847.1370, 132.1016
848.2700, 152.9395
849.4040, 222.7773
850.5370, 195.6152
851.6700, 204.4536
852.8030, 276.2922
853.9360, 282.1311
855.0680, 292.9709
856.2000, 317.8110
857.3330, 309.9099
858.4650, 313.4937
859.5970, 309.3364
860.7290, 314.1799
861.8600, 328.0247
862.9920, 325.8706
864.1230, 329.7178
865.2540, 334.5664
866.3850, 359.4165
867.5160, 323.2681
868.6460, 348.1216
869.7770, 354.9780
870.9070, 298.8364
872.0370, 307.6965
873.1670, 296.5591
874.2970, 271.4258
875.4270, 340.2949
876.5570, 363.1663
877.6860, 350.0549
878.8150, 334.9565
879.9440, 324.8608
881.0730, 361.5720
882.2020, 453.6777
883.3300, 443.5928
884.4590, 531.5103
885.5870, 561.4399
886.7150, 593.3728
887.8430, 740.3130
888.9710, 765.2583
890.0990, 802.2075
891.2260, 1027.160
892.3530, 1179.115
893.4810, 1293.074
894.6080, 1558.037
895.7340, 1719.003
896.8610, 1905.973
897.9880, 2059.947
899.1140, 2359.925
900.2400, 2658.907
901.3660, 2889.893
902.4920, 2998.883
903.6180, 3269.877
904.7430, 3508.876
905.8690, 3624.879
906.9940, 3547.887
908.1190, 3634.909
909.2440, 3583.936
910.3690, 3413.970
911.4930, 3356.009
912.6180, 3032.054
913.7420, 2888.104
914.8660, 2434.159
915.9900, 2157.218
917.1140, 1925.283
918.2380, 1519.354
919.3610, 1420.429
920.4850, 1176.518
921.6080, 1032.612
922.7310, 983.7188
923.8540, 924.4971
924.9760, 838.8691
926.0990, 732.1040
927.2210, 710.1650
928.3440, 622.3931
929.4660, 554.6003
930.5880, 632.9031
931.7090, 518.6462
932.8310, 562.0879
933.9520, 541.3823
935.0740, 541.6016
936.1950, 560.3804
937.3160, 543.0603
938.4360, 450.4729
939.5570, 536.1094
940.6780, 500.4585
941.7980, 577.9768
942.9180, 603.3540
944.0380, 554.7302
945.1580, 683.1245
946.2780, 749.5049
947.3970, 835.9160
948.5170, 939.1274
949.6360, 1035.977
950.7550, 1132.212
951.8740, 1246.665
952.9930, 1353.135
954.1110, 1433.617
955.2300, 1580.107
956.3480, 1736.612
957.4660, 1822.909
958.5840, 2027.240
959.7020, 2231.260
960.8190, 2508.093
961.9370, 2730.980
963.0540, 2952.486
964.1710, 3252.716
965.2880, 3374.065
966.4050, 3644.290
967.5220, 3512.927
968.6380, 3510.764
969.7550, 3275.632
970.8710, 3063.945
971.9870, 3076.938
973.1030, 3134.902
974.2190, 3092.602
975.3340, 3264.846
976.4500, 3530.579
977.5650, 3841.252
978.6800, 4157.009
979.7950, 4437.777
980.9100, 4695.555
982.0250, 4765.343
983.1390, 4686.144
984.2530, 4525.955
985.3680, 4396.776
986.4820, 4097.608
987.5950, 4069.451
988.7090, 3777.304
989.8230, 3918.168
990.9360, 3674.044
992.0490, 3693.931
993.1620, 3884.830
994.2750, 3807.740
995.3880, 3950.662
996.5010, 3969.593
997.6130, 4061.536
998.7250, 4168.489
999.8370, 4259.454
1000.949, 4421.430
1002.061, 4445.417
1003.173, 4571.677
1004.284, 4486.687
1005.396, 4425.705
1006.507, 4218.735
1007.618, 4059.189
1008.729, 3590.241
1009.839, 3256.304
1010.950, 2774.756
1012.060, 2432.176
1013.171, 2125.271
1014.281, 1810.429
1015.391, 1594.544
1016.500, 1380.397
1017.610, 1097.193
1018.719, 1042.384
1019.829, 880.5403
1020.938, 702.5178
1022.047, 675.1267
1023.156, 651.3140
1024.264, 601.5110
1025.373, 603.7188
1026.481, 568.9363
1027.589, 551.1636
1028.697, 594.4014
1029.805, 595.6489
1030.913, 593.9067
1032.020, 529.1748
1033.128, 489.4524
1034.235, 462.7400
1035.342, 458.0374
1036.449, 423.3450
1037.556, 346.6621
1038.663, 355.9888
1039.769, 243.3254
1040.875, 288.6716
1041.981, 250.0278
1043.087, 236.3933
1044.193, 224.7683
1045.299, 206.1531
1046.404, 243.5474
1047.510, 256.9509
1048.615, 291.3643
1049.720, 285.7869
1050.825, 232.2188
1051.930, 218.6602
1053.034, 291.7473
1054.139, 222.2295
1055.243, 222.8330
1056.347, 321.5369
1057.451, 352.8330
1058.555, 360.6072
1059.658, 375.4941
1060.762, 377.0215
1061.865, 411.3159
1062.968, 391.8433
1064.071, 390.4194
1065.174, 363.0117
1066.277, 344.8140
1067.380, 281.4336
1068.482, 183.9038
1069.584, 232.8069
1070.686, 218.7698
1071.788, 139.4756
1072.890, 151.2004
1073.992, 156.9551
1075.093, 158.7290
1076.194, 175.5093
1077.295, 194.2964
1078.396, 175.0898
1079.497, 210.8899
1080.598, 201.6958
1081.698, 261.2559
1082.799, 214.8618
1083.899, 221.6863
1084.999, 218.6387
1086.099, 255.7422
1087.199, 230.5842
1088.298, 238.8606
1089.398, 178.8792
1090.497, 151.1323
1091.596, 173.6243
1092.695, 162.7896
1093.794, 164.7947
1094.892, 74.88623
1095.991, 115.7993
1097.089, 102.7280
1098.187, 101.6694
1099.285, 113.6863
1100.383, 113.7131
1101.481, 77.88452
1102.579, 197.9478
1103.676, 128.9446
1104.773, 121.9531
1105.870, 161.9695
1106.967, 118.9897
1108.064, 167.5693
1109.161, 191.1394
1110.257, 187.2471
1111.353, 155.2886
1112.449, 134.3328
1113.545, 182.3804
1114.641, 114.4307
1115.737, 147.4844
1116.832, 63.55957
1117.928, 139.6184
1119.023, 132.6804
1120.118, 56.74512
1121.213, 80.81250
1122.308, 14.88232
1123.402, 43.29419
1124.497, 134.4060
1125.591, 79.59619
1126.685, 65.73633
1127.779, 57.83276
1128.873, 31.92090
1129.967, 65.01099
1131.060, 46.10303
1132.153, 46.19727
1133.247, 33.29297
1134.340, 12.54468
1135.433, 40.55225
1136.525, 5.650146
1137.618, 40.74976
1138.710, 16.14941
1139.802, 3.947998
1140.895, 32.04785
1141.987, 66.85278
1143.078, 49.78247
1144.170, 28.26758
1145.261, 2.681885
1146.353, 47.36890
1147.444, 13.57935
1148.535, 6.468262
1149.626, 42.48364
1150.716, 31.54590
1151.807, 21.42432
1152.897, 13.40259
1153.988, 20.66504
1155.078, 33.68188
1156.168, 57.22144
1157.257, 54.76416
1158.347, 79.78076
1159.436, 104.8647
1160.526, 65.88086
1161.615, 90.96167
1162.704, 45.97656
1163.793, 99.99072
1164.881, 39.00439
1165.970, 59.01709
1167.058, 66.02905
1168.147, 121.0400
1169.235, 39.05029
1170.323, 93.05884
1171.410, 105.0664
1172.498, 188.0728
1173.585, 147.0781
1174.673, 82.08179
1175.760, 61.08423
1176.847, 36.08472
1177.934, 22.81445
1179.020, 59.08057
1180.107, 32.07593
1181.193, 49.06934
1182.279, 71.06055
1183.365, 22.94995
1184.451, 5.022217
1185.537, 46.00903
1186.623, 47.06958
1187.708, 8.161133
1188.793, 15.26318
1189.878, 32.36621
1190.963, 26.49316
1192.048, 53.64990
1193.133, 72.82886
1194.217, 15.98145
1195.302, 54.80664
1196.386, 27.42432
1197.470, 78.32153
1198.554, 36.93579
1199.638, 4.864014
1200.721, 4.572021
1201.805, 97.27246
1202.888, 50.96948
1203.971, 45.89746
1205.054, 69.58618
1206.137, 56.27075
1207.219, 35.95142
1208.302, 79.62769
1209.384, 39.29932
1210.466, 44.96631
1211.548, 0.3706050
1212.630, 0.7197270
1213.712, 52.91870
1214.794, 21.44751
1215.875, 10.16235
1216.956, 54.76514
1218.037, 9.637451
1219.118, 37.05762
1220.199, 8.510254
1221.280, 11.98047
1222.360, 6.470703
1223.441, 18.02222
1224.521, 4.491211
1225.601, 58.97876
1226.681, 52.44312
1227.760, 47.01660
1228.840, 27.47070
1229.919, 27.31030
1230.999, 17.75928
1232.078, 25.77930
1233.157, 58.63501
1234.236, 59.06787
1235.314, 51.49487
1236.393, 85.91626
1237.471, 23.66821
1238.549, 10.50000
1239.627, 30.87598
1240.705, 83.29443
1241.783, 56.65747
1242.860, 141.0151
1243.938, 88.36694
1245.015, 75.71338
1246.092, 46.05859
1247.169, 107.3972
1248.246, 74.73022
1249.323, 60.05664
1250.399, 85.43726
1251.475, 62.75415
1252.552, 19.50488
1253.628, 45.80615
1254.703, 31.10034
1255.779, 40.96729
1256.855, 53.36108
1257.930, 67.62305
1259.005, 82.88916
1260.080, 83.14844
1261.155, 114.4995
1262.230, 81.75073
1263.305, 43.20679
1264.379, 80.18164
1265.454, 86.41211
1266.528, 119.6357
1267.602, 77.85278
1268.676, 146.6494
1269.750, 59.85278
1270.823, 75.04932
1271.897, 61.85986
1272.970, 72.73584
1274.043, 79.95166
1275.116, 73.03247
1276.189, 67.29370
1277.261, 73.06299
1278.334, 78.21289
1279.406, 95.31226
1280.478, 89.44995
1281.550, 73.77051
1282.622, 43.46362
1283.694, 86.58105
1284.766, 44.69214
1285.837, 109.7981
1286.908, 105.8972
1287.979, 40.98999
1289.050, 88.07520
1290.121, 42.15356
1291.192, 78.22437
1292.262, 139.2883
1293.333, 175.3464
1294.403, 138.3982
1295.473, 130.4441
1296.543, 147.4829
1297.613, 107.5146
1298.682, 157.5393
1299.752, 134.5571
1300.821, 80.56714
1301.890, 115.5701
1302.959, 156.5657
1304.028, 121.5540
1305.096, 148.5344
1306.165, 150.5073
1307.233, 134.4727
1308.301, 121.4304
1309.370, 116.3801
1310.437, 112.9082
1311.505, 146.2568
1312.573, 108.5483
1313.640, 126.4441
1314.708, 110.2214
1315.775, 90.90088
1316.842, 96.99268
1317.908, 51.60913
1318.975, 65.05566
1320.042, 91.00391
1321.108, 70.12524
1322.174, 37.01611
1323.240, 32.86865
1324.306, 109.7273
1325.372, 47.39062
1326.438, 75.23877
1327.503, 21.25659
1328.568, 79.85083
1329.634, 96.40747
1330.699, 76.23608
1331.763, 6.060059
1332.828, 83.87891
1333.893, 55.69336
1334.957, 90.50293
1336.021, 73.30615
1337.085, 81.10498
1338.149, 68.89966
1339.213, 48.69019
1340.277, 86.72388
1341.340, 63.71436
1342.404, 101.4878
1343.467, 50.13525
1344.530, 50.63330
1345.593, 130.3948
1346.655, 110.7229
1347.718, 87.30762
1348.780, 58.66504
1349.843, 62.78271
1350.905, 67.22827
1351.967, 70.84106
1353.028, 75.37451
1354.090, 36.09717
1355.152, 5.816162
1356.213, 84.60913
1357.274, 3.051758
1358.335, 54.59204
1359.396, 71.10059
1360.457, 95.72681
1361.517, 57.39258
1362.578, 78.08472
1363.638, 158.8723
1364.698, 98.55811
1365.758, 10.20557
1366.818, 39.93457
1367.878, 20.53784
1368.937, 35.25952
1369.997, 93.02979
1371.056, 100.8579
1372.115, 108.7615
1373.174, 118.7080
1374.232, 66.25464
1375.291, 79.03564
1376.350, 89.71191
1377.408, 19.36084
1378.466, 112.7644
1379.524, 4.559814
1380.582, 97.79321
1381.640, 87.39624
1382.697, 70.94189
1383.754, 6.482422
1384.812, 5.136475
1385.869, 39.76392
1386.926, 48.38916
1387.983, 11.01318
1389.039, 83.88794
1390.096, 0.4919430
1391.152, 44.06201
1392.208, 44.67969
1393.264, 80.29639
1394.320, 57.91187
1395.376, 73.52588
1396.431, 110.1423
1397.487, 37.75537
1398.542, 87.36816
1399.597, 28.97339
1400.652, 26.60620
1401.707, 21.20874
1402.762, 53.80542
1403.816, 58.39917
1404.871, 38.99316
1405.925, 59.58154
1406.979, 61.43408
1408.033, 61.03442
1409.086, 87.60449
1410.140, 54.10913
1411.194, 93.68774
1412.247, 37.69824
1413.300, 72.24268
1414.353, 87.79297
1415.406, 41.23535
1416.458, 101.7402
1417.511, 131.1738
1418.563, 77.66675
1419.616, 58.46680
1420.668, 47.06934
1421.720, 40.85815
1422.772, 47.98877
1423.823, 79.71167
1424.875, 70.15503
1425.926, 130.5911
1426.977, 132.9988
1428.028, 123.3979
1429.079, 115.7898
1430.130, 164.1560
1431.180, 128.4893
1432.231, 205.8086
1433.281, 109.1116
1434.331, 204.3997
1435.381, 171.6709
1436.431, 234.9302
1437.481, 217.2456
1438.530, 213.8350
1439.580, 175.6821
1440.629, 226.1919
1441.678, 233.7395
1442.727, 130.2930
1443.776, 154.8809
1444.824, 186.4324
1445.873, 161.0796
1446.921, 80.65454
1447.969, 167.3328
1449.017, 172.7539
1450.065, 142.4226
1451.113, 211.0867
1452.160, 193.7468
1453.208, 195.4067
1454.255, 186.0754
1455.302, 151.7639
1456.349, 198.4585
1457.396, 224.1975
1458.443, 285.9666
1459.489, 119.7500
1460.535, 82.40210
1461.582, 173.7146
1462.628, 235.4817
1463.674, 120.2451
1464.719, 122.0027
1465.765, 102.7859
1466.810, 96.50415
1467.856, 55.28442
1468.901, 85.06177
1469.946, 127.8252
1470.991, 164.5881
1472.035, 142.2659
1473.080, 67.42114
1474.124, 141.1746
1475.169, 81.97485
1476.213, 85.72021
1477.257, 87.31885
1478.300, 69.20337
1479.344, 69.47339
1480.388, 51.20337
1481.431, 22.93433
1482.474, 24.37769
1483.517, 103.1987
1484.560, 73.93115
1485.603, 87.66577
1486.645, 12.60156
1487.688, 92.13403
1488.730, 19.86914
1489.772, 53.60425
1490.814, 18.34497
1491.856, 44.09106
1492.898, 49.83691
1493.939, 32.45728
1494.981, 20.33838
1496.022, 10.10010
1497.063, 1.871338
1498.104, 14.64111
1499.145, 41.44702
1500.186, 16.25537
1501.226, 41.07910
1502.266, 103.9165
1503.307, 7.231689
1504.347, 40.62769
1505.387, 36.49438
1506.426, 62.36743
1507.466, 44.25024
1508.505, 55.12476
1509.545, 98.03320
1510.584, 87.93286
1511.623, 52.83569
1512.662, 124.7419
1513.700, 13.33691
1514.739, 119.5872
1515.777, 72.53833
1516.815, 79.49390
1517.854, 63.45483
1518.892, 73.43115
1519.929, 79.43457
1520.967, 55.46094
1522.004, 85.50903
1523.042, 65.98145
1524.079, 59.60889
1525.116, 49.11938
1526.153, 50.89722
1527.190, 58.43823
1528.226, 67.93213
1529.263, 104.6050
1530.299, 69.47461
1531.335, 2.914063
1532.371, 42.97607
1533.407, 52.47827
1534.443, 73.74951
1535.478, 42.95923
1536.514, 2.757080
1537.549, 93.57129
1538.584, 47.84497
1539.619, 131.6855
1540.654, 70.54053
1541.689, 77.28320
1542.723, 58.89038
1543.757, 1.651123
1544.792, 14.80151
1545.826, 0.3767090
1546.860, 50.84351
1547.893, 47.21069
1548.927, 119.3828
1549.960, 85.64746
1550.994, 107.6465
1552.027, 79.03271
1553.060, 124.1643
1554.093, 93.22266
1555.126, 101.3591
1556.158, 92.88452
1557.191, 96.99585
1558.223, 81.21362
1559.255, 48.00439
1560.287, 71.92310
1561.319, 21.23877
1562.350, 0.2858890
1563.382, 0.0000000E+00
##END=



