##NAMES=Axinite-(Fe)
##RRUFFID=R050026
##IDEAL CHEMISTRY=Ca_4_Fe^2+^_2_Al_4_[B_2_Si_8_O_30_](OH)_2_
##LOCALITY=Pouyva mine, Polar Urals, Western Siberian Region, Russia
##OWNER=RRUFF
##SOURCE=Rock Currier
##DESCRIPTION=Brown transparent flat crystal
##STATUS=The identification of this mineral has been confirmed by X-ray diffraction and chemical analysis
##URL=rruff.info/R050026
##MEASURED CHEMISTRY=Ca_2.00_(Fe^2+^_0.61_Mn_0.26_Mg_0.13_)Al_2.00_BSi_4_O_15_(OH)
##PIN_ID=L00137
##ORIENTATION=Laser parallel to (1 0 1). Fiducial mark perpendicular to laser is parallel to b* (0 1 0)
92.466, 0.000
93.868, 131.648
95.269, 56.991
96.670, 158.647
98.070, 292.550
99.471, 352.518
100.871, 331.136
102.271, 444.006
103.670, 636.261
105.070, 951.577
106.469, 1552.008
107.868, 1867.933
109.267, 2289.398
110.665, 1952.962
112.063, 1416.790
113.461, 972.605
114.859, 597.012
116.256, 339.421
117.653, 232.171
119.050, 95.237
120.447, 122.654
121.843, 156.553
123.240, 139.455
124.636, 101.437
126.031, 221.620
127.427, 208.978
128.822, 156.722
130.217, 41.860
131.612, 3.294
133.006, 2.604
134.400, 180.385
135.794, 504.127
137.188, 651.198
138.581, 759.548
139.975, 1023.083
141.368, 864.117
142.760, 773.616
144.153, 761.095
145.545, 916.600
146.937, 1085.286
148.329, 1227.016
149.720, 1224.178
151.112, 1144.683
152.503, 851.018
153.893, 566.189
155.284, 471.201
156.674, 282.058
158.064, 340.074
159.454, 266.390
160.843, 297.403
162.233, 384.415
163.622, 469.803
165.011, 744.498
166.399, 924.509
167.787, 1463.242
169.175, 1669.453
170.563, 1726.322
171.951, 1521.788
173.338, 1155.323
174.725, 1054.784
176.112, 712.265
177.499, 546.042
178.885, 336.098
180.271, 173.410
181.657, 50.950
183.043, 16.308
184.428, 68.388
185.813, 79.316
187.198, 134.119
188.583, 144.814
189.967, 71.427
191.351, 69.022
192.735, 11.512
194.119, 27.616
195.502, 30.455
196.885, 58.951
198.268, 44.420
199.651, 31.127
201.033, 174.655
202.415, 314.140
203.797, 522.577
205.179, 705.963
206.561, 1019.287
207.942, 1296.518
209.323, 1458.638
210.703, 1562.640
212.084, 1365.542
213.464, 1424.382
214.844, 1278.168
216.224, 1242.907
217.603, 1306.594
218.983, 1082.197
220.362, 918.654
221.741, 562.845
223.119, 298.683
224.497, 143.135
225.875, 21.749
227.253, 4.518
228.631, 38.759
230.008, 58.528
231.385, 90.907
232.762, 1.532
234.139, 21.077
235.515, 68.736
236.891, 235.620
238.267, 253.471
239.643, 427.865
241.018, 463.220
242.393, 486.483
243.768, 553.591
245.143, 529.483
246.517, 567.214
247.891, 409.855
249.265, 537.452
250.639, 566.375
252.012, 840.387
253.386, 1094.884
254.759, 1311.354
256.131, 1374.806
257.504, 1075.244
258.876, 960.927
260.248, 792.756
261.620, 789.541
262.991, 921.197
264.363, 980.675
265.734, 1255.944
267.104, 1329.982
268.475, 1641.768
269.845, 1830.291
271.215, 2228.558
272.585, 2607.537
273.955, 2653.233
275.324, 2781.184
276.693, 2782.763
278.062, 2591.523
279.431, 2334.963
280.799, 1959.198
282.167, 1746.200
283.535, 1520.952
284.903, 1628.122
286.270, 1520.051
287.638, 1548.790
289.005, 1527.135
290.371, 1405.956
291.738, 1536.914
293.104, 1338.463
294.470, 1454.872
295.836, 1402.311
297.201, 1247.033
298.567, 1293.001
299.932, 1046.056
301.296, 1119.956
302.661, 995.554
304.025, 1017.869
305.389, 1107.492
306.753, 993.199
308.117, 1053.616
309.480, 957.592
310.843, 1060.171
312.206, 1136.895
313.569, 1340.269
314.931, 1788.897
316.293, 2120.093
317.655, 2787.210
319.017, 2867.391
320.378, 2913.145
321.740, 2698.657
323.101, 2160.608
324.461, 2089.777
325.822, 1743.873
327.182, 1829.180
328.542, 1681.820
329.902, 1642.525
331.261, 1632.900
332.621, 1477.311
333.980, 1650.952
335.339, 1692.565
336.697, 1938.319
338.056, 2342.047
339.414, 2591.603
340.772, 3191.598
342.129, 3117.666
343.487, 3261.344
344.844, 2682.574
346.201, 2162.159
347.557, 1884.454
348.914, 1500.524
350.270, 1419.949
351.626, 1121.974
352.982, 995.363
354.337, 770.393
355.693, 528.664
357.048, 415.908
358.402, 210.852
359.757, 220.791
361.111, 91.079
362.465, 85.597
363.819, 58.507
365.173, 27.345
366.526, 41.269
367.879, 90.401
369.232, 144.313
370.585, 161.170
371.937, 215.857
373.290, 234.079
374.642, 216.775
375.993, 209.371
377.345, 182.975
378.696, 173.575
380.047, 253.012
381.398, 297.513
382.748, 498.668
384.099, 606.820
385.449, 807.340
386.799, 1001.417
388.148, 990.046
389.497, 1110.319
390.847, 941.958
392.196, 940.788
393.544, 792.396
394.893, 665.006
396.241, 595.263
397.589, 482.697
398.936, 517.321
400.284, 365.848
401.631, 375.530
402.978, 346.115
404.325, 266.849
405.672, 336.679
407.018, 230.792
408.364, 334.805
409.710, 370.980
411.055, 423.501
412.401, 649.560
413.746, 842.744
415.091, 1304.290
416.435, 1499.827
417.780, 1803.356
419.124, 1832.875
420.468, 1677.386
421.812, 1925.841
423.155, 1881.240
424.498, 1916.583
425.842, 1944.870
427.184, 1807.101
428.527, 1967.279
429.869, 1719.402
431.211, 1715.473
432.553, 1380.493
433.895, 1045.461
435.236, 912.382
436.577, 692.416
437.918, 744.802
439.259, 724.386
440.599, 888.123
441.940, 1143.816
443.280, 1278.468
444.619, 1247.836
445.959, 1221.564
447.298, 1035.889
448.637, 688.689
449.976, 454.316
451.315, 407.859
452.653, 266.250
453.991, 281.608
455.329, 169.934
456.667, 165.228
458.004, 141.494
459.341, 18.734
460.678, 62.946
462.015, 21.125
463.352, 24.267
464.688, 3.626
466.024, 17.448
467.360, 112.489
468.695, 121.519
470.031, 166.532
471.366, 176.565
472.701, 99.546
474.035, 162.587
475.370, 89.561
476.704, 181.531
478.038, 188.486
479.372, 308.458
480.705, 481.427
482.038, 609.402
483.371, 847.385
484.704, 831.366
486.037, 749.373
487.369, 573.383
488.701, 315.396
490.033, 265.417
491.365, 101.428
492.696, 82.437
494.027, 18.430
495.358, 15.405
496.689, 5.638
498.019, 5.635
499.350, 8.564
500.680, 53.838
502.009, 105.885
503.339, 167.027
504.668, 124.245
505.997, 244.381
507.326, 243.551
508.655, 317.464
509.983, 372.419
511.311, 368.418
512.639, 385.127
513.967, 318.617
515.295, 318.791
516.622, 241.979
517.949, 130.896
519.276, 101.983
520.602, 73.178
521.929, 1.837
523.255, 2.450
524.581, 61.916
525.906, 6.344
527.232, 100.268
528.557, 9.530
529.882, 58.544
531.207, 55.517
532.531, 18.291
533.855, 56.998
535.179, 23.192
536.503, 13.349
537.827, 6.391
539.150, 37.391
540.473, 14.721
541.796, 90.235
543.119, 84.265
544.441, 72.285
545.764, 124.296
547.086, 143.306
548.407, 153.320
549.729, 86.349
551.050, 117.396
552.371, 138.472
553.692, 160.583
555.013, 277.736
556.333, 271.909
557.653, 443.096
558.973, 488.292
560.293, 478.488
561.612, 602.684
562.932, 441.872
564.251, 422.734
565.569, 502.892
566.888, 451.611
568.206, 621.770
569.524, 545.933
570.842, 768.092
572.160, 686.245
573.477, 730.391
574.795, 755.529
576.112, 593.658
577.428, 604.780
578.745, 411.892
580.061, 347.997
581.377, 347.093
582.693, 237.181
584.009, 304.262
585.324, 250.335
586.639, 282.401
587.954, 385.459
589.269, 230.511
590.583, 289.645
591.897, 103.684
593.212, 125.879
594.525, 48.904
595.839, 7.007
597.152, 14.864
598.465, 233.198
599.778, 103.697
601.091, 123.973
602.403, 30.726
603.716, 5.766
605.028, 39.817
606.339, 7.112
607.651, 39.033
608.962, 49.948
610.273, 155.858
611.584, 157.763
612.895, 295.664
614.205, 368.196
615.515, 370.715
616.825, 594.141
618.135, 539.060
619.444, 624.170
620.754, 631.224
622.063, 424.190
623.372, 421.239
624.680, 230.299
625.989, 176.591
627.297, 85.970
628.605, 62.741
629.912, 92.286
631.220, 58.446
632.527, 101.816
633.834, 114.001
635.141, 118.594
636.447, 256.083
637.754, 293.310
639.060, 395.198
640.366, 428.077
641.671, 510.408
642.977, 619.421
644.282, 498.805
645.587, 563.306
646.892, 438.863
648.196, 352.779
649.501, 295.197
650.805, 217.013
652.109, 157.808
653.412, 108.860
654.716, 88.738
656.019, 36.618
657.322, 15.646
658.625, 63.862
659.927, 38.299
661.230, 18.992
662.532, 38.506
663.834, 33.222
665.135, 120.942
666.437, 121.723
667.738, 168.419
669.039, 293.880
670.340, 308.591
671.640, 501.295
672.940, 622.419
674.241, 771.387
675.540, 972.933
676.840, 938.431
678.139, 1033.750
679.439, 910.832
680.738, 730.800
682.036, 635.666
683.335, 438.779
684.633, 398.653
685.931, 308.492
687.229, 244.520
688.527, 243.686
689.824, 211.287
691.121, 289.384
692.418, 214.551
693.715, 268.681
695.012, 340.785
696.308, 342.024
697.604, 491.170
698.900, 543.634
700.195, 637.073
701.491, 975.462
702.786, 1036.068
704.081, 1424.674
705.376, 1663.275
706.670, 2172.720
707.964, 2987.295
709.259, 3458.878
710.552, 4650.454
711.846, 5021.021
713.139, 5594.585
714.433, 5859.142
715.726, 4854.689
717.018, 4645.231
718.311, 3564.768
719.603, 2837.296
720.895, 2311.820
722.187, 1680.337
723.479, 1449.849
724.770, 1116.355
726.061, 884.854
727.352, 782.346
728.643, 587.833
729.934, 495.312
731.224, 376.785
732.514, 373.251
733.804, 350.712
735.094, 244.166
736.383, 248.613
737.672, 181.054
738.961, 164.490
740.250, 161.919
741.539, 74.342
742.827, 141.758
744.115, 121.169
745.403, 49.574
746.691, 127.972
747.978, 31.364
749.265, 72.748
750.552, 52.965
751.839, 36.778
753.126, 52.338
754.412, 37.697
755.698, 104.049
756.984, 123.396
758.270, 97.330
759.555, 132.154
760.840, 123.691
762.125, 149.709
763.410, 196.859
764.695, 193.053
765.979, 213.362
767.263, 180.665
768.547, 168.963
769.831, 159.257
771.114, 129.548
772.398, 163.836
773.681, 76.123
774.964, 34.408
776.246, 59.691
777.529, 15.972
778.811, 33.251
780.093, 35.472
781.375, 19.225
782.656, 20.002
783.937, 17.817
785.219, 33.617
786.499, 64.515
787.780, 50.389
789.060, 0.299
790.341, 112.223
791.621, 26.218
792.901, 53.239
794.180, 37.300
795.459, 11.393
796.739, 25.727
798.017, 12.683
799.296, 14.880
800.575, 49.097
801.853, 22.648
803.131, 37.613
804.409, 18.097
805.686, 34.803
806.964, 48.507
808.241, 107.210
809.518, 100.846
810.795, 147.266
812.071, 173.592
813.347, 128.128
814.623, 165.555
815.899, 85.901
817.175, 75.327
818.450, 39.730
819.726, 23.414
821.001, 19.804
822.275, 19.229
823.550, 6.572
824.824, 9.309
826.098, 3.712
827.372, 7.344
828.646, 24.031
829.920, 21.573
831.193, 67.175
832.466, 20.504
833.739, 46.138
835.011, 51.974
836.284, 21.582
837.556, 64.191
838.828, 85.817
840.100, 106.445
841.371, 70.081
842.642, 96.726
843.914, 138.376
845.184, 156.035
846.455, 201.695
847.726, 232.355
848.996, 194.015
850.266, 290.674
851.536, 260.332
852.805, 294.989
854.075, 333.644
855.344, 275.297
856.613, 349.948
857.881, 289.597
859.150, 318.244
860.418, 332.896
861.686, 329.549
862.954, 374.200
864.222, 340.850
865.489, 341.498
866.756, 397.144
868.023, 310.788
869.290, 417.431
870.557, 374.075
871.823, 331.720
873.089, 419.367
874.355, 400.019
875.621, 428.668
876.886, 460.322
878.152, 440.974
879.417, 474.625
880.682, 433.280
881.946, 444.933
883.211, 488.586
884.475, 436.242
885.739, 547.897
887.003, 524.554
888.266, 580.217
889.530, 717.883
890.793, 659.549
892.056, 827.218
893.318, 874.886
894.581, 970.554
895.843, 1150.222
897.105, 1096.890
898.367, 1265.467
899.629, 1373.134
900.890, 1239.637
902.152, 1489.303
903.413, 1340.900
904.673, 1279.433
905.934, 1248.038
907.194, 1088.583
908.454, 1159.256
909.714, 888.928
910.974, 878.608
912.234, 805.003
913.493, 701.981
914.752, 688.679
916.011, 618.378
917.270, 594.078
918.528, 609.787
919.786, 516.496
921.044, 637.206
922.302, 625.917
923.560, 617.627
924.817, 786.339
926.074, 751.052
927.331, 849.653
928.588, 887.367
929.844, 773.833
931.101, 890.441
932.357, 784.229
933.613, 756.978
934.868, 760.532
936.124, 713.362
937.379, 761.265
938.634, 763.229
939.889, 802.080
941.144, 872.918
942.398, 847.896
943.652, 1028.251
944.906, 1105.948
946.160, 1214.654
947.414, 1512.906
948.667, 1507.476
949.920, 1750.673
951.173, 1871.759
952.426, 1904.786
953.678, 2176.453
954.931, 2277.230
956.183, 2496.862
957.435, 3117.604
958.686, 3124.409
959.938, 3847.222
961.189, 3928.045
962.440, 3903.873
963.691, 4155.707
964.941, 3481.552
966.192, 3355.402
967.442, 3075.260
968.692, 2717.124
969.942, 2933.981
971.191, 2766.778
972.441, 2944.659
973.690, 3267.775
974.939, 3148.640
976.187, 3664.510
977.436, 3628.960
978.684, 3316.564
979.932, 3442.483
981.180, 2786.339
982.428, 2763.261
983.675, 2569.129
984.922, 2191.063
986.169, 2386.003
987.416, 2063.990
988.663, 2034.942
989.909, 2080.919
991.155, 1767.881
992.401, 1866.848
993.647, 1729.536
994.893, 1679.513
996.138, 1752.835
997.383, 1524.885
998.628, 1636.878
999.873, 1600.876
1001.117, 1473.879
1002.362, 1524.889
1003.606, 1308.903
1004.850, 1258.924
1006.093, 1168.951
1007.337, 962.012
1008.580, 962.052
1009.823, 803.422
1011.066, 676.230
1012.308, 697.360
1013.551, 547.464
1014.793, 518.545
1016.035, 487.632
1017.277, 370.725
1018.518, 380.825
1019.760, 346.609
1021.001, 328.182
1022.242, 335.998
1023.483, 294.411
1024.723, 347.541
1025.964, 299.811
1027.204, 290.951
1028.444, 293.097
1029.683, 255.237
1030.923, 262.394
1032.162, 329.574
1033.401, 291.775
1034.640, 350.953
1035.879, 334.830
1037.117, 316.480
1038.355, 435.321
1039.593, 369.854
1040.831, 424.607
1042.069, 397.818
1043.306, 345.236
1044.544, 438.456
1045.781, 383.681
1047.017, 414.910
1048.254, 480.144
1049.490, 429.413
1050.726, 495.661
1051.962, 480.908
1053.198, 494.160
1054.434, 580.416
1055.669, 485.678
1056.904, 531.944
1058.139, 469.214
1059.374, 391.561
1060.608, 425.839
1061.843, 286.227
1063.077, 311.727
1064.311, 326.016
1065.544, 312.310
1066.778, 312.590
1068.011, 335.947
1069.244, 324.299
1070.477, 381.607
1071.710, 328.917
1072.942, 421.348
1074.174, 502.665
1075.406, 462.043
1076.638, 605.389
1077.870, 596.989
1079.101, 638.334
1080.332, 715.963
1081.563, 601.035
1082.794, 574.465
1084.025, 570.834
1085.255, 432.662
1086.485, 408.057
1087.715, 337.475
1088.945, 285.042
1090.175, 328.568
1091.404, 243.131
1092.633, 276.750
1093.862, 235.410
1095.091, 221.940
1096.319, 326.584
1097.548, 236.238
1098.776, 239.130
1100.004, 277.722
1101.231, 214.332
1102.459, 298.972
1103.686, 235.700
1104.913, 259.432
1106.140, 263.134
1107.367, 168.822
1108.593, 207.351
1109.819, 177.988
1111.046, 135.677
1112.271, 183.595
1113.497, 164.237
1114.722, 78.976
1115.948, 154.681
1117.173, 107.325
1118.398, 116.172
1119.622, 180.047
1120.847, 73.767
1122.071, 155.476
1123.295, 65.139
1124.519, 78.891
1125.742, 100.641
1126.966, 29.348
1128.189, 61.026
1129.412, 87.789
1130.635, 28.554
1131.857, 28.338
1133.080, 53.044
1134.302, 6.168
1135.524, 56.816
1136.746, 1.507
1137.967, 29.169
1139.188, 25.852
1140.410, 22.421
1141.631, 57.293
1142.851, 14.019
1144.072, 4.288
1145.292, 55.420
1146.512, 6.197
1147.732, 46.904
1148.952, 5.853
1150.172, 11.530
1151.391, 34.571
1152.610, 4.394
1153.829, 1.859
1155.048, 2.540
1156.266, -4.033
1157.484, -1.608
1158.702, 3.776
1159.920, 2.039
1161.138, 8.024
1162.356, 13.651
1163.573, 2.372
1164.790, 16.567
1166.007, 15.552
1167.224, 11.321
1168.440, 15.260
1169.656, 25.117
1170.872, 33.160
1172.088, 21.976
1173.304, 8.610
1174.519, 29.466
1175.735, 18.783
1176.950, 19.928
1178.165, 4.106
1179.379, 18.250
1180.594, 47.609
1181.808, 11.708
1183.022, 24.084
1184.236, 10.498
1185.449, 4.968
1186.663, 8.427
1187.876, 17.262
1189.089, 2.035
1190.302, 19.633
1191.515, 37.336
1192.727, 17.987
1193.939, 29.550
1195.151, 10.047
1196.363, 16.713
1197.575, 23.574
1198.786, 23.632
1199.997, 35.064
1201.208, 32.995
1202.419, 21.418
1203.630, 42.853
1204.840, 5.453
1206.051, 43.861
1207.261, 3.368
1208.470, 15.140
1209.680, 40.253
1210.889, 26.924
1212.099, 26.706
1213.308, 13.653
1214.516, 16.197
1215.725, 48.532
1216.933, 47.365
1218.142, 6.400
1219.350, 32.717
1220.557, 17.029
1221.765, 9.650
1222.972, 2.640
1224.180, 29.093
1225.387, 13.314
1226.593, 3.971
1227.800, 18.429
1229.006, 58.719
1230.213, 0.951
1231.419, 39.173
1232.624, 46.390
1233.830, 10.603
1235.035, 17.875
1236.241, 18.073
1237.446, 8.672
1238.650, 10.957
1239.855, 8.592
1241.059, 14.978
1242.264, 21.138
1243.468, 10.698
1244.671, 44.483
1245.875, 60.609
1247.078, 35.769
1248.282, 18.881
1249.485, 18.987
1250.687, 27.120
1251.890, 31.213
1253.092, 2.644
1254.295, 46.509
1255.497, 33.577
1256.699, 8.285
1257.900, 54.836
1259.102, 23.877
1260.303, 32.996
1261.504, 48.021
1262.705, 15.120
1263.905, 14.159
1265.106, 32.157
1266.306, 37.143
1267.506, 58.111
1268.706, 29.060
1269.905, 31.025
1271.105, 41.951
1272.304, 61.867
1273.503, 31.839
1274.702, 31.731
1275.900, 27.611
1277.099, 46.472
1278.297, 27.322
1279.495, 14.138
1280.693, 54.961
1281.891, 62.754
1283.088, 54.409
1284.285, 44.200
1285.482, 45.266
1286.679, 52.677
1287.876, 41.101
1289.072, 46.788
1290.268, 30.975
1291.464, 47.704
1292.660, 17.506
1293.856, 55.213
1295.051, 13.909
1296.247, 25.595
1297.442, 38.269
1298.637, 4.915
1299.831, 46.961
1301.026, 12.275
1302.220, 4.854
1303.414, 33.690
1304.608, 17.743
1305.802, 14.841
1306.995, 36.459
1308.188, 8.021
1309.381, 19.571
1310.574, 6.652
1311.767, 10.719
1312.960, 59.595
1314.152, 18.811
1315.344, 16.304
1316.536, 52.652
1317.728, 15.276
1318.919, 21.734
1320.110, 23.196
1321.301, 12.369
1322.492, 33.037
1323.683, 12.428
1324.874, 5.175
1326.064, 30.552
1327.254, 34.495
1328.444, 45.214
1329.634, 38.223
1330.823, 16.999
1332.013, 15.311
1333.202, 17.087
1334.391, 14.720
1335.580, 17.993
1336.768, 27.707
1337.956, 42.501
1339.145, 42.782
1340.333, 36.001
1341.520, 23.215
1342.708, 54.414
1343.895, 4.601
1345.083, 76.775
1346.270, 49.935
1347.456, 19.084
1348.643, 63.150
1349.829, 29.275
1351.016, 31.282
1352.202, 50.174
1353.387, 11.264
1354.573, 64.341
1355.759, 48.441
1356.944, 15.439
1358.129, 72.434
1359.314, 54.466
1360.498, 14.487
1361.683, 53.400
1362.867, 51.401
1364.051, 47.337
1365.235, 61.307
1366.419, 17.009
1367.602, 7.962
1368.785, 28.626
1369.968, 16.857
1371.151, 36.106
1372.334, 57.827
1373.517, 62.176
1374.699, 69.763
1375.881, 66.123
1377.063, 31.442
1378.245, 94.824
1379.426, 33.148
1380.608, 81.271
1381.789, 29.718
1382.970, 32.963
1384.150, 71.274
1385.331, 43.730
1386.511, 34.778
1387.691, 50.239
1388.871, 37.234
1390.051, 54.093
1391.231, 59.275
1392.410, 38.480
1393.589, 61.630
1394.768, 32.807
1395.947, 27.839
1397.126, 53.917
1398.304, 27.774
1399.483, 28.975
1400.661, 58.054
1401.838, 26.132
1403.016, 59.105
1404.194, 26.833
1405.371, 38.453
1406.548, 48.233
1407.725, 53.269
1408.901, 70.087
1410.078, 59.177
1411.254, 34.568
1412.430, 66.394
1413.606, 37.851
1414.782, 22.455
1415.958, 106.960
1417.133, 59.189
1418.308, 38.475
1419.483, 96.712
1420.658, 17.676
1421.832, 36.340
1423.007, 45.771
1424.181, 10.073
1425.355, 39.050
1426.529, 81.583
1427.702, 6.849
1428.876, 65.670
1430.049, 39.560
1431.222, 4.082
1432.395, 32.425
1433.567, 11.916
1434.740, 45.064
1435.912, 70.361
1437.084, 31.025
1438.256, 36.279
1439.428, 27.882
1440.599, 3.806
1441.770, 62.048
1442.942, 49.276
1444.112, 40.896
1445.283, 68.494
1446.454, 35.938
1447.624, 17.371
1448.794, 45.623
1449.964, 39.109
1451.134, 1.478
1452.303, 52.925
1453.473, 13.310
1454.642, 53.604
1455.811, 41.812
1456.980, 43.804
1458.148, 0.085
1459.317, 52.997
1460.485, 24.181
1461.653, 33.464
1462.821, 37.739
1463.989, 22.091
1465.156, 27.155
1466.323, 15.656
1467.490, 16.884
1468.657, 41.331
1469.824, 30.068
1470.991, 23.355
1472.157, 42.676
1473.323, 10.445
1474.489, 74.419
1475.655, 29.670
1476.820, 33.871
1477.986, 16.554
1479.151, 0.271
1480.316, 19.873
1481.481, 47.798
1482.645, 30.895
1483.810, 25.650
1484.974, 37.637
1486.138, 28.827
1487.302, 50.731
1488.465, 24.620
1489.629, 55.413
1490.792, 46.820
1491.955, 9.595
1493.118, 19.499
1494.281, 14.226
1495.443, 6.133
1496.606, 11.051
1497.768, 9.378
1498.930, 10.342
1500.091, 10.340
1501.253, 5.384
1502.414, 36.485
1503.575, 63.593
1504.736, 7.586
1505.897, 12.960
1507.058, 61.476
1508.218, 22.717
1509.379, 42.234
1510.539, 20.243
1511.698, 0.190
1512.858, 0.000
##END=



