##NAMES=Axinite-(Fe)
##RRUFFID=R040074
##IDEAL CHEMISTRY=Ca_4_Fe^2+^_2_Al_4_[B_2_Si_8_O_30_](OH)_2_
##LOCALITY=Luning, Nevada, USA
##OWNER=RRUFF
##SOURCE=University of Arizona Mineral Museum
##DESCRIPTION=Pale brown wedge-shaped crystal
##STATUS=The identification of this mineral has been confirmed by X-ray diffraction and chemical analysis
##URL=rruff.info/R040074
##MEASURED CHEMISTRY=(Ca_0.98_Mn_0.01_)_2_(Fe_0.41_Mg_0.39_Mn_0.20_)Al_1.95_B_1.20_Si_3.90_O_15_(OH)
##PIN_ID=L00178
##ORIENTATION=Laser parallel to (0 -1 -1). Fiducial mark perpendicular to laser is parallel to -a [-1 0 0]
91.398, 0.000
92.793, 7.348
94.188, 114.013
95.582, 206.064
96.976, 543.288
98.370, 795.134
99.764, 962.420
101.157, 1329.516
102.550, 1855.404
103.943, 2916.575
105.336, 4599.764
106.729, 6057.934
108.121, 8120.289
109.513, 16660.318
110.905, 20290.016
112.297, 8372.969
113.688, 4168.624
115.079, 2856.834
116.470, 1927.154
117.861, 1443.070
119.251, 766.398
120.642, 515.001
122.032, 205.756
123.422, 135.562
124.811, 30.328
126.201, 17.658
127.590, 36.906
128.979, 22.317
130.367, 146.606
131.756, 143.984
133.144, 407.467
134.532, 660.051
135.920, 1076.734
137.307, 1695.674
138.695, 2419.729
140.082, 3216.522
141.469, 3753.447
142.856, 4170.512
144.242, 4207.754
145.628, 4025.240
147.014, 3893.005
148.400, 3691.042
149.786, 3679.335
151.171, 3507.873
152.556, 3226.645
153.941, 2815.633
155.325, 2434.831
156.710, 2064.227
158.094, 1823.812
159.478, 1903.576
160.862, 1700.668
162.245, 1773.342
163.629, 1919.635
165.012, 2155.401
166.395, 2543.024
167.777, 3300.898
169.160, 3979.000
170.542, 4297.309
171.924, 4135.810
173.306, 3734.499
174.687, 3123.307
176.068, 2502.062
177.449, 1750.837
178.830, 1158.667
180.211, 596.576
181.591, 278.581
182.972, 8.693
184.351, 70.078
185.731, 35.272
187.111, 321.748
188.490, 599.350
189.869, 1159.080
191.248, 1903.940
192.626, 2373.931
194.005, 2764.254
195.383, 2425.231
196.761, 1976.933
198.139, 1759.340
199.516, 1762.392
200.893, 2235.891
202.271, 2669.505
203.647, 3163.163
205.024, 3686.864
206.400, 3960.609
207.777, 4164.398
209.152, 4098.229
210.528, 4012.094
211.904, 4165.982
213.279, 3989.897
214.654, 3633.837
216.029, 3397.803
217.403, 3111.796
218.778, 2525.816
220.152, 1989.868
221.526, 1663.922
222.900, 1168.008
224.273, 787.126
225.646, 442.272
227.019, 308.451
228.392, 96.660
229.765, 197.057
231.137, 228.701
232.509, 421.291
233.881, 277.853
235.253, 339.391
236.625, 260.906
237.996, 66.400
239.367, 15.126
240.738, 96.673
242.108, 237.239
243.479, 486.786
244.849, 578.147
246.219, 966.272
247.589, 1276.248
248.958, 1470.238
250.328, 1824.256
251.697, 2048.298
253.065, 2262.363
254.434, 2416.451
255.803, 2300.561
257.171, 2378.252
258.539, 2556.053
259.906, 3005.322
261.274, 3285.299
262.641, 3865.848
264.008, 4496.873
265.375, 5278.307
266.742, 5810.094
268.108, 6492.193
269.475, 6974.566
270.840, 7267.187
272.206, 7150.031
273.572, 6943.081
274.937, 6736.293
276.302, 6069.674
277.667, 5423.210
279.032, 4706.889
280.396, 4050.695
281.760, 3544.620
283.125, 3158.656
284.488, 2962.799
285.852, 3037.039
287.215, 2851.371
288.578, 3255.792
289.941, 3400.297
291.304, 3724.751
292.666, 4429.645
294.029, 4889.283
295.391, 5501.653
296.753, 6035.969
298.114, 6801.105
299.476, 6961.587
300.837, 7236.188
302.198, 7465.264
303.558, 7384.835
304.919, 7418.672
306.279, 7178.199
307.639, 6815.918
308.999, 6500.111
310.359, 5895.725
311.718, 5380.861
313.077, 5036.043
314.436, 4991.286
315.795, 5286.591
317.154, 5411.941
318.512, 5767.311
319.870, 5472.699
321.228, 5278.108
322.586, 4563.533
323.943, 3688.977
325.300, 3134.357
326.657, 2639.477
328.014, 2484.364
329.371, 2329.150
330.727, 2083.961
332.083, 1998.798
333.439, 1793.658
334.795, 2058.552
336.150, 2003.466
337.506, 2328.415
338.861, 3063.397
340.215, 3728.418
341.570, 4853.475
342.924, 5428.585
344.279, 6073.759
345.633, 6088.998
346.986, 6114.215
348.340, 6047.421
349.693, 6202.717
351.046, 6358.028
352.399, 6223.356
353.752, 5668.700
355.104, 4914.058
356.457, 3809.428
357.809, 2764.812
359.160, 1780.207
360.512, 1285.607
361.863, 861.010
363.214, 597.412
364.565, 402.080
365.916, 215.162
367.267, 121.955
368.617, 154.494
369.967, 163.751
371.317, 149.499
372.666, 172.938
374.016, 242.310
375.365, 148.674
376.714, 185.032
378.063, 197.385
379.411, 274.730
380.760, 441.069
382.108, 722.401
383.456, 1157.726
384.803, 1673.042
386.151, 2468.351
387.498, 3173.651
388.845, 4108.943
390.192, 4414.225
391.539, 4399.498
392.885, 3897.513
394.231, 3254.033
395.577, 2610.900
396.923, 2045.057
398.269, 1596.076
399.614, 1510.965
400.959, 1164.008
402.304, 1129.197
403.649, 1114.374
404.993, 969.542
406.337, 1184.698
407.681, 1319.843
409.025, 1634.979
410.369, 2150.105
411.712, 3085.221
413.055, 4520.329
414.398, 6215.424
415.741, 7730.512
417.084, 8035.586
418.426, 7690.650
419.768, 6595.734
421.110, 5610.840
422.452, 5345.953
423.793, 5391.078
425.134, 5986.205
426.475, 6361.338
427.816, 6976.471
429.157, 7111.604
430.497, 7106.732
431.837, 6611.858
433.177, 5596.979
434.517, 4512.093
435.857, 3457.198
437.196, 2822.296
438.535, 2287.385
439.874, 2052.462
441.213, 2297.527
442.551, 2482.582
443.889, 2597.623
445.227, 2582.649
446.565, 2057.663
447.903, 1592.661
449.240, 947.644
450.577, 532.610
451.914, 250.560
453.251, 120.493
454.588, 13.402
455.924, 187.756
457.260, 217.088
458.596, 228.611
459.932, 312.331
461.267, 217.293
462.602, 287.447
463.938, 294.831
465.272, 202.449
466.607, 292.254
467.941, 103.293
469.276, 46.466
470.610, 142.249
471.943, 179.859
473.277, 262.589
474.610, 440.531
475.944, 781.848
477.276, 1079.317
478.609, 1642.025
479.942, 2364.668
481.274, 3287.311
482.606, 4349.975
483.938, 5132.698
485.270, 5165.457
486.601, 4668.252
487.932, 3421.065
489.263, 2233.929
490.594, 1606.820
491.925, 989.697
493.255, 732.550
494.585, 697.154
495.915, 719.959
497.245, 775.255
498.575, 880.832
499.904, 1217.118
501.233, 1483.018
502.562, 1773.412
503.891, 2305.721
505.219, 2618.689
506.548, 3141.352
507.876, 3444.115
509.203, 3486.654
510.531, 3499.181
511.859, 2921.682
513.186, 2784.177
514.513, 2126.671
515.840, 1699.140
517.166, 1231.628
518.493, 794.096
519.819, 706.534
521.145, 368.969
522.470, 391.371
523.796, 143.750
525.121, 96.074
526.446, 248.332
527.771, 150.547
529.096, 162.714
530.421, 254.830
531.745, 306.908
533.069, 358.951
534.393, 390.963
535.716, 632.941
537.040, 734.886
538.363, 836.796
539.686, 1088.674
541.009, 1090.518
542.331, 1482.326
543.654, 1534.102
544.976, 1735.843
546.298, 1617.550
547.620, 1389.222
548.941, 1520.861
550.263, 1232.465
551.584, 1204.034
552.905, 1185.603
554.225, 1287.175
555.546, 1578.792
556.866, 1750.424
558.186, 2062.083
559.506, 2433.754
560.826, 2335.400
562.145, 2297.013
563.465, 1978.589
564.784, 1890.131
566.103, 1851.637
567.421, 1993.105
568.740, 2244.540
570.058, 2525.939
571.376, 2747.303
572.694, 3138.630
574.011, 3049.922
575.329, 3311.178
576.646, 3162.398
577.963, 3043.581
579.279, 2984.729
580.596, 2725.842
581.912, 3086.916
583.228, 3237.953
584.544, 3838.953
585.860, 4299.916
587.175, 4780.846
588.491, 4671.732
589.806, 4462.586
591.121, 3953.400
592.435, 3104.178
593.750, 2414.917
595.064, 2035.619
596.378, 1486.283
597.692, 1226.909
599.006, 947.497
600.319, 998.048
601.632, 888.561
602.945, 649.035
604.258, 719.473
605.571, 729.872
606.883, 910.232
608.195, 880.557
609.507, 900.842
610.819, 1041.088
612.131, 950.728
613.442, 985.941
614.753, 938.429
616.064, 1038.978
617.375, 1048.712
618.685, 993.104
619.995, 1063.385
621.306, 809.191
622.615, 654.469
623.925, 595.489
625.235, 240.821
626.544, 247.970
627.853, 58.646
629.162, 22.103
630.471, 72.389
631.779, 92.348
633.087, 95.222
634.395, 33.978
635.703, 188.191
637.011, 564.889
638.318, 399.836
639.625, 669.312
640.932, 828.340
642.239, 901.864
643.546, 1044.909
644.852, 1023.713
646.158, 1000.203
647.464, 770.577
648.770, 611.086
650.076, 460.527
651.381, 99.610
652.686, 328.575
653.991, 67.510
655.296, 56.389
656.600, 35.209
657.905, 43.965
659.209, 37.340
660.513, 68.746
661.817, 80.271
663.120, 278.082
664.423, 246.404
665.726, 334.692
667.029, 596.639
668.332, 825.185
669.635, 1278.733
670.937, 1673.085
672.239, 2272.130
673.541, 2731.859
674.842, 3391.941
676.144, 3580.170
677.445, 3144.168
678.746, 3002.148
680.047, 2361.484
681.348, 1847.135
682.648, 1691.338
683.948, 1148.820
685.248, 944.497
686.548, 860.421
687.848, 757.819
689.147, 735.492
690.447, 613.198
691.746, 660.876
693.044, 628.524
694.343, 816.143
695.641, 1043.732
696.940, 1061.294
698.238, 1648.828
699.535, 1826.334
700.833, 2423.812
702.130, 3071.263
703.427, 3938.686
704.724, 5216.082
706.021, 6553.450
707.318, 8480.792
708.614, 11718.110
709.910, 14265.398
711.206, 17802.662
712.502, 19939.900
713.798, 20557.109
715.093, 19944.297
716.388, 17371.453
717.683, 14058.584
718.978, 11705.689
720.272, 8722.771
721.567, 7119.824
722.861, 5146.854
724.155, 4463.857
725.448, 3420.837
726.742, 2627.793
728.035, 2364.725
729.328, 1831.633
730.621, 1628.518
731.914, 1345.377
733.206, 942.216
734.499, 1179.030
735.791, 645.823
737.083, 552.593
738.374, 619.340
739.666, 486.066
740.957, 432.771
742.248, 339.454
743.539, 386.116
744.830, 352.758
746.120, 299.378
747.410, 345.979
748.701, 422.559
749.990, 459.119
751.280, 425.659
752.570, 532.181
753.859, 628.683
755.148, 535.167
756.437, 811.632
757.725, 1148.078
759.014, 1074.507
760.302, 1460.917
761.590, 1717.312
762.878, 2143.688
764.166, 2550.047
765.453, 2736.389
766.740, 3182.716
768.027, 2969.030
769.314, 2735.354
770.601, 2741.740
771.887, 2108.194
773.174, 1914.723
774.460, 1381.349
775.745, 1048.045
777.031, 1074.833
778.316, 601.713
779.602, 618.662
780.887, 435.703
782.172, 282.788
783.456, 295.269
784.741, 409.342
786.025, 62.121
787.309, 99.101
788.593, 10.764
789.876, 28.628
791.160, 101.780
792.443, 74.937
793.726, 148.154
795.009, 301.476
796.291, 214.978
797.574, 208.613
798.856, 142.381
800.138, 266.245
801.420, 170.269
802.702, 14.401
803.983, 21.440
805.264, 97.270
806.545, 191.314
807.826, 237.127
809.107, 540.417
810.387, 523.391
811.667, 755.625
812.947, 608.213
814.227, 596.272
815.507, 502.387
816.786, 287.808
818.065, 273.503
819.344, 179.066
820.623, 75.171
821.902, 0.553
823.180, 103.729
824.459, 118.066
825.737, 22.464
827.014, 206.872
828.292, 51.387
829.569, 4.076
830.847, 120.463
832.124, 54.941
833.401, 39.642
834.677, 75.761
835.954, 61.175
837.230, 16.607
838.506, 292.043
839.782, 137.491
841.057, 482.967
842.333, 568.446
843.608, 543.928
844.883, 899.414
846.158, 744.902
847.433, 820.411
848.707, 835.922
849.981, 771.438
851.255, 937.028
852.529, 882.625
853.803, 958.226
855.076, 933.832
856.350, 919.443
857.623, 1025.080
858.895, 1070.722
860.168, 1116.369
861.441, 1122.045
862.713, 737.729
863.985, 1003.419
865.257, 929.140
866.528, 764.866
867.800, 940.624
869.071, 836.391
870.342, 772.169
871.613, 838.003
872.884, 513.847
874.154, 1019.698
875.425, 725.617
876.695, 891.545
877.965, 807.517
879.234, 653.499
880.504, 1229.492
881.773, 975.506
883.042, 1061.531
884.311, 1247.568
885.580, 1373.616
886.848, 1739.676
888.117, 1715.766
889.385, 2111.868
890.653, 2567.983
891.920, 2714.113
893.188, 3310.256
894.455, 3676.412
895.722, 4132.619
896.989, 4688.841
898.256, 4835.080
899.523, 5191.333
900.789, 5397.601
902.055, 5183.885
903.321, 5020.185
904.587, 4956.500
905.852, 4652.844
907.118, 4509.203
908.383, 4135.581
909.648, 4091.977
910.913, 3688.387
912.177, 3144.826
913.442, 3081.283
914.706, 2457.759
915.970, 2304.253
917.233, 2050.764
918.497, 1637.294
919.760, 1853.841
921.024, 1510.404
922.287, 1746.984
923.550, 1623.582
924.812, 1750.194
926.075, 1946.822
927.337, 1873.464
928.599, 2220.120
929.861, 2546.789
931.122, 2203.471
932.384, 2350.164
933.645, 2186.869
934.906, 2293.588
936.167, 2070.323
937.428, 1887.090
938.688, 1963.493
939.948, 2042.760
941.208, 1967.857
942.468, 2191.994
943.728, 2181.589
944.987, 2522.919
946.247, 2759.707
947.506, 3016.927
948.765, 3559.639
950.023, 3892.813
951.282, 4090.216
952.540, 4549.920
953.798, 4735.722
955.056, 5291.376
956.314, 5538.084
957.572, 6285.137
958.829, 6962.283
960.086, 7749.447
961.343, 8766.641
962.600, 9683.862
963.856, 9541.119
965.113, 9988.406
966.369, 9015.747
967.625, 8603.150
968.881, 8260.609
970.136, 7558.104
971.392, 8335.616
972.647, 8539.451
973.902, 9356.682
975.157, 10318.887
976.411, 10970.271
977.666, 12106.952
978.920, 11792.920
980.174, 11648.540
981.428, 10976.598
982.682, 9848.295
983.935, 8828.358
985.188, 8635.054
986.441, 7572.828
987.694, 7600.719
988.947, 7408.723
990.199, 6876.584
991.452, 7178.035
992.704, 6915.957
993.956, 6923.911
995.207, 7042.049
996.459, 7000.064
997.710, 7911.753
998.961, 7989.831
1000.212, 8957.936
1001.463, 9822.949
1002.714, 9881.116
1003.964, 10489.457
1005.214, 9627.758
1006.464, 9126.013
1007.714, 8348.730
1008.964, 6947.047
1010.213, 6405.392
1011.462, 5158.889
1012.711, 4127.293
1013.960, 3875.729
1015.209, 3169.377
1016.457, 2827.873
1017.705, 2661.619
1018.954, 2120.177
1020.201, 2379.662
1021.449, 1999.209
1022.697, 2217.855
1023.944, 2406.610
1025.191, 2218.812
1026.438, 2567.551
1027.685, 2314.199
1028.931, 2133.204
1030.177, 2122.033
1031.423, 1833.163
1032.669, 1822.089
1033.915, 1771.435
1035.161, 1170.447
1036.406, 1459.434
1037.651, 1352.627
1038.896, 1371.678
1040.141, 1391.035
1041.386, 1360.676
1042.630, 1299.826
1043.874, 1379.068
1045.118, 1247.422
1046.362, 1336.674
1047.606, 1346.679
1048.849, 1376.002
1050.092, 1525.643
1051.336, 1345.499
1052.578, 1554.930
1053.821, 1584.631
1055.064, 1707.280
1056.306, 1836.793
1057.548, 1807.072
1058.790, 1686.652
1060.032, 1926.232
1061.273, 1698.880
1062.515, 1778.534
1063.756, 1508.617
1064.997, 1428.986
1066.237, 1368.537
1067.478, 888.688
1068.718, 1268.253
1069.959, 1147.979
1071.199, 1067.550
1072.438, 1177.090
1073.678, 1096.594
1074.918, 1415.983
1076.157, 1735.392
1077.396, 1734.653
1078.635, 2193.827
1079.873, 2352.982
1081.112, 2512.146
1082.350, 3021.320
1083.588, 2770.696
1084.826, 3050.056
1086.064, 2649.178
1087.301, 2058.160
1088.539, 2107.129
1089.776, 1516.114
1091.013, 1395.799
1092.250, 1364.723
1093.486, 1133.648
1094.723, 1062.519
1095.959, 971.398
1097.195, 790.317
1098.431, 1119.258
1099.666, 768.219
1100.902, 927.188
1102.137, 1236.200
1103.372, 785.233
1104.607, 1204.447
1105.842, 973.427
1107.076, 1182.365
1108.311, 1151.276
1109.545, 810.134
1110.779, 808.959
1112.012, 697.759
1113.246, 586.535
1114.479, 585.938
1115.712, 484.674
1116.945, 483.380
1118.178, 605.108
1119.411, 413.792
1120.643, 592.470
1121.875, 841.099
1123.108, 399.279
1124.339, 457.347
1125.571, 265.145
1126.802, 72.700
1128.034, 443.928
1129.265, 24.750
1130.496, 266.639
1131.727, 71.909
1132.957, 10.400
1134.187, 281.133
1135.418, 22.722
1136.648, 4.350
1137.877, 376.018
1139.107, 82.415
1140.336, 219.205
1141.566, 130.860
1142.795, 32.547
1144.023, 434.236
1145.252, 74.046
1146.480, 197.671
1147.709, 359.408
1148.937, 278.918
1150.165, 222.735
1151.392, 64.327
1152.620, 85.923
1153.847, 207.537
1155.074, 70.808
1156.301, 150.870
1157.528, 182.566
1158.755, 75.700
1159.981, 136.026
1161.207, 157.739
1162.433, 70.515
1163.659, 311.265
1164.885, 66.938
1166.110, 174.874
1167.336, 6.720
1168.561, 151.434
1169.786, 200.441
1171.010, 152.348
1172.235, 185.709
1173.459, 356.276
1174.683, 91.692
1175.907, 140.390
1177.131, 252.528
1178.355, 4.729
1179.578, 196.987
1180.801, 109.311
1182.024, 201.705
1183.247, 294.164
1184.470, 13.297
1185.692, 269.324
1186.915, 172.030
1188.137, 124.823
1189.359, 367.701
1190.580, 240.672
1191.802, 76.257
1193.023, 416.922
1194.244, 130.204
1195.465, 293.602
1196.686, 217.075
1197.907, 180.678
1199.127, 384.431
1200.347, 248.354
1201.567, 51.171
1202.787, 530.338
1204.007, 173.651
1205.226, 387.116
1206.446, 533.445
1207.665, 67.482
1208.884, 351.229
1210.102, 236.916
1211.321, 151.018
1212.539, 483.955
1213.758, 197.085
1214.976, 509.272
1216.193, 269.990
1217.411, 397.666
1218.628, 461.520
1219.846, 477.426
1221.063, 285.387
1222.280, 369.154
1223.496, 315.598
1224.713, 272.301
1225.929, 381.537
1227.145, 245.496
1228.361, 514.752
1229.577, 179.086
1230.793, 183.986
1232.008, 600.980
1233.223, 364.148
1234.438, 256.625
1235.653, 558.191
1236.868, 80.918
1238.082, 590.691
1239.297, 239.268
1240.511, 196.568
1241.725, 554.043
1242.938, 199.893
1244.152, 305.873
1245.365, 363.135
1246.578, 170.938
1247.791, 459.307
1249.004, 309.049
1250.217, 108.789
1251.429, 476.141
1252.642, 162.850
1253.854, 272.357
1255.066, 385.607
1256.277, 184.717
1257.489, 484.787
1258.700, 245.396
1259.911, 36.551
1261.122, 478.082
1262.333, 277.186
1263.544, 20.389
1264.754, 583.633
1265.964, 168.719
1267.174, 257.818
1268.384, 207.926
1269.594, 48.838
1270.803, 394.498
1272.013, 0.000
##END=



