##NAMES=Axinite-(Fe)
##RRUFFID=R040074
##IDEAL CHEMISTRY=Ca_4_Fe^2+^_2_Al_4_[B_2_Si_8_O_30_](OH)_2_
##LOCALITY=Luning, Nevada, USA
##OWNER=RRUFF
##SOURCE=University of Arizona Mineral Museum
##DESCRIPTION=Pale brown wedge-shaped crystal
##STATUS=The identification of this mineral has been confirmed by X-ray diffraction and chemical analysis
##URL=rruff.info/R040074
##MEASURED CHEMISTRY=(Ca_0.98_Mn_0.01_)_2_(Fe_0.41_Mg_0.39_Mn_0.20_)Al_1.95_B_1.20_Si_3.90_O_15_(OH)
##PIN_ID=M00342
##ORIENTATION=Laser parallel to -a* (-1 0 0). Fiducial mark perpendicular to laser is parallel to b [0 1 0]
89.685, 0.000
91.081, 4.317
92.477, 5.415
93.873, 104.597
95.268, 327.561
96.663, 525.273
98.058, 698.549
99.453, 891.185
100.848, 742.414
102.242, 630.229
103.636, 639.424
105.030, 666.582
106.423, 716.093
107.817, 1345.024
109.210, 4297.008
110.603, 5100.468
111.996, 3006.713
113.388, 2241.397
114.780, 1414.382
116.172, 1114.054
117.564, 776.928
118.956, 508.909
120.347, 177.518
121.738, 165.472
123.129, 122.363
124.519, 113.692
125.910, 15.944
127.300, 86.102
128.690, 158.291
130.080, 353.222
131.469, 419.312
132.858, 667.112
134.248, 709.513
135.636, 998.466
137.025, 1303.205
138.413, 1562.224
139.801, 1953.009
141.189, 2412.634
142.577, 2412.581
143.964, 2499.736
145.352, 2391.895
146.739, 2391.152
148.125, 2500.583
149.512, 2630.177
150.898, 2609.924
152.284, 2629.812
153.670, 2729.836
155.056, 2459.988
156.441, 2340.258
157.827, 2330.621
159.212, 2145.098
160.596, 1955.837
161.981, 1756.358
163.365, 1561.588
164.749, 1294.333
166.133, 1469.890
167.517, 1835.529
168.900, 2333.389
170.283, 2924.350
171.666, 3395.406
173.049, 3776.621
174.431, 3898.180
175.813, 3850.071
177.195, 3472.272
178.577, 2974.762
179.959, 2417.516
181.340, 1777.510
182.721, 1300.718
184.102, 793.118
185.483, 256.694
186.863, 56.570
188.244, 329.699
189.624, 420.729
191.003, 425.702
192.383, 229.636
193.762, 152.493
195.141, 196.265
196.520, 153.957
197.899, 175.588
199.277, 224.797
200.656, 625.172
202.034, 1359.534
203.411, 2257.884
204.789, 3689.225
206.166, 5093.560
207.543, 6537.889
208.920, 7972.217
210.297, 9326.542
211.673, 10170.862
213.049, 10855.184
214.425, 11089.504
215.801, 11163.825
217.176, 10238.149
218.552, 9282.478
219.927, 8346.830
221.302, 6711.208
222.676, 5545.229
224.051, 4268.913
225.425, 3332.567
226.799, 2496.310
228.173, 1848.532
229.546, 1340.150
230.919, 959.613
232.292, 725.925
233.665, 415.107
235.038, 288.978
236.410, 150.241
237.782, 224.717
239.154, 81.588
240.526, 201.463
241.898, 350.339
243.269, 336.216
244.640, 657.088
246.011, 1117.927
247.381, 1677.718
248.752, 2458.469
250.122, 3812.205
251.492, 4556.944
252.861, 5201.687
254.231, 5796.433
255.600, 5849.595
256.969, 5682.533
258.338, 5605.676
259.707, 5598.774
261.075, 5881.778
262.443, 6344.665
263.811, 7127.407
265.179, 7729.964
266.546, 8562.339
267.914, 9074.547
269.281, 9436.578
270.647, 9338.401
272.014, 9159.961
273.380, 8871.172
274.747, 8182.106
276.113, 7362.890
277.478, 6403.550
278.844, 5684.090
280.209, 5054.479
281.574, 4544.643
282.939, 4244.561
284.304, 3944.261
285.668, 3543.127
287.032, 3411.654
288.396, 3059.517
289.760, 2845.012
291.123, 2675.621
292.487, 2484.217
293.850, 2405.365
295.212, 2322.454
296.575, 2208.676
297.937, 2217.043
299.300, 2183.327
300.662, 2225.536
302.023, 2352.670
303.385, 2641.458
304.746, 2940.217
306.107, 3296.094
307.468, 3621.393
308.829, 3766.168
310.189, 3880.918
311.549, 4015.699
312.909, 4400.507
314.269, 5185.347
315.629, 6230.213
316.988, 7575.109
318.347, 8860.031
319.706, 9654.980
321.065, 10089.958
322.423, 9674.963
323.781, 8859.993
325.139, 7875.052
326.497, 6910.124
327.855, 5965.178
329.212, 5550.203
330.569, 5145.220
331.926, 4990.255
333.283, 5035.317
334.639, 5230.408
335.995, 5395.525
337.351, 5980.670
338.707, 7045.839
340.063, 8331.034
341.418, 9756.251
342.773, 11081.488
344.128, 11576.745
345.483, 11722.246
346.837, 10488.551
348.192, 9485.174
349.546, 8103.512
350.899, 6832.045
352.253, 5564.654
353.606, 4579.352
354.960, 3542.438
356.313, 2621.046
357.665, 1875.816
359.018, 1193.663
360.370, 861.842
361.722, 476.957
363.074, 318.353
364.426, 213.683
365.777, 134.386
367.128, 80.670
368.479, 37.782
369.830, 149.389
371.181, 271.458
372.531, 289.232
373.881, 342.135
375.231, 439.644
376.581, 625.101
377.930, 832.562
379.280, 992.027
380.629, 1501.496
381.977, 1940.968
383.326, 2676.443
384.674, 3514.921
386.023, 4460.405
387.370, 5456.169
388.718, 5681.663
390.066, 6037.163
391.413, 5632.655
392.760, 5228.132
394.107, 4583.587
395.454, 3899.032
396.800, 3413.348
398.146, 2822.094
399.492, 2431.659
400.838, 2310.933
402.184, 2230.697
403.529, 2267.839
404.874, 2158.974
406.219, 2244.063
407.564, 2426.493
408.908, 2660.922
410.252, 2984.349
411.596, 3517.774
412.940, 4203.198
414.284, 5408.623
415.627, 6484.044
416.970, 8359.465
418.313, 10064.848
419.656, 12290.199
420.999, 14595.515
422.341, 16480.789
423.683, 18226.037
425.025, 18621.238
426.367, 18396.414
427.708, 16961.545
429.049, 15456.654
430.390, 13231.725
431.731, 11266.763
433.072, 9201.768
434.412, 7666.744
435.752, 6511.690
437.092, 5686.605
438.432, 4961.494
439.772, 5076.355
441.111, 5201.189
442.450, 5575.995
443.789, 5870.776
445.127, 5645.532
446.466, 5110.263
447.804, 4354.973
449.142, 3248.664
450.480, 2501.338
451.817, 1841.996
453.155, 1585.647
454.492, 1293.286
455.829, 1203.911
457.166, 1182.518
458.502, 1124.104
459.838, 918.671
461.175, 886.219
462.510, 790.748
463.846, 732.261
465.181, 694.762
466.517, 747.253
467.852, 882.746
469.186, 1047.262
470.521, 1421.814
471.855, 1704.403
473.190, 2011.044
474.523, 2645.757
475.857, 3524.524
477.191, 4506.366
478.524, 6131.275
479.857, 7996.256
481.190, 10671.332
482.523, 13406.494
483.855, 15311.750
485.187, 15550.521
486.519, 16392.506
487.851, 13958.033
489.183, 11483.664
490.514, 8659.405
491.845, 6475.252
493.176, 4921.184
494.507, 3697.188
495.837, 2898.255
497.168, 2390.357
498.498, 1856.451
499.828, 1392.537
501.157, 1163.611
502.487, 779.673
503.816, 607.723
505.145, 386.760
506.474, 198.782
507.802, 53.780
509.131, 87.245
510.459, 110.334
511.787, 125.450
513.115, 245.529
514.442, 220.614
515.770, 283.690
517.097, 268.846
518.424, 278.026
519.750, 412.433
521.077, 285.943
522.403, 375.557
523.729, 392.015
525.055, 274.248
526.381, 299.062
527.706, 200.453
529.031, 144.433
530.356, 67.201
531.681, 137.322
533.006, 345.494
534.330, 439.873
535.654, 609.647
536.978, 639.763
538.302, 689.858
539.625, 637.935
540.949, 645.990
542.272, 554.026
543.595, 601.041
544.917, 452.036
546.240, 386.009
547.562, 562.958
548.884, 572.886
550.206, 676.793
551.527, 713.678
552.849, 1012.542
554.170, 1287.383
555.491, 1854.202
556.812, 2336.004
558.132, 3154.791
559.453, 3807.567
560.773, 4208.330
562.093, 4482.086
563.412, 4445.829
564.732, 4249.556
566.051, 4153.264
567.370, 4186.946
568.689, 4650.607
570.008, 4884.242
571.326, 5327.856
572.644, 5551.442
573.963, 5745.005
575.280, 5628.544
576.598, 5162.059
577.915, 4685.547
579.233, 4079.011
580.550, 3513.451
581.866, 3212.865
583.183, 2892.254
584.499, 2626.619
585.815, 2679.959
587.131, 2416.273
588.447, 2368.562
589.763, 2159.827
591.078, 1883.066
592.393, 1650.280
593.708, 1352.469
595.022, 1220.633
596.337, 1051.771
597.651, 973.885
598.965, 942.972
600.279, 983.593
601.593, 1105.072
602.906, 1253.083
604.219, 1447.070
605.532, 1724.030
606.845, 2011.965
608.158, 2417.777
609.470, 2773.758
610.782, 3416.614
612.094, 3967.445
613.406, 4670.250
614.718, 5543.028
616.029, 6455.780
617.340, 7238.506
618.651, 8091.206
619.962, 8104.141
621.272, 8137.643
622.582, 7141.239
623.892, 5945.136
625.202, 4829.711
626.512, 3646.256
627.821, 2883.407
629.131, 2199.592
630.440, 1734.521
631.749, 1499.389
633.057, 1323.665
634.366, 1337.270
635.674, 1311.370
636.982, 1534.666
638.290, 1766.188
639.597, 2006.787
640.905, 2229.732
642.212, 2539.948
643.519, 2662.843
644.825, 2682.371
646.132, 2577.016
647.438, 2354.358
648.744, 2013.721
650.050, 1673.512
651.356, 1651.378
652.662, 1349.521
653.967, 1322.835
655.272, 1142.053
656.577, 1214.513
657.882, 1205.360
659.186, 1250.853
660.490, 1424.479
661.794, 1691.916
663.098, 1805.025
664.402, 2108.289
665.705, 2524.421
667.009, 3045.411
668.312, 3740.021
669.614, 4588.625
670.917, 5813.596
672.219, 7059.935
673.522, 9011.905
674.824, 10074.897
676.125, 11306.640
677.427, 11380.008
678.728, 10890.831
680.030, 9815.985
681.331, 8399.983
682.631, 6961.302
683.932, 5761.000
685.232, 4916.833
686.532, 4158.134
687.832, 3760.936
689.132, 3460.993
690.432, 3188.884
691.731, 3224.131
693.030, 3321.393
694.329, 3373.612
695.628, 3818.791
696.926, 4219.927
698.224, 4725.021
699.522, 5545.074
700.820, 6435.085
702.118, 8005.054
703.415, 9584.704
704.713, 11544.589
706.010, 14274.436
707.307, 17404.242
708.603, 22214.006
709.900, 27133.729
711.196, 31983.408
712.492, 36773.047
713.788, 38962.656
715.083, 38732.215
716.379, 34591.738
717.674, 30821.211
718.969, 25300.656
720.264, 20430.053
721.558, 15919.412
722.853, 12758.734
724.147, 9908.014
725.441, 7927.257
726.735, 6376.459
728.028, 5145.622
729.322, 4203.747
730.615, 3507.832
731.908, 2850.879
733.201, 2347.231
734.493, 2058.857
735.785, 1680.790
737.078, 1490.684
738.370, 1386.539
739.661, 979.357
740.953, 963.137
742.244, 807.880
743.535, 679.585
744.826, 721.254
746.117, 652.885
747.407, 539.479
748.698, 618.037
749.988, 543.559
751.278, 580.044
752.567, 637.493
753.857, 645.905
755.146, 700.283
756.435, 781.624
757.724, 866.929
759.013, 853.199
760.301, 835.434
761.590, 920.633
762.878, 795.797
764.165, 937.927
765.453, 978.022
766.741, 861.082
768.028, 866.107
769.315, 765.099
770.602, 723.057
771.888, 536.980
773.175, 481.871
774.461, 395.727
775.747, 252.548
777.033, 222.329
778.319, 142.067
779.604, 59.761
780.889, 16.600
782.174, 59.056
783.459, 60.627
784.744, 121.315
786.028, 201.152
787.312, 129.178
788.596, 215.354
789.880, 192.728
791.164, 197.283
792.447, 298.024
793.730, 269.002
795.013, 292.201
796.296, 234.633
797.579, 279.265
798.861, 355.122
800.143, 343.241
801.425, 372.615
802.707, 343.480
803.989, 289.156
805.270, 229.277
806.551, 204.588
807.832, 98.610
809.113, 246.318
810.394, 170.681
811.674, 299.008
812.954, 422.308
814.234, 316.582
815.514, 343.829
816.794, 393.050
818.073, 356.249
819.352, 214.427
820.631, 155.585
821.910, 108.748
823.189, 91.920
824.467, 84.106
825.745, 101.339
827.023, 168.613
828.301, 116.948
829.578, 249.338
830.856, 205.792
832.133, 325.345
833.410, 280.967
834.687, 441.681
835.963, 504.492
837.240, 491.372
838.516, 603.325
839.792, 778.328
841.068, 788.365
842.343, 1069.395
843.618, 1152.414
844.894, 1317.418
846.169, 1619.409
847.443, 1798.383
848.718, 2148.342
849.992, 2369.293
851.266, 2508.232
852.540, 2860.166
853.814, 3048.086
855.088, 3165.005
856.361, 3371.920
857.634, 3452.830
858.907, 3615.754
860.180, 3705.670
861.453, 3760.798
862.725, 3657.516
863.997, 3776.444
865.269, 3684.383
866.541, 3535.325
867.812, 3647.270
869.084, 3657.229
870.355, 3532.181
871.626, 3498.149
872.897, 3501.133
874.167, 3457.127
875.438, 3500.123
876.708, 3487.134
877.978, 3560.141
879.248, 3722.193
880.517, 3710.239
881.787, 3955.278
883.056, 3959.333
884.325, 4403.381
885.594, 4697.446
886.862, 5061.518
888.130, 5595.581
889.399, 6289.654
890.667, 7163.723
891.934, 8117.791
893.202, 9211.872
894.469, 10815.959
895.737, 12670.064
897.004, 14944.169
898.270, 17348.301
899.537, 20462.463
900.803, 22716.623
902.070, 24200.793
903.336, 24987.582
904.601, 25529.125
905.867, 24313.295
907.132, 22817.459
908.398, 20781.633
909.663, 18565.807
910.928, 16889.977
912.192, 14764.156
913.457, 13318.342
914.721, 11772.535
915.985, 10246.753
917.249, 8940.978
918.512, 8085.202
919.776, 7029.450
921.039, 6623.698
922.302, 5807.964
923.565, 5592.256
924.827, 5226.548
926.090, 5060.868
927.352, 4914.927
928.614, 4848.395
929.876, 4971.761
931.138, 4864.800
932.399, 4817.139
933.660, 4995.482
934.922, 4821.197
936.182, 5236.856
937.443, 5298.742
938.704, 5485.667
939.964, 5997.161
941.224, 6243.302
942.484, 6790.926
943.744, 7418.331
945.003, 8199.483
946.262, 9232.535
947.521, 10234.219
948.780, 11729.609
950.039, 12762.298
951.298, 14960.329
952.556, 16069.217
953.814, 16816.393
955.072, 17725.521
956.330, 19778.205
957.587, 20974.787
958.845, 23773.066
960.102, 26588.162
961.359, 29192.332
962.615, 31836.232
963.872, 33430.734
965.128, 33735.555
966.384, 32640.234
967.640, 30625.061
968.896, 28269.980
970.152, 27054.930
971.407, 25529.371
972.662, 25413.619
973.917, 24977.721
975.172, 26221.799
976.427, 27615.895
977.681, 27960.111
978.935, 29164.662
980.189, 28289.039
981.443, 27884.021
982.697, 26408.867
983.950, 25654.137
985.203, 24899.391
986.456, 24374.711
987.709, 24130.059
988.962, 23895.432
990.214, 23410.836
991.467, 23026.262
992.719, 22102.408
993.971, 21047.893
995.222, 20803.461
996.474, 20169.455
997.725, 20195.010
998.976, 20500.604
1000.227, 20537.922
1001.478, 20643.922
1002.728, 19611.555
1003.978, 18387.393
1005.229, 17156.275
1006.479, 15373.674
1007.728, 13770.691
1008.978, 11982.758
1010.227, 10459.784
1011.476, 9227.350
1012.725, 8000.232
1013.974, 7067.766
1015.223, 6348.429
1016.471, 5437.800
1017.719, 5096.363
1018.967, 4538.186
1020.215, 4054.704
1021.462, 3906.978
1022.710, 3568.500
1023.957, 3518.670
1025.204, 3387.615
1026.451, 3218.829
1027.697, 3295.756
1028.944, 2994.585
1030.190, 2891.330
1031.436, 2691.079
1032.682, 2717.204
1033.928, 2467.016
1035.173, 2382.381
1036.418, 2182.358
1037.663, 2322.246
1038.908, 2116.431
1040.153, 2297.401
1041.398, 2348.878
1042.642, 2372.583
1043.886, 2511.251
1045.130, 2550.444
1046.374, 2626.227
1047.617, 2917.919
1048.860, 2753.080
1050.104, 3101.200
1051.347, 3219.374
1052.589, 3356.869
1053.832, 3803.928
1055.074, 3901.230
1056.316, 4438.613
1057.558, 4556.968
1058.800, 4974.318
1060.042, 5311.402
1061.283, 5160.487
1062.524, 5098.073
1063.765, 4887.619
1065.006, 4410.007
1066.247, 3888.079
1067.487, 3415.508
1068.728, 3077.700
1069.968, 2763.916
1071.208, 2521.931
1072.447, 2390.097
1073.687, 2400.290
1074.926, 2394.432
1076.165, 2484.887
1077.404, 2565.131
1078.643, 2783.682
1079.881, 3180.946
1081.120, 3248.524
1082.358, 3645.996
1083.596, 3633.574
1084.834, 3400.978
1086.071, 3218.216
1087.309, 2835.758
1088.546, 2420.694
1089.783, 2128.568
1091.020, 1817.276
1092.256, 1653.346
1093.493, 1393.104
1094.729, 1215.146
1095.965, 1206.485
1097.201, 1103.681
1098.436, 930.600
1099.672, 935.529
1100.907, 805.087
1102.142, 844.151
1103.377, 854.555
1104.612, 869.409
1105.846, 891.168
1107.081, 700.106
1108.315, 660.032
1109.549, 728.147
1110.782, 595.131
1112.016, 645.008
1113.249, 545.728
1114.483, 475.560
1115.716, 510.350
1116.948, 409.285
1118.181, 446.285
1119.413, 397.061
1120.646, 293.929
1121.878, 369.768
1123.110, 227.340
1124.341, 279.089
1125.573, 229.922
1126.804, 177.463
1128.035, 172.545
1129.266, 173.400
1130.497, 76.815
1131.727, 124.780
1132.957, 72.471
1134.188, 101.884
1135.418, 152.875
1136.647, 86.099
1137.877, 102.894
1139.106, 126.300
1140.335, 30.386
1141.564, 24.946
1142.793, 6.387
1144.022, 17.374
1145.250, 56.303
1146.479, 29.126
1147.707, 53.403
1148.934, 8.302
1150.162, 57.145
1151.390, 12.456
1152.617, 80.912
1153.844, 45.766
1155.071, 32.947
1156.298, 133.159
1157.524, 29.463
1158.751, 40.807
1159.977, 140.065
1161.203, 35.227
1162.428, 95.933
1163.654, 70.080
1164.879, 51.529
1166.105, 109.417
1167.330, 8.312
1168.555, 112.364
1169.779, 98.154
1171.004, 72.564
1172.228, 47.954
1173.452, 86.871
1174.676, 0.813
1175.900, 204.097
1177.123, 28.243
1178.346, 39.300
1179.570, 75.290
1180.793, 40.031
1182.015, 75.363
1183.238, 33.193
1184.460, 47.642
1185.683, 33.438
1186.905, 42.158
1188.126, 2.870
1189.348, 53.521
1190.569, 17.772
1191.791, 57.281
1193.012, 2.283
1194.233, 77.721
1195.453, 131.262
1196.674, 65.966
1197.894, 0.351
1199.114, 16.289
1200.334, 96.375
1201.554, 44.209
1202.774, 30.378
1203.993, 3.757
1205.212, 48.914
1206.431, 117.429
1207.650, 3.540
1208.869, 27.782
1210.087, 8.168
1211.305, 52.059
1212.524, 19.902
1213.741, 58.812
1214.959, 45.019
1216.177, 171.703
1217.394, 27.387
1218.611, 40.852
1219.828, 130.983
1221.045, 54.019
1222.261, 73.611
1223.478, 126.377
1224.694, 8.252
1225.910, 133.401
1227.126, 65.321
1228.342, 101.158
1229.557, 84.596
1230.772, 141.225
1231.987, 193.123
1233.202, 135.250
1234.417, 77.425
1235.631, 98.720
1236.846, 158.931
1238.060, 93.179
1239.274, 185.030
1240.488, 142.960
1241.701, 98.620
1242.915, 153.258
1244.128, 74.671
1245.341, 262.392
1246.554, 140.042
1247.767, 52.475
1248.979, 233.372
1250.191, 68.137
1251.403, 197.871
1252.615, 173.334
1253.827, 48.340
1255.039, 159.122
1256.250, 189.358
1257.461, 54.102
1258.672, 250.654
1259.883, 221.996
1261.094, 230.776
1262.304, 193.773
1263.514, 176.143
1264.724, 227.171
1265.934, 202.608
1267.144, 207.793
1268.354, 269.346
1269.563, 224.526
1270.772, 201.592
1271.981, 268.383
1273.190, 150.081
1274.398, 186.270
1275.607, 286.702
1276.815, 95.235
1278.023, 212.218
1279.231, 273.320
1280.439, 156.408
1281.646, 312.344
1282.853, 104.277
1284.060, 257.807
1285.267, 273.914
1286.474, 124.891
1287.681, 229.126
1288.887, 129.260
1290.093, 174.533
1291.299, 354.802
1292.505, 193.654
1293.711, 131.367
1294.916, 259.000
1296.121, 156.644
1297.327, 156.862
1298.531, 209.294
1299.736, 16.066
1300.941, 270.124
1302.145, 127.828
1303.349, 53.645
1304.553, 226.363
1305.757, 1.936
1306.961, 130.136
1308.164, 93.144
1309.367, 36.924
1310.570, 121.282
1311.773, 81.428
1312.976, 97.772
1314.178, 183.201
1315.381, 72.359
1316.583, 65.763
1317.785, 158.607
1318.987, 52.775
1320.188, 136.128
1321.390, 229.734
1322.591, 27.066
1323.792, 187.049
1324.993, 79.926
1326.193, 130.901
1327.394, 175.529
1328.594, 17.146
1329.794, 199.722
1330.994, 96.219
1332.194, 40.501
1333.394, 220.170
1334.593, 159.732
1335.792, 10.997
1336.991, 154.895
1338.190, 43.825
1339.389, 57.726
1340.587, 141.055
1341.786, 114.312
1342.984, 172.402
1344.182, 131.057
1345.379, 60.044
1346.577, 104.415
1347.774, 79.976
1348.972, 90.271
1350.169, 163.454
1351.365, 88.778
1352.562, 167.984
1353.759, 213.580
1354.955, 173.502
1356.151, 174.649
1357.347, 165.402
1358.543, 111.685
1359.738, 157.090
1360.934, 114.688
1362.129, 151.817
1363.324, 284.918
1364.519, 66.883
1365.713, 276.793
1366.908, 224.462
1368.102, 16.930
1369.296, 201.271
1370.490, 2.569
1371.684, 13.426
1372.877, 194.591
1374.071, 3.066
1375.264, 83.428
1376.457, 203.708
1377.650, 25.489
1378.843, 133.291
1380.035, 137.928
1381.227, 121.175
1382.419, 190.834
1383.611, 156.338
1384.803, 202.008
1385.995, 187.695
1387.186, 64.218
1388.377, 129.520
1389.568, 126.926
1390.759, 46.235
1391.950, 265.928
1393.140, 278.672
1394.331, 79.415
1395.521, 310.691
1396.711, 160.635
1397.900, 54.694
1399.090, 298.798
1400.279, 156.048
1401.469, 176.211
1402.658, 205.597
1403.847, 103.321
1405.035, 240.476
1406.224, 129.272
1407.412, 186.502
1408.600, 303.183
1409.788, 154.572
1410.976, 151.258
1412.164, 274.874
1413.351, 264.168
1414.538, 295.101
1415.725, 288.880
1416.912, 143.863
1418.099, 335.831
1419.285, 239.151
1420.472, 105.155
1421.658, 317.562
1422.844, 18.432
1424.030, 263.278
1425.215, 238.077
1426.401, 81.018
1427.586, 131.795
1428.771, 204.427
1429.956, 67.627
1431.141, 302.291
1432.325, 105.309
1433.510, 188.240
1434.694, 361.916
1435.878, 95.420
1437.062, 170.240
1438.245, 234.766
1439.429, 58.489
1440.612, 182.207
1441.795, 196.184
1442.978, 31.997
1444.161, 320.124
1445.343, 183.870
1446.526, 63.755
1447.708, 346.780
1448.890, 121.891
1450.072, 114.160
1451.253, 306.914
1452.435, 39.756
1453.616, 209.786
1454.797, 278.823
1455.978, 47.827
1457.159, 413.229
1458.340, 331.713
1459.520, 123.256
1460.700, 293.787
1461.880, 253.372
1463.060, 128.195
1464.240, 343.253
1465.420, 33.503
1466.599, 155.535
1467.778, 406.171
1468.957, 108.043
1470.136, 418.144
1471.315, 260.871
1472.493, 89.607
1473.671, 458.836
1474.849, 207.511
1476.027, 105.865
1477.205, 394.865
1478.383, 94.404
1479.560, 310.726
1480.737, 285.787
1481.914, 165.354
1483.091, 342.749
1484.268, 269.688
1485.444, 206.094
1486.621, 356.026
1487.797, 327.421
1488.973, 278.687
1490.149, 323.760
1491.324, 241.122
1492.500, 184.770
1493.675, 350.987
1494.850, 138.760
1496.025, 254.480
1497.200, 230.490
1498.374, 105.903
1499.548, 233.106
1500.723, 150.189
1501.897, 77.268
1503.071, 334.755
1504.244, 162.859
1505.418, 151.167
1506.591, 259.909
1507.764, 59.147
1508.937, 249.135
1510.110, 208.057
1511.282, 10.539
1512.455, 381.926
1513.627, 259.754
1514.799, 72.701
1515.971, 157.653
1517.143, 0.000
##END=



