##NAMES=Axinite-(Fe)
##RRUFFID=R050026
##IDEAL CHEMISTRY=Ca_4_Fe^2+^_2_Al_4_[B_2_Si_8_O_30_](OH)_2_
##LOCALITY=Pouyva mine, Polar Urals, Western Siberian Region, Russia
##OWNER=RRUFF
##SOURCE=Rock Currier
##DESCRIPTION=Brown transparent flat crystal
##STATUS=The identification of this mineral has been confirmed by X-ray diffraction and chemical analysis
##URL=rruff.info/R050026
##MEASURED CHEMISTRY=Ca_2.00_(Fe^2+^_0.61_Mn_0.26_Mg_0.13_)Al_2.00_BSi_4_O_15_(OH)
##PIN_ID=L00535
##ORIENTATION=Laser parallel to -c* (0 0 -1). Fiducial mark perpendicular to laser is parallel to a [1 0 0]
92.466, 0.000
93.868, 36.182
95.269, 58.462
96.670, 203.974
98.070, 388.657
99.471, 629.956
100.871, 777.949
102.271, 810.272
103.670, 1123.158
105.070, 1457.295
106.469, 2260.667
107.868, 2938.256
109.267, 4137.646
110.665, 8502.832
112.063, 40472.500
113.461, 17270.807
114.859, 3841.660
116.256, 1361.093
117.653, 835.561
119.050, 462.762
120.447, 248.670
121.843, 97.275
123.240, 133.574
124.636, 28.572
126.031, 29.159
127.427, 3.437
128.822, 57.492
130.217, 80.041
131.612, 27.750
133.006, 39.504
134.400, 116.827
135.794, 321.323
137.188, 525.058
138.581, 648.361
139.975, 595.007
141.368, 586.192
142.760, 619.949
144.153, 776.311
145.545, 1057.311
146.937, 1328.982
148.329, 1542.355
149.720, 1632.452
151.112, 1533.295
152.503, 1319.904
153.893, 1719.292
155.284, 1094.476
156.674, 433.467
158.064, 252.785
159.454, 126.774
160.843, 252.521
162.233, 330.913
163.622, 505.866
165.011, 857.314
166.399, 1230.430
167.787, 1741.773
169.175, 2013.165
170.563, 2173.586
171.951, 2150.026
173.338, 1862.487
174.725, 1545.967
176.112, 1214.499
177.499, 886.192
178.885, 615.047
180.271, 370.055
181.657, 220.202
183.043, 112.470
184.428, 126.847
185.813, 155.311
187.198, 299.844
188.583, 524.441
189.967, 765.099
191.351, 1171.810
192.735, 1342.541
194.119, 1283.248
195.502, 1036.866
196.885, 836.575
198.268, 886.378
199.651, 1040.219
201.033, 1457.088
202.415, 1944.983
203.797, 2503.901
205.179, 2765.842
206.561, 2821.803
207.942, 2787.783
209.323, 2595.776
210.703, 2351.766
212.084, 2058.749
213.464, 1842.722
214.844, 1660.685
216.224, 1547.639
217.603, 1471.586
218.983, 1278.528
220.362, 890.456
221.741, 591.334
223.119, 322.175
224.497, 172.012
225.875, 20.151
227.253, 135.316
228.631, 128.007
230.008, 190.461
231.385, 178.826
232.762, 183.640
234.139, 117.279
235.515, 91.180
236.891, 30.920
238.267, 128.023
239.643, 247.127
241.018, 390.240
242.393, 414.316
243.768, 550.192
245.143, 487.779
246.517, 506.087
247.891, 534.232
249.265, 605.358
250.639, 698.492
252.012, 918.634
253.386, 1215.785
254.759, 1258.944
256.131, 1213.112
257.504, 1062.287
258.876, 869.693
260.248, 829.517
261.620, 826.477
262.991, 979.457
264.363, 1009.383
265.734, 1231.225
267.104, 1490.964
268.475, 1698.534
269.845, 1917.941
271.215, 2180.213
272.585, 2454.371
273.955, 2560.418
275.324, 2610.217
276.693, 2372.680
278.062, 2115.719
279.431, 1863.691
280.799, 1550.638
282.167, 1398.551
283.535, 1293.431
284.903, 1251.279
286.270, 1213.095
287.638, 1133.672
289.005, 1199.363
290.371, 1134.442
291.738, 1211.233
293.104, 1251.832
294.470, 1230.698
295.836, 1319.333
297.201, 1444.748
298.567, 1606.974
299.932, 1813.059
301.296, 2143.892
302.661, 2649.550
304.025, 3015.951
305.389, 3439.004
306.753, 3447.024
308.117, 3239.014
309.480, 2746.975
310.843, 2358.911
312.206, 2080.823
313.569, 2048.720
314.931, 2167.597
316.293, 2385.452
317.655, 2633.287
319.017, 2641.102
320.378, 2520.897
321.740, 2242.673
323.101, 1905.420
324.461, 1696.439
325.822, 1485.510
327.182, 1399.282
328.542, 1369.012
329.902, 1298.608
331.261, 1265.193
332.621, 1364.784
333.980, 1356.381
335.339, 1613.996
336.697, 1949.618
338.056, 2419.275
339.414, 2898.955
340.772, 3396.659
342.129, 3590.386
343.487, 3518.138
344.844, 3316.650
346.201, 2839.339
347.557, 2699.523
348.914, 2516.056
350.270, 2601.108
351.626, 2372.396
352.982, 2122.184
354.337, 1753.971
355.693, 1281.757
357.048, 955.541
358.402, 631.324
359.757, 447.197
361.111, 335.296
362.465, 194.106
363.819, 192.960
365.173, 95.708
366.526, 123.332
367.879, 135.520
369.232, 170.831
370.585, 203.268
371.937, 245.269
373.290, 301.572
374.642, 348.860
375.993, 307.951
377.345, 325.044
378.696, 396.178
380.047, 544.438
381.398, 704.606
382.748, 1036.740
384.099, 1385.868
385.449, 1849.504
386.799, 2449.474
388.148, 2727.651
389.497, 2994.000
390.847, 2748.642
392.196, 2503.716
393.544, 2091.616
394.893, 1643.425
396.241, 1366.583
397.589, 1042.927
398.936, 861.944
400.284, 744.310
401.631, 544.682
402.978, 525.848
404.325, 433.453
405.672, 430.053
407.018, 493.649
408.364, 592.242
409.710, 813.833
411.055, 1186.424
412.401, 1772.014
413.746, 2457.602
415.091, 3326.188
416.435, 3982.775
417.780, 4127.359
419.124, 3966.943
420.468, 3412.524
421.812, 3087.088
423.155, 2883.631
424.498, 2602.152
425.842, 2600.651
427.184, 2381.130
428.527, 2153.586
429.869, 1829.022
431.211, 1498.438
432.553, 1164.833
433.895, 905.210
435.236, 787.567
436.577, 644.907
437.918, 621.229
439.259, 670.535
440.599, 799.827
441.940, 1031.104
443.280, 1211.369
444.619, 1212.675
445.959, 1037.912
447.298, 755.135
448.637, 555.344
449.976, 279.541
451.315, 240.724
452.653, 112.896
453.991, 29.068
455.329, 48.230
456.667, 6.603
458.004, 13.573
459.341, 61.253
460.678, 67.122
462.015, 26.038
463.352, 47.018
464.688, 80.058
466.024, 146.084
467.360, 249.099
468.695, 297.103
470.031, 384.095
471.366, 455.267
472.701, 422.640
474.035, 539.544
475.370, 626.954
476.704, 862.156
478.038, 1230.433
479.372, 1637.357
480.705, 2314.283
482.038, 2902.214
483.371, 3401.162
484.704, 3557.110
486.037, 3117.074
487.369, 2368.058
488.701, 1702.051
490.033, 1210.057
491.365, 792.075
492.696, 622.228
494.027, 428.572
495.358, 394.400
496.689, 401.799
498.019, 378.837
499.350, 431.181
500.680, 527.532
502.009, 610.893
503.339, 754.080
504.668, 798.522
505.997, 920.039
507.326, 937.737
508.655, 915.968
509.983, 871.940
511.311, 820.888
512.639, 768.835
513.967, 616.787
515.295, 432.734
516.622, 345.683
517.949, 155.624
519.276, 126.558
520.602, 71.495
521.929, 24.576
523.255, 89.045
524.581, 39.598
525.906, 37.728
527.232, 78.671
528.557, 112.619
529.882, 1.482
531.207, 28.295
532.531, 12.070
533.855, 12.645
535.179, 53.204
536.503, 50.750
537.827, 39.282
539.150, 11.800
540.473, 27.303
541.796, 33.791
543.119, 33.265
544.441, 7.276
545.764, 19.163
547.086, 19.587
548.407, 10.999
549.729, 18.579
551.050, 7.872
552.371, 71.365
553.692, 35.916
555.013, 126.523
556.333, 161.190
557.653, 250.898
558.973, 306.642
560.293, 365.389
561.612, 420.130
562.932, 411.863
564.251, 477.584
565.569, 558.294
566.888, 660.994
568.206, 859.682
569.524, 904.359
570.842, 1040.025
572.160, 1131.680
573.477, 1072.323
574.795, 1103.955
576.112, 915.576
577.428, 897.185
578.745, 792.783
580.061, 739.370
581.377, 776.945
582.693, 819.508
584.009, 931.060
585.324, 1075.602
586.639, 1226.131
587.954, 1345.650
589.269, 1247.157
590.583, 1089.654
591.897, 944.139
593.212, 700.613
594.525, 553.076
595.839, 355.529
597.152, 290.970
598.465, 225.400
599.778, 146.820
601.091, 159.229
602.403, 103.627
603.716, 159.013
605.028, 198.389
606.339, 192.754
607.651, 289.109
608.962, 355.453
610.273, 494.785
611.584, 550.932
612.895, 666.720
614.205, 792.582
615.515, 792.007
616.825, 947.709
618.135, 1006.258
619.444, 888.439
620.754, 856.151
622.063, 623.966
623.372, 551.912
624.680, 311.128
625.989, 189.336
627.297, 108.534
628.605, 56.722
629.912, 5.899
631.220, 20.939
632.527, 3.194
633.834, 37.311
635.141, 16.416
636.447, 128.461
637.754, 112.185
639.060, 210.903
640.366, 269.374
641.671, 312.570
642.977, 309.149
644.282, 273.476
645.587, 255.976
646.892, 250.666
648.196, 135.538
649.501, 102.006
650.805, 55.412
652.109, 13.633
653.412, 40.283
654.716, 80.816
656.019, 37.988
657.322, 38.211
658.625, 38.486
659.927, 51.811
661.230, 24.194
662.532, 9.621
663.834, 23.916
665.135, 58.434
666.437, 121.887
667.738, 227.381
669.039, 366.339
670.340, 496.952
671.640, 657.248
672.940, 931.166
674.241, 1066.854
675.540, 1285.034
676.840, 1345.049
678.139, 1333.017
679.439, 1170.633
680.738, 927.013
682.036, 772.603
683.335, 588.094
684.633, 475.009
685.931, 434.784
687.229, 334.419
688.527, 340.475
689.824, 317.216
691.121, 345.954
692.418, 329.877
693.715, 431.782
695.012, 479.633
696.308, 567.343
697.604, 732.129
698.900, 926.936
700.195, 1036.734
701.491, 1483.011
702.786, 1760.737
704.081, 2250.459
705.376, 2750.512
706.670, 3454.083
707.964, 4463.714
709.259, 5487.627
710.552, 6477.386
711.846, 7417.515
713.139, 7803.648
714.433, 7852.773
715.726, 6904.888
717.018, 6138.992
718.311, 4979.087
719.603, 3993.171
720.895, 3186.246
722.187, 2563.312
723.479, 1974.367
724.770, 1579.413
726.061, 1261.449
727.352, 1097.476
728.643, 897.494
729.934, 714.503
731.224, 615.502
732.514, 556.493
733.804, 477.475
735.094, 405.448
736.383, 370.413
737.672, 339.369
738.961, 210.317
740.250, 285.256
741.539, 204.187
742.827, 226.110
744.115, 222.025
745.403, 155.932
746.691, 193.832
747.978, 176.723
749.265, 183.607
750.552, 220.484
751.839, 213.353
753.126, 341.215
754.412, 326.070
755.698, 380.918
756.984, 534.760
758.270, 564.538
759.555, 675.366
760.840, 832.187
762.125, 967.001
763.410, 1154.810
764.695, 1222.611
765.979, 1369.407
767.263, 1374.198
768.547, 1315.985
769.831, 1345.768
771.114, 1053.549
772.398, 922.328
773.681, 762.118
774.964, 634.921
776.246, 568.727
777.529, 448.529
778.811, 350.328
780.093, 263.122
781.375, 236.911
782.656, 204.695
783.937, 120.283
785.219, 50.656
786.499, 59.482
787.780, 36.787
789.060, 34.284
790.341, 21.308
791.621, 32.573
792.901, 48.865
794.180, 93.195
795.459, 25.584
796.739, 79.998
798.017, 92.463
799.296, 47.987
800.575, 67.546
801.853, 55.149
803.131, 16.791
804.409, 1.417
805.686, 52.420
806.964, 88.932
808.241, 192.863
809.518, 227.146
810.795, 265.115
812.071, 332.067
813.347, 215.002
814.623, 253.101
815.899, 201.936
817.175, 95.690
818.450, 80.258
819.726, 22.705
821.001, 3.588
822.275, 34.095
823.550, 63.792
824.824, 21.517
826.098, 53.250
827.372, 8.003
828.646, 20.759
829.920, 58.521
831.193, 24.306
832.466, 52.097
833.739, 2.897
835.011, 7.670
836.284, 50.570
837.556, 56.826
838.828, 102.110
840.100, 147.429
841.371, 159.754
842.642, 159.094
843.914, 257.439
845.184, 298.791
846.455, 297.148
847.726, 359.510
848.996, 321.877
850.266, 463.251
851.536, 394.631
852.805, 427.017
854.075, 420.409
855.344, 361.812
856.613, 382.221
857.881, 343.642
859.150, 281.074
860.418, 358.524
861.686, 306.986
862.954, 396.453
864.222, 385.935
865.489, 327.429
866.756, 422.928
868.023, 361.450
869.290, 400.978
870.557, 386.518
871.823, 439.063
873.089, 478.622
874.355, 504.186
875.621, 523.756
876.886, 534.333
878.152, 582.920
879.417, 600.515
880.682, 718.136
881.946, 707.763
883.211, 886.398
884.475, 882.045
885.739, 964.701
887.003, 1092.368
888.266, 1226.041
889.530, 1439.721
890.793, 1554.414
892.056, 1802.115
893.318, 2068.824
894.581, 2257.553
895.843, 2609.291
897.105, 2789.042
898.367, 3025.807
899.629, 3215.587
900.890, 3248.391
902.152, 3489.204
903.413, 3484.024
904.673, 3409.862
905.934, 3483.709
907.194, 3323.569
908.454, 3127.438
909.714, 2974.317
910.974, 2668.210
912.234, 2439.115
913.493, 2103.026
914.752, 1906.952
916.011, 1721.887
917.270, 1421.840
918.528, 1373.804
919.786, 1227.776
921.044, 1121.767
922.302, 1152.780
923.560, 1078.801
924.817, 1197.841
926.074, 1171.890
927.331, 1182.949
928.588, 1249.020
929.844, 1186.101
931.101, 1184.192
932.357, 1253.292
933.613, 1195.403
934.868, 1247.524
936.124, 1230.655
937.379, 1349.799
938.634, 1472.963
939.889, 1566.140
941.144, 1705.329
942.398, 1844.583
943.652, 2107.156
944.906, 2468.738
946.160, 2676.568
947.414, 3142.674
948.667, 3286.399
949.920, 3631.377
951.173, 4044.183
952.426, 4145.803
953.678, 4550.240
954.931, 5005.085
956.183, 5368.992
957.435, 6212.349
958.686, 6744.733
959.938, 7498.134
961.189, 7937.579
962.440, 7917.057
963.691, 7736.565
964.941, 7157.110
966.192, 6478.688
967.442, 5859.298
968.692, 5325.933
969.942, 4990.584
971.191, 5021.303
972.441, 4977.979
973.690, 5225.195
974.939, 5422.757
976.187, 5612.638
977.436, 5734.900
978.684, 5457.393
979.932, 5392.400
981.180, 4916.482
982.428, 4764.390
983.675, 4543.942
984.922, 4392.686
986.169, 4547.325
987.416, 4464.186
988.663, 4288.061
989.909, 4535.951
991.155, 4310.853
992.401, 4412.771
993.647, 4445.702
994.893, 4362.766
996.138, 4577.727
997.383, 4757.703
998.628, 5008.698
999.873, 5309.707
1001.117, 5230.731
1002.362, 5284.770
1003.606, 4982.968
1004.850, 4629.035
1006.093, 4250.250
1007.337, 3649.319
1008.580, 3224.431
1009.823, 2773.734
1011.066, 2391.617
1012.308, 2078.777
1013.551, 1806.491
1014.793, 1536.231
1016.035, 1469.433
1017.277, 1315.542
1018.518, 1306.775
1019.760, 1244.290
1021.001, 1191.547
1022.242, 1335.299
1023.483, 1281.583
1024.723, 1252.879
1025.964, 1253.188
1027.204, 1073.250
1028.444, 1103.859
1029.683, 904.643
1030.923, 859.000
1032.162, 771.372
1033.401, 656.121
1034.640, 619.753
1035.879, 611.666
1037.117, 533.083
1038.355, 533.513
1039.593, 495.010
1040.831, 554.542
1042.069, 542.004
1043.306, 513.466
1044.544, 613.949
1045.781, 594.715
1047.017, 576.654
1048.254, 699.518
1049.490, 598.815
1050.726, 749.352
1051.962, 758.897
1053.198, 737.408
1054.434, 841.972
1055.669, 739.815
1056.904, 700.461
1058.139, 726.151
1059.374, 596.217
1060.608, 597.827
1061.843, 499.446
1063.077, 476.223
1064.311, 501.860
1065.544, 416.764
1066.778, 398.453
1068.011, 480.113
1069.244, 460.757
1070.477, 510.216
1071.710, 564.899
1072.942, 596.671
1074.174, 674.368
1075.406, 716.071
1076.638, 806.364
1077.870, 992.093
1079.101, 896.095
1080.332, 1068.848
1081.563, 943.626
1082.794, 812.477
1084.025, 760.233
1085.255, 676.150
1086.485, 610.113
1087.715, 519.886
1088.945, 462.965
1090.175, 459.585
1091.404, 382.425
1092.633, 408.819
1093.862, 463.665
1095.091, 359.806
1096.319, 425.935
1097.548, 430.857
1098.776, 477.942
1100.004, 544.485
1101.231, 520.485
1102.459, 604.836
1103.686, 587.954
1104.913, 477.123
1106.140, 551.446
1107.367, 511.493
1108.593, 446.570
1109.819, 465.780
1111.046, 296.835
1112.271, 329.092
1113.497, 279.177
1114.722, 272.284
1115.948, 301.515
1117.173, 233.662
1118.398, 258.798
1119.622, 349.978
1120.847, 263.054
1122.071, 275.323
1123.295, 154.498
1124.519, 113.602
1125.742, 167.472
1126.966, 95.637
1128.189, 87.037
1129.412, 98.598
1130.635, 56.739
1131.857, 111.240
1133.080, 23.392
1134.302, 49.546
1135.524, 44.769
1136.746, 54.921
1137.967, 37.073
1139.188, 66.574
1140.410, 16.726
1141.631, 6.779
1142.851, 52.534
1144.072, 7.793
1145.292, 12.495
1146.512, 33.781
1147.732, 54.063
1148.952, 40.663
1150.172, 7.106
1151.391, 66.200
1152.610, 6.191
1153.829, 27.012
1155.048, 22.949
1156.266, 29.722
1157.484, 21.104
1158.702, 6.687
1159.920, 34.097
1161.138, 33.793
1162.356, 4.667
1163.573, 70.238
1164.790, 8.172
1166.007, 26.729
1167.224, 25.284
1168.440, 29.384
1169.656, 17.733
1170.872, 16.996
1172.088, 11.281
1173.304, 14.777
1174.519, 5.490
1175.735, 73.352
1176.950, 25.523
1178.165, 16.205
1179.379, 22.828
1180.594, 2.816
1181.808, 7.469
1183.022, 19.352
1184.236, 43.503
1185.449, 15.441
1186.663, 2.349
1187.876, 33.281
1189.089, 44.825
1190.302, 56.958
1191.515, 16.381
1192.727, 18.525
1193.939, 16.729
1195.151, 54.902
1196.363, 57.838
1197.575, 50.518
1198.786, 24.726
1199.997, 45.861
1201.208, 12.902
1202.419, 17.654
1203.630, 10.264
1204.840, 14.794
1206.051, 59.720
1207.261, 61.359
1208.470, 8.569
1209.680, 79.906
1210.889, 25.474
1212.099, 32.962
1213.308, 51.387
1214.516, 19.858
1215.725, 32.349
1216.933, 47.151
1218.142, 20.483
1219.350, 77.830
1220.557, 50.235
1221.765, 4.678
1222.972, 47.954
1224.180, 13.893
1225.387, 50.180
1226.593, 46.447
1227.800, 32.242
1229.006, 91.488
1230.213, 22.848
1231.419, 21.041
1232.624, 63.223
1233.830, 17.626
1235.035, 4.783
1236.241, 52.927
1237.446, 12.221
1238.650, 67.341
1239.855, 23.698
1241.059, 25.795
1242.264, 88.881
1243.468, 38.958
1244.671, 15.022
1245.875, 112.073
1247.078, 24.113
1248.282, 53.159
1249.485, 43.174
1250.687, 28.318
1251.890, 111.304
1253.092, 70.270
1254.295, 40.301
1255.497, 93.241
1256.699, 37.170
1257.900, 74.223
1259.102, 70.123
1260.303, 43.009
1261.504, 62.873
1262.705, 66.720
1263.905, 58.637
1265.106, 94.529
1266.306, 44.326
1267.506, 68.097
1268.706, 105.851
1269.905, 18.589
1271.105, 77.301
1272.304, 38.997
1273.503, 4.835
1274.702, 107.491
1275.900, 36.129
1277.099, 105.831
1278.297, 121.443
1279.495, 76.026
1280.693, 101.591
1281.891, 97.146
1283.088, 38.679
1284.285, 94.252
1285.482, 39.746
1286.679, 56.183
1287.876, 68.643
1289.072, 5.084
1290.268, 67.158
1291.464, 68.559
1292.660, 37.939
1293.856, 80.356
1295.051, 61.554
1296.247, 37.910
1297.442, 91.117
1298.637, 23.438
1299.831, 56.749
1301.026, 34.818
1302.220, 3.302
1303.414, 70.503
1304.608, 52.148
1305.802, 37.765
1306.995, 87.897
1308.188, 5.117
1309.381, 73.209
1310.574, 89.057
1311.767, 38.118
1312.960, 57.678
1314.152, 40.703
1315.344, 38.711
1316.536, 134.853
1317.728, 37.084
1318.919, 49.764
1320.110, 106.378
1321.301, 14.297
1322.492, 68.198
1323.683, 51.717
1324.874, 24.346
1326.064, 126.688
1327.254, 34.520
1328.444, 42.336
1329.634, 115.078
1330.823, 55.780
1332.013, 63.546
1333.202, 79.390
1334.391, 8.084
1335.580, 54.488
1336.768, 62.712
1337.956, 49.003
1339.145, 56.855
1340.333, 69.460
1341.520, 49.050
1342.708, 106.667
1343.895, 9.224
1345.083, 90.494
1346.270, 66.013
1347.456, 19.440
1348.643, 83.460
1349.829, 47.940
1351.016, 10.391
1352.202, 96.751
1353.387, 42.167
1354.573, 81.306
1355.759, 85.652
1356.944, 20.021
1358.129, 46.398
1359.314, 37.954
1360.498, 67.277
1361.683, 100.503
1362.867, 46.843
1364.051, 35.121
1365.235, 86.806
1366.419, 14.880
1367.602, 62.085
1368.785, 64.372
1369.968, 3.553
1371.151, 63.676
1372.334, 34.119
1373.517, 78.774
1374.699, 85.646
1375.881, 23.532
1377.063, 87.906
1378.245, 86.595
1379.426, 22.716
1380.608, 83.455
1381.789, 21.980
1382.970, 74.597
1384.150, 86.113
1385.331, 70.701
1386.511, 74.246
1387.691, 121.903
1388.871, 87.332
1390.051, 66.813
1391.231, 133.252
1392.410, 37.787
1393.589, 111.451
1394.768, 98.008
1395.947, 51.107
1397.126, 103.587
1398.304, 74.957
1399.483, 35.953
1400.661, 106.913
1401.838, 73.922
1403.016, 91.095
1404.194, 70.597
1405.371, 46.486
1406.548, 47.995
1407.725, 107.766
1408.901, 66.944
1410.078, 104.542
1411.254, 63.000
1412.430, 72.023
1413.606, 93.556
1414.782, 22.950
1415.958, 75.488
1417.133, 131.656
1418.308, 37.489
1419.483, 55.075
1420.658, 119.284
1421.832, 88.344
1423.007, 55.040
1424.181, 58.709
1425.355, 39.938
1426.529, 148.437
1427.702, 36.117
1428.876, 59.824
1430.049, 114.667
1431.222, 37.206
1432.395, 82.477
1433.567, 71.372
1434.740, 38.990
1435.912, 131.268
1437.084, 44.694
1438.256, 44.581
1439.428, 118.038
1440.599, 36.758
1441.770, 51.497
1442.942, 122.162
1444.112, 66.662
1445.283, 89.969
1446.454, 89.722
1447.624, 65.875
1448.794, 108.950
1449.964, 63.507
1451.134, 32.025
1452.303, 134.458
1453.473, 100.563
1454.642, 60.981
1455.811, 84.195
1456.980, 7.208
1458.148, 130.526
1459.317, 99.859
1460.485, 10.752
1461.653, 83.090
1462.821, 73.443
1463.989, 83.824
1465.156, 114.735
1466.323, 64.852
1467.490, 104.183
1468.657, 119.532
1469.824, 54.698
1470.991, 56.811
1472.157, 117.156
1473.323, 0.302
1474.489, 122.188
1475.655, 126.134
1476.820, 56.030
1477.986, 128.890
1479.151, 65.923
1480.316, 77.921
1481.481, 94.042
1482.645, 26.953
1483.810, 31.012
1484.974, 61.046
1486.138, 7.282
1487.302, 15.624
1488.465, 58.525
1489.629, 17.385
1490.792, 130.211
1491.955, 0.978
1493.118, 38.688
1494.281, 66.005
1495.443, 24.178
1496.606, 60.376
1497.768, 76.585
1498.930, 44.813
1500.091, 91.460
1501.253, 72.544
1502.414, 8.795
1503.575, 75.231
1504.736, 34.812
1505.897, 4.469
1507.058, 105.279
1508.218, 6.200
1509.379, 30.490
1510.539, 21.666
1511.698, 0.287
1512.858, 0.000
##END=



