##NAMES=Axinite-(Fe)
##RRUFFID=R040074
##IDEAL CHEMISTRY=Ca_4_Fe^2+^_2_Al_4_[B_2_Si_8_O_30_](OH)_2_
##LOCALITY=Luning, Nevada, USA
##OWNER=RRUFF
##SOURCE=University of Arizona Mineral Museum
##DESCRIPTION=Pale brown wedge-shaped crystal
##STATUS=The identification of this mineral has been confirmed by X-ray diffraction and chemical analysis
##URL=rruff.info/R040074
##MEASURED CHEMISTRY=(Ca_0.98_Mn_0.01_)_2_(Fe_0.41_Mg_0.39_Mn_0.20_)Al_1.95_B_1.20_Si_3.90_O_15_(OH)
##PIN_ID=L00132
##ORIENTATION=Laser parallel to (-1 -1 0). Fiducial mark perpendicular to laser is parallel to c [0 0 1]
91.398, 0.000
92.793, 98.271
94.188, 20.220
95.582, 235.279
96.976, 183.543
98.370, 692.569
99.764, 1164.866
101.157, 1485.346
102.550, 2130.553
103.943, 3208.041
105.336, 4925.895
106.729, 6312.404
108.121, 7946.258
109.513, 8036.479
110.905, 7282.628
112.297, 6364.002
113.688, 4759.926
115.079, 3980.340
116.470, 3245.278
117.861, 3873.121
119.251, 3353.593
120.642, 2376.461
122.032, 1821.523
123.422, 1288.608
124.811, 1137.565
126.201, 818.261
127.590, 691.719
128.979, 559.080
130.367, 517.645
131.756, 347.346
133.144, 258.114
134.532, 319.853
135.920, 464.485
137.307, 705.885
138.695, 1064.863
140.082, 1679.426
141.469, 2154.306
142.856, 2589.861
144.242, 2996.066
145.628, 2992.927
147.014, 3320.445
148.400, 3278.593
149.786, 3347.340
151.171, 3556.663
152.556, 3626.535
153.941, 3596.958
155.325, 3217.931
156.710, 3229.430
158.094, 3421.428
159.478, 3643.900
160.862, 3616.845
162.245, 3081.835
163.629, 3257.701
165.012, 3378.479
166.395, 4413.524
167.777, 6018.950
169.160, 8154.738
170.542, 10550.863
171.924, 11257.311
173.306, 11544.062
174.687, 9400.985
176.068, 7957.734
177.449, 6054.410
178.830, 4061.092
180.211, 2467.828
181.591, 1144.653
182.972, 441.595
184.351, 91.328
185.731, 194.099
187.111, 186.706
188.490, 30.858
189.869, 958.604
191.248, 1976.530
192.626, 3404.643
194.005, 4552.942
195.383, 4851.443
196.761, 4200.340
198.139, 3109.826
199.516, 2680.002
200.893, 2490.534
202.271, 2961.210
203.647, 3572.036
205.024, 4503.006
206.400, 5624.120
207.777, 6495.381
209.152, 8046.783
210.528, 8808.323
211.904, 10359.994
213.279, 10421.850
214.654, 10834.287
216.029, 10887.302
217.403, 9840.520
218.778, 9013.830
220.152, 7317.238
221.526, 6190.705
222.900, 4604.209
224.273, 3607.807
225.646, 2611.494
227.019, 1735.287
228.392, 1249.319
229.765, 563.925
231.137, 397.801
232.509, 28.182
233.881, 417.521
235.253, 378.526
236.625, 463.379
237.996, 118.181
239.367, 37.066
240.738, 312.361
242.108, 677.703
243.479, 1183.091
244.849, 1738.519
246.219, 2403.814
247.589, 3298.959
248.958, 3944.125
250.328, 4529.328
251.697, 5094.564
253.065, 5139.832
254.434, 5345.133
255.803, 4640.461
257.171, 4432.564
258.539, 4035.621
259.906, 3859.266
261.274, 3965.007
262.641, 3891.736
264.008, 4799.311
265.375, 5137.618
266.742, 5926.572
268.108, 6686.104
269.475, 7206.152
270.840, 7856.670
272.206, 7607.618
273.572, 7988.956
274.937, 7620.658
276.302, 7282.694
277.667, 6795.041
279.032, 5957.676
280.396, 5640.578
281.760, 4233.726
283.125, 3697.104
284.488, 2860.701
285.852, 2684.505
287.215, 2628.506
288.578, 2822.694
289.941, 3847.062
291.304, 4631.597
292.666, 6366.291
294.029, 7491.125
295.391, 9436.091
296.753, 11381.665
298.114, 12616.881
299.476, 14360.893
300.837, 14856.639
302.198, 15434.123
303.558, 15603.936
304.919, 15122.262
306.279, 15104.885
307.639, 13301.974
308.999, 12587.902
310.359, 10673.912
311.718, 9010.010
313.077, 7966.188
314.436, 6952.447
315.795, 7318.819
317.154, 7535.275
318.512, 8531.806
319.870, 8958.408
321.228, 8945.074
322.586, 8761.803
323.943, 7008.592
325.300, 5765.438
326.657, 4202.330
328.014, 3309.045
329.371, 2685.643
330.727, 2082.289
332.083, 2138.982
333.439, 1895.084
334.795, 2269.181
336.150, 2808.807
337.506, 3341.961
338.861, 4652.949
340.215, 5761.037
341.570, 8028.021
342.924, 9295.063
344.279, 11012.138
345.633, 11689.250
346.986, 11226.391
348.340, 11072.477
349.693, 10326.499
351.046, 10610.735
352.399, 10588.006
353.752, 10405.303
355.104, 9922.632
356.457, 7729.984
357.809, 6147.366
359.160, 3954.772
360.512, 2524.695
361.863, 1757.832
363.214, 727.938
364.565, 492.967
365.916, 46.605
367.267, 79.297
368.617, 203.307
369.967, 396.557
371.317, 166.932
372.666, 275.293
374.016, 67.185
375.365, 79.951
376.714, 72.745
378.063, 84.434
379.411, 131.609
380.760, 698.781
382.108, 1005.949
383.456, 2023.111
384.803, 3380.270
386.151, 4827.421
387.498, 6704.565
388.845, 8081.703
390.192, 9778.835
391.539, 9885.956
392.885, 9783.066
394.231, 9640.071
395.577, 8156.563
396.923, 7211.600
398.269, 5317.824
399.614, 4320.591
400.959, 3295.104
402.304, 2681.658
403.649, 2478.196
404.993, 1974.719
406.337, 1951.224
407.681, 1567.713
409.025, 1544.185
410.369, 1730.641
411.712, 2017.079
413.055, 2993.503
414.398, 3909.906
415.741, 5496.295
417.084, 6932.664
418.426, 7639.016
419.768, 8345.412
421.110, 7771.848
422.452, 8178.320
423.793, 8434.818
425.134, 9621.339
426.475, 11487.876
427.816, 13034.428
429.157, 15170.987
430.497, 15737.557
431.837, 16214.129
433.177, 15310.705
434.517, 12607.281
435.857, 10643.852
437.196, 8160.422
438.535, 6546.986
439.874, 5343.543
441.213, 4870.090
442.551, 5206.627
443.889, 4883.150
445.227, 5229.662
446.565, 4806.160
447.903, 3902.641
449.240, 3229.105
450.577, 1715.555
451.914, 1371.980
453.251, 718.389
454.588, 764.775
455.924, 311.141
457.260, 147.484
458.596, 323.795
459.932, 39.916
461.267, 63.738
462.602, 87.684
463.938, 281.768
465.272, 96.090
466.607, 320.557
467.941, 134.711
469.276, 299.936
470.610, 535.129
471.943, 820.295
473.277, 565.430
474.610, 480.695
475.944, 523.008
477.276, 380.561
478.609, 586.785
479.942, 651.758
481.274, 1296.711
482.606, 1811.629
483.938, 2386.559
485.270, 2821.455
486.601, 3006.318
487.932, 2521.203
489.263, 1466.086
490.594, 820.934
491.925, 285.758
493.255, 9.455
494.585, 134.773
495.915, 380.289
497.245, 116.098
498.575, 79.523
499.904, 204.771
501.233, 330.402
502.562, 458.029
503.891, 951.711
505.219, 915.348
506.548, 1358.949
507.876, 1632.506
509.203, 1596.027
510.531, 1899.592
511.859, 1573.186
513.186, 1636.748
514.513, 1410.350
515.840, 913.922
517.166, 797.531
518.493, 491.182
519.819, 184.828
521.145, 88.490
522.470, 37.902
523.796, 274.381
525.121, 251.033
526.446, 97.957
527.771, 289.625
529.096, 308.227
530.421, 48.609
531.745, 86.553
533.069, 219.119
534.393, 345.740
535.716, 541.594
537.040, 1077.686
538.363, 1599.617
539.686, 2611.508
541.009, 3383.352
542.331, 3895.152
543.654, 4536.912
544.976, 5078.625
546.298, 5650.293
547.620, 4991.920
548.941, 5353.500
550.263, 4705.037
551.584, 4036.527
552.905, 3907.975
554.225, 3909.377
555.546, 4560.740
556.866, 5122.111
558.186, 5543.484
559.506, 6864.879
560.826, 6576.242
562.145, 7077.561
563.465, 6288.834
564.784, 5380.066
566.103, 5111.254
567.421, 4492.400
568.740, 4693.502
570.058, 4874.562
571.376, 4765.578
572.694, 5596.553
574.011, 5407.480
575.329, 6058.365
576.646, 5639.207
577.963, 5320.004
579.279, 5730.760
580.596, 5221.471
581.912, 6012.135
583.228, 6202.758
584.544, 7353.332
585.860, 8313.863
587.175, 9154.348
588.491, 10244.789
589.806, 9895.180
591.121, 9165.531
592.435, 8095.832
593.750, 6476.090
595.064, 5386.301
596.378, 4106.465
597.692, 3566.582
599.006, 2996.656
600.319, 2636.680
601.632, 2524.947
602.945, 2486.590
604.258, 2696.477
605.571, 2786.316
606.883, 3186.109
608.195, 3655.855
609.507, 3605.555
610.819, 3805.207
612.131, 3814.814
613.442, 3574.375
614.753, 3643.891
616.064, 3102.879
617.375, 2842.301
618.685, 2612.994
619.995, 2382.020
621.306, 2259.375
622.615, 1814.387
623.925, 1660.895
625.235, 1213.164
626.544, 1071.020
627.853, 810.096
629.162, 539.131
630.471, 608.125
631.779, 257.080
633.087, 24.008
634.395, 94.795
635.703, 163.533
637.011, 462.223
638.318, 563.145
639.625, 881.900
640.932, 1400.061
642.239, 1229.367
643.546, 1798.258
644.852, 1519.451
646.158, 1505.172
647.464, 1483.541
648.770, 1153.979
650.076, 1062.264
651.381, 584.330
652.686, 495.219
653.991, 260.576
655.296, 52.406
656.600, 166.385
657.905, 73.266
659.209, 1.236
660.513, 379.137
661.817, 246.998
663.120, 744.824
664.423, 752.619
665.726, 1070.379
667.029, 1733.188
668.332, 1993.672
669.635, 3133.051
670.937, 3919.566
672.239, 5548.715
673.541, 7045.000
674.842, 8750.859
676.144, 10227.516
677.445, 10701.934
678.746, 10562.707
680.047, 9684.275
681.348, 7869.945
682.648, 6661.248
683.948, 5207.656
685.248, 4224.875
686.548, 3577.174
687.848, 2734.320
689.147, 2677.336
690.447, 2185.363
691.746, 2132.729
693.044, 2260.090
694.343, 2187.973
695.641, 2715.301
696.940, 2812.598
698.238, 3399.863
699.535, 4047.098
700.833, 4714.305
702.130, 6151.477
703.427, 7578.623
704.724, 9785.734
706.021, 12352.820
707.318, 15259.879
708.614, 20686.900
709.910, 26093.900
711.206, 33010.879
712.502, 40277.816
713.798, 43054.727
715.093, 43987.512
716.388, 44208.469
717.683, 38605.301
718.978, 33852.094
720.272, 25408.871
721.567, 21495.619
722.861, 15812.344
724.155, 12859.039
725.448, 10555.711
726.742, 8002.355
728.035, 7138.977
729.328, 5635.568
730.621, 4582.139
731.914, 4348.684
733.206, 2955.203
734.499, 3401.699
735.791, 2648.172
737.083, 2074.623
738.374, 2211.049
739.666, 1647.453
740.957, 1693.836
742.248, 1510.191
743.539, 1236.527
744.830, 1522.840
746.120, 1319.131
747.410, 1265.402
748.701, 1351.652
749.990, 1357.881
751.280, 1424.092
752.570, 1680.281
753.859, 1786.447
755.148, 1862.594
756.437, 1988.721
757.725, 2421.742
759.014, 2760.920
760.302, 3396.994
761.590, 4053.049
762.878, 4559.086
764.166, 5585.104
765.453, 5811.105
766.740, 6997.088
768.027, 7133.057
769.314, 6709.006
770.601, 7094.941
771.887, 5910.867
773.174, 5286.771
774.460, 4552.705
775.745, 3368.676
777.031, 3394.684
778.316, 2220.785
779.602, 2056.932
780.887, 1823.182
782.172, 1159.426
783.456, 1285.658
784.741, 981.877
786.025, 698.082
787.309, 664.111
788.593, 353.053
789.876, 236.709
791.160, 141.646
792.443, 12.205
793.726, 103.904
795.009, 130.002
796.291, 15.994
797.574, 51.969
798.856, 182.068
800.138, 96.232
801.420, 199.523
802.702, 14.727
803.983, 150.986
805.264, 33.307
806.545, 232.400
807.826, 128.180
809.107, 354.066
810.387, 667.447
811.667, 443.000
812.947, 647.164
814.227, 559.285
815.507, 325.309
816.786, 651.324
818.065, 237.338
819.344, 283.348
820.623, 230.650
821.902, 194.787
823.180, 19.045
824.459, 293.328
825.737, 17.783
827.014, 292.262
828.292, 286.908
829.569, 141.723
830.847, 306.625
832.124, 141.688
833.401, 266.811
834.677, 412.027
835.954, 42.648
837.230, 252.562
838.506, 137.832
839.782, 73.059
841.057, 38.201
842.333, 186.686
843.608, 28.367
844.883, 396.584
846.158, 191.535
847.433, 3.512
848.707, 371.430
849.981, 76.371
851.255, 241.342
852.529, 456.311
853.803, 361.279
855.076, 536.258
856.350, 251.238
857.623, 546.232
858.895, 631.242
860.168, 726.256
861.441, 911.281
862.713, 616.367
863.985, 661.453
865.257, 856.621
866.528, 381.791
867.800, 816.967
869.071, 752.188
870.342, 487.412
871.613, 932.662
872.884, 597.926
874.154, 893.197
875.425, 938.547
876.695, 943.904
877.965, 1209.266
879.234, 864.650
880.504, 1340.045
881.773, 945.451
883.042, 920.867
884.311, 1196.293
885.580, 1271.727
886.848, 1327.170
888.117, 1702.621
889.385, 1398.096
890.653, 1943.580
891.920, 2149.070
893.188, 2514.570
894.455, 2930.082
895.722, 2935.598
896.989, 3941.125
898.256, 4376.666
899.523, 4702.215
900.789, 5657.773
902.055, 5683.346
903.321, 5968.930
904.587, 6424.523
905.852, 5360.137
907.118, 5165.760
908.383, 4441.396
909.648, 4067.094
910.913, 3882.805
912.177, 2848.527
913.442, 2894.268
914.706, 2480.020
915.970, 2235.809
917.233, 2121.611
918.497, 1920.979
919.760, 1843.264
921.024, 1719.115
922.287, 1654.980
923.550, 1510.859
924.812, 1716.758
926.075, 1702.668
927.337, 1768.594
928.599, 1554.537
929.861, 1748.215
931.122, 1736.461
932.384, 1932.443
933.645, 2048.439
934.906, 1964.445
936.167, 2040.461
937.428, 2046.488
938.688, 2092.529
939.948, 2438.586
941.208, 2364.689
942.468, 2700.816
943.728, 2806.957
944.987, 2880.842
946.247, 3576.859
947.506, 3563.449
948.765, 4158.865
950.023, 4974.668
951.282, 4828.145
952.540, 6227.062
953.798, 6533.309
955.056, 7517.459
956.314, 9063.730
957.572, 10216.830
958.829, 12543.129
960.086, 14429.445
961.343, 16765.771
962.600, 19772.125
963.856, 19828.498
965.113, 21534.879
966.369, 20561.303
967.625, 18797.736
968.881, 19004.176
970.136, 16520.660
971.392, 16977.152
972.647, 17538.572
973.902, 17642.299
975.157, 20037.107
976.411, 20984.756
977.666, 22589.746
978.920, 24117.580
980.174, 22595.816
981.428, 21953.234
982.682, 20450.381
983.935, 17047.953
985.188, 16697.756
986.441, 14008.529
987.694, 13185.055
988.947, 12618.086
990.199, 10936.328
991.452, 11408.723
992.704, 10993.387
993.956, 10760.160
995.207, 11629.414
996.459, 11276.234
997.710, 12923.369
998.961, 13269.723
1000.212, 13956.631
1001.463, 16139.777
1002.714, 15866.740
1003.964, 16253.736
1005.214, 15782.375
1006.464, 14379.430
1007.714, 14309.301
1008.964, 12239.277
1010.213, 10676.424
1011.462, 9685.973
1012.711, 7595.668
1013.960, 7252.900
1015.209, 6098.453
1016.457, 5065.742
1017.705, 4803.291
1018.954, 4140.361
1020.201, 4017.740
1021.449, 3849.357
1022.697, 3829.191
1023.944, 3786.656
1025.191, 3751.740
1026.438, 3689.268
1027.685, 4006.822
1028.931, 3788.381
1030.177, 3755.996
1031.423, 3814.637
1032.669, 3193.385
1033.915, 3651.172
1035.161, 3029.598
1036.406, 3067.561
1037.651, 3145.352
1038.896, 2936.410
1040.141, 3234.385
1041.386, 3422.270
1042.630, 3080.184
1043.874, 3458.129
1045.118, 2976.104
1046.362, 3084.113
1047.606, 3242.154
1048.849, 3250.732
1050.092, 3648.840
1051.336, 3846.979
1052.578, 4025.830
1053.821, 4474.033
1055.064, 4303.625
1056.306, 5001.896
1057.548, 5330.205
1058.790, 4960.016
1060.032, 5718.393
1061.273, 5247.268
1062.515, 5016.207
1063.756, 4844.691
1064.997, 3978.520
1066.237, 4167.080
1067.478, 3225.658
1068.718, 2935.602
1069.959, 3314.217
1071.199, 2782.869
1072.438, 2971.951
1073.678, 3180.619
1074.918, 3079.656
1076.157, 4188.348
1077.396, 4087.049
1078.635, 4925.889
1079.873, 6244.322
1081.112, 6362.789
1082.350, 7521.178
1083.588, 7789.520
1084.826, 7327.762
1086.064, 7505.961
1087.301, 6184.133
1088.539, 5773.416
1089.776, 4791.584
1091.013, 3759.770
1092.250, 3757.924
1093.486, 3326.092
1094.723, 2664.287
1095.959, 2832.496
1097.195, 2080.756
1098.431, 2209.020
1099.666, 2097.270
1100.902, 1685.584
1102.137, 2183.760
1103.372, 1891.914
1104.607, 1739.986
1105.842, 2128.041
1107.076, 1626.076
1108.311, 1724.820
1109.545, 1562.795
1110.779, 1140.742
1112.012, 1388.777
1113.246, 1206.680
1114.479, 834.564
1115.712, 1042.441
1116.945, 640.273
1118.178, 804.846
1119.411, 822.646
1120.643, 630.428
1121.875, 1068.254
1123.108, 846.111
1124.339, 663.971
1125.571, 751.896
1126.802, 99.803
1128.034, 597.777
1129.265, 325.826
1130.496, 213.914
1131.727, 361.723
1132.957, 79.531
1134.187, 307.480
1135.418, 445.371
1136.648, 66.812
1137.877, 431.010
1139.107, 18.799
1140.336, 166.580
1141.566, 245.146
1142.795, 97.834
1144.023, 293.021
1145.252, 6.061
1146.480, 234.893
1147.709, 285.881
1148.937, 123.090
1150.165, 57.955
1151.392, 349.033
1152.620, 39.957
1153.847, 200.938
1155.074, 58.158
1156.301, 57.268
1157.528, 253.627
1158.755, 45.596
1159.981, 204.785
1161.207, 386.043
1162.433, 293.098
1163.659, 117.797
1164.885, 48.725
1166.110, 150.318
1167.336, 280.688
1168.561, 58.262
1169.786, 27.166
1171.010, 343.977
1172.235, 264.840
1173.459, 176.371
1174.683, 217.570
1175.907, 41.254
1177.131, 399.957
1178.355, 11.152
1179.578, 12.377
1180.801, 143.637
1182.024, 34.934
1183.247, 126.266
1184.470, 187.641
1185.692, 10.936
1186.915, 160.541
1188.137, 232.076
1189.359, 203.666
1190.580, 405.318
1191.802, 304.414
1193.023, 268.818
1194.244, 270.674
1195.465, 112.602
1196.686, 264.605
1197.907, 336.689
1199.127, 108.855
1200.347, 461.107
1201.567, 73.457
1202.787, 555.906
1204.007, 568.416
1205.226, 99.016
1206.446, 583.666
1207.665, 176.465
1208.884, 179.381
1210.102, 622.422
1211.321, 15.596
1212.539, 468.906
1213.758, 398.330
1214.976, 131.871
1216.193, 567.570
1217.411, 580.631
1218.628, 244.322
1219.846, 464.938
1221.063, 255.039
1222.280, 442.496
1223.496, 609.621
1224.713, 259.221
1225.929, 419.621
1227.145, 451.113
1228.361, 399.662
1229.577, 644.914
1230.793, 221.812
1232.008, 631.947
1233.223, 581.543
1234.438, 65.672
1235.653, 642.969
1236.868, 371.639
1238.082, 561.020
1239.297, 499.645
1240.511, 338.047
1241.725, 486.205
1242.938, 492.463
1244.152, 277.766
1245.365, 590.328
1246.578, 526.922
1247.791, 252.158
1249.004, 633.043
1250.217, 246.543
1251.429, 338.855
1252.642, 595.162
1253.854, 64.252
1255.066, 332.959
1256.277, 342.516
1257.489, 162.109
1258.700, 583.217
1259.911, 235.287
1261.122, 338.100
1262.333, 644.582
1263.544, 73.387
1264.754, 568.119
1265.964, 628.828
1267.174, 238.957
1268.384, 639.602
1269.594, 331.887
1270.803, 504.963
1272.013, 662.119
1273.222, 184.789
1274.431, 588.775
1275.640, 313.158
1276.848, 463.229
1278.057, 398.994
1279.265, 83.104
1280.473, 364.615
1281.681, 451.982
1282.888, 80.746
1284.096, 222.180
1285.303, 357.834
1286.510, 1.490
1287.717, 0.000
##END=



