##NAMES=Axinite-(Fe)
##RRUFFID=R060194
##IDEAL CHEMISTRY=Ca_4_Fe^2+^_2_Al_4_[B_2_Si_8_O_30_](OH)_2_
##LOCALITY=near Dalbandi, Baluchistan Province, Pakistan
##OWNER=RRUFF
##SOURCE=Herbert Obodda
##DESCRIPTION=Brown transparent wedge-shaped single crystal
##STATUS=The identification of this mineral has been confirmed by X-ray diffraction and chemical analysis
##URL=rruff.info/R060194
##MEASURED CHEMISTRY=Ca_2.00_(Fe^2+^_0.66_Mg_0.30_Mn_0.04_)Al_2.00_BSi_4.00_O_15_(OH)
##PIN_ID=L01072
##ORIENTATION=Laser parallel to -c* (0 0 -1). Fiducial mark perpendicular to laser is parallel to a [1 0 0]
53.91000, 0.0000000E+00
55.14900, 37.99670
56.38700, 121.3789
57.62600, 209.9664
58.86400, 249.0005
60.10300, 310.5071
61.34100, 519.5764
62.57900, 445.1672
63.81700, 343.7941
65.05400, 337.7721
66.29200, 191.8595
67.52900, 35.74072
68.76700, 47.81165
70.00400, 25.96716
71.24100, 165.8512
72.47700, 161.6321
73.71400, 24.89038
74.95100, 220.9312
76.18700, 145.7080
77.42300, 29.58350
78.65900, 93.76685
79.89500, 86.68286
81.13100, 109.1914
82.36700, 231.1672
83.60200, 465.5007
84.83700, 732.0938
86.07200, 903.1523
87.30800, 1198.166
88.54200, 1368.602
89.77700, 1765.447
91.01200, 2101.196
92.24600, 2431.745
93.48000, 3185.964
94.71400, 3639.731
95.94800, 4008.936
97.18200, 4761.504
98.41600, 5576.407
99.64900, 6396.605
100.8830, 7680.049
102.1160, 9141.697
103.3490, 10034.51
104.5820, 11294.48
105.8150, 12576.54
107.0470, 14577.71
108.2800, 16660.96
109.5120, 20137.26
110.7440, 22835.60
111.9760, 21354.97
113.2080, 18483.36
114.4400, 15715.75
115.6710, 12920.13
116.9030, 11041.48
118.1340, 9561.806
119.3650, 8211.081
120.5960, 7226.304
121.8270, 6364.472
123.0580, 5698.585
124.2880, 5326.629
125.5190, 4953.595
126.7490, 4524.468
127.9790, 3832.102
129.2090, 3471.052
130.4390, 3231.285
131.6680, 3090.763
132.8980, 2998.466
134.1270, 2771.370
135.3560, 2919.360
136.5850, 3174.562
137.8140, 3799.105
139.0430, 4470.945
140.2710, 5231.535
141.5000, 6078.906
142.7280, 6628.864
143.9560, 6932.289
145.1840, 7292.140
146.4120, 7338.430
147.6390, 7546.173
148.8670, 8154.380
150.0940, 9094.071
151.3210, 10078.26
152.5490, 11618.95
153.7750, 13263.16
155.0020, 14501.90
156.2290, 13221.16
157.4550, 10863.94
158.6810, 9476.269
159.9080, 8433.135
161.1340, 7204.542
162.3590, 6495.493
163.5850, 6224.993
164.8110, 6635.042
166.0360, 7111.639
167.2610, 7714.774
168.4860, 8640.454
169.7110, 9899.669
170.9360, 11405.42
172.1610, 13379.71
173.3850, 14573.53
174.6100, 15146.87
175.8340, 14535.75
177.0580, 13156.14
178.2820, 11293.06
179.5050, 9105.490
180.7290, 7216.437
181.9520, 5605.896
183.1760, 4357.862
184.3990, 3444.335
185.6220, 2928.315
186.8450, 2640.700
188.0670, 2711.777
189.2900, 3039.220
190.5120, 3807.693
191.7340, 4704.643
192.9560, 6092.062
194.1780, 7545.950
195.4000, 9383.303
196.6220, 10540.12
197.8430, 10085.39
199.0640, 9330.116
200.2860, 8678.289
201.5070, 8728.651
202.7270, 9256.389
203.9480, 10531.91
205.1690, 11699.03
206.3890, 12878.95
207.6090, 14185.49
208.8290, 15112.11
210.0490, 15425.15
211.2690, 15209.68
212.4890, 14782.19
213.7080, 14303.98
214.9280, 13517.71
216.1470, 12946.74
217.3660, 12094.46
218.5850, 11786.62
219.8030, 10823.40
221.0220, 10354.16
222.2400, 9242.834
223.4590, 8012.691
224.6770, 6601.221
225.8950, 5004.420
227.1120, 3704.997
228.3300, 2739.424
229.5480, 1778.457
230.7650, 1132.276
231.9820, 863.5176
233.1990, 508.2490
234.4160, 310.4561
235.6330, 294.1318
236.8490, 395.2686
238.0660, 599.8936
239.2820, 815.0312
240.4980, 1246.722
241.7140, 1772.996
242.9300, 2190.849
244.1460, 2523.314
245.3610, 2780.393
246.5770, 2756.043
247.7920, 2820.226
249.0070, 3049.940
250.2220, 3339.132
251.4370, 3762.450
252.6510, 4182.951
253.8660, 4913.516
255.0800, 5763.508
256.2940, 6582.948
257.5080, 7252.836
258.7220, 7409.177
259.9360, 7856.931
261.1490, 8208.132
262.3630, 7675.756
263.5760, 7415.797
264.7890, 8080.277
266.0020, 9156.183
267.2150, 10458.54
268.4270, 11780.31
269.6400, 13177.51
270.8520, 14842.11
272.0640, 16496.08
273.2760, 17211.40
274.4880, 17648.03
275.7000, 17688.98
276.9120, 17219.24
278.1230, 16026.81
279.3340, 14751.70
280.5450, 13308.90
281.7560, 11590.41
282.9670, 10108.23
284.1780, 8945.372
285.3880, 8048.817
286.5980, 7349.789
287.8090, 7066.626
289.0190, 6661.982
290.2290, 6550.641
291.4380, 6625.598
292.6480, 6706.851
293.8570, 6910.398
295.0670, 7329.240
296.2760, 7666.373
297.4850, 8268.796
298.6930, 8947.507
299.9020, 9590.503
301.1110, 10339.78
302.3190, 11071.35
303.5270, 12172.19
304.7350, 12935.30
305.9430, 13791.70
307.1510, 15136.36
308.3580, 15952.30
309.5660, 16155.51
310.7730, 15706.98
311.9800, 14974.72
313.1870, 13489.71
314.3940, 13017.97
315.6010, 12520.10
316.8070, 12689.73
318.0130, 13414.21
319.2200, 14603.12
320.4260, 15560.47
321.6310, 15885.64
322.8370, 15252.42
324.0430, 13800.67
325.2480, 12003.16
326.4540, 10270.88
327.6590, 8740.832
328.8640, 7658.014
330.0680, 6912.430
331.2730, 6324.070
332.4780, 6112.934
333.6820, 6020.020
334.8860, 6094.320
336.0900, 6326.842
337.2940, 7097.574
338.4980, 8182.516
339.7010, 9382.672
340.9050, 11515.03
342.1080, 13674.60
343.3110, 16459.37
344.5140, 18915.34
345.7170, 20720.52
346.9200, 21489.96
348.1220, 20586.66
349.3240, 19347.64
350.5270, 17472.90
351.7290, 16008.43
352.9310, 14751.25
354.1320, 13610.38
355.3340, 12288.78
356.5350, 10453.46
357.7370, 8183.415
358.9380, 6178.658
360.1390, 4210.195
361.3400, 2723.035
362.5400, 1555.146
363.7410, 867.5137
364.9410, 199.1367
366.1410, 191.9824
367.3410, 393.8408
368.5410, 655.4941
369.7410, 753.0264
370.9400, 547.4678
372.1400, 590.7676
373.3390, 271.9326
374.5380, 234.7451
375.7370, 97.59473
376.9360, 47.00098
378.1350, 179.8682
379.3330, 505.0107
380.5310, 694.4287
381.7300, 1056.938
382.9280, 1658.812
384.1260, 2734.294
385.3230, 4084.113
386.5210, 5649.663
387.7180, 7825.727
388.9160, 9967.761
390.1130, 12144.86
391.3100, 14083.58
392.5060, 15122.80
393.7030, 15066.72
394.9000, 13818.98
396.0960, 12014.31
397.2920, 9889.606
398.4880, 7995.500
399.6840, 6367.381
400.8800, 4907.672
402.0750, 4401.437
403.2710, 3910.234
404.4660, 3531.974
405.6610, 3053.633
406.8560, 2857.029
408.0510, 2749.950
409.2450, 2790.031
410.4400, 3214.709
411.6340, 4018.921
412.8280, 5162.982
414.0220, 6956.522
415.2160, 9294.163
416.4100, 12210.00
417.6030, 15728.90
418.7970, 19049.92
419.9900, 21282.07
421.1830, 20979.35
422.3760, 19559.76
423.5690, 17805.28
424.7610, 16865.93
425.9540, 16761.69
427.1460, 16533.58
428.3380, 16603.57
429.5300, 16745.69
430.7220, 16381.91
431.9140, 14925.25
433.1050, 13354.69
434.2970, 11357.24
435.4880, 9216.898
436.6790, 7636.658
437.8700, 5956.520
439.0610, 5082.480
440.2510, 4520.539
441.4420, 4397.695
442.6320, 4962.946
443.8220, 5590.291
445.0120, 6633.727
446.2020, 7629.250
447.3910, 7793.863
448.5810, 7360.562
449.7700, 5881.348
450.9600, 4263.213
452.1490, 2814.164
453.3370, 1939.191
454.5260, 1161.298
455.7150, 495.4814
456.9030, 244.7393
458.0910, 20.06934
459.2800, 104.5410
460.4670, 216.1328
461.6550, 284.7480
462.8430, 241.4180
464.0300, 204.1270
465.2180, 4.865234
466.4050, 281.4355
467.5920, 615.7949
468.7790, 893.2148
469.9650, 1444.691
471.1520, 1916.225
472.3380, 2410.812
473.5250, 2714.453
474.7110, 2884.146
475.8970, 2967.889
477.0820, 3595.680
478.2680, 4477.518
479.4540, 5495.404
480.6390, 7036.334
481.8240, 9464.308
483.0090, 12301.32
484.1940, 15190.38
485.3780, 18750.47
486.5630, 21107.59
487.7470, 22070.76
488.9320, 20194.97
490.1160, 16524.20
491.3000, 12789.47
492.4830, 9094.762
493.6670, 6367.568
494.8500, 4543.439
496.0340, 3376.612
497.2170, 3130.589
498.4000, 2647.002
499.5820, 2228.436
500.7650, 2454.884
501.9480, 2639.349
503.1300, 3000.825
504.3120, 3185.313
505.4940, 3490.811
506.6760, 3963.315
507.8580, 4276.827
509.0390, 4618.094
510.2210, 4688.357
511.4020, 4668.470
512.5830, 4371.462
513.7640, 4264.625
514.9450, 3414.931
516.1250, 3078.346
517.3060, 2222.045
518.4860, 1729.651
519.6660, 1061.581
520.8460, 746.2930
522.0260, 298.2393
523.2060, 16.28027
524.3850, 107.9180
525.5650, 296.1240
526.7440, 445.9922
527.9230, 432.0557
529.1020, 602.3477
530.2810, 609.9727
531.4590, 465.9502
532.6380, 314.2812
533.8160, 331.8955
534.9940, 113.8057
536.1720, 179.9072
537.3500, 88.23633
538.5270, 60.24707
539.7050, 19.61230
540.8820, 58.16211
542.0590, 92.12012
543.2360, 110.2305
544.4130, 33.34668
545.5900, 113.1738
546.7660, 36.91699
547.9430, 8.846680
549.1190, 130.9541
550.2950, 76.25586
551.4710, 182.7363
552.6470, 66.44336
553.8220, 126.3047
554.9980, 26.35547
556.1730, 88.45801
557.3480, 217.1680
558.5230, 636.8311
559.6980, 1009.492
560.8730, 1404.116
562.0470, 1760.856
563.2220, 2117.677
564.3960, 2418.760
565.5700, 2771.193
566.7440, 3022.564
567.9170, 3512.085
569.0910, 3758.124
570.2640, 4494.308
571.4380, 5177.429
572.6110, 5704.482
573.7840, 6575.471
574.9570, 6911.394
576.1290, 7130.248
577.3020, 6721.031
578.4740, 6251.746
579.6460, 5677.391
580.8180, 4844.964
581.9900, 4697.466
583.1620, 4079.894
584.3330, 4230.247
585.5040, 4219.527
586.6760, 4650.730
587.8470, 5201.859
589.0180, 5874.911
590.1880, 6382.882
591.3590, 6685.779
592.5290, 6630.595
593.7000, 6139.332
594.8700, 5526.988
596.0400, 4326.562
597.2090, 3557.055
598.3790, 2729.464
599.5490, 2190.178
600.7180, 1695.567
601.8870, 1477.265
603.0560, 1291.713
604.2250, 1278.876
605.3940, 1287.373
606.5620, 1323.421
607.7300, 1646.162
608.8990, 1920.818
610.0670, 2413.390
611.2350, 3152.874
612.4020, 3760.274
613.5700, 4618.588
614.7370, 5116.814
615.9050, 5913.951
617.0720, 6581.001
618.2390, 7091.862
619.4060, 7576.836
620.5720, 7774.616
621.7390, 7761.309
622.9050, 7265.912
624.0710, 6496.422
625.2370, 5403.840
626.4030, 4181.167
627.5690, 3047.402
628.7340, 2223.544
629.9000, 1640.592
631.0650, 1103.549
632.2300, 876.4102
633.3950, 632.1777
634.5600, 562.8340
635.7240, 443.3721
636.8890, 721.7676
638.0530, 961.0625
639.2170, 958.2617
640.3810, 1254.364
641.5450, 1603.370
642.7080, 1935.280
643.8720, 2059.093
645.0350, 2364.809
646.1980, 2367.426
647.3610, 2291.947
648.5240, 2114.371
649.6870, 1685.707
650.8490, 1721.978
652.0120, 1079.691
653.1740, 904.2998
654.3360, 679.9092
655.4980, 439.3711
656.6600, 327.6436
657.8210, 235.0811
658.9830, 218.8135
660.1440, 326.9883
661.3050, 345.0928
662.4660, 471.8223
663.6270, 619.2588
664.7870, 751.6895
665.9480, 1051.962
667.1080, 1242.040
668.2680, 1517.043
669.4280, 1962.577
670.5880, 2646.814
671.7480, 3176.924
672.9070, 4066.409
674.0670, 5079.469
675.2260, 5868.920
676.3850, 7010.123
677.5440, 7669.326
678.7030, 8031.650
679.8610, 7939.453
681.0200, 7310.346
682.1780, 6543.903
683.3360, 5438.061
684.4940, 4430.253
685.6520, 3545.577
686.8090, 2949.048
687.9670, 2311.850
689.1240, 1968.230
690.2810, 1954.346
691.4380, 1825.566
692.5950, 1819.291
693.7520, 1931.393
694.9080, 2068.193
696.0650, 2405.889
697.2210, 2832.432
698.3770, 3172.320
699.5330, 3852.012
700.6880, 4751.470
701.8440, 5551.041
702.9990, 6970.545
704.1550, 8565.938
705.3100, 10477.25
706.4650, 13226.48
707.6190, 16236.63
708.7740, 20021.69
709.9290, 24086.68
711.0830, 29103.58
712.2370, 34136.40
713.3910, 38963.16
714.5450, 42484.81
715.6980, 44541.40
716.8520, 43577.91
718.0050, 40242.34
719.1580, 35770.70
720.3110, 30305.96
721.4640, 25085.16
722.6170, 20446.28
723.7700, 16550.33
724.9220, 13093.30
726.0740, 11028.20
727.2260, 8829.018
728.3780, 7295.768
729.5300, 6152.442
730.6810, 5130.045
731.8330, 4277.575
732.9840, 3689.033
734.1350, 3443.422
735.2860, 2860.740
736.4370, 2482.987
737.5880, 2295.166
738.7380, 2007.281
739.8880, 1682.354
741.0390, 1506.407
742.1890, 1378.452
743.3380, 1367.482
744.4880, 1241.496
745.6380, 1132.454
746.7870, 985.3486
747.9360, 981.7188
749.0850, 1097.945
750.2340, 1060.649
751.3830, 1104.292
752.5310, 1310.873
753.6800, 1406.394
754.8280, 1667.854
755.9760, 1760.257
757.1240, 2032.599
758.2720, 2418.885
759.4190, 2836.113
760.5670, 3377.286
761.7140, 3817.402
762.8610, 4399.465
764.0080, 5028.475
765.1550, 5843.430
766.3020, 6427.334
767.4480, 6813.187
768.5950, 6985.989
769.7410, 7239.744
770.8870, 7226.447
772.0330, 6469.619
773.1780, 6119.707
774.3240, 5154.473
775.4690, 4344.412
776.6140, 3588.889
777.7590, 3049.321
778.9040, 2584.714
780.0490, 2204.064
781.1940, 1662.376
782.3380, 1421.648
783.4820, 1065.882
784.6260, 918.0781
785.7700, 646.2383
786.9140, 625.3613
788.0580, 333.4502
789.2010, 225.5039
790.3450, 131.5186
791.4880, 23.51465
792.6310, 89.08984
793.7730, 139.9521
794.9160, 261.4834
796.0590, 319.9824
797.2010, 310.9541
798.3430, 426.8525
799.4850, 525.1582
800.6270, 377.7578
801.7690, 427.3125
802.9100, 353.0977
804.0520, 421.4902
805.1930, 307.0068
806.3340, 230.5859
807.4750, 196.1426
808.6160, 109.3486
809.7560, 378.9873
810.8970, 554.7402
812.0370, 1044.613
813.1770, 1240.558
814.3170, 1430.590
815.4570, 1411.688
816.5960, 1600.821
817.7360, 1516.001
818.8750, 1126.244
820.0140, 856.5664
821.1530, 710.9707
822.2920, 593.4238
823.4310, 297.9658
824.5690, 119.5771
825.7070, 169.7461
826.8460, 136.0625
827.9840, 167.3662
829.1220, 244.6436
830.2590, 238.9561
831.3970, 267.2871
832.5340, 201.6699
833.6710, 239.0957
834.8080, 231.6006
835.9450, 95.20703
837.0820, 148.8428
838.2190, 43.53418
839.3550, 20.76953
840.4910, 82.08105
841.6270, 229.4043
842.7630, 435.7402
843.8990, 533.0889
845.0350, 766.4531
846.1700, 950.8320
847.3060, 1163.229
848.4410, 1467.643
849.5760, 1597.073
850.7100, 1832.524
851.8450, 2004.994
852.9800, 2142.484
854.1140, 2176.996
855.2480, 2137.529
856.3820, 2088.087
857.5160, 2043.667
858.6500, 1945.273
859.7830, 1873.903
860.9170, 1927.561
862.0500, 1857.244
863.1830, 1769.956
864.3160, 1682.697
865.4480, 1657.468
866.5810, 1782.269
867.7130, 1747.100
868.8460, 1953.963
869.9780, 1919.857
871.1100, 1746.787
872.2410, 2101.750
873.3730, 1821.749
874.5050, 1851.783
875.6360, 2060.855
876.7670, 2060.963
877.8980, 2124.111
879.0290, 2266.298
880.1590, 2492.523
881.2900, 2493.787
882.4200, 2647.092
883.5500, 2679.439
884.6800, 2926.839
885.8100, 3153.301
886.9400, 3441.807
888.0690, 3606.355
889.1990, 4108.958
890.3280, 4589.605
891.4570, 5205.340
892.5860, 5916.137
893.7140, 6775.741
894.8430, 7667.916
895.9710, 8825.922
897.1000, 9987.980
898.2280, 11262.09
899.3560, 12185.29
900.4830, 13642.61
901.6110, 14605.01
902.7380, 15821.50
903.8660, 16729.08
904.9930, 18054.75
906.1200, 19196.50
907.2460, 20227.36
908.3730, 21035.29
909.5000, 21664.29
910.6260, 21601.75
911.7520, 21187.01
912.8780, 20409.84
914.0040, 19046.20
915.1290, 17150.64
916.2550, 15102.17
917.3800, 13058.79
918.5050, 11556.52
919.6300, 9809.319
920.7550, 8807.204
921.8800, 7463.152
923.0040, 6620.197
924.1290, 6101.395
925.2530, 5717.179
926.3770, 5290.109
927.5010, 5111.090
928.6250, 5196.268
929.7480, 5296.598
930.8720, 5351.730
931.9950, 5497.680
933.1180, 6509.719
934.2410, 6035.945
935.3640, 6152.479
936.4860, 5887.713
937.6090, 5353.219
938.7310, 5444.744
939.8530, 5719.318
940.9750, 5852.417
942.0970, 6276.686
943.2180, 6745.482
944.3400, 7569.521
945.4610, 8128.746
946.5820, 9390.104
947.7030, 10477.55
948.8240, 12092.09
949.9450, 13378.75
951.0650, 15199.50
952.1860, 17302.34
953.3060, 18918.27
954.4260, 20823.32
955.5460, 22647.45
956.6650, 24353.69
957.7850, 26207.03
958.9040, 28251.46
960.0230, 30717.97
961.1420, 33710.55
962.2610, 36939.39
963.3800, 40188.70
964.4990, 43540.75
965.6170, 45203.43
966.7350, 45482.75
967.8530, 44881.22
968.9710, 42470.82
970.0890, 39219.14
971.2070, 35435.70
972.3240, 32098.48
973.4410, 29835.18
974.5580, 28356.95
975.6750, 27868.84
976.7920, 28085.83
977.9090, 29008.92
979.0250, 30205.11
980.1410, 31329.38
981.2580, 32196.76
982.3740, 32570.23
983.4890, 31600.82
984.6050, 29933.51
985.7200, 28979.29
986.8360, 27138.16
987.9510, 25875.13
989.0660, 25195.19
990.1810, 24740.34
991.2950, 24310.59
992.4100, 24395.93
993.5240, 24601.35
994.6390, 24699.88
995.7530, 24279.49
996.8660, 24247.20
997.9800, 24269.00
999.0940, 24393.89
1000.207, 24950.86
1001.320, 25597.94
1002.433, 26283.10
1003.546, 27049.36
1004.659, 27577.72
1005.772, 27575.17
1006.884, 27414.71
1007.996, 26413.34
1009.108, 24661.07
1010.220, 22149.89
1011.332, 19900.10
1012.444, 17416.10
1013.555, 15079.19
1014.666, 12598.36
1015.777, 10941.70
1016.888, 9156.199
1017.999, 7744.618
1019.110, 6845.365
1020.220, 5961.982
1021.331, 5229.686
1022.441, 4917.334
1023.551, 4509.234
1024.661, 4388.604
1025.770, 4481.186
1026.880, 4320.314
1027.989, 4571.766
1029.098, 4522.459
1030.207, 4553.536
1031.316, 4486.063
1032.425, 4070.410
1033.533, 3784.711
1034.642, 3247.434
1035.750, 2835.699
1036.858, 2494.980
1037.966, 2148.001
1039.073, 2042.538
1040.181, 1629.775
1041.288, 1703.495
1042.396, 1609.308
1043.503, 1557.612
1044.610, 1654.064
1045.716, 1643.162
1046.823, 1649.975
1047.929, 1652.618
1049.036, 1663.570
1050.142, 1774.511
1051.248, 1852.733
1052.353, 1905.406
1053.459, 2020.766
1054.564, 2206.768
1055.670, 2425.785
1056.775, 2638.324
1057.880, 2893.753
1058.985, 3023.245
1060.089, 3048.494
1061.194, 2975.420
1062.298, 3132.004
1063.402, 2949.554
1064.506, 2942.253
1065.610, 2827.271
1066.713, 2506.482
1067.817, 2449.491
1068.920, 2055.176
1070.023, 1785.917
1071.126, 1727.176
1072.229, 1571.264
1073.332, 1544.531
1074.435, 1585.349
1075.537, 1633.502
1076.639, 1796.574
1077.741, 2173.361
1078.843, 2189.264
1079.945, 2562.258
1081.046, 3047.345
1082.148, 3664.216
1083.249, 3957.991
1084.350, 4515.078
1085.451, 4594.778
1086.551, 4633.994
1087.652, 4310.329
1088.752, 4051.807
1089.853, 3237.835
1090.953, 2893.479
1092.053, 2436.945
1093.152, 1999.681
1094.252, 1724.100
1095.351, 1595.691
1096.451, 1618.063
1097.550, 1638.753
1098.649, 1349.938
1099.748, 1541.171
1100.846, 1586.938
1101.945, 1829.225
1103.043, 2163.212
1104.141, 2299.032
1105.239, 2388.657
1106.337, 2697.012
1107.434, 2898.231
1108.532, 3036.779
1109.629, 3090.931
1110.726, 2844.307
1111.823, 2784.021
1112.920, 2601.823
1114.017, 2281.496
1115.113, 2157.451
1116.210, 1856.293
1117.306, 1604.884
1118.402, 1434.566
1119.498, 1301.698
1120.593, 1210.277
1121.689, 961.6631
1122.784, 882.4375
1123.879, 950.2402
1124.974, 691.0137
1126.069, 681.1367
1127.164, 525.6748
1128.259, 469.3779
1129.353, 419.4561
1130.447, 418.0195
1131.541, 282.4795
1132.635, 281.6299
1133.729, 129.5225
1134.822, 200.3242
1135.916, 153.5596
1137.009, 178.8604
1138.102, 113.8857
1139.195, 114.8389
1140.288, 27.62598
1141.380, 99.91309
1142.473, 21.25098
1143.565, 135.3672
1144.657, 116.7295
1145.749, 63.90137
1146.841, 0.5830080
1147.932, 6.405273
1149.024, 84.95703
1150.115, 141.1445
1151.206, 23.24414
1152.297, 52.91602
1153.388, 74.63477
1154.479, 7.301758
1155.569, 206.6436
1156.659, 111.4521
1157.750, 27.68750
1158.839, 208.5801
1159.929, 122.5469
1161.019, 27.42090
1162.108, 3.791992
1163.198, 202.8857
1164.287, 245.0723
1165.376, 151.3916
1166.465, 171.2002
1167.553, 182.7070
1168.642, 110.1719
1169.730, 145.7002
1170.818, 184.2266
1171.906, 57.84277
1172.994, 34.52734
1174.082, 15.67969
1175.170, 122.1680
1176.257, 112.1836
1177.344, 103.3926
1178.431, 96.48145
1179.518, 49.41699
1180.605, 140.6729
1181.691, 158.9492
1182.778, 3.754883
1183.864, 71.53320
1184.950, 38.37402
1186.036, 106.1289
1187.122, 301.6416
1188.207, 27.39062
1189.292, 30.37891
1190.378, 78.42383
1191.463, 116.7305
1192.548, 72.29004
1193.632, 53.78125
1194.717, 31.82031
1195.801, 13.17285
1196.886, 34.66211
1197.970, 7.922852
1199.054, 44.57910
1200.137, 396.7627
1201.221, 73.09082
1202.305, 161.1611
1203.388, 182.3369
1204.471, 36.67676
1205.554, 5.751953
1206.637, 92.25000
1207.719, 155.1064
1208.802, 86.86719
1209.884, 74.07812
1210.966, 134.9824
1212.048, 61.44531
1213.130, 97.55371
1214.212, 184.3877
1215.293, 77.44238
1216.374, 23.58496
1217.456, 169.4678
1218.536, 27.26172
1219.617, 38.96191
1220.698, 157.5664
1221.778, 113.1719
1222.859, 55.07715
1223.939, 66.71191
1225.019, 125.3203
1226.099, 77.56738
1227.178, 136.7119
1228.258, 45.78027
1229.337, 29.74512
1230.417, 63.06250
1231.496, 214.3613
1232.574, 91.07324
1233.653, 179.0820
1234.732, 143.6299
1235.810, 160.1904
1236.888, 171.5811
1237.966, 239.8965
1239.044, 82.14453
1240.122, 299.2871
1241.199, 239.4629
1242.277, 99.56934
1243.354, 256.5078
1244.431, 76.68359
1245.508, 174.4189
1246.585, 190.0771
1247.661, 284.6592
1248.738, 230.1699
1249.814, 202.6035
1250.890, 379.9570
1251.966, 290.6396
1253.042, 289.8750
1254.117, 303.3477
1255.193, 259.5381
1256.268, 226.5205
1257.343, 724.4238
1258.418, 550.6836
1259.493, 929.3730
1260.567, 619.0596
1261.642, 207.6768
1262.716, 315.9902
1263.790, 341.4434
1264.864, 154.1875
1265.938, 344.5879
1267.011, 310.7871
1268.085, 234.6660
1269.158, 366.1016
1270.231, 290.4639
1271.304, 359.3428
1272.377, 412.0039
1273.450, 286.8213
1274.522, 311.6230
1275.594, 401.1836
1276.666, 333.5928
1277.738, 456.8584
1278.810, 363.5566
1279.882, 450.5879
1280.953, 382.7607
1282.025, 436.2871
1283.096, 380.0176
1284.167, 455.9316
1285.238, 692.3857
1286.308, 576.4648
1287.379, 331.4297
1288.449, 513.2266
1289.519, 418.3838
1290.589, 392.1641
1291.659, 363.5000
1292.729, 473.0186
1293.798, 463.5889
1294.868, 303.0654
1295.937, 478.6768
1297.006, 386.8994
1298.075, 380.9453
1299.143, 352.4980
1300.212, 338.1514
1301.280, 341.2754
1302.348, 356.3496
1303.416, 364.1074
1304.484, 376.5488
1305.552, 398.3447
1306.620, 342.4258
1307.687, 280.6748
1308.754, 339.6113
1309.821, 310.5586
1310.888, 276.0693
1311.955, 264.4336
1313.021, 217.1943
1314.088, 285.3037
1315.154, 256.7959
1316.220, 146.5684
1317.286, 299.0469
1318.352, 241.3564
1319.417, 155.3936
1320.483, 217.3535
1321.548, 230.7051
1322.613, 131.1777
1323.678, 336.5498
1324.743, 280.8916
1325.807, 322.6484
1326.872, 118.0449
1327.936, 256.0967
1329.000, 249.1475
1330.064, 298.6836
1331.128, 262.5146
1332.191, 296.2588
1333.255, 280.2051
1334.318, 235.5420
1335.381, 256.6895
1336.444, 204.1094
1337.507, 180.6553
1338.569, 176.9766
1339.632, 240.4580
1340.694, 135.9697
1341.756, 147.8809
1342.818, 297.6738
1343.880, 388.0840
1344.941, 245.2129
1346.003, 370.0186
1347.064, 394.9414
1348.125, 352.0459
1349.186, 271.7490
1350.247, 182.2910
1351.308, 222.5449
1352.368, 205.8506
1353.428, 273.9951
1354.489, 275.7812
1355.549, 330.2705
1356.608, 344.2451
1357.668, 271.0088
1358.727, 358.4375
1359.787, 423.1172
1360.846, 172.5273
1361.905, 313.9395
1362.964, 241.5537
1364.022, 370.4229
1365.081, 345.3994
1366.139, 260.0234
1367.197, 266.0117
1368.255, 232.4375
1369.313, 231.1533
1370.371, 244.6709
1371.428, 170.4736
1372.486, 257.2959
1373.543, 282.7461
1374.600, 247.4824
1375.657, 287.3145
1376.713, 315.1553
1377.770, 284.7627
1378.826, 149.1787
1379.882, 237.2061
1380.938, 162.1426
1381.994, 211.0742
1383.050, 321.6172
1384.106, 419.7080
1385.161, 309.8496
1386.216, 150.9502
1387.271, 280.2363
1388.326, 322.7939
1389.381, 80.22070
1390.435, 318.7275
1391.490, 143.5264
1392.544, 198.1846
1393.598, 373.6553
1394.652, 6.121094
1395.705, 128.1328
1396.759, 125.7227
1397.812, 283.7588
1398.866, 180.9922
1399.919, 196.3975
1400.972, 179.0137
1402.024, 332.7773
1403.077, 239.3262
1404.129, 219.8125
1405.181, 128.0996
1406.233, 287.9668
1407.285, 229.1904
1408.337, 104.0869
1409.389, 80.15918
1410.440, 285.9648
1411.491, 306.0000
1412.542, 203.0664
1413.593, 24.27832
1414.644, 6.667969
1415.695, 252.6621
1416.745, 215.4902
1417.795, 296.1719
1418.845, 259.6885
1419.895, 271.8018
1420.945, 113.5322
1421.995, 276.8613
1423.044, 190.0400
1424.093, 199.8213
1425.142, 229.8125
1426.191, 266.4746
1427.240, 185.1191
1428.289, 153.7617
1429.337, 209.4424
1430.385, 273.1152
1431.433, 308.8643
1432.481, 272.7148
1433.529, 244.5371
1434.577, 236.0684
1435.624, 204.1240
1436.672, 171.9639
1437.719, 169.6416
1438.766, 112.0332
1439.812, 113.2930
1440.859, 36.38965
1441.905, 59.77539
1442.952, 153.4727
1443.998, 5.140625
1445.044, 60.89941
1446.090, 355.6670
1447.135, 192.9160
1448.181, 154.6709
1449.226, 181.1436
1450.271, 116.6182
1451.316, 22.87598
1452.361, 179.9043
1453.405, 113.0957
1454.450, 126.3398
1455.494, 180.2568
1456.538, 146.7197
1457.582, 179.3389
1458.626, 257.1719
1459.670, 292.6318
1460.713, 235.6758
1461.757, 171.4062
1462.800, 86.33398
1463.843, 113.1787
1464.886, 49.61523
1465.928, 89.08594
1466.971, 27.60352
1468.013, 3.616211
1469.055, 143.9648
1470.097, 81.40918
1471.139, 124.8428
1472.181, 59.01855
1473.222, 116.9814
1474.263, 61.39844
1475.305, 145.7891
1476.346, 215.1680
1477.386, 39.97656
1478.427, 123.7031
1479.468, 116.0215
1480.508, 112.8418
1481.548, 126.1123
1482.588, 5.690430
1483.628, 165.8906
1484.668, 74.70215
1485.707, 89.38281
1486.747, 170.3545
1487.786, 148.1885
1488.825, 133.3896
1489.864, 152.0742
1490.902, 167.2695
1491.941, 147.2588
1492.979, 132.8809
1494.017, 111.6094
1495.055, 53.55273
1496.093, 17.69629
1497.131, 45.15332
1498.168, 22.04395
1499.206, 23.62988
1500.243, 1.209961
1501.280, 90.76367
1502.317, 31.94336
1503.354, 137.1309
1504.390, 108.3301
1505.426, 122.5449
1506.463, 224.3135
1507.499, 184.8955
1508.535, 182.1719
1509.570, 134.7266
1510.606, 260.9365
1511.641, 58.13379
1512.676, 2.630859
1513.711, 77.51758
1514.746, 292.5156
1515.781, 53.72363
1516.816, 99.01270
1517.850, 228.2930
1518.884, 156.6836
1519.918, 129.4756
1520.952, 55.61230
1521.986, 58.15430
1523.019, 162.2803
1524.053, 196.3320
1525.086, 205.9590
1526.119, 320.2451
1527.152, 219.8184
1528.185, 214.4736
1529.217, 217.1016
1530.250, 138.3838
1531.282, 199.0918
1532.314, 210.7822
1533.346, 172.4766
1534.377, 198.1982
1535.409, 345.2559
1536.440, 237.7891
1537.472, 43.43457
1538.503, 190.1992
1539.534, 94.99121
1540.564, 154.8330
1541.595, 321.6758
1542.625, 95.54492
1543.656, 271.3818
1544.686, 89.83887
1545.716, 124.9297
1546.745, 22.11816
1547.775, 160.1758
1548.804, 25.15625
1549.834, 231.9854
1550.863, 316.6934
1551.892, 100.9023
1552.920, 184.9482
1553.949, 268.8174
1554.977, 181.2930
1556.006, 346.7725
1557.034, 205.4326
1558.062, 180.0693
1559.089, 86.95312
1560.117, 174.5684
1561.144, 33.23340
1562.172, 178.2715
1563.199, 53.46094
1564.226, 3.156250
1565.252, 196.4932
1566.279, 110.3086
1567.305, 109.2305
1568.332, 30.64453
1569.358, 1.550781
1570.384, 1119.930
1571.409, 201.9121
1572.435, 0.0000000E+00
##END=



