##NAMES=Axinite-(Fe)
##RRUFFID=R050026
##IDEAL CHEMISTRY=Ca_4_Fe^2+^_2_Al_4_[B_2_Si_8_O_30_](OH)_2_
##LOCALITY=Pouyva mine, Polar Urals, Western Siberian Region, Russia
##OWNER=RRUFF
##SOURCE=Rock Currier
##DESCRIPTION=Brown transparent flat crystal
##STATUS=The identification of this mineral has been confirmed by X-ray diffraction and chemical analysis
##URL=rruff.info/R050026
##MEASURED CHEMISTRY=Ca_2.00_(Fe^2+^_0.61_Mn_0.26_Mg_0.13_)Al_2.00_BSi_4_O_15_(OH)
##PIN_ID=L00219
##ORIENTATION=Laser parallel to (1 1 0). Fiducial mark perpendicular to laser is parallel to c [0 0 1]
88.260, 0.000
89.663, 5.587
91.065, 201.739
92.466, 424.034
93.868, 539.344
95.269, 669.613
96.670, 749.493
98.070, 831.671
99.471, 1082.665
100.871, 1422.464
102.271, 2193.806
103.670, 3305.357
105.070, 4590.496
106.469, 6316.440
107.868, 9029.986
109.267, 10452.615
110.665, 6800.410
112.063, 4633.096
113.461, 2918.176
114.859, 1901.841
116.256, 1198.954
117.653, 716.395
119.050, 435.059
120.447, 338.854
121.843, 214.708
123.240, 196.562
124.636, 87.434
126.031, 38.381
127.427, 129.675
128.822, 234.813
130.217, 116.107
131.612, 38.636
133.006, 144.527
134.400, 460.322
135.794, 944.698
137.188, 1392.294
138.581, 1961.472
139.975, 2129.131
141.368, 2284.229
142.760, 2417.742
144.153, 2563.649
145.545, 2947.932
146.937, 3482.568
148.329, 4017.547
149.720, 4242.848
151.112, 4388.478
152.503, 4444.467
153.893, 4200.835
155.284, 4067.567
156.674, 3924.647
158.064, 3792.068
159.454, 3590.530
160.843, 3890.749
162.233, 4661.622
163.622, 5942.647
165.011, 8433.813
166.399, 10865.120
167.787, 13526.554
169.175, 14718.107
170.563, 14839.777
171.951, 13381.506
173.338, 10743.150
174.725, 8534.762
176.112, 5866.370
177.499, 4137.992
178.885, 2679.637
180.271, 1421.315
181.657, 651.035
183.043, 80.787
184.428, 124.423
185.813, 5.413
187.198, 412.300
188.583, 1187.243
189.967, 2092.247
191.351, 3156.282
192.735, 3678.202
194.119, 3650.153
195.502, 3072.198
196.885, 2664.356
198.268, 2726.589
199.651, 3268.898
201.033, 4291.282
202.415, 5703.741
203.797, 7766.276
205.179, 9548.887
206.561, 11901.569
207.942, 13734.327
209.323, 14887.153
210.703, 15020.057
212.084, 14053.262
213.464, 12907.111
214.844, 10921.703
216.224, 9306.837
217.603, 7402.266
218.983, 6017.823
220.362, 4603.415
221.741, 3489.039
223.119, 2396.686
224.497, 1659.419
225.875, 997.344
227.253, 568.585
228.631, 314.213
230.008, 129.529
231.385, 70.942
232.762, 67.213
234.139, 93.522
235.515, 238.782
236.891, 523.047
238.267, 882.140
239.643, 1347.589
241.018, 1973.864
242.393, 2592.140
243.768, 3436.408
245.143, 4011.667
246.517, 4516.914
247.891, 4762.151
249.265, 5257.375
250.639, 5392.589
252.012, 5837.789
253.386, 5872.977
254.759, 5712.856
256.131, 5232.917
257.504, 4513.984
258.876, 4195.542
260.248, 3907.484
261.620, 4099.734
262.991, 4542.249
264.363, 5224.993
265.734, 6377.878
267.104, 7590.915
268.475, 9364.096
269.845, 10567.429
271.215, 12110.904
272.585, 13344.518
273.955, 13498.103
275.324, 13471.394
276.693, 12354.808
278.062, 11018.374
279.431, 9252.082
280.799, 7635.921
282.167, 6199.890
283.535, 5063.977
284.903, 4478.178
286.270, 4512.488
287.638, 4766.903
289.005, 5621.417
290.371, 6576.023
291.738, 7990.720
293.104, 9201.055
294.470, 10676.985
295.836, 11938.266
297.201, 12882.345
298.567, 13517.427
299.932, 13622.664
301.296, 14209.550
302.661, 14266.178
304.025, 14431.459
305.389, 14156.797
306.753, 13242.189
308.117, 12387.633
309.480, 10793.127
310.843, 10158.670
312.206, 10054.260
313.569, 11229.896
314.931, 12775.570
316.293, 14391.287
317.655, 15977.046
319.017, 15802.841
320.378, 14868.672
321.740, 12624.537
323.101, 9980.434
324.461, 7976.360
325.822, 6072.304
327.182, 4958.264
328.542, 4024.239
329.902, 3510.229
331.261, 2996.354
332.621, 2808.566
333.980, 2972.678
335.339, 3271.095
336.697, 4084.057
338.056, 5523.727
339.414, 7417.753
340.772, 9575.197
342.129, 11310.655
343.487, 12206.912
344.844, 12129.999
346.201, 11230.116
347.557, 10639.171
348.914, 9844.997
350.270, 9592.036
351.626, 8859.258
352.982, 8075.422
354.337, 6611.789
355.693, 4889.006
357.048, 3526.622
358.402, 2298.821
359.757, 1641.929
361.111, 894.604
362.465, 487.854
363.819, 281.469
365.173, 30.252
366.526, 112.229
367.879, 243.128
369.232, 234.193
370.585, 193.336
371.937, 249.516
373.290, 168.808
374.642, 277.162
375.993, 43.607
377.345, 88.913
378.696, 423.420
380.047, 785.911
381.398, 1550.384
382.748, 2624.839
384.099, 3895.274
385.449, 5480.692
386.799, 7216.090
388.148, 8081.467
389.497, 8896.824
390.847, 9092.158
392.196, 9317.402
393.544, 8872.453
394.893, 8127.323
396.241, 7012.012
397.589, 5736.654
398.936, 4641.279
400.284, 3745.886
401.631, 3257.472
402.978, 2707.040
404.325, 2248.587
405.672, 2179.115
407.018, 1950.624
408.364, 2007.113
409.710, 2165.582
411.055, 2787.032
412.401, 3626.460
413.746, 4660.870
415.091, 5875.260
416.435, 7049.628
417.780, 7614.003
419.124, 7838.383
420.468, 7932.761
421.812, 8667.141
423.155, 9751.512
424.498, 11505.876
425.842, 13810.236
427.184, 15584.587
428.527, 17908.928
429.869, 18253.258
431.211, 17927.572
432.553, 15771.879
433.895, 13256.173
435.236, 10690.453
436.577, 8064.720
437.918, 6468.974
439.259, 5653.216
440.599, 5317.442
441.940, 5351.654
443.280, 5505.852
444.619, 5310.030
445.959, 4624.195
447.298, 3858.341
448.637, 2786.469
449.976, 1942.577
451.315, 1523.667
452.653, 1096.737
453.991, 884.786
455.329, 675.834
456.667, 529.901
458.004, 424.962
459.341, 223.006
460.678, 179.028
462.015, 69.024
463.352, 81.979
464.688, 254.894
466.024, 356.784
467.360, 585.650
468.695, 762.492
470.031, 922.308
471.366, 820.098
472.701, 555.863
474.035, 546.601
475.370, 327.312
476.704, 436.997
478.038, 508.655
479.372, 748.285
480.705, 1206.888
482.038, 1618.462
483.371, 2106.008
484.704, 2494.526
486.037, 2156.034
487.369, 1767.526
488.701, 1119.991
490.033, 564.450
491.365, 229.878
492.696, 41.724
494.027, 262.434
495.358, 330.368
496.689, 338.562
498.019, 445.022
499.350, 354.801
500.680, 249.855
502.009, 218.127
503.339, 71.602
504.668, 21.202
505.997, 28.101
507.326, 56.330
508.655, 80.498
509.983, 148.664
511.311, 138.827
512.639, 159.774
513.967, 157.886
515.295, 139.350
516.622, 115.555
517.949, 56.228
519.276, 7.064
520.602, 79.919
521.929, 168.869
523.255, 158.916
524.581, 216.648
525.906, 258.241
527.232, 247.235
528.557, 299.469
529.882, 286.204
531.207, 218.440
532.531, 428.082
533.855, 632.733
535.179, 1032.504
536.503, 1334.871
537.827, 1831.641
539.150, 2562.384
540.473, 3340.112
541.796, 4184.813
543.119, 5035.487
544.441, 5736.135
545.764, 6016.754
547.086, 5767.348
548.407, 5447.915
549.729, 4718.454
551.050, 4138.967
552.371, 3989.453
553.692, 3939.915
555.013, 4310.351
556.333, 4570.761
557.653, 5561.151
558.973, 6021.516
560.293, 6161.856
561.612, 6042.173
562.932, 5142.467
564.251, 4562.735
565.569, 4012.981
566.888, 3559.204
568.206, 3465.402
569.524, 3195.578
570.842, 3469.730
572.160, 3479.857
573.477, 3448.964
574.795, 3384.046
576.112, 3091.105
577.428, 3164.141
578.745, 3140.152
580.061, 3389.141
581.377, 3760.106
582.693, 4364.048
584.009, 5253.967
585.324, 6113.862
586.639, 6813.734
587.954, 7223.583
589.269, 6863.406
590.583, 6223.207
591.897, 5202.986
593.212, 3982.740
594.525, 3219.472
595.839, 2310.179
597.152, 2024.864
598.465, 1620.526
599.778, 1525.165
601.091, 1506.780
602.403, 1445.372
603.716, 1596.941
605.028, 1753.488
606.339, 1981.011
607.651, 2256.511
608.962, 2258.989
610.273, 2443.444
611.584, 2214.877
612.895, 2339.286
614.205, 2391.674
615.515, 2293.037
616.825, 2539.380
618.135, 2547.699
619.444, 2460.901
620.754, 2390.496
622.063, 2040.345
623.372, 1707.575
624.680, 1346.784
625.989, 1005.971
627.297, 749.136
628.605, 592.280
629.912, 549.403
631.220, 420.505
632.527, 458.586
633.834, 625.646
635.141, 783.685
636.447, 1090.703
637.754, 1288.700
639.060, 1656.677
640.366, 1917.634
641.671, 2178.569
642.977, 2247.285
644.282, 2176.358
645.587, 2141.234
646.892, 1877.612
648.196, 1548.447
649.501, 1213.140
650.805, 967.740
652.109, 724.184
653.412, 605.812
654.716, 382.637
656.019, 364.749
657.322, 331.501
658.625, 316.827
659.927, 377.137
661.230, 539.642
662.532, 796.312
663.834, 995.948
665.135, 1362.644
666.437, 1836.325
667.738, 2472.974
669.039, 3340.497
670.340, 4389.058
671.640, 5765.938
672.940, 7687.401
674.241, 9057.685
675.540, 10500.991
676.840, 10849.876
678.139, 10845.389
679.439, 9385.159
680.738, 8047.764
682.036, 6719.952
683.335, 5237.752
684.633, 4385.751
685.931, 3614.338
687.229, 3126.624
688.527, 2897.896
689.824, 2660.855
691.121, 2722.285
692.418, 2820.615
693.715, 3012.205
695.012, 3443.180
696.308, 3792.139
697.604, 4541.092
698.900, 5450.036
700.195, 6528.969
701.491, 8237.895
702.786, 10196.806
704.081, 12875.709
705.376, 16364.602
706.670, 20573.488
707.964, 27142.357
709.259, 33091.227
710.552, 40370.082
711.846, 45718.934
713.139, 48507.777
714.433, 48736.605
715.726, 43125.422
717.018, 38884.238
718.311, 31433.043
719.603, 25811.840
720.895, 21050.631
722.187, 16009.415
723.479, 13038.191
724.770, 10446.961
726.061, 8715.723
727.352, 7354.479
728.643, 6053.229
729.934, 5371.974
731.224, 4460.711
732.514, 3989.443
733.804, 3510.169
735.094, 2877.891
736.383, 2741.605
737.672, 2501.315
738.961, 2078.021
740.250, 2051.723
741.539, 1795.419
742.827, 1711.111
744.115, 1709.799
745.403, 1504.483
746.691, 1567.163
747.978, 1451.840
749.265, 1401.513
750.552, 1584.184
751.839, 1542.851
753.126, 1722.515
754.412, 2167.176
755.698, 2168.224
756.984, 2372.492
758.270, 2570.146
759.555, 3136.799
760.840, 3590.449
762.125, 4099.098
763.410, 4867.748
764.695, 5296.396
765.979, 5645.041
767.263, 5563.686
768.547, 5492.332
769.831, 5070.977
771.114, 4319.623
772.398, 3978.268
773.681, 3228.912
774.964, 2786.560
776.246, 2390.217
777.529, 1951.883
778.811, 1642.549
780.093, 1328.218
781.375, 1189.888
782.656, 1001.560
783.937, 731.234
785.219, 653.910
786.499, 489.588
787.780, 370.269
789.060, 445.954
790.341, 195.640
791.621, 179.330
792.901, 183.024
794.180, 67.721
795.459, 180.421
796.739, 51.875
798.017, 31.205
799.296, 92.440
800.575, 66.910
801.853, 151.699
803.131, 68.312
804.409, 111.930
805.686, 218.593
806.964, 232.359
808.241, 536.245
809.518, 571.254
810.795, 630.415
812.071, 739.703
813.347, 397.092
814.623, 460.572
815.899, 318.106
817.175, 110.681
818.450, 56.284
819.726, 128.092
821.001, 122.527
822.275, 123.025
823.550, 186.586
824.824, 131.249
826.098, 217.981
827.372, 205.826
828.646, 215.774
829.920, 255.796
831.193, 115.925
832.466, 273.069
833.739, 149.287
835.011, 217.514
836.284, 223.811
837.556, 149.200
838.828, 156.667
840.100, 135.449
841.371, 103.634
842.642, 145.519
843.914, 37.273
845.184, 103.047
846.455, 20.876
847.726, 95.283
848.996, 29.550
850.266, 136.602
851.536, 208.762
852.805, 206.931
854.075, 289.123
855.344, 342.323
856.613, 396.534
857.881, 542.756
859.150, 690.988
860.418, 713.232
861.686, 657.487
862.954, 859.752
864.222, 901.033
865.489, 874.325
866.756, 980.628
868.023, 900.961
869.290, 1323.305
870.557, 1261.668
871.823, 1340.042
873.089, 1262.443
874.355, 1408.866
875.621, 1490.302
876.886, 1344.768
878.152, 1427.258
879.417, 1704.761
880.682, 1484.290
881.946, 1987.833
883.211, 1503.391
884.475, 1139.971
885.739, 1265.564
887.003, 1261.178
888.266, 1319.812
889.530, 1618.459
890.793, 1668.132
892.056, 2024.820
893.318, 2275.522
894.581, 2479.241
895.843, 2970.974
897.105, 3203.742
898.367, 3826.524
899.629, 4305.323
900.890, 4424.140
902.152, 4628.150
903.413, 4591.819
904.673, 4380.684
905.934, 4039.564
907.194, 3409.462
908.454, 2956.376
909.714, 2471.307
910.974, 2126.287
912.234, 1899.284
913.493, 1653.298
914.752, 1552.351
916.011, 1427.421
917.270, 1462.508
918.528, 1545.615
919.786, 1488.740
921.044, 1425.898
922.302, 1586.075
923.560, 1561.270
924.817, 1846.503
926.074, 1768.753
927.331, 1955.022
928.588, 2072.321
929.844, 2036.639
931.101, 2157.980
932.357, 2107.340
933.613, 1994.723
934.868, 2173.131
936.124, 1951.557
937.379, 2131.024
938.634, 2306.512
939.889, 2387.019
941.144, 2474.544
942.398, 2680.091
943.652, 3007.023
944.906, 3341.561
946.160, 3705.844
947.414, 4355.468
948.667, 4491.494
949.920, 5278.800
951.173, 6218.487
952.426, 6923.678
953.678, 8323.409
954.931, 10673.170
956.183, 11422.952
957.435, 14402.755
958.686, 16612.600
959.938, 19622.465
961.189, 21672.348
962.440, 22412.250
963.691, 22742.166
964.941, 20852.105
966.192, 19322.064
967.442, 17692.039
968.692, 16522.031
969.942, 16322.046
971.191, 16503.756
972.441, 17105.826
973.690, 19047.879
974.939, 20215.961
976.187, 21797.539
977.436, 22453.695
978.684, 21340.648
979.932, 20947.018
981.180, 18410.902
982.428, 17033.611
983.675, 15226.497
984.922, 13667.199
986.169, 12873.660
987.416, 11759.780
988.663, 11310.639
989.909, 11301.092
991.155, 10892.960
992.401, 11136.885
993.647, 11338.248
994.893, 11606.220
996.138, 12280.396
997.383, 12229.355
998.628, 12699.958
999.873, 12968.627
1001.117, 12399.297
1002.362, 12220.018
1003.606, 11553.559
1004.850, 10444.348
1006.093, 9765.202
1007.337, 8396.465
1008.580, 7437.385
1009.823, 6558.667
1011.066, 5599.661
1012.308, 5010.698
1013.551, 4272.695
1014.793, 3713.823
1016.035, 3574.981
1017.277, 3043.075
1018.518, 2929.333
1019.760, 2675.809
1021.001, 2437.136
1022.242, 2659.404
1023.483, 2534.700
1024.723, 2545.141
1025.964, 2637.230
1027.204, 2513.093
1028.444, 2681.630
1029.683, 2593.782
1030.923, 2732.376
1032.162, 2792.053
1033.401, 2788.363
1034.640, 2911.065
1035.879, 3219.773
1037.117, 3312.494
1038.355, 3744.301
1039.593, 3728.030
1040.831, 3899.887
1042.069, 4031.780
1043.306, 3923.745
1044.544, 4315.687
1045.781, 4591.377
1047.017, 4933.369
1048.254, 5855.385
1049.490, 6297.472
1050.726, 6979.531
1051.962, 7381.618
1053.198, 7613.727
1054.434, 8175.856
1055.669, 7608.059
1056.904, 7550.238
1058.139, 7202.437
1059.374, 6261.919
1060.608, 5624.201
1061.843, 4846.465
1063.077, 4273.554
1064.311, 3835.856
1065.544, 3378.180
1066.778, 3274.794
1068.011, 3246.155
1069.244, 3111.166
1070.477, 3471.594
1071.710, 3664.035
1072.942, 4240.947
1074.174, 5053.399
1075.406, 5715.927
1076.638, 7151.005
1077.870, 8203.509
1079.101, 9296.975
1080.332, 9568.781
1081.563, 9783.189
1082.794, 9156.778
1084.025, 8359.394
1085.255, 6937.173
1086.485, 6030.182
1087.715, 5052.819
1088.945, 4155.471
1090.175, 3958.368
1091.404, 3158.217
1092.633, 2713.104
1093.862, 2476.823
1095.091, 2129.772
1096.319, 1998.908
1097.548, 1855.768
1098.776, 1733.466
1100.004, 1704.028
1101.231, 1544.875
1102.459, 1510.833
1103.686, 1464.708
1104.913, 1188.712
1106.140, 1247.978
1107.367, 1051.889
1108.593, 939.058
1109.819, 900.173
1111.046, 651.119
1112.271, 690.373
1113.497, 567.441
1114.722, 524.282
1115.948, 534.827
1117.173, 357.827
1118.398, 449.002
1119.622, 466.518
1120.847, 332.623
1122.071, 406.179
1123.295, 262.604
1124.519, 196.898
1125.742, 327.240
1126.966, 112.696
1128.189, 162.162
1129.412, 163.030
1130.635, 104.616
1131.857, 172.388
1133.080, 82.106
1134.302, 38.038
1135.524, 168.990
1136.746, 58.318
1137.967, 3.361
1139.188, 22.288
1140.410, 41.501
1141.631, 117.421
1142.851, 61.075
1144.072, 28.702
1145.292, 145.387
1146.512, 0.245
1147.732, 96.526
1148.952, 113.047
1150.172, 96.468
1151.391, 85.462
1152.610, 1.671
1153.829, 24.145
1155.048, 10.875
1156.266, 19.185
1157.484, 25.029
1158.702, 48.255
1159.920, 40.798
1161.138, 4.920
1162.356, 31.000
1163.573, 17.897
1164.790, 38.933
1166.007, 43.253
1167.224, 28.288
1168.440, 79.880
1169.656, 57.651
1170.872, 88.700
1172.088, 89.805
1173.304, 65.579
1174.519, 139.941
1175.735, 67.809
1176.950, 13.290
1178.165, 2.475
1179.379, 44.501
1180.594, 57.984
1181.808, 27.417
1183.022, 26.550
1184.236, 92.607
1185.449, 43.935
1186.663, 71.761
1187.876, 51.425
1189.089, 2.522
1190.302, 55.437
1191.515, 68.935
1192.727, 7.784
1193.939, 191.688
1195.151, 4.672
1196.363, 22.188
1197.575, 109.098
1198.786, 20.963
1199.997, 107.432
1201.208, 16.217
1202.419, 36.654
1203.630, 68.106
1204.840, 112.995
1206.051, 30.327
1207.261, 55.637
1208.470, 70.672
1209.680, 71.553
1210.889, 122.769
1212.099, 7.957
1213.308, 103.124
1214.516, 46.728
1215.725, 57.367
1216.933, 61.443
1218.142, 57.107
1219.350, 111.889
1220.557, 62.865
1221.765, 24.070
1222.972, 181.839
1224.180, 4.139
1225.387, 64.996
1226.593, 4.833
1227.800, 6.021
1229.006, 90.801
1230.213, 58.455
1231.419, 23.443
1232.624, 55.923
1233.830, 39.451
1235.035, 55.607
1236.241, 73.258
1237.446, 71.045
1238.650, 116.655
1239.855, 68.226
1241.059, 39.781
1242.264, 106.319
1243.468, 23.841
1244.671, 29.481
1245.875, 195.956
1247.078, 3.533
1248.282, 164.041
1249.485, 115.441
1250.687, 45.857
1251.890, 216.484
1253.092, 92.807
1254.295, 111.354
1255.497, 167.619
1256.699, 88.919
1257.900, 138.225
1259.102, 44.382
1260.303, 62.060
1261.504, 231.123
1262.705, 133.135
1263.905, 78.415
1265.106, 237.307
1266.306, 89.151
1267.506, 131.919
1268.706, 176.597
1269.905, 24.228
1271.105, 174.778
1272.304, 193.275
1273.503, 115.732
1274.702, 204.148
1275.900, 172.485
1277.099, 232.027
1278.297, 166.248
1279.495, 59.430
1280.693, 109.550
1281.891, 31.626
1283.088, 14.639
1284.285, 166.617
1285.482, 40.553
1286.679, 101.436
1287.876, 110.280
1289.072, 26.081
1290.268, 91.878
1291.464, 69.556
1292.660, 36.777
1293.856, 143.825
1295.051, 21.595
1296.247, 39.104
1297.442, 210.544
1298.637, 75.443
1299.831, 84.896
1301.026, 17.865
1302.220, 18.108
1303.414, 92.295
1304.608, 39.493
1305.802, 45.574
1306.995, 79.876
1308.188, 90.053
1309.381, 97.835
1310.574, 29.489
1311.767, 43.729
1312.960, 171.088
1314.152, 60.859
1315.344, 26.463
1316.536, 151.430
1317.728, 47.563
1318.919, 58.003
1320.110, 161.917
1321.301, 58.734
1322.492, 176.515
1323.683, 97.115
1324.874, 18.694
1326.064, 199.477
1327.254, 22.620
1328.444, 94.664
1329.634, 223.896
1330.823, 9.860
1332.013, 128.773
1333.202, 165.875
1334.391, 77.709
1335.580, 195.781
1336.768, 148.535
1337.956, 130.249
1339.145, 316.971
1340.333, 137.603
1341.520, 145.197
1342.708, 325.918
1343.895, 60.438
1345.083, 264.872
1346.270, 230.323
1347.456, 128.732
1348.643, 359.850
1349.829, 231.153
1351.016, 136.461
1352.202, 367.888
1353.387, 227.088
1354.573, 298.253
1355.759, 298.583
1356.944, 230.674
1358.129, 352.103
1359.314, 267.298
1360.498, 134.267
1361.683, 354.758
1362.867, 254.810
1364.051, 198.625
1365.235, 319.857
1366.419, 125.739
1367.602, 325.522
1368.785, 283.855
1369.968, 130.658
1371.151, 316.112
1372.334, 234.896
1373.517, 178.238
1374.699, 382.114
1375.881, 198.138
1377.063, 302.659
1378.245, 429.726
1379.426, 192.976
1380.608, 314.698
1381.789, 278.625
1382.970, 248.152
1384.150, 336.688
1385.331, 255.918
1386.511, 194.922
1387.691, 373.266
1388.871, 203.209
1390.051, 213.900
1391.231, 342.839
1392.410, 157.034
1393.589, 322.854
1394.768, 271.878
1395.947, 175.443
1397.126, 288.345
1398.304, 215.379
1399.483, 205.170
1400.661, 349.018
1401.838, 113.275
1403.016, 236.086
1404.194, 345.075
1405.371, 128.552
1406.548, 283.246
1407.725, 291.842
1408.901, 214.828
1410.078, 349.437
1411.254, 200.277
1412.430, 258.567
1413.606, 344.114
1414.782, 188.417
1415.958, 272.082
1417.133, 327.730
1418.308, 82.163
1419.483, 320.934
1420.658, 324.352
1421.832, 140.445
1423.007, 238.785
1424.181, 163.343
1425.355, 220.907
1426.529, 332.811
1427.702, 139.681
1428.876, 220.644
1430.049, 237.771
1431.222, 118.001
1432.395, 281.929
1433.567, 182.796
1434.740, 167.616
1435.912, 253.645
1437.084, 211.399
1438.256, 126.880
1439.428, 321.720
1440.599, 121.515
1441.770, 203.013
1442.942, 243.996
1444.112, 140.942
1445.283, 290.648
1446.454, 172.596
1447.624, 44.414
1448.794, 297.729
1449.964, 151.917
1451.134, 118.026
1452.303, 292.368
1453.473, 151.651
1454.642, 196.263
1455.811, 286.695
1456.980, 84.921
1458.148, 291.823
1459.317, 213.741
1460.485, 61.999
1461.653, 294.516
1462.821, 145.198
1463.989, 97.997
1465.156, 313.263
1466.323, 93.424
1467.490, 202.652
1468.657, 304.861
1469.824, 48.094
1470.991, 194.137
1472.157, 234.306
1473.323, 23.564
1474.489, 328.530
1475.655, 132.621
1476.820, 114.695
1477.986, 299.770
1479.151, 47.591
1480.316, 173.665
1481.481, 297.821
1482.645, 29.120
1483.810, 187.400
1484.974, 240.088
1486.138, 66.280
1487.302, 238.164
1488.465, 167.164
1489.629, 76.233
1490.792, 261.473
1491.955, 83.841
1493.118, 128.485
1494.281, 261.180
1495.443, 6.890
1496.606, 148.242
1497.768, 250.968
1498.930, 18.594
1500.091, 283.155
1501.253, 207.276
1502.414, 43.178
1503.575, 240.432
1504.736, 103.165
1505.897, 52.467
1507.058, 261.849
1508.218, 0.521
1509.379, 0.000
##END=



