##NAMES=Axinite-(Fe)
##RRUFFID=R040074
##IDEAL CHEMISTRY=Ca_4_Fe^2+^_2_Al_4_[B_2_Si_8_O_30_](OH)_2_
##LOCALITY=Luning, Nevada, USA
##OWNER=RRUFF
##SOURCE=University of Arizona Mineral Museum
##DESCRIPTION=Pale brown wedge-shaped crystal
##STATUS=The identification of this mineral has been confirmed by X-ray diffraction and chemical analysis
##URL=rruff.info/R040074
##MEASURED CHEMISTRY=(Ca_0.98_Mn_0.01_)_2_(Fe_0.41_Mg_0.39_Mn_0.20_)Al_1.95_B_1.20_Si_3.90_O_15_(OH)
##PIN_ID=M00342
##ORIENTATION=Laser parallel to -a* (-1 0 0). Fiducial mark perpendicular to laser is parallel to b [0 1 0]
92.477, 0.000
93.873, 12.467
95.268, 4.042
96.663, 157.917
98.058, 324.014
99.453, 713.485
100.848, 918.476
102.242, 1167.032
103.636, 1634.273
105.030, 2480.690
106.423, 3699.205
107.817, 5485.347
109.210, 9474.825
110.603, 8908.231
111.996, 11215.496
113.388, 9024.524
114.780, 7741.923
116.172, 7361.049
117.564, 6717.896
118.956, 6099.887
120.347, 5341.443
121.738, 5023.907
123.129, 4298.328
124.519, 3825.793
125.910, 3057.203
127.300, 2583.678
128.690, 2077.192
130.080, 1576.496
131.469, 1301.921
132.858, 853.892
134.248, 772.780
135.636, 588.922
137.025, 683.999
138.413, 1266.518
139.801, 1933.797
141.189, 2684.465
142.577, 3144.235
143.964, 3322.204
145.352, 3473.626
146.739, 3570.565
148.125, 3663.544
149.512, 3816.976
150.898, 4020.768
152.284, 3874.900
153.670, 3979.350
155.056, 3614.100
156.441, 3469.135
157.827, 3264.425
159.212, 3039.891
160.596, 2776.112
161.981, 2528.205
163.365, 2504.574
164.749, 2567.330
166.133, 3342.699
167.517, 4398.285
168.900, 5754.078
170.283, 6670.064
171.666, 7106.237
173.049, 6612.586
174.431, 5529.107
175.813, 4465.861
177.195, 3343.037
178.577, 2410.676
179.959, 1688.774
181.340, 927.321
182.721, 332.297
184.102, 49.324
185.483, 333.568
186.863, 581.464
188.244, 631.034
189.624, 498.314
191.003, 458.334
192.383, 94.120
193.762, 10.306
195.141, 26.927
196.520, 139.277
197.899, 287.316
199.277, 125.222
200.656, 37.938
202.034, 333.125
203.411, 964.312
204.789, 1816.500
206.166, 2618.692
207.543, 3550.889
208.920, 4493.098
210.297, 5545.316
211.673, 6387.541
213.049, 6799.777
214.425, 7122.023
215.801, 7164.284
217.176, 6666.576
218.552, 6108.904
219.927, 5261.265
221.302, 4273.498
222.676, 3334.991
224.051, 2365.440
225.425, 1845.158
226.799, 1064.658
228.173, 723.857
229.546, 264.271
230.919, 129.772
232.292, 16.186
233.665, 97.922
235.038, 303.479
236.410, 473.281
237.782, 997.170
239.154, 1089.104
240.526, 1451.073
241.898, 1713.081
243.269, 1675.124
244.640, 1807.158
246.011, 1829.098
247.381, 2161.030
248.752, 2462.996
250.122, 3015.001
251.492, 3487.047
252.861, 3919.130
254.231, 4421.250
255.600, 4453.410
256.969, 4685.605
258.338, 4516.451
259.707, 4427.209
261.075, 4519.359
262.443, 4862.002
263.811, 5524.956
265.179, 5918.104
266.546, 6811.346
267.914, 7594.615
269.281, 8467.874
270.647, 8741.071
272.014, 9234.155
273.380, 9497.083
274.747, 9149.843
276.113, 8742.428
277.478, 7934.832
278.844, 7047.064
280.209, 6159.127
281.574, 5160.969
282.939, 4522.467
284.304, 3983.601
285.668, 3574.368
287.032, 3464.807
288.396, 3304.951
289.760, 3384.834
291.123, 3454.477
292.487, 3573.903
293.850, 3873.123
295.212, 4012.156
296.575, 4381.016
297.937, 4469.721
299.300, 4708.281
300.662, 4686.711
302.023, 4815.012
303.385, 4742.842
304.746, 4469.290
306.107, 4494.259
307.468, 4368.342
308.829, 4452.093
310.189, 4495.160
311.549, 4497.863
312.909, 4750.572
314.269, 5833.339
315.629, 7106.156
316.988, 8589.022
318.347, 9731.938
319.706, 10954.900
321.065, 10887.909
322.423, 10320.963
323.781, 9094.061
325.139, 7957.203
326.497, 6790.314
327.855, 5693.326
329.212, 5156.355
330.569, 4739.430
331.926, 4512.549
333.283, 4645.717
334.639, 4958.928
335.995, 5382.186
337.351, 6135.554
338.707, 7349.697
340.063, 8984.067
341.418, 10598.555
342.773, 12012.689
344.128, 12696.862
345.483, 12980.760
346.837, 11560.335
348.192, 10495.862
349.546, 8854.205
350.899, 7716.941
352.253, 6387.326
353.606, 5395.902
354.960, 4327.160
356.313, 3022.053
357.665, 2193.697
359.018, 1417.589
360.370, 929.949
361.722, 350.696
363.074, 96.976
364.426, 45.185
365.777, 75.506
367.128, 45.720
368.479, 249.588
369.830, 462.059
371.181, 715.082
372.531, 1004.262
373.881, 1259.863
375.231, 1231.014
376.581, 1272.298
377.930, 1131.562
379.280, 1065.815
380.629, 1213.814
381.977, 1525.965
383.326, 2180.072
384.674, 3074.188
386.023, 4008.319
387.370, 5262.469
388.718, 5966.641
390.066, 6820.834
391.413, 6874.790
392.760, 6786.350
394.107, 6306.357
395.454, 5651.930
396.800, 4921.636
398.146, 4333.773
399.492, 3766.910
400.838, 3731.204
402.184, 3445.509
403.529, 3199.823
404.874, 2904.148
406.219, 2438.484
407.564, 2422.829
408.908, 2487.184
410.252, 2131.548
411.596, 2375.923
412.940, 3030.308
414.284, 3694.701
415.627, 4729.104
416.970, 5983.514
418.313, 6587.934
419.656, 7522.359
420.999, 8366.762
422.341, 8991.141
423.683, 9915.486
425.025, 10389.796
426.367, 10754.072
427.708, 10468.308
429.049, 10402.507
430.390, 9896.667
431.731, 9100.787
433.072, 8294.872
434.412, 7028.921
435.752, 6292.932
437.092, 4976.909
438.432, 4390.848
439.772, 4294.756
441.111, 4338.627
442.450, 4682.461
443.789, 5246.259
445.127, 5210.022
446.466, 4913.756
447.804, 4177.456
449.142, 3251.129
450.480, 2484.771
451.817, 1938.385
453.155, 1461.974
454.492, 1379.534
455.829, 1252.070
457.166, 1207.582
458.502, 1192.069
459.838, 847.533
461.175, 650.975
462.510, 560.392
463.846, 461.788
465.181, 468.163
466.517, 526.529
467.852, 771.891
469.186, 883.255
470.521, 1121.628
471.855, 1415.008
473.190, 1337.452
474.523, 1393.373
475.857, 1631.323
477.191, 1894.998
478.524, 2288.704
479.857, 3062.500
481.190, 4196.387
482.523, 5290.378
483.855, 6074.488
485.187, 6177.982
486.519, 6412.982
487.851, 5447.412
489.183, 4261.907
490.514, 2886.507
491.845, 2041.179
493.176, 1362.916
494.507, 764.743
495.837, 534.590
497.168, 356.811
498.498, 183.458
499.828, 141.440
501.157, 124.358
502.487, 220.611
503.816, 222.127
505.145, 206.493
506.474, 234.350
507.802, 386.164
509.131, 295.052
510.459, 377.087
511.787, 263.335
513.115, 362.816
514.442, 419.507
515.770, 265.373
517.097, 280.319
518.424, 38.312
519.750, 48.665
521.077, 33.401
522.403, 249.424
523.729, 354.122
525.055, 358.259
526.381, 511.337
527.706, 536.172
529.031, 544.594
530.356, 424.826
531.681, 426.319
533.006, 225.077
534.330, 248.994
535.654, 91.082
536.978, 58.260
538.302, 132.489
539.625, 196.210
540.949, 401.904
542.272, 557.580
543.595, 1040.236
544.917, 988.845
546.240, 1108.492
547.562, 1012.092
548.884, 903.670
550.206, 839.228
551.527, 707.766
552.849, 856.295
554.170, 1076.822
555.491, 1479.368
556.812, 1747.914
558.132, 2482.447
559.453, 3075.962
560.773, 3319.455
562.093, 3482.925
563.412, 3276.371
564.732, 2789.793
566.051, 2583.192
567.370, 2366.567
568.689, 2449.918
570.008, 2423.244
571.326, 2576.545
572.644, 2729.820
573.963, 2823.070
575.280, 2926.295
576.598, 2579.494
577.915, 2452.667
579.233, 2105.812
580.550, 1888.932
581.866, 1852.024
583.183, 1732.090
584.499, 1806.128
585.815, 2071.140
587.131, 1884.124
588.447, 2117.148
589.763, 1920.406
591.078, 1725.769
592.393, 1559.153
593.708, 1045.646
595.022, 961.039
596.337, 556.200
597.651, 507.530
598.965, 524.277
600.279, 451.985
601.593, 478.666
602.906, 567.319
604.219, 767.943
605.532, 968.540
606.845, 1199.107
608.158, 1499.647
609.470, 1684.158
610.782, 2086.641
612.094, 2389.095
613.406, 2461.519
614.718, 2873.915
616.029, 3036.282
617.340, 3468.620
618.651, 3810.928
619.962, 3843.207
621.272, 3935.569
622.582, 3257.929
623.892, 2781.058
625.202, 2154.440
626.512, 1507.231
627.821, 1150.630
629.131, 788.549
630.440, 603.037
631.749, 387.476
633.057, 405.283
634.366, 520.758
635.674, 582.019
636.982, 737.565
638.290, 1077.416
639.597, 1394.155
640.905, 1642.109
642.212, 1816.484
643.519, 2186.341
644.825, 2094.761
646.132, 2088.786
647.438, 1895.963
648.744, 1591.419
650.050, 1236.123
651.356, 1131.925
652.662, 804.115
653.967, 693.031
655.272, 591.619
656.577, 509.830
657.882, 493.429
659.186, 468.605
660.490, 612.953
661.794, 646.354
663.098, 765.667
664.402, 1081.332
665.705, 1231.114
667.009, 1641.705
668.312, 2048.728
669.614, 2721.431
670.917, 3576.666
672.219, 4508.607
673.522, 5890.102
674.824, 6701.156
676.125, 7780.830
677.427, 8008.129
678.728, 7627.671
680.030, 6871.727
681.331, 5828.372
682.631, 4854.615
683.932, 3941.186
685.232, 3226.073
686.532, 2740.315
687.832, 2341.966
689.132, 2027.423
690.432, 1954.417
691.731, 1873.823
693.030, 1934.057
694.329, 2076.272
695.628, 2214.459
696.926, 2542.861
698.224, 2962.074
699.522, 3561.288
700.820, 4140.454
702.118, 5359.567
703.415, 6588.632
704.713, 8097.645
706.010, 10206.607
707.307, 12425.523
708.603, 16414.385
709.900, 20223.195
711.196, 24411.955
712.492, 28470.670
713.788, 30629.330
715.083, 31657.936
716.379, 28656.500
717.674, 25655.012
718.969, 21323.469
720.264, 17251.881
721.558, 13560.236
722.853, 10878.547
724.147, 8326.806
725.441, 6725.015
726.735, 5283.175
728.028, 4331.285
729.322, 3509.345
730.615, 2867.356
731.908, 2355.316
733.201, 2013.229
734.493, 1619.092
735.785, 1389.905
737.078, 1132.669
738.370, 1073.384
739.661, 857.133
740.953, 719.668
742.244, 592.236
743.535, 526.756
744.826, 464.227
746.117, 431.646
747.407, 419.013
748.698, 386.327
749.988, 402.587
751.278, 450.795
752.567, 402.951
753.857, 535.055
755.146, 592.110
756.435, 693.118
757.724, 868.078
759.013, 829.991
760.301, 889.856
761.590, 1078.674
762.878, 1359.445
764.165, 1353.582
765.453, 1457.268
766.741, 1437.474
768.028, 1426.057
769.315, 1443.593
770.602, 1337.081
771.888, 1038.523
773.175, 1030.919
774.461, 862.269
775.747, 496.572
777.033, 488.828
778.319, 297.036
779.604, 228.190
780.889, 122.289
782.174, 68.327
783.459, 93.295
784.744, 126.800
786.028, 95.062
787.312, 117.900
788.596, 320.871
789.880, 47.723
791.164, 244.691
792.447, 250.886
793.730, 298.312
795.013, 366.993
796.296, 231.962
797.579, 305.151
798.861, 411.595
800.143, 168.350
801.425, 316.287
802.707, 195.482
803.989, 169.874
805.270, 269.445
806.551, 7.247
807.832, 69.142
809.113, 117.503
810.394, 253.667
811.674, 337.442
812.954, 401.306
814.234, 435.458
815.514, 404.706
816.794, 390.888
818.073, 316.529
819.352, 176.180
820.631, 118.784
821.910, 78.341
823.189, 10.153
824.467, 30.722
825.745, 47.622
827.023, 19.917
828.301, 111.156
829.578, 177.352
830.856, 104.508
832.133, 160.646
833.410, 226.747
834.687, 448.883
835.963, 449.607
837.240, 719.371
838.516, 542.764
839.792, 631.274
841.068, 650.908
842.343, 851.635
843.618, 894.453
844.894, 1135.312
846.169, 1397.226
847.443, 1511.145
848.718, 1673.064
849.992, 1824.960
851.266, 2126.830
852.540, 2218.676
853.814, 2130.491
855.088, 2332.295
856.361, 2194.083
857.634, 2265.841
858.907, 2477.590
860.180, 2329.316
861.453, 2261.039
862.725, 2372.751
863.997, 2504.439
865.269, 2506.121
866.541, 2407.806
867.812, 2539.480
869.084, 2481.165
870.355, 2482.846
871.626, 2574.523
872.897, 2620.569
874.167, 2787.836
875.438, 2839.477
876.708, 2741.101
877.978, 2852.719
879.248, 3024.334
880.517, 2885.930
881.787, 2997.522
883.056, 2799.103
884.325, 3090.664
885.594, 3062.235
886.862, 3263.786
888.130, 3545.320
889.399, 3696.843
890.667, 4208.346
891.934, 4679.857
893.202, 5101.367
894.469, 5852.860
895.737, 6794.357
897.004, 8025.768
898.270, 9126.904
899.537, 10357.943
900.803, 11678.916
902.070, 12239.737
903.336, 12560.728
904.601, 12584.228
905.867, 12142.589
907.132, 11524.010
908.398, 10615.429
909.663, 9426.842
910.928, 8578.239
912.192, 7419.625
913.457, 6710.999
914.721, 6122.358
915.985, 5143.723
917.249, 4765.074
918.512, 4316.411
919.776, 3857.741
921.039, 3669.057
922.302, 3310.360
923.565, 3351.657
924.827, 3162.940
926.090, 3214.215
927.352, 3265.478
928.614, 3226.618
929.876, 3417.741
931.138, 3438.055
932.399, 3398.075
933.660, 3637.643
934.922, 3406.562
936.182, 3625.915
937.443, 3513.658
938.704, 3603.410
939.964, 4011.754
941.224, 3847.385
942.484, 4240.190
943.744, 4570.675
945.003, 5100.809
946.262, 5768.018
947.521, 6230.971
948.780, 7122.461
950.039, 7599.432
951.298, 8569.800
952.556, 9475.520
953.814, 10132.049
955.072, 10846.258
956.330, 12082.174
957.587, 12931.954
958.845, 14858.302
960.102, 16460.898
961.359, 18290.715
962.615, 20151.129
963.872, 21171.934
965.128, 21733.043
966.384, 21254.328
967.640, 20015.516
968.896, 18556.686
970.152, 17977.572
971.407, 17057.900
972.662, 17168.027
973.917, 17108.016
975.172, 18295.799
976.427, 19372.416
977.681, 19922.375
978.935, 20812.207
980.189, 20042.500
981.443, 19733.100
982.697, 18384.064
983.950, 17474.682
985.203, 16605.623
986.456, 15437.542
987.709, 15059.192
988.962, 14631.117
990.214, 13922.854
991.467, 13744.561
992.719, 13126.629
993.971, 12488.430
995.222, 12320.409
996.474, 12213.874
997.725, 12345.669
998.976, 12518.144
1000.227, 12650.381
1001.478, 12962.588
1002.728, 12404.951
1003.978, 11866.850
1005.229, 11262.604
1006.479, 9896.846
1007.728, 9118.760
1008.978, 7994.547
1010.227, 6917.635
1011.476, 6264.676
1012.725, 5430.568
1013.974, 4633.056
1015.223, 4279.154
1016.471, 3687.864
1017.719, 3373.161
1018.967, 3113.607
1020.215, 2770.241
1021.462, 2737.262
1022.710, 2451.656
1023.957, 2484.776
1025.204, 2301.032
1026.451, 2174.793
1027.697, 2300.850
1028.944, 2097.402
1030.190, 2270.028
1031.436, 2276.922
1032.682, 2081.157
1033.928, 2243.914
1035.173, 2113.155
1036.418, 2156.016
1037.663, 2349.205
1038.908, 2403.479
1040.153, 2696.102
1041.398, 2764.885
1042.642, 2591.176
1043.886, 2924.012
1045.130, 2621.472
1046.374, 2744.669
1047.617, 3087.877
1048.860, 2762.320
1050.104, 3195.091
1051.347, 3278.465
1052.589, 3434.191
1053.832, 3787.045
1055.074, 3842.838
1056.316, 4316.009
1057.558, 4359.193
1058.800, 4523.868
1060.042, 4846.902
1061.283, 4730.215
1062.524, 4603.410
1063.765, 4416.531
1065.006, 3883.027
1066.247, 3636.247
1067.487, 3229.564
1068.728, 2733.148
1069.968, 2845.772
1071.208, 2389.156
1072.447, 2472.900
1073.687, 2575.719
1074.926, 2499.110
1076.165, 2782.385
1077.404, 3005.124
1078.643, 3333.398
1079.881, 3936.115
1081.120, 4139.555
1082.358, 4641.782
1083.596, 4694.076
1084.834, 4526.660
1086.071, 4459.170
1087.309, 3822.164
1088.546, 3285.771
1089.783, 2958.818
1091.020, 2422.317
1092.256, 2226.285
1093.493, 1869.094
1094.729, 1413.223
1095.965, 1526.830
1097.201, 1210.191
1098.436, 1114.649
1099.672, 1128.386
1100.907, 1012.305
1102.142, 997.004
1103.377, 910.424
1104.612, 844.764
1105.846, 1039.179
1107.081, 792.942
1108.315, 740.779
1109.549, 794.957
1110.782, 589.020
1112.016, 714.066
1113.249, 388.231
1114.483, 472.319
1115.716, 576.500
1116.948, 290.727
1118.181, 445.213
1119.413, 299.414
1120.646, 173.916
1121.878, 318.938
1123.110, 142.236
1124.341, 156.447
1125.573, 200.937
1126.804, 134.200
1128.035, 209.012
1129.266, 143.448
1130.497, 22.694
1131.727, 195.751
1132.957, 59.531
1134.188, 3.315
1135.418, 127.602
1136.647, 11.094
1137.877, 66.806
1139.106, 80.965
1140.335, 4.496
1141.564, 85.622
1142.793, 49.526
1144.022, 46.572
1145.250, 187.314
1146.479, 9.387
1147.707, 15.315
1148.934, 29.674
1150.162, 3.460
1151.390, 118.003
1152.617, 88.510
1153.844, 54.476
1155.071, 153.531
1156.298, 83.503
1157.524, 18.688
1158.751, 103.913
1159.977, 80.708
1161.203, 45.586
1162.428, 81.338
1163.654, 125.532
1164.879, 61.970
1166.105, 149.737
1167.330, 84.171
1168.555, 89.632
1169.779, 37.314
1171.004, 3.313
1172.228, 71.329
1173.452, 19.260
1174.676, 64.676
1175.900, 72.500
1177.123, 99.817
1178.346, 75.094
1179.570, 23.605
1180.793, 90.027
1182.015, 107.868
1183.238, 73.811
1184.460, 11.899
1185.683, 16.742
1186.905, 154.466
1188.126, 89.598
1189.348, 48.508
1190.569, 122.623
1191.791, 64.129
1193.012, 46.015
1194.233, 47.214
1195.453, 171.540
1196.674, 158.589
1197.894, 21.521
1199.114, 28.506
1200.334, 151.220
1201.554, 26.945
1202.774, 83.226
1203.993, 84.257
1205.212, 5.595
1206.431, 123.676
1207.650, 69.021
1208.869, 98.426
1210.087, 117.312
1211.305, 22.137
1212.524, 116.212
1213.741, 96.852
1214.959, 36.842
1216.177, 265.899
1217.394, 85.332
1218.611, 35.055
1219.828, 222.965
1221.045, 97.941
1222.261, 126.149
1223.478, 253.838
1224.694, 36.824
1225.910, 261.306
1227.126, 89.363
1228.342, 408.980
1229.557, 368.169
1230.772, 301.852
1231.987, 324.793
1233.202, 222.429
1234.417, 92.607
1235.631, 239.591
1236.846, 156.770
1238.060, 74.354
1239.274, 350.873
1240.488, 78.555
1241.701, 205.842
1242.915, 292.148
1244.128, 79.976
1245.341, 246.739
1246.554, 233.401
1247.767, 96.134
1248.979, 402.379
1250.191, 198.524
1251.403, 195.957
1252.615, 371.628
1253.827, 18.087
1255.039, 284.468
1256.250, 309.853
1257.461, 106.931
1258.672, 282.802
1259.883, 298.275
1261.094, 275.763
1262.304, 260.663
1263.514, 197.180
1264.724, 263.570
1265.934, 188.385
1267.144, 114.212
1268.354, 479.664
1269.563, 253.944
1270.772, 188.699
1271.981, 483.246
1273.190, 137.341
1274.398, 192.456
1275.607, 326.172
1276.815, 19.526
1278.023, 333.772
1279.231, 327.124
1280.439, 201.367
1281.646, 384.563
1282.853, 87.306
1284.060, 210.917
1285.267, 354.119
1286.474, 23.558
1287.681, 249.485
1288.887, 241.663
1290.093, 232.328
1291.299, 365.109
1292.505, 126.495
1293.711, 148.828
1294.916, 220.596
1296.121, 131.681
1297.327, 274.975
1298.531, 162.461
1299.736, 21.322
1300.941, 354.000
1302.145, 101.116
1303.349, 100.819
1304.553, 237.438
1305.757, 44.118
1306.961, 234.580
1308.164, 51.205
1309.367, 134.743
1310.570, 362.643
1311.773, 34.230
1312.976, 69.465
1314.178, 254.929
1315.381, 72.184
1316.583, 300.597
1317.785, 255.901
1318.987, 43.439
1320.188, 188.551
1321.390, 153.024
1322.591, 21.300
1323.792, 285.758
1324.993, 52.184
1326.193, 139.962
1327.394, 171.670
1328.594, 40.893
1329.794, 216.089
1330.994, 232.569
1332.194, 10.126
1333.394, 210.897
1334.593, 174.587
1335.792, 31.304
1336.991, 363.654
1338.190, 129.747
1339.389, 115.687
1340.587, 280.886
1341.786, 17.014
1342.984, 282.404
1344.182, 315.473
1345.379, 41.127
1346.577, 163.707
1347.774, 69.378
1348.972, 144.319
1350.169, 317.647
1351.365, 37.521
1352.562, 246.896
1353.759, 351.306
1354.955, 124.355
1356.151, 446.474
1357.347, 50.787
1358.543, 84.530
1359.738, 197.856
1360.934, 122.076
1362.129, 85.340
1363.324, 408.092
1364.519, 48.361
1365.713, 294.481
1366.908, 397.312
1368.102, 80.528
1369.296, 233.645
1370.490, 232.413
1371.684, 44.546
1372.877, 267.774
1374.071, 90.676
1375.264, 42.888
1376.457, 224.797
1377.650, 12.814
1378.843, 350.948
1380.035, 288.906
1381.227, 176.031
1382.419, 433.275
1383.611, 140.896
1384.803, 198.184
1385.995, 484.886
1387.186, 98.548
1388.377, 265.674
1389.568, 271.479
1390.759, 41.959
1391.950, 333.824
1393.140, 339.325
1394.331, 94.977
1395.521, 569.960
1396.711, 205.396
1397.900, 200.280
1399.090, 480.164
1400.279, 84.601
1401.469, 247.301
1402.658, 321.452
1403.847, 36.137
1405.035, 429.292
1406.224, 81.757
1407.412, 83.603
1408.600, 345.142
1409.788, 110.922
1410.976, 141.701
1412.164, 491.659
1413.351, 239.143
1414.538, 255.959
1415.725, 333.935
1416.912, 103.066
1418.099, 462.518
1419.285, 270.381
1420.472, 180.674
1421.658, 487.293
1422.844, 94.441
1424.030, 324.780
1425.215, 445.224
1426.401, 148.141
1427.586, 224.302
1428.771, 324.472
1429.956, 193.877
1431.141, 440.049
1432.325, 307.637
1433.510, 175.043
1434.694, 474.711
1435.878, 114.501
1437.062, 195.116
1438.245, 342.891
1439.429, 9.770
1440.612, 415.626
1441.795, 423.687
1442.978, 13.772
1444.161, 380.052
1445.343, 274.992
1446.526, 61.469
1447.708, 565.827
1448.890, 138.903
1450.072, 165.883
1451.253, 443.084
1452.435, 40.606
1453.616, 364.950
1454.797, 377.424
1455.978, 64.217
1457.159, 578.256
1458.340, 261.660
1459.520, 184.650
1460.700, 479.062
1461.880, 239.555
1463.060, 247.218
1464.240, 609.180
1465.420, 62.076
1466.599, 234.679
1467.778, 566.022
1468.957, 60.036
1470.136, 452.712
1471.315, 253.410
1472.493, 25.606
1473.671, 548.513
1474.849, 280.834
1476.027, 92.469
1477.205, 573.309
1478.383, 65.872
1479.560, 382.936
1480.737, 410.588
1481.914, 13.832
1483.091, 412.977
1484.268, 252.162
1485.444, 89.982
1486.621, 432.189
1487.797, 180.994
1488.973, 2.193
1490.149, 503.971
1491.324, 175.943
1492.500, 214.688
1493.675, 283.293
1494.850, 224.721
1496.025, 351.500
1497.200, 350.418
1498.374, 18.418
1499.548, 419.240
1500.723, 124.984
1501.897, 74.170
1503.071, 534.756
1504.244, 189.098
1505.418, 208.855
1506.591, 398.635
1507.764, 98.645
1508.937, 303.291
1510.110, 352.006
1511.282, 7.994
1512.455, 252.471
1513.627, 193.619
1514.799, 21.541
1515.971, 152.994
1517.143, 0.000
##END=



