##NAMES=Axinite-(Fe)
##RRUFFID=R040074
##IDEAL CHEMISTRY=Ca_4_Fe^2+^_2_Al_4_[B_2_Si_8_O_30_](OH)_2_
##LOCALITY=Luning, Nevada, USA
##OWNER=RRUFF
##SOURCE=University of Arizona Mineral Museum
##DESCRIPTION=Pale brown wedge-shaped crystal
##STATUS=The identification of this mineral has been confirmed by X-ray diffraction and chemical analysis
##URL=rruff.info/R040074
##MEASURED CHEMISTRY=(Ca_0.98_Mn_0.01_)_2_(Fe_0.41_Mg_0.39_Mn_0.20_)Al_1.95_B_1.20_Si_3.90_O_15_(OH)
##PIN_ID=M00153
##ORIENTATION=Laser parallel to (1 0 1). Fiducial mark perpendicular to laser is parallel to b [0 1 0]
89.685, 0.000
91.081, 11.692
92.477, 107.582
93.873, 146.167
95.268, 534.855
96.663, 814.756
98.058, 1319.237
99.453, 1793.373
100.848, 2138.447
102.242, 2601.915
103.636, 3318.552
105.030, 4420.450
106.423, 5394.449
107.817, 6358.466
109.210, 6642.567
110.603, 7274.641
111.996, 6801.275
113.388, 6482.039
114.780, 6023.652
116.172, 5712.886
117.564, 5410.169
118.956, 4570.961
120.347, 4113.832
121.738, 3579.840
123.129, 3069.859
124.519, 2414.699
125.910, 1706.771
127.300, 1195.625
128.690, 980.550
130.080, 441.968
131.469, 340.247
132.858, 125.730
134.248, 111.268
135.636, 19.527
137.025, 455.542
138.413, 1035.146
139.801, 1744.316
141.189, 2174.275
142.577, 2698.773
143.964, 3256.312
145.352, 3899.941
146.739, 4499.389
148.125, 5293.071
149.512, 6027.000
150.898, 6771.159
152.284, 6795.533
153.670, 6580.107
155.056, 5644.873
156.441, 4889.803
157.827, 4134.854
159.212, 3963.867
160.596, 3644.951
161.981, 3457.143
163.365, 3191.411
164.749, 3156.002
166.133, 3730.769
167.517, 4455.700
168.900, 5720.781
170.283, 6606.004
171.666, 7291.359
173.049, 7096.925
174.431, 6372.927
175.813, 5849.387
177.195, 4516.295
178.577, 3783.629
179.959, 2861.366
181.340, 1989.475
182.721, 1247.928
184.102, 626.696
185.483, 175.744
186.863, 115.530
188.244, 303.423
189.624, 227.692
191.003, 99.781
192.383, 254.291
193.762, 194.510
195.141, 72.772
196.520, 405.942
197.899, 620.544
199.277, 742.077
200.656, 569.590
202.034, 157.122
203.411, 417.325
204.789, 1347.757
206.166, 2188.174
207.543, 3328.579
208.920, 4518.970
210.297, 5599.342
211.673, 6389.703
213.049, 6970.051
214.425, 7420.387
215.801, 7460.715
217.176, 7181.038
218.552, 6401.367
219.927, 5481.697
221.302, 4471.812
222.676, 3471.311
224.051, 2410.450
225.425, 1639.592
226.799, 998.767
228.173, 552.359
229.546, 193.264
230.919, 42.367
232.292, 29.690
233.665, 76.526
235.038, 269.832
236.410, 641.179
237.782, 1301.562
239.154, 1591.976
240.526, 2082.419
241.898, 2362.880
243.269, 2383.276
244.640, 2543.508
246.011, 2533.673
247.381, 2923.834
248.752, 3113.994
250.122, 3804.152
251.492, 3984.308
252.861, 4614.462
254.231, 4744.616
255.600, 4464.877
256.969, 4555.068
258.338, 4196.302
259.707, 4237.838
261.075, 4479.529
262.443, 4991.271
263.811, 5742.994
265.179, 6534.648
266.546, 7616.182
267.914, 8427.549
269.281, 9258.739
270.647, 9699.724
272.014, 10070.495
273.380, 10031.046
274.747, 9531.388
276.113, 8951.514
277.478, 8011.087
278.844, 7370.407
280.209, 6519.518
281.574, 5868.385
282.939, 5316.928
284.304, 5035.134
285.668, 4633.033
287.032, 4350.654
288.396, 4018.027
289.760, 3875.171
291.123, 3792.096
292.487, 3648.814
293.850, 3692.523
295.212, 3711.700
296.575, 3887.686
297.937, 4012.438
299.300, 4278.953
300.662, 4422.094
302.023, 4937.970
303.385, 5303.617
304.746, 5558.357
306.107, 5862.192
307.468, 5815.553
308.829, 5977.682
310.189, 5488.434
311.549, 5278.885
312.909, 5269.360
314.269, 5709.866
315.629, 6620.396
316.988, 7740.957
318.347, 9071.543
319.706, 9872.154
321.065, 10392.790
322.423, 10203.452
323.781, 9224.121
325.139, 8574.702
326.497, 7495.137
327.855, 6685.560
329.212, 6186.012
330.569, 5816.492
331.926, 5577.002
333.283, 5597.539
334.639, 5538.102
335.995, 5828.696
337.351, 6599.320
338.707, 7859.972
340.063, 9420.657
341.418, 11321.364
342.773, 13022.532
344.128, 14273.549
345.483, 14585.147
346.837, 13446.749
348.192, 12415.786
349.546, 10669.150
350.899, 9428.309
352.253, 8046.045
353.606, 7018.984
354.960, 5471.366
356.313, 3998.304
357.665, 2825.844
359.018, 1770.236
360.370, 1085.166
361.722, 600.015
363.074, 217.017
364.426, 29.393
365.777, 3.374
367.128, 123.717
368.479, 160.333
369.830, 529.041
371.181, 770.370
372.531, 1073.221
373.881, 1330.824
375.231, 1334.370
376.581, 1424.721
377.930, 1222.678
379.280, 1075.648
380.629, 1359.310
381.977, 1570.225
383.326, 2210.911
384.674, 2973.401
386.023, 3925.918
387.370, 5088.359
388.718, 6010.617
390.066, 7192.845
391.413, 7583.436
392.760, 7941.351
394.107, 7265.309
395.454, 6295.415
396.800, 5280.171
398.146, 4427.509
399.492, 3776.933
400.838, 3247.460
402.184, 3067.973
403.529, 2798.470
404.874, 2428.954
406.219, 2129.423
407.564, 1954.879
408.908, 1929.319
410.252, 1966.745
411.596, 2201.157
412.940, 2781.554
414.284, 3461.937
415.627, 4282.303
416.970, 5352.654
418.313, 6332.949
419.656, 7573.190
420.999, 8843.368
422.341, 10183.485
423.683, 11493.536
425.025, 12193.524
426.367, 12783.444
427.708, 12133.301
429.049, 11893.092
430.390, 10752.820
431.731, 9832.484
433.072, 8272.094
434.412, 7001.642
435.752, 6011.130
437.092, 4890.564
438.432, 4359.941
439.772, 4239.546
441.111, 4298.919
442.450, 4808.268
443.789, 5297.470
445.127, 5366.582
446.466, 4935.639
447.804, 4144.644
449.142, 3213.595
450.480, 2472.495
451.817, 1959.343
453.155, 1619.140
454.492, 1542.886
455.829, 1403.583
457.166, 1307.231
458.502, 1212.831
459.838, 908.389
461.175, 721.940
462.510, 653.458
463.846, 572.928
465.181, 553.355
466.517, 664.746
467.852, 984.105
469.186, 1363.451
470.521, 1680.815
471.855, 2005.190
473.190, 2154.608
474.523, 2636.095
475.857, 3024.650
477.191, 3823.316
478.524, 5072.066
479.857, 6810.924
481.190, 9529.894
482.523, 12388.953
483.855, 15178.138
485.187, 17387.408
486.519, 16696.797
487.851, 14576.311
489.183, 11345.906
490.514, 8335.607
491.845, 5755.387
493.176, 4245.209
494.507, 2995.118
495.837, 2409.874
497.168, 1716.506
498.498, 1278.000
499.828, 1005.239
501.157, 820.841
502.487, 618.694
503.816, 661.349
505.145, 527.339
506.474, 530.880
507.802, 651.374
509.131, 592.835
510.459, 524.292
511.787, 496.801
513.115, 449.414
514.442, 366.111
515.770, 124.854
517.097, 15.565
518.424, 164.763
519.750, 221.208
521.077, 254.678
522.403, 533.444
523.729, 537.823
525.055, 529.099
526.381, 572.044
527.706, 526.738
529.031, 511.767
530.356, 393.735
531.681, 290.113
533.006, 78.735
534.330, 93.492
535.654, 138.609
536.978, 230.641
538.302, 225.606
539.625, 297.504
540.949, 235.337
542.272, 288.103
543.595, 332.803
544.917, 325.438
546.240, 342.007
547.562, 385.512
548.884, 390.953
550.206, 393.330
551.527, 399.649
552.849, 717.923
554.170, 849.175
555.491, 1424.423
556.812, 1750.646
558.132, 2563.829
559.453, 3006.964
560.773, 3459.047
562.093, 3535.076
563.412, 3201.052
564.732, 3032.975
566.051, 3122.843
567.370, 3178.657
568.689, 3554.416
570.008, 3840.120
571.326, 4405.768
572.644, 5031.361
573.963, 5276.900
575.280, 5482.381
576.598, 5057.808
577.915, 4823.176
579.233, 4188.489
580.550, 3603.745
581.866, 3228.945
583.183, 2855.088
584.499, 2566.175
585.815, 2542.204
587.131, 2433.320
588.447, 2372.830
589.763, 2189.232
591.078, 1851.938
592.393, 1652.641
593.708, 1290.350
595.022, 1147.581
596.337, 875.243
597.651, 712.178
598.965, 755.045
600.279, 748.717
601.593, 771.909
602.906, 849.829
604.219, 1013.384
605.532, 1127.546
606.845, 1471.650
608.158, 1869.695
609.470, 2155.682
610.782, 2877.609
612.094, 3505.479
613.406, 4479.291
614.718, 5643.042
616.029, 6746.737
617.340, 8280.369
618.651, 9483.942
619.962, 9927.555
621.272, 10221.598
622.582, 8955.997
623.892, 7461.049
625.202, 5836.817
626.512, 4384.708
627.821, 3358.647
629.131, 2403.626
630.440, 1784.818
631.749, 1429.104
633.057, 1088.780
634.366, 1069.334
635.674, 1024.397
636.982, 1224.282
638.290, 1257.731
639.597, 1643.788
640.905, 1708.464
642.212, 1970.257
643.519, 2163.313
644.825, 2112.734
646.132, 1997.504
647.438, 1850.745
648.744, 1616.045
650.050, 1410.915
651.356, 1168.758
652.662, 961.147
653.967, 984.319
655.272, 770.059
656.577, 822.459
657.882, 726.755
659.186, 896.942
660.490, 934.588
661.794, 1083.307
663.098, 1318.362
664.402, 1567.333
665.705, 1919.711
667.009, 2416.649
668.312, 2993.987
669.614, 3692.064
670.917, 4751.238
672.219, 5892.035
673.522, 7521.732
674.824, 8510.354
676.125, 9678.650
677.427, 9703.152
678.728, 9335.031
680.030, 8269.478
681.331, 7023.131
682.631, 5797.116
683.932, 4778.066
685.232, 3991.108
686.532, 3394.459
687.832, 3032.100
689.132, 2812.131
690.432, 2569.322
691.731, 2623.481
693.030, 2609.750
694.329, 2816.321
695.628, 3032.792
696.926, 3396.481
698.224, 3893.830
699.522, 4650.319
700.820, 5376.916
702.118, 6683.402
703.415, 8159.876
704.713, 10226.453
706.010, 12672.973
707.307, 15739.422
708.603, 20825.822
709.900, 25643.473
711.196, 31591.240
712.492, 36658.930
713.788, 39456.543
715.083, 40614.078
716.379, 36381.531
717.674, 32638.916
718.969, 26686.221
720.264, 21123.451
721.558, 16630.607
722.853, 13047.684
724.147, 10244.686
725.441, 8161.611
726.735, 6488.464
728.028, 5285.241
729.322, 4251.944
730.615, 3648.572
731.908, 2979.126
733.201, 2482.606
734.493, 2138.014
735.785, 1632.347
737.078, 1517.607
738.370, 1251.794
739.661, 959.908
740.953, 979.950
742.244, 801.920
743.535, 692.816
744.826, 703.636
746.117, 615.379
747.407, 601.043
748.698, 584.188
749.988, 444.132
751.278, 564.552
752.567, 483.893
753.857, 483.870
755.146, 514.943
756.435, 613.907
757.724, 662.890
759.013, 734.833
760.301, 849.704
761.590, 969.505
762.878, 1087.238
764.165, 1362.902
765.453, 1461.498
766.741, 1546.025
768.028, 1620.485
769.315, 1523.876
770.602, 1433.201
771.888, 1217.458
773.175, 1089.648
774.461, 769.771
775.747, 589.827
777.033, 408.811
778.319, 217.717
779.604, 142.541
780.889, 40.276
782.174, 60.104
783.459, 14.653
784.744, 131.346
786.028, 230.242
787.312, 238.395
788.596, 397.806
789.880, 296.560
791.164, 391.602
792.447, 418.981
793.730, 319.711
795.013, 475.738
796.296, 321.143
797.579, 455.843
798.861, 448.909
800.143, 330.335
801.425, 405.058
802.707, 298.114
803.989, 183.446
805.270, 154.993
806.551, 66.213
807.832, 327.468
809.113, 640.748
810.394, 850.072
811.674, 1110.560
812.954, 1387.591
814.234, 1252.280
815.514, 1288.073
816.794, 1043.438
818.073, 915.155
819.352, 652.823
820.631, 428.439
821.910, 473.998
823.189, 240.502
824.467, 139.946
825.745, 116.327
827.023, 107.646
828.301, 144.909
829.578, 135.122
830.856, 149.978
832.133, 228.560
833.410, 167.813
834.687, 248.165
835.963, 258.622
837.240, 302.182
838.516, 445.860
839.792, 563.647
841.068, 604.548
842.343, 789.533
843.618, 818.576
844.894, 1184.621
846.169, 1213.672
847.443, 1394.693
848.718, 1675.687
849.992, 1852.652
851.266, 2179.599
852.540, 2274.533
853.814, 2421.441
855.088, 2465.309
856.361, 2262.213
857.634, 2409.058
858.907, 2369.582
860.180, 2308.152
861.453, 2382.546
862.725, 2347.345
863.997, 2498.117
865.269, 2311.895
866.541, 2220.650
867.812, 2379.392
869.084, 2239.149
870.355, 2185.879
871.626, 2116.631
872.897, 2307.370
874.167, 2357.102
875.438, 2367.842
876.708, 2192.568
877.978, 2343.296
879.248, 2471.038
880.517, 2498.753
881.787, 2646.469
883.056, 2654.159
884.325, 3041.824
885.594, 3059.529
886.862, 3367.209
888.130, 3774.871
889.399, 4142.547
890.667, 4870.200
891.934, 5357.858
893.202, 6275.495
894.469, 7343.129
895.737, 8210.627
897.004, 9607.648
898.270, 10804.710
899.537, 12311.400
900.803, 13678.021
902.070, 13704.553
903.336, 14850.499
904.601, 14046.932
905.867, 12933.042
907.132, 12039.141
908.398, 10745.366
909.663, 9521.995
910.928, 8518.819
912.192, 7405.943
913.457, 6853.381
914.721, 5910.803
915.985, 5358.236
917.249, 4795.650
918.512, 4513.058
919.776, 4250.471
921.039, 4027.868
922.302, 3875.256
923.565, 4202.630
924.827, 4199.988
926.090, 4547.350
927.352, 4634.603
928.614, 4851.093
929.876, 5316.852
931.138, 5181.803
932.399, 5486.434
933.660, 5609.061
934.922, 5355.569
936.182, 5664.965
937.443, 5577.070
938.704, 5783.012
939.964, 6078.488
941.224, 6264.012
942.484, 6905.955
943.744, 7672.004
945.003, 8576.412
946.262, 9927.144
947.521, 10948.179
948.780, 12999.027
950.039, 14061.537
951.298, 15704.611
952.556, 17225.264
953.814, 18131.375
955.072, 19354.348
956.330, 20804.678
957.587, 21916.959
958.845, 24351.615
960.102, 26487.416
961.359, 29554.568
962.615, 31651.975
963.872, 32789.422
965.128, 33226.875
966.384, 31274.359
967.640, 28861.859
968.896, 26209.379
970.152, 24246.914
971.407, 22684.471
972.662, 21821.135
973.917, 21208.037
975.172, 22173.996
976.427, 22939.572
977.681, 23495.102
978.935, 24150.625
980.189, 22826.354
981.443, 22712.074
982.697, 20617.904
983.950, 19924.098
985.203, 18820.080
986.456, 17776.432
987.709, 17712.865
988.962, 16939.812
990.214, 16237.093
991.467, 15905.165
992.719, 14593.687
993.971, 13782.083
995.222, 13370.516
996.474, 12508.990
997.725, 12557.380
998.976, 12376.348
1000.227, 12675.397
1001.478, 12966.238
1002.728, 12468.891
1003.978, 12107.802
1005.229, 11531.221
1006.479, 10480.218
1007.728, 9839.477
1008.978, 8664.193
1010.227, 7544.262
1011.476, 6659.905
1012.725, 5839.316
1013.974, 4989.631
1015.223, 4407.018
1016.471, 3778.312
1017.719, 3591.169
1018.967, 3080.642
1020.215, 2730.389
1021.462, 2591.655
1022.710, 2334.467
1023.957, 2168.593
1025.204, 2056.152
1026.451, 1838.313
1027.697, 1974.428
1028.944, 1742.840
1030.190, 1922.490
1031.436, 1867.771
1032.682, 1707.617
1033.928, 1947.284
1035.173, 1881.685
1036.418, 2111.294
1037.663, 2202.549
1038.908, 2080.200
1040.153, 2469.913
1041.398, 2595.876
1042.642, 2765.955
1043.886, 2979.191
1045.130, 2755.407
1046.374, 2775.001
1047.617, 3046.051
1048.860, 2898.072
1050.104, 3348.152
1051.347, 3407.832
1052.589, 3689.070
1053.832, 3999.075
1055.074, 4223.928
1056.316, 4953.588
1057.558, 5024.508
1058.800, 5394.521
1060.042, 6103.982
1061.283, 5755.312
1062.524, 6004.900
1063.765, 5604.854
1065.006, 5130.434
1066.247, 4759.635
1067.487, 4041.007
1068.728, 3735.551
1069.968, 3484.805
1071.208, 2835.823
1072.447, 3025.782
1073.687, 2915.270
1074.926, 3018.843
1076.165, 3198.021
1077.404, 3387.190
1078.643, 3983.418
1079.881, 4432.355
1081.120, 4792.403
1082.358, 5351.735
1083.596, 5441.038
1084.834, 5131.239
1086.071, 4980.152
1087.309, 4329.793
1088.546, 3579.613
1089.783, 3139.308
1091.020, 2529.171
1092.256, 2469.493
1093.493, 1969.074
1094.729, 1759.807
1095.965, 1789.839
1097.201, 1539.974
1098.436, 1641.078
1099.672, 1611.295
1100.907, 1612.772
1102.142, 1863.775
1103.377, 1743.602
1104.612, 1974.735
1105.846, 2195.054
1107.081, 1865.343
1108.315, 2077.061
1109.549, 1857.551
1110.782, 1678.194
1112.016, 1769.235
1113.249, 1499.116
1114.483, 1469.858
1115.716, 1339.750
1116.948, 1000.168
1118.181, 1210.621
1119.413, 950.136
1120.646, 710.720
1121.878, 921.247
1123.110, 700.713
1124.341, 660.793
1125.573, 650.946
1126.804, 600.376
1128.035, 600.506
1129.266, 509.871
1130.497, 259.390
1131.727, 359.536
1132.957, 288.527
1134.188, 427.755
1135.418, 307.137
1136.647, 175.917
1137.877, 266.188
1139.106, 194.850
1140.335, 93.736
1141.564, 133.615
1142.793, 132.199
1144.022, 133.588
1145.250, 162.705
1146.479, 30.496
1147.707, 20.062
1148.934, 61.371
1150.162, 102.854
1151.390, 77.038
1152.617, 115.167
1153.844, 75.922
1155.071, 28.494
1156.298, 133.794
1157.524, 24.213
1158.751, 146.312
1159.977, 21.098
1161.203, 26.584
1162.428, 169.403
1163.654, 48.933
1164.879, 81.517
1166.105, 194.932
1167.330, 5.069
1168.555, 218.344
1169.779, 73.109
1171.004, 96.764
1172.228, 152.933
1173.452, 55.146
1174.676, 124.167
1175.900, 158.769
1177.123, 68.888
1178.346, 104.377
1179.570, 30.354
1180.793, 95.203
1182.015, 240.195
1183.238, 114.258
1184.460, 5.113
1185.683, 137.280
1186.905, 97.021
1188.126, 96.413
1189.348, 16.743
1190.569, 49.582
1191.791, 95.368
1193.012, 136.932
1194.233, 4.173
1195.453, 21.178
1196.674, 35.429
1197.894, 134.961
1199.114, 3.430
1200.334, 58.705
1201.554, 59.095
1202.774, 141.263
1203.993, 10.064
1205.212, 71.832
1206.431, 202.278
1207.650, 7.828
1208.869, 178.492
1210.087, 88.980
1211.305, 53.625
1212.524, 275.747
1213.741, 16.694
1214.959, 33.462
1216.177, 255.406
1217.394, 29.194
1218.611, 89.402
1219.828, 197.347
1221.045, 10.919
1222.261, 266.551
1223.478, 265.957
1224.694, 46.299
1225.910, 331.096
1227.126, 94.567
1228.342, 243.047
1229.557, 250.973
1230.772, 98.869
1231.987, 378.149
1233.202, 216.470
1234.417, 217.663
1235.631, 262.363
1236.846, 247.961
1238.060, 162.163
1239.274, 356.596
1240.488, 145.503
1241.701, 300.683
1242.915, 305.900
1244.128, 144.555
1245.341, 339.550
1246.554, 134.498
1247.767, 201.029
1248.979, 504.115
1250.191, 208.798
1251.403, 414.361
1252.615, 427.174
1253.827, 153.639
1255.039, 367.141
1256.250, 319.837
1257.461, 230.356
1258.672, 493.030
1259.883, 276.490
1261.094, 470.963
1262.304, 332.727
1263.514, 319.305
1264.724, 531.203
1265.934, 263.049
1267.144, 265.717
1268.354, 506.977
1269.563, 348.001
1270.772, 320.073
1271.981, 479.913
1273.190, 300.777
1274.398, 471.930
1275.607, 421.081
1276.815, 272.666
1278.023, 522.822
1279.231, 451.323
1280.439, 403.021
1281.646, 530.976
1282.853, 228.789
1284.060, 530.175
1285.267, 457.565
1286.474, 255.298
1287.681, 494.091
1288.887, 150.010
1290.093, 327.824
1291.299, 624.399
1292.505, 249.222
1293.711, 393.694
1294.916, 376.238
1296.121, 197.144
1297.327, 493.083
1298.531, 132.312
1299.736, 86.422
1300.941, 434.041
1302.145, 181.319
1303.349, 324.102
1304.553, 390.894
1305.757, 72.729
1306.961, 399.866
1308.164, 113.065
1309.367, 292.164
1310.570, 423.988
1311.773, 104.479
1312.976, 334.446
1314.178, 594.504
1315.381, 300.767
1316.583, 846.892
1317.785, 138.527
1318.987, 34.919
1320.188, 327.793
1321.390, 107.362
1322.591, 145.414
1323.792, 348.876
1324.993, 53.771
1326.193, 313.504
1327.394, 276.731
1328.594, 183.568
1329.794, 469.108
1330.994, 227.114
1332.194, 73.050
1333.394, 362.441
1334.593, 237.429
1335.792, 158.992
1336.991, 427.961
1338.190, 7.338
1339.389, 225.631
1340.587, 337.721
1341.786, 111.080
1342.984, 394.560
1344.182, 246.117
1345.379, 218.664
1346.577, 556.027
1347.774, 31.709
1348.972, 199.018
1350.169, 410.530
1351.365, 12.162
1352.562, 271.631
1353.759, 272.584
1354.955, 27.135
1356.151, 437.234
1357.347, 147.704
1358.543, 245.729
1359.738, 410.283
1360.934, 9.837
1362.129, 137.346
1363.324, 495.640
1364.519, 44.138
1365.713, 508.276
1366.908, 139.308
1368.102, 72.673
1369.296, 378.036
1370.490, 14.206
1371.684, 142.213
1372.877, 179.130
1374.071, 94.382
1375.264, 61.006
1376.457, 97.453
1377.650, 157.007
1378.843, 648.277
1380.035, 386.472
1381.227, 860.404
1382.419, 596.906
1383.611, 33.572
1384.803, 349.070
1385.995, 303.391
1387.186, 29.248
1388.377, 285.264
1389.568, 259.105
1390.759, 92.904
1391.950, 627.238
1393.140, 231.297
1394.331, 125.102
1395.521, 576.982
1396.711, 59.973
1397.900, 332.279
1399.090, 484.035
1400.279, 35.084
1401.469, 406.801
1402.658, 218.051
1403.847, 107.646
1405.035, 496.652
1406.224, 13.354
1407.412, 372.973
1408.600, 340.219
1409.788, 176.172
1410.976, 380.531
1412.164, 382.074
1413.351, 166.143
1414.538, 556.139
1415.725, 257.727
1416.912, 193.043
1418.099, 563.652
1419.285, 109.857
1420.472, 234.842
1421.658, 561.887
1422.844, 60.340
1424.030, 559.936
1425.215, 473.371
1426.401, 36.410
1427.586, 474.514
1428.771, 237.330
1429.956, 109.299
1431.141, 711.537
1432.325, 141.277
1433.510, 333.479
1434.694, 566.229
1435.878, 1034.400
1437.062, 528.453
1438.245, 439.078
1439.429, 128.561
1440.612, 796.621
1441.795, 359.732
1442.978, 0.828
1444.161, 665.098
1445.343, 224.580
1446.526, 253.543
1447.708, 749.061
1448.890, 48.148
1450.072, 487.461
1451.253, 428.799
1452.435, 28.174
1453.616, 741.854
1454.797, 420.160
1455.978, 44.635
1457.159, 817.697
1458.340, 137.170
1459.520, 276.469
1460.700, 800.465
1461.880, 175.615
1463.060, 600.369
1464.240, 681.367
1465.420, 50.959
1466.599, 647.410
1467.778, 433.203
1468.957, 82.479
1470.136, 770.014
1471.315, 380.520
1472.493, 182.088
1473.671, 1072.443
1474.849, 570.736
1476.027, 359.119
1477.205, 742.729
1478.383, 78.986
1479.560, 577.986
1480.737, 418.373
1481.914, 124.207
1483.091, 874.744
1484.268, 233.990
1485.444, 295.367
1486.621, 842.164
1487.797, 259.299
1488.973, 176.238
1490.149, 765.568
1491.324, 66.914
1492.500, 616.629
1493.675, 363.225
1494.850, 75.703
1496.025, 672.498
1497.200, 311.812
1498.374, 262.977
1499.548, 804.299
1500.723, 50.648
1501.897, 248.191
1503.071, 868.592
1504.244, 120.146
1505.418, 612.787
1506.591, 604.486
1507.764, 61.848
1508.937, 832.432
1510.110, 437.861
1511.282, 224.473
1512.455, 983.275
1513.627, 284.117
1514.799, 307.709
1515.971, 661.539
1517.143, 142.736
1518.314, 587.068
1519.486, 687.570
1520.657, 0.000
##END=



