##NAMES=Axinite-(Fe)
##RRUFFID=R050026
##IDEAL CHEMISTRY=Ca_4_Fe^2+^_2_Al_4_[B_2_Si_8_O_30_](OH)_2_
##LOCALITY=Pouyva mine, Polar Urals, Western Siberian Region, Russia
##OWNER=RRUFF
##SOURCE=Rock Currier
##DESCRIPTION=Brown transparent flat crystal
##STATUS=The identification of this mineral has been confirmed by X-ray diffraction and chemical analysis
##URL=rruff.info/R050026
##MEASURED CHEMISTRY=Ca_2.00_(Fe^2+^_0.61_Mn_0.26_Mg_0.13_)Al_2.00_BSi_4_O_15_(OH)
##PIN_ID=L00053
##ORIENTATION=Laser parallel to (0 1 1). Fiducial mark perpendicular to laser is parallel to a [1 0 0]
94.071, 0.000
95.465, 4.839
96.858, 142.528
98.251, 293.555
99.644, 821.150
101.036, 1237.099
102.428, 1703.396
103.820, 2062.407
105.212, 2495.061
106.604, 3308.192
107.995, 4549.431
109.387, 6425.789
110.777, 7782.757
112.168, 8302.344
113.559, 7313.147
114.949, 4947.402
116.339, 3479.229
117.729, 2113.393
119.119, 1363.157
120.508, 810.371
121.897, 555.532
123.286, 317.604
124.675, 172.574
126.063, 215.255
127.452, 7.772
128.840, 37.960
130.228, 29.947
131.615, 44.969
133.003, 15.421
134.390, 105.916
135.777, 1.305
137.164, 182.614
138.550, 452.030
139.937, 852.897
141.323, 872.170
142.709, 1072.628
144.094, 865.628
145.480, 753.763
146.865, 507.097
148.250, 554.700
149.635, 493.635
151.019, 521.955
152.403, 476.704
153.788, 430.923
155.171, 419.647
156.555, 526.906
157.939, 735.893
159.322, 724.237
160.705, 822.907
162.088, 815.145
163.470, 812.280
164.853, 973.029
166.235, 1103.473
167.617, 1429.269
168.998, 1772.493
170.380, 2349.854
171.761, 3078.219
173.142, 3604.567
174.523, 4075.903
175.904, 3758.226
177.284, 3254.612
178.664, 2519.279
180.044, 1961.218
181.424, 1551.409
182.803, 1007.828
184.183, 762.447
185.562, 587.245
186.940, 458.191
188.319, 404.254
189.698, 482.419
191.076, 652.679
192.454, 1007.021
193.831, 1453.406
195.209, 1615.786
196.586, 1702.153
197.963, 1496.409
199.340, 1413.728
200.717, 1651.182
202.093, 2017.744
203.470, 3063.352
204.846, 4148.988
206.221, 5511.646
207.597, 6302.319
208.972, 6375.009
210.347, 5985.716
211.722, 4807.421
213.097, 4140.100
214.472, 3163.745
215.846, 2399.358
217.220, 1722.940
218.594, 1179.495
219.967, 777.024
221.341, 421.530
222.714, 295.002
224.087, 143.413
225.460, 2.232
226.832, 69.891
228.204, 179.542
229.577, 171.176
230.948, 239.776
232.320, 252.119
233.692, 243.661
235.063, 228.439
236.434, 153.978
237.805, 64.385
239.175, 55.920
240.545, 247.133
241.916, 532.272
243.286, 842.208
244.655, 1210.771
246.025, 1529.894
247.394, 1564.574
248.763, 1691.920
250.132, 1559.145
251.501, 1544.366
252.869, 1489.603
254.237, 1670.854
255.605, 1936.121
256.973, 1940.401
258.340, 2061.697
259.708, 1675.133
261.075, 1556.596
262.442, 1452.243
263.808, 1497.827
265.175, 1775.268
266.541, 1885.530
267.907, 2399.593
269.273, 2857.407
270.639, 3529.927
272.004, 4367.199
273.369, 4977.257
274.734, 5944.096
276.099, 6020.615
277.463, 6144.724
278.828, 5630.454
280.192, 4879.575
281.556, 4188.580
282.919, 3276.507
284.283, 2894.353
285.646, 2448.119
287.009, 2260.806
288.372, 2117.399
289.734, 1988.268
291.097, 1993.221
292.459, 1813.671
293.821, 2076.219
295.183, 2067.046
296.544, 2366.488
297.905, 2689.907
299.266, 2896.963
300.627, 3664.711
301.988, 4149.689
303.348, 5143.030
304.709, 6240.050
306.069, 7414.861
307.428, 8584.136
308.788, 8571.111
310.147, 8067.738
311.507, 6363.742
312.865, 4767.613
314.224, 3652.364
315.583, 2512.190
316.941, 2017.782
318.299, 1470.140
319.657, 1274.409
321.015, 1091.073
322.372, 986.730
323.729, 1013.271
325.086, 907.507
326.443, 1089.276
327.800, 1148.510
329.156, 1407.249
330.512, 1521.661
331.868, 1302.984
333.224, 1282.315
334.579, 910.657
335.935, 800.027
337.290, 756.417
338.645, 800.832
339.999, 1005.291
341.354, 1286.682
342.708, 1775.285
344.062, 2174.815
345.416, 2865.353
346.769, 3522.900
348.123, 4042.990
349.476, 4949.360
350.829, 5597.901
352.182, 6813.018
353.534, 7151.813
354.887, 6752.532
356.239, 5868.516
357.591, 4151.858
358.942, 3269.201
360.294, 2208.783
361.645, 1650.361
362.996, 1141.792
364.347, 908.974
365.698, 727.695
367.048, 574.433
368.398, 535.687
369.748, 407.820
371.098, 324.599
372.448, 304.980
373.797, 249.345
375.146, 326.693
376.495, 360.025
377.844, 396.344
379.192, 449.647
380.540, 543.938
381.889, 748.217
383.236, 916.464
384.584, 1321.123
385.932, 1748.721
387.279, 2465.130
388.626, 3547.154
389.973, 4324.273
391.319, 5263.396
392.666, 4988.373
394.012, 4310.330
395.358, 3513.305
396.704, 2669.150
398.049, 2138.561
399.394, 1530.821
400.740, 1313.540
402.084, 1085.998
403.429, 893.286
404.774, 911.520
406.118, 868.596
407.462, 963.667
408.806, 938.735
410.150, 1367.803
411.493, 1816.869
412.836, 2552.937
414.179, 4050.006
415.522, 5740.075
416.865, 8879.144
418.207, 10962.214
419.549, 11265.280
420.891, 10358.352
422.233, 7531.382
423.575, 6154.375
424.916, 5100.330
426.257, 4806.245
427.598, 4733.124
428.939, 4373.961
430.279, 4015.991
431.619, 3649.529
432.959, 3092.259
434.299, 2395.955
435.639, 1758.617
436.978, 1375.248
438.318, 1022.846
439.657, 968.415
440.996, 938.956
442.334, 1100.472
443.673, 1498.962
445.011, 1602.428
446.349, 1897.869
447.687, 1773.286
449.024, 1347.678
450.361, 982.046
451.699, 559.394
453.036, 464.721
454.372, 229.038
455.709, 130.338
457.045, 119.633
458.381, 0.090
459.717, 47.176
461.053, 47.542
462.388, 24.283
463.724, 33.056
465.059, 75.866
466.394, 54.731
467.728, 67.640
469.063, 21.882
470.397, 86.998
471.731, 224.119
473.065, 387.203
474.398, 467.457
475.732, 805.644
477.065, 1101.940
478.398, 1557.730
479.731, 2203.080
481.063, 3025.658
482.396, 4436.179
483.728, 5503.890
485.060, 7118.083
486.391, 7355.252
487.723, 6397.046
489.054, 5229.301
490.385, 3291.352
491.716, 2241.420
493.047, 1501.436
494.377, 1008.778
495.708, 765.661
497.038, 523.435
498.368, 500.489
499.697, 387.839
501.027, 408.141
502.356, 397.664
503.685, 424.093
505.014, 460.922
506.342, 446.480
507.671, 529.355
508.999, 458.169
510.327, 388.780
511.655, 433.388
512.982, 310.991
514.310, 258.594
515.637, 151.203
516.964, 61.812
518.291, 58.422
519.617, 20.969
520.944, 14.620
522.270, 18.793
523.596, 31.241
524.921, 0.712
526.247, 2.197
527.572, 52.262
528.897, 76.547
530.222, 156.286
531.547, 266.669
532.871, 277.966
534.196, 420.024
535.520, 388.401
536.844, 522.912
538.167, 508.571
539.491, 402.447
540.814, 471.713
542.137, 308.022
543.460, 328.316
544.783, 316.602
546.105, 207.885
547.427, 197.172
548.749, 132.490
550.071, 176.851
551.393, 114.287
552.714, 61.793
554.035, 127.385
555.356, 60.067
556.677, 166.835
557.998, 138.688
559.318, 192.606
560.638, 294.567
561.958, 289.542
563.278, 449.514
564.597, 507.475
565.917, 647.420
567.236, 905.351
568.555, 1083.266
569.874, 1390.167
571.192, 1722.051
572.511, 1969.921
573.829, 2300.776
575.147, 2282.614
576.464, 2401.438
577.782, 2121.246
579.099, 1999.039
580.416, 1964.815
581.733, 1816.577
583.050, 2075.322
584.366, 2185.054
585.683, 2736.768
586.999, 3253.469
588.315, 3672.154
589.630, 3917.473
590.946, 4004.481
592.261, 3938.122
593.576, 3357.748
594.891, 2651.361
596.206, 2126.958
597.520, 1516.541
598.834, 1296.110
600.148, 1020.666
601.462, 785.207
602.776, 679.733
604.089, 481.246
605.402, 526.745
606.715, 386.230
608.028, 330.702
609.341, 405.160
610.653, 319.604
611.965, 408.035
613.277, 411.268
614.589, 439.083
615.901, 470.848
617.212, 436.029
618.523, 448.481
619.834, 435.435
621.145, 408.113
622.456, 376.544
623.766, 262.179
625.076, 206.865
626.386, 90.958
627.696, 31.269
629.006, 24.156
630.315, 108.047
631.624, 94.917
632.933, 109.865
634.242, 79.896
635.551, 71.997
636.859, 65.142
638.167, 5.075
639.475, 20.331
640.783, 7.624
642.090, 65.421
643.398, 66.082
644.705, 165.508
646.012, 47.831
647.318, 94.537
648.625, 90.922
649.931, 23.488
651.237, 3.061
652.543, 69.420
653.849, 35.966
655.155, 56.562
656.460, 125.217
657.765, 60.968
659.070, 64.780
660.375, 47.656
661.679, 6.587
662.984, 18.550
664.288, 85.448
665.592, 95.433
666.895, 246.404
668.199, 287.814
669.502, 373.764
670.805, 676.050
672.108, 800.933
673.411, 1186.188
674.713, 1482.497
676.016, 1879.212
677.318, 2274.436
678.620, 2296.072
679.921, 2416.083
681.223, 2138.978
682.524, 1727.588
683.825, 1613.197
685.126, 1124.179
686.427, 1019.260
687.727, 824.673
689.028, 671.463
690.328, 719.247
691.628, 568.026
692.927, 696.799
694.227, 717.565
695.526, 759.324
696.825, 1026.075
698.124, 1091.816
699.423, 1380.028
700.721, 1665.269
702.020, 1988.980
703.318, 2645.597
704.616, 3036.165
705.913, 3861.460
707.211, 4856.937
708.508, 5794.148
709.805, 7739.135
711.102, 9058.391
712.399, 11297.359
713.695, 13146.769
714.992, 13986.053
716.288, 14665.553
717.584, 12865.142
718.879, 11304.715
720.175, 9434.279
721.470, 7158.829
722.765, 6144.369
724.060, 4475.899
725.355, 3779.417
726.649, 3104.925
727.944, 2352.422
729.238, 2146.908
730.532, 1684.384
731.825, 1407.850
733.119, 1337.305
734.412, 1014.751
735.705, 993.188
736.998, 828.614
738.291, 669.032
739.584, 653.440
740.876, 473.838
742.168, 557.229
743.460, 461.610
744.752, 439.982
746.043, 437.346
747.334, 384.701
748.626, 445.049
749.916, 299.388
751.207, 403.719
752.498, 393.043
753.788, 342.359
755.078, 487.667
756.368, 482.969
757.658, 572.262
758.947, 701.549
760.237, 741.829
761.526, 1020.103
762.815, 1126.369
764.104, 1292.629
765.392, 1675.883
766.680, 1713.131
767.969, 1992.373
769.257, 1982.610
770.544, 1912.844
771.832, 1861.041
773.119, 1626.305
774.406, 1483.534
775.693, 1213.770
776.980, 961.008
778.267, 947.251
779.553, 708.507
780.839, 655.771
782.125, 527.728
783.411, 446.439
784.697, 427.881
785.982, 298.038
787.267, 269.004
788.552, 160.016
789.837, 94.897
791.122, 77.265
792.406, 8.054
793.690, 32.594
794.974, 36.171
796.258, 16.459
797.542, 34.399
798.825, 60.735
800.108, 23.528
801.391, 11.801
802.674, 25.889
803.957, 50.988
805.239, 44.908
806.522, 260.492
807.804, 261.527
809.085, 219.662
810.367, 501.508
811.649, 474.048
812.930, 660.629
814.211, 665.980
815.492, 530.417
816.772, 540.443
818.053, 345.733
819.333, 202.698
820.613, 208.716
821.893, 13.065
823.173, 11.155
824.452, 35.619
825.732, 90.400
827.011, 87.211
828.290, 114.027
829.568, 104.287
830.847, 80.827
832.125, 108.745
833.403, 3.696
834.681, 88.632
835.959, 74.580
837.236, 2.544
838.514, 12.505
839.791, 52.567
841.068, 34.639
842.345, 108.725
843.621, 202.820
844.898, 176.922
846.174, 295.039
847.450, 329.165
848.726, 377.301
850.001, 482.446
851.277, 449.601
852.552, 587.771
853.827, 537.953
855.102, 502.143
856.376, 545.349
857.651, 417.565
858.925, 432.796
860.199, 392.049
861.473, 324.312
862.746, 432.597
864.020, 322.899
865.293, 361.218
866.566, 389.555
867.839, 371.905
869.112, 477.281
870.384, 422.671
871.656, 424.072
872.928, 565.494
874.200, 488.933
875.472, 669.392
876.744, 601.876
878.015, 687.375
879.286, 914.886
880.557, 830.417
881.828, 1035.963
883.098, 1165.536
884.369, 1269.124
885.639, 1600.731
886.909, 1613.364
888.178, 1905.010
889.448, 2187.679
890.717, 2462.360
891.987, 3104.056
893.256, 3198.766
894.524, 3808.497
895.793, 4459.240
897.061, 4669.010
898.330, 5619.797
899.598, 5729.606
900.865, 6149.434
902.133, 6408.274
903.401, 6067.141
904.668, 6410.022
905.935, 6094.917
907.202, 5942.832
908.468, 6117.761
909.735, 5612.706
911.001, 5685.667
912.267, 5198.642
913.533, 4667.637
914.799, 4488.651
916.064, 3620.687
917.330, 3275.748
918.595, 2915.824
919.860, 2376.921
921.124, 2352.044
922.389, 1907.182
923.653, 1857.337
924.918, 1866.511
926.182, 1672.703
927.445, 1756.912
928.709, 1748.135
929.972, 1728.381
931.236, 1892.642
932.499, 1690.920
933.761, 1735.214
935.024, 1591.527
936.286, 1420.860
937.549, 1524.222
938.811, 1373.638
940.073, 1469.102
941.334, 1438.622
942.596, 1411.185
943.857, 1672.792
945.118, 1643.128
946.379, 1874.802
947.640, 2152.507
948.900, 2229.868
950.161, 2647.616
951.421, 2865.602
952.681, 3012.696
953.940, 3451.411
955.200, 3264.451
956.459, 3639.289
957.719, 3827.160
958.978, 3924.057
960.236, 4540.999
961.495, 4733.976
962.753, 5247.992
964.012, 5929.070
965.270, 5639.188
966.527, 6075.350
967.785, 5576.550
969.043, 4978.777
970.300, 5204.036
971.557, 4586.313
972.814, 4830.606
974.071, 4927.469
975.327, 5031.796
976.583, 6010.793
977.840, 6105.163
979.095, 6805.724
980.351, 7250.869
981.607, 6781.608
982.862, 7234.595
984.117, 6759.171
985.372, 6396.516
986.627, 6724.222
987.882, 6315.674
989.136, 6840.104
990.390, 7116.725
991.644, 7040.281
992.898, 7739.430
994.152, 7198.020
995.405, 7402.629
996.659, 7555.359
997.912, 7098.003
999.165, 7948.709
1000.417, 7830.580
1001.670, 8242.277
1002.922, 9015.398
1004.174, 8597.237
1005.426, 9348.984
1006.678, 8821.885
1007.930, 7883.669
1009.181, 7686.424
1010.432, 6158.195
1011.683, 5541.032
1012.934, 4932.994
1014.185, 3773.525
1015.435, 3663.204
1016.685, 2921.174
1017.935, 2526.194
1019.185, 2452.206
1020.435, 1978.583
1021.684, 1969.556
1022.934, 1870.475
1024.183, 1641.853
1025.432, 1848.427
1026.680, 1622.635
1027.929, 1677.136
1029.177, 1599.202
1030.425, 1388.823
1031.673, 1391.776
1032.921, 1183.881
1034.169, 943.561
1035.416, 992.939
1036.663, 789.327
1037.911, 806.556
1039.157, 729.725
1040.404, 669.956
1041.650, 680.167
1042.897, 527.852
1044.143, 582.329
1045.389, 592.578
1046.634, 496.870
1047.880, 626.524
1049.125, 582.693
1050.371, 540.084
1051.615, 644.427
1052.860, 559.149
1054.105, 656.516
1055.349, 717.841
1056.593, 599.377
1057.837, 607.818
1059.081, 534.442
1060.325, 572.867
1061.568, 603.350
1062.812, 444.035
1064.055, 416.215
1065.298, 390.685
1066.540, 289.898
1067.783, 378.314
1069.025, 297.099
1070.267, 312.881
1071.509, 333.369
1072.751, 257.174
1073.993, 268.459
1075.234, 249.604
1076.475, 248.427
1077.716, 373.674
1078.957, 279.573
1080.198, 350.102
1081.438, 369.076
1082.679, 323.709
1083.919, 441.935
1085.159, 348.576
1086.398, 305.317
1087.638, 337.403
1088.877, 238.058
1090.116, 335.458
1091.355, 277.990
1092.594, 321.900
1093.833, 349.822
1095.071, 284.366
1096.309, 355.572
1097.547, 408.121
1098.785, 323.810
1100.023, 463.428
1101.260, 508.225
1102.498, 558.077
1103.735, 666.801
1104.972, 673.556
1106.208, 728.711
1107.445, 800.325
1108.681, 674.137
1109.918, 679.944
1111.154, 660.670
1112.389, 533.399
1113.625, 482.219
1114.860, 388.010
1116.096, 424.719
1117.331, 353.642
1118.566, 275.382
1119.800, 298.073
1121.035, 212.787
1122.269, 177.491
1123.503, 205.375
1124.737, 149.143
1125.971, 173.574
1127.205, 127.316
1128.438, 109.090
1129.671, 152.846
1130.904, 84.530
1132.137, 104.300
1133.370, 122.076
1134.602, 68.796
1135.834, 91.529
1137.066, 76.493
1138.298, 4.774
1139.530, 84.181
1140.762, 20.095
1141.993, 10.616
1143.224, 55.402
1144.455, 29.754
1145.686, 71.143
1146.917, 1.932
1148.147, 8.124
1149.377, 76.721
1150.607, 32.323
1151.837, 4.529
1153.067, 3.561
1154.296, 25.811
1155.526, 56.744
1156.755, 21.462
1157.984, 37.707
1159.213, 15.371
1160.441, 38.887
1161.670, 14.185
1162.898, 15.751
1164.126, 19.857
1165.354, 1.861
1166.581, 51.020
1167.809, 7.139
1169.036, 24.782
1170.263, 30.887
1171.490, 21.449
1172.717, 23.727
1173.943, 48.960
1175.170, 4.492
1176.396, 19.333
1177.622, 21.299
1178.848, 9.397
1180.073, 42.958
1181.299, 3.468
1182.524, 13.950
1183.749, 45.156
1184.974, 12.056
1186.199, 24.320
1187.423, 20.822
1188.648, 30.337
1189.872, 1.393
1191.096, 10.567
1192.320, 33.824
1193.543, 38.152
1194.767, 4.814
1195.990, 19.003
1197.213, 5.995
1198.436, 30.967
1199.659, 26.001
1200.881, 32.891
1202.104, 62.806
1203.326, 5.353
1204.548, 25.448
1205.770, 14.319
1206.991, 36.090
1208.213, 26.032
1209.434, 4.910
1210.655, 3.807
1211.876, 0.416
1213.096, 27.664
1214.317, 58.067
1215.537, 3.835
1216.757, 19.241
1217.977, 50.318
1219.197, 19.101
1220.417, 6.637
1221.636, 10.371
1222.855, 36.107
1224.074, 70.574
1225.293, 1.887
1226.512, 59.611
1227.731, 19.020
1228.949, 39.553
1230.167, 12.925
1231.385, 42.275
1232.603, 33.694
1233.820, 19.008
1235.038, 45.302
1236.255, 11.578
1237.472, 88.833
1238.689, 29.074
1239.906, 29.296
1241.122, 81.507
1242.338, 19.707
1243.555, 86.881
1244.771, 53.132
1245.986, 71.403
1247.202, 43.529
1248.417, 40.678
1249.633, 57.822
1250.848, 53.897
1252.063, 28.063
1253.277, 93.104
1254.492, 49.124
1255.706, 50.261
1256.920, 66.247
1258.134, 66.218
1259.348, 51.301
1260.562, 55.235
1261.775, 73.179
1262.988, 45.080
1264.201, 67.016
1265.414, 78.891
1266.627, 73.905
1267.839, 76.824
1269.052, 50.672
1270.264, 62.709
1271.476, 25.282
1272.688, 75.010
1273.899, 71.715
1275.111, 81.398
1276.322, 116.053
1277.533, 86.689
1278.744, 90.395
1279.955, 103.986
1281.165, 104.548
1282.376, 60.087
1283.586, 120.603
1284.796, 61.015
1286.006, 109.600
1287.215, 108.474
1288.425, 89.969
1289.634, 75.425
1290.843, 63.711
1292.052, 60.376
1293.261, 77.388
1294.469, 68.595
1295.678, 57.180
1296.886, 73.063
1298.094, 45.223
1299.302, 117.573
1300.509, 23.667
1301.717, 66.868
1302.924, 69.097
1304.131, 39.308
1305.338, 65.447
1306.545, 65.460
1307.752, 20.899
1308.958, 44.188
1310.164, 36.184
1311.370, 45.126
1312.576, 38.074
1313.782, 34.650
1314.987, 17.627
1316.193, 87.654
1317.398, 41.217
1318.603, 35.607
1319.807, 56.329
1321.012, 26.754
1322.216, 73.662
1323.421, 3.045
1324.625, 49.909
1325.829, 38.704
1327.032, 34.918
1328.236, 17.429
1329.439, 64.943
1330.642, 20.592
1331.845, 72.380
1333.048, 24.017
1334.251, 119.667
1335.453, 95.009
1336.656, 27.382
1337.858, 81.976
1339.060, 107.590
1340.261, 36.762
1341.463, 61.416
1342.664, 65.880
1343.866, 46.347
1345.067, 69.429
1346.267, 60.861
1347.468, 75.328
1348.669, 88.629
1349.869, 58.539
1351.069, 102.131
1352.269, 37.485
1353.469, 24.762
1354.668, 89.831
1355.868, 57.414
1357.067, 56.656
1358.266, 50.143
1359.465, 10.730
1360.664, 89.627
1361.862, 73.517
1363.061, 23.692
1364.259, 67.540
1365.457, 23.913
1366.655, 21.397
1367.852, 102.420
1369.050, 47.617
1370.247, 49.296
1371.444, 117.333
1372.641, 31.912
1373.838, 67.816
1375.035, 109.115
1376.231, 44.976
1377.427, 90.719
1378.623, 67.182
1379.819, 67.903
1381.015, 82.805
1382.211, 63.779
1383.406, 64.812
1384.601, 62.350
1385.796, 61.706
1386.991, 82.907
1388.185, 40.747
1389.380, 32.067
1390.574, 75.240
1391.768, 53.357
1392.962, 50.489
1394.156, 82.399
1395.350, 36.550
1396.543, 92.452
1397.736, 75.618
1398.929, 28.577
1400.122, 99.673
1401.315, 59.682
1402.507, 28.799
1403.700, 75.626
1404.892, 52.416
1406.084, 58.357
1407.276, 57.931
1408.467, 41.438
1409.659, 20.783
1410.850, 32.926
1412.041, 43.592
1413.232, 53.976
1414.423, 36.889
1415.614, 62.257
1416.804, 119.825
1417.994, 61.489
1419.184, 77.288
1420.374, 115.452
1421.564, 26.364
1422.753, 107.200
1423.943, 105.235
1425.132, 56.022
1426.321, 79.650
1427.510, 90.481
1428.698, 15.478
1429.887, 92.554
1431.075, 26.172
1432.263, 30.326
1433.451, 56.587
1434.639, 57.114
1435.827, 76.729
1437.014, 23.220
1438.201, 1.021
1439.388, 95.437
1440.575, 67.744
1441.762, 12.515
1442.949, 69.716
1444.135, 54.895
1445.321, 91.033
1446.507, 35.322
1447.693, 37.631
1448.879, 45.207
1450.064, 34.607
1451.250, 57.063
1452.435, 77.720
1453.620, 90.237
1454.805, 57.715
1455.989, 57.706
1457.174, 53.052
1458.358, 47.342
1459.542, 65.472
1460.726, 24.519
1461.910, 52.837
1463.093, 73.815
1464.277, 17.002
1465.460, 52.064
1466.643, 66.593
1467.826, 33.674
1469.009, 82.714
1470.191, 62.975
1471.373, 23.277
1472.556, 74.327
1473.738, 16.296
1474.919, 50.112
1476.101, 78.188
1477.283, 0.736
1478.464, 60.675
1479.645, 69.848
1480.826, 8.296
1482.007, 46.308
1483.187, 41.695
1484.368, 15.086
1485.548, 69.477
1486.728, 30.556
1487.908, 34.185
1489.088, 28.581
1490.268, 11.943
1491.447, 20.328
1492.626, 75.566
1493.805, 20.690
1494.984, 50.122
1496.163, 40.578
1497.341, 19.948
1498.520, 31.775
1499.698, 23.810
1500.876, 4.136
1502.054, 21.434
1503.232, 24.135
1504.409, 38.059
1505.586, 26.903
1506.763, 12.033
1507.940, 30.490
1509.117, 46.902
1510.294, 2.234
1511.470, 22.707
1512.647, 57.995
1513.823, 19.078
1514.999, 44.638
1516.174, 6.489
1517.350, 23.227
1518.526, 41.640
1519.701, 0.128
1520.876, 0.000
##END=



