##NAMES=Azurite
##RRUFFID=R050497
##IDEAL CHEMISTRY=Cu^2+^_3_(CO_3_)_2_(OH)_2_
##LOCALITY=Tsumeb mine, Tsumeb, Otavi District, Oshikoto, Namibia
##OWNER=RRUFF
##SOURCE=Marcus Origlieri
##DESCRIPTION=Blue prismatic single crystal
##STATUS=The identification of this mineral has been confirmed by X-ray diffraction and chemical analysis
##URL=rruff.info/R050497
##MEASURED CHEMISTRY=Cu_3.00_(CO_3_)_2_(OH)_2_
##PIN_ID=L00764
##ORIENTATION=Laser parallel to c* (0 0 1). Fiducial mark perpendicular to laser is parallel to -a [-1 0 0]
52.67100, 0.0000000E+00
53.91000, 87.91064
55.14900, 191.4915
56.38700, 108.9658
57.62600, 21.23535
58.86400, 7.862549
60.10300, 13.83032
61.34100, 38.20728
62.57900, 119.9324
63.81700, 169.2917
65.05400, 262.4126
66.29200, 388.5667
67.52900, 523.1470
68.76700, 663.6504
70.00400, 1218.692
71.24100, 1771.964
72.47700, 2291.178
73.71400, 2777.056
74.95100, 3330.347
76.18700, 4342.829
77.42300, 5459.305
78.65900, 7230.608
79.89500, 10845.59
81.13100, 14424.12
82.36700, 14844.07
83.60200, 11864.37
84.83700, 8324.979
86.07200, 6088.944
87.30800, 4837.243
88.54200, 4177.767
89.77700, 3837.414
91.01200, 3550.069
92.24600, 3566.625
93.48000, 3386.994
94.71400, 3106.112
95.94800, 3223.921
97.18200, 2942.374
98.41600, 2878.433
99.64900, 2740.062
100.8830, 2865.232
102.1160, 2782.917
103.3490, 2692.091
104.5820, 2906.736
105.8150, 3069.831
107.0470, 3211.357
108.2800, 3528.301
109.5120, 3553.709
110.7440, 3497.257
111.9760, 3600.484
113.2080, 3292.967
114.4400, 3091.970
115.6710, 3205.007
116.9030, 3209.192
118.1340, 2994.592
119.3650, 3010.951
120.5960, 2692.908
121.8270, 2704.012
123.0580, 2463.219
124.2880, 2502.533
125.5190, 2545.955
126.7490, 2430.425
127.9790, 2629.747
129.2090, 2827.918
130.4390, 3000.979
131.6680, 3054.996
132.8980, 3437.002
134.1270, 3846.019
135.3560, 4711.069
136.5850, 5796.168
137.8140, 6932.329
139.0430, 7820.562
140.2710, 8703.882
141.5000, 9453.290
142.7280, 8725.795
143.9560, 6657.403
145.1840, 5035.121
146.4120, 3938.946
147.6390, 3163.887
148.8670, 2895.944
150.0940, 2927.121
151.3210, 2981.416
152.5490, 3105.832
153.7750, 2797.369
155.0020, 2399.028
156.2290, 1958.812
157.4550, 1793.717
158.6810, 1671.746
159.9080, 1647.897
161.1340, 1784.169
162.3590, 1785.561
163.5850, 1928.072
164.8110, 2086.701
166.0360, 2479.449
167.2610, 3037.312
168.4860, 3440.292
169.7110, 3541.386
170.9360, 3263.594
172.1610, 2886.915
173.3850, 2749.172
174.6100, 2838.026
175.8340, 3419.925
177.0580, 3637.215
178.2820, 3786.646
179.5050, 3358.977
180.7290, 2903.584
181.9520, 2896.711
183.1760, 3121.649
184.3990, 3664.058
185.6220, 4438.776
186.8450, 5501.563
188.0670, 6860.249
189.2900, 8433.291
190.5120, 10278.44
191.7340, 11623.71
192.9560, 11835.07
194.1780, 10845.54
195.4000, 8893.103
196.6220, 7270.763
197.8430, 5890.525
199.0640, 4756.386
200.2860, 4133.897
201.5070, 3586.058
202.7270, 3102.979
203.9480, 2751.451
205.1690, 2217.918
206.3890, 1774.308
207.6090, 1433.265
208.8290, 1279.832
210.0490, 1163.812
211.2690, 1102.171
212.4890, 912.8838
213.7080, 921.9248
214.9280, 843.2729
216.1470, 714.9092
217.3660, 854.8169
218.5850, 687.9810
219.8030, 565.3867
221.0220, 578.0215
222.2400, 516.8750
223.4590, 505.9355
224.6770, 525.1948
225.8950, 557.6431
227.1120, 557.2734
228.3300, 480.0786
229.5480, 532.0518
230.7650, 706.1855
231.9820, 740.4756
233.1990, 948.9150
234.4160, 1024.497
235.6330, 1145.217
236.8490, 1326.069
238.0660, 1663.050
239.2820, 2098.153
240.4980, 2772.378
241.7140, 3778.719
242.9300, 5101.174
244.1460, 7333.741
245.3610, 9832.415
246.5770, 10855.19
247.7920, 9044.076
249.0070, 6407.062
250.2220, 4115.145
251.4370, 2752.325
252.6510, 1843.601
253.8660, 1512.969
255.0800, 1099.428
256.2940, 1060.978
257.5080, 777.6147
258.7220, 747.3379
259.9360, 1084.146
261.1490, 865.5312
262.3630, 1088.003
263.5760, 846.0435
264.7890, 804.1509
266.0020, 846.3208
267.2150, 641.5513
268.4270, 609.8418
269.6400, 614.1914
270.8520, 582.6006
272.0640, 611.0674
273.2760, 888.5928
274.4880, 953.1777
275.7000, 1144.823
276.9120, 1255.529
278.1230, 1569.297
279.3340, 1523.126
280.5450, 1579.015
281.7560, 1435.967
282.9670, 1269.980
284.1780, 989.0542
285.3880, 794.1899
286.5980, 553.3857
287.8090, 496.6416
289.0190, 364.9580
290.2290, 179.3335
291.4380, 186.7690
292.6480, 14.73730
293.8570, 26.18994
295.0670, 50.40869
296.2760, 38.93604
297.4850, 160.2324
298.6930, 113.5044
299.9020, 188.7441
301.1110, 177.9663
302.3190, 285.1694
303.5270, 121.3770
304.7350, 233.5562
305.9430, 117.7275
307.1510, 293.8589
308.3580, 250.9878
309.5660, 299.1157
310.7730, 131.2534
311.9800, 202.3516
313.1870, 188.4424
314.3940, 210.5103
315.6010, 217.5732
316.8070, 150.6313
318.0130, 125.6738
319.2200, 90.70215
320.4260, 4.711914
321.6310, 40.71191
322.8370, 40.25195
324.0430, 84.16016
325.2480, 215.0332
326.4540, 192.8564
327.6590, 342.6069
328.8640, 360.3262
330.0680, 424.0112
331.2730, 533.6816
332.4780, 359.3589
333.6820, 389.0708
334.8860, 259.8413
336.0900, 216.6646
337.2940, 146.5396
338.4980, 158.4746
339.7010, 121.4595
340.9050, 151.5215
342.1080, 143.6348
343.3110, 166.2661
344.5140, 169.0137
345.7170, 216.3071
346.9200, 290.6895
348.1220, 298.1543
349.3240, 456.7070
350.5270, 447.3506
351.7290, 493.0718
352.9310, 658.8667
354.1320, 611.7314
355.3340, 783.6655
356.5350, 932.6660
357.7370, 943.7319
358.9380, 1074.861
360.1390, 1294.062
361.3400, 1401.325
362.5400, 1589.650
363.7410, 1777.037
364.9410, 2015.381
366.1410, 2265.040
367.3410, 2564.641
368.5410, 2920.321
369.7410, 3216.057
370.9400, 3537.859
372.1400, 4082.715
373.3390, 4527.624
374.5380, 5128.616
375.7370, 5798.685
376.9360, 6579.806
378.1350, 7286.000
379.3330, 7988.267
380.5310, 8682.593
381.7300, 9296.996
382.9280, 9847.450
384.1260, 10546.96
385.3230, 11255.55
386.5210, 12095.19
387.7180, 13550.88
388.9160, 15099.65
390.1130, 18071.47
391.3100, 21522.35
392.5060, 26092.29
393.7030, 32063.29
394.9000, 38496.34
396.0960, 45348.40
397.2920, 52012.54
398.4880, 54728.70
399.6840, 53226.92
400.8800, 48288.16
402.0750, 41139.47
403.2710, 34065.82
404.4660, 28104.22
405.6610, 23223.66
406.8560, 19327.16
408.0510, 16317.72
409.2450, 13884.32
410.4400, 12069.97
411.6340, 10289.68
412.8280, 9024.411
414.0220, 8175.184
415.2160, 7072.993
416.4100, 6357.840
417.6030, 5790.728
418.7970, 5188.649
419.9900, 4651.606
421.1830, 4398.598
422.3760, 4085.623
423.5690, 3738.681
424.7610, 3508.771
425.9540, 3274.894
427.1460, 3124.045
428.3380, 2873.231
429.5300, 2766.449
430.7220, 2653.697
431.9140, 2400.977
433.1050, 2262.286
434.2970, 2087.625
435.4880, 1996.994
436.6790, 1840.001
437.8700, 1718.038
439.0610, 1589.489
440.2510, 1377.317
441.4420, 1282.841
442.6320, 1225.487
443.8220, 1195.641
445.0120, 1131.264
446.2020, 988.5386
447.3910, 992.8379
448.5810, 918.4692
449.7700, 948.8638
450.9600, 870.8906
452.1490, 862.1343
453.3370, 885.6382
454.5260, 858.9224
455.7150, 856.1509
456.9030, 892.8623
458.0910, 847.7129
459.2800, 853.3726
460.4670, 883.0195
461.6550, 709.7666
462.8430, 751.1826
464.0300, 707.0693
465.2180, 834.7778
466.4050, 799.4521
467.5920, 823.7324
468.7790, 736.8877
469.9650, 721.9053
471.1520, 758.0752
472.3380, 705.2104
473.5250, 642.8633
474.7110, 718.2397
475.8970, 710.1919
477.0820, 604.9370
478.2680, 586.4331
479.4540, 607.9512
480.6390, 687.2490
481.8240, 708.6519
483.0090, 609.1875
484.1940, 638.1143
485.3780, 602.0723
486.5630, 577.5688
487.7470, 555.0884
488.9320, 578.9390
490.1160, 641.5020
491.3000, 611.6899
492.4830, 509.4717
493.6670, 582.4355
494.8500, 550.0786
496.0340, 438.7407
497.2170, 493.4214
498.4000, 509.1196
499.5820, 383.8359
500.7650, 446.5688
501.9480, 426.4062
503.1300, 410.4136
504.3120, 356.7207
505.4940, 340.9346
506.6760, 276.3838
507.8580, 268.6860
509.0390, 300.6025
510.2210, 261.2471
511.4020, 185.2871
512.5830, 245.6396
513.7640, 209.6914
514.9450, 247.1748
516.1250, 240.6948
517.3060, 169.7617
518.4860, 243.1411
519.6660, 182.5728
520.8460, 241.8086
522.0260, 259.4702
523.2060, 250.7144
524.3850, 321.3843
525.5650, 319.9937
526.7440, 316.3828
527.9230, 410.0171
529.1020, 451.7852
530.2810, 527.3086
531.4590, 611.0371
532.6380, 728.4062
533.8160, 842.9238
534.9940, 1014.459
536.1720, 1269.271
537.3500, 1344.170
538.5270, 1326.744
539.7050, 1525.225
540.8820, 1373.594
542.0590, 1324.415
543.2360, 1166.455
544.4130, 1099.085
545.5900, 914.1934
546.7660, 765.3042
547.9430, 812.6841
549.1190, 688.6260
550.2950, 549.1392
551.4710, 556.9482
552.6470, 441.9922
553.8220, 421.1094
554.9980, 437.0010
556.1730, 409.2554
557.3480, 413.4419
558.5230, 376.4702
559.6980, 331.8042
560.8730, 305.7480
562.0470, 204.1509
563.2220, 313.3950
564.3960, 254.8047
565.5700, 201.8389
566.7440, 273.8022
567.9170, 338.8242
569.0910, 209.4966
570.2640, 228.5146
571.4380, 177.8735
572.6110, 200.4111
573.7840, 186.3647
574.9570, 175.3389
576.1290, 197.5874
577.3020, 175.4761
578.4740, 206.2627
579.6460, 141.0581
580.8180, 181.8428
581.9900, 139.6240
583.1620, 130.6279
584.3330, 142.4404
585.5040, 70.37598
586.6760, 93.23682
587.8470, 56.14502
589.0180, 7.065430
590.1880, 28.98633
591.3590, 25.00488
592.5290, 11.91016
593.7000, 27.90576
594.8700, 47.05127
596.0400, 35.97119
597.2090, 31.97852
598.3790, 31.07080
599.5490, 20.14844
600.7180, 43.25391
601.8870, 72.37646
603.0560, 41.51221
604.2250, 45.34717
605.3940, 36.74805
606.5620, 6.162109
607.7300, 35.89502
608.8990, 51.93213
610.0670, 9.048340
611.2350, 92.93506
612.4020, 9.099121
613.5700, 68.16992
614.7370, 11.30713
615.9050, 20.51709
617.0720, 1.315430
618.2390, 49.08057
619.4060, 50.82471
620.5720, 5.452637
621.7390, 116.2319
622.9050, 76.10303
624.0710, 36.48730
625.2370, 37.05371
626.4030, 106.5942
627.5690, 177.1157
628.7340, 8.615723
629.9000, 147.0820
631.0650, 3.527344
632.2300, 64.93652
633.3950, 53.32178
634.5600, 138.6821
635.7240, 133.0210
636.8890, 145.7500
638.0530, 133.6328
639.2170, 109.9058
640.3810, 103.1562
641.5450, 1.615234
642.7080, 70.57080
643.8720, 50.73193
645.0350, 58.86426
646.1980, 42.02881
647.3610, 38.98779
648.5240, 25.99023
649.6870, 59.06543
650.8490, 85.80469
652.0120, 21.35107
653.1740, 89.43750
654.3360, 54.20068
655.4980, 86.06543
656.6600, 62.42188
657.8210, 66.14307
658.9830, 67.32031
660.1440, 47.86523
661.3050, 6.480957
662.4660, 79.14600
663.6270, 51.10010
664.7870, 4.684082
665.9480, 96.51758
667.1080, 13.55078
668.2680, 47.57861
669.4280, 87.42480
670.5880, 16.13477
671.7480, 31.55078
672.9070, 17.89160
674.0670, 2.165527
675.2260, 46.51221
676.3850, 42.15674
677.5440, 62.76807
678.7030, 70.34863
679.8610, 79.90039
681.0200, 6.576660
682.1780, 10.10498
683.3360, 58.31396
684.4940, 11.29883
685.6520, 34.03564
686.8090, 47.66602
687.9670, 40.82617
689.1240, 2.282715
690.2810, 7.173340
691.4380, 11.11621
692.5950, 106.8887
693.7520, 42.86670
694.9080, 88.81104
696.0650, 28.72803
697.2210, 35.15918
698.3770, 76.45361
699.5330, 38.27100
700.6880, 68.05371
701.8440, 83.80762
702.9990, 66.53320
704.1550, 109.2290
705.3100, 123.8994
706.4650, 107.5444
707.6190, 48.16357
708.7740, 103.7510
709.9290, 65.31201
711.0830, 53.84424
712.2370, 111.3457
713.3910, 103.8218
714.5450, 70.27246
715.6980, 121.6948
716.8520, 184.0923
718.0050, 186.4663
719.1580, 144.8164
720.3110, 245.1421
721.4640, 91.44385
722.6170, 180.7207
723.7700, 111.9731
724.9220, 181.2012
726.0740, 291.4043
727.2260, 178.5840
728.3780, 183.2163
729.5300, 276.8071
730.6810, 300.5850
731.8330, 321.3579
732.9840, 359.2837
734.1350, 266.6221
735.2860, 322.5898
736.4370, 413.7266
737.5880, 338.5659
738.7380, 443.1992
739.8880, 426.1060
741.0390, 354.0239
742.1890, 352.8452
743.3380, 517.8735
744.4880, 468.5649
745.6380, 501.7754
746.7870, 478.4019
747.9360, 421.1587
749.0850, 419.0571
750.2340, 431.8076
751.3830, 587.5957
752.5310, 459.8711
753.6800, 630.4268
754.8280, 680.4116
755.9760, 702.6074
757.1240, 779.0576
758.2720, 848.4893
759.4190, 893.1455
760.5670, 913.0908
761.7140, 1054.126
762.8610, 914.1641
764.0080, 943.1743
765.1550, 953.6484
766.3020, 813.1025
767.4480, 727.2285
768.5950, 674.6440
769.7410, 639.4365
770.8870, 546.6367
772.0330, 559.6562
773.1780, 523.9971
774.3240, 472.3193
775.4690, 388.6240
776.6140, 354.9106
777.7590, 347.1792
778.9040, 286.4307
780.0490, 249.5771
781.1940, 297.5522
782.3380, 256.2271
783.4820, 274.9941
784.6260, 264.5239
785.7700, 220.1997
786.9140, 257.2593
788.0580, 337.5884
789.2010, 295.5205
790.3450, 201.1367
791.4880, 306.0518
792.6310, 232.5322
793.7730, 269.9736
794.9160, 320.8652
796.0590, 214.4404
797.2010, 222.9609
798.3430, 229.6733
799.4850, 305.9561
800.6270, 288.8325
801.7690, 277.9185
802.9100, 290.2422
804.0520, 272.7812
805.1930, 234.0713
806.3340, 202.2231
807.4750, 273.2803
808.6160, 301.7969
809.7560, 390.3335
810.8970, 292.7173
812.0370, 328.0776
813.1770, 374.1587
814.3170, 458.1450
815.4570, 326.4517
816.5960, 482.8467
817.7360, 576.3481
818.8750, 545.3916
820.0140, 679.2104
821.1530, 665.4336
822.2920, 866.1729
823.4310, 970.9033
824.5690, 1149.359
825.7070, 1348.246
826.8460, 1722.557
827.9840, 1990.564
829.1220, 2121.331
830.2590, 2202.019
831.3970, 2351.924
832.5340, 2373.461
833.6710, 2278.059
834.8080, 2234.809
835.9450, 2206.246
837.0820, 2068.067
838.2190, 1936.422
839.3550, 1740.929
840.4910, 1623.264
841.6270, 1353.967
842.7630, 1227.734
843.8990, 1128.435
845.0350, 906.4790
846.1700, 805.1699
847.3060, 649.5127
848.4410, 462.6699
849.5760, 419.4033
850.7100, 377.1104
851.8450, 397.5342
852.9800, 303.3247
854.1140, 223.1870
855.2480, 236.0522
856.3820, 161.9229
857.5160, 53.79688
858.6500, 118.4741
859.7830, 172.3574
860.9170, 115.1489
862.0500, 124.0420
863.1830, 76.94092
864.3160, 152.8442
865.4480, 46.92383
866.5810, 55.88379
867.7130, 13.86670
868.8460, 131.0884
869.9780, 108.0513
871.1100, 41.04541
872.2410, 118.3423
873.3730, 98.35547
874.5050, 149.8911
875.6360, 214.2417
876.7670, 281.2793
877.8980, 160.3242
879.0290, 210.3945
880.1590, 194.4902
881.2900, 236.5952
882.4200, 303.1270
883.5500, 266.8423
884.6800, 267.1069
885.8100, 396.2632
886.9400, 305.4312
888.0690, 331.6177
889.1990, 294.8369
890.3280, 386.0752
891.4570, 494.3257
892.5860, 386.6929
893.7140, 416.9780
894.8430, 466.2886
895.9710, 561.6299
897.1000, 637.9814
898.2280, 487.3696
899.3560, 626.7720
900.4830, 628.1875
901.6110, 670.6152
902.7380, 699.0542
903.8660, 732.5098
904.9930, 752.9766
906.1200, 803.5469
907.2460, 838.9619
908.3730, 920.4780
909.5000, 948.0059
910.6260, 1042.551
911.7520, 1135.107
912.8780, 1213.676
914.0040, 1314.257
915.1290, 1407.861
916.2550, 1587.480
917.3800, 1732.130
918.5050, 1843.793
919.6300, 2134.472
920.7550, 2377.194
921.8800, 2722.950
923.0040, 3015.724
924.1290, 3497.536
925.2530, 4080.365
926.3770, 4576.224
927.5010, 5416.105
928.6250, 6009.005
929.7480, 6938.950
930.8720, 7900.937
931.9950, 9131.939
933.1180, 9725.982
934.2410, 10750.07
935.3640, 11130.17
936.4860, 11273.33
937.6090, 11201.50
938.7310, 10702.71
939.8530, 10124.97
940.9750, 9281.246
942.0970, 8338.570
943.2180, 7343.944
944.3400, 6261.348
945.4610, 5363.797
946.5820, 4504.278
947.7030, 3849.787
948.8240, 3363.313
949.9450, 2817.859
951.0650, 2520.423
952.1860, 2323.004
953.3060, 2013.603
954.4260, 1851.160
955.5460, 1635.886
956.6650, 1529.561
957.7850, 1432.266
958.9040, 1299.998
960.0230, 1199.769
961.1420, 1180.577
962.2610, 1153.412
963.3800, 1001.282
964.4990, 888.1802
965.6170, 828.0952
966.7350, 812.0415
967.8530, 882.0044
968.9710, 713.9976
970.0890, 823.0112
971.2070, 669.0479
972.3240, 669.1274
973.4410, 527.2251
974.5580, 662.3438
975.6750, 566.4814
976.7920, 511.6353
977.9090, 453.8057
979.0250, 465.9922
980.1410, 349.1978
981.2580, 382.4199
982.3740, 325.6602
983.4890, 290.5962
984.6050, 249.1958
985.7200, 247.4883
986.8360, 262.7983
987.9510, 268.1250
989.0660, 209.4668
990.1810, 261.8242
991.2950, 167.1973
992.4100, 167.5859
993.5240, 101.9907
994.6390, 93.41162
995.7530, 79.84766
996.8660, 39.39062
997.9800, 24.47559
999.0940, 12.74609
1000.207, 2.249023
1001.320, 19.73633
1002.433, 24.67529
1003.546, 63.21680
1004.659, 101.2271
1005.772, 55.68213
1006.884, 20.87305
1007.996, 61.56006
1009.108, 19.99121
1010.220, 7.588379
1011.332, 52.18359
1012.444, 27.97461
1013.555, 129.5981
1014.666, 60.23730
1015.777, 128.1099
1016.888, 29.48193
1017.999, 8.845215
1019.110, 66.80420
1020.220, 103.4116
1021.331, 81.08984
1022.441, 22.78125
1023.551, 18.48682
1024.661, 12.20557
1025.770, 6.720215
1026.880, 58.29883
1027.989, 5.5663999E-02
1029.098, 40.05957
1030.207, 71.84082
1031.316, 52.65674
1032.425, 62.59961
1033.533, 64.87549
1034.642, 50.74805
1035.750, 58.58936
1036.858, 65.44287
1037.966, 54.30811
1039.073, 68.35107
1040.181, 80.59521
1041.288, 74.78223
1042.396, 54.91650
1043.503, 35.12451
1044.610, 41.05859
1045.716, 52.00342
1046.823, 51.95898
1047.929, 0.9257810
1049.036, 79.79395
1050.142, 39.52051
1051.248, 47.51807
1052.353, 93.52539
1053.459, 181.9165
1054.564, 81.94385
1055.670, 81.97949
1056.775, 31.02539
1057.880, 119.7329
1058.985, 108.7969
1060.089, 69.97119
1061.194, 89.05273
1062.298, 111.1431
1063.402, 215.2417
1064.506, 202.3491
1065.610, 270.4648
1066.713, 294.8472
1067.817, 312.8560
1068.920, 339.9946
1070.023, 339.1509
1071.126, 372.8491
1072.229, 386.8389
1073.332, 414.5537
1074.435, 412.6240
1075.537, 500.8174
1076.639, 478.0166
1077.741, 552.9219
1078.843, 624.2383
1079.945, 632.4678
1081.046, 826.6885
1082.148, 945.9131
1083.249, 1025.143
1084.350, 1167.376
1085.451, 1392.770
1086.551, 1721.012
1087.652, 2255.259
1088.752, 2702.509
1089.853, 3533.161
1090.953, 4714.603
1092.053, 6260.864
1093.152, 8260.130
1094.252, 9958.400
1095.351, 10307.85
1096.451, 9541.132
1097.550, 7708.497
1098.649, 5640.269
1099.748, 4403.607
1100.846, 3254.847
1101.945, 2659.139
1103.043, 2113.755
1104.141, 1689.277
1105.239, 1270.573
1106.337, 1139.761
1107.434, 933.2134
1108.532, 907.5220
1109.629, 828.9170
1110.726, 588.2256
1111.823, 522.5347
1112.920, 542.8438
1114.017, 462.1523
1115.113, 394.4609
1116.210, 373.9878
1117.306, 476.2998
1118.402, 393.6128
1119.498, 418.9692
1120.593, 205.2812
1121.689, 235.6182
1122.784, 178.9277
1123.879, 234.2363
1124.974, 254.5430
1126.069, 231.8486
1127.164, 179.1528
1128.259, 136.8042
1129.353, 109.1050
1130.447, 100.6582
1131.541, 120.5317
1132.635, 127.8291
1133.729, 127.2759
1134.822, 178.5708
1135.916, 134.8623
1137.009, 40.14355
1138.102, 16.16602
1139.195, 85.36475
1140.288, 57.31592
1141.380, 150.2725
1142.473, 81.62354
1143.565, 61.10449
1144.657, 52.12695
1145.749, 20.51367
1146.841, 96.73828
1147.932, 22.54834
1149.024, 109.2769
1150.115, 46.41260
1151.206, 9.212891
1152.297, 32.12646
1153.388, 55.36475
1154.479, 27.60791
1155.569, 42.79834
1156.659, 143.9795
1157.750, 17.94385
1158.839, 24.21289
1159.929, 90.64893
1161.019, 57.44531
1162.108, 16.53467
1163.198, 11.61865
1164.287, 13.69580
1165.376, 4.766602
1166.465, 45.82812
1167.553, 29.00732
1168.642, 57.93555
1169.730, 12.98047
1170.818, 27.01855
1171.906, 1.091309
1172.994, 74.18994
1174.082, 6.797852
1175.170, 39.33398
1176.257, 50.32227
1177.344, 38.30420
1178.431, 51.27979
1179.518, 1.237793
1180.605, 43.80762
1181.691, 37.10791
1182.778, 50.01660
1183.864, 21.08105
1184.950, 26.79395
1186.036, 35.66162
1187.122, 74.52295
1188.207, 8.385742
1189.292, 116.2266
1190.378, 14.93945
1191.463, 91.86816
1192.548, 57.78418
1193.632, 52.57666
1194.717, 129.4707
1195.801, 82.39062
1196.886, 24.16113
1197.970, 145.9233
1199.054, 118.6768
1200.137, 101.9453
1201.221, 2.316895
1202.305, 60.35254
1203.388, 46.06055
1204.471, 76.24023
1205.554, 117.3989
1206.637, 54.02881
1207.719, 19.34912
1208.802, 32.24072
1209.884, 43.07031
1210.966, 83.64111
1212.048, 118.2031
1213.130, 58.75684
1214.212, 157.3872
1215.293, 32.92334
1216.374, 169.4482
1217.456, 95.96484
1218.536, 102.4727
1219.617, 26.20508
1220.698, 7.690430
1221.778, 89.15576
1222.859, 78.61182
1223.939, 61.20264
1225.019, 9.259766
1226.099, 79.70898
1227.178, 44.33545
1228.258, 12.26709
1229.337, 50.12500
1230.417, 3.460938
1231.496, 131.0249
1232.574, 7.344727
1233.653, 55.35742
1234.732, 165.8862
1235.810, 18.99512
1236.888, 44.21094
1237.966, 118.4297
1239.044, 51.62402
1240.122, 157.8081
1241.199, 139.9819
1242.277, 89.14600
1243.354, 123.3501
1244.431, 77.64795
1245.508, 42.93164
1246.585, 93.05371
1247.661, 81.43066
1248.738, 64.63623
1249.814, 95.89551
1250.890, 69.97607
1251.966, 137.0479
1253.042, 183.2266
1254.117, 169.3652
1255.193, 138.5430
1256.268, 97.60059
1257.343, 38.62109
1258.418, 123.6274
1259.493, 155.6235
1260.567, 102.6099
1261.642, 72.59766
1262.716, 35.83594
1263.790, 125.7891
1264.864, 138.7319
1265.938, 93.72363
1267.011, 73.66162
1268.085, 21.58887
1269.158, 50.58984
1270.231, 98.49902
1271.304, 66.40039
1272.377, 90.36621
1273.450, 146.0640
1274.522, 50.94580
1275.594, 167.8032
1276.666, 137.6514
1277.738, 59.57764
1278.810, 71.42627
1279.882, 51.26514
1280.953, 53.14844
1282.025, 72.35059
1283.096, 70.33203
1284.167, 82.11426
1285.238, 84.35010
1286.308, 97.12549
1287.379, 85.16992
1288.449, 87.02930
1289.519, 86.54004
1290.589, 121.2773
1291.659, 140.9824
1292.729, 160.5640
1293.798, 207.1816
1294.868, 121.4736
1295.937, 80.16455
1297.006, 216.8462
1298.075, 228.5186
1299.143, 102.0303
1300.212, 147.6841
1301.280, 49.44775
1302.348, 191.0830
1303.416, 46.42334
1304.484, 106.0391
1305.552, 80.64600
1306.620, 127.2437
1307.687, 127.8335
1308.754, 146.5244
1309.821, 116.3584
1310.888, 196.9243
1311.955, 157.4819
1313.021, 132.6572
1314.088, 146.1997
1315.154, 83.73438
1316.220, 70.26123
1317.286, 154.1279
1318.352, 161.6392
1319.417, 127.0410
1320.483, 42.54150
1321.548, 103.0337
1322.613, 44.51465
1323.678, 37.98584
1324.743, 80.44873
1325.807, 123.7563
1326.872, 163.1880
1327.936, 23.38867
1329.000, 159.0166
1330.064, 0.8789060
1331.128, 131.2637
1332.191, 144.6406
1333.255, 73.77734
1334.318, 98.13916
1335.381, 68.49268
1336.444, 67.78760
1337.507, 15.36377
1338.569, 67.67090
1339.632, 113.9854
1340.694, 79.29199
1341.756, 40.59131
1342.818, 98.88379
1343.880, 66.00000
1344.941, 85.26416
1346.003, 86.52246
1347.064, 15.77393
1348.125, 79.61377
1349.186, 62.65918
1350.247, 61.88037
1351.308, 8.904297
1352.368, 0.7006840
1353.428, 50.32031
1354.489, 14.50684
1355.549, 57.60547
1356.608, 49.28467
1357.668, 41.39600
1358.727, 17.60010
1359.787, 136.7466
1360.846, 143.5635
1361.905, 149.4712
1362.964, 42.39941
1364.022, 66.83203
1365.081, 42.79443
1366.139, 49.89600
1367.197, 69.90674
1368.255, 48.04932
1369.313, 158.1362
1370.371, 33.21826
1371.428, 9.295410
1372.486, 16.63281
1373.543, 60.28369
1374.600, 1.658691
1375.657, 19.39307
1376.713, 6.394531
1377.770, 77.43604
1378.826, 46.86523
1379.882, 15.89795
1380.938, 22.92627
1381.994, 10.94971
1383.050, 36.96826
1384.106, 53.98242
1385.161, 119.6436
1386.216, 190.7368
1387.271, 43.73877
1388.326, 39.78662
1389.381, 21.25195
1390.435, 59.28125
1391.490, 46.26270
1392.544, 27.26660
1393.598, 87.82471
1394.652, 73.75586
1395.705, 19.93994
1396.759, 68.72070
1397.812, 50.68359
1398.866, 21.56787
1399.919, 105.5264
1400.972, 36.50049
1402.024, 63.31494
1403.077, 98.28516
1404.129, 22.25439
1405.181, 61.12598
1406.233, 169.0439
1407.285, 52.84424
1408.337, 136.6704
1409.389, 87.59375
1410.440, 53.50684
1411.491, 102.4663
1412.542, 233.4316
1413.593, 113.3965
1414.644, 145.3618
1415.695, 243.3281
1416.745, 220.3213
1417.795, 208.3130
1418.845, 211.4902
1419.895, 217.3721
1420.945, 215.4800
1421.995, 226.4683
1423.044, 188.4541
1424.093, 133.5068
1425.142, 104.4966
1426.191, 196.4893
1427.240, 132.4844
1428.289, 135.3657
1429.337, 219.3706
1430.385, 165.2480
1431.433, 134.2661
1432.481, 100.2896
1433.529, 56.31689
1434.577, 137.6079
1435.624, 125.6440
1436.672, 179.7021
1437.719, 76.87646
1438.766, 225.9512
1439.812, 86.20264
1440.859, 111.3096
1441.905, 92.44385
1442.952, 52.54883
1443.998, 127.6660
1445.044, 198.7729
1446.090, 136.8462
1447.135, 146.8535
1448.181, 167.0259
1449.226, 189.3145
1450.271, 314.8379
1451.316, 282.2705
1452.361, 435.2817
1453.405, 471.2700
1454.450, 602.3066
1455.494, 874.3481
1456.538, 1133.132
1457.582, 1635.174
1458.626, 1796.118
1459.670, 1587.151
1460.713, 1181.919
1461.757, 780.9502
1462.800, 590.6870
1463.843, 404.9653
1464.886, 265.7305
1465.928, 311.6714
1466.971, 184.5410
1468.013, 283.6313
1469.055, 247.2993
1470.097, 182.3740
1471.139, 261.4653
1472.181, 143.4932
1473.222, 44.95117
1474.263, 220.6890
1475.305, 242.4106
1476.346, 139.4751
1477.386, 194.2700
1478.427, 113.1138
1479.468, 168.1738
1480.508, 139.2354
1481.548, 152.5459
1482.588, 139.5947
1483.628, 142.5586
1484.668, 86.48486
1485.707, 189.5400
1486.747, 113.4868
1487.786, 146.5278
1488.825, 82.48535
1489.864, 100.5488
1490.902, 73.61621
1491.941, 88.68799
1492.979, 13.76270
1494.017, 64.83887
1495.055, 83.91699
1496.093, 76.99609
1497.131, 124.0747
1498.168, 10.15479
1499.206, 108.2354
1500.243, 74.31738
1501.280, 74.40234
1502.317, 119.4907
1503.354, 15.42041
1504.390, 103.6646
1505.426, 152.7485
1506.463, 69.82861
1507.499, 80.90381
1508.535, 119.9766
1509.570, 102.0371
1510.606, 7.095703
1511.641, 39.16504
1512.676, 16.29004
1513.711, 58.42822
1514.746, 97.57129
1515.781, 97.71973
1516.816, 22.87451
1517.850, 19.95166
1518.884, 89.25928
1519.918, 0.5185550
1520.952, 123.7451
1521.986, 132.0518
1523.019, 111.3843
1524.053, 77.75732
1525.086, 103.1484
1526.119, 132.5605
1527.152, 64.00830
1528.185, 166.4951
1529.217, 80.00488
1530.250, 157.5376
1531.282, 47.09473
1532.314, 36.67480
1533.346, 80.11475
1534.377, 101.7402
1535.409, 65.16309
1536.440, 184.8394
1537.472, 82.54785
1538.503, 167.7524
1539.534, 58.48535
1540.564, 69.25684
1541.595, 44.72021
1542.625, 0.6376950
1543.656, 125.2529
1544.686, 50.07959
1545.716, 54.33789
1546.745, 173.6318
1547.775, 30.58838
1548.804, 133.5894
1549.834, 63.63574
1550.863, 131.7280
1551.892, 182.8667
1552.920, 218.0581
1553.949, 268.3115
1554.977, 382.6260
1556.006, 213.1045
1557.034, 152.6729
1558.062, 4.718750
1559.089, 164.4844
1560.117, 72.87451
1561.144, 43.03369
1562.172, 143.3745
1563.199, 37.93115
1564.226, 81.74365
1565.252, 74.11133
1566.279, 90.06396
1567.305, 139.3672
1568.332, 107.4917
1569.358, 0.8334960
1570.384, 129.9238
1571.409, 0.0000000E+00
##END=



