##NAMES=Azurite
##RRUFFID=R050497
##IDEAL CHEMISTRY=Cu^2+^_3_(CO_3_)_2_(OH)_2_
##LOCALITY=Tsumeb mine, Tsumeb, Otavi District, Oshikoto, Namibia
##OWNER=RRUFF
##SOURCE=Marcus Origlieri
##DESCRIPTION=Blue prismatic single crystal
##STATUS=The identification of this mineral has been confirmed by X-ray diffraction and chemical analysis
##URL=rruff.info/R050497
##MEASURED CHEMISTRY=Cu_3.00_(CO_3_)_2_(OH)_2_
##PIN_ID=L01397
##ORIENTATION=Laser parallel to (-1 0 -1). Fiducial mark perpendicular to laser is parallel to -b [0 -1 0]
52.67100, 0.0000000E+00
53.91000, 28.50647
55.14900, 59.73370
56.38700, 66.24619
57.62600, 49.01593
58.86400, 23.44037
60.10300, 22.76379
61.34100, 0.8475340
62.57900, 12.97205
63.81700, 23.94073
65.05400, 17.07147
66.29200, 3.656189
67.52900, 60.04596
68.76700, 155.8112
70.00400, 349.4727
71.24100, 636.8997
72.47700, 834.9583
73.71400, 902.5115
74.95100, 1122.430
76.18700, 1582.596
77.42300, 2270.908
78.65900, 2994.272
79.89500, 4580.610
81.13100, 7792.849
82.36700, 13048.93
83.60200, 17070.79
84.83700, 14736.44
86.07200, 9297.924
87.30800, 5753.239
88.54200, 4029.319
89.77700, 3118.097
91.01200, 2722.504
92.24600, 2720.476
93.48000, 2560.954
94.71400, 2284.895
95.94800, 2322.266
97.18200, 2136.038
98.41600, 1979.183
99.64900, 2097.685
100.8830, 2160.523
102.1160, 1993.681
103.3490, 1946.145
104.5820, 1999.903
105.8150, 2135.944
107.0470, 2491.258
108.2800, 2975.834
109.5120, 3901.666
110.7440, 4794.743
111.9760, 4878.060
113.2080, 4324.610
114.4400, 3430.432
115.6710, 2780.912
116.9030, 2700.396
118.1340, 2356.798
119.3650, 2121.859
120.5960, 1911.254
121.8270, 1895.716
123.0580, 1850.078
124.2880, 1812.138
125.5190, 1949.467
126.7490, 1871.148
127.9790, 1884.760
129.2090, 1984.301
130.4390, 2234.769
131.6680, 2472.190
132.8980, 2395.579
134.1270, 2456.965
135.3560, 2541.368
136.5850, 2992.796
137.8140, 3645.260
139.0430, 4628.766
140.2710, 5906.323
141.5000, 7757.934
142.7280, 9793.606
143.9560, 10059.34
145.1840, 7806.148
146.4120, 5298.023
147.6390, 3893.973
148.8670, 3003.998
150.0940, 2633.100
151.3210, 2580.281
152.5490, 2812.542
153.7750, 3244.884
155.0020, 3051.309
156.2290, 2393.817
157.4550, 1986.407
158.6810, 1599.083
159.9080, 1461.842
161.1340, 1439.685
162.3590, 1372.612
163.5850, 1429.621
164.8110, 1599.713
166.0360, 1865.887
167.2610, 2121.144
168.4860, 2452.481
169.7110, 3085.902
170.9360, 3615.404
172.1610, 3452.986
173.3850, 2834.651
174.6100, 2477.395
175.8340, 2360.169
177.0580, 2777.655
178.2820, 3201.115
179.5050, 3229.526
180.7290, 3006.544
181.9520, 2681.259
183.1760, 2576.872
184.3990, 2770.385
185.6220, 3067.593
186.8450, 3616.428
188.0670, 4484.584
189.2900, 5787.990
190.5120, 7614.480
191.7340, 9972.050
192.9560, 12264.70
194.1780, 13370.43
195.4000, 12344.23
196.6220, 10275.11
197.8430, 8375.073
199.0640, 6630.109
200.2860, 5316.810
201.5070, 4518.415
202.7270, 3929.926
203.9480, 3438.339
205.1690, 2782.648
206.3890, 2082.450
207.6090, 1624.384
208.8290, 1402.275
210.0490, 1314.310
211.2690, 1175.444
212.4890, 1150.156
213.7080, 1021.322
214.9280, 1056.715
216.1470, 919.2906
217.3660, 800.0397
218.5850, 735.9539
219.8030, 604.0253
221.0220, 584.2466
222.2400, 572.6118
223.4590, 502.1147
224.6770, 491.7505
225.8950, 528.5137
227.1120, 501.3999
228.3300, 477.4053
229.5480, 543.5254
230.7650, 545.7573
231.9820, 651.0967
233.1990, 784.5405
234.4160, 975.0845
235.6330, 1354.725
236.8490, 1585.460
238.0660, 1674.285
239.2820, 1642.199
240.4980, 1668.199
241.7140, 2162.283
242.9300, 2875.449
244.1460, 4330.698
245.3610, 6918.022
246.5770, 10665.43
247.7920, 12883.90
249.0070, 11333.46
250.2220, 7732.088
251.4370, 4945.788
252.6510, 3257.559
253.8660, 2168.399
255.0800, 1507.309
256.2940, 1091.287
257.5080, 884.3308
258.7220, 795.4404
259.9360, 957.6152
261.1490, 1145.854
262.3630, 877.1528
263.5760, 705.5081
264.7890, 810.9158
266.0020, 724.3726
267.2150, 669.8774
268.4270, 555.4294
269.6400, 531.0288
270.8520, 517.6758
272.0640, 493.3696
273.2760, 604.1104
274.4880, 600.8984
275.7000, 876.7349
276.9120, 1040.619
278.1230, 1330.553
279.3340, 1530.536
280.5450, 1607.567
281.7560, 1561.648
282.9670, 1618.779
284.1780, 1335.959
285.3880, 1079.188
286.5980, 869.4663
287.8090, 715.7935
289.0190, 469.1689
290.2290, 449.5933
291.4380, 330.0659
292.6480, 206.5867
293.8570, 116.1550
295.0670, 71.77124
296.2760, 47.43457
297.4850, 79.85522
298.6930, 70.11450
299.9020, 139.3418
301.1110, 140.5508
302.3190, 162.7422
303.5270, 240.9211
304.7350, 168.0979
305.9430, 213.2642
307.1510, 192.4263
308.3580, 190.5779
309.5660, 195.7231
310.7730, 186.8652
311.9800, 128.0027
313.1870, 158.1184
314.3940, 140.2207
315.6010, 97.30322
316.8070, 99.36230
318.0130, 81.39917
319.2200, 68.40894
320.4260, 9.385010
321.6310, 63.66235
322.8370, 145.3721
324.0430, 257.7231
325.2480, 370.6904
326.4540, 519.6060
327.6590, 668.4839
328.8640, 809.3430
330.0680, 960.1921
331.2730, 957.0544
332.4780, 951.9380
333.6820, 819.8757
334.8860, 727.8699
336.0900, 640.9192
337.2940, 504.0273
338.4980, 391.1978
339.7010, 348.4238
340.9050, 299.6926
342.1080, 262.0159
343.3110, 231.3853
344.5140, 299.7966
345.7170, 296.2676
346.9200, 331.8020
348.1220, 324.3984
349.3240, 373.0569
350.5270, 476.7759
351.7290, 496.5593
352.9310, 541.4004
354.1320, 684.3018
355.3340, 680.2605
356.5350, 761.2778
357.7370, 870.3499
358.9380, 1078.476
360.1390, 1172.654
361.3400, 1380.884
362.5400, 1525.164
363.7410, 1702.494
364.9410, 1948.874
366.1410, 2165.305
367.3410, 2347.788
368.5410, 2629.326
369.7410, 2903.919
370.9400, 3233.563
372.1400, 3617.260
373.3390, 4121.007
374.5380, 4665.796
375.7370, 5303.637
376.9360, 5927.539
378.1350, 6607.509
379.3330, 7548.532
380.5310, 8158.605
381.7300, 9018.733
382.9280, 9608.910
384.1260, 10288.15
385.3230, 10876.44
386.5210, 11516.78
387.7180, 12340.16
388.9160, 13361.59
390.1130, 14773.07
391.3100, 16927.60
392.5060, 20075.19
393.7030, 24150.81
394.9000, 29624.49
396.0960, 36901.21
397.2920, 45546.96
398.4880, 53889.78
399.6840, 59611.63
400.8800, 60226.52
402.0750, 55765.44
403.2710, 47679.42
404.4660, 39478.43
405.6610, 31816.49
406.8560, 26163.58
408.0510, 21434.70
409.2450, 18002.87
410.4400, 15183.07
411.6340, 13161.29
412.8280, 11172.33
414.0220, 9685.584
415.2160, 8575.214
416.4100, 7606.588
417.6030, 6710.994
418.7970, 6126.434
419.9900, 5409.915
421.1830, 4950.428
422.3760, 4489.973
423.5690, 4231.552
424.7610, 3924.159
425.9540, 3646.798
427.1460, 3367.469
428.3380, 3231.167
429.5300, 3073.894
430.7220, 2799.647
431.9140, 2688.428
433.1050, 2515.237
434.2970, 2390.071
435.4880, 2224.932
436.6790, 2090.817
437.8700, 1938.645
439.0610, 1788.661
440.2510, 1676.619
441.4420, 1527.281
442.6320, 1485.351
443.8220, 1322.294
445.0120, 1220.178
446.2020, 1122.025
447.3910, 1121.230
448.5810, 1133.795
449.7700, 1002.658
450.9600, 1021.128
452.1490, 906.6809
453.3370, 906.8757
454.5260, 869.4805
455.7150, 898.9678
456.9030, 916.5498
458.0910, 863.7798
459.2800, 828.0325
460.4670, 901.0195
461.6550, 764.2488
462.8430, 873.1108
464.0300, 825.2444
465.2180, 822.5605
466.4050, 842.7004
467.5920, 821.2344
468.7790, 837.0852
469.9650, 828.6968
471.1520, 743.8989
472.3380, 794.7524
473.5250, 753.9995
474.7110, 769.5786
475.8970, 695.7253
477.0820, 704.0952
478.2680, 688.3625
479.4540, 675.4585
480.6390, 661.6489
481.8240, 661.1113
483.0090, 658.5420
484.1940, 658.3689
485.3780, 660.1465
486.5630, 662.9619
487.7470, 640.0566
488.9320, 637.8257
490.1160, 635.2292
491.3000, 647.5862
492.4830, 619.5142
493.6670, 618.8833
494.8500, 590.2366
496.0340, 543.2339
497.2170, 513.2822
498.4000, 511.7212
499.5820, 446.7651
500.7650, 461.2590
501.9480, 413.5464
503.1300, 414.8755
504.3120, 396.2303
505.4940, 332.6572
506.6760, 280.0802
507.8580, 313.1066
509.0390, 282.2175
510.2210, 234.4796
511.4020, 271.8417
512.5830, 208.3998
513.7640, 240.2001
514.9450, 172.6451
516.1250, 212.1718
517.3060, 164.7815
518.4860, 175.8984
519.6660, 200.6445
520.8460, 202.0729
522.0260, 191.1263
523.2060, 157.7567
524.3850, 185.9531
525.5650, 205.4204
526.7440, 231.3403
527.9230, 307.3604
529.1020, 331.3146
530.2810, 409.4587
531.4590, 431.9404
532.6380, 543.4529
533.8160, 609.5461
534.9940, 727.2471
536.1720, 935.8230
537.3500, 1121.189
538.5270, 1253.520
539.7050, 1358.197
540.8820, 1442.220
542.0590, 1419.900
543.2360, 1374.208
544.4130, 1148.542
545.5900, 1043.424
546.7660, 932.7091
547.9430, 790.5342
549.1190, 654.2137
550.2950, 555.6636
551.4710, 515.3646
552.6470, 461.7808
553.8220, 402.4391
554.9980, 372.9265
556.1730, 314.8896
557.3480, 309.2219
558.5230, 291.2610
559.6980, 273.4358
560.8730, 169.0740
562.0470, 221.1654
563.2220, 199.3922
564.3960, 136.6989
565.5700, 196.0880
566.7440, 108.1013
567.9170, 135.8878
569.0910, 188.8585
570.2640, 158.4863
571.4380, 139.5392
572.6110, 83.77209
573.7840, 99.75854
574.9570, 126.9885
576.1290, 65.11011
577.3020, 64.99573
578.4740, 35.86792
579.6460, 16.72668
580.8180, 32.57178
581.9900, 25.40308
583.1620, 33.23657
584.3330, 40.07019
585.5040, 47.91736
586.6760, 35.77795
587.8470, 18.34277
589.0180, 23.55737
590.1880, 4.523315
591.3590, 14.58276
592.5290, 5.369751
593.7000, 11.34265
594.8700, 41.33875
596.0400, 10.64294
597.2090, 1.625610
598.3790, 14.59912
599.5490, 2.426025
600.7180, 8.449463
601.8870, 0.5261230
603.0560, 17.50903
604.2250, 14.51001
605.3940, 3.539063
606.5620, 0.4039310
607.7300, 5.382813
608.8990, 9.206665
610.0670, 21.93042
611.2350, 31.10645
612.4020, 41.32629
613.5700, 46.86584
614.7370, 34.91846
615.9050, 43.28870
617.0720, 29.71094
618.2390, 27.17896
619.4060, 39.69177
620.5720, 56.25623
621.7390, 27.88184
622.9050, 32.44592
624.0710, 25.24939
625.2370, 3.009155
626.4030, 50.23596
627.5690, 27.44031
628.7340, 4.619507
629.9000, 15.76685
631.0650, 18.88611
632.2300, 50.97766
633.3950, 21.04553
634.5600, 76.08594
635.7240, 21.10303
636.8890, 48.09192
638.0530, 23.05627
639.2170, 53.99207
640.3810, 22.90320
641.5450, 35.78540
642.7080, 34.64038
643.8720, 34.46814
645.0350, 31.49231
646.1980, 33.04004
647.3610, 11.78333
648.5240, 10.49243
649.6870, 8.833496
650.8490, 9.942505
652.0120, 3.378540
653.1740, 7.7514999E-02
654.3360, 6.425049
655.4980, 37.88953
656.6600, 4.324341
657.8210, 51.28052
658.9830, 60.95435
660.1440, 23.70264
661.3050, 1.505859
662.4660, 26.35266
663.6270, 3.256348
664.7870, 39.20459
665.9480, 46.21655
667.1080, 23.70386
668.2680, 12.58997
669.4280, 26.56140
670.5880, 6.770264
671.7480, 39.02637
672.9070, 16.34692
674.0670, 6.280151
675.2260, 8.866577
676.3850, 20.58630
677.5440, 4.094238
678.7030, 9.648315
679.8610, 0.7486570
681.0200, 43.10193
682.1780, 15.42383
683.3360, 36.29138
684.4940, 31.93030
685.6520, 3.881226
686.8090, 34.26135
687.9670, 42.37085
689.1240, 10.44885
690.2810, 40.48840
691.4380, 59.49573
692.5950, 14.52612
693.7520, 11.40088
694.9080, 30.29004
696.0650, 64.14563
697.2210, 20.97241
698.3770, 26.76416
699.5330, 16.47791
700.6880, 17.22864
701.8440, 68.89954
702.9990, 9.542358
704.1550, 54.14722
705.3100, 17.72266
706.4650, 27.15588
707.6190, 113.7701
708.7740, 34.25171
709.9290, 79.70166
711.0830, 60.12463
712.2370, 84.51941
713.3910, 57.88782
714.5450, 65.22778
715.6980, 110.5403
716.8520, 107.8274
718.0050, 125.0895
719.1580, 137.3264
720.3110, 154.5383
721.4640, 132.7255
722.6170, 192.8918
723.7700, 215.0471
724.9220, 232.1594
726.0740, 214.3799
727.2260, 261.1508
728.3780, 257.1948
729.5300, 261.6344
730.6810, 316.4839
731.8330, 328.3153
732.9840, 353.2183
734.1350, 396.1294
735.2860, 459.9933
736.4370, 521.3195
737.5880, 451.8372
738.7380, 554.2877
739.8880, 587.8901
741.0390, 559.0579
742.1890, 633.1740
743.3380, 650.4071
744.4880, 624.2249
745.6380, 657.2166
746.7870, 610.8125
747.9360, 532.0891
749.0850, 604.6047
750.2340, 555.7611
751.3830, 630.7996
752.5310, 577.6765
753.6800, 616.2207
754.8280, 677.1959
755.9760, 765.9475
757.1240, 861.7013
758.2720, 975.4396
759.4190, 1108.751
760.5670, 1251.405
761.7140, 1411.629
762.8610, 1594.342
764.0080, 1588.708
765.1550, 1624.001
766.3020, 1574.013
767.4480, 1445.349
768.5950, 1322.048
769.7410, 1161.790
770.8870, 970.9585
772.0330, 891.6820
773.1780, 853.8467
774.3240, 684.5073
775.4690, 623.5413
776.6140, 624.1802
777.7590, 535.2102
778.9040, 518.7854
780.0490, 406.5627
781.1940, 386.2936
782.3380, 373.9934
783.4820, 398.6160
784.6260, 369.2373
785.7700, 346.2495
786.9140, 307.1714
788.0580, 273.9366
789.2010, 253.5955
790.3450, 300.0525
791.4880, 246.2609
792.6310, 241.8179
793.7730, 259.2872
794.9160, 207.6666
796.0590, 206.5322
797.2010, 199.7614
798.3430, 221.3015
799.4850, 164.2091
800.6270, 208.5326
801.7690, 211.2825
802.9100, 149.7539
804.0520, 157.7648
805.1930, 133.6681
806.3340, 146.2010
807.4750, 121.3918
808.6160, 148.8093
809.7560, 123.1879
810.8970, 141.9769
812.0370, 155.1499
813.1770, 127.4395
814.3170, 114.9302
815.4570, 165.4479
816.5960, 130.6095
817.7360, 163.4175
818.8750, 152.5587
820.0140, 184.0632
821.1530, 207.0480
822.2920, 237.2490
823.4310, 287.9453
824.5690, 342.8961
825.7070, 424.9832
826.8460, 529.2908
827.9840, 557.3374
829.1220, 620.6597
830.2590, 611.5000
831.3970, 617.8546
832.5340, 660.7076
833.6710, 779.0750
834.8080, 732.7256
835.9450, 805.5084
837.0820, 832.2620
838.2190, 821.8306
839.3550, 815.2534
840.4910, 780.5863
841.6270, 716.8262
842.7630, 708.4321
843.8990, 497.2540
845.0350, 435.8813
846.1700, 337.8416
847.3060, 318.3658
848.4410, 184.6997
849.5760, 165.2693
850.7100, 120.5847
851.8450, 108.9979
852.9800, 71.63635
854.1140, 44.27722
855.2480, 30.82263
856.3820, 12.01392
857.5160, 4.216064
858.6500, 0.8684080
859.7830, 2.476074
860.9170, 8.182861
862.0500, 15.15454
863.1830, 20.51050
864.3160, 0.1861570
865.4480, 24.86621
866.5810, 18.55396
867.7130, 4.252441
868.8460, 26.95715
869.9780, 49.66736
871.1100, 62.38281
872.2410, 38.10950
873.3730, 82.84521
874.5050, 86.60278
875.6360, 122.3767
876.7670, 81.14087
877.8980, 109.3590
879.0290, 170.1506
880.1590, 182.9561
881.2900, 235.7778
882.4200, 179.6104
883.5500, 212.4570
884.6800, 253.4188
885.8100, 261.3014
886.9400, 299.2024
888.0690, 320.1262
889.1990, 316.0746
890.3280, 323.0520
891.4570, 341.0231
892.5860, 415.0892
893.7140, 390.1442
894.8430, 419.2234
895.9710, 479.3464
897.1000, 476.4966
898.2280, 512.6667
899.3560, 513.8643
900.4830, 580.0854
901.6110, 594.3220
902.7380, 662.5750
903.8660, 678.8428
904.9930, 714.1233
906.1200, 769.4205
907.2460, 838.7281
908.3730, 868.0610
909.5000, 957.4041
910.6260, 953.7651
911.7520, 1091.138
912.8780, 1154.524
914.0040, 1194.926
915.1290, 1362.341
916.2550, 1451.772
917.3800, 1625.220
918.5050, 1782.683
919.6300, 1869.159
920.7550, 2196.654
921.8800, 2432.165
923.0040, 2761.694
924.1290, 3128.250
925.2530, 3535.835
926.3770, 4056.440
927.5010, 4698.069
928.6250, 5474.719
929.7480, 6267.383
930.8720, 7159.068
931.9950, 8245.790
933.1180, 9298.547
934.2410, 10211.33
935.3640, 10835.15
936.4860, 11415.99
937.6090, 11442.85
938.7310, 11300.74
939.8530, 10757.67
940.9750, 10089.62
942.0970, 9249.586
943.2180, 8218.583
944.3400, 7382.603
945.4610, 6222.659
946.5820, 5500.743
947.7030, 4581.856
948.8240, 3949.990
949.9450, 3321.163
951.0650, 2988.358
952.1860, 2560.583
953.3060, 2211.844
954.4260, 1980.121
955.5460, 1843.432
956.6650, 1624.776
957.7850, 1503.137
958.9040, 1397.524
960.0230, 1323.932
961.1420, 1276.371
962.2610, 1146.832
963.3800, 1117.311
964.4990, 1028.806
965.6170, 949.3303
966.7350, 866.8750
967.8530, 915.4384
968.9710, 816.0201
970.0890, 774.6216
971.2070, 809.2429
972.3240, 694.8921
973.4410, 668.5630
974.5580, 643.2506
975.6750, 538.9590
976.7920, 547.6842
977.9090, 552.4293
979.0250, 510.1926
980.1410, 494.7528
981.2580, 439.7671
982.3740, 419.5789
983.4890, 373.4072
984.6050, 331.2507
985.7200, 356.1119
986.8360, 323.9891
987.9510, 236.8810
989.0660, 281.7875
990.1810, 211.7095
991.2950, 194.6462
992.4100, 127.5985
993.5240, 179.5612
994.6390, 142.5245
995.7530, 112.5215
996.8660, 135.3997
997.9800, 95.42578
999.0940, 109.4598
1000.207, 87.51562
1001.320, 75.58618
1002.433, 49.67114
1003.546, 70.77063
1004.659, 26.88464
1005.772, 27.09058
1006.884, 19.23291
1007.996, 0.6103520
1009.108, 2.438721
1010.220, 50.74902
1011.332, 32.04846
1012.444, 27.80115
1013.555, 7.027832
1014.666, 23.23718
1015.777, 10.49133
1016.888, 8.212646
1017.999, 11.52686
1019.110, 1.278076
1020.220, 14.58508
1021.331, 6.905518
1022.441, 48.23901
1023.551, 57.23584
1024.661, 67.73425
1025.770, 71.26636
1026.880, 82.86609
1027.989, 56.26135
1029.098, 56.08264
1030.207, 47.73474
1031.316, 22.41382
1032.425, 54.11450
1033.533, 9.661133
1034.642, 70.29468
1035.750, 98.86597
1036.858, 70.36072
1037.966, 74.85474
1039.073, 39.12390
1040.181, 48.38098
1041.288, 47.68408
1042.396, 62.45801
1043.503, 58.00623
1044.610, 62.55957
1045.716, 70.12219
1046.823, 51.54651
1047.929, 76.12769
1049.036, 44.25769
1050.142, 45.44604
1051.248, 58.57471
1052.353, 68.19128
1053.459, 64.61353
1054.564, 86.26221
1055.670, 80.90405
1056.775, 105.6854
1057.880, 113.9089
1058.985, 64.62012
1060.089, 87.71387
1061.194, 86.75049
1062.298, 184.5011
1063.402, 108.1973
1064.506, 196.3577
1065.610, 205.0679
1066.713, 277.7848
1067.817, 218.1099
1068.920, 213.8744
1070.023, 277.6108
1071.126, 279.3535
1072.229, 331.1028
1073.332, 424.8580
1074.435, 418.6198
1075.537, 421.3972
1076.639, 518.1833
1077.741, 533.8801
1078.843, 553.7964
1079.945, 652.8010
1081.046, 751.9404
1082.148, 844.8943
1083.249, 954.7998
1084.350, 1108.263
1085.451, 1313.851
1086.551, 1573.812
1087.652, 1906.777
1088.752, 2281.706
1089.853, 3063.549
1090.953, 4008.449
1092.053, 5221.189
1093.152, 6825.199
1094.252, 8719.325
1095.351, 10529.31
1096.451, 10981.20
1097.550, 9765.319
1098.649, 7719.234
1099.748, 5854.218
1100.846, 4311.608
1101.945, 3202.555
1103.043, 2511.730
1104.141, 1927.592
1105.239, 1575.973
1106.337, 1296.028
1107.434, 1124.943
1108.532, 980.8708
1109.629, 886.7734
1110.726, 708.6393
1111.823, 590.5050
1112.920, 514.4862
1114.017, 495.3513
1115.113, 444.3104
1116.210, 435.2189
1117.306, 439.3929
1118.402, 423.2559
1119.498, 498.1362
1120.593, 498.9976
1121.689, 512.0265
1122.784, 499.9456
1123.879, 465.9465
1124.974, 426.8984
1126.069, 393.5840
1127.164, 344.1378
1128.259, 299.6255
1129.353, 246.4772
1130.447, 178.4651
1131.541, 135.3589
1132.635, 91.31787
1133.729, 62.15674
1134.822, 33.03064
1135.916, 69.92957
1137.009, 1.782959
1138.102, 15.61011
1139.195, 30.52429
1140.288, 10.58960
1141.380, 17.93726
1142.473, 8.926880
1143.565, 10.70630
1144.657, 10.31299
1145.749, 16.85889
1146.841, 27.96130
1147.932, 2.159180
1149.024, 1.764160
1150.115, 25.54333
1151.206, 35.23938
1152.297, 28.09119
1153.388, 18.87646
1154.479, 26.33362
1155.569, 21.61548
1156.659, 21.08521
1157.750, 16.15076
1158.839, 26.53003
1159.929, 52.69080
1161.019, 16.98645
1162.108, 33.36145
1163.198, 16.76147
1164.287, 30.17834
1165.376, 14.61890
1166.465, 13.07568
1167.553, 10.45203
1168.642, 36.97363
1169.730, 6.510376
1170.818, 19.99255
1171.906, 38.51025
1172.994, 18.01282
1174.082, 9.485352
1175.170, 20.00220
1176.257, 32.45581
1177.344, 6.110840
1178.431, 31.30847
1179.518, 0.2786870
1180.605, 0.8778080
1181.691, 0.5319820
1182.778, 35.90881
1183.864, 3.721191
1184.950, 15.63599
1186.036, 50.98462
1187.122, 8.648315
1188.207, 15.32397
1189.292, 14.97937
1190.378, 4.335938
1191.463, 4.619629
1192.548, 26.94080
1193.632, 35.24780
1194.717, 4.504272
1195.801, 45.79614
1196.886, 36.04443
1197.970, 2.333130
1199.054, 24.64417
1200.137, 69.84937
1201.221, 71.08167
1202.305, 71.23083
1203.388, 72.88513
1204.471, 48.16577
1205.554, 36.32874
1206.637, 36.52698
1207.719, 1.293457
1208.802, 17.01440
1209.884, 5.676514
1210.966, 10.42126
1212.048, 20.31995
1213.130, 20.75146
1214.212, 4.169434
1215.293, 29.75244
1216.374, 18.55200
1217.456, 35.38086
1218.536, 24.72534
1219.617, 49.34412
1220.698, 37.51245
1221.778, 1.569458
1222.859, 34.48364
1223.939, 15.50220
1225.019, 23.40723
1226.099, 47.35669
1227.178, 16.27441
1228.258, 43.30505
1229.337, 28.42944
1230.417, 9.505005
1231.496, 39.52808
1232.574, 15.57776
1233.653, 67.42200
1234.732, 10.28906
1235.810, 21.15430
1236.888, 51.96570
1237.966, 49.86255
1239.044, 56.78613
1240.122, 73.70740
1241.199, 69.49011
1242.277, 40.19971
1243.354, 76.93799
1244.431, 46.75354
1245.508, 59.54968
1246.585, 17.26404
1247.661, 84.91479
1248.738, 67.64368
1249.814, 87.36609
1250.890, 32.99255
1251.966, 59.62646
1253.042, 40.23706
1254.117, 61.83984
1255.193, 105.4338
1256.268, 26.02051
1257.343, 116.5981
1258.418, 77.16760
1259.493, 44.72937
1260.567, 67.28235
1261.642, 51.82654
1262.716, 94.36182
1263.790, 67.98230
1264.864, 70.50159
1265.938, 77.01221
1267.011, 86.43701
1268.085, 61.93225
1269.158, 23.41833
1270.231, 10.89539
1271.304, 43.36023
1272.377, 88.81641
1273.450, 33.62952
1274.522, 79.07007
1275.594, 77.53296
1276.666, 62.95642
1277.738, 51.07874
1278.810, 80.34509
1279.882, 78.23254
1280.953, 61.62219
1282.025, 77.00378
1283.096, 75.37695
1284.167, 92.09216
1285.238, 110.0541
1286.308, 70.40515
1287.379, 97.62708
1288.449, 61.96216
1289.519, 68.87537
1290.589, 89.96045
1291.659, 95.02246
1292.729, 92.06628
1293.798, 97.26831
1294.868, 109.3867
1295.937, 102.5497
1297.006, 105.4803
1298.075, 96.10352
1299.143, 92.60010
1300.212, 84.85535
1301.280, 64.34033
1302.348, 68.51318
1303.416, 67.80518
1304.484, 75.02466
1305.552, 83.23303
1306.620, 101.5779
1307.687, 90.19983
1308.754, 93.59802
1309.821, 73.98889
1310.888, 81.63379
1311.955, 83.79541
1313.021, 79.15002
1314.088, 86.28296
1315.154, 74.41956
1316.220, 88.41138
1317.286, 95.95264
1318.352, 64.99634
1319.417, 101.6403
1320.483, 68.25891
1321.548, 70.25854
1322.613, 87.21130
1323.678, 69.69922
1324.743, 78.63684
1325.807, 67.56689
1326.872, 58.88684
1327.936, 83.76526
1329.000, 74.67078
1330.064, 32.56799
1331.128, 54.45667
1332.191, 35.33704
1333.255, 101.2079
1334.318, 75.06006
1335.381, 77.89343
1336.444, 42.81262
1337.507, 40.51038
1338.569, 88.11719
1339.632, 44.58618
1340.694, 81.23621
1341.756, 1.070068
1342.818, 74.06238
1343.880, 10.06787
1344.941, 64.71521
1346.003, 44.49097
1347.064, 35.76050
1348.125, 26.19629
1349.186, 50.86975
1350.247, 72.96448
1351.308, 52.62915
1352.368, 69.37256
1353.428, 56.64062
1354.489, 62.48474
1355.549, 33.02380
1356.608, 8.815552
1357.668, 18.58350
1358.727, 27.95435
1359.787, 19.83362
1360.846, 66.46191
1361.905, 59.51855
1362.964, 56.87793
1364.022, 67.81189
1365.081, 45.62830
1366.139, 37.56775
1367.197, 36.59692
1368.255, 64.49756
1369.313, 91.40002
1370.371, 75.43127
1371.428, 55.54309
1372.486, 58.72961
1373.543, 76.91443
1374.600, 100.7349
1375.657, 69.75073
1376.713, 69.79248
1377.770, 117.9932
1378.826, 87.96924
1379.882, 109.5239
1380.938, 94.79309
1381.994, 136.8025
1383.050, 154.0637
1384.106, 177.1118
1385.161, 189.1825
1386.216, 193.4573
1387.271, 191.4962
1388.326, 138.3871
1389.381, 213.3458
1390.435, 75.93677
1391.490, 167.5802
1392.544, 167.5710
1393.598, 147.6953
1394.652, 162.8595
1395.705, 162.7667
1396.759, 175.8630
1397.812, 205.4570
1398.866, 240.6322
1399.919, 220.6998
1400.972, 233.4491
1402.024, 268.4548
1403.077, 291.4224
1404.129, 363.3177
1405.181, 389.2948
1406.233, 485.1986
1407.285, 562.0859
1408.337, 630.1294
1409.389, 767.0283
1410.440, 857.1947
1411.491, 1042.293
1412.542, 1328.371
1413.593, 1646.196
1414.644, 2002.262
1415.695, 2673.182
1416.745, 3501.893
1417.795, 4336.839
1418.845, 5128.741
1419.895, 5351.895
1420.945, 5030.763
1421.995, 4089.800
1423.044, 3169.841
1424.093, 2418.715
1425.142, 1904.781
1426.191, 1477.838
1427.240, 1189.459
1428.289, 988.1324
1429.337, 878.6652
1430.385, 718.6907
1431.433, 650.5479
1432.481, 549.3198
1433.529, 522.6455
1434.577, 409.2891
1435.624, 408.8411
1436.672, 306.7063
1437.719, 336.1970
1438.766, 253.2703
1439.812, 231.8038
1440.859, 309.4507
1441.905, 215.6127
1442.952, 271.1101
1443.998, 252.1421
1445.044, 257.6135
1446.090, 246.2391
1447.135, 181.9005
1448.181, 214.0048
1449.226, 218.5806
1450.271, 275.1262
1451.316, 291.6464
1452.361, 288.0029
1453.405, 395.2651
1454.450, 483.8176
1455.494, 668.1890
1456.538, 901.5876
1457.582, 1259.003
1458.626, 1675.176
1459.670, 1780.403
1460.713, 1509.043
1461.757, 1073.282
1462.800, 699.7751
1463.843, 531.2896
1464.886, 375.6443
1465.928, 280.6508
1466.971, 177.7401
1468.013, 160.1963
1469.055, 169.6354
1470.097, 153.8448
1471.139, 122.1199
1472.181, 137.6910
1473.222, 107.9855
1474.263, 169.5306
1475.305, 99.91016
1476.346, 138.4780
1477.386, 167.0509
1478.427, 166.6106
1479.468, 125.1582
1480.508, 141.6923
1481.548, 131.2157
1482.588, 120.5973
1483.628, 118.0928
1484.668, 102.5739
1485.707, 108.0443
1486.747, 80.50159
1487.786, 122.9482
1488.825, 63.38159
1489.864, 124.8014
1490.902, 92.20728
1491.941, 76.59729
1492.979, 115.9677
1494.017, 115.3218
1495.055, 56.66040
1496.093, 64.98328
1497.131, 24.28577
1498.168, 36.56787
1499.206, 59.82947
1500.243, 87.06982
1501.280, 76.29749
1502.317, 42.52698
1503.354, 55.76392
1504.390, 9.010498
1505.426, 6.387817
1506.463, 74.37073
1507.499, 27.55396
1508.535, 27.78796
1509.570, 73.13757
1510.606, 44.71399
1511.641, 48.37012
1512.676, 84.03125
1513.711, 73.70203
1514.746, 64.38049
1515.781, 52.06982
1516.816, 84.79138
1517.850, 59.54358
1518.884, 56.30505
1519.918, 97.09033
1520.952, 23.89062
1521.986, 64.27673
1523.019, 25.29932
1524.053, 82.43799
1525.086, 107.9700
1526.119, 111.3140
1527.152, 103.3835
1528.185, 82.97974
1529.217, 72.13916
1530.250, 118.0873
1531.282, 121.7058
1532.314, 65.91541
1533.346, 114.7753
1534.377, 47.98108
1535.409, 74.08215
1536.440, 78.11133
1537.472, 119.4491
1538.503, 73.62061
1539.534, 79.38110
1540.564, 137.5250
1541.595, 93.21289
1542.625, 101.6384
1543.656, 50.60547
1544.686, 102.9263
1545.716, 62.12708
1546.745, 59.39001
1547.775, 81.04797
1548.804, 50.09229
1549.834, 48.66931
1550.863, 116.7295
1551.892, 84.64795
1552.920, 109.7191
1553.949, 216.5499
1554.977, 248.7776
1556.006, 254.8374
1557.034, 106.2853
1558.062, 50.94690
1559.089, 51.06348
1560.117, 19.17090
1561.144, 3.564331
1562.172, 59.56409
1563.199, 6.013306
1564.226, 80.22864
1565.252, 101.8545
1566.279, 129.0718
1567.305, 75.73462
1568.332, 94.99878
1569.358, 26.54248
1570.384, 34.13867
1571.409, 0.0000000E+00
##END=



