##NAMES=Azurite
##RRUFFID=R050497
##IDEAL CHEMISTRY=Cu^2+^_3_(CO_3_)_2_(OH)_2_
##LOCALITY=Tsumeb mine, Tsumeb, Otavi District, Oshikoto, Namibia
##OWNER=RRUFF
##SOURCE=Marcus Origlieri
##DESCRIPTION=Blue prismatic single crystal
##STATUS=The identification of this mineral has been confirmed by X-ray diffraction and chemical analysis
##URL=rruff.info/R050497
##MEASURED CHEMISTRY=Cu_3.00_(CO_3_)_2_(OH)_2_
##PIN_ID=L01361
##ORIENTATION=Laser parallel to b* (0 1 0). Fiducial mark perpendicular to laser is parallel to c [0 0 1]
52.67100, 0.0000000E+00
53.91000, 19.75354
55.14900, 27.66418
56.38700, 29.10291
57.62600, 47.17389
58.86400, 115.8533
60.10300, 112.5779
61.34100, 76.84363
62.57900, 53.46283
63.81700, 16.64532
65.05400, 0.5596310
66.29200, 2.373047
67.52900, 13.18024
68.76700, 46.93201
70.00400, 146.8885
71.24100, 204.4264
72.47700, 312.0975
73.71400, 417.2192
74.95100, 516.0337
76.18700, 552.6033
77.42300, 757.4750
78.65900, 613.9928
79.89500, 564.9844
81.13100, 615.4158
82.36700, 693.6025
83.60200, 685.2223
84.83700, 692.7024
86.07200, 784.0291
87.30800, 653.3186
88.54200, 782.9314
89.77700, 795.8536
91.01200, 933.0651
92.24600, 988.6929
93.48000, 985.6240
94.71400, 1069.602
95.94800, 1022.380
97.18200, 934.3765
98.41600, 1064.516
99.64900, 977.5023
100.8830, 1183.220
102.1160, 1016.782
103.3490, 1131.480
104.5820, 1331.316
105.8150, 1565.287
107.0470, 1798.394
108.2800, 1856.635
109.5120, 2193.010
110.7440, 2256.518
111.9760, 1536.158
113.2080, 1198.930
114.4400, 1250.832
115.6710, 1357.869
116.9030, 1551.104
118.1340, 1370.525
119.3650, 1507.076
120.5960, 1868.748
121.8270, 2697.541
123.0580, 4342.456
124.2880, 5939.491
125.5190, 6184.648
126.7490, 4569.906
127.9790, 3265.197
129.2090, 2876.512
130.4390, 2630.849
131.6680, 2542.781
132.8980, 2709.631
134.1270, 3153.736
135.3560, 3908.323
136.5850, 4364.104
137.8140, 4136.576
139.0430, 3223.402
140.2710, 2539.006
141.5000, 2015.413
142.7280, 1502.896
143.9560, 1297.455
145.1840, 1191.093
146.4120, 1187.809
147.6390, 1211.606
148.8670, 1082.483
150.0940, 871.4414
151.3210, 783.4816
152.5490, 783.6036
153.7750, 814.8083
155.0020, 641.0956
156.2290, 710.4656
157.4550, 830.9182
158.6810, 922.4541
159.9080, 1362.073
161.1340, 1985.774
162.3590, 2934.558
163.5850, 3839.424
164.8110, 4145.374
166.0360, 3524.404
167.2610, 2766.517
168.4860, 2179.713
169.7110, 1779.987
170.9360, 1593.342
172.1610, 1393.776
173.3850, 1213.290
174.6100, 1049.884
175.8340, 890.5588
177.0580, 797.3147
178.2820, 682.4307
179.5050, 655.3743
180.7290, 507.1866
181.9520, 625.7881
183.1760, 651.5848
184.3990, 779.7712
185.6220, 957.0400
186.8450, 994.3911
188.0670, 1019.824
189.2900, 985.3394
190.5120, 876.9358
191.7340, 818.6133
192.9560, 785.3711
194.1780, 732.2092
195.4000, 708.1272
196.6220, 698.1246
197.8430, 698.2012
199.0640, 697.3567
200.2860, 684.4363
201.5070, 757.4316
202.7270, 851.3220
203.9480, 824.9921
205.1690, 635.8005
206.3890, 271.4125
207.6090, 166.0421
208.8290, 18.20361
210.0490, 61.67004
211.2690, 6.515381
212.4890, 17.07056
213.7080, 22.24561
214.9280, 31.62524
216.1470, 55.27966
217.3660, 32.50928
218.5850, 78.79663
219.8030, 74.99121
221.0220, 43.09106
222.2400, 103.0969
223.4590, 59.02368
224.6770, 38.86646
225.8950, 10.62231
227.1120, 56.70557
228.3300, 99.11694
229.5480, 179.6091
230.7650, 261.1807
231.9820, 189.8298
233.1990, 233.5552
234.4160, 310.3552
235.6330, 367.2288
236.8490, 588.1743
238.0660, 926.1909
239.2820, 1377.277
240.4980, 1980.432
241.7140, 2189.654
242.9300, 1908.939
244.1460, 1468.289
245.3610, 1084.701
246.5770, 908.1755
247.7920, 736.7124
249.0070, 662.3108
250.2220, 692.9700
251.4370, 795.6899
252.6510, 1003.470
253.8660, 1246.310
255.0800, 1707.209
256.2940, 2124.167
257.5080, 2795.183
258.7220, 2826.197
259.9360, 2913.388
261.1490, 2757.576
262.3630, 2286.821
263.5760, 1797.121
264.7890, 1638.477
266.0020, 1624.887
267.2150, 1809.351
268.4270, 2141.868
269.6400, 2543.439
270.8520, 3052.064
272.0640, 3736.741
273.2760, 4321.471
274.4880, 4676.252
275.7000, 4618.091
276.9120, 4389.982
278.1230, 3997.924
279.3340, 3413.920
280.5450, 2808.960
281.7560, 2452.041
282.9670, 1967.146
284.1780, 1687.278
285.3880, 1440.446
286.5980, 1167.666
287.8090, 987.9382
289.0190, 713.2644
290.2290, 555.6431
291.4380, 384.0771
292.6480, 308.5745
293.8570, 227.1370
295.0670, 178.7671
296.2760, 148.4666
297.4850, 75.22925
298.6930, 104.0608
299.9020, 12.95264
301.1110, 15.09790
302.3190, 64.90186
303.5270, 32.02173
304.7350, 53.88721
305.9430, 36.70190
307.1510, 43.45654
308.3580, 32.16455
309.5660, 38.81396
310.7730, 32.41113
311.9800, 57.04346
313.1870, 28.54956
314.3940, 68.11475
315.6010, 70.72705
316.8070, 97.38843
318.0130, 106.0967
319.2200, 233.8633
320.4260, 259.6912
321.6310, 318.5747
322.8370, 331.5110
324.0430, 459.4910
325.2480, 521.5078
326.4540, 513.5618
327.6590, 502.6567
328.8640, 525.7952
330.0680, 444.9836
331.2730, 492.2217
332.4780, 572.5066
333.6820, 483.8352
334.8860, 540.2075
336.0900, 585.6250
337.2940, 594.0852
338.4980, 647.8750
339.7010, 651.1423
340.9050, 720.7354
342.1080, 769.3748
343.3110, 802.0566
344.5140, 821.7837
345.7170, 918.5623
346.9200, 1075.393
348.1220, 1092.309
349.3240, 1297.247
350.5270, 1384.238
351.7290, 1446.287
352.9310, 1685.390
354.1320, 1954.246
355.3340, 2146.468
356.5350, 2425.217
357.7370, 2644.301
358.9380, 3038.306
360.1390, 3357.161
361.3400, 3754.097
362.5400, 4116.302
363.7410, 4657.190
364.9410, 5145.299
366.1410, 5900.889
367.3410, 6791.943
368.5410, 7413.582
369.7410, 8429.558
370.9400, 9321.299
372.1400, 10488.38
373.3390, 11583.38
374.5380, 12761.42
375.7370, 13471.51
376.9360, 14587.65
378.1350, 15170.84
379.3330, 15564.07
380.5310, 15985.36
381.7300, 16309.69
382.9280, 16842.07
384.1260, 17361.50
385.3230, 18646.97
386.5210, 20237.49
387.7180, 22968.05
388.9160, 26834.65
390.1130, 31790.31
391.3100, 37876.99
392.5060, 43287.73
393.7030, 47472.51
394.9000, 48282.33
396.0960, 46512.17
397.2920, 42510.07
398.4880, 37804.01
399.6840, 33199.98
400.8800, 29375.00
402.0750, 26055.05
403.2710, 22923.14
404.4660, 20348.27
405.6610, 17903.43
406.8560, 15725.64
408.0510, 13420.87
409.2450, 11513.14
410.4400, 9863.453
411.6340, 8376.804
412.8280, 7542.190
414.0220, 6508.611
415.2160, 5820.230
416.4100, 5128.720
417.6030, 4544.265
418.7970, 4114.654
419.9900, 3757.320
421.1830, 3389.340
422.3760, 3051.627
423.5690, 2766.314
424.7610, 2539.202
425.9540, 2371.953
427.1460, 2122.738
428.3380, 1958.552
429.5300, 1835.397
430.7220, 1582.273
431.9140, 1458.180
433.1050, 1332.116
434.2970, 1154.658
435.4880, 1005.012
436.6790, 1004.021
437.8700, 804.6155
439.0610, 752.7783
440.2510, 720.5933
441.4420, 652.7703
442.6320, 552.0300
443.8220, 491.7205
445.0120, 422.0515
446.2020, 436.3445
447.3910, 405.6604
448.5810, 383.2053
449.7700, 410.0854
450.9600, 357.9592
452.1490, 360.6243
453.3370, 290.9805
454.5260, 312.2354
455.7150, 280.4397
456.9030, 213.5237
458.0910, 279.0000
459.2800, 238.9363
460.4670, 243.4553
461.6550, 163.7542
462.8430, 152.8403
464.0300, 196.6643
465.2180, 196.7546
466.4050, 180.4312
467.5920, 163.4326
468.7790, 172.2935
469.9650, 121.9182
471.1520, 161.0518
472.3380, 166.2012
473.5250, 146.2263
474.7110, 113.6694
475.8970, 49.57373
477.0820, 100.5559
478.2680, 149.8184
479.4540, 80.82056
480.6390, 46.40454
481.8240, 65.22021
483.0090, 93.07837
484.1940, 84.27344
485.3780, 54.48267
486.5630, 40.51025
487.7470, 77.60034
488.9320, 106.6721
490.1160, 0.7900390
491.3000, 70.39697
492.4830, 37.69434
493.6670, 23.62378
494.8500, 25.02612
496.0340, 20.23755
497.2170, 6.921631
498.4000, 12.73315
499.5820, 1.769287
500.7650, 8.830811
501.9480, 3.631348
503.1300, 17.06689
504.3120, 5.997314
505.4940, 3.297607
506.6760, 31.72900
507.8580, 19.23926
509.0390, 25.36670
510.2210, 1.601318
511.4020, 21.82837
512.5830, 28.92261
513.7640, 0.8056640
514.9450, 113.5564
516.1250, 72.48901
517.3060, 80.20825
518.4860, 134.1504
519.6660, 120.1885
520.8460, 150.7832
522.0260, 182.7102
523.2060, 216.3945
524.3850, 325.3511
525.5650, 353.2986
526.7440, 393.7852
527.9230, 509.4048
529.1020, 558.4053
530.2810, 668.9480
531.4590, 742.6389
532.6380, 922.5574
533.8160, 955.4634
534.9940, 1020.253
536.1720, 923.8042
537.3500, 908.9900
538.5270, 767.5295
539.7050, 722.9792
540.8820, 596.8484
542.0590, 551.0288
543.2360, 387.8992
544.4130, 376.1443
545.5900, 297.3179
546.7660, 173.6509
547.9430, 228.8186
549.1190, 193.0979
550.2950, 98.42969
551.4710, 87.71289
552.6470, 105.8057
553.8220, 55.40234
554.9980, 57.72534
556.1730, 7.912598
557.3480, 62.04443
558.5230, 16.17065
559.6980, 6.708984
560.8730, 13.89307
562.0470, 3.120850
563.2220, 1.416138
564.3960, 43.65881
565.5700, 11.27307
566.7440, 27.77686
567.9170, 22.81958
569.0910, 35.85449
570.2640, 26.88159
571.4380, 30.90088
572.6110, 38.91199
573.7840, 32.91455
574.9570, 3.908813
576.1290, 28.11194
577.3020, 38.16321
578.4740, 47.01111
579.6460, 55.62573
580.8180, 31.55054
581.9900, 53.75745
583.1620, 20.00964
584.3330, 9.291138
585.5040, 15.40283
586.6760, 85.91614
587.8470, 27.29846
589.0180, 5.712402
590.1880, 37.14526
591.3590, 15.38538
592.5290, 29.09607
593.7000, 9.611450
594.8700, 4.151001
596.0400, 9.287109
597.2090, 23.29468
598.3790, 48.08789
599.5490, 20.45801
600.7180, 51.81091
601.8870, 23.84790
603.0560, 36.54407
604.2250, 14.28113
605.3940, 1.051025
606.5620, 42.15173
607.7300, 28.34021
608.8990, 35.51135
610.0670, 11.66614
611.2350, 27.79822
612.4020, 1.911987
613.5700, 4.998169
614.7370, 21.05811
615.9050, 44.09705
617.0720, 41.83777
618.2390, 31.12537
619.4060, 44.11194
620.5720, 22.08118
621.7390, 16.02856
622.9050, 62.95178
624.0710, 7.859497
625.2370, 41.73987
626.4030, 13.60168
627.5690, 51.43774
628.7340, 54.25623
629.9000, 53.05713
631.0650, 30.80652
632.2300, 45.56763
633.3950, 21.30933
634.5600, 43.02612
635.7240, 4.277222
636.8890, 22.38306
638.0530, 73.01794
639.2170, 42.16772
640.3810, 75.73950
641.5450, 44.31909
642.7080, 40.87781
643.8720, 96.76538
645.0350, 37.01575
646.1980, 44.32825
647.3610, 14.55896
648.5240, 38.24048
649.6870, 26.66455
650.8490, 6.913086
652.0120, 37.39026
653.1740, 68.73328
654.3360, 61.91748
655.4980, 4.222168
656.6600, 9.493408
657.8210, 33.73315
658.9830, 30.94800
660.1440, 50.13721
661.3050, 10.69531
662.4660, 47.43005
663.6270, 36.53284
664.7870, 6.610718
665.9480, 60.65491
667.1080, 15.67847
668.2680, 36.93726
669.4280, 58.63867
670.5880, 51.58472
671.7480, 41.50806
672.9070, 42.40674
674.0670, 48.28064
675.2260, 61.13110
676.3850, 126.9600
677.5440, 62.77075
678.7030, 68.56006
679.8610, 46.32861
681.0200, 123.0728
682.1780, 46.79895
683.3360, 91.50061
684.4940, 126.1835
685.6520, 80.84839
686.8090, 112.4935
687.9670, 87.12048
689.1240, 80.72827
690.2810, 86.31641
691.4380, 37.88513
692.5950, 62.42737
693.7520, 80.94775
694.9080, 100.4480
696.0650, 148.7662
697.2210, 142.2301
698.3770, 154.8406
699.5330, 150.2494
700.6880, 127.5845
701.8440, 131.7067
702.9990, 140.3212
704.1550, 119.6776
705.3100, 123.8481
706.4650, 124.1694
707.6190, 142.4702
708.7740, 142.7565
709.9290, 162.2922
711.0830, 181.2766
712.2370, 206.5104
713.3910, 235.7269
714.5450, 271.3514
715.6980, 303.1760
716.8520, 327.5830
718.0050, 356.9818
719.1580, 377.0415
720.3110, 445.4613
721.4640, 476.5302
722.6170, 474.5287
723.7700, 563.1074
724.9220, 603.8169
726.0740, 755.8137
727.2260, 786.1997
728.3780, 1006.809
729.5300, 1105.534
730.6810, 1332.072
731.8330, 1499.188
732.9840, 1501.404
734.1350, 1654.900
735.2860, 1677.068
736.4370, 1670.367
737.5880, 1589.281
738.7380, 1533.744
739.8880, 1532.827
741.0390, 1504.946
742.1890, 1585.958
743.3380, 1518.626
744.4880, 1570.976
745.6380, 1648.751
746.7870, 1804.213
747.9360, 2006.822
749.0850, 2191.674
750.2340, 2457.023
751.3830, 2814.362
752.5310, 3041.833
753.6800, 3537.893
754.8280, 3938.499
755.9760, 4320.036
757.1240, 4560.297
758.2720, 4775.825
759.4190, 4863.776
760.5670, 4724.500
761.7140, 4567.186
762.8610, 4090.538
764.0080, 3705.892
765.1550, 3313.420
766.3020, 2892.890
767.4480, 2547.379
768.5950, 2245.807
769.7410, 1995.788
770.8870, 1737.061
772.0330, 1537.704
773.1780, 1350.877
774.3240, 1188.243
775.4690, 1026.849
776.6140, 952.3765
777.7590, 728.4551
778.9040, 700.9771
780.0490, 547.0597
781.1940, 558.0504
782.3380, 569.5732
783.4820, 441.4675
784.6260, 442.5005
785.7700, 403.6921
786.9140, 325.6119
788.0580, 319.1947
789.2010, 283.0408
790.3450, 263.9072
791.4880, 303.2528
792.6310, 196.5059
793.7730, 167.1868
794.9160, 208.0791
796.0590, 228.7467
797.2010, 227.3160
798.3430, 198.3267
799.4850, 139.0026
800.6270, 192.9182
801.7690, 238.5591
802.9100, 177.2058
804.0520, 206.3107
805.1930, 187.2786
806.3340, 164.8628
807.4750, 232.9005
808.6160, 312.7866
809.7560, 375.4409
810.8970, 462.1038
812.0370, 571.8784
813.1770, 589.8872
814.3170, 611.2571
815.4570, 612.2683
816.5960, 596.3643
817.7360, 552.0361
818.8750, 586.9121
820.0140, 598.0513
821.1530, 653.3311
822.2920, 666.6765
823.4310, 734.8571
824.5690, 797.1968
825.7070, 881.4192
826.8460, 1014.583
827.9840, 1180.789
829.1220, 1282.179
830.2590, 1572.067
831.3970, 1767.213
832.5340, 2020.489
833.6710, 2178.812
834.8080, 2306.134
835.9450, 2367.454
837.0820, 2357.777
838.2190, 2210.100
839.3550, 2093.423
840.4910, 1891.748
841.6270, 1505.072
842.7630, 1404.401
843.8990, 1239.730
845.0350, 992.0576
846.1700, 856.3850
847.3060, 719.7117
848.4410, 587.0382
849.5760, 447.3644
850.7100, 412.6907
851.8450, 367.0197
852.9800, 260.2249
854.1140, 292.5779
855.2480, 201.9468
856.3820, 152.4872
857.5160, 159.8867
858.6500, 122.5618
859.7830, 151.9894
860.9170, 69.42468
862.0500, 132.8625
863.1830, 109.3274
864.3160, 79.31592
865.4480, 39.80115
866.5810, 18.30188
867.7130, 31.50256
868.8460, 22.02063
869.9780, 6.807739
871.1100, 61.34314
872.2410, 72.42358
873.3730, 62.97754
874.5050, 13.53296
875.6360, 15.30884
876.7670, 12.25012
877.8980, 32.17700
879.0290, 6.472046
880.1590, 91.46875
881.2900, 25.07043
882.4200, 44.76538
883.5500, 51.38220
884.6800, 7.062378
885.8100, 49.68896
886.9400, 46.32007
888.0690, 37.59778
889.1990, 31.24573
890.3280, 27.19592
891.4570, 22.69458
892.5860, 37.81934
893.7140, 26.48450
894.8430, 75.15320
895.9710, 102.8281
897.1000, 20.50989
898.2280, 66.19446
899.3560, 1.112183
900.4830, 37.58521
901.6110, 54.29053
902.7380, 54.00208
903.8660, 69.34058
904.9930, 74.78613
906.1200, 77.16504
907.2460, 86.89868
908.3730, 101.6399
909.5000, 107.4003
910.6260, 102.9601
911.7520, 114.9528
912.8780, 80.72388
914.0040, 85.50073
915.1290, 64.28125
916.2550, 99.06738
917.3800, 65.86365
918.5050, 79.66370
919.6300, 122.4707
920.7550, 117.2839
921.8800, 149.1068
923.0040, 198.9362
924.1290, 210.7734
925.2530, 209.6219
926.3770, 217.4772
927.5010, 240.3370
928.6250, 243.2025
929.7480, 265.5479
930.8720, 305.2292
931.9950, 301.8668
933.1180, 394.7753
934.2410, 411.6902
935.3640, 453.6213
936.4860, 319.5592
937.6090, 370.5050
938.7310, 336.4628
939.8530, 239.4268
940.9750, 301.4014
942.0970, 231.3848
943.2180, 196.3845
944.3400, 193.3911
945.4610, 144.4054
946.5820, 172.4298
947.7030, 109.4618
948.8240, 143.5004
949.9450, 82.54346
951.0650, 116.5927
952.1860, 67.64929
953.3060, 102.7201
954.4260, 79.79565
955.5460, 66.87891
956.6650, 99.96729
957.7850, 42.06067
958.9040, 95.16736
960.0230, 45.29114
961.1420, 46.42261
962.2610, 66.55957
963.3800, 36.70190
964.4990, 0.1468510
965.6170, 21.01306
966.7350, 57.17859
967.8530, 22.34985
968.9710, 11.52576
970.0890, 90.70667
971.2070, 23.89209
972.3240, 86.08228
973.4410, 97.28125
974.5580, 77.48657
975.6750, 14.69946
976.7920, 16.91736
977.9090, 7.140137
979.0250, 72.36780
980.1410, 94.60059
981.2580, 84.83826
982.3740, 32.08044
983.4890, 52.32764
984.6050, 34.57971
985.7200, 69.83618
986.8360, 44.90234
987.9510, 89.34705
989.0660, 72.60095
990.1810, 7.136597
991.2950, 52.12854
992.4100, 10.60120
993.5240, 22.67065
994.6390, 14.94666
995.7530, 33.22681
996.8660, 44.51111
997.9800, 17.19604
999.0940, 33.09570
1000.207, 16.39209
1001.320, 21.30798
1002.433, 25.98926
1003.546, 9.709839
1004.659, 29.59192
1005.772, 17.10278
1006.884, 65.20081
1007.996, 23.50793
1009.108, 18.18176
1010.220, 28.93298
1011.332, 32.24463
1012.444, 15.11511
1013.555, 35.24854
1014.666, 26.43481
1015.777, 28.12341
1016.888, 21.59692
1017.999, 2.092773
1019.110, 47.21692
1020.220, 7.529541
1021.331, 18.15515
1022.441, 23.15735
1023.551, 9.527588
1024.661, 21.18750
1025.770, 14.87659
1026.880, 9.432251
1027.989, 48.74365
1029.098, 7.057495
1030.207, 7.374023
1031.316, 19.69299
1032.425, 73.01465
1033.533, 26.32739
1034.642, 58.65430
1035.750, 37.47009
1036.858, 29.80164
1037.966, 49.41248
1039.073, 67.74841
1040.181, 68.53174
1041.288, 74.87183
1042.396, 47.22156
1043.503, 62.57410
1044.610, 7.1654998E-02
1045.716, 61.28455
1046.823, 86.64282
1047.929, 104.0027
1049.036, 71.36450
1050.142, 19.63000
1051.248, 96.99768
1052.353, 54.47876
1053.459, 115.8884
1054.564, 109.2615
1055.670, 107.6361
1056.775, 138.0122
1057.880, 128.3901
1058.985, 133.8453
1060.089, 130.1500
1061.194, 142.6401
1062.298, 136.0236
1063.402, 166.4083
1064.506, 129.3545
1065.610, 200.1058
1066.713, 123.5576
1067.817, 186.9463
1068.920, 283.3884
1070.023, 280.7786
1071.126, 294.2107
1072.229, 280.6482
1073.332, 264.0402
1074.435, 342.6547
1075.537, 344.3662
1076.639, 371.7828
1077.741, 422.1768
1078.843, 481.1143
1079.945, 540.5984
1081.046, 539.0725
1082.148, 733.4670
1083.249, 869.8738
1084.350, 1027.577
1085.451, 1347.515
1086.551, 1654.916
1087.652, 2168.338
1088.752, 2820.817
1089.853, 3775.286
1090.953, 4798.520
1092.053, 5625.817
1093.152, 5796.789
1094.252, 5403.188
1095.351, 4726.610
1096.451, 3746.007
1097.550, 2894.854
1098.649, 2339.248
1099.748, 1828.787
1100.846, 1353.179
1101.945, 1123.659
1103.043, 866.0492
1104.141, 754.4390
1105.239, 620.7280
1106.337, 557.4658
1107.434, 514.5139
1108.532, 372.9456
1109.629, 338.4142
1110.726, 304.8696
1111.823, 210.3651
1112.920, 215.7942
1114.017, 222.1694
1115.113, 232.6481
1116.210, 199.0625
1117.306, 183.4320
1118.402, 183.8574
1119.498, 140.3575
1120.593, 118.7209
1121.689, 125.0293
1122.784, 142.2605
1123.879, 125.7971
1124.974, 155.8943
1126.069, 131.3013
1127.164, 129.6405
1128.259, 84.03430
1129.353, 100.4655
1130.447, 84.29785
1131.541, 48.80042
1132.635, 52.13867
1133.729, 58.77795
1134.822, 76.11121
1135.916, 42.18213
1137.009, 31.51025
1138.102, 33.79907
1139.195, 53.61890
1140.288, 41.93921
1141.380, 32.66504
1142.473, 58.01929
1143.565, 20.33252
1144.657, 11.81604
1145.749, 68.48547
1146.841, 24.90723
1147.932, 1.880615
1149.024, 13.41113
1150.115, 58.65845
1151.206, 65.94226
1152.297, 88.22327
1153.388, 54.88098
1154.479, 70.04541
1155.569, 9.199097
1156.659, 64.74133
1157.750, 28.49377
1158.839, 18.75769
1159.929, 61.01868
1161.019, 25.27686
1162.108, 22.53210
1163.198, 50.84668
1164.287, 18.17395
1165.376, 22.42053
1166.465, 3.302002
1167.553, 61.93396
1168.642, 0.1667480
1169.730, 58.39355
1170.818, 2.382568
1171.906, 44.86572
1172.994, 73.79358
1174.082, 63.19287
1175.170, 61.39954
1176.257, 41.71289
1177.344, 53.91284
1178.431, 97.12769
1179.518, 39.32068
1180.605, 8.463135
1181.691, 82.25989
1182.778, 5.434570
1183.864, 14.60449
1184.950, 59.95935
1186.036, 35.12195
1187.122, 40.35010
1188.207, 59.62292
1189.292, 46.77698
1190.378, 45.97156
1191.463, 6.177124
1192.548, 31.36365
1193.632, 38.59448
1194.717, 2.268066
1195.801, 0.8928220
1196.886, 12.00891
1197.970, 78.15039
1199.054, 15.25818
1200.137, 65.36194
1201.221, 18.46179
1202.305, 17.55725
1203.388, 34.74048
1204.471, 3.909668
1205.554, 29.95386
1206.637, 24.10339
1207.719, 49.20508
1208.802, 1.615356
1209.884, 9.424683
1210.966, 11.45996
1212.048, 72.57080
1213.130, 31.35938
1214.212, 3.381592
1215.293, 16.60315
1216.374, 41.48181
1217.456, 28.47534
1218.536, 14.54028
1219.617, 17.57812
1220.698, 21.34021
1221.778, 38.29993
1222.859, 1.276367
1223.939, 80.65308
1225.019, 28.56982
1226.099, 39.48230
1227.178, 0.4400630
1228.258, 41.34229
1229.337, 7.309814
1230.417, 59.30103
1231.496, 14.41162
1232.574, 77.30151
1233.653, 75.34436
1234.732, 6.711670
1235.810, 2.158325
1236.888, 2.978394
1237.966, 24.97925
1239.044, 15.82935
1240.122, 18.76062
1241.199, 10.60474
1242.277, 24.44421
1243.354, 37.27942
1244.431, 12.11047
1245.508, 26.93665
1246.585, 42.76526
1247.661, 23.58289
1248.738, 61.39587
1249.814, 45.21301
1250.890, 7.973999
1251.966, 31.82629
1253.042, 5.623047
1254.117, 42.41382
1255.193, 25.20154
1256.268, 29.98474
1257.343, 44.76355
1258.418, 10.46191
1259.493, 39.29907
1260.567, 6.058228
1261.642, 41.81177
1262.716, 42.56116
1263.790, 56.30957
1264.864, 56.05383
1265.938, 55.36548
1267.011, 56.07092
1268.085, 46.26904
1269.158, 47.00085
1270.231, 37.72876
1271.304, 30.45532
1272.377, 40.17749
1273.450, 42.89575
1274.522, 56.50452
1275.594, 11.21716
1276.666, 53.92932
1277.738, 38.22668
1278.810, 33.93298
1279.882, 57.63843
1280.953, 68.33997
1282.025, 35.03748
1283.096, 64.73376
1284.167, 23.42615
1285.238, 24.09058
1286.308, 65.77893
1287.379, 41.46582
1288.449, 95.14880
1289.519, 59.82812
1290.589, 41.50366
1291.659, 25.17542
1292.729, 21.52478
1293.798, 82.50537
1294.868, 32.16443
1295.937, 75.33301
1297.006, 86.98438
1298.075, 40.35474
1299.143, 43.99878
1300.212, 32.19385
1301.280, 23.16980
1302.348, 1.824341
1303.416, 69.06104
1304.484, 6.670166
1305.552, 55.27490
1306.620, 35.87610
1307.687, 102.4736
1308.754, 34.06934
1309.821, 5.232056
1310.888, 90.36133
1311.955, 87.84033
1313.021, 1.389771
1314.088, 105.9745
1315.154, 23.55701
1316.220, 12.13757
1317.286, 39.71350
1318.352, 29.28662
1319.417, 25.85474
1320.483, 29.30847
1321.548, 17.86255
1322.613, 39.40735
1323.678, 31.29883
1324.743, 59.56238
1325.807, 33.03320
1326.872, 62.56494
1327.936, 70.04004
1329.000, 50.56458
1330.064, 65.04370
1331.128, 18.51514
1332.191, 21.02112
1333.255, 27.30188
1334.318, 53.48267
1335.381, 26.95508
1336.444, 7.447021
1337.507, 61.39221
1338.569, 50.78821
1339.632, 19.19128
1340.694, 27.32922
1341.756, 58.13403
1342.818, 49.29651
1343.880, 16.22278
1344.941, 38.68152
1346.003, 19.11731
1347.064, 24.49121
1348.125, 12.87427
1349.186, 16.48865
1350.247, 11.03650
1351.308, 30.90674
1352.368, 34.34790
1353.428, 35.11694
1354.489, 21.22021
1355.549, 32.26233
1356.608, 15.73218
1357.668, 9.435669
1358.727, 4.134888
1359.787, 41.82336
1360.846, 0.6966550
1361.905, 19.72607
1362.964, 55.40027
1364.022, 47.67957
1365.081, 8.683960
1366.139, 43.21338
1367.197, 14.31238
1368.255, 58.74780
1369.313, 85.20654
1370.371, 78.65686
1371.428, 54.09863
1372.486, 72.44739
1373.543, 32.84705
1374.600, 58.29626
1375.657, 80.67786
1376.713, 69.08521
1377.770, 104.4872
1378.826, 151.9412
1379.882, 314.3159
1380.938, 248.6173
1381.994, 260.6206
1383.050, 194.2764
1384.106, 168.6382
1385.161, 169.0336
1386.216, 158.3431
1387.271, 215.7374
1388.326, 150.9696
1389.381, 158.3633
1390.435, 221.7565
1391.490, 150.1498
1392.544, 207.5428
1393.598, 196.9362
1394.652, 217.3395
1395.705, 237.7661
1396.759, 252.9941
1397.812, 264.5042
1398.866, 302.8611
1399.919, 319.2563
1400.972, 343.6527
1402.024, 404.0542
1403.077, 442.3397
1404.129, 531.7366
1405.181, 528.1132
1406.233, 595.4697
1407.285, 607.8420
1408.337, 676.2014
1409.389, 726.5403
1410.440, 793.8945
1411.491, 890.1814
1412.542, 1094.469
1413.593, 1204.822
1414.644, 1423.174
1415.695, 1699.598
1416.745, 1903.992
1417.795, 2289.345
1418.845, 2454.635
1419.895, 2894.910
1420.945, 3422.264
1421.995, 4265.639
1423.044, 5448.993
1424.093, 7342.388
1425.142, 9600.744
1426.191, 12648.10
1427.240, 15231.43
1428.289, 16501.07
1429.337, 15508.25
1430.385, 13135.62
1431.433, 10517.83
1432.481, 8025.204
1433.529, 6122.558
1434.577, 4670.354
1435.624, 3556.670
1436.672, 2779.783
1437.719, 2174.362
1438.766, 1746.935
1439.812, 1382.403
1440.859, 1227.048
1441.905, 1003.815
1442.952, 836.9379
1443.998, 800.4460
1445.044, 672.3904
1446.090, 590.0776
1447.135, 640.4275
1448.181, 587.3896
1449.226, 562.7310
1450.271, 668.0883
1451.316, 767.4736
1452.361, 895.8568
1453.405, 1249.057
1454.450, 1727.389
1455.494, 2432.598
1456.538, 2973.000
1457.582, 3030.409
1458.626, 2480.791
1459.670, 1849.093
1460.713, 1365.346
1461.757, 972.5447
1462.800, 702.8713
1463.843, 513.3145
1464.886, 375.7002
1465.928, 249.9468
1466.971, 169.9124
1468.013, 167.2825
1469.055, 89.71265
1470.097, 92.02222
1471.139, 102.3474
1472.181, 51.77197
1473.222, 89.19678
1474.263, 118.6130
1475.305, 59.03857
1476.346, 63.46973
1477.386, 65.90820
1478.427, 66.34912
1479.468, 42.79175
1480.508, 32.24780
1481.548, 39.70728
1482.588, 7.831543
1483.628, 83.63086
1484.668, 27.90576
1485.707, 36.55957
1486.747, 61.02661
1487.786, 13.49536
1488.825, 2.967285
1489.864, 0.5590820
1490.902, 12.91675
1491.941, 13.60400
1492.979, 28.87939
1494.017, 13.36597
1495.055, 30.85474
1496.093, 45.34717
1497.131, 42.59717
1498.168, 45.34448
1499.206, 43.84790
1500.243, 46.35498
1501.280, 54.19702
1502.317, 63.08521
1503.354, 66.98901
1504.390, 73.35010
1505.426, 80.04907
1506.463, 79.57349
1507.499, 90.09302
1508.535, 87.61572
1509.570, 85.05957
1510.606, 93.95996
1511.641, 80.32520
1512.676, 102.9275
1513.711, 115.5408
1514.746, 114.1653
1515.781, 132.8352
1516.816, 119.5176
1517.850, 137.2163
1518.884, 113.9255
1519.918, 155.6521
1520.952, 166.3979
1521.986, 188.1592
1523.019, 255.9351
1524.053, 131.7246
1525.086, 208.5286
1526.119, 172.2913
1527.152, 199.8416
1528.185, 198.5083
1529.217, 144.5156
1530.250, 167.7874
1531.282, 172.1208
1532.314, 123.9287
1533.346, 142.7302
1534.377, 183.9360
1535.409, 90.26636
1536.440, 152.5940
1537.472, 95.17505
1538.503, 97.77222
1539.534, 54.37012
1540.564, 61.96973
1541.595, 93.56934
1542.625, 123.1655
1543.656, 86.75610
1544.686, 81.33667
1545.716, 62.90259
1546.745, 94.44946
1547.775, 68.97168
1548.804, 94.46313
1549.834, 107.9253
1550.863, 96.53223
1551.892, 157.3027
1552.920, 186.2981
1553.949, 208.3809
1554.977, 269.5356
1556.006, 204.2012
1557.034, 135.0959
1558.062, 18.39453
1559.089, 15.74585
1560.117, 37.33276
1561.144, 51.92749
1562.172, 57.69531
1563.199, 46.60938
1564.226, 51.70679
1565.252, 31.35010
1566.279, 63.15356
1567.305, 7.911621
1568.332, 54.22852
1569.358, 41.32227
1570.384, 28.63965
1571.409, 0.0000000E+00
##END=



