##NAMES=Azurite
##RRUFFID=R050497
##IDEAL CHEMISTRY=Cu^2+^_3_(CO_3_)_2_(OH)_2_
##LOCALITY=Tsumeb mine, Tsumeb, Otavi District, Oshikoto, Namibia
##OWNER=RRUFF
##SOURCE=Marcus Origlieri
##DESCRIPTION=Blue prismatic single crystal
##STATUS=The identification of this mineral has been confirmed by X-ray diffraction and chemical analysis
##URL=rruff.info/R050497
##MEASURED CHEMISTRY=Cu_3.00_(CO_3_)_2_(OH)_2_
##PIN_ID=L01361
##ORIENTATION=Laser parallel to b* (0 1 0). Fiducial mark perpendicular to laser is parallel to c [0 0 1]
52.67100, 0.0000000E+00
53.91000, 287.9043
55.14900, 397.7681
56.38700, 275.7356
57.62600, 25.48486
58.86400, 93.13770
60.10300, 247.2788
61.34100, 404.7529
62.57900, 426.9275
63.81700, 304.4299
65.05400, 36.08911
66.29200, 90.94482
67.52900, 8.582275
68.76700, 698.2505
70.00400, 1947.861
71.24100, 4049.272
72.47700, 7798.346
73.71400, 15279.95
74.95100, 29091.95
76.18700, 48392.21
77.42300, 60707.66
78.65900, 54849.16
79.89500, 45245.65
81.13100, 38903.06
82.36700, 33721.31
83.60200, 29254.35
84.83700, 25926.12
86.07200, 22725.64
87.30800, 19150.97
88.54200, 14226.06
89.77700, 9791.858
91.01200, 6583.298
92.24600, 4757.323
93.48000, 3604.883
94.71400, 2672.904
95.94800, 2061.351
97.18200, 1695.194
98.41600, 1353.408
99.64900, 1316.972
100.8830, 1114.867
102.1160, 967.0771
103.3490, 860.5869
104.5820, 839.3848
105.8150, 964.4580
107.0470, 1109.797
108.2800, 1374.390
109.5120, 1710.230
110.7440, 1974.308
111.9760, 1196.614
113.2080, 749.1436
114.4400, 729.8892
115.6710, 917.8438
116.9030, 1257.084
118.1340, 1291.064
119.3650, 1941.983
120.5960, 3380.841
121.8270, 6201.134
123.0580, 11686.55
124.2880, 17910.03
125.5190, 20391.55
126.7490, 15263.12
127.9790, 10134.73
129.2090, 7809.293
130.4390, 6514.773
131.6680, 5854.474
132.8980, 5199.929
134.1270, 4915.134
135.3560, 4771.340
136.5850, 4090.567
137.8140, 3505.825
139.0430, 2675.121
140.2710, 2069.459
141.5000, 1305.848
142.7280, 1095.290
143.9560, 743.7900
145.1840, 716.3511
146.4120, 522.9761
147.6390, 489.6670
148.8670, 468.4258
150.0940, 305.2539
151.3210, 386.1523
152.5490, 496.1226
153.7750, 573.1655
155.0020, 718.2812
156.2290, 895.4712
157.4550, 1135.735
158.6810, 1646.073
159.9080, 2855.484
161.1340, 4406.970
162.3590, 7325.529
163.5850, 10285.16
164.8110, 11744.86
166.0360, 10013.64
167.2610, 7464.486
168.4860, 5746.404
169.7110, 4592.392
170.9360, 3898.448
172.1610, 3584.574
173.3850, 3298.770
174.6100, 2898.034
175.8340, 2686.366
177.0580, 2157.766
178.2820, 1696.231
179.5050, 1314.947
180.7290, 994.7510
181.9520, 832.3838
183.1760, 751.9932
184.3990, 756.9209
185.6220, 796.0049
186.8450, 923.3374
188.0670, 953.6084
189.2900, 876.4805
190.5120, 809.4390
191.7340, 824.2451
192.9560, 702.2959
194.1780, 614.4111
195.4000, 668.5879
196.6220, 722.8262
197.8430, 800.1270
199.0640, 837.1846
200.2860, 735.5884
201.5070, 898.7578
202.7270, 975.9399
203.9480, 952.4604
205.1690, 656.2275
206.3890, 296.8774
207.6090, 81.78809
208.8290, 126.5864
210.0490, 8.373535
211.2690, 89.89062
212.4890, 0.7578130
213.7080, 15.29150
214.9280, 142.3359
216.1470, 212.3711
217.3660, 274.5713
218.5850, 126.9307
219.8030, 250.4399
221.0220, 326.0913
222.2400, 372.8789
223.4590, 502.7969
224.6770, 571.8389
225.8950, 682.9995
227.1120, 823.2754
228.3300, 1150.661
229.5480, 1273.152
230.7650, 1639.747
231.9820, 2165.439
233.1990, 2843.228
234.4160, 3800.108
235.6330, 5680.075
236.8490, 8267.128
238.0660, 12532.26
239.2820, 19199.47
240.4980, 26806.77
241.7140, 30977.13
242.9300, 27780.56
244.1460, 20839.07
245.3610, 15612.65
246.5770, 12485.29
247.7920, 10475.00
249.0070, 9010.769
250.2220, 8347.604
251.4370, 7835.500
252.6510, 7308.459
253.8660, 6514.477
255.0800, 6016.551
256.2940, 5485.683
257.5080, 5615.871
258.7220, 5798.114
259.9360, 5669.410
261.1490, 5248.760
262.3630, 4407.161
263.5760, 3952.614
264.7890, 3898.112
266.0020, 4213.654
267.2150, 4875.236
268.4270, 5705.855
269.6400, 7193.509
270.8520, 8895.198
272.0640, 10895.92
273.2760, 12900.69
274.4880, 14424.48
275.7000, 15021.32
276.9120, 14627.18
278.1230, 13498.08
279.3340, 12030.03
280.5450, 10419.00
281.7560, 9065.013
282.9670, 7898.062
284.1780, 7131.152
285.3880, 6192.277
286.5980, 5355.440
287.8090, 4500.639
289.0190, 3623.876
290.2290, 2736.149
291.4380, 2244.458
292.6480, 1731.804
293.8570, 1274.185
295.0670, 958.6006
296.2760, 781.0522
297.4850, 611.5386
298.6930, 545.0596
299.9020, 336.6143
301.1110, 292.2075
302.3190, 113.8345
303.5270, 63.49902
304.7350, 3.196289
305.9430, 41.07422
307.1510, 83.34961
308.3580, 172.5566
309.5660, 151.7827
310.7730, 120.0020
311.9800, 134.7583
313.1870, 247.4058
314.3940, 170.6289
315.6010, 166.8569
316.8070, 240.0864
318.0130, 202.3379
319.2200, 247.6040
320.4260, 174.8857
321.6310, 137.1768
322.8370, 81.46094
324.0430, 72.72754
325.2480, 58.97949
326.4540, 34.23291
327.6590, 8.332520
328.8640, 49.12305
330.0680, 48.72217
331.2730, 91.25342
332.4780, 100.7109
333.6820, 153.1514
334.8860, 197.5942
336.0900, 182.0659
337.2940, 233.5742
338.4980, 267.1270
339.7010, 384.7407
340.9050, 270.3955
342.1080, 276.1040
343.3110, 374.8564
344.5140, 320.6406
345.7170, 537.4771
346.9200, 508.3638
348.1220, 693.2954
349.3240, 772.2842
350.5270, 805.3208
351.7290, 936.4277
352.9310, 1148.606
354.1320, 1263.828
355.3340, 1403.959
356.5350, 1644.277
357.7370, 1819.608
358.9380, 2111.070
360.1390, 2379.574
361.3400, 2734.114
362.5400, 3103.703
363.7410, 3493.346
364.9410, 4056.025
366.1410, 4761.747
367.3410, 5315.514
368.5410, 6121.317
369.7410, 6812.156
370.9400, 7781.043
372.1400, 8825.964
373.3390, 9911.919
374.5380, 11008.90
375.7370, 12078.92
376.9360, 12838.97
378.1350, 13700.05
379.3330, 14212.17
380.5310, 14824.30
381.7300, 15234.47
382.9280, 15845.67
384.1260, 16630.91
385.3230, 17837.18
386.5210, 19684.46
387.7180, 22566.79
388.9160, 26747.14
390.1130, 31576.52
391.3100, 37885.92
392.5060, 44172.33
393.7030, 49200.80
394.9000, 51067.27
396.0960, 49534.77
397.2920, 45673.30
398.4880, 40587.86
399.6840, 35871.43
400.8800, 31702.04
402.0750, 27965.67
403.2710, 25032.31
404.4660, 22108.97
405.6610, 18801.64
406.8560, 16123.34
408.0510, 13450.06
409.2450, 10956.79
410.4400, 9228.536
411.6340, 7571.299
412.8280, 6626.078
414.0220, 5732.875
415.2160, 4940.685
416.4100, 4407.510
417.6030, 3917.350
418.7970, 3492.205
419.9900, 3115.074
421.1830, 2777.154
422.3760, 2570.853
423.5690, 2255.763
424.7610, 2123.686
425.9540, 1990.622
427.1460, 1777.570
428.3380, 1577.531
429.5300, 1474.504
430.7220, 1307.831
431.9140, 1145.484
433.1050, 1082.492
434.2970, 946.5107
435.4880, 873.5396
436.6790, 756.5796
437.8700, 741.6294
439.0610, 594.6890
440.2510, 514.7588
441.4420, 582.8374
442.6320, 543.9253
443.8220, 370.7925
445.0120, 340.8979
446.2020, 388.8350
447.3910, 285.9570
448.5810, 339.0532
449.7700, 295.4136
450.9600, 329.9077
452.1490, 333.8042
453.3370, 262.4634
454.5260, 279.3232
455.7150, 264.3071
456.9030, 305.5752
458.0910, 249.9868
459.2800, 289.0498
460.4670, 257.6240
461.6550, 292.0806
462.8430, 212.1670
464.0300, 180.9497
465.2180, 204.3018
466.4050, 240.4844
467.5920, 225.5020
468.7790, 179.5371
469.9650, 282.8159
471.1520, 129.7480
472.3380, 266.3506
473.5250, 114.6548
474.7110, 150.0366
475.8970, 182.3027
477.0820, 213.8350
478.2680, 126.4766
479.4540, 182.5195
480.6390, 134.1025
481.8240, 162.5552
483.0090, 241.4697
484.1940, 193.5054
485.3780, 235.2666
486.5630, 215.3994
487.7470, 183.1460
488.9320, 173.6914
490.1160, 202.7222
491.3000, 141.3823
492.4830, 204.9775
493.6670, 201.8271
494.8500, 221.1802
496.0340, 192.8862
497.2170, 139.4248
498.4000, 213.3965
499.5820, 215.1748
500.7650, 153.0552
501.9480, 166.7720
503.1300, 141.4194
504.3120, 244.7114
505.4940, 134.9653
506.6760, 181.8877
507.8580, 118.2314
509.0390, 184.2915
510.2210, 160.4282
511.4020, 244.4478
512.5830, 138.1543
513.7640, 186.7729
514.9450, 188.2192
516.1250, 266.9341
517.3060, 214.8506
518.4860, 244.3359
519.6660, 276.2661
520.8460, 271.9971
522.0260, 315.7568
523.2060, 434.0796
524.3850, 539.4155
525.5650, 608.7729
526.7440, 761.3960
527.9230, 827.7495
529.1020, 1080.003
530.2810, 1277.201
531.4590, 1516.471
532.6380, 1820.780
533.8160, 2029.411
534.9940, 2160.180
536.1720, 2214.923
537.3500, 2305.777
538.5270, 2258.466
539.7050, 2101.217
540.8820, 1874.834
542.0590, 1762.548
543.2360, 1577.770
544.4130, 1480.984
545.5900, 1235.171
546.7660, 1144.334
547.9430, 990.5361
549.1190, 876.8867
550.2950, 755.9141
551.4710, 801.8525
552.6470, 631.8647
553.8220, 630.7715
554.9980, 457.6616
556.1730, 374.5356
557.3480, 437.3958
558.5230, 373.2412
559.6980, 326.8521
560.8730, 319.9673
562.0470, 254.6885
563.2220, 201.4597
564.3960, 262.2134
565.5700, 108.9490
566.7440, 167.6670
567.9170, 200.3665
569.0910, 157.0474
570.2640, 218.7100
571.4380, 246.3538
572.6110, 152.9788
573.7840, 171.5847
574.9570, 86.17139
576.1290, 83.73853
577.3020, 82.28613
578.4740, 133.8140
579.6460, 51.32227
580.8180, 65.81030
581.9900, 63.27832
583.1620, 56.72583
584.3330, 3.153076
585.5040, 41.55054
586.6760, 2.926758
587.8470, 102.2727
589.0180, 26.59790
590.1880, 45.90161
591.3590, 61.19360
592.5290, 26.51660
593.7000, 6.238281
594.8700, 15.96436
596.0400, 45.29199
597.2090, 28.55518
598.3790, 24.84692
599.5490, 8.149658
600.7180, 32.45728
601.8870, 47.79224
603.0560, 13.85205
604.2250, 69.51465
605.3940, 5.103516
606.5620, 6.731445
607.7300, 2.618408
608.8990, 35.05078
610.0670, 14.23755
611.2350, 14.49609
612.4020, 3.729492
613.5700, 77.91724
614.7370, 10.08130
615.9050, 68.78955
617.0720, 8.736816
618.2390, 57.72900
619.4060, 15.79224
620.5720, 23.90503
621.7390, 85.07178
622.9050, 12.32495
624.0710, 61.62646
625.2370, 25.00269
626.4030, 27.56567
627.5690, 55.89868
628.7340, 36.43530
629.9000, 3.966064
631.0650, 37.67456
632.2300, 63.62183
633.3950, 56.10986
634.5600, 63.91479
635.7240, 57.20264
636.8890, 18.70898
638.0530, 41.32495
639.2170, 53.32739
640.3810, 23.69971
641.5450, 59.21582
642.7080, 65.10205
643.8720, 14.04053
645.0350, 45.23584
646.1980, 46.50024
647.3610, 1.204590
648.5240, 26.13550
649.6870, 35.46484
650.8490, 41.03223
652.0120, 52.43335
653.1740, 68.02783
654.3360, 22.46021
655.4980, 59.85620
656.6600, 46.22192
657.8210, 17.44458
658.9830, 44.83423
660.1440, 57.08105
661.3050, 54.29736
662.4660, 25.48267
663.6270, 24.63232
664.7870, 16.25439
665.9480, 44.80518
667.1080, 33.83228
668.2680, 15.17456
669.4280, 126.7651
670.5880, 24.67871
671.7480, 22.55640
672.9070, 57.39746
674.0670, 47.20825
675.2260, 47.98755
676.3850, 5.735352
677.5440, 8.915527
678.7030, 7.106934
679.8610, 9.731689
681.0200, 45.31665
682.1780, 88.87012
683.3360, 86.98999
684.4940, 90.14868
685.6520, 92.36621
686.8090, 82.81128
687.9670, 64.22876
689.1240, 113.6174
690.2810, 138.9800
691.4380, 109.3174
692.5950, 149.6287
693.7520, 135.9153
694.9080, 132.1770
696.0650, 129.4133
697.2210, 128.6252
698.3770, 122.8120
699.5330, 145.9739
700.6880, 141.0879
701.8440, 157.4995
702.9990, 150.3115
704.1550, 178.3755
705.3100, 186.4150
706.4650, 177.4304
707.6190, 183.4216
708.7740, 202.1116
709.9290, 222.3323
711.0830, 258.2517
712.2370, 281.1475
713.3910, 335.0195
714.5450, 326.8682
715.6980, 239.6934
716.8520, 334.4954
718.0050, 390.2749
719.1580, 313.0320
720.3110, 394.7659
721.4640, 342.4768
722.6170, 526.1648
723.7700, 609.0605
724.9220, 651.7034
726.0740, 776.5005
727.2260, 866.3457
728.3780, 982.5542
729.5300, 1090.115
730.6810, 1267.983
731.8330, 1378.740
732.9840, 1526.728
734.1350, 1553.069
735.2860, 1639.546
736.4370, 1737.776
737.5880, 1663.889
738.7380, 1645.496
739.8880, 1648.705
741.0390, 1706.001
742.1890, 1710.158
743.3380, 1819.479
744.4880, 1914.084
745.6380, 1918.536
746.7870, 2142.521
747.9360, 2352.089
749.0850, 2581.468
750.2340, 2892.222
751.3830, 3171.067
752.5310, 3533.200
753.6800, 4035.241
754.8280, 4542.389
755.9760, 5043.260
757.1240, 5352.012
758.2720, 5495.351
759.4190, 5464.136
760.5670, 5472.042
761.7140, 5222.475
762.8610, 4701.773
764.0080, 4396.334
765.1550, 3952.512
766.3020, 3495.062
767.4480, 3178.801
768.5950, 2765.042
769.7410, 2489.640
770.8870, 2188.290
772.0330, 1918.672
773.1780, 1681.538
774.3240, 1470.036
775.4690, 1290.297
776.6140, 1138.525
777.7590, 1039.281
778.9040, 923.5508
780.0490, 913.9697
781.1940, 897.4434
782.3380, 836.2576
783.4820, 662.0947
784.6260, 620.2485
785.7700, 576.9658
786.9140, 586.9514
788.0580, 576.8445
789.2010, 487.8391
790.3450, 466.1313
791.4880, 416.4956
792.6310, 473.0171
793.7730, 359.2532
794.9160, 390.2720
796.0590, 383.7056
797.2010, 368.6785
798.3430, 369.8342
799.4850, 350.9448
800.6270, 381.4766
801.7690, 326.9785
802.9100, 343.4426
804.0520, 232.3604
805.1930, 353.0588
806.3340, 379.5774
807.4750, 337.1348
808.6160, 497.6035
809.7560, 528.0146
810.8970, 547.0891
812.0370, 602.0076
813.1770, 503.9353
814.3170, 464.7356
815.4570, 374.6831
816.5960, 274.5518
817.7360, 240.5359
818.8750, 204.6038
820.0140, 293.7544
821.1530, 226.0903
822.2920, 211.4370
823.4310, 294.7905
824.5690, 285.0876
825.7070, 390.2183
826.8460, 437.6553
827.9840, 505.1633
829.1220, 652.5796
830.2590, 711.0847
831.3970, 825.5886
832.5340, 957.0913
833.6710, 1017.590
834.8080, 1171.086
835.9450, 1233.558
837.0820, 1270.058
838.2190, 1267.558
839.3550, 1135.058
840.4910, 1041.558
841.6270, 879.0576
842.7630, 775.5581
843.8990, 679.0596
845.0350, 698.5615
846.1700, 536.0647
847.3060, 495.5686
848.4410, 450.0737
849.5760, 290.5806
850.7100, 230.0889
851.8450, 159.5989
852.9800, 137.1108
854.1140, 191.8718
855.2480, 102.4351
856.3820, 118.9539
857.5160, 128.4751
858.6500, 77.99927
859.7830, 46.52637
860.9170, 47.06152
862.0500, 46.59961
863.1830, 24.11816
864.3160, 55.17139
865.4480, 12.53442
866.5810, 22.90698
867.7130, 10.09351
868.8460, 65.66992
869.9780, 145.5479
871.1100, 5.456543
872.2410, 43.00024
873.3730, 14.61279
874.5050, 83.23193
875.6360, 4.135986
876.7670, 44.49780
877.8980, 63.13696
879.0290, 4.485107
880.1590, 94.14526
881.2900, 110.0149
882.4200, 111.7031
883.5500, 54.40405
884.6800, 121.1270
885.8100, 33.86011
886.9400, 96.61060
888.0690, 140.6650
889.1990, 62.47388
890.3280, 158.9097
891.4570, 140.1594
892.5860, 161.1172
893.7140, 204.9824
894.8430, 194.8716
895.9710, 192.4053
897.1000, 204.3701
898.2280, 200.3562
899.3560, 237.4241
900.4830, 245.4673
901.6110, 233.5220
902.7380, 211.6079
903.8660, 240.7205
904.9930, 245.0669
906.1200, 227.0046
907.2460, 285.1724
908.3730, 317.3835
909.5000, 324.6350
910.6260, 329.8965
911.7520, 449.1807
912.8780, 362.4771
914.0040, 479.7844
915.1290, 455.1191
916.2550, 601.4651
917.3800, 624.8215
918.5050, 686.2004
919.6300, 794.6123
920.7550, 922.0396
921.8800, 1090.491
923.0040, 1276.969
924.1290, 1478.460
925.2530, 1720.964
926.3770, 1942.501
927.5010, 2321.049
928.6250, 2731.616
929.7480, 3129.194
930.8720, 3460.786
931.9950, 3758.417
933.1180, 3897.060
934.2410, 4015.716
935.3640, 4182.384
936.4860, 4070.066
937.6090, 3984.775
938.7310, 3754.507
939.8530, 3496.253
940.9750, 3153.013
942.0970, 2822.797
943.2180, 2542.591
944.3400, 2179.401
945.4610, 2006.228
946.5820, 1625.066
947.7030, 1417.918
948.8240, 1402.785
949.9450, 1174.671
951.0650, 1054.577
952.1860, 945.5017
953.3060, 856.4443
954.4260, 731.4009
955.5460, 641.3687
956.6650, 707.3486
957.7850, 604.3401
958.9040, 588.3430
960.0230, 512.3582
961.1420, 459.3862
962.2610, 419.4258
963.3800, 473.4763
964.4990, 378.5381
965.6170, 430.6111
966.7350, 385.0103
967.8530, 300.8037
968.9710, 310.9175
970.0890, 295.0420
971.2070, 249.1777
972.3240, 211.3311
973.4410, 140.4961
974.5580, 144.2832
975.6750, 207.8623
976.7920, 133.0625
977.9090, 142.2737
979.0250, 115.4988
980.1410, 127.7346
981.2580, 124.9819
982.3740, 97.33569
983.4890, 125.5596
984.6050, 64.79565
985.7200, 101.0928
986.8360, 128.4028
987.9510, 12.26538
989.0660, 2.925049
990.1810, 39.42578
991.2950, 4.797363
992.4100, 16.18018
993.5240, 38.58545
994.6390, 26.00293
995.7530, 31.43115
996.8660, 15.12988
997.9800, 6.682373
999.0940, 29.22534
1000.207, 41.23608
1001.320, 45.62231
1002.433, 26.84814
1003.546, 41.67041
1004.659, 16.18945
1005.772, 29.75000
1006.884, 1.740479
1007.996, 35.24170
1009.108, 0.7534180
1010.220, 7.238281
1011.332, 32.77075
1012.444, 24.68628
1013.555, 2.861084
1014.666, 8.581299
1015.777, 2.984375
1016.888, 19.56006
1017.999, 9.100342
1019.110, 9.742676
1020.220, 7.348877
1021.331, 11.40308
1022.441, 1.367920
1023.551, 22.25806
1024.661, 15.62183
1025.770, 4.979980
1026.880, 19.68286
1027.989, 15.83105
1029.098, 19.32153
1030.207, 15.34961
1031.316, 9.625977
1032.425, 0.9836430
1033.533, 62.16162
1034.642, 66.86621
1035.750, 116.5781
1036.858, 103.7366
1037.966, 129.0266
1039.073, 133.7534
1040.181, 139.1201
1041.288, 145.4524
1042.396, 149.4338
1043.503, 171.1985
1044.610, 186.8403
1045.716, 141.8232
1046.823, 209.6079
1047.929, 205.0500
1049.036, 159.9460
1050.142, 204.7502
1051.248, 171.5605
1052.353, 219.8848
1053.459, 255.3699
1054.564, 158.6143
1055.670, 218.4612
1056.775, 260.3010
1057.880, 209.1470
1058.985, 352.9980
1060.089, 199.8542
1061.194, 219.4150
1062.298, 205.2812
1063.402, 349.5083
1064.506, 347.5520
1065.610, 373.4390
1066.713, 474.3354
1067.817, 447.2363
1068.920, 495.1414
1070.023, 507.3037
1071.126, 536.2170
1072.229, 618.1394
1073.332, 696.0615
1074.435, 737.9868
1075.537, 818.9160
1076.639, 1003.849
1077.741, 1093.372
1078.843, 1163.725
1079.945, 1415.668
1081.046, 1631.865
1082.148, 1880.816
1083.249, 2145.411
1084.350, 2734.368
1085.451, 3425.359
1086.551, 4365.322
1087.652, 5747.286
1088.752, 7748.254
1089.853, 10344.22
1090.953, 13393.19
1092.053, 16217.17
1093.152, 17210.23
1094.252, 16002.21
1095.351, 13638.20
1096.451, 11194.21
1097.550, 9039.202
1098.649, 7162.746
1099.748, 6025.739
1100.846, 4679.816
1101.945, 3759.811
1103.043, 3058.806
1104.141, 2429.243
1105.239, 2061.428
1106.337, 1697.589
1107.434, 1434.768
1108.532, 1168.768
1109.629, 1017.769
1110.726, 838.3713
1111.823, 898.3730
1112.920, 825.3745
1114.017, 637.3757
1115.113, 706.3779
1116.210, 591.6089
1117.306, 577.6455
1118.402, 500.0415
1119.498, 485.5264
1120.593, 336.2869
1121.689, 372.2466
1122.784, 289.5605
1123.879, 334.5654
1124.974, 224.2913
1126.069, 279.4885
1127.164, 248.4902
1128.259, 244.4902
1129.353, 220.2722
1130.447, 182.2712
1131.541, 196.5762
1132.635, 104.5969
1133.729, 156.1677
1134.822, 64.29224
1135.916, 130.0127
1137.009, 114.6282
1138.102, 89.78491
1139.195, 69.79712
1140.288, 120.8135
1141.380, 106.8311
1142.473, 99.71045
1143.565, 75.86792
1144.657, 67.18994
1145.749, 57.20288
1146.841, 37.01733
1147.932, 90.02515
1149.024, 126.0300
1150.115, 48.03247
1151.206, 39.03198
1152.297, 13.02856
1153.388, 67.84619
1154.479, 0.7983400
1155.569, 66.17383
1156.659, 27.72021
1157.750, 14.57324
1158.839, 7.454834
1159.929, 51.49463
1161.019, 40.82324
1162.108, 4.467285
1163.198, 83.68018
1164.287, 1.541260
1165.376, 77.44409
1166.465, 41.34351
1167.553, 71.23877
1168.642, 29.13013
1169.730, 22.01782
1170.818, 9.8632999E-02
1171.906, 31.22510
1172.994, 9.377930
1174.082, 39.45386
1175.170, 25.28125
1176.257, 14.10474
1177.344, 30.92285
1178.431, 0.7363280
1179.518, 13.55249
1180.605, 49.33667
1181.691, 20.12964
1182.778, 4.073486
1183.864, 1.513672
1184.950, 10.33960
1186.036, 19.41040
1187.122, 33.15527
1188.207, 75.93164
1189.292, 22.66675
1190.378, 25.39697
1191.463, 2.121826
1192.548, 68.84717
1193.632, 9.555664
1194.717, 36.24927
1195.801, 77.41797
1196.886, 55.27148
1197.970, 58.92798
1199.054, 103.5793
1200.137, 20.77515
1201.221, 49.88916
1202.305, 27.80200
1203.388, 63.41113
1204.471, 45.01489
1205.554, 83.68213
1206.637, 94.27417
1207.719, 69.03882
1208.802, 83.61914
1209.884, 60.31372
1210.966, 17.22119
1212.048, 45.78101
1213.130, 7.334961
1214.212, 52.87695
1215.293, 28.74902
1216.374, 94.28223
1217.456, 117.8052
1218.536, 61.32202
1219.617, 53.83252
1220.698, 87.40454
1221.778, 53.26660
1222.859, 27.98511
1223.939, 42.48706
1225.019, 147.9836
1226.099, 36.45483
1227.178, 83.91895
1228.258, 6.623535
1229.337, 50.81372
1230.417, 29.24390
1231.496, 47.66675
1232.574, 82.08252
1233.653, 4.508789
1234.732, 24.88184
1235.810, 26.26196
1236.888, 25.63354
1237.966, 81.09131
1239.044, 55.44702
1240.122, 11.79565
1241.199, 79.13159
1242.277, 58.46045
1243.354, 62.88159
1244.431, 138.1963
1245.508, 0.1535640
1246.585, 45.13550
1247.661, 19.66357
1248.738, 20.06543
1249.814, 62.17676
1250.890, 67.41284
1251.966, 17.35791
1253.042, 68.84375
1254.117, 23.96191
1255.193, 28.32544
1256.268, 75.47974
1257.343, 84.62671
1258.418, 34.54004
1259.493, 34.67261
1260.567, 36.58105
1261.642, 54.76978
1262.716, 110.4897
1263.790, 37.60083
1264.864, 113.0769
1265.938, 81.17773
1267.011, 150.2727
1268.085, 120.6038
1269.158, 114.2581
1270.231, 73.32666
1271.304, 82.39478
1272.377, 79.53052
1273.450, 82.60986
1274.522, 84.98682
1275.594, 80.38794
1276.666, 91.73120
1277.738, 76.75684
1278.810, 87.77441
1279.882, 95.78467
1280.953, 168.7869
1282.025, 43.73755
1283.096, 69.72510
1284.167, 57.22827
1285.238, 143.2034
1286.308, 84.17236
1287.379, 170.1226
1288.449, 147.1335
1289.519, 64.35693
1290.589, 84.29980
1291.659, 58.93774
1292.729, 120.8662
1293.798, 143.5493
1294.868, 132.2529
1295.937, 237.5503
1297.006, 123.0610
1298.075, 158.9548
1299.143, 78.84155
1300.212, 85.10718
1301.280, 104.3989
1302.348, 128.0420
1303.416, 181.9021
1304.484, 146.7808
1305.552, 188.5288
1306.620, 109.3699
1307.687, 86.55396
1308.754, 121.2849
1309.821, 60.10767
1310.888, 29.92480
1311.955, 102.2307
1313.021, 49.37646
1314.088, 75.76367
1315.154, 82.54858
1316.220, 49.34058
1317.286, 72.76294
1318.352, 106.9084
1319.417, 84.68701
1320.483, 54.76099
1321.548, 67.52808
1322.613, 10.06787
1323.678, 84.51221
1324.743, 6.757568
1325.807, 123.9619
1326.872, 87.67456
1327.936, 79.38184
1329.000, 41.82983
1330.064, 11.52466
1331.128, 80.20679
1332.191, 104.8872
1333.255, 35.56104
1334.318, 94.22900
1335.381, 18.89160
1336.444, 120.5413
1337.507, 136.1838
1338.569, 3.821289
1339.632, 61.20215
1340.694, 71.82715
1341.756, 61.80542
1342.818, 7.419678
1343.880, 49.99658
1344.941, 64.59888
1346.003, 62.19629
1347.064, 102.7886
1348.125, 34.36816
1349.186, 13.05884
1350.247, 12.50366
1351.308, 45.99072
1352.368, 45.54272
1353.428, 60.60693
1354.489, 69.59570
1355.549, 74.11890
1356.608, 72.07349
1357.668, 95.57495
1358.727, 71.98853
1359.787, 75.46167
1360.846, 75.05591
1361.905, 45.93335
1362.964, 54.19458
1364.022, 59.47583
1365.081, 22.73535
1366.139, 54.17017
1367.197, 62.60083
1368.255, 133.4253
1369.313, 47.84766
1370.371, 20.26611
1371.428, 89.67944
1372.486, 16.91113
1373.543, 51.26562
1374.600, 2.632324
1375.657, 49.63550
1376.713, 141.5454
1377.770, 96.92896
1378.826, 64.30884
1379.882, 50.37622
1380.938, 38.74878
1381.994, 6.395752
1383.050, 45.56616
1384.106, 38.92773
1385.161, 28.71436
1386.216, 53.50977
1387.271, 13.26978
1388.326, 15.95996
1389.381, 26.72217
1390.435, 49.60059
1391.490, 7.193848
1392.544, 62.12109
1393.598, 65.43335
1394.652, 29.25708
1395.705, 24.95801
1396.759, 28.61304
1397.812, 63.61206
1398.866, 11.88965
1399.919, 23.16431
1400.972, 79.43677
1402.024, 89.70728
1403.077, 56.97559
1404.129, 249.2427
1405.181, 276.3125
1406.233, 712.7749
1407.285, 585.0408
1408.337, 671.1345
1409.389, 1041.457
1410.440, 432.7234
1411.491, 863.9478
1412.542, 1092.217
1413.593, 910.4868
1414.644, 744.7581
1415.695, 969.0347
1416.745, 675.3286
1417.795, 215.6245
1418.845, 160.9028
1419.895, 84.20435
1420.945, 179.5112
1421.995, 190.8210
1423.044, 182.1345
1424.093, 351.4519
1425.142, 483.7739
1426.191, 652.1011
1427.240, 683.4368
1428.289, 753.5989
1429.337, 847.1548
1430.385, 722.5278
1431.433, 682.9084
1432.481, 514.2986
1433.529, 381.6985
1434.577, 291.1121
1435.624, 254.5383
1436.672, 228.9773
1437.719, 165.0310
1438.766, 138.5308
1439.812, 115.1125
1440.859, 161.6309
1441.905, 104.1711
1442.952, 136.6992
1443.998, 132.2007
1445.044, 37.32007
1446.090, 61.78906
1447.135, 98.02686
1448.181, 102.0618
1449.226, 193.9788
1450.271, 236.1873
1451.316, 123.5918
1452.361, 287.6577
1453.405, 272.0698
1454.450, 496.4036
1455.494, 632.6157
1456.538, 1032.520
1457.582, 968.9094
1458.626, 933.9338
1459.670, 826.3145
1460.713, 559.6948
1461.757, 537.4651
1462.800, 423.5464
1463.843, 314.8770
1464.886, 281.2258
1465.928, 196.5876
1466.971, 241.9485
1468.013, 288.3127
1469.055, 129.6882
1470.097, 217.9500
1471.139, 133.3281
1472.181, 133.5859
1473.222, 206.2847
1474.263, 205.3479
1475.305, 144.7373
1476.346, 159.1409
1477.386, 237.5713
1478.427, 212.8721
1479.468, 258.9700
1480.508, 231.3557
1481.548, 221.5029
1482.588, 149.4006
1483.628, 230.8123
1484.668, 191.7708
1485.707, 203.7673
1486.747, 218.9565
1487.786, 140.2932
1488.825, 209.6318
1489.864, 201.9722
1490.902, 164.3142
1491.941, 175.6604
1492.979, 146.0090
1494.017, 102.3594
1495.055, 94.71167
1496.093, 126.0652
1497.131, 161.4204
1498.168, 145.7769
1499.206, 137.1335
1500.243, 154.4902
1501.280, 182.8469
1502.317, 73.20215
1503.354, 67.55615
1504.390, 131.9072
1505.426, 153.2495
1506.463, 170.5806
1507.499, 217.9028
1508.535, 84.21680
1509.570, 128.5122
1510.606, 97.80713
1511.641, 143.1379
1512.676, 194.4800
1513.711, 156.8235
1514.746, 181.1731
1515.781, 109.5295
1516.816, 186.8882
1517.850, 62.28076
1518.884, 155.6775
1519.918, 126.0754
1520.952, 151.4736
1521.986, 151.8743
1523.019, 60.29688
1524.053, 187.7461
1525.086, 129.1958
1526.119, 205.6758
1527.152, 88.23901
1528.185, 141.8501
1529.217, 67.61353
1530.250, 87.43018
1531.282, 153.2690
1532.314, 212.1321
1533.346, 154.0210
1534.377, 150.9373
1535.409, 145.8823
1536.440, 132.8594
1537.472, 132.8706
1538.503, 94.91943
1539.534, 139.0100
1540.564, 139.1482
1541.595, 108.3398
1542.625, 144.5894
1543.656, 170.9011
1544.686, 33.28052
1545.716, 57.73315
1546.745, 57.26660
1547.775, 97.88965
1548.804, 142.6111
1549.834, 107.4387
1550.863, 151.3726
1551.892, 163.4097
1552.920, 208.5598
1553.949, 331.8352
1554.977, 382.2500
1556.006, 291.8203
1557.034, 208.5637
1558.062, 146.4985
1559.089, 57.64819
1560.117, 97.03564
1561.144, 10.31104
1562.172, 38.64062
1563.199, 19.93457
1564.226, 75.62549
1565.252, 123.7778
1566.279, 74.46973
1567.305, 130.9709
1568.332, 0.3591310
1569.358, 160.0479
1570.384, 70.16040
1571.409, 0.0000000E+00
##END=



