##NAMES=Azurite
##RRUFFID=R050497
##IDEAL CHEMISTRY=Cu^2+^_3_(CO_3_)_2_(OH)_2_
##LOCALITY=Tsumeb mine, Tsumeb, Otavi District, Oshikoto, Namibia
##OWNER=RRUFF
##SOURCE=Marcus Origlieri
##DESCRIPTION=Blue prismatic single crystal
##STATUS=The identification of this mineral has been confirmed by X-ray diffraction and chemical analysis
##URL=rruff.info/R050497
##MEASURED CHEMISTRY=Cu_3.00_(CO_3_)_2_(OH)_2_
##PIN_ID=L01223
##ORIENTATION=Laser parallel to -a* (-1 0 0). Fiducial mark perpendicular to laser is parallel to b [0 1 0]
52.67100, 0.0000000E+00
53.91000, 22.67502
55.14900, 37.35754
56.38700, 28.14709
57.62600, 43.75500
58.86400, 47.03235
60.10300, 41.25690
61.34100, 8.998840
62.57900, 7.681274
63.81700, 2.842346
65.05400, 27.72437
66.29200, 15.11090
67.52900, 8.865356
68.76700, 36.08740
70.00400, 149.4596
71.24100, 295.9051
72.47700, 304.3499
73.71400, 313.7186
74.95100, 315.9392
76.18700, 488.9465
77.42300, 551.6827
78.65900, 614.0967
79.89500, 855.1439
81.13100, 1078.785
82.36700, 1250.984
83.60200, 1286.713
84.83700, 1100.947
86.07200, 935.6927
87.30800, 803.9506
88.54200, 772.6906
89.77700, 832.8852
91.01200, 939.4993
92.24600, 1007.494
93.48000, 1041.838
94.71400, 951.5042
95.94800, 913.4739
97.18200, 892.7302
98.41600, 866.9215
99.64900, 845.0476
100.8830, 887.0873
102.1160, 890.3687
103.3490, 945.8839
104.5820, 1105.626
105.8150, 1314.590
107.0470, 1672.769
108.2800, 2287.159
109.5120, 3168.754
110.7440, 3447.552
111.9760, 2475.547
113.2080, 1684.737
114.4400, 1254.117
115.6710, 1155.690
116.9030, 1134.612
118.1340, 971.9836
119.3650, 902.8126
120.5960, 898.8857
121.8270, 1104.092
123.0580, 1422.432
124.2880, 1697.906
125.5190, 2016.513
126.7490, 2526.222
127.9790, 3819.935
129.2090, 5092.652
130.4390, 4940.372
131.6680, 3567.097
132.8980, 2516.836
134.1270, 2020.595
135.3560, 2065.402
136.5850, 2326.263
137.8140, 2688.185
139.0430, 3550.171
140.2710, 4611.227
141.5000, 5338.354
142.7280, 4545.558
143.9560, 3370.842
145.1840, 2322.206
146.4120, 1696.652
147.6390, 1347.183
148.8670, 1119.800
150.0940, 1088.505
151.3210, 1064.297
152.5490, 1130.179
153.7750, 1009.151
155.0020, 866.2136
156.2290, 802.3669
157.4550, 824.6113
158.6810, 1006.948
159.9080, 1242.375
161.1340, 1650.894
162.3590, 2351.505
163.5850, 3338.207
164.8110, 4303.001
166.0360, 5819.888
167.2610, 8223.868
168.4860, 10161.94
169.7110, 10128.10
170.9360, 7918.356
172.1610, 5161.703
173.3850, 3341.143
174.6100, 2287.676
175.8340, 1724.300
177.0580, 1365.018
178.2820, 1110.070
179.5050, 900.7141
180.7290, 779.3422
181.9520, 715.2245
183.1760, 769.9337
184.3990, 813.3511
185.6220, 960.4000
186.8450, 1157.666
188.0670, 1402.824
189.2900, 1700.075
190.5120, 2007.420
191.7340, 2114.854
192.9560, 2065.378
194.1780, 1804.989
195.4000, 1488.688
196.6220, 1171.475
197.8430, 979.3486
199.0640, 836.3091
200.2860, 737.0341
201.5070, 752.7291
202.7270, 768.3909
203.9480, 750.9340
205.1690, 580.6039
206.3890, 375.0850
207.6090, 201.8525
208.8290, 180.3226
210.0490, 268.3733
211.2690, 194.4663
212.4890, 213.7819
213.7080, 206.0743
214.9280, 205.9064
216.1470, 139.8788
217.3660, 71.98645
218.5850, 37.22412
219.8030, 73.58752
221.0220, 9.072144
222.2400, 59.67432
223.4590, 112.3903
224.6770, 80.21692
225.8950, 142.1514
227.1120, 130.1903
228.3300, 246.3315
229.5480, 384.5726
230.7650, 418.9106
231.9820, 561.3440
233.1990, 760.8704
234.4160, 1023.488
235.6330, 1308.193
236.8490, 1621.986
238.0660, 2128.863
239.2820, 2954.826
240.4980, 4086.871
241.7140, 5566.997
242.9300, 7566.204
244.1460, 10690.49
245.3610, 13437.85
246.5770, 13224.29
247.7920, 10331.80
249.0070, 6575.402
250.2220, 4085.072
251.4370, 2685.812
252.6510, 1979.623
253.8660, 1383.505
255.0800, 1177.456
256.2940, 1028.475
257.5080, 981.5620
258.7220, 1096.715
259.9360, 1446.935
261.1490, 1994.219
262.3630, 2019.569
263.5760, 1983.980
264.7890, 1958.454
266.0020, 2065.570
267.2150, 1650.579
268.4270, 2290.235
269.6400, 2225.964
270.8520, 2339.750
272.0640, 3007.601
273.2760, 3911.512
274.4880, 4758.479
275.7000, 5920.514
276.9120, 7140.608
278.1230, 8075.767
279.3340, 8366.994
280.5450, 8119.287
281.7560, 7196.644
282.9670, 6176.066
284.1780, 5011.551
285.3880, 3951.105
286.5980, 3134.722
287.8090, 2413.394
289.0190, 1935.131
290.2290, 1505.938
291.4380, 1180.805
292.6480, 893.7266
293.8570, 615.7083
295.0670, 494.7490
296.2760, 375.8521
297.4850, 192.0187
298.6930, 109.2472
299.9020, 117.5404
301.1110, 64.89136
302.3190, 11.69617
303.5270, 69.22400
304.7350, 92.70068
305.9430, 70.13623
307.1510, 116.5228
308.3580, 110.8704
309.5660, 108.7279
310.7730, 133.4355
311.9800, 105.6647
313.1870, 121.8585
314.3940, 135.0161
315.6010, 119.1401
316.8070, 77.22839
318.0130, 74.27026
319.2200, 2.265625
320.4260, 30.78943
321.6310, 112.8954
322.8370, 190.0583
324.0430, 225.2708
325.2480, 273.5065
326.4540, 350.7716
327.6590, 401.0530
328.8640, 487.3503
330.0680, 481.6600
331.2730, 516.9875
332.4780, 468.3657
333.6820, 410.7997
334.8860, 400.2848
336.0900, 401.8298
337.2940, 348.4237
338.4980, 398.0651
339.7010, 389.7527
340.9050, 445.4846
342.1080, 514.2622
343.3110, 546.0842
344.5140, 594.9502
345.7170, 702.8809
346.9200, 763.8745
348.1220, 825.9309
349.3240, 991.0508
350.5270, 1074.232
351.7290, 1265.474
352.9310, 1440.774
354.1320, 1570.132
355.3340, 1893.546
356.5350, 2136.018
357.7370, 2501.546
358.9380, 2809.130
360.1390, 3177.766
361.3400, 3561.452
362.5400, 4047.191
363.7410, 4540.979
364.9410, 5072.819
366.1410, 5684.710
367.3410, 6383.646
368.5410, 7209.632
369.7410, 8170.665
370.9400, 9233.741
372.1400, 10365.87
373.3390, 11681.04
374.5380, 13247.25
375.7370, 14855.51
376.9360, 16310.84
378.1350, 17975.20
379.3330, 19255.60
380.5310, 20399.04
381.7300, 21170.52
382.9280, 21366.70
384.1260, 21515.26
385.3230, 21425.88
386.5210, 21238.96
387.7180, 21319.66
388.9160, 22098.64
390.1130, 23446.46
391.3100, 25820.26
392.5060, 28913.96
393.7030, 33092.84
394.9000, 38079.77
396.0960, 43329.72
397.2920, 47944.73
398.4880, 49763.74
399.6840, 48406.82
400.8800, 44587.92
402.0750, 39216.05
403.2710, 33721.21
404.4660, 29862.42
405.6610, 26632.65
406.8560, 24104.92
408.0510, 22080.22
409.2450, 19815.79
410.4400, 17709.15
411.6340, 15399.04
412.8280, 13414.99
414.0220, 11516.66
415.2160, 9953.884
416.4100, 8854.285
417.6030, 7783.125
418.7970, 6924.942
419.9900, 6220.745
421.1830, 5474.256
422.3760, 5131.767
423.5690, 4579.512
424.7610, 4294.547
425.9540, 4036.171
427.1460, 3635.386
428.3380, 3287.065
429.5300, 3148.224
430.7220, 2899.424
431.9140, 2559.232
433.1050, 2460.624
434.2970, 2192.854
435.4880, 2007.776
436.6790, 1759.076
437.8700, 1603.265
439.0610, 1439.222
440.2510, 1310.713
441.4420, 1161.760
442.6320, 1082.623
443.8220, 968.9744
445.0120, 934.3335
446.2020, 776.4387
447.3910, 749.7441
448.5810, 619.8391
449.7700, 609.8408
450.9600, 579.6803
452.1490, 557.1387
453.3370, 538.9065
454.5260, 507.8922
455.7150, 501.3687
456.9030, 448.0713
458.0910, 456.1531
459.2800, 417.6263
460.4670, 503.2832
461.6550, 409.7021
462.8430, 446.0779
464.0300, 466.5699
465.2180, 453.5177
466.4050, 452.3228
467.5920, 410.8934
468.7790, 439.8945
469.9650, 408.9385
471.1520, 304.9594
472.3380, 346.6499
473.5250, 370.4644
474.7110, 298.9384
475.8970, 311.1417
477.0820, 322.4529
478.2680, 261.8855
479.4540, 255.7583
480.6390, 220.5253
481.8240, 315.0707
483.0090, 254.2655
484.1940, 288.8364
485.3780, 263.2737
486.5630, 230.6195
487.7470, 285.1787
488.9320, 256.3457
490.1160, 270.4816
491.3000, 191.6069
492.4830, 229.3873
493.6670, 258.6716
494.8500, 193.0210
496.0340, 244.7869
497.2170, 207.5774
498.4000, 211.9703
499.5820, 166.6678
500.7650, 215.6298
501.9480, 177.5153
503.1300, 188.2991
504.3120, 118.5043
505.4940, 98.77246
506.6760, 161.6246
507.8580, 193.6669
509.0390, 196.4917
510.2210, 82.48340
511.4020, 119.2662
512.5830, 95.45898
513.7640, 69.32739
514.9450, 126.9836
516.1250, 30.32068
517.3060, 87.29407
518.4860, 7.644531
519.6660, 14.70593
520.8460, 32.05310
522.0260, 28.89624
523.2060, 20.92371
524.3850, 8.038208
525.5650, 26.83582
526.7440, 29.54211
527.9230, 2.379150
529.1020, 17.72107
530.2810, 2.595703
531.4590, 9.144165
532.6380, 13.87756
533.8160, 30.28235
534.9940, 40.48438
536.1720, 63.34961
537.3500, 63.82776
538.5270, 35.52490
539.7050, 55.40332
540.8820, 62.91272
542.0590, 79.32617
543.2360, 69.19287
544.4130, 77.20984
545.5900, 46.60693
546.7660, 36.98022
547.9430, 33.34277
549.1190, 41.69421
550.2950, 8.034546
551.4710, 31.36011
552.6470, 16.32593
553.8220, 52.03821
554.9980, 11.20569
556.1730, 19.56543
557.3480, 3.365723
558.5230, 9.812012
559.6980, 27.02673
560.8730, 14.10034
562.0470, 36.78894
563.2220, 18.71790
564.3960, 21.67847
565.5700, 25.67224
566.7440, 17.70203
567.9170, 9.764038
569.0910, 33.85498
570.2640, 6.987061
571.4380, 13.85229
572.6110, 16.32764
573.7840, 42.54150
574.9570, 4.802490
576.1290, 42.90759
577.3020, 4.398682
578.4740, 1.734253
579.6460, 14.09863
580.8180, 22.47388
581.9900, 14.17834
583.1620, 27.41077
584.3330, 0.9278560
585.5040, 17.47473
586.6760, 16.05896
587.8470, 9.678589
589.0180, 23.67578
590.1880, 3.981079
591.3590, 8.337524
592.5290, 16.35632
593.7000, 19.92383
594.8700, 13.19312
596.0400, 46.45337
597.2090, 9.706909
598.3790, 13.94812
599.5490, 10.18005
600.7180, 7.601074
601.8870, 7.411011
603.0560, 8.749878
604.2250, 8.880737
605.3940, 15.01917
606.5620, 4.037476
607.7300, 49.06030
608.8990, 13.93933
610.0670, 28.01721
611.2350, 2.946777
612.4020, 10.84106
613.5700, 42.70264
614.7370, 34.46021
615.9050, 13.67920
617.0720, 1.056274
618.2390, 32.24609
619.4060, 11.39563
620.5720, 15.00342
621.7390, 22.57837
622.9050, 36.34326
624.0710, 23.63831
625.2370, 29.12305
626.4030, 33.57764
627.5690, 1.003174
628.7340, 9.388428
629.9000, 10.73743
631.0650, 11.59534
632.2300, 22.32690
633.3950, 41.57068
634.5600, 39.78552
635.7240, 70.97107
636.8890, 70.55017
638.0530, 40.26874
639.2170, 81.37549
640.3810, 63.30353
641.5450, 68.77454
642.7080, 76.54688
643.8720, 52.55389
645.0350, 53.53253
646.1980, 61.48291
647.3610, 61.40637
648.5240, 65.68549
649.6870, 87.17188
650.8490, 66.01709
652.0120, 86.83545
653.1740, 75.62927
654.3360, 89.39746
655.4980, 64.14117
656.6600, 49.85730
657.8210, 57.54352
658.9830, 67.17218
660.1440, 51.80225
661.3050, 82.40259
662.4660, 69.97729
663.6270, 69.52466
664.7870, 79.39209
665.9480, 92.88641
667.1080, 66.35602
668.2680, 64.35437
669.4280, 78.76837
670.5880, 107.9030
671.7480, 89.21216
672.9070, 80.55176
674.0670, 83.01379
675.2260, 74.93811
676.3850, 110.5643
677.5440, 87.80353
678.7030, 73.01770
679.8610, 105.2055
681.0200, 134.3700
682.1780, 113.5120
683.3360, 109.6313
684.4940, 115.7275
685.6520, 132.8010
686.8090, 123.8524
687.9670, 152.2374
689.1240, 147.9413
690.2810, 187.6297
691.4380, 151.5923
692.5950, 137.0390
693.7520, 136.4257
694.9080, 178.1147
696.0650, 161.2448
697.2210, 193.2107
698.3770, 194.7454
699.5330, 199.3121
700.6880, 198.8978
701.8440, 206.1062
702.9990, 238.6740
704.1550, 218.3392
705.3100, 242.7188
706.4650, 243.9531
707.6190, 282.7270
708.7740, 290.4791
709.9290, 299.7577
711.0830, 353.9988
712.2370, 417.6373
713.3910, 372.6949
714.5450, 411.9193
715.6980, 435.4544
716.8520, 514.6165
718.0050, 561.8924
719.1580, 685.4028
720.3110, 705.3913
721.4640, 808.8170
722.6170, 894.4292
723.7700, 1035.588
724.9220, 1263.863
726.0740, 1394.292
727.2260, 1641.995
728.3780, 1884.944
729.5300, 2252.739
730.6810, 2642.127
731.8330, 3112.077
732.9840, 3542.782
734.1350, 3974.245
735.2860, 4313.438
736.4370, 4451.713
737.5880, 4392.099
738.7380, 3976.320
739.8880, 3662.508
741.0390, 3103.664
742.1890, 2750.705
743.3380, 2347.710
744.4880, 2046.259
745.6380, 1818.949
746.7870, 1648.872
747.9360, 1494.371
749.0850, 1432.833
750.2340, 1374.318
751.3830, 1331.134
752.5310, 1346.826
753.6800, 1459.858
754.8280, 1600.160
755.9760, 1752.353
757.1240, 1939.426
758.2720, 2103.064
759.4190, 2245.813
760.5670, 2433.781
761.7140, 2511.097
762.8610, 2461.033
764.0080, 2354.101
765.1550, 2155.257
766.3020, 2003.196
767.4480, 1733.523
768.5950, 1528.878
769.7410, 1322.238
770.8870, 1122.939
772.0330, 941.1313
773.1780, 880.2534
774.3240, 720.9537
775.4690, 601.6235
776.6140, 608.6853
777.7590, 494.5062
778.9040, 506.9167
780.0490, 395.4670
781.1940, 333.1122
782.3380, 299.3289
783.4820, 279.5454
784.6260, 204.8909
785.7700, 218.2156
786.9140, 229.5927
788.0580, 178.2583
789.2010, 211.6041
790.3450, 192.2310
791.4880, 170.7003
792.6310, 142.3265
793.7730, 139.9296
794.9160, 162.5315
796.0590, 142.6355
797.2010, 177.8866
798.3430, 202.8424
799.4850, 176.2926
800.6270, 194.5483
801.7690, 146.7833
802.9100, 199.1683
804.0520, 178.7107
805.1930, 207.8699
806.3340, 266.9940
807.4750, 279.3330
808.6160, 429.9852
809.7560, 578.4409
810.8970, 831.7778
812.0370, 1182.168
813.1770, 1490.448
814.3170, 1954.103
815.4570, 2188.527
816.5960, 2094.758
817.7360, 1755.346
818.8750, 1388.017
820.0140, 1130.660
821.1530, 991.2644
822.2920, 824.9138
823.4310, 806.5743
824.5690, 710.2322
825.7070, 677.8879
826.8460, 669.5417
827.9840, 652.1949
829.1220, 602.8467
830.2590, 672.5037
831.3970, 633.1747
832.5340, 670.8457
833.6710, 588.5234
834.8080, 540.2047
835.9450, 488.8865
837.0820, 433.5776
838.2190, 369.2693
839.3550, 307.9731
840.4910, 295.6851
841.6270, 287.4060
842.7630, 208.1373
843.8990, 207.8771
845.0350, 175.6237
846.1700, 170.3833
847.3060, 147.1494
848.4410, 108.9177
849.5760, 91.69543
850.7100, 59.48914
851.8450, 69.28955
852.9800, 49.09058
854.1140, 28.89880
855.2480, 60.71375
856.3820, 0.4611820
857.5160, 7.375732
858.6500, 38.22314
859.7830, 26.08423
860.9170, 17.04700
862.0500, 21.16858
863.1830, 17.54614
864.3160, 5.614380
865.4480, 3.486206
866.5810, 24.42175
867.7130, 4.336060
868.8460, 15.43530
869.9780, 40.07043
871.1100, 36.00806
872.2410, 28.79626
873.3730, 59.02820
874.5050, 48.98303
875.6360, 68.94202
876.7670, 69.22729
877.8980, 87.21802
879.0290, 98.97266
880.1590, 74.98621
881.2900, 95.12854
882.4200, 102.1671
883.5500, 118.9211
884.6800, 87.71619
885.8100, 76.29626
886.9400, 123.5400
888.0690, 102.1511
889.1990, 128.3998
890.3280, 95.96777
891.4570, 113.1104
892.5860, 107.0084
893.7140, 116.2168
894.8430, 135.8770
895.9710, 119.1318
897.1000, 160.3433
898.2280, 137.5641
899.3560, 132.0043
900.4830, 146.2426
901.6110, 124.4878
902.7380, 156.7455
903.8660, 157.0137
904.9930, 157.2921
906.1200, 147.5809
907.2460, 166.1516
908.3730, 206.1832
909.5000, 192.4949
910.6260, 225.8110
911.7520, 223.1323
912.8780, 254.4607
914.0040, 267.7935
915.1290, 274.1316
916.2550, 258.4750
917.3800, 293.8234
918.5050, 325.1787
919.6300, 370.5411
920.7550, 408.5986
921.8800, 461.2842
923.0040, 502.6648
924.1290, 546.0498
925.2530, 611.4409
926.3770, 726.8369
927.5010, 881.2383
928.6250, 924.6445
929.7480, 1094.057
930.8720, 1263.478
931.9950, 1374.906
933.1180, 1540.344
934.2410, 1608.790
935.3640, 1663.242
936.4860, 1696.701
937.6090, 1644.165
938.7310, 1609.636
939.8530, 1511.113
940.9750, 1381.597
942.0970, 1230.089
943.2180, 1107.587
944.3400, 983.0896
945.4610, 874.5981
946.5820, 762.1172
947.7030, 680.6437
948.8240, 553.1785
949.9450, 509.7244
951.0650, 452.2771
952.1860, 364.8362
953.3060, 417.4001
954.4260, 342.9689
955.5460, 370.5441
956.6650, 301.1243
957.7850, 271.7095
958.9040, 311.2993
960.0230, 195.8958
961.1420, 194.5023
962.2610, 197.1134
963.3800, 165.7290
964.4990, 194.3495
965.6170, 187.9741
966.7350, 135.6034
967.8530, 174.2374
968.9710, 150.8756
970.0890, 167.5179
971.2070, 139.1647
972.3240, 128.8156
973.4410, 125.4706
974.5580, 123.1300
975.6750, 132.7946
976.7920, 117.4631
977.9090, 107.1358
979.0250, 123.8123
980.1410, 105.4926
981.2580, 108.1782
982.3740, 83.86774
983.4890, 96.56134
984.6050, 67.25903
985.7200, 54.96027
986.8360, 61.66498
987.9510, 49.37360
989.0660, 56.08600
990.1810, 56.80206
991.2950, 68.51270
992.4100, 54.23608
993.5240, 69.96271
994.6390, 42.69269
995.7530, 43.23761
996.8660, 38.71307
997.9800, 37.25555
999.0940, 63.00037
1000.207, 26.72394
1001.320, 57.47571
1002.433, 6.769470
1003.546, 20.01367
1004.659, 3.738464
1005.772, 22.50647
1006.884, 9.748535
1007.996, 8.307434
1009.108, 12.09912
1010.220, 9.909790
1011.332, 18.75946
1012.444, 19.13092
1013.555, 16.85236
1014.666, 3.395142
1015.777, 24.59436
1016.888, 34.55096
1017.999, 34.77948
1019.110, 12.05743
1020.220, 3.798950
1021.331, 11.66370
1022.441, 2.911682
1023.551, 9.515747
1024.661, 18.02783
1025.770, 14.89661
1026.880, 36.14337
1027.989, 26.73175
1029.098, 0.5193480
1030.207, 20.03564
1031.316, 12.42609
1032.425, 2.533325
1033.533, 31.27405
1034.642, 18.98090
1035.750, 19.67072
1036.858, 31.35364
1037.966, 39.03638
1039.073, 28.71893
1040.181, 29.40125
1041.288, 49.12280
1042.396, 36.80499
1043.503, 19.50867
1044.610, 57.23676
1045.716, 34.91772
1046.823, 87.63611
1047.929, 36.31604
1049.036, 58.99561
1050.142, 44.72009
1051.248, 69.51764
1052.353, 74.26147
1053.459, 103.9400
1054.564, 73.64453
1055.670, 78.32227
1056.775, 116.9991
1057.880, 108.6757
1058.985, 127.3515
1060.089, 145.0268
1061.194, 145.7010
1062.298, 159.4067
1063.402, 170.2054
1064.506, 143.9299
1065.610, 185.3851
1066.713, 207.0653
1067.817, 186.8111
1068.920, 264.5514
1070.023, 314.2176
1071.126, 334.9385
1072.229, 352.8662
1073.332, 417.5382
1074.435, 438.5322
1075.537, 476.1922
1076.639, 489.8597
1077.741, 524.6134
1078.843, 635.3069
1079.945, 673.3300
1081.046, 820.4968
1082.148, 922.6044
1083.249, 1038.532
1084.350, 1277.200
1085.451, 1460.899
1086.551, 1840.614
1087.652, 2382.688
1088.752, 3028.403
1089.853, 3969.153
1090.953, 5293.897
1092.053, 6753.011
1093.152, 8589.947
1094.252, 9749.611
1095.351, 10176.31
1096.451, 8847.014
1097.550, 7018.633
1098.649, 5237.355
1099.748, 3935.088
1100.846, 2993.711
1101.945, 2286.323
1103.043, 1803.984
1104.141, 1466.642
1105.239, 1187.247
1106.337, 1007.925
1107.434, 805.8334
1108.532, 710.4401
1109.629, 665.0612
1110.726, 557.6924
1111.823, 472.2963
1112.920, 448.2546
1114.017, 358.8950
1115.113, 321.5996
1116.210, 315.3101
1117.306, 288.8840
1118.402, 258.4888
1119.498, 241.1914
1120.593, 223.8663
1121.689, 202.4603
1122.784, 184.2039
1123.879, 169.8416
1124.974, 149.3023
1126.069, 138.0797
1127.164, 116.7051
1128.259, 106.6498
1129.353, 94.49188
1130.447, 88.01666
1131.541, 74.67206
1132.635, 69.38513
1133.729, 59.99341
1134.822, 54.50397
1135.916, 43.30096
1137.009, 40.91760
1138.102, 25.56165
1139.195, 7.867126
1140.288, 18.34760
1141.380, 9.841980
1142.473, 3.879517
1143.565, 6.604248
1144.657, 9.702698
1145.749, 40.72937
1146.841, 9.069397
1147.932, 13.80212
1149.024, 20.54590
1150.115, 23.69348
1151.206, 0.1900630
1152.297, 2.410095
1153.388, 8.734802
1154.479, 6.478210
1155.569, 4.417236
1156.659, 2.793640
1157.750, 15.43494
1158.839, 5.214539
1159.929, 3.365784
1161.019, 8.049927
1162.108, 5.922485
1163.198, 0.4157710
1164.287, 5.710388
1165.376, 17.11115
1166.465, 21.38171
1167.553, 32.93164
1168.642, 29.19354
1169.730, 28.51410
1170.818, 31.71649
1171.906, 15.10449
1172.994, 30.36255
1174.082, 19.66498
1175.170, 13.90057
1176.257, 27.13141
1177.344, 16.38654
1178.431, 39.60834
1179.518, 57.91449
1180.605, 15.12763
1181.691, 5.520508
1182.778, 10.85016
1183.864, 54.22827
1184.950, 20.61157
1186.036, 41.88623
1187.122, 34.07159
1188.207, 50.44611
1189.292, 46.25140
1190.378, 32.01080
1191.463, 33.21167
1192.548, 20.47394
1193.632, 4.764099
1194.717, 16.04370
1195.801, 8.711548
1196.886, 26.49622
1197.970, 10.70276
1199.054, 12.01227
1200.137, 30.17804
1201.221, 16.43890
1202.305, 0.6481320
1203.388, 27.90863
1204.471, 0.8321530
1205.554, 38.39459
1206.637, 28.60022
1207.719, 7.790894
1208.802, 14.04083
1209.884, 1.865234
1210.966, 4.700439
1212.048, 21.45837
1213.130, 0.2792360
1214.212, 26.81317
1215.293, 18.95471
1216.374, 15.26111
1217.456, 3.612000
1218.536, 14.47717
1219.617, 5.665649
1220.698, 6.718994
1221.778, 4.498596
1222.859, 19.47601
1223.939, 25.56897
1225.019, 17.50354
1226.099, 14.43335
1227.178, 40.46741
1228.258, 9.538513
1229.337, 6.642151
1230.417, 33.32568
1231.496, 38.45300
1232.574, 23.64563
1233.653, 23.82770
1234.732, 36.89484
1235.810, 17.98126
1236.888, 1.927368
1237.966, 34.11133
1239.044, 30.15814
1240.122, 27.20471
1241.199, 33.12988
1242.277, 3.778259
1243.354, 23.20227
1244.431, 7.061218
1245.508, 4.913269
1246.585, 36.89258
1247.661, 28.73767
1248.738, 4.579956
1249.814, 10.41821
1250.890, 17.25214
1251.966, 4.081848
1253.042, 16.90710
1254.117, 23.72919
1255.193, 16.54810
1256.268, 17.36353
1257.343, 17.17535
1258.418, 10.11609
1259.493, 8.212097
1260.567, 7.584717
1261.642, 0.6226810
1262.716, 17.16473
1263.790, 22.94879
1264.864, 16.73022
1265.938, 12.51105
1267.011, 42.28815
1268.085, 17.05713
1269.158, 41.52515
1270.231, 37.25641
1271.304, 13.78668
1272.377, 34.63483
1273.450, 49.04108
1274.522, 52.56879
1275.594, 34.32532
1276.666, 5.157471
1277.738, 31.49091
1278.810, 20.21277
1279.882, 38.97424
1280.953, 60.19434
1282.025, 45.53552
1283.096, 46.25549
1284.167, 31.78845
1285.238, 31.25134
1286.308, 27.63904
1287.379, 27.00525
1288.449, 62.37817
1289.519, 24.56458
1290.589, 54.48315
1291.659, 40.52472
1292.729, 13.91449
1293.798, 8.534729
1294.868, 49.25342
1295.937, 6.012146
1297.006, 59.72742
1298.075, 35.46594
1299.143, 41.20306
1300.212, 8.939209
1301.280, 37.63342
1302.348, 26.36444
1303.416, 56.07074
1304.484, 43.74878
1305.552, 35.46991
1306.620, 57.14886
1307.687, 21.86389
1308.754, 46.57843
1309.821, 0.2489010
1310.888, 13.84277
1311.955, 1.492065
1313.021, 0.2024540
1314.088, 24.88202
1315.154, 45.57983
1316.220, 0.2711790
1317.286, 27.95197
1318.352, 13.61829
1319.417, 39.26593
1320.483, 23.89081
1321.548, 16.45007
1322.613, 17.86865
1323.678, 25.35614
1324.743, 31.10809
1325.807, 30.62988
1326.872, 5.080627
1327.936, 38.53101
1329.000, 15.05017
1330.064, 26.50934
1331.128, 12.75623
1332.191, 12.25287
1333.255, 18.33081
1334.318, 22.60876
1335.381, 25.40240
1336.444, 29.79083
1337.507, 24.23419
1338.569, 25.02136
1339.632, 4.303833
1340.694, 14.31372
1341.756, 33.49615
1342.818, 20.93164
1343.880, 5.671265
1344.941, 22.70428
1346.003, 29.71326
1347.064, 5.076416
1348.125, 36.39838
1349.186, 23.17535
1350.247, 40.89612
1351.308, 31.06732
1352.368, 128.6640
1353.428, 87.10071
1354.489, 31.93835
1355.549, 22.62891
1356.608, 14.13989
1357.668, 22.37762
1358.727, 7.235596
1359.787, 3.089172
1360.846, 2.397156
1361.905, 20.27887
1362.964, 15.45105
1364.022, 13.93628
1365.081, 25.47998
1366.139, 23.21460
1367.197, 23.10107
1368.255, 23.92596
1369.313, 39.86890
1370.371, 37.35565
1371.428, 66.17206
1372.486, 80.04010
1373.543, 36.83429
1374.600, 90.73877
1375.657, 76.73688
1376.713, 140.4813
1377.770, 112.1605
1378.826, 152.8412
1379.882, 184.5194
1380.938, 164.4000
1381.994, 223.2988
1383.050, 243.1240
1384.106, 248.9296
1385.161, 223.6907
1386.216, 286.4916
1387.271, 244.8317
1388.326, 240.5061
1389.381, 280.0470
1390.435, 292.8718
1391.490, 303.6320
1392.544, 270.3318
1393.598, 317.0758
1394.652, 352.6892
1395.705, 392.2750
1396.759, 445.9777
1397.812, 462.5576
1398.866, 454.9656
1399.919, 535.5893
1400.972, 553.2394
1402.024, 700.8293
1403.077, 754.4142
1404.129, 808.6367
1405.181, 962.1836
1406.233, 998.7092
1407.285, 1213.196
1408.337, 1273.941
1409.389, 1422.598
1410.440, 1716.379
1411.491, 2037.998
1412.542, 2475.581
1413.593, 3128.342
1414.644, 3673.788
1415.695, 4718.472
1416.745, 5772.167
1417.795, 6799.692
1418.845, 7245.508
1419.895, 7290.345
1420.945, 6987.083
1421.995, 6674.032
1423.044, 6987.872
1424.093, 7803.843
1425.142, 9548.762
1426.191, 12266.73
1427.240, 15735.38
1428.289, 19227.08
1429.337, 21991.57
1430.385, 20688.00
1431.433, 17423.33
1432.481, 13473.53
1433.529, 10096.24
1434.577, 7444.385
1435.624, 5676.889
1436.672, 4313.369
1437.719, 3375.089
1438.766, 2689.424
1439.812, 2128.611
1440.859, 1805.969
1441.905, 1486.504
1442.952, 1322.301
1443.998, 1122.020
1445.044, 1001.793
1446.090, 926.4736
1447.135, 841.7220
1448.181, 819.6446
1449.226, 809.8645
1450.271, 870.1632
1451.316, 947.3738
1452.361, 1114.563
1453.405, 1341.670
1454.450, 1844.839
1455.494, 2635.056
1456.538, 3719.256
1457.582, 5084.327
1458.626, 5362.561
1459.670, 4764.548
1460.713, 3336.672
1461.757, 2324.138
1462.800, 1503.421
1463.843, 1035.901
1464.886, 784.0800
1465.928, 556.4329
1466.971, 430.2896
1468.013, 351.1940
1469.055, 234.1483
1470.097, 247.1765
1471.139, 220.1671
1472.181, 156.2861
1473.222, 203.6761
1474.263, 133.8948
1475.305, 130.2662
1476.346, 148.6307
1477.386, 111.9872
1478.427, 96.33191
1479.468, 90.66638
1480.508, 99.99341
1481.548, 118.3153
1482.588, 122.6274
1483.628, 117.3759
1484.668, 105.2238
1485.707, 89.50916
1486.747, 93.78882
1487.786, 66.05957
1488.825, 56.32446
1489.864, 65.58411
1490.902, 91.83533
1491.941, 52.07410
1492.979, 64.30151
1494.017, 42.51770
1495.055, 66.72144
1496.093, 63.91235
1497.131, 36.08521
1498.168, 52.23779
1499.206, 58.36719
1500.243, 28.47375
1501.280, 65.56348
1502.317, 87.64197
1503.354, 94.71008
1504.390, 82.74402
1505.426, 47.74426
1506.463, 50.72192
1507.499, 61.70886
1508.535, 67.73511
1509.570, 78.86719
1510.606, 63.23535
1511.641, 81.69470
1512.676, 93.16125
1513.711, 111.6382
1514.746, 69.12390
1515.781, 91.62109
1516.816, 101.1328
1517.850, 87.66956
1518.884, 149.2117
1519.918, 132.7870
1520.952, 131.3878
1521.986, 158.0115
1523.019, 177.6511
1524.053, 149.7192
1525.086, 151.6812
1526.119, 167.7422
1527.152, 163.0459
1528.185, 182.4956
1529.217, 170.2948
1530.250, 163.5228
1531.282, 194.0969
1532.314, 132.7443
1533.346, 152.6824
1534.377, 122.6874
1535.409, 151.8340
1536.440, 157.6406
1537.472, 124.0905
1538.503, 168.5958
1539.534, 135.5282
1540.564, 115.5371
1541.595, 168.3068
1542.625, 96.14148
1543.656, 63.55396
1544.686, 77.60620
1545.716, 53.87854
1546.745, 30.04639
1547.775, 48.02783
1548.804, 50.61523
1549.834, 46.16724
1550.863, 74.59937
1551.892, 86.24756
1552.920, 117.3005
1553.949, 139.0204
1554.977, 151.7926
1556.006, 166.9065
1557.034, 57.90234
1558.062, 5.477417
1559.089, 2.008911
1560.117, 33.01611
1561.144, 9.255859
1562.172, 25.66504
1563.199, 26.33801
1564.226, 119.9579
1565.252, 52.62927
1566.279, 44.26294
1567.305, 56.31396
1568.332, 38.99878
1569.358, 3.524658
1570.384, 40.70654
1571.409, 0.0000000E+00
##END=



