##NAMES=Azurite
##RRUFFID=R050497
##IDEAL CHEMISTRY=Cu^2+^_3_(CO_3_)_2_(OH)_2_
##LOCALITY=Tsumeb mine, Tsumeb, Otavi District, Oshikoto, Namibia
##OWNER=RRUFF
##SOURCE=Marcus Origlieri
##DESCRIPTION=Blue prismatic single crystal
##STATUS=The identification of this mineral has been confirmed by X-ray diffraction and chemical analysis
##URL=rruff.info/R050497
##MEASURED CHEMISTRY=Cu_3.00_(CO_3_)_2_(OH)_2_
##PIN_ID=L01223
##ORIENTATION=Laser parallel to -a* (-1 0 0). Fiducial mark perpendicular to laser is parallel to b [0 1 0]
52.67100, 0.0000000E+00
53.91000, 26.50894
55.14900, 32.08145
56.38700, 35.35068
57.62600, 33.22620
58.86400, 51.36237
60.10300, 35.19061
61.34100, 13.33441
62.57900, 2.436829
63.81700, 42.82550
65.05400, 5.431946
66.29200, 57.33612
67.52900, 107.2309
68.76700, 192.0403
70.00400, 462.6097
71.24100, 747.8143
72.47700, 1006.527
73.71400, 1389.617
74.95100, 1981.966
76.18700, 3010.460
77.42300, 4145.005
78.65900, 5706.518
79.89500, 8544.918
81.13100, 10907.14
82.36700, 10561.14
83.60200, 8150.848
84.83700, 5614.287
86.07200, 3882.512
87.30800, 2941.496
88.54200, 2528.173
89.77700, 2347.482
91.01200, 2213.361
92.24600, 2269.750
93.48000, 2229.596
94.71400, 2050.861
95.94800, 1926.513
97.18200, 1855.526
98.41600, 1742.876
99.64900, 1824.545
100.8830, 1900.517
102.1160, 1923.775
103.3490, 1975.310
104.5820, 2306.107
105.8150, 2610.157
107.0470, 3006.451
108.2800, 3687.980
109.5120, 4642.736
110.7440, 4912.712
111.9760, 3647.903
113.2080, 2776.300
114.4400, 2368.027
115.6710, 2275.477
116.9030, 2135.852
118.1340, 1888.146
119.3650, 1820.954
120.5960, 1633.873
121.8270, 1666.834
123.0580, 1619.456
124.2880, 1595.695
125.5190, 1695.001
126.7490, 1671.131
127.9790, 1817.196
129.2090, 1973.196
130.4390, 2116.322
131.6680, 2500.025
132.8980, 2672.868
134.1270, 3189.711
135.3560, 3816.563
136.5850, 4587.436
137.8140, 5221.339
139.0430, 6000.278
140.2710, 6927.262
141.5000, 7234.290
142.7280, 6176.371
143.9560, 4618.508
145.1840, 3359.703
146.4120, 2632.959
147.6390, 2280.280
148.8670, 2032.666
150.0940, 1995.118
151.3210, 1999.640
152.5490, 1993.230
153.7750, 1834.891
155.0020, 1494.623
156.2290, 1303.428
157.4550, 1189.305
158.6810, 1119.255
159.9080, 1155.278
161.1340, 1277.372
162.3590, 1419.539
163.5850, 1641.778
164.8110, 1833.087
166.0360, 2029.468
167.2610, 2388.920
168.4860, 2637.442
169.7110, 2553.036
170.9360, 2226.698
172.1610, 2033.431
173.3850, 1911.234
174.6100, 1887.983
175.8340, 1984.895
177.0580, 2065.309
178.2820, 2178.540
179.5050, 2027.645
180.7290, 2101.041
181.9520, 2417.573
183.1760, 3079.090
184.3990, 3783.396
185.6220, 4660.314
186.8450, 5873.737
188.0670, 7052.132
189.2900, 8339.609
190.5120, 9532.152
191.7340, 10168.77
192.9560, 9832.453
194.1780, 8470.199
195.4000, 7050.015
196.6220, 5642.896
197.8430, 4635.841
199.0640, 3705.854
200.2860, 3281.006
201.5070, 2930.041
202.7270, 2682.951
203.9480, 2336.977
205.1690, 1874.714
206.3890, 1481.716
207.6090, 1224.124
208.8290, 1041.523
210.0490, 991.3666
211.2690, 991.8374
212.4890, 879.0428
213.7080, 826.4954
214.9280, 776.1208
216.1470, 672.9097
217.3660, 595.8545
218.5850, 544.9468
219.8030, 444.1797
221.0220, 408.5464
222.2400, 376.0414
223.4590, 425.6589
224.6770, 383.3943
225.8950, 416.2427
227.1120, 419.2000
228.3300, 453.2629
229.5480, 566.4274
230.7650, 584.6899
231.9820, 763.0481
233.1990, 874.4976
234.4160, 1127.035
235.6330, 1264.657
236.8490, 1534.362
238.0660, 2097.145
239.2820, 2798.006
240.4980, 3793.943
241.7140, 4746.951
242.9300, 6012.033
244.1460, 7603.186
245.3610, 9156.404
246.5770, 8930.691
247.7920, 7105.046
249.0070, 4584.465
250.2220, 3142.946
251.4370, 2143.492
252.6510, 1540.098
253.8660, 1167.765
255.0800, 927.4912
256.2940, 754.2762
257.5080, 590.1189
258.7220, 616.0186
259.9360, 885.9744
261.1490, 969.9846
262.3630, 743.0457
263.5760, 617.1544
264.7890, 614.3059
266.0020, 574.4988
267.2150, 439.7312
268.4270, 501.0043
269.6400, 504.3171
270.8520, 538.6699
272.0640, 614.0624
273.2760, 755.4946
274.4880, 969.9669
275.7000, 1084.479
276.9120, 1196.033
278.1230, 1385.628
279.3340, 1384.265
280.5450, 1305.943
281.7560, 1171.662
282.9670, 955.4243
284.1780, 797.2275
285.3880, 646.0724
286.5980, 571.9587
287.8090, 429.8864
289.0190, 357.8551
290.2290, 273.8647
291.4380, 179.9153
292.6480, 64.00623
293.8570, 72.13757
295.0670, 15.69092
296.2760, 81.48462
297.4850, 95.25537
298.6930, 108.0061
299.9020, 114.7369
301.1110, 172.4523
302.3190, 171.1643
303.5270, 146.8735
304.7350, 214.5752
305.9430, 203.2837
307.1510, 148.9973
308.3580, 230.7035
309.5660, 197.4148
310.7730, 189.1277
311.9800, 136.8341
313.1870, 121.5334
314.3940, 93.21777
315.6010, 63.87341
316.8070, 44.50562
318.0130, 23.89001
319.2200, 9.324341
320.4260, 112.7893
321.6310, 204.2533
322.8370, 239.7057
324.0430, 395.1151
325.2480, 493.4825
326.4540, 580.8086
327.6590, 575.0764
328.8640, 632.3127
330.0680, 594.5391
331.2730, 624.7864
332.4780, 496.0736
333.6820, 484.4031
334.8860, 357.7723
336.0900, 274.1897
337.2940, 267.6539
338.4980, 305.1643
339.7010, 274.7185
340.9050, 271.3103
342.1080, 263.9397
343.3110, 238.6044
344.5140, 332.3062
345.7170, 380.0588
346.9200, 388.8621
348.1220, 380.7163
349.3240, 518.6206
350.5270, 609.5776
351.7290, 639.5911
352.9310, 731.6548
354.1320, 843.7754
355.3340, 1008.943
356.5350, 1089.168
357.7370, 1238.438
358.9380, 1453.753
360.1390, 1586.114
361.3400, 1778.518
362.5400, 1972.966
363.7410, 2210.463
364.9410, 2368.008
366.1410, 2505.593
367.3410, 2810.220
368.5410, 3185.901
369.7410, 3371.620
370.9400, 3798.387
372.1400, 4298.200
373.3390, 4909.057
374.5380, 5464.961
375.7370, 6070.921
376.9360, 6747.931
378.1350, 7570.993
379.3330, 7991.096
380.5310, 8694.247
381.7300, 9389.442
382.9280, 9820.680
384.1260, 10585.97
385.3230, 11341.31
386.5210, 12548.69
387.7180, 14241.12
388.9160, 16575.60
390.1130, 19914.12
391.3100, 24112.69
392.5060, 29198.30
393.7030, 34939.95
394.9000, 40774.63
396.0960, 45972.37
397.2920, 50004.15
398.4880, 51047.96
399.6840, 47952.82
400.8800, 42656.71
402.0750, 35890.64
403.2710, 29976.60
404.4660, 24472.59
405.6610, 20272.62
406.8560, 17036.68
408.0510, 14460.77
409.2450, 12193.88
410.4400, 10661.03
411.6340, 9183.204
412.8280, 8057.404
414.0220, 7115.628
415.2160, 6294.879
416.4100, 5733.155
417.6030, 5081.457
418.7970, 4772.783
419.9900, 4299.136
421.1830, 3901.512
422.3760, 3588.918
423.5690, 3375.345
424.7610, 3135.796
425.9540, 2969.270
427.1460, 2803.765
428.3380, 2563.282
429.5300, 2503.821
430.7220, 2341.381
431.9140, 2163.963
433.1050, 2031.566
434.2970, 1877.190
435.4880, 1806.833
436.6790, 1670.123
437.8700, 1525.181
439.0610, 1450.154
440.2510, 1332.431
441.4420, 1223.067
442.6320, 1096.558
443.8220, 1122.286
445.0120, 1057.192
446.2020, 974.1531
447.3910, 921.3259
448.5810, 887.0918
449.7700, 841.4186
450.9600, 853.5851
452.1490, 815.8611
453.3370, 822.9788
454.5260, 738.0854
455.7150, 786.7336
456.9030, 776.0380
458.0910, 801.7521
459.2800, 749.1797
460.4670, 796.6765
461.6550, 788.4498
462.8430, 726.1461
464.0300, 753.7723
465.2180, 784.4163
466.4050, 750.4937
467.5920, 736.6455
468.7790, 784.2334
469.9650, 721.8829
471.1520, 686.0015
472.3380, 693.8422
473.5250, 562.4697
474.7110, 580.6587
475.8970, 673.8176
477.0820, 634.6332
478.2680, 590.4180
479.4540, 553.9312
480.6390, 578.4243
481.8240, 624.3341
483.0090, 645.0938
484.1940, 548.9087
485.3780, 588.3237
486.5630, 556.1360
487.7470, 497.7975
488.9320, 586.3479
490.1160, 526.8191
491.3000, 478.3033
492.4830, 454.9833
493.6670, 430.1316
494.8500, 432.3882
496.0340, 402.8672
497.2170, 434.4558
498.4000, 407.7141
499.5820, 354.5640
500.7650, 400.4586
501.9480, 344.4424
503.1300, 372.2777
504.3120, 287.5970
505.4940, 251.6774
506.6760, 289.0704
507.8580, 231.9153
509.0390, 238.2908
510.2210, 210.2556
511.4020, 186.0739
512.5830, 206.0305
513.7640, 159.7544
514.9450, 159.8583
516.1250, 173.7281
517.3060, 119.7384
518.4860, 135.9456
519.6660, 171.4806
520.8460, 187.8354
522.0260, 186.2163
523.2060, 145.9224
524.3850, 194.7122
525.5650, 245.3450
526.7440, 236.3828
527.9230, 303.8745
529.1020, 366.5831
530.2810, 456.8831
531.4590, 546.0762
532.6380, 623.4639
533.8160, 767.2844
534.9940, 865.3274
536.1720, 1030.681
537.3500, 1146.021
538.5270, 1142.902
539.7050, 1155.820
540.8820, 1096.094
542.0590, 990.6047
543.2360, 910.5159
544.4130, 795.6217
545.5900, 708.9092
546.7660, 561.1882
547.9430, 532.1143
549.1190, 426.7599
550.2950, 353.0192
551.4710, 366.1732
552.6470, 311.2891
553.8220, 274.1392
554.9980, 249.9655
556.1730, 197.7747
557.3480, 212.5107
558.5230, 149.3917
559.6980, 178.4279
560.8730, 178.6096
562.0470, 153.2903
563.2220, 152.6570
564.3960, 130.4233
565.5700, 119.9857
566.7440, 125.5833
567.9170, 96.09644
569.0910, 72.59924
570.2640, 31.09143
571.4380, 93.57288
572.6110, 105.1775
573.7840, 60.66602
574.9570, 36.14697
576.1290, 19.58325
577.3020, 37.00769
578.4740, 71.42029
579.6460, 64.82068
580.8180, 16.21350
581.9900, 22.61047
583.1620, 5.985962
584.3330, 25.42090
585.5040, 6.837891
586.6760, 29.27673
587.8470, 44.73730
589.0180, 13.21472
590.1880, 20.72278
591.3590, 2.259277
592.5290, 19.19019
593.7000, 4.618652
594.8700, 31.02686
596.0400, 30.57031
597.2090, 9.818481
598.3790, 45.20642
599.5490, 0.3831790
600.7180, 3.033203
601.8870, 4.461426
603.0560, 3.913452
604.2250, 17.38757
605.3940, 16.89282
606.5620, 6.429077
607.7300, 23.99182
608.8990, 13.58984
610.0670, 13.87964
611.2350, 21.13245
612.4020, 1.426636
613.5700, 28.29297
614.7370, 3.052124
615.9050, 1.838623
617.0720, 5.347656
618.2390, 27.48975
619.4060, 22.36841
620.5720, 21.28564
621.7390, 11.24158
622.9050, 13.76880
624.0710, 12.75610
625.2370, 51.72034
626.4030, 15.66541
627.5690, 25.58740
628.7340, 36.48730
629.9000, 57.36658
631.0650, 52.22620
632.2300, 32.06580
633.3950, 1.116455
634.5600, 20.66919
635.7240, 8.430786
636.8890, 50.16455
638.0530, 10.87695
639.2170, 29.56189
640.3810, 28.22314
641.5450, 24.86035
642.7080, 35.47266
643.8720, 14.06140
645.0350, 1.377930
646.1980, 5.852417
647.3610, 40.63513
648.5240, 16.09888
649.6870, 29.46582
650.8490, 38.91846
652.0120, 10.72205
653.1740, 8.404053
654.3360, 1.873291
655.4980, 25.88513
656.6600, 43.69373
657.8210, 30.56226
658.9830, 35.48401
660.1440, 0.4616700
661.3050, 32.47705
662.4660, 5.547119
663.6270, 6.657959
664.7870, 35.81018
665.9480, 58.01904
667.1080, 17.29688
668.2680, 20.62170
669.4280, 13.99597
670.5880, 59.41589
671.7480, 9.4604000E-02
672.9070, 22.09924
674.0670, 6.988525
675.2260, 14.62463
676.3850, 46.28406
677.5440, 39.00647
678.7030, 7.787964
679.8610, 2.387695
681.0200, 1.473877
682.1780, 9.625244
683.3360, 5.082520
684.4940, 1.719849
685.6520, 1.711792
686.8090, 8.455200
687.9670, 16.58655
689.1240, 33.47522
690.2810, 39.33594
691.4380, 41.16919
692.5950, 59.97595
693.7520, 61.28784
694.9080, 62.01941
696.0650, 67.24866
697.2210, 54.95825
698.3770, 42.64270
699.5330, 33.30103
700.6880, 69.93164
701.8440, 22.53894
702.9990, 60.11707
704.1550, 80.67114
705.3100, 75.20276
706.4650, 100.4528
707.6190, 91.63794
708.7740, 111.6647
709.9290, 86.10864
711.0830, 67.53113
712.2370, 79.93066
713.3910, 79.30835
714.5450, 85.68713
715.6980, 115.9988
716.8520, 103.3120
718.0050, 130.6042
719.1580, 130.8754
720.3110, 188.1257
721.4640, 188.3550
722.6170, 195.1158
723.7700, 210.3031
724.9220, 212.4692
726.0740, 165.6146
727.2260, 277.7388
728.3780, 233.8417
729.5300, 313.9235
730.6810, 285.8650
731.8330, 294.5691
732.9840, 360.0784
734.1350, 384.9913
735.2860, 372.9677
736.4370, 416.0242
737.5880, 493.9569
738.7380, 488.5103
739.8880, 531.8152
741.0390, 521.9883
742.1890, 555.1438
743.3380, 561.5653
744.4880, 559.7733
745.6380, 569.6438
746.7870, 583.4382
747.9360, 574.7957
749.0850, 607.0901
750.2340, 693.9153
751.3830, 743.0178
752.5310, 850.3328
753.6800, 957.0864
754.8280, 1072.869
755.9760, 1241.994
757.1240, 1407.149
758.2720, 1660.575
759.4190, 1831.019
760.5670, 1979.046
761.7140, 2060.221
762.8610, 2112.339
764.0080, 2079.856
765.1550, 1916.974
766.3020, 1773.241
767.4480, 1600.617
768.5950, 1405.070
769.7410, 1218.508
770.8870, 1060.747
772.0330, 950.9584
773.1780, 814.9683
774.3240, 761.6067
775.4690, 705.9291
776.6140, 625.5781
777.7590, 531.6320
778.9040, 450.6373
780.0490, 428.5497
781.1940, 440.6062
782.3380, 419.1743
783.4820, 401.9771
784.6260, 325.4626
785.7700, 344.4918
786.9140, 315.9856
788.0580, 324.8846
789.2010, 286.8124
790.3450, 276.8228
791.4880, 271.9474
792.6310, 278.6865
793.7730, 303.6541
794.9160, 277.4755
796.0590, 291.0942
797.2010, 227.3793
798.3430, 265.8384
799.4850, 243.2654
800.6270, 281.3613
801.7690, 217.3667
802.9100, 229.5231
804.0520, 258.2676
805.1930, 194.5518
806.3340, 229.6123
807.4750, 230.0750
808.6160, 206.6744
809.7560, 267.9984
810.8970, 215.9197
812.0370, 248.6115
813.1770, 278.9856
814.3170, 265.3662
815.4570, 298.1985
816.5960, 331.9418
817.7360, 362.8992
818.8750, 427.5918
820.0140, 467.3643
821.1530, 535.9346
822.2920, 619.3156
823.4310, 689.6975
824.5690, 800.4248
825.7070, 952.4243
826.8460, 895.8026
827.9840, 1134.278
829.1220, 1184.784
830.2590, 1326.547
831.3970, 1332.326
832.5340, 1360.114
833.6710, 1322.968
834.8080, 1347.667
835.9450, 1310.203
837.0820, 1207.586
838.2190, 1114.461
839.3550, 1022.641
840.4910, 959.4136
841.6270, 792.3812
842.7630, 724.3051
843.8990, 546.3047
845.0350, 496.3060
846.1700, 394.3092
847.3060, 320.3142
848.4410, 280.1870
849.5760, 213.1675
850.7100, 218.1464
851.8450, 169.1610
852.9800, 87.17847
854.1140, 148.1987
855.2480, 104.2223
856.3820, 107.2491
857.5160, 117.2793
858.6500, 71.31299
859.7830, 90.35327
860.9170, 78.39771
862.0500, 49.44629
863.1830, 71.49902
864.3160, 93.55591
865.4480, 66.61768
866.5810, 73.68396
867.7130, 93.75647
868.8460, 104.8406
869.9780, 135.9332
871.1100, 108.3741
872.2410, 98.58301
873.3730, 121.7324
874.5050, 184.0331
875.6360, 144.7643
876.7670, 180.5260
877.8980, 212.7661
879.0290, 217.8368
880.1590, 196.0916
881.2900, 266.4169
882.4200, 249.8212
883.5500, 252.0830
884.6800, 335.3586
885.8100, 304.8660
886.9400, 362.1814
888.0690, 375.5090
889.1990, 329.8643
890.3280, 395.2368
891.4570, 398.6287
892.5860, 457.0311
893.7140, 462.4541
894.8430, 460.8972
895.9710, 521.3662
897.1000, 505.8550
898.2280, 541.3542
899.3560, 572.8677
900.4830, 604.3982
901.6110, 648.6698
902.7380, 681.4661
903.8660, 738.0717
904.9930, 762.6567
906.1200, 806.2517
907.2460, 859.8573
908.3730, 896.6829
909.5000, 937.4779
910.6260, 1054.519
911.7520, 1089.183
912.8780, 1161.861
914.0040, 1297.555
915.1290, 1471.261
916.2550, 1615.983
917.3800, 1688.723
918.5050, 1908.478
919.6300, 2040.252
920.7550, 2378.045
921.8800, 2709.849
923.0040, 3129.668
924.1290, 3506.513
925.2530, 4185.370
926.3770, 4635.247
927.5010, 5493.147
928.6250, 6456.064
929.7480, 7234.008
930.8720, 8256.982
931.9950, 9121.980
933.1180, 9852.012
934.2410, 10494.06
935.3640, 10912.15
936.4860, 10765.25
937.6090, 10354.37
938.7310, 9909.527
939.8530, 9059.720
940.9750, 8102.937
942.0970, 7383.181
943.2180, 6244.457
944.3400, 5496.768
945.4610, 4704.112
946.5820, 4052.483
947.7030, 3472.873
948.8240, 2963.297
949.9450, 2453.754
951.0650, 2209.241
952.1860, 1905.750
953.3060, 1772.280
954.4260, 1528.832
955.5460, 1506.406
956.6650, 1327.000
957.7850, 1217.615
958.9040, 1215.249
960.0230, 1162.903
961.1420, 1052.574
962.2610, 1001.260
963.3800, 925.9622
964.4990, 876.6790
965.6170, 776.4095
966.7350, 778.1536
967.8530, 758.9116
968.9710, 679.6829
970.0890, 633.4685
971.2070, 620.2695
972.3240, 582.0852
973.4410, 551.8644
974.5580, 521.7598
975.6750, 491.6185
976.7920, 495.4905
977.9090, 470.3751
979.0250, 439.2723
980.1410, 426.9417
981.2580, 372.1030
982.3740, 358.0369
983.4890, 337.9835
984.6050, 252.9426
985.7200, 236.9141
986.8360, 224.8978
987.9510, 223.8938
989.0660, 181.9026
990.1810, 131.9242
991.2950, 138.9576
992.4100, 99.00354
993.5240, 107.0620
994.6390, 123.1321
995.7530, 87.21399
996.8660, 64.30762
997.9800, 52.41309
999.0940, 7.530151
1000.207, 36.65918
1001.320, 50.79993
1002.433, 9.952515
1003.546, 18.11719
1004.659, 20.70679
1005.772, 7.754639
1006.884, 1.559570
1007.996, 11.35352
1009.108, 29.13794
1010.220, 29.65747
1011.332, 5.429077
1012.444, 66.19043
1013.555, 4.403687
1014.666, 7.831299
1015.777, 11.57825
1016.888, 21.61548
1017.999, 14.66956
1019.110, 12.88818
1020.220, 30.59265
1021.331, 5.236694
1022.441, 15.60742
1023.551, 25.08459
1024.661, 22.96350
1025.770, 53.30249
1026.880, 5.946045
1027.989, 53.66895
1029.098, 19.74426
1030.207, 49.05042
1031.316, 39.43506
1032.425, 72.60645
1033.533, 57.94153
1034.642, 71.82117
1035.750, 71.54114
1036.858, 36.15784
1037.966, 53.05518
1039.073, 38.61023
1040.181, 7.115845
1041.288, 8.872803
1042.396, 7.028687
1043.503, 15.23621
1044.610, 40.71204
1045.716, 34.19263
1046.823, 33.00110
1047.929, 643.4928
1049.036, 522.5842
1050.142, 66.84607
1051.248, 719.5801
1052.353, 273.3994
1053.459, 19.95874
1054.564, 63.48975
1055.670, 72.15662
1056.775, 64.72168
1057.880, 105.2700
1058.985, 104.8247
1060.089, 110.7727
1061.194, 115.3387
1062.298, 127.9102
1063.402, 92.49854
1064.506, 162.0811
1065.610, 164.3433
1066.713, 155.7180
1067.817, 214.3152
1068.920, 209.9325
1070.023, 244.5986
1071.126, 273.6660
1072.229, 323.1986
1073.332, 359.6993
1074.435, 441.8300
1075.537, 449.2388
1076.639, 522.9187
1077.741, 576.7076
1078.843, 618.3906
1079.945, 717.4398
1081.046, 756.4104
1082.148, 971.0924
1083.249, 1085.796
1084.350, 1336.476
1085.451, 1657.258
1086.551, 1979.475
1087.652, 2572.807
1088.752, 3327.902
1089.853, 4318.653
1090.953, 5693.440
1092.053, 7308.236
1093.152, 8859.114
1094.252, 9888.906
1095.351, 9688.720
1096.451, 8375.476
1097.550, 6614.257
1098.649, 5075.984
1099.748, 3799.777
1100.846, 2805.548
1101.945, 2257.418
1103.043, 1768.247
1104.141, 1460.914
1105.239, 1140.715
1106.337, 960.4224
1107.434, 802.2039
1108.532, 681.0302
1109.629, 620.6960
1110.726, 561.4688
1111.823, 493.1329
1112.920, 462.8230
1114.017, 385.4985
1115.113, 314.2059
1116.210, 310.8778
1117.306, 289.5898
1118.402, 285.2662
1119.498, 238.0408
1120.593, 236.8425
1121.689, 236.6736
1122.784, 239.3662
1123.879, 196.1317
1124.974, 154.8948
1126.069, 154.5349
1127.164, 143.1727
1128.259, 111.8077
1129.353, 115.4601
1130.447, 55.08948
1131.541, 86.75293
1132.635, 101.4553
1133.729, 28.11304
1134.822, 58.88062
1135.916, 47.49475
1137.009, 25.07703
1138.102, 19.43140
1139.195, 37.08582
1140.288, 17.53406
1141.380, 3.774414
1142.473, 18.96387
1143.565, 41.52283
1144.657, 3.704468
1145.749, 18.19409
1146.841, 18.36121
1147.932, 28.26599
1149.024, 24.32312
1150.115, 28.01172
1151.206, 4.272461
1152.297, 0.8907470
1153.388, 29.62976
1154.479, 14.02747
1155.569, 20.54810
1156.659, 12.87646
1157.750, 2.376465
1158.839, 0.9492190
1159.929, 22.64648
1161.019, 9.225586
1162.108, 23.27917
1163.198, 6.354126
1164.287, 25.95239
1165.376, 0.6171880
1166.465, 18.19861
1167.553, 19.10645
1168.642, 17.48352
1169.730, 7.798584
1170.818, 10.07422
1171.906, 1.656006
1172.994, 1.477661
1174.082, 2.571777
1175.170, 0.5758060
1176.257, 12.67688
1177.344, 14.99951
1178.431, 20.26245
1179.518, 2.400513
1180.605, 22.20862
1181.691, 5.078491
1182.778, 3.283936
1183.864, 11.51978
1184.950, 17.73816
1186.036, 7.914795
1187.122, 13.07300
1188.207, 25.20129
1189.292, 47.45129
1190.378, 1.675781
1191.463, 41.87585
1192.548, 28.99194
1193.632, 20.23340
1194.717, 37.47449
1195.801, 3.326538
1196.886, 5.154541
1197.970, 40.00610
1199.054, 23.14355
1200.137, 13.27832
1201.221, 0.4042970
1202.305, 7.474182
1203.388, 8.655945
1204.471, 4.826538
1205.554, 22.03473
1206.637, 19.92419
1207.719, 43.95697
1208.802, 22.06018
1209.884, 1.034973
1210.966, 30.88531
1212.048, 26.09528
1213.130, 21.96661
1214.212, 28.89575
1215.293, 8.983521
1216.374, 2.021912
1217.456, 4.003174
1218.536, 7.0799999E-03
1219.617, 16.97357
1220.698, 9.674500
1221.778, 9.022400
1222.859, 5.032715
1223.939, 11.01202
1225.019, 8.127441
1226.099, 22.03802
1227.178, 15.92291
1228.258, 29.98688
1229.337, 15.14160
1230.417, 20.93982
1231.496, 4.945618
1232.574, 8.843445
1233.653, 48.80316
1234.732, 16.72943
1235.810, 39.65930
1236.888, 22.52203
1237.966, 12.30884
1239.044, 57.10132
1240.122, 25.85748
1241.199, 60.63098
1242.277, 46.39612
1243.354, 50.16144
1244.431, 42.96869
1245.508, 51.58875
1246.585, 42.19476
1247.661, 50.85394
1248.738, 27.52374
1249.814, 21.12164
1250.890, 14.16632
1251.966, 47.29822
1253.042, 29.87866
1254.117, 30.45325
1255.193, 76.02203
1256.268, 75.58594
1257.343, 64.14484
1258.418, 56.69922
1259.493, 65.24915
1260.567, 53.79395
1261.642, 44.33331
1262.716, 54.86768
1263.790, 28.39716
1264.864, 77.92047
1265.938, 29.43878
1267.011, 63.18542
1268.085, 44.69580
1269.158, 62.20093
1270.231, 10.70233
1271.304, 16.94159
1272.377, 55.43518
1273.450, 46.92419
1274.522, 67.86249
1275.594, 40.02057
1276.666, 74.50330
1277.738, 49.05005
1278.810, 30.52368
1279.882, 86.04980
1280.953, 34.32336
1282.025, 74.43842
1283.096, 29.83185
1284.167, 55.12329
1285.238, 73.01849
1286.308, 44.45807
1287.379, 25.59790
1288.449, 79.66241
1289.519, 54.37927
1290.589, 30.86945
1291.659, 74.28497
1292.729, 51.91870
1293.798, 61.39203
1294.868, 39.32544
1295.937, 90.23108
1297.006, 35.62592
1298.075, 74.55371
1299.143, 100.8278
1300.212, 65.15466
1301.280, 43.97809
1302.348, 61.96893
1303.416, 83.01129
1304.484, 57.89563
1305.552, 40.24786
1306.620, 50.27039
1307.687, 31.61029
1308.754, 70.35150
1309.821, 34.92578
1310.888, 53.03497
1311.955, 44.06519
1313.021, 47.35339
1314.088, 56.66864
1315.154, 59.84314
1316.220, 75.11279
1317.286, 36.38727
1318.352, 41.64038
1319.417, 45.47949
1320.483, 64.66907
1321.548, 33.80957
1322.613, 32.87097
1323.678, 41.93738
1324.743, 45.32251
1325.807, 44.59406
1326.872, 49.14777
1327.936, 48.66736
1329.000, 49.64294
1330.064, 48.21545
1331.128, 42.32092
1332.191, 31.20386
1333.255, 36.96069
1334.318, 81.18372
1335.381, 34.13281
1336.444, 47.96942
1337.507, 56.90845
1338.569, 29.47711
1339.632, 45.12079
1340.694, 70.04834
1341.756, 54.94989
1342.818, 16.13367
1343.880, 37.10553
1344.941, 28.65491
1346.003, 31.11981
1347.064, 32.36249
1348.125, 9.682495
1349.186, 30.77911
1350.247, 21.68231
1351.308, 27.65784
1352.368, 2.306641
1353.428, 41.71191
1354.489, 46.91534
1355.549, 2.976990
1356.608, 18.08923
1357.668, 31.98950
1358.727, 8.211853
1359.787, 38.26068
1360.846, 22.32159
1361.905, 29.46387
1362.964, 27.49017
1364.022, 42.68384
1365.081, 59.82013
1366.139, 57.60968
1367.197, 65.85254
1368.255, 60.75165
1369.313, 62.11377
1370.371, 61.42065
1371.428, 50.86737
1372.486, 113.6731
1373.543, 86.14349
1374.600, 105.3450
1375.657, 82.02008
1376.713, 110.4932
1377.770, 127.8809
1378.826, 122.4315
1379.882, 124.0704
1380.938, 167.6151
1381.994, 189.1285
1383.050, 175.7433
1384.106, 201.2684
1385.161, 193.0048
1386.216, 204.3259
1387.271, 192.2642
1388.326, 217.7372
1389.381, 189.4139
1390.435, 179.9724
1391.490, 207.4419
1392.544, 198.9773
1393.598, 178.4326
1394.652, 197.1420
1395.705, 228.6917
1396.759, 198.3206
1397.812, 271.6147
1398.866, 273.9896
1399.919, 312.5193
1400.972, 348.9742
1402.024, 413.5399
1403.077, 415.0210
1404.129, 479.5769
1405.181, 585.9881
1406.233, 691.2959
1407.285, 736.8021
1408.337, 874.1092
1409.389, 1082.577
1410.440, 1270.968
1411.491, 1564.522
1412.542, 2074.976
1413.593, 2642.483
1414.644, 3492.713
1415.695, 4451.280
1416.745, 5687.689
1417.795, 6620.010
1418.845, 6643.584
1419.895, 6074.882
1420.945, 4977.410
1421.995, 4239.769
1423.044, 2947.178
1424.093, 2175.796
1425.142, 1798.232
1426.191, 1439.645
1427.240, 1236.742
1428.289, 1047.523
1429.337, 925.2547
1430.385, 808.8201
1431.433, 674.4154
1432.481, 579.5762
1433.529, 526.3507
1434.577, 503.2887
1435.624, 400.7104
1436.672, 350.0768
1437.719, 323.2064
1438.766, 280.2535
1439.812, 301.8894
1440.859, 247.3704
1441.905, 288.5394
1442.952, 273.5244
1443.998, 273.6196
1445.044, 238.5202
1446.090, 251.8064
1447.135, 240.1497
1448.181, 260.2480
1449.226, 296.9038
1450.271, 273.6234
1451.316, 346.3660
1452.361, 402.0964
1453.405, 517.7234
1454.450, 670.5146
1455.494, 927.2062
1456.538, 1290.930
1457.582, 1627.811
1458.626, 1702.476
1459.670, 1453.101
1460.713, 1053.714
1461.757, 672.1997
1462.800, 526.7054
1463.843, 336.1219
1464.886, 298.5788
1465.928, 213.0098
1466.971, 259.3946
1468.013, 148.7765
1469.055, 175.2201
1470.097, 172.8721
1471.139, 166.5390
1472.181, 221.1597
1473.222, 160.8632
1474.263, 147.7263
1475.305, 192.5438
1476.346, 156.4326
1477.386, 163.3062
1478.427, 163.1647
1479.468, 134.0063
1480.508, 161.8291
1481.548, 163.6351
1482.588, 199.4235
1483.628, 128.1948
1484.668, 146.9464
1485.707, 154.6790
1486.747, 174.3951
1487.786, 170.8076
1488.825, 153.7673
1489.864, 150.4235
1490.902, 113.0598
1491.941, 74.67566
1492.979, 161.2678
1494.017, 126.8372
1495.055, 134.3818
1496.093, 104.9022
1497.131, 85.39624
1498.168, 72.86340
1499.206, 89.29919
1500.243, 73.70740
1501.280, 77.10107
1502.317, 91.48621
1503.354, 45.86804
1504.390, 58.22815
1505.426, 63.53223
1506.463, 71.81885
1507.499, 77.12292
1508.535, 99.49695
1509.570, 50.02698
1510.606, 54.90674
1511.641, 95.91650
1512.676, 108.9347
1513.711, 51.96313
1514.746, 92.00134
1515.781, 88.04700
1516.816, 110.1064
1517.850, 95.18445
1518.884, 73.28491
1519.918, 94.40979
1520.952, 93.54639
1521.986, 122.7574
1523.019, 111.2930
1524.053, 113.3351
1525.086, 123.0414
1526.119, 118.1133
1527.152, 113.8650
1528.185, 123.2455
1529.217, 143.1589
1530.250, 149.4297
1531.282, 140.0142
1532.314, 154.8792
1533.346, 147.7783
1534.377, 131.7542
1535.409, 117.2755
1536.440, 148.4609
1537.472, 113.2931
1538.503, 155.6611
1539.534, 108.9509
1540.564, 135.3199
1541.595, 127.8423
1542.625, 93.30017
1543.656, 141.8635
1544.686, 92.48267
1545.716, 102.5122
1546.745, 105.7726
1547.775, 51.77661
1548.804, 83.52832
1549.834, 81.74707
1550.863, 137.1646
1551.892, 181.3862
1552.920, 196.1010
1553.949, 218.2114
1554.977, 186.0859
1556.006, 248.7135
1557.034, 99.97302
1558.062, 57.49512
1559.089, 18.87720
1560.117, 10.45801
1561.144, 7.081543
1562.172, 65.73108
1563.199, 34.24268
1564.226, 106.1338
1565.252, 92.42102
1566.279, 105.7012
1567.305, 35.85522
1568.332, 10.52930
1569.358, 60.71118
1570.384, 29.83228
1571.409, 0.0000000E+00
##END=



