##NAMES=Azurite
##RRUFFID=R050497
##IDEAL CHEMISTRY=Cu^2+^_3_(CO_3_)_2_(OH)_2_
##LOCALITY=Tsumeb mine, Tsumeb, Otavi District, Oshikoto, Namibia
##OWNER=RRUFF
##SOURCE=Marcus Origlieri
##DESCRIPTION=Blue prismatic single crystal
##STATUS=The identification of this mineral has been confirmed by X-ray diffraction and chemical analysis
##URL=rruff.info/R050497
##MEASURED CHEMISTRY=Cu_3.00_(CO_3_)_2_(OH)_2_
##PIN_ID=L01397
##ORIENTATION=Laser parallel to (-1 0 -1). Fiducial mark perpendicular to laser is parallel to -b [0 -1 0]
52.67100, 0.0000000E+00
53.91000, 13.51343
55.14900, 9.002014
56.38700, 28.61212
57.62600, 27.04251
58.86400, 43.35614
60.10300, 34.53555
61.34100, 26.01611
62.57900, 9.454071
63.81700, 11.76584
65.05400, 17.09973
66.29200, 8.202972
67.52900, 8.384491
68.76700, 19.59384
70.00400, 76.36389
71.24100, 170.6418
72.47700, 195.3821
73.71400, 128.5505
74.95100, 121.1866
76.18700, 205.3018
77.42300, 256.8325
78.65900, 251.7260
79.89500, 221.9406
81.13100, 341.4430
82.36700, 450.2062
83.60200, 645.2085
84.83700, 678.4319
86.07200, 513.8617
87.30800, 347.4857
88.54200, 351.2933
89.77700, 339.2762
91.01200, 373.4223
92.24600, 480.7179
93.48000, 540.1658
94.71400, 484.9154
95.94800, 473.3145
97.18200, 448.3601
98.41600, 387.5282
99.64900, 392.7037
100.8830, 453.8924
102.1160, 396.0995
103.3490, 394.3302
104.5820, 395.5889
105.8150, 488.8794
107.0470, 732.2057
108.2800, 982.5706
109.5120, 1428.977
110.7440, 1953.429
111.9760, 1894.927
113.2080, 1543.474
114.4400, 1128.072
115.6710, 883.7231
116.9030, 786.4282
118.1340, 650.1894
119.3650, 604.0079
120.5960, 490.8856
121.8270, 512.8237
123.0580, 613.8233
124.2880, 797.8857
125.5190, 857.0117
126.7490, 1072.190
127.9790, 1625.380
129.2090, 2910.579
130.4390, 5261.788
131.6680, 6544.005
132.8980, 5156.268
134.1270, 3194.026
135.3560, 2217.149
136.5850, 1710.912
137.8140, 1629.886
139.0430, 1875.171
140.2710, 2405.533
141.5000, 3291.175
142.7280, 4115.873
143.9560, 4041.757
145.1840, 2972.700
146.4120, 1849.699
147.6390, 1257.756
148.8670, 915.8705
150.0940, 752.0424
151.3210, 755.2720
152.5490, 909.5591
153.7750, 1039.904
155.0020, 897.3052
156.2290, 672.7643
157.4550, 443.2803
158.6810, 319.8538
159.9080, 340.4841
161.1340, 273.1713
162.3590, 399.9152
163.5850, 489.7158
164.8110, 573.5728
166.0360, 809.4865
167.2610, 1129.457
168.4860, 1640.483
169.7110, 2265.564
170.9360, 2645.699
172.1610, 2193.886
173.3850, 1570.127
174.6100, 1039.422
175.8340, 830.7715
177.0580, 775.1749
178.2820, 816.6335
179.5050, 740.1472
180.7290, 546.7166
181.9520, 350.3418
183.1760, 286.0229
184.3990, 222.7603
185.6220, 217.5538
186.8450, 307.4038
188.0670, 376.3101
189.2900, 457.2726
190.5120, 525.2914
191.7340, 707.3657
192.9560, 918.4962
194.1780, 946.6823
195.4000, 879.9238
196.6220, 771.2207
197.8430, 655.5728
199.0640, 543.9797
200.2860, 582.1208
201.5070, 549.2153
202.7270, 540.2559
203.9480, 535.3030
205.1690, 413.3423
206.3890, 140.3162
207.6090, 30.26086
208.8290, 50.34705
210.0490, 21.32263
211.2690, 20.61951
212.4890, 0.7857670
213.7080, 40.75232
214.9280, 13.71350
216.1470, 37.88989
217.3660, 40.43860
218.5850, 37.70605
219.8030, 87.91406
221.0220, 94.07251
222.2400, 70.18445
223.4590, 117.2479
224.6770, 99.27222
225.8950, 105.2565
227.1120, 103.1008
228.3300, 62.11230
229.5480, 61.97900
230.7650, 23.80396
231.9820, 31.41724
233.1990, 84.68652
234.4160, 188.0031
235.6330, 274.3663
236.8490, 371.7755
238.0660, 297.2300
239.2820, 210.7292
240.4980, 177.2726
241.7140, 171.8589
242.9300, 229.4852
244.1460, 316.1488
245.3610, 421.8490
246.5770, 650.5864
247.7920, 801.3606
249.0070, 632.1718
250.2220, 471.0200
251.4370, 381.9053
252.6510, 409.8276
253.8660, 441.7867
255.0800, 397.7828
256.2940, 576.8154
257.5080, 764.8850
258.7220, 1142.991
259.9360, 1676.134
261.1490, 2288.313
262.3630, 2781.529
263.5760, 3255.780
264.7890, 3538.068
266.0020, 3213.392
267.2150, 2707.751
268.4270, 2241.146
269.6400, 1855.576
270.8520, 1763.041
272.0640, 1762.542
273.2760, 1922.077
274.4880, 2230.647
275.7000, 2866.253
276.9120, 3370.893
278.1230, 4077.576
279.3340, 4687.294
280.5450, 4982.052
281.7560, 4844.844
282.9670, 4350.653
284.1780, 3740.467
285.3880, 2966.270
286.5980, 2361.068
287.8090, 1877.885
289.0190, 1452.746
290.2290, 1149.649
291.4380, 833.5940
292.6480, 666.5784
293.8570, 575.6075
295.0670, 451.6870
296.2760, 350.8170
297.4850, 278.9983
298.6930, 220.6387
299.9020, 197.4873
301.1110, 160.7987
302.3190, 144.1523
303.5270, 135.5510
304.7350, 146.9891
305.9430, 123.4707
307.1510, 107.9988
308.3580, 82.57227
309.5660, 81.91943
310.7730, 58.85242
311.9800, 89.55017
313.1870, 96.28638
314.3940, 116.0636
315.6010, 84.88635
316.8070, 169.7528
318.0130, 180.6528
319.2200, 159.5861
320.4260, 232.5635
321.6310, 228.5740
322.8370, 303.6210
324.0430, 328.7020
325.2480, 433.8171
326.4540, 466.9644
327.6590, 610.1445
328.8640, 678.3568
330.0680, 673.6061
331.2730, 729.8873
332.4780, 739.2000
333.6820, 741.5513
334.8860, 670.9369
336.0900, 645.3530
337.2940, 622.8000
338.4980, 622.2776
339.7010, 621.7844
340.9050, 616.3259
342.1080, 632.8997
343.3110, 689.5066
344.5140, 712.1465
345.7170, 781.8237
346.9200, 854.5404
348.1220, 916.2949
349.3240, 921.0879
350.5270, 1080.918
351.7290, 1156.786
352.9310, 1253.692
354.1320, 1456.634
355.3340, 1517.613
356.5350, 1746.629
357.7370, 1938.663
358.9380, 2096.757
360.1390, 2376.589
361.3400, 2642.751
362.5400, 2830.885
363.7410, 3174.170
364.9410, 3520.664
366.1410, 3861.938
367.3410, 4308.175
368.5410, 4798.270
369.7410, 5308.811
370.9400, 5984.781
372.1400, 6678.879
373.3390, 7486.610
374.5380, 8388.386
375.7370, 9319.415
376.9360, 10209.00
378.1350, 11450.62
379.3330, 12385.28
380.5310, 13302.98
381.7300, 14037.70
382.9280, 14808.46
384.1260, 15146.25
385.3230, 15589.07
386.5210, 15659.92
387.7180, 16130.80
388.9160, 16913.72
390.1130, 17685.67
391.3100, 19411.65
392.5060, 21606.66
393.7030, 24932.69
394.9000, 29789.76
396.0960, 35254.86
397.2920, 41832.98
398.4880, 48120.14
399.6840, 51281.34
400.8800, 50201.55
402.0750, 45588.79
403.2710, 38815.08
404.4660, 32315.39
405.6610, 26702.73
406.8560, 22028.10
408.0510, 18710.50
409.2450, 15824.92
410.4400, 13646.38
411.6340, 11563.85
412.8280, 10213.36
414.0220, 8695.893
415.2160, 7580.451
416.4100, 6556.033
417.6030, 5782.640
418.7970, 5168.275
419.9900, 4557.932
421.1830, 4219.925
422.3760, 3719.928
423.5690, 3381.076
424.7610, 3065.703
425.9540, 2817.161
427.1460, 2606.476
428.3380, 2430.964
429.5300, 2184.721
430.7220, 2001.237
431.9140, 1848.472
433.1050, 1707.345
434.2970, 1604.120
435.4880, 1407.472
436.6790, 1259.069
437.8700, 1171.089
439.0610, 1073.244
440.2510, 931.6191
441.4420, 879.1426
442.6320, 723.8867
443.8220, 671.4795
445.0120, 632.9176
446.2020, 563.1387
447.3910, 498.0345
448.5810, 499.0071
449.7700, 425.7057
450.9600, 377.2522
452.1490, 360.9404
453.3370, 335.7167
454.5260, 322.4352
455.7150, 360.5604
456.9030, 321.3568
458.0910, 315.3348
459.2800, 328.8359
460.4670, 266.1757
461.6550, 258.5300
462.8430, 239.3347
464.0300, 248.7354
465.2180, 253.8622
466.4050, 212.5901
467.5920, 197.3184
468.7790, 184.7551
469.9650, 169.0546
471.1520, 162.7881
472.3380, 162.5461
473.5250, 150.1411
474.7110, 155.6403
475.8970, 145.9390
477.0820, 140.2112
478.2680, 135.2942
479.4540, 128.3539
480.6390, 120.9095
481.8240, 124.4758
483.0090, 122.0370
484.1940, 87.22888
485.3780, 103.6700
486.5630, 100.0614
487.7470, 74.12476
488.9320, 84.59839
490.1160, 60.67468
491.3000, 47.85168
492.4830, 31.74573
493.6670, 8.870483
494.8500, 52.76184
496.0340, 12.53027
497.2170, 77.33179
498.4000, 29.54028
499.5820, 17.31982
500.7650, 49.31201
501.9480, 17.07263
503.1300, 41.78967
504.3120, 4.592407
505.4940, 0.4134520
506.6760, 46.32971
507.8580, 46.11169
509.0390, 35.97803
510.2210, 4.139526
511.4020, 15.76575
512.5830, 41.62170
513.7640, 33.47437
514.9450, 41.51575
516.1250, 83.77795
517.3060, 51.95312
518.4860, 27.47766
519.6660, 80.98389
520.8460, 98.93604
522.0260, 138.6189
523.2060, 171.4977
524.3850, 181.3885
525.5650, 237.9790
526.7440, 256.3407
527.9230, 298.2975
529.1020, 358.5533
530.2810, 421.5852
531.4590, 507.5740
532.6380, 597.1797
533.8160, 696.6458
534.9940, 821.7078
536.1720, 900.9036
537.3500, 1094.306
538.5270, 1135.481
539.7050, 1134.878
540.8820, 1047.455
542.0590, 970.0884
543.2360, 833.7034
544.4130, 705.5447
545.5900, 609.2086
546.7660, 415.6824
547.9430, 331.1832
549.1190, 257.5260
550.2950, 174.9064
551.4710, 138.4542
552.6470, 158.2682
553.8220, 86.36731
554.9980, 59.34570
556.1730, 57.23425
557.3480, 17.10498
558.5230, 5.986938
559.6980, 26.17090
560.8730, 31.06274
562.0470, 22.01965
563.2220, 1.835083
564.3960, 22.95776
565.5700, 30.79822
566.7440, 44.01709
567.9170, 23.26624
569.0910, 25.53564
570.2640, 29.18402
571.4380, 24.14294
572.6110, 35.48071
573.7840, 10.84674
574.9570, 8.229248
576.1290, 0.3724980
577.3020, 21.03790
578.4740, 44.47095
579.6460, 45.93854
580.8180, 48.89252
581.9900, 1.017273
583.1620, 36.53717
584.3330, 16.12366
585.5040, 12.73267
586.6760, 25.36273
587.8470, 2.020630
589.0180, 19.69507
590.1880, 31.39502
591.3590, 28.12671
592.5290, 29.88879
593.7000, 13.68250
594.8700, 5.500000
596.0400, 1.332275
597.2090, 12.18292
598.3790, 30.05750
599.5490, 23.96558
600.7180, 30.09576
601.8870, 48.14661
603.0560, 25.81323
604.2250, 27.19452
605.3940, 3.190918
606.5620, 14.16913
607.7300, 15.13306
608.8990, 38.08252
610.0670, 20.02081
611.2350, 62.94531
612.4020, 3.141602
613.5700, 26.74872
614.7370, 47.62592
615.9050, 11.50867
617.0720, 7.328735
618.2390, 35.14740
619.4060, 30.95355
620.5720, 57.74640
621.7390, 50.52710
622.9050, 3.295532
624.0710, 12.04218
625.2370, 6.770508
626.4030, 8.478333
627.5690, 18.16608
628.7340, 7.836853
629.9000, 19.48688
631.0650, 17.03564
632.2300, 28.73444
633.3950, 20.33380
634.5600, 30.91577
635.7240, 40.48224
636.8890, 39.03455
638.0530, 20.57239
639.2170, 43.09198
640.3810, 30.59729
641.5450, 48.08636
642.7080, 68.56134
643.8720, 46.02264
645.0350, 34.46948
646.1980, 71.88007
647.3610, 55.29688
648.5240, 47.69952
649.6870, 48.08722
650.8490, 48.38916
652.0120, 57.74670
653.1740, 71.08960
654.3360, 44.41809
655.4980, 33.73022
656.6600, 39.02423
657.8210, 24.30078
658.9830, 25.55695
660.1440, 11.79285
661.3050, 20.14496
662.4660, 26.19446
663.6270, 39.36389
664.7870, 24.51526
665.9480, 34.64557
667.1080, 61.75684
668.2680, 40.85254
669.4280, 10.93011
670.5880, 63.98248
671.7480, 26.01917
672.9070, 32.03467
674.0670, 56.03015
675.2260, 47.00897
676.3850, 35.97015
677.5440, 48.91162
678.7030, 36.68048
679.8610, 28.73993
681.0200, 26.62317
682.1780, 27.48480
683.3360, 19.25000
684.4940, 25.72772
685.6520, 33.93671
686.8090, 32.71124
687.9670, 40.46631
689.1240, 38.53894
690.2810, 44.34894
691.4380, 57.61597
692.5950, 56.29651
693.7520, 65.95972
694.9080, 76.60681
696.0650, 82.23834
697.2210, 76.85455
698.3770, 49.45544
699.5330, 75.03821
700.6880, 71.60535
701.8440, 46.84631
702.9990, 72.08612
704.1550, 45.18762
705.3100, 89.81787
706.4650, 88.62622
707.6190, 87.58508
708.7740, 74.37970
709.9290, 91.91351
711.0830, 69.69629
712.2370, 121.7694
713.3910, 75.21265
714.5450, 118.7620
715.6980, 125.7431
716.8520, 136.4863
718.0050, 144.8141
719.1580, 176.0145
720.3110, 175.0013
721.4640, 211.8474
722.6170, 170.4799
723.7700, 234.2701
724.9220, 278.2291
726.0740, 273.4119
727.2260, 330.9260
728.3780, 378.3694
729.5300, 391.0929
730.6810, 493.9739
731.8330, 576.7190
732.9840, 610.3813
734.1350, 713.1069
735.2860, 807.4304
736.4370, 914.0882
737.5880, 1035.638
738.7380, 1117.535
739.8880, 1146.666
741.0390, 1147.787
742.1890, 1235.461
743.3380, 1214.544
744.4880, 1236.905
745.6380, 1261.668
746.7870, 1313.926
747.9360, 1377.496
749.0850, 1486.344
750.2340, 1642.389
751.3830, 1797.228
752.5310, 2038.150
753.6800, 2258.170
754.8280, 2562.393
755.9760, 3008.706
757.1240, 3366.672
758.2720, 3748.567
759.4190, 4141.553
760.5670, 4564.529
761.7140, 4893.519
762.8610, 5102.881
764.0080, 4982.994
765.1550, 4810.159
766.3020, 4410.663
767.4480, 4037.747
768.5950, 3455.232
769.7410, 3080.615
770.8870, 2620.288
772.0330, 2321.730
773.1780, 1983.405
774.3240, 1640.203
775.4690, 1478.970
776.6140, 1331.330
777.7590, 1144.119
778.9040, 985.6938
780.0490, 885.5000
781.1940, 762.3506
782.3380, 666.1147
783.4820, 610.6915
784.6260, 615.5222
785.7700, 499.3250
786.9140, 464.0553
788.0580, 394.7772
789.2010, 340.4915
790.3450, 329.2670
791.4880, 247.0591
792.6310, 251.6752
793.7730, 273.0762
794.9160, 254.5693
796.0590, 193.7133
797.2010, 224.8726
798.3430, 198.5831
799.4850, 241.5598
800.6270, 227.6893
801.7690, 208.0990
802.9100, 194.1578
804.0520, 170.4417
805.1930, 165.1268
806.3340, 168.5088
807.4750, 142.0779
808.6160, 149.7516
809.7560, 132.7715
810.8970, 104.9263
812.0370, 131.4808
813.1770, 117.8969
814.3170, 127.1017
815.4570, 136.5291
816.5960, 182.7289
817.7360, 259.7444
818.8750, 295.6982
820.0140, 353.6650
821.1530, 347.4001
822.2920, 487.3071
823.4310, 521.3986
824.5690, 549.6669
825.7070, 661.8777
826.8460, 763.0449
827.9840, 849.3077
829.1220, 907.7603
830.2590, 983.1901
831.3970, 1050.735
832.5340, 1261.362
833.6710, 1387.001
834.8080, 1679.622
835.9450, 1869.934
837.0820, 1991.531
838.2190, 2166.096
839.3550, 2226.380
840.4910, 2170.963
841.6270, 2083.250
842.7630, 1877.898
843.8990, 1593.558
845.0350, 1346.224
846.1700, 1154.896
847.3060, 928.5760
848.4410, 766.2629
849.5760, 656.9594
850.7100, 578.6600
851.8450, 476.3638
852.9800, 406.0695
854.1140, 352.7821
855.2480, 270.5076
856.3820, 202.2466
857.5160, 213.0000
858.6500, 159.7558
859.7830, 138.5232
860.9170, 98.01361
862.0500, 84.81665
863.1830, 110.6064
864.3160, 91.39996
865.4480, 58.20178
866.5810, 61.01495
867.7130, 31.83881
868.8460, 45.67401
869.9780, 20.51660
871.1100, 21.36200
872.2410, 28.26709
873.3730, 20.19818
874.5050, 27.51508
875.6360, 38.48364
876.7670, 36.02191
877.8980, 40.24670
879.0290, 36.15839
880.1590, 36.05310
881.2900, 23.96448
882.4200, 29.86627
883.5500, 27.37537
884.6800, 59.12646
885.8100, 25.29205
886.9400, 41.57483
888.0690, 29.73853
889.1990, 14.65820
890.3280, 3.613281
891.4570, 5.123291
892.5860, 12.13879
893.7140, 14.82874
894.8430, 21.61346
895.9710, 27.02509
897.1000, 46.57690
898.2280, 43.07397
899.3560, 57.03052
900.4830, 20.03931
901.6110, 0.9984130
902.7380, 27.96747
903.8660, 51.11163
904.9930, 54.08667
906.1200, 48.04010
907.2460, 37.02216
908.3730, 41.00806
909.5000, 42.11365
910.6260, 21.41931
911.7520, 60.41266
912.8780, 69.41010
914.0040, 87.40979
915.1290, 58.41278
916.2550, 56.41797
917.3800, 43.48712
918.5050, 47.49658
919.6300, 63.51056
920.7550, 82.52667
921.8800, 84.56689
923.0040, 30.56659
924.1290, 88.59076
925.2530, 87.61749
926.3770, 74.64929
927.5010, 114.6834
928.6250, 146.7207
929.7480, 139.7623
930.8720, 173.8076
931.9950, 173.8580
933.1180, 216.9137
934.2410, 256.9764
935.3640, 244.0452
936.4860, 268.1193
937.6090, 288.1976
938.7310, 266.2830
939.8530, 261.0190
940.9750, 220.4661
942.0970, 198.5634
943.2180, 167.6685
944.3400, 110.7766
945.4610, 150.8919
946.5820, 147.0150
947.7030, 84.14520
948.8240, 95.28210
949.9450, 71.42749
951.0650, 91.57703
952.1860, 81.73145
953.3060, 53.89160
954.4260, 48.05798
955.5460, 48.23077
956.6650, 8.410400
957.7850, 12.59698
958.9040, 11.21112
960.0230, 27.98492
961.1420, 13.18604
962.2610, 33.39221
963.3800, 15.60327
964.4990, 5.820618
965.6170, 38.04230
966.7350, 29.26752
967.8530, 21.49878
968.9710, 22.73315
970.0890, 56.97095
971.2070, 38.21820
972.3240, 24.46893
973.4410, 70.72339
974.5580, 13.98230
975.6750, 51.24609
976.7920, 43.51727
977.9090, 32.79169
979.0250, 13.06891
980.1410, 40.34900
981.2580, 34.63208
982.3740, 50.91827
983.4890, 51.97363
984.6050, 43.50079
985.7200, 39.79718
986.8360, 32.09882
987.9510, 3.403381
989.0660, 25.71063
990.1810, 15.02026
991.2950, 5.332397
992.4100, 45.64697
993.5240, 16.96399
994.6390, 36.71643
995.7530, 1.409668
996.8660, 15.89917
997.9800, 28.21033
999.0940, 30.52356
1000.207, 29.37585
1001.320, 27.44965
1002.433, 10.47540
1003.546, 14.79645
1004.659, 1.119690
1005.772, 2.554871
1006.884, 3.228455
1007.996, 12.90039
1009.108, 3.574829
1010.220, 7.751892
1011.332, 5.080139
1012.444, 0.5890500
1013.555, 1.743103
1014.666, 0.1909790
1015.777, 3.411438
1016.888, 2.747498
1017.999, 11.90222
1019.110, 7.461792
1020.220, 9.945007
1021.331, 6.979858
1022.441, 5.879395
1023.551, 0.7843630
1024.661, 1.451233
1025.770, 14.10944
1026.880, 16.76361
1027.989, 18.22693
1029.098, 11.12280
1030.207, 13.78345
1031.316, 12.47412
1032.425, 0.8316650
1033.533, 0.8615110
1034.642, 16.44556
1035.750, 8.744690
1036.858, 3.946350
1037.966, 34.36230
1039.073, 19.32819
1040.181, 10.97461
1041.288, 43.27814
1042.396, 10.58240
1043.503, 9.112671
1044.610, 9.189026
1045.716, 5.492676
1046.823, 14.79633
1047.929, 21.10083
1049.036, 34.40643
1050.142, 0.2821660
1051.248, 5.024231
1052.353, 74.62366
1053.459, 58.93115
1054.564, 32.25763
1055.670, 62.72998
1056.775, 42.04071
1057.880, 65.35199
1058.985, 52.27600
1060.089, 68.61194
1061.194, 85.94861
1062.298, 105.3235
1063.402, 84.64490
1064.506, 97.96606
1065.610, 77.31372
1066.713, 85.63910
1067.817, 100.0047
1068.920, 138.3457
1070.023, 145.7336
1071.126, 165.3422
1072.229, 182.6841
1073.332, 190.0903
1074.435, 217.4504
1075.537, 193.7858
1076.639, 228.1549
1077.741, 272.8098
1078.843, 272.7397
1079.945, 362.8967
1081.046, 375.8492
1082.148, 455.9955
1083.249, 512.3702
1084.350, 601.6923
1085.451, 680.0143
1086.551, 809.3975
1087.652, 982.8236
1088.752, 1287.144
1089.853, 1593.635
1090.953, 2082.959
1092.053, 2666.196
1093.152, 3424.579
1094.252, 4392.895
1095.351, 5006.290
1096.451, 5239.175
1097.550, 4634.578
1098.649, 3608.948
1099.748, 2700.937
1100.846, 2018.310
1101.945, 1529.682
1103.043, 1194.208
1104.141, 947.5758
1105.239, 777.9905
1106.337, 618.2954
1107.434, 493.9825
1108.532, 446.9500
1109.629, 416.3400
1110.726, 318.6749
1111.823, 264.9927
1112.920, 254.3684
1114.017, 234.7603
1115.113, 182.0551
1116.210, 155.8556
1117.306, 170.1993
1118.402, 156.1179
1119.498, 129.4980
1120.593, 134.8230
1121.689, 119.1054
1122.784, 114.4414
1123.879, 101.7767
1124.974, 109.0920
1126.069, 117.4461
1127.164, 85.02118
1128.259, 71.33502
1129.353, 90.68750
1130.447, 64.95062
1131.541, 64.21161
1132.635, 35.55786
1133.729, 19.83215
1134.822, 56.08899
1135.916, 64.44550
1137.009, 40.80127
1138.102, 41.99420
1139.195, 45.35474
1140.288, 31.16504
1141.380, 48.45490
1142.473, 16.70654
1143.565, 23.15558
1144.657, 30.43384
1145.749, 21.66565
1146.841, 19.90216
1147.932, 24.12921
1149.024, 12.38898
1150.115, 6.256226
1151.206, 4.038147
1152.297, 16.14197
1153.388, 4.145630
1154.479, 14.37286
1155.569, 33.57361
1156.659, 13.74884
1157.750, 11.35565
1158.839, 23.80017
1159.929, 31.15289
1161.019, 7.874084
1162.108, 17.46130
1163.198, 24.18835
1164.287, 14.44733
1165.376, 19.57880
1166.465, 22.18939
1167.553, 44.98291
1168.642, 26.14764
1169.730, 30.32562
1170.818, 22.77820
1171.906, 53.94684
1172.994, 17.14484
1174.082, 45.30865
1175.170, 26.03845
1176.257, 14.28558
1177.344, 28.53656
1178.431, 37.77478
1179.518, 21.03967
1180.605, 14.25940
1181.691, 18.43042
1182.778, 1.399536
1183.864, 25.73914
1184.950, 11.91467
1186.036, 1.052307
1187.122, 22.61414
1188.207, 29.77081
1189.292, 6.920959
1190.378, 14.51959
1191.463, 14.80438
1192.548, 6.026062
1193.632, 19.29327
1194.717, 20.47644
1195.801, 13.68030
1196.886, 19.30011
1197.970, 9.957214
1199.054, 16.11389
1200.137, 5.303711
1201.221, 0.5782470
1202.305, 8.679504
1203.388, 9.761047
1204.471, 12.93420
1205.554, 19.10693
1206.637, 11.32544
1207.719, 1.439819
1208.802, 6.333374
1209.884, 10.22375
1210.966, 6.757629
1212.048, 10.09344
1213.130, 11.02234
1214.212, 29.03168
1215.293, 44.22638
1216.374, 9.328857
1217.456, 3.380615
1218.536, 50.39819
1219.617, 1.404602
1220.698, 23.53363
1221.778, 2.532837
1222.859, 9.598999
1223.939, 25.59375
1225.019, 6.743164
1226.099, 6.112000
1227.178, 4.854248
1228.258, 12.88110
1229.337, 8.033630
1230.417, 11.94995
1231.496, 12.03790
1232.574, 16.96643
1233.653, 12.98602
1234.732, 2.938171
1235.810, 28.94012
1236.888, 3.124817
1237.966, 8.150757
1239.044, 6.762024
1240.122, 19.67212
1241.199, 23.57977
1242.277, 9.486389
1243.354, 5.390259
1244.431, 28.29126
1245.508, 5.808105
1246.585, 16.08575
1247.661, 8.022705
1248.738, 6.861755
1249.814, 19.74390
1250.890, 29.62390
1251.966, 16.50146
1253.042, 16.37585
1254.117, 20.84686
1255.193, 11.26294
1256.268, 25.98492
1257.343, 14.85681
1258.418, 10.72565
1259.493, 40.59119
1260.567, 54.45508
1261.642, 11.31622
1262.716, 28.17401
1263.790, 32.02893
1264.864, 7.881287
1265.938, 7.730042
1267.011, 33.57513
1268.085, 0.5825200
1269.158, 30.25555
1270.231, 1.092041
1271.304, 30.92438
1272.377, 1.246704
1273.450, 19.57666
1274.522, 47.39655
1275.594, 30.21332
1276.666, 59.02722
1277.738, 26.83771
1278.810, 12.63165
1279.882, 50.33105
1280.953, 15.95038
1282.025, 26.75049
1283.096, 31.38708
1284.167, 29.17706
1285.238, 29.96802
1286.308, 33.90009
1287.379, 57.51788
1288.449, 36.30475
1289.519, 44.09229
1290.589, 35.85358
1291.659, 16.64050
1292.729, 19.42651
1293.798, 42.20923
1294.868, 31.99042
1295.937, 34.76923
1297.006, 0.5454710
1298.075, 38.31934
1299.143, 2.909180
1300.212, 64.86200
1301.280, 32.63062
1302.348, 54.39679
1303.416, 47.16064
1304.484, 19.92310
1305.552, 18.68011
1306.620, 21.43365
1307.687, 14.70789
1308.754, 25.19104
1309.821, 21.66650
1310.888, 36.40991
1311.955, 43.86011
1313.021, 33.59851
1314.088, 42.31335
1315.154, 7.121948
1316.220, 36.59650
1317.286, 0.3084720
1318.352, 22.60181
1319.417, 3.059082
1320.483, 17.70392
1321.548, 6.290955
1322.613, 25.90417
1323.678, 20.51392
1324.743, 31.09418
1325.807, 39.69299
1326.872, 30.24799
1327.936, 21.82416
1329.000, 38.34924
1330.064, 3.649902
1331.128, 45.17993
1332.191, 22.70996
1333.255, 22.24829
1334.318, 10.80774
1335.381, 6.330078
1336.444, 35.56311
1337.507, 32.51740
1338.569, 64.23993
1339.632, 30.16345
1340.694, 22.88916
1341.756, 53.38214
1342.818, 2.924377
1343.880, 24.46283
1344.941, 35.93646
1346.003, 43.38971
1347.064, 45.63251
1348.125, 15.51733
1349.186, 46.19849
1350.247, 29.84344
1351.308, 46.68726
1352.368, 9.419434
1353.428, 10.18323
1354.489, 61.47504
1355.549, 36.10046
1356.608, 21.89526
1357.668, 44.04639
1358.727, 18.75311
1359.787, 40.47858
1360.846, 47.06250
1361.905, 46.83826
1362.964, 34.57269
1364.022, 50.46051
1365.081, 39.90497
1366.139, 83.10437
1367.197, 77.71503
1368.255, 76.38214
1369.313, 71.73749
1370.371, 69.49377
1371.428, 72.70007
1372.486, 75.91327
1373.543, 72.71149
1374.600, 90.51520
1375.657, 73.85364
1376.713, 84.70422
1377.770, 113.5070
1378.826, 145.2538
1379.882, 130.8568
1380.938, 173.7476
1381.994, 179.4626
1383.050, 223.0735
1384.106, 177.8328
1385.161, 173.4188
1386.216, 222.0285
1387.271, 186.8843
1388.326, 197.5225
1389.381, 188.0903
1390.435, 181.6776
1391.490, 220.3515
1392.544, 213.8527
1393.598, 232.3569
1394.652, 218.8624
1395.705, 247.2595
1396.759, 284.6527
1397.812, 305.8937
1398.866, 342.6666
1399.919, 369.5800
1400.972, 414.0189
1402.024, 421.4997
1403.077, 464.0585
1404.129, 520.8148
1405.181, 578.9066
1406.233, 662.1664
1407.285, 740.5026
1408.337, 842.9135
1409.389, 942.3473
1410.440, 1088.622
1411.491, 1235.094
1412.542, 1407.452
1413.593, 1697.857
1414.644, 2116.241
1415.695, 2542.676
1416.745, 3107.189
1417.795, 3681.760
1418.845, 4207.213
1419.895, 4431.675
1420.945, 4334.398
1421.995, 4264.062
1423.044, 4332.613
1424.093, 4629.180
1425.142, 5334.773
1426.191, 6507.140
1427.240, 8173.701
1428.289, 10476.30
1429.337, 12324.89
1430.385, 13407.23
1431.433, 12444.42
1432.481, 10167.57
1433.529, 7977.811
1434.577, 5913.215
1435.624, 4429.618
1436.672, 3424.939
1437.719, 2646.861
1438.766, 2018.978
1439.812, 1602.912
1440.859, 1358.926
1441.905, 1157.068
1442.952, 911.6464
1443.998, 800.4357
1445.044, 666.4521
1446.090, 571.8111
1447.135, 515.1948
1448.181, 472.6318
1449.226, 442.7620
1450.271, 458.1907
1451.316, 442.4269
1452.361, 468.6112
1453.405, 504.8990
1454.450, 599.0242
1455.494, 859.1781
1456.538, 1215.512
1457.582, 1589.737
1458.626, 1965.947
1459.670, 1980.191
1460.713, 1573.557
1461.757, 1159.785
1462.800, 727.0696
1463.843, 553.0660
1464.886, 351.3770
1465.928, 256.5753
1466.971, 230.7292
1468.013, 170.0591
1469.055, 146.3285
1470.097, 103.6292
1471.139, 93.98889
1472.181, 80.33667
1473.222, 63.67371
1474.263, 63.00439
1475.305, 42.32990
1476.346, 9.645081
1477.386, 51.95142
1478.427, 25.24823
1479.468, 20.53632
1480.508, 55.81567
1481.548, 23.08582
1482.588, 28.34814
1483.628, 42.60364
1484.668, 37.85364
1485.707, 34.58679
1486.747, 26.34558
1487.786, 24.58667
1488.825, 13.82111
1489.864, 28.05157
1490.902, 19.27863
1491.941, 15.50116
1492.979, 35.71875
1494.017, 6.068481
1495.055, 26.13757
1496.093, 30.33453
1497.131, 9.478333
1498.168, 38.69525
1499.206, 20.85712
1500.243, 2.009644
1501.280, 5.148682
1502.317, 24.28033
1503.354, 47.40961
1504.390, 68.53070
1505.426, 5.623474
1506.463, 45.70941
1507.499, 60.80438
1508.535, 39.92511
1509.570, 70.13031
1510.606, 60.47064
1511.641, 22.86261
1512.676, 75.25922
1513.711, 71.66162
1514.746, 84.07092
1515.781, 67.48560
1516.816, 84.90497
1517.850, 84.32922
1518.884, 109.7633
1519.918, 91.20508
1520.952, 149.6528
1521.986, 129.0415
1523.019, 121.8843
1524.053, 146.2629
1525.086, 111.0916
1526.119, 114.6470
1527.152, 90.47314
1528.185, 131.1064
1529.217, 121.6462
1530.250, 129.8018
1531.282, 142.7012
1532.314, 103.3497
1533.346, 105.3350
1534.377, 145.9003
1535.409, 92.08472
1536.440, 116.6198
1537.472, 106.0315
1538.503, 111.5740
1539.534, 95.04956
1540.564, 74.59314
1541.595, 56.62695
1542.625, 61.79724
1543.656, 59.64453
1544.686, 24.09229
1545.716, 26.97400
1546.745, 45.13208
1547.775, 21.48108
1548.804, 36.50391
1549.834, 32.27319
1550.863, 38.81958
1551.892, 29.59277
1552.920, 33.44922
1553.949, 77.79663
1554.977, 91.44556
1556.006, 91.13562
1557.034, 64.64136
1558.062, 29.69788
1559.089, 27.70752
1560.117, 6.979858
1561.144, 0.3062740
1562.172, 43.25366
1563.199, 48.56702
1564.226, 32.15930
1565.252, 65.13440
1566.279, 11.97156
1567.305, 16.53955
1568.332, 23.46545
1569.358, 16.86267
1570.384, 1.234009
1571.409, 0.0000000E+00
##END=



