##NAMES=Baddeleyite
##RRUFFID=R060016
##IDEAL CHEMISTRY=Zr^4+^O_2_
##LOCALITY=Wet Loo, Myanmar
##OWNER=RRUFF
##SOURCE=American Museum of Natural History
##DESCRIPTION=Brown crystal fragment
##STATUS=The identification of this mineral has been confirmed by X-ray diffraction and chemical analysis
##URL=rruff.info/R060016
##MEASURED CHEMISTRY=(Zr_0.99_Ti_0.01_)_Î£=1_O_2_
##PIN_ID=M00302
##ORIENTATION=Laser parallel to a* (1 0 0). Fiducial mark perpendicular to laser is parallel to b [0 1 0]
40.39300, 0.0000000E+00
41.63700, 3.844971
42.88100, 1.828674
44.12400, 8.472198
45.36700, 8.256927
46.61100, 25.20871
47.85400, 28.74667
49.09700, 18.05026
50.33900, 28.75851
51.58200, 46.28174
52.82400, 55.40930
54.06700, 52.49396
55.30900, 64.93387
56.55100, 55.54236
57.79200, 62.90173
59.03400, 70.41541
60.27600, 83.41739
61.51700, 97.28963
62.75800, 110.3370
63.99900, 102.0068
65.24000, 93.88379
66.48100, 89.91580
67.72100, 73.81903
68.96100, 59.42661
70.20200, 44.89755
71.44200, 40.50867
72.68200, 24.25992
73.92100, 29.15222
75.16100, 6.185638
76.40000, 2.640442
77.64000, 4.672577
78.87900, 17.87854
80.11800, 15.29883
81.35600, 27.59384
82.59500, 25.76932
83.83400, 14.83154
85.07200, 22.78662
86.31000, 12.64032
87.54800, 10.60110
88.78600, 46.73657
90.02400, 87.34067
91.26100, 162.8321
92.49800, 241.4031
93.73600, 335.0524
94.97300, 498.7795
96.21000, 657.5838
97.44600, 1026.464
98.68300, 1516.420
99.91900, 2032.454
101.1560, 2445.572
102.3920, 2790.780
103.6280, 2668.086
104.8630, 2330.491
106.0990, 1853.995
107.3350, 1430.595
108.5700, 1116.287
109.8050, 836.0699
111.0400, 681.9413
112.2750, 586.8986
113.5100, 567.9400
114.7440, 557.0594
115.9780, 536.2421
117.2130, 478.4835
118.4470, 451.7788
119.6810, 438.1234
120.9140, 408.5128
122.1480, 410.9434
123.3810, 395.3168
124.6150, 437.9138
125.8480, 375.4424
127.0810, 411.9956
128.3130, 394.5747
129.5460, 395.1779
130.7790, 462.8026
132.0110, 427.4462
133.2430, 442.0971
134.4750, 409.7428
135.7070, 452.3723
136.9380, 437.0012
138.1700, 464.6500
139.4010, 465.3406
140.6330, 493.0739
141.8640, 472.8501
143.0950, 492.6696
144.3250, 515.5326
145.5560, 530.4393
146.7860, 547.3900
148.0160, 555.3845
149.2470, 516.4235
150.4760, 569.5065
151.7060, 571.6337
152.9360, 576.8054
154.1650, 660.0211
155.3950, 637.2809
156.6240, 749.5931
157.8530, 803.9863
159.0820, 822.4825
160.3100, 897.1215
161.5390, 1060.903
162.7670, 1208.821
163.9950, 1393.872
165.2230, 1866.057
166.4510, 2381.366
167.6790, 3101.789
168.9060, 3748.250
170.1340, 4306.741
171.3610, 5242.262
172.5880, 6836.812
173.8150, 9367.393
175.0420, 12441.01
176.2690, 15186.65
177.4950, 17101.32
178.7210, 17763.02
179.9470, 16115.75
181.1730, 13566.52
182.3990, 10770.31
183.6250, 8533.135
184.8500, 7790.991
186.0760, 8703.878
187.3010, 10475.79
188.5260, 12218.39
189.7510, 13200.97
190.9750, 13332.53
192.2000, 11936.06
193.4240, 9566.560
194.6490, 7035.026
195.8730, 4712.464
197.0970, 2952.848
198.3200, 2012.215
199.5440, 1499.541
200.7670, 1216.828
201.9910, 1031.092
203.2140, 858.3311
204.4370, 738.5398
205.6590, 713.7231
206.8820, 677.8624
208.1050, 662.8958
209.3270, 694.8093
210.5490, 667.7019
211.7710, 725.5942
212.9930, 733.5298
214.2150, 840.5244
215.4360, 945.5027
216.6570, 1122.457
217.8790, 1458.343
219.1000, 1771.286
220.3210, 2076.063
221.5410, 2220.067
222.7620, 2124.590
223.9820, 1834.791
225.2030, 1445.593
226.4230, 1036.191
227.6430, 789.1210
228.8620, 561.4468
230.0820, 457.0514
231.3010, 321.5032
232.5210, 298.6136
233.7400, 257.5161
234.9590, 272.2212
236.1780, 186.9639
237.3960, 186.7450
238.6150, 182.5627
239.8330, 133.4150
241.0510, 140.3021
242.2690, 163.2234
243.4870, 106.1788
244.7050, 172.1681
245.9230, 146.1908
247.1400, 98.24683
248.3570, 123.3358
249.5740, 101.4575
250.7910, 124.6117
252.0080, 146.7977
253.2240, 138.0153
254.4410, 112.2642
255.6570, 128.5441
256.8730, 104.8545
258.0890, 190.1954
259.3050, 209.5662
260.5210, 186.9668
261.7360, 146.3969
262.9510, 104.8562
264.1670, 116.3446
265.3820, 134.8622
266.5960, 132.4084
267.8110, 100.9836
269.0260, 122.5874
270.2400, 109.2198
271.4540, 95.13171
272.6680, 117.0554
273.8820, 157.9829
275.0960, 172.3678
276.3090, 182.1003
277.5230, 180.7119
278.7360, 262.3301
279.9490, 253.2692
281.1620, 395.0858
282.3750, 330.9316
283.5880, 408.6321
284.8000, 401.1925
286.0120, 432.2528
287.2240, 552.1794
288.4360, 636.3931
289.6480, 665.6804
290.8600, 760.9241
292.0710, 830.7365
293.2830, 945.3342
294.4940, 1070.516
295.7050, 1282.724
296.9160, 1495.960
298.1260, 1704.220
299.3370, 1943.506
300.5470, 2314.816
301.7580, 2650.151
302.9680, 2976.510
304.1770, 3353.893
305.3870, 3711.300
306.5970, 3662.729
307.8060, 3549.182
309.0150, 3388.657
310.2250, 2996.153
311.4340, 2606.671
312.6420, 2105.209
313.8510, 1840.767
315.0590, 1579.346
316.2680, 1414.944
317.4760, 1273.563
318.6840, 1214.202
319.8920, 1290.861
321.0990, 1302.539
322.3070, 1364.238
323.5140, 1433.956
324.7210, 1450.694
325.9280, 1595.451
327.1350, 1738.229
328.3420, 1887.026
329.5490, 2114.843
330.7550, 2284.679
331.9610, 2514.535
333.1670, 2527.410
334.3730, 2655.308
335.5790, 2715.226
336.7840, 2859.166
337.9900, 3009.128
339.1950, 3346.113
340.4000, 3806.120
341.6050, 4518.150
342.8100, 5462.203
344.0150, 6348.278
345.2190, 7211.379
346.4230, 7855.503
347.6280, 7887.649
348.8320, 7451.820
350.0350, 6617.017
351.2390, 5296.237
352.4430, 4138.482
353.6460, 3232.753
354.8490, 2649.049
356.0520, 2115.372
357.2550, 1691.721
358.4580, 1499.096
359.6600, 1337.497
360.8630, 1099.925
362.0650, 1191.379
363.2670, 1210.859
364.4690, 1223.366
365.6710, 1387.901
366.8720, 1516.462
368.0740, 1790.052
369.2750, 2053.672
370.4760, 2524.320
371.6770, 3002.000
372.8780, 3677.713
374.0780, 4512.460
375.2790, 5455.240
376.4790, 6520.050
377.6790, 7653.892
378.8790, 8999.762
380.0790, 10293.92
381.2790, 11508.34
382.4780, 12130.42
383.6780, 12158.39
384.8770, 11720.38
386.0760, 10512.39
387.2750, 8830.433
388.4730, 7191.493
389.6720, 5676.579
390.8700, 4411.689
392.0690, 3385.821
393.2670, 2603.978
394.4650, 2108.158
395.6620, 1760.362
396.8600, 1335.590
398.0570, 1122.841
399.2550, 957.1149
400.4520, 690.4128
401.6490, 631.7341
402.8450, 556.0790
404.0420, 386.4471
405.2390, 358.8386
406.4350, 315.2535
407.6310, 215.6917
408.8270, 188.1531
410.0230, 113.6379
411.2190, 132.1458
412.4140, 18.67712
413.6090, 57.23132
414.8050, 17.19128
416.0000, 16.60339
417.1940, 36.00513
418.3890, 24.40466
419.5840, 88.79724
420.7780, 67.21094
421.9720, 103.6359
423.1660, 72.08911
424.3600, 87.55603
425.5540, 69.04395
426.7480, 102.5443
427.9410, 62.07263
429.1340, 89.61047
430.3270, 68.17053
431.5200, 109.7426
432.7130, 54.34607
433.9060, 90.95581
435.0980, 82.49585
436.2900, 19.14722
437.4830, 30.01221
438.6750, 24.73914
439.8660, 31.53284
441.0580, 75.96851
442.2500, 143.4175
443.4410, 173.8887
444.6320, 221.3828
445.8230, 269.8997
447.0140, 287.4392
448.2050, 355.0013
449.3950, 473.5863
450.5860, 608.1940
451.7760, 671.8242
452.9660, 788.4773
454.1560, 1025.153
455.3450, 1241.851
456.5350, 1398.572
457.7240, 1712.316
458.9140, 2065.082
460.1030, 2648.871
461.2920, 3290.683
462.4810, 4149.518
463.6690, 5042.375
464.8580, 6363.253
466.0460, 7747.155
467.2340, 9408.079
468.4220, 11371.03
469.6100, 13578.00
470.7970, 15723.99
471.9850, 18034.01
473.1720, 19894.04
474.3590, 20356.11
475.5460, 19933.19
476.7330, 18056.29
477.9200, 15358.42
479.1060, 12532.57
480.2930, 9872.748
481.4790, 7497.943
482.6650, 5696.161
483.8510, 4471.401
485.0370, 3608.666
486.2220, 2956.953
487.4080, 2497.261
488.5930, 2256.591
489.7780, 1998.945
490.9630, 1892.321
492.1480, 1895.718
493.3320, 1890.138
494.5170, 1868.580
495.7010, 2025.045
496.8850, 2332.531
498.0690, 2409.040
499.2530, 2766.571
500.4360, 2762.123
501.6200, 2707.698
502.8030, 2507.294
503.9860, 2090.912
505.1690, 1681.553
506.3520, 1353.215
507.5350, 976.8984
508.7170, 782.6038
509.9000, 540.3320
511.0820, 395.0824
512.2640, 280.8540
513.4460, 204.6497
514.6270, 157.4669
515.8090, 106.3057
516.9900, 98.16577
518.1710, 33.04724
519.3530, 35.95264
520.5330, 27.87927
521.7140, 2.828491
522.8950, 3.200317
524.0750, 5.787598
525.2550, 16.79358
526.4350, 34.82019
527.6150, 64.86755
528.7950, 102.5758
529.9750, 176.0331
531.1540, 201.1532
532.3340, 258.2987
533.5130, 318.2892
534.6920, 370.6630
535.8700, 456.8870
537.0490, 522.1465
538.2280, 585.4294
539.4060, 577.7393
540.5840, 568.0709
541.7620, 654.4285
542.9400, 552.8146
544.1180, 554.2278
545.2950, 620.6656
546.4720, 740.1323
547.6500, 826.6244
548.8270, 1032.141
550.0040, 1255.690
551.1800, 1493.262
552.3570, 1859.858
553.5330, 2118.474
554.7090, 2286.113
555.8850, 2415.776
557.0610, 2558.215
558.2370, 2395.698
559.4130, 2233.229
560.5880, 1864.356
561.7630, 1482.191
562.9380, 1219.206
564.1130, 909.2761
565.2880, 751.0806
566.4630, 528.0613
567.6370, 415.0653
568.8120, 317.2686
569.9860, 193.6685
571.1600, 184.6212
572.3330, 141.7642
573.5070, 67.67493
574.6810, 51.56348
575.8540, 7.455566
577.0270, 7.005981
578.2000, 38.26624
579.3730, 22.07886
580.5460, 23.87183
581.7180, 1.353271
582.8910, 3.604126
584.0630, 58.87903
585.2350, 41.17639
586.4070, 77.49536
587.5780, 84.83594
588.7500, 180.1979
589.9210, 233.5847
591.0930, 232.9928
592.2640, 357.4229
593.4350, 457.8743
594.6050, 547.3466
595.7760, 600.8398
596.9460, 750.3547
598.1170, 920.8911
599.2870, 1060.448
600.4570, 1311.026
601.6260, 1637.624
602.7960, 1931.243
603.9650, 2376.883
605.1350, 2800.542
606.3040, 3441.223
607.4730, 4068.923
608.6420, 4947.643
609.8100, 5759.383
610.9790, 6660.144
612.1470, 7502.923
613.3150, 8103.724
614.4830, 8612.546
615.6510, 8779.383
616.8190, 8288.242
617.9860, 7640.122
619.1540, 6771.021
620.3210, 5675.939
621.4880, 4831.877
622.6550, 3913.835
623.8220, 3311.811
624.9880, 2782.805
626.1550, 2465.819
627.3210, 2177.850
628.4870, 1953.899
629.6530, 1884.968
630.8190, 1860.054
631.9840, 1716.159
633.1500, 1804.282
634.3150, 1758.423
635.4800, 1722.581
636.6450, 1748.756
637.8100, 1611.949
638.9740, 1467.159
640.1390, 1342.386
641.3030, 1130.630
642.4670, 1004.890
643.6310, 764.1665
644.7950, 644.4594
645.9590, 546.7690
647.1220, 437.0950
648.2850, 396.4369
649.4490, 358.0111
650.6120, 301.4287
651.7740, 249.8213
652.9370, 199.6639
654.1000, 187.1488
655.2620, 224.5889
656.4240, 98.10742
657.5860, 138.5951
658.7480, 91.64856
659.9100, 143.2006
661.0710, 88.00598
662.2330, 120.3871
663.3940, 98.71484
664.5550, 65.18176
665.7160, 90.75537
666.8770, 47.34363
668.0370, 111.8713
669.1980, 70.57361
670.3580, 71.60132
671.5180, 110.2999
672.6780, 66.55322
673.8380, 92.65625
674.9970, 100.1700
676.1570, 171.3535
677.3160, 72.78101
678.4750, 136.9059
679.6340, 132.0604
680.7930, 112.0735
681.9520, 145.6837
683.1100, 152.1372
684.2680, 153.9379
685.4270, 151.7250
686.5850, 165.8042
687.7420, 179.6664
688.9000, 223.4586
690.0580, 210.0399
691.2150, 251.6035
692.3720, 257.7233
693.5290, 239.5059
694.6860, 266.3372
695.8430, 305.9729
696.9990, 342.1030
698.1560, 319.6533
699.3120, 300.5315
700.4680, 366.3516
701.6240, 383.1285
702.7800, 421.1003
703.9350, 384.0264
705.0900, 456.3256
706.2460, 448.3322
707.4010, 513.8511
708.5560, 506.8298
709.7110, 473.0549
710.8650, 480.1813
712.0200, 467.8811
713.1740, 474.0225
714.3280, 429.4641
715.4820, 408.1873
716.6360, 404.4561
717.7890, 395.9788
718.9430, 350.2455
720.0960, 373.2412
721.2490, 325.5447
722.4020, 264.4136
723.5550, 294.8816
724.7080, 294.2649
725.8600, 225.6155
727.0130, 231.9686
728.1650, 312.1323
729.3170, 251.5148
730.4690, 302.0214
731.6200, 268.4604
732.7720, 241.8259
733.9230, 230.2175
735.0740, 249.7772
736.2250, 290.2969
737.3760, 253.6832
738.5270, 328.0569
739.6780, 308.4315
740.8280, 357.1405
741.9780, 383.5464
743.1280, 336.9233
744.2780, 440.3698
745.4280, 471.7983
746.5770, 505.1852
747.7270, 494.6624
748.8760, 507.1882
750.0250, 538.7129
751.1740, 591.2275
752.3230, 617.6068
753.4720, 607.0598
754.6200, 605.5867
755.7680, 552.3002
756.9160, 597.0095
758.0640, 544.5054
759.2120, 538.2444
760.3600, 458.6183
761.5070, 415.9836
762.6550, 407.5286
763.8020, 353.9703
764.9490, 346.3385
766.0960, 289.8501
767.2420, 285.3921
768.3890, 202.7722
769.5350, 242.5604
770.6810, 142.9183
771.8270, 158.3719
772.9730, 132.7097
774.1190, 117.0681
775.2640, 139.6113
776.4100, 73.03394
777.5550, 92.38330
778.7000, 86.73352
779.8450, 59.04724
780.9900, 15.35632
782.1340, 38.72510
783.2790, 54.15662
784.4230, 74.49268
785.5670, 55.82080
786.7110, 3.432373
787.8550, 1.986084
788.9980, 15.58057
790.1420, 6.002930
791.2850, 3.251465
792.4280, 35.78528
793.5710, 5.030518
794.7140, 10.26550
795.8560, 6.368286
796.9990, 8.847412
798.1410, 0.8746340
799.2830, 14.51221
800.4250, 0.1437990
801.5670, 13.29688
802.7090, 34.74963
803.8500, 53.11743
804.9920, 9.418945
806.1330, 13.88635
807.2740, 16.73157
808.4150, 10.51855
809.5550, 2.330688
810.6960, 16.25342
811.8360, 22.13245
812.9760, 48.08887
814.1160, 3.073853
815.2560, 14.02673
816.3960, 2.937622
817.5350, 11.01917
818.6750, 19.91833
819.8140, 16.81433
820.9530, 5.831421
822.0920, 20.97925
823.2310, 9.146851
824.3690, 5.119385
825.5080, 35.33557
826.6460, 0.4122310
827.7840, 1.218506
828.9220, 16.00964
830.0600, 1.251953
831.1970, 1.530273
832.3350, 13.85608
833.4720, 5.214844
834.6090, 11.33752
835.7460, 9.7699999E-04
836.8830, 14.42615
838.0190, 28.87903
839.1560, 31.27283
840.2920, 13.79138
841.4280, 3.092163
842.5640, 2.418335
843.7000, 5.178833
844.8360, 11.71936
845.9710, 0.9334720
847.1070, 12.70349
848.2420, 5.280640
849.3770, 5.003296
850.5120, 36.28979
851.6460, 17.57642
852.7810, 4.802002
853.9150, 69.00830
855.0490, 32.20789
856.1830, 51.44177
857.3170, 5.640625
858.4510, 20.79529
859.5840, 46.93311
860.7180, 58.05615
861.8510, 71.16479
862.9840, 71.25977
864.1170, 12.34229
865.2500, 63.40356
866.3820, 49.45044
867.5150, 56.48193
868.6470, 77.49841
869.7790, 65.50073
870.9110, 48.48877
872.0430, 52.46045
873.1740, 69.42798
874.3060, 106.3694
875.4370, 89.23730
876.5680, 40.21899
877.6990, 69.11389
878.8300, 75.99377
879.9600, 65.85901
881.0910, 68.78430
882.2210, 74.61890
883.3510, 64.39673
884.4810, 59.24280
885.6110, 60.03064
886.7410, 61.80237
887.8700, 78.55786
888.9990, 70.29834
890.1290, 62.02319
891.2580, 46.73157
892.3860, 47.42188
893.5150, 67.09412
894.6440, 45.75024
895.7720, 83.39343
896.9000, 94.02124
898.0280, 62.63391
899.1560, 75.22986
900.2840, 85.80994
901.4110, 67.37451
902.5390, 63.92255
903.6660, 83.45355
904.7930, 43.96893
905.9200, 88.46521
907.0470, 75.03009
908.1730, 115.4944
909.3000, 87.94342
910.4260, 64.38086
911.5520, 78.80188
912.6780, 89.20654
913.8030, 88.59546
914.9290, 102.9726
916.0540, 107.3344
917.1800, 84.68079
918.3050, 77.01105
919.4300, 89.32855
920.5550, 90.62671
921.6790, 46.93549
922.8040, 76.98370
923.9280, 58.18793
925.0520, 76.41577
926.1760, 104.3837
927.3000, 61.51990
928.4230, 101.8439
929.5470, 105.9443
930.6700, 79.08691
931.7930, 115.6502
932.9160, 93.71423
934.0390, 72.54974
935.1620, 72.52087
936.2840, 63.00336
937.4070, 61.33716
938.5290, 70.45227
939.6510, 59.54675
940.7730, 74.62054
941.8940, 64.53223
943.0160, 81.16541
944.1370, 81.20538
945.2580, 111.3980
946.3800, 84.97003
947.5000, 96.04236
948.6210, 90.44220
949.7420, 78.59564
950.8620, 92.04871
951.9820, 72.53271
953.1020, 62.09131
954.2220, 57.09082
955.3420, 67.20135
956.4620, 109.9608
957.5810, 85.73047
958.7000, 50.20435
959.8190, 102.8912
960.9380, 88.65759
962.0570, 64.81781
963.1760, 63.79150
964.2940, 73.26251
965.4120, 72.16125
966.5300, 78.13904
967.6480, 81.00024
968.7660, 83.81305
969.8840, 86.92542
971.0010, 80.57678
972.1190, 84.28949
973.2360, 51.06250
974.3530, 67.65259
975.4690, 28.30902
976.5860, 46.66870
977.7030, 74.27313
978.8190, 45.37769
979.9350, 20.04657
981.0510, 53.47382
982.1670, 36.01709
983.2830, 55.99780
984.3980, 49.56152
985.5130, 45.83356
986.6290, 80.38519
987.7440, 60.49786
988.8590, 57.96155
989.9730, 46.08704
991.0880, 51.44208
992.2020, 55.87994
993.3160, 64.51843
994.4300, 65.42230
995.5440, 68.08551
996.6580, 58.50232
997.7720, 82.10626
998.8850, 59.62671
999.9980, 71.93353
1001.111, 82.09607
1002.224, 80.31836
1003.337, 93.60645
1004.450, 67.87561
1005.562, 63.95349
1006.674, 53.06360
1007.786, 62.29865
1008.898, 83.53827
1010.010, 52.76843
1011.122, 83.65564
1012.233, 94.83759
1013.344, 64.03967
1014.455, 36.16370
1015.566, 54.29645
1016.677, 95.46173
1017.788, 62.52795
1018.898, 76.56702
1020.009, 97.56738
1021.119, 65.56824
1022.229, 84.69507
1023.339, 80.73865
1024.448, 69.69928
1025.558, 51.46313
1026.667, 69.22858
1027.776, 77.19263
1028.885, 94.13416
1029.994, 57.20001
1031.103, 56.27026
1032.211, 58.16730
1033.320, 93.13440
1034.428, 69.16492
1035.536, 81.04156
1036.644, 56.87695
1037.751, 81.86383
1038.859, 48.43158
1039.966, 27.41925
1041.074, 100.2999
1042.181, 50.28546
1043.288, 68.20013
1044.394, 48.10571
1045.501, 65.97308
1046.607, 56.90240
1047.713, 46.68768
1048.820, 64.65686
1049.925, 56.62311
1051.031, 111.4869
1052.137, 44.31848
1053.242, 83.21356
1054.348, 38.08282
1055.453, 64.52124
1056.558, 44.28784
1057.662, 68.85266
1058.767, 9.962158
1059.871, 54.83954
1060.976, 14.42493
1062.080, 52.28589
1063.184, 38.14441
1064.288, 69.85883
1065.391, 48.70825
1066.495, 33.51074
1067.598, 56.15814
1068.701, 20.81152
1069.804, 27.53400
1070.907, 80.17877
1072.010, 18.79620
1073.112, 37.30463
1074.214, 32.95398
1075.317, 20.51306
1076.419, 42.22162
1077.521, 68.93713
1078.622, 14.74713
1079.724, 40.49310
1080.825, 42.29681
1081.926, 37.10016
1083.027, 48.85461
1084.128, 17.67200
1085.229, 49.39465
1086.329, 22.04010
1087.430, 63.66046
1088.530, 49.38055
1089.630, 71.21320
1090.730, 34.04266
1091.830, 60.65778
1092.929, 26.49780
1094.029, 0.6533810
1095.128, 63.11877
1096.227, 14.88861
1097.326, 0.6957400
1098.425, 19.50043
1099.523, 8.666016
1100.622, 52.17572
1101.720, 1.019592
1102.818, 27.86652
1103.916, 34.71454
1105.014, 31.56775
1106.111, 27.33508
1107.209, 34.82458
1108.306, 9.825195
1109.403, 40.61804
1110.500, 30.49915
1111.597, 23.30231
1112.694, 34.88879
1113.790, 24.74493
1114.887, 33.51733
1115.983, 69.13849
1117.079, 35.00531
1118.174, 25.14447
1119.270, 9.257629
1120.366, 12.62518
1121.461, 31.50256
1122.556, 20.50745
1123.651, 16.35590
1124.746, 27.77161
1125.841, 32.09143
1126.935, 45.95294
1128.030, 4.812378
1129.124, 3.330994
1130.218, 49.52094
1131.312, 17.37445
1132.405, 44.22601
1133.499, 21.07635
1134.592, 31.92505
1135.686, 15.77191
1136.779, 51.61694
1137.871, 50.46112
1138.964, 51.29291
1140.057, 79.13452
1141.149, 70.86560
1142.241, 43.80267
1143.334, 64.64087
1144.425, 60.47809
1145.517, 38.31372
1146.609, 39.07300
1147.700, 54.90649
1148.791, 58.73889
1149.883, 8.570557
1150.974, 41.40137
1152.064, 20.23163
1153.155, 47.06158
1154.245, 15.89050
1155.336, 48.71881
1156.426, 61.54675
1157.516, 12.37524
1158.606, 25.60284
1159.695, 20.56842
1160.785, 49.25049
1161.874, 12.06879
1162.963, 7.886169
1164.052, 25.70355
1165.141, 31.52057
1166.230, 63.33722
1167.318, 68.15405
1168.406, 28.97107
1169.495, 54.78778
1170.583, 31.60602
1171.670, 53.34003
1172.758, 53.15808
1173.846, 17.02405
1174.933, 2.214783
1176.020, 36.59381
1177.107, 62.40259
1178.194, 15.78864
1179.281, 3.012634
1180.367, 1.813538
1181.454, 16.61426
1182.540, 0.4152830
1183.626, 3.212891
1184.712, 40.01416
1185.798, 35.78912
1186.883, 4.593262
1187.969, 29.39789
1189.054, 7.795654
1190.139, 26.81915
1191.224, 19.62341
1192.309, 15.28455
1193.393, 33.09082
1194.478, 47.88525
1195.562, 13.69293
1196.646, 24.50116
1197.730, 67.28534
1198.814, 37.09711
1199.897, 37.83484
1200.981, 5.395020
1202.064, 35.41986
1203.147, 53.15771
1204.230, 13.97607
1205.313, 29.78052
1206.396, 21.53699
1207.478, 11.35974
1208.560, 9.183472
1209.642, 26.92163
1210.724, 16.07947
1211.806, 30.90588
1212.888, 62.73291
1213.969, 44.56091
1215.051, 35.32617
1216.132, 50.15845
1217.213, 98.95044
1218.294, 74.78564
1219.374, 89.62231
1220.455, 78.45947
1221.535, 65.29736
1222.616, 101.1368
1223.696, 79.96545
1224.775, 78.60803
1225.855, 77.45178
1226.935, 101.2386
1228.014, 78.93164
1229.093, 46.74243
1230.172, 73.94250
1231.251, 41.79065
1232.330, 60.60315
1233.408, 76.45276
1234.487, 46.30322
1235.565, 36.15430
1236.643, 75.20740
1237.721, 34.06042
1238.799, 70.85083
1239.876, 21.70667
1240.954, 41.56323
1242.031, 64.41626
1243.108, 25.27563
1244.185, 39.13599
1245.262, 16.00256
1246.338, 31.85315
1247.415, 57.70947
1248.491, 37.92969
1249.567, 29.15125
1250.643, 7.967163
1251.719, 5.173096
1252.795, 42.67749
1253.870, 39.51270
1254.945, 39.58557
1256.021, 22.44727
1257.096, 59.31006
1258.170, 24.10522
1259.245, 48.70410
1260.320, 49.56995
1261.394, 52.42395
1262.468, 24.29175
1263.542, 41.16077
1264.616, 9.030762
1265.690, 31.88684
1266.763, 24.75903
1267.836, 21.63232
1268.910, 78.50684
1269.983, 70.38245
1271.055, 14.25916
1272.128, 58.13708
1273.201, 40.01636
1274.273, 37.89661
1275.345, 14.77808
1276.417, 45.66113
1277.489, 39.54541
1278.561, 37.43103
1279.632, 14.28687
1280.704, 44.17493
1281.775, 15.06445
1282.846, 16.95520
1283.917, 4.847168
1284.988, 14.74170
1286.058, 14.63757
1287.129, 11.47253
1288.199, 12.42261
1289.269, 12.08826
1290.339, 32.98621
1291.409, 44.88098
1292.478, 28.75940
1293.548, 15.66187
1294.617, 60.56604
1295.686, 37.47168
1296.755, 27.37903
1297.824, 42.28796
1298.893, 21.19861
1299.961, 44.11096
1301.029, 38.02515
1302.097, 47.94128
1303.165, 11.89868
1304.233, 50.67090
1305.301, 18.59265
1306.368, 52.51624
1307.436, 70.57324
1308.503, 12.47314
1309.570, 12.37207
1310.637, 46.30396
1311.703, 44.19531
1312.770, 27.10706
1313.836, 27.04224
1314.902, 23.04102
1315.968, 31.96631
1317.034, 47.90637
1318.100, 41.46924
1319.165, 55.41345
1320.231, 36.35901
1321.296, 54.30676
1322.361, 72.25635
1323.426, 58.20740
1324.491, 72.31311
1325.555, 57.47668
1326.620, 72.43127
1327.684, 29.38733
1328.748, 17.47998
1329.812, 34.18774
1330.875, 17.14929
1331.939, 55.11304
1333.002, 14.07825
1334.066, 11.04529
1335.129, 30.01416
1336.192, 43.98486
1337.254, 16.95667
1338.317, 11.06958
1339.379, 42.90344
1340.442, 17.87805
1341.504, 33.85449
1342.566, 19.83252
1343.628, 48.35828
1344.689, 30.34021
1345.751, 23.32397
1346.812, 14.30981
1347.873, 29.29736
1348.934, 44.28674
1349.995, 33.81812
1351.055, 34.70276
1352.116, 32.69788
1353.176, 35.69580
1354.236, 56.69556
1355.296, 51.33264
1356.356, 33.70227
1357.416, 43.70898
1358.475, 25.72058
1359.535, 4.265991
1360.594, 27.74963
1361.653, 37.76733
1362.712, 7.786743
1363.770, 7.191528
1364.829, 34.83118
1365.887, 4.855957
1366.945, 38.89355
1368.003, 12.92273
1369.061, 15.95386
1370.119, 45.98718
1371.177, 25.30664
1372.234, 48.06018
1373.291, 20.36792
1374.348, 27.40955
1375.405, 34.45349
1376.462, 34.50659
1377.518, 38.56421
1378.575, 20.62415
1379.631, 24.85315
1380.687, 33.57373
1381.743, 21.64062
1382.799, 36.71387
1383.854, 39.78943
1384.910, 33.86597
1385.965, 23.94507
1387.020, 38.02759
1388.075, 38.11267
1389.130, 37.44507
1390.184, 37.24097
1391.239, 30.38245
1392.293, 30.47107
1393.347, 10.56201
1394.401, 13.65540
1395.455, 7.745850
1396.509, 34.83862
1397.562, 35.93372
1398.615, 34.03113
1399.669, 5.130981
1400.722, 14.23303
1401.774, 24.33765
1402.827, 19.44446
1403.879, 60.55383
1404.932, 37.66528
1405.984, 41.77930
1407.036, 13.89587
1408.088, 28.01489
1409.139, 23.13635
1410.191, 52.26013
1411.242, 33.66052
1412.294, 42.78967
1413.345, 12.92139
1414.395, 3.657593
1415.446, 20.79492
1416.497, 35.94055
1417.547, 8.9478001E-02
1418.597, 13.24182
1419.647, 26.39783
1420.697, 25.59705
1421.747, 42.76050
1422.796, 44.92773
1423.846, 6.099121
1424.895, 54.31897
1425.944, 13.48767
1426.993, 28.69141
1428.042, 36.90356
1429.090, 48.17517
1430.139, 57.41992
1431.187, 61.61047
1432.235, 62.71191
1433.283, 51.99304
1434.331, 52.17847
1435.378, 56.67554
1436.426, 39.85913
1437.473, 49.04968
1438.520, 40.85974
1439.567, 11.99988
1440.614, 2.857544
1441.661, 3.820068
1442.707, 10.44287
1443.753, 25.59888
1444.799, 31.75842
1445.845, 48.91785
1446.891, 38.07996
1447.937, 18.24731
1448.982, 34.41809
1450.028, 26.59216
1451.073, 10.23022
1452.118, 15.57812
1453.163, 43.75940
1454.207, 5.058594
1455.252, 25.12439
1456.296, 3.310791
1457.340, 37.50061
1458.384, 64.68958
1459.428, 5.881958
1460.472, 27.07788
1461.515, 37.27722
1462.559, 5.352905
1463.602, 1.557861
1464.645, 22.51233
1465.688, 46.72144
1466.731, 7.933716
1467.773, 40.14978
1468.816, 13.62671
1469.858, 15.60474
1470.900, 18.83972
1471.942, 48.07935
1472.983, 29.32349
1474.025, 16.57104
1475.066, 49.82214
1476.108, 10.92310
1477.149, 24.33508
1478.190, 18.59668
1479.230, 40.86182
1480.271, 34.13074
1481.311, 24.40332
1482.352, 32.67969
1483.392, 28.04980
1484.432, 27.24377
1485.472, 33.53162
1486.511, 29.32800
1487.551, 36.11646
1488.590, 16.41174
1489.629, 21.71655
1490.668, 9.022583
1491.707, 1.334717
1492.745, 25.64990
1493.784, 10.96838
1494.822, 8.289795
1495.860, 25.61389
1496.898, 51.93909
1497.936, 53.26709
1498.974, 39.59827
1500.011, 35.92773
1501.049, 24.26367
1502.086, 50.48181
1503.123, 18.82971
1504.160, 32.18323
1505.196, 52.54272
1506.233, 31.90820
1507.269, 19.47046
1508.305, 37.83997
1509.341, 37.90332
1510.377, 42.27881
1511.413, 49.66040
1512.449, 52.13428
1513.484, 10.44556
1514.519, 56.85541
1515.554, 26.27252
1516.589, 14.23138
1517.624, 43.62878
1518.658, 26.03143
1519.693, 19.19678
1520.727, 45.57971
1521.761, 20.96661
1522.795, 26.35730
1523.829, 34.75165
1524.862, 43.14941
1525.896, 30.55078
1526.929, 19.95538
1527.962, 46.32532
1528.995, 24.73444
1530.028, 22.14600
1531.060, 62.56000
1532.093, 21.97650
1533.125, 23.40015
1534.157, 17.82538
1535.189, 4.732422
1536.221, 35.73468
1537.253, 40.21228
1538.284, 40.69287
1539.316, 33.17517
1540.347, 23.72906
1541.378, 23.32397
1542.408, 32.96741
1543.439, 35.63196
1544.470, 12.32031
1545.500, 54.03711
1546.530, 31.78693
1547.560, 45.57434
1548.590, 14.40588
1549.620, 35.67072
1550.649, 17.38354
1551.679, 17.12207
1552.708, 6.872375
1553.737, 13.44775
1554.766, 33.71771
1555.794, 35.48755
1556.823, 34.60822
1557.851, 46.85773
1558.879, 0.4595950
1559.907, 31.98053
1560.935, 2.147583
1561.963, 0.0000000E+00
##END=



