##NAMES=Baddeleyite
##RRUFFID=R060016
##IDEAL CHEMISTRY=Zr^4+^O_2_
##LOCALITY=Wet Loo, Myanmar
##OWNER=RRUFF
##SOURCE=American Museum of Natural History
##DESCRIPTION=Brown crystal fragment
##STATUS=The identification of this mineral has been confirmed by X-ray diffraction and chemical analysis
##URL=rruff.info/R060016
##MEASURED CHEMISTRY=(Zr_0.99_Ti_0.01_)_Î£=1_O_2_
##PIN_ID=M01376
##ORIENTATION=Laser parallel to c* (0 0 1). Fiducial mark perpendicular to laser is parallel to -a [-1 0 0]
135.7070, 0.0000000E+00
136.9380, 52.75439
138.1700, 12.01904
139.4010, 34.43164
140.6330, 76.90283
141.8640, 28.08398
143.0950, 56.54785
144.3250, 74.04932
145.5560, 71.83105
146.7860, 39.43945
148.0160, 6.512695
149.2470, 9.744141
150.4760, 21.78955
151.7060, 120.6890
152.9360, 115.9941
154.1650, 202.6562
155.3950, 325.5762
156.6240, 348.6582
157.8530, 355.8032
159.0820, 347.9170
160.3100, 482.9141
161.5390, 701.7163
162.7670, 932.2534
163.9950, 1265.464
165.2230, 1620.291
166.4510, 2265.686
167.6790, 3092.602
168.9060, 3810.999
170.1340, 4276.873
171.3610, 5153.280
172.5880, 6516.257
173.8150, 8126.774
175.0420, 9364.772
176.2690, 10340.20
177.4950, 10590.00
178.7210, 10335.15
179.9470, 9695.604
181.1730, 8917.340
182.3990, 7918.334
183.6250, 7011.564
184.8500, 7750.013
186.0760, 9075.665
187.3010, 10743.50
188.5260, 11704.51
189.7510, 11732.69
190.9750, 11053.02
192.2000, 9524.489
193.4240, 7501.093
194.6490, 5256.822
195.8730, 3445.670
197.0970, 2179.629
198.3200, 1433.690
199.5440, 1140.851
200.7670, 914.1055
201.9910, 836.4526
203.2140, 697.1777
204.4370, 704.6870
205.6590, 686.9014
206.8820, 550.8843
208.1050, 678.4526
209.3270, 713.2275
210.5490, 902.1074
211.7710, 1220.908
212.9930, 1322.582
214.2150, 1682.151
215.4360, 1924.632
216.6570, 2516.037
217.8790, 3092.376
219.1000, 3649.660
220.3210, 4117.894
221.5410, 4081.086
222.7620, 3906.241
223.9820, 3304.365
225.2030, 2674.463
226.4230, 1746.536
227.6430, 1406.590
228.8620, 844.6255
230.0820, 532.6460
231.3010, 463.6538
232.5210, 438.6504
233.7400, 348.6367
234.9590, 234.6143
236.1780, 166.5854
237.3960, 150.0249
238.6150, 258.5093
239.8330, 164.4644
241.0510, 244.4160
242.2690, 268.3638
243.4870, 266.3091
244.7050, 267.2520
245.9230, 274.1929
247.1400, 299.1309
248.3570, 347.0659
249.5740, 233.9971
250.7910, 352.9258
252.0080, 381.8511
253.2240, 314.7725
254.4410, 362.6914
255.6570, 443.6069
256.8730, 412.5186
258.0890, 366.4272
259.3050, 504.3325
260.5210, 514.2344
261.7360, 510.1323
262.9510, 393.0278
264.1670, 340.9199
265.3820, 430.8091
266.5960, 369.6948
267.8110, 374.8311
269.0260, 323.2437
270.2400, 321.3076
271.4540, 425.8838
272.6680, 295.6372
273.8820, 479.3291
275.0960, 573.0098
276.3090, 605.2612
277.5230, 619.4668
278.7360, 717.6079
279.9490, 727.6919
281.1620, 759.7344
282.3750, 796.5679
283.5880, 1026.165
284.8000, 958.3496
286.0120, 1083.176
287.2240, 1209.509
288.4360, 1185.539
289.6480, 1448.251
290.8600, 1477.130
292.0710, 1451.162
293.2830, 1673.332
294.4940, 1732.629
295.7050, 1816.042
296.9160, 1965.563
298.1260, 2113.186
299.3370, 2330.899
300.5470, 2547.699
301.7580, 2636.579
302.9680, 2720.539
304.1770, 2897.567
305.3870, 3037.662
306.5970, 2997.817
307.8060, 3026.030
309.0150, 2932.296
310.2250, 2792.611
311.4340, 2779.975
312.6420, 2610.382
313.8510, 2720.833
315.0590, 2732.322
316.2680, 2988.849
317.4760, 3166.411
318.6840, 3506.005
319.8920, 4277.629
321.0990, 5040.282
322.3070, 6128.960
323.5140, 7417.660
324.7210, 8620.382
325.9280, 10236.13
327.1350, 11775.89
328.3420, 13859.67
329.5490, 16032.47
330.7550, 17722.28
331.9610, 18563.11
333.1670, 18335.96
334.3730, 17134.82
335.5790, 14541.69
336.7840, 12215.57
337.9900, 9773.464
339.1950, 8090.367
340.4000, 6843.283
341.6050, 6059.205
342.8100, 5963.139
344.0150, 5887.081
345.2190, 5726.030
346.4230, 5565.988
347.6280, 5257.952
348.8320, 4765.923
350.0350, 4283.897
351.2390, 3334.866
352.4430, 2577.833
353.6460, 2043.793
354.8490, 1616.744
356.0520, 1301.687
357.2550, 1145.621
358.4580, 910.5474
359.6600, 803.4668
360.8630, 790.3799
362.0650, 725.2861
363.2670, 708.1870
364.4690, 670.0815
365.6710, 718.9712
366.8720, 792.8555
368.0740, 924.9663
369.2750, 1153.609
370.4760, 1338.479
371.6770, 1547.344
372.8780, 1867.205
374.0780, 2343.062
375.2790, 2420.914
376.4790, 2949.763
377.6790, 3225.607
378.8790, 3573.448
380.0790, 3815.285
381.2790, 3747.119
382.4780, 3644.948
383.6780, 3384.774
384.8770, 2970.598
386.0760, 2573.417
387.2750, 2214.233
388.4730, 1720.046
389.6720, 1390.856
390.8700, 933.6621
392.0690, 792.4663
393.2670, 502.2671
394.4650, 411.0649
395.6620, 301.8604
396.8600, 188.6533
398.0570, 47.44336
399.2550, 5.157227
400.4520, 32.99805
401.6490, 86.24658
402.8450, 79.52979
404.0420, 123.8477
405.2390, 117.2085
406.4350, 163.6123
407.6310, 99.07031
408.8270, 90.56641
410.0230, 49.09717
411.2190, 113.6533
412.4140, 219.2524
413.6090, 7.953125
414.8050, 194.7368
416.0000, 257.6714
417.1940, 94.77637
418.3890, 154.9756
419.5840, 44.33496
420.7780, 76.79102
421.9720, 44.38818
423.1660, 113.0767
424.3600, 27.14795
425.5540, 10.33008
426.7480, 142.4922
427.9410, 52.39209
429.1340, 77.67529
430.3270, 0.7583010
431.5200, 157.8350
432.7130, 74.93066
433.9060, 136.0391
435.0980, 271.1592
436.2900, 252.2910
437.4830, 239.4326
438.6750, 279.5854
439.8660, 392.7480
441.0580, 376.9600
442.2500, 559.1411
443.4410, 623.3311
444.6320, 713.5288
445.8230, 797.5825
447.0140, 914.8315
448.2050, 1031.296
449.3950, 1263.526
450.5860, 1453.765
451.7760, 1584.010
452.9660, 1828.262
454.1560, 2259.521
455.3450, 2552.788
456.5350, 3083.062
457.7240, 3657.342
458.9140, 4394.630
460.1030, 5356.923
461.2920, 6562.224
462.4810, 8109.533
463.6690, 10096.85
464.8580, 12620.17
466.0460, 15231.50
467.2340, 18281.84
468.4220, 21522.17
469.6100, 24749.53
470.7970, 28256.88
471.9850, 31352.25
473.1720, 33340.61
474.3590, 33611.00
475.5460, 32010.38
476.7330, 28802.77
477.9200, 24640.17
479.1060, 19974.58
480.2930, 15826.99
481.4790, 12619.41
482.6650, 9782.845
483.8510, 7858.282
485.0370, 6470.730
486.2220, 5548.184
487.4080, 4687.646
488.5930, 4158.117
489.7780, 3731.598
490.9630, 3670.086
492.1480, 3430.582
493.3320, 3507.088
494.5170, 3496.603
495.7010, 3569.125
496.8850, 3617.659
498.0690, 3769.201
499.2530, 3979.752
500.4360, 3952.313
501.6200, 3757.886
502.8030, 3556.467
503.9860, 2997.058
505.1690, 2499.660
506.3520, 2107.271
507.5350, 1722.895
508.7170, 1482.529
509.9000, 1157.173
511.0820, 994.8291
512.2640, 1099.496
513.4460, 939.1733
514.6270, 923.8638
515.8090, 820.5654
516.9900, 788.2783
518.1710, 709.0034
519.3530, 741.2231
520.5330, 921.5039
521.7140, 854.2783
522.8950, 1032.065
524.0750, 1141.865
525.2550, 1441.677
526.4350, 1624.502
527.6150, 2105.340
528.7950, 2326.191
529.9750, 2969.055
531.1540, 3472.934
532.3340, 4099.839
533.5130, 4872.759
534.6920, 5450.710
535.8700, 6199.678
537.0490, 6326.661
538.2280, 6409.680
539.4060, 5942.715
540.5840, 5326.560
541.7620, 4545.764
542.9400, 4010.767
544.1180, 3550.647
545.2950, 3247.921
546.4720, 3163.603
547.6500, 3246.706
548.8270, 3507.999
550.0040, 3725.245
551.1800, 3978.020
552.3570, 4596.264
553.5330, 4708.746
554.7090, 5083.705
555.8850, 5508.418
557.0610, 5312.967
558.2370, 5196.604
559.4130, 4604.331
560.5880, 3994.494
561.7630, 3319.289
562.9380, 2762.229
564.1130, 2121.138
565.2880, 1797.091
566.4630, 1287.006
567.6370, 1016.232
568.8120, 828.6504
569.9860, 712.4053
571.1600, 537.3281
572.3330, 460.2646
573.5070, 355.2441
574.6810, 369.2539
575.8540, 192.2920
577.0270, 281.3643
578.2000, 103.4697
579.3730, 162.6035
580.5460, 98.76758
581.7180, 2.040039
582.8910, 11.18066
584.0630, 52.42969
585.2350, 154.7080
586.4070, 61.97070
587.5780, 0.6064450
588.7500, 25.21191
589.9210, 91.20898
591.0930, 223.6592
592.2640, 207.1396
593.4350, 150.6494
594.6050, 333.1963
595.7760, 315.7715
596.9460, 416.3779
598.1170, 642.0156
599.2870, 943.6924
600.4570, 973.3975
601.6260, 1157.133
602.7960, 1529.904
603.9650, 1794.705
605.1350, 2128.553
606.3040, 2511.435
607.4730, 3038.346
608.6420, 3352.286
609.8100, 3891.257
610.9790, 4271.257
612.1470, 4643.291
613.3150, 4801.917
614.4830, 4951.483
615.6510, 4828.631
616.8190, 4588.811
617.9860, 4313.023
619.1540, 3771.267
620.3210, 3293.544
621.4880, 2877.857
622.6550, 2512.511
623.8220, 2143.575
624.9880, 1991.987
626.1550, 1736.430
627.3210, 1679.905
628.4870, 1723.416
629.6530, 1802.959
630.8190, 1876.534
631.9840, 1934.143
633.1500, 2066.781
634.3150, 2144.448
635.4800, 2113.145
636.6450, 2022.869
637.8100, 2001.624
638.9740, 1791.406
640.1390, 1708.220
641.3030, 1514.062
642.4670, 1274.932
643.6310, 1089.831
644.7950, 917.5361
645.9590, 579.7139
647.1220, 606.6982
648.2850, 481.7109
649.4490, 343.7510
650.6120, 440.8281
651.7740, 273.9326
652.9370, 300.0674
654.1000, 162.2295
655.2620, 153.4199
656.4240, 209.6377
657.5860, 243.8848
658.7480, 153.4902
659.9100, 128.7930
661.0710, 27.16211
662.2330, 136.5195
663.3940, 42.90332
664.5550, 126.3145
665.7160, 60.75293
666.8770, 48.21777
668.0370, 156.7100
669.1980, 65.23047
670.3580, 36.77637
671.5180, 177.4092
672.6780, 91.00879
673.8380, 101.5098
674.9970, 212.7471
676.1570, 241.4258
677.3160, 196.3857
678.4750, 209.1172
679.6340, 262.8223
680.7930, 234.6055
681.9520, 316.4238
683.1100, 341.2871
684.2680, 316.2061
685.4270, 275.4912
686.5850, 510.5352
687.7420, 403.9473
688.9000, 520.4492
690.0580, 496.3838
691.2150, 535.6855
692.3720, 683.7520
693.5290, 644.0605
694.6860, 747.5537
695.8430, 796.2920
696.9990, 690.6641
698.1560, 788.3701
699.3120, 830.4932
700.4680, 785.3145
701.6240, 1026.045
702.7800, 1068.697
703.9350, 941.7061
705.0900, 1036.016
706.2460, 1106.349
707.4010, 1125.424
708.5560, 1146.599
709.7110, 1069.779
710.8650, 1013.977
712.0200, 904.2021
713.1740, 902.4668
714.3280, 858.7236
715.4820, 855.1367
716.6360, 630.2402
717.7890, 838.5439
718.9430, 711.8633
720.0960, 482.1992
721.2490, 587.5098
722.4020, 471.8740
723.5550, 436.2676
724.7080, 451.0459
725.8600, 371.6494
727.0130, 369.4277
728.1650, 440.6328
729.3170, 419.1592
730.4690, 375.8955
731.6200, 419.3818
732.7720, 419.1641
733.9230, 418.4814
735.0740, 459.8125
736.2250, 444.9443
737.3760, 429.4043
738.5270, 470.0195
739.6780, 429.5859
740.8280, 424.9023
741.9780, 524.4883
743.1280, 432.0049
744.2780, 548.7012
745.4280, 656.3135
746.5770, 500.0195
747.7270, 560.6484
748.8760, 720.5303
750.0250, 704.2705
751.1740, 736.5352
752.3230, 744.8066
753.4720, 717.7842
754.6200, 694.1729
755.7680, 746.9082
756.9160, 667.5918
758.0640, 646.5088
759.2120, 588.7041
760.3600, 646.6777
761.5070, 553.7217
762.6550, 593.5225
763.8020, 493.2578
764.9490, 521.0840
766.0960, 400.0430
767.2420, 415.5391
768.3890, 425.0508
769.5350, 402.7275
770.6810, 419.5303
771.8270, 244.4355
772.9730, 187.1670
774.1190, 312.9102
775.2640, 185.7324
776.4100, 242.4688
777.5550, 295.5049
778.7000, 197.2412
779.8450, 183.9785
780.9900, 100.8438
782.1340, 184.5811
783.2790, 71.31641
784.4230, 134.0518
785.5670, 176.7861
786.7110, 31.52734
787.8550, 157.0664
788.9980, 183.8047
790.1420, 44.80469
791.2850, 121.5566
792.4280, 13.30566
793.5710, 25.09375
794.7140, 115.8379
795.8560, 35.36426
796.9990, 44.35840
798.1410, 27.92285
799.2830, 25.78125
800.4250, 86.47949
801.5670, 32.17480
802.7090, 82.86426
803.8500, 70.57617
804.9920, 101.2549
806.1330, 87.99219
807.2740, 161.6592
808.4150, 53.68066
809.5550, 42.94434
810.6960, 64.43555
811.8360, 9.857422
812.9760, 101.1396
814.1160, 83.09863
815.2560, 36.40430
816.3960, 92.00293
817.5350, 71.43164
818.6750, 10.85840
819.8140, 178.2773
820.9530, 54.68750
822.0920, 3.087891
823.2310, 102.5264
824.3690, 106.3555
825.5080, 121.5312
826.6460, 62.81250
827.7840, 98.70801
828.9220, 13.67578
830.0600, 15.67285
831.1970, 46.30371
832.3350, 34.73145
833.4720, 10.80957
834.6090, 60.20508
835.7460, 18.59375
836.8830, 75.57715
838.0190, 7.383789
839.1560, 53.86816
840.2920, 42.17773
841.4280, 29.34668
842.5640, 3.246094
843.7000, 81.81152
844.8360, 50.39062
845.9710, 94.22266
847.1070, 68.49512
848.2420, 130.0967
849.3770, 62.60742
850.5120, 90.13672
851.6460, 12.61133
852.7810, 21.05566
853.9150, 80.47168
855.0490, 139.8701
856.1830, 193.8018
857.3170, 180.8311
858.4510, 99.50293
859.5840, 139.0186
860.7180, 17.65723
861.8510, 43.40527
862.9840, 51.39160
864.1170, 115.5605
865.2500, 87.05762
866.3820, 64.18555
867.5150, 170.2910
868.6470, 14.37793
869.7790, 172.4297
870.9110, 80.45996
872.0430, 50.46582
873.1740, 13.76953
874.3060, 103.7109
875.4370, 125.7783
876.5680, 19.67383
877.6990, 127.5332
878.8300, 16.63086
879.9600, 39.14844
881.0910, 130.8945
882.2210, 110.6191
883.3510, 153.3984
884.4810, 90.07617
885.6110, 43.72852
886.7410, 8.348633
887.8700, 8.920898
888.9990, 88.44727
890.1290, 62.94629
891.2580, 49.41602
892.3860, 148.8525
893.5150, 45.26562
894.6440, 37.64258
895.7720, 99.98730
896.9000, 94.30664
898.0280, 24.59766
899.1560, 148.8457
900.2840, 54.06934
901.4110, 50.25977
902.5390, 70.41309
903.6660, 70.53516
904.7930, 63.62598
905.9200, 144.8252
907.0470, 123.6748
908.1730, 180.8613
909.3000, 163.9229
910.4260, 146.8799
911.5520, 219.9385
912.6780, 113.8438
913.8030, 188.7207
914.9290, 265.5723
916.0540, 142.3984
917.1800, 231.3857
918.3050, 257.1602
919.4300, 254.9092
920.5550, 210.6318
921.6790, 244.2842
922.8040, 44.95508
923.9280, 233.6719
925.0520, 129.2754
926.1760, 234.0312
927.3000, 202.8916
928.4230, 179.4189
929.5470, 255.1084
930.6700, 177.5830
931.7930, 200.7188
932.9160, 252.1475
934.0390, 285.5078
935.1620, 223.8828
936.2840, 287.2314
937.4070, 197.5537
938.5290, 187.8496
939.6510, 274.1182
940.7730, 180.3604
941.8940, 226.5762
943.0160, 220.7646
944.1370, 354.8672
945.2580, 243.4229
946.3800, 219.6562
947.5000, 116.1533
948.6210, 144.2061
949.7420, 189.2656
950.8620, 166.2627
951.9820, 228.4053
953.1020, 203.3506
954.2220, 189.7900
955.3420, 232.6846
956.4620, 208.5537
957.5810, 204.0879
958.7000, 208.9023
959.8190, 216.6357
960.9380, 229.1221
962.0570, 228.2041
963.1760, 225.0010
964.2940, 204.0820
965.4120, 243.7432
966.5300, 182.7139
967.6480, 176.1367
968.7660, 121.9834
969.8840, 87.57031
971.0010, 107.7715
972.1190, 99.32031
973.2360, 216.9795
974.3530, 187.7441
975.4690, 90.33301
976.5860, 225.4951
977.7030, 158.2686
978.8190, 274.7637
979.9350, 162.1074
981.0510, 172.4668
982.1670, 121.8311
983.2830, 163.7676
984.3980, 132.0371
985.5130, 203.3096
986.6290, 191.4199
987.7440, 183.8340
988.8590, 297.0439
989.9730, 53.23242
991.0880, 203.4951
992.2020, 230.6357
993.3160, 16.24512
994.4300, 133.8271
995.5440, 162.5059
996.6580, 42.50684
997.7720, 239.1709
998.8850, 64.15430
999.9980, 294.0527
1001.111, 272.7344
1002.224, 182.5859
1003.337, 131.7549
1004.450, 187.6367
1005.562, 245.4033
1006.674, 64.64746
1007.786, 187.5537
1008.898, 91.35254
1010.010, 182.1338
1011.122, 204.1562
1012.233, 251.8994
1013.344, 130.7041
1014.455, 166.3184
1015.566, 256.0068
1016.677, 100.5918
1017.788, 175.2432
1018.898, 233.6318
1020.009, 152.1514
1021.119, 187.1367
1022.229, 170.1045
1023.339, 171.3564
1024.448, 184.1846
1025.558, 218.6582
1026.667, 210.1709
1027.776, 115.5254
1028.885, 138.4111
1029.994, 127.6475
1031.103, 182.7539
1032.211, 161.0908
1033.320, 187.4043
1034.428, 185.9873
1035.536, 208.9150
1036.644, 149.5107
1037.751, 133.0762
1038.859, 65.46484
1039.966, 217.7139
1041.074, 209.8643
1042.181, 78.20703
1043.288, 142.6045
1044.394, 65.78125
1045.501, 172.0293
1046.607, 96.96191
1047.713, 127.1816
1048.820, 111.3867
1049.925, 48.44824
1051.031, 130.6250
1052.137, 139.7871
1053.242, 122.9355
1054.348, 12.92969
1055.453, 99.17480
1056.558, 67.46582
1057.662, 163.5439
1058.767, 49.65820
1059.871, 26.35742
1060.976, 142.5381
1062.080, 40.48340
1063.184, 215.4561
1064.288, 79.36035
1065.391, 117.8145
1066.495, 113.7578
1067.598, 177.7451
1068.701, 142.4570
1069.804, 145.0029
1070.907, 83.48535
1072.010, 136.3467
1073.112, 106.2246
1074.214, 165.0273
1075.317, 110.8838
1076.419, 85.72852
1077.521, 10.57715
1078.622, 159.4121
1079.724, 146.2529
1080.825, 102.6533
1081.926, 16.27148
1083.027, 119.1055
1084.128, 42.83105
1085.229, 213.6709
1086.329, 3.500000
1087.430, 148.3154
1088.530, 103.1191
1089.630, 107.9160
1090.730, 221.7051
1091.830, 14.51562
1092.929, 55.34668
1094.029, 36.20410
1095.128, 175.0732
1096.227, 39.78809
1097.326, 4.322266
1098.425, 6.559570
1099.523, 177.4297
1100.622, 61.32031
1101.720, 174.0879
1102.818, 66.64746
1103.916, 122.3584
1105.014, 138.0742
1106.111, 190.9756
1107.209, 18.88965
1108.306, 70.62207
1109.403, 2.444336
1110.500, 105.5186
1111.597, 83.33887
1112.694, 103.3135
1113.790, 47.15820
1114.887, 3.081055
1115.983, 96.76074
1117.079, 91.54297
1118.174, 107.3555
1119.270, 124.1660
1120.366, 105.1377
1121.461, 53.93945
1122.556, 24.18555
1123.651, 163.9746
1124.746, 61.75977
1125.841, 165.3486
1126.935, 213.1016
1128.030, 43.88672
1129.124, 33.08398
1130.218, 159.8828
1131.312, 126.3291
1132.405, 111.1172
1133.499, 12.09668
1134.592, 140.6748
1135.686, 146.4531
1136.779, 20.22559
1137.871, 118.9941
1138.964, 165.4365
1140.057, 21.20898
1141.149, 162.8262
1142.241, 134.5898
1143.334, 198.3584
1144.425, 75.12109
1145.517, 178.8994
1146.609, 119.6787
1147.700, 178.4551
1148.791, 154.1475
1149.883, 89.91797
1150.974, 153.6855
1152.064, 69.45508
1153.155, 235.2334
1154.245, 37.02148
1155.336, 87.80762
1156.426, 24.59473
1157.516, 157.3838
1158.606, 3.170898
1159.695, 16.03906
1160.785, 10.74609
1161.874, 66.53125
1162.963, 56.31543
1164.052, 19.10645
1165.141, 197.8955
1166.230, 158.6885
1167.318, 164.0186
1168.406, 38.81641
1169.495, 116.6172
1170.583, 23.27832
1171.670, 13.08008
1172.758, 4.881836
1173.846, 1.122070
1174.933, 26.39941
1176.020, 61.06738
1177.107, 81.86426
1178.194, 147.6621
1179.281, 116.4590
1180.367, 136.2529
1181.454, 138.8613
1182.540, 68.65820
1183.626, 89.45312
1184.712, 134.2471
1185.798, 26.08789
1186.883, 36.88281
1187.969, 68.63867
1189.054, 11.44238
1190.139, 8.065430
1191.224, 26.43945
1192.309, 37.35547
1193.393, 65.96387
1194.478, 97.76074
1195.562, 32.46094
1196.646, 20.32520
1197.730, 1.886719
1198.814, 92.90039
1199.897, 97.68848
1200.981, 1.478516
1202.064, 194.2695
1203.147, 168.0615
1204.230, 18.85547
1205.313, 105.6504
1206.396, 300.4482
1207.478, 77.24805
1208.560, 132.6260
1209.642, 91.42871
1210.724, 22.23340
1211.806, 35.04004
1212.888, 69.56055
1213.969, 97.37305
1215.051, 32.06934
1216.132, 79.88574
1217.213, 84.18555
1218.294, 3.004883
1219.374, 163.8271
1220.455, 126.6514
1221.535, 73.47852
1222.616, 65.05859
1223.696, 16.85059
1224.775, 120.5674
1225.855, 41.59863
1226.935, 166.1191
1228.014, 230.0547
1229.093, 135.5625
1230.172, 191.4395
1231.251, 154.5381
1232.330, 115.7812
1233.408, 45.20215
1234.487, 73.03809
1235.565, 30.87598
1236.643, 65.71680
1237.721, 45.61035
1238.799, 85.45605
1239.876, 161.6689
1240.954, 96.42480
1242.031, 5.723633
1243.108, 145.1299
1244.185, 21.95801
1245.262, 0.8046880
1246.338, 99.05469
1247.415, 142.9189
1248.491, 29.78418
1249.567, 7.345703
1250.643, 38.52441
1251.719, 48.58984
1252.795, 74.37109
1253.870, 16.25586
1254.945, 30.63086
1256.021, 31.28613
1257.096, 31.25684
1258.170, 47.35645
1259.245, 58.23828
1260.320, 72.15918
1261.394, 69.08398
1262.468, 48.01270
1263.542, 50.01367
1264.616, 53.39551
1265.690, 101.1631
1266.763, 96.03516
1267.836, 103.9814
1268.910, 177.9307
1269.983, 125.8291
1271.055, 180.6680
1272.128, 181.7500
1273.201, 184.7158
1274.273, 180.6846
1275.345, 69.65723
1276.417, 72.63477
1277.489, 86.61621
1278.561, 80.60059
1279.632, 92.58984
1280.704, 50.58105
1281.775, 25.57812
1282.846, 28.86914
1283.917, 76.58301
1284.988, 21.59180
1286.058, 75.60352
1287.129, 72.62402
1288.199, 21.56152
1289.269, 6.680664
1290.339, 12.66309
1291.409, 102.6992
1292.478, 70.73926
1293.548, 63.77637
1294.617, 68.82520
1295.686, 19.12207
1296.755, 265.9316
1297.824, 28.98926
1298.893, 60.04980
1299.961, 133.1240
1301.029, 18.18359
1302.097, 169.2168
1303.165, 83.17578
1304.233, 57.26758
1305.301, 122.3662
1306.368, 94.46777
1307.436, 103.9746
1308.503, 82.68750
1309.570, 96.80273
1310.637, 97.92383
1311.703, 86.04688
1312.770, 85.17188
1313.836, 14.30078
1314.902, 113.4434
1315.968, 2.412109
1317.034, 140.7373
1318.100, 91.89062
1319.165, 212.0654
1320.231, 152.0664
1321.296, 77.25098
1322.361, 110.4414
1323.426, 79.63477
1324.491, 120.3340
1325.555, 116.5371
1326.620, 97.69434
1327.684, 105.9043
1328.748, 70.12109
1329.812, 126.3408
1330.875, 151.5654
1331.939, 229.7939
1333.002, 177.0293
1334.066, 153.2676
1335.129, 66.51172
1336.192, 156.7412
1337.254, 83.97852
1338.317, 199.2207
1339.379, 232.4658
1340.442, 107.7148
1341.504, 66.97070
1342.566, 107.2314
1343.628, 22.49805
1344.689, 127.7686
1345.751, 58.04590
1346.812, 25.32812
1347.873, 111.6113
1348.934, 86.89941
1349.995, 110.1934
1351.055, 89.49316
1352.116, 212.7979
1353.176, 187.1064
1354.236, 132.5957
1355.296, 63.91504
1356.356, 155.2432
1357.416, 72.42188
1358.475, 13.09570
1359.535, 65.23535
1360.594, 130.5723
1361.653, 193.9131
1362.712, 54.26074
1363.770, 143.6133
1364.829, 11.02832
1365.887, 152.3340
1366.945, 168.7031
1368.003, 57.08008
1369.061, 142.4922
1370.119, 70.78809
1371.177, 124.2109
1372.234, 64.63965
1373.291, 120.0596
1374.348, 58.50195
1375.405, 243.9492
1376.462, 149.4023
1377.518, 149.6982
1378.575, 10.08398
1379.631, 135.3848
1380.687, 42.91699
1381.743, 19.60059
1382.799, 25.88379
1383.854, 139.3740
1384.910, 104.8701
1385.965, 242.3730
1387.020, 96.88184
1388.075, 62.39551
1389.130, 185.9170
1390.184, 22.44336
1391.239, 13.01855
1392.293, 107.5244
1393.347, 213.0752
1394.401, 133.6318
1395.455, 202.1963
1396.509, 139.8350
1397.562, 94.41211
1398.615, 60.99805
1399.669, 231.5918
1400.722, 89.19141
1401.774, 202.7998
1402.827, 205.4150
1403.879, 230.0371
1404.932, 112.6689
1405.984, 63.30859
1407.036, 166.9551
1408.088, 133.6113
1409.139, 150.2607
1410.191, 21.91797
1411.242, 85.58398
1412.294, 20.02051
1413.345, 110.7031
1414.395, 171.3945
1415.446, 180.0938
1416.497, 272.8076
1417.547, 133.5312
1418.597, 200.2637
1419.647, 266.0059
1420.697, 159.7568
1421.747, 53.51758
1422.796, 115.7529
1423.846, 56.53418
1424.895, 203.3467
1425.944, 255.5518
1426.993, 243.5449
1428.042, 288.3398
1429.090, 155.1426
1430.139, 105.0400
1431.187, 161.8633
1432.235, 275.6934
1433.283, 150.4346
1434.331, 163.3545
1435.378, 142.9766
1436.426, 206.7168
1437.473, 50.14258
1438.520, 74.26270
1439.567, 161.8945
1440.614, 240.4941
1441.661, 185.1416
1442.707, 231.8018
1443.753, 232.4756
1444.799, 169.1650
1445.845, 182.8701
1446.891, 205.5850
1447.937, 164.3076
1448.982, 166.0391
1450.028, 181.9893
1451.073, 69.52832
1452.118, 187.2871
1453.163, 169.0537
1454.207, 103.8301
1455.252, 149.6172
1456.296, 121.4121
1457.340, 183.2168
1458.384, 157.0303
1459.428, 197.8623
1460.472, 217.7139
1461.515, 118.5029
1462.559, 99.33301
1463.602, 103.1719
1464.645, 81.54297
1465.688, 25.60938
1466.731, 123.4746
1467.773, 129.3496
1468.816, 187.2344
1469.858, 148.1289
1470.900, 141.0332
1471.942, 147.6787
1472.983, 171.9170
1474.025, 245.8271
1475.066, 54.74707
1476.108, 121.6748
1477.149, 155.6113
1478.190, 52.15332
1479.230, 155.1006
1480.271, 37.05664
1481.311, 75.02051
1482.352, 161.9932
1483.392, 193.9727
1484.432, 231.9619
1485.472, 123.9570
1486.511, 164.9609
1487.551, 183.9707
1488.590, 265.9775
1489.629, 62.99219
1490.668, 138.0137
1491.707, 223.0400
1492.745, 108.0732
1493.784, 210.1201
1494.822, 231.1611
1495.860, 102.1934
1496.898, 128.2295
1497.936, 216.2695
1498.974, 54.31250
1500.011, 200.3633
1501.049, 11.43164
1502.086, 30.51758
1503.123, 18.38281
1504.160, 111.7305
1505.196, 1.145508
1506.233, 43.99219
1507.269, 112.1406
1508.305, 72.30176
1509.341, 39.47363
1510.377, 69.65918
1511.413, 28.85645
1512.449, 79.10742
1513.484, 51.29785
1514.519, 100.7510
1515.554, 52.09961
1516.589, 84.46777
1517.624, 159.8545
1518.658, 79.28125
1519.693, 221.7285
1520.727, 7.200195
1521.761, 87.70020
1522.795, 42.22266
1523.829, 163.7686
1524.862, 148.3398
1525.896, 168.9365
1526.929, 142.5596
1527.962, 77.21387
1528.995, 46.89746
1530.028, 168.6152
1531.060, 234.3711
1532.093, 47.16699
1533.125, 250.8447
1534.157, 221.3662
1535.189, 69.16016
1536.221, 7.003906
1537.253, 95.87402
1538.284, 110.7959
1539.316, 171.7568
1540.347, 146.7598
1541.378, 57.80469
1542.408, 50.47559
1543.439, 106.5830
1544.470, 76.73340
1545.500, 162.9258
1546.530, 116.1602
1547.560, 135.4336
1548.590, 58.00781
1549.620, 10.61719
1550.649, 21.52930
1551.679, 76.66699
1552.708, 109.7832
1553.737, 47.88477
1554.766, 189.8916
1555.794, 215.3594
1556.823, 37.46582
1557.851, 7.459961
1558.879, 150.3594
1559.907, 2.632813
1560.935, 121.3594
1561.963, 0.0000000E+00
##END=



