##NAMES=Baddeleyite
##RRUFFID=R060016
##IDEAL CHEMISTRY=Zr^4+^O_2_
##LOCALITY=Wet Loo, Myanmar
##OWNER=RRUFF
##SOURCE=American Museum of Natural History
##DESCRIPTION=Brown crystal fragment
##STATUS=The identification of this mineral has been confirmed by X-ray diffraction and chemical analysis
##URL=rruff.info/R060016
##MEASURED CHEMISTRY=(Zr_0.99_Ti_0.01_)_Î£=1_O_2_
##PIN_ID=M01376
##ORIENTATION=Laser parallel to c* (0 0 1). Fiducial mark perpendicular to laser is parallel to -a [-1 0 0]
135.7070, 0.0000000E+00
136.9380, 10.70996
138.1700, 100.7490
139.4010, 11.37598
140.6330, 0.2441410
141.8640, 102.0986
143.0950, 76.47266
144.3250, 94.84375
145.5560, 164.3730
146.7860, 128.0947
148.0160, 173.5088
149.2470, 287.2451
150.4760, 285.1338
151.7060, 351.8916
152.9360, 346.2373
154.1650, 353.9717
155.3950, 404.9404
156.6240, 510.0176
157.8530, 732.0820
159.0820, 706.0352
160.3100, 943.7969
161.5390, 884.2988
162.7670, 1317.806
163.9950, 1690.756
165.2230, 2379.246
166.4510, 3297.102
167.6790, 4197.305
168.9060, 5120.840
170.1340, 5756.713
171.3610, 7053.955
172.5880, 8734.590
173.8150, 10919.59
175.0420, 13057.91
176.2690, 14515.52
177.4950, 15595.39
178.7210, 15608.51
179.9470, 15101.85
181.1730, 14120.40
182.3990, 12666.15
183.6250, 11881.08
184.8500, 13078.37
186.0760, 15263.63
187.3010, 18011.18
188.5260, 20130.32
189.7510, 21129.50
190.9750, 20980.69
192.2000, 18609.11
193.4240, 14649.38
194.6490, 10544.03
195.8730, 6652.826
197.0970, 4352.750
198.3200, 2806.799
199.5440, 1938.971
200.7670, 1405.255
201.9910, 1102.774
203.2140, 915.6367
204.4370, 847.7441
205.6590, 537.4082
206.8820, 456.7148
208.1050, 453.3701
209.3270, 429.0908
210.5490, 638.7432
211.7710, 729.3330
212.9930, 697.8721
214.2150, 1043.376
215.4360, 991.8594
216.6570, 1422.330
217.8790, 1703.796
219.1000, 1924.265
220.3210, 2261.744
221.5410, 2288.238
222.7620, 2114.752
223.9820, 1898.291
225.2030, 1413.852
226.4230, 944.4395
227.6430, 739.0566
228.8620, 388.7012
230.0820, 170.3770
231.3010, 52.08203
232.5210, 88.81934
233.7400, 5.411133
234.9590, 27.38867
236.1780, 113.2207
237.3960, 1.918945
238.6150, 1.971680
239.8330, 70.89062
241.0510, 74.16211
242.2690, 75.18457
243.4870, 36.82324
244.7050, 190.1406
245.9230, 10.92578
247.1400, 17.01953
248.3570, 34.14160
249.5740, 52.70898
250.7910, 1.532227
252.0080, 42.67188
253.2240, 64.90430
254.4410, 69.16211
255.6570, 52.44629
256.8730, 61.75781
258.0890, 64.82422
259.3050, 87.14355
260.5210, 80.83887
261.7360, 175.2412
262.9510, 189.6396
264.1670, 290.9990
265.3820, 120.3838
266.5960, 205.7832
267.8110, 181.8896
269.0260, 300.2041
270.2400, 62.93164
271.4540, 286.3955
272.6680, 181.2051
273.8820, 150.6729
275.0960, 258.3604
276.3090, 320.5781
277.5230, 490.0527
278.7360, 244.2764
279.9490, 365.6807
281.1620, 481.6279
282.3750, 472.2930
283.5880, 614.5127
284.8000, 351.4170
286.0120, 673.9951
287.2240, 606.1904
288.4360, 642.6230
289.6480, 844.2598
290.8600, 698.0762
292.0710, 1099.056
293.2830, 980.1826
294.4940, 1381.443
295.7050, 1231.829
296.9160, 1693.324
298.1260, 1613.926
299.3370, 1990.629
300.5470, 2161.448
301.7580, 2348.376
302.9680, 2624.406
304.1770, 2746.510
305.3870, 3007.696
306.5970, 2875.979
307.8060, 2908.368
309.0150, 2825.814
310.2250, 2569.312
311.4340, 2223.857
312.6420, 2134.449
313.8510, 2026.085
315.0590, 2077.765
316.2680, 1956.485
317.4760, 2048.245
318.6840, 2411.042
319.8920, 2666.877
321.0990, 3227.747
322.3070, 3559.649
323.5140, 4484.584
324.7210, 5224.551
325.9280, 6325.547
327.1350, 7134.572
328.3420, 8546.625
329.5490, 9649.712
330.7550, 11011.82
331.9610, 11540.95
333.1670, 11836.11
334.3730, 11178.27
335.5790, 9843.430
336.7840, 8665.540
337.9900, 7690.677
339.1950, 7137.824
340.4000, 6876.994
341.6050, 6920.188
342.8100, 7219.406
344.0150, 8031.648
345.2190, 8387.912
346.4230, 8607.197
347.6280, 8434.504
348.8320, 7621.827
350.0350, 6666.172
351.2390, 5430.529
352.4430, 4323.900
353.6460, 3405.285
354.8490, 2496.679
356.0520, 2164.084
357.2550, 1719.498
358.4580, 1358.928
359.6600, 1071.367
360.8630, 883.8193
362.0650, 824.2842
363.2670, 789.7617
364.4690, 641.2510
365.6710, 507.7529
366.8720, 523.2676
368.0740, 479.7959
369.2750, 579.3359
370.4760, 649.8877
371.6770, 596.4521
372.8780, 726.0293
374.0780, 883.6182
375.2790, 1097.219
376.4790, 1127.830
377.6790, 1215.455
378.8790, 1484.031
380.0790, 1526.680
381.2790, 1654.339
382.4780, 1622.979
383.6780, 1496.649
384.8770, 1315.343
386.0760, 1097.388
387.2750, 806.4014
388.4730, 851.1279
389.6720, 587.1924
390.8700, 298.9414
392.0690, 348.7031
393.2670, 186.4766
394.4650, 333.2148
395.6620, 173.9766
396.8600, 35.21777
398.0570, 118.4180
399.2550, 5.356445
400.4520, 24.13574
401.6490, 33.07910
402.8450, 33.29883
404.0420, 67.47656
405.2390, 11.26074
406.4350, 15.45117
407.6310, 64.15332
408.8270, 70.37109
410.0230, 61.60254
411.2190, 145.8467
412.4140, 190.1797
413.6090, 108.5654
414.8050, 93.01074
416.0000, 111.4814
417.1940, 45.00488
418.3890, 109.5869
419.5840, 9.292969
420.7780, 37.93457
421.9720, 26.88184
423.1660, 6.746094
424.3600, 67.37500
425.5540, 18.50195
426.7480, 118.6436
427.9410, 9.812500
429.1340, 33.99414
430.3270, 264.1982
431.5200, 232.4258
432.7130, 254.6768
433.9060, 277.9482
435.0980, 361.2412
436.2900, 516.5527
437.4830, 665.8867
438.6750, 588.2373
439.8660, 547.6084
441.0580, 806.9980
442.2500, 1043.636
443.4410, 1008.994
444.6320, 1051.113
445.8230, 1361.722
447.0140, 1509.195
448.2050, 1905.188
449.3950, 2000.905
450.5860, 2307.504
451.7760, 2682.035
452.9660, 3027.579
454.1560, 3728.135
455.3450, 4103.705
456.5350, 5110.287
457.7240, 5829.883
458.9140, 7110.490
460.1030, 8770.108
461.2920, 10635.74
462.4810, 13001.39
463.6690, 16348.04
464.8580, 20069.71
466.0460, 24544.40
467.2340, 29469.09
468.4220, 34371.80
469.6100, 39603.52
470.7970, 44922.25
471.9850, 49777.98
473.1720, 52154.73
474.3590, 52144.51
475.5460, 51735.29
476.7330, 47470.08
477.9200, 41162.88
479.1060, 33627.70
480.2930, 26933.53
481.4790, 21064.37
482.6650, 16318.22
483.8510, 13097.09
485.0370, 10602.97
486.2220, 8632.866
487.4080, 7418.771
488.5930, 6279.692
489.7780, 5516.625
490.9630, 5112.570
492.1480, 4711.527
493.3320, 4330.498
494.5170, 4091.483
495.7010, 3917.481
496.8850, 3938.490
498.0690, 3975.514
499.2530, 3819.160
500.4360, 3832.600
501.6200, 3555.664
502.8030, 3460.742
503.9860, 3227.832
505.1690, 2550.936
506.3520, 2260.054
507.5350, 1935.184
508.7170, 1672.328
509.9000, 1580.486
511.0820, 1356.658
512.2640, 1102.844
513.4460, 1155.043
514.6270, 999.2568
515.8090, 894.4844
516.9900, 839.7246
518.1710, 717.9805
519.3530, 725.3594
520.5330, 739.4834
521.7140, 748.8301
522.8950, 885.1416
524.0750, 927.4668
525.2550, 1067.807
526.4350, 1360.161
527.6150, 1518.529
528.7950, 1826.919
529.9750, 1998.389
531.1540, 2399.816
532.3340, 2668.287
533.5130, 3094.771
534.6920, 3461.271
535.8700, 4082.785
537.0490, 4316.321
538.2280, 4296.875
539.4060, 3956.009
540.5840, 3935.506
541.7620, 3483.828
542.9400, 3319.900
544.1180, 2903.131
545.2950, 3082.346
546.4720, 3239.005
547.6500, 3673.595
548.8270, 4092.366
550.0040, 4565.898
551.1800, 5147.127
552.3570, 5640.855
553.5330, 6237.742
554.7090, 6787.058
555.8850, 7168.157
557.0610, 7184.171
558.2370, 6929.113
559.4130, 6225.810
560.5880, 5289.885
561.7630, 4552.557
562.9380, 3544.243
564.1130, 2702.004
565.2880, 2337.909
566.4630, 1676.011
567.6370, 1251.227
568.8120, 1023.372
569.9860, 845.2578
571.1600, 766.0352
572.3330, 588.2432
573.5070, 456.4824
574.6810, 518.7451
575.8540, 202.0293
577.0270, 92.35254
578.2000, 83.73535
579.3730, 87.14062
580.5460, 69.57422
581.7180, 16.02832
582.8910, 36.49609
584.0630, 128.0137
585.2350, 123.5635
586.4070, 114.1436
587.5780, 10.25098
588.7500, 64.33398
589.9210, 152.9219
591.0930, 203.5527
592.2640, 63.74707
593.4350, 52.06738
594.6050, 244.4092
595.7760, 179.7725
596.9460, 156.1562
598.1170, 75.56055
599.2870, 270.9854
600.4570, 418.4316
601.6260, 637.8994
602.7960, 551.3877
603.9650, 892.8965
605.1350, 1054.427
606.3040, 1313.984
607.4730, 1786.563
608.6420, 1871.166
609.8100, 2353.808
610.9790, 2415.470
612.1470, 2777.177
613.3150, 3043.934
614.4830, 3110.763
615.6510, 3150.166
616.8190, 3237.488
617.9860, 2852.395
619.1540, 2490.326
620.3210, 2088.278
621.4880, 1937.252
622.6550, 1421.247
623.8220, 1316.262
624.9880, 1007.297
626.1550, 982.3545
627.3210, 763.4434
628.4870, 609.5527
629.6530, 613.6895
630.8190, 631.8486
631.9840, 687.0283
633.1500, 733.2275
634.3150, 637.4463
635.4800, 807.6846
636.6450, 827.9443
637.8100, 695.2275
638.9740, 734.5791
640.1390, 492.9512
641.3030, 796.3418
642.4670, 473.7510
643.6310, 491.1826
644.7950, 319.6328
645.9590, 358.1035
647.1220, 379.5918
648.2850, 223.1201
649.4490, 208.6680
650.6120, 147.2354
651.7740, 123.0527
652.9370, 87.42969
654.1000, 170.0557
655.2620, 126.7031
656.4240, 227.3672
657.5860, 189.0498
658.7480, 139.7510
659.9100, 137.4697
661.0710, 120.3271
662.2330, 291.9619
663.3940, 122.7344
664.5550, 174.5254
665.7160, 182.3340
666.8770, 110.1611
668.0370, 167.0068
669.1980, 3.126953
670.3580, 169.7549
671.5180, 154.6553
672.6780, 301.5732
673.8380, 131.5107
674.9970, 230.4648
676.1570, 351.1787
677.3160, 204.1670
678.4750, 454.1709
679.6340, 280.2314
680.7930, 433.3447
681.9520, 385.7363
683.1100, 461.8955
684.2680, 295.0879
685.4270, 480.3115
686.5850, 428.5508
687.7420, 410.3486
688.9000, 466.9463
690.0580, 393.2861
691.2150, 463.3691
692.3720, 392.7754
693.5290, 368.9199
694.6860, 464.4570
695.8430, 533.0430
696.9990, 535.2500
698.1560, 738.6729
699.3120, 574.7080
700.4680, 657.4922
701.6240, 672.7920
702.7800, 828.1367
703.9350, 822.7510
705.0900, 777.8350
706.2460, 819.6973
707.4010, 812.5762
708.5560, 811.4658
709.7110, 914.3789
710.8650, 890.3066
712.0200, 716.1494
713.1740, 990.5850
714.3280, 869.5459
715.4820, 748.7041
716.6360, 822.6973
717.7890, 696.6973
718.9430, 546.2061
720.0960, 566.2227
721.2490, 583.2539
722.4020, 434.0635
723.5550, 534.1787
724.7080, 481.5566
725.8600, 443.4736
727.0130, 456.5479
728.1650, 495.1260
729.3170, 450.0059
730.4690, 429.0273
731.6200, 276.1396
732.7720, 317.2656
733.9230, 395.3994
735.0740, 400.5430
736.2250, 497.6953
737.3760, 559.8555
738.5270, 426.2432
739.6780, 360.4209
740.8280, 428.8740
741.9780, 501.0674
743.1280, 419.2686
744.2780, 579.9277
745.4280, 467.3564
746.5770, 607.3232
747.7270, 548.5703
748.8760, 505.8457
750.0250, 563.7529
751.1740, 535.2246
752.3230, 715.2520
753.4720, 597.1992
754.6200, 672.6152
755.7680, 776.7451
756.9160, 631.8213
758.0640, 587.2119
759.2120, 467.1084
760.3600, 462.3916
761.5070, 523.7451
762.6550, 464.0361
763.8020, 459.9893
764.9490, 423.7910
766.0960, 498.0918
767.2420, 405.2168
768.3890, 479.7354
769.5350, 440.5195
770.6810, 403.8252
771.8270, 207.1328
772.9730, 293.4424
774.1190, 374.2422
775.2640, 94.02148
776.4100, 188.3096
777.5550, 327.6191
778.7000, 251.9287
779.8450, 252.2373
780.9900, 161.9062
782.1340, 187.2129
783.2790, 55.61719
784.4230, 98.17578
785.5670, 126.1836
786.7110, 157.4834
787.8550, 30.90039
788.9980, 239.1963
790.1420, 129.3350
791.2850, 61.62598
792.4280, 120.1396
793.5710, 67.42383
794.7140, 63.70508
795.8560, 149.9824
796.9990, 55.25586
798.1410, 182.5254
799.2830, 47.79102
800.4250, 192.0518
801.5670, 111.3076
802.7090, 164.6426
803.8500, 103.9512
804.9920, 120.5576
806.1330, 87.33691
807.2740, 130.5166
808.4150, 144.2803
809.5550, 108.5049
810.6960, 76.17090
811.8360, 106.0869
812.9760, 10.40430
814.1160, 138.8965
815.2560, 83.08301
816.3960, 69.77930
817.5350, 125.9521
818.6750, 2.777344
819.8140, 168.2822
820.9530, 138.4277
822.0920, 173.6309
823.2310, 37.75879
824.3690, 16.07910
825.5080, 5.677734
826.6460, 118.1934
827.7840, 80.90625
828.9220, 104.1455
830.0600, 79.31348
831.1970, 86.21484
832.3350, 78.07520
833.4720, 17.92383
834.6090, 32.75781
835.7460, 15.58008
836.8830, 44.38867
838.0190, 8.539063
839.1560, 8.314453
840.2920, 76.81543
841.4280, 26.93164
842.5640, 61.60742
843.7000, 153.2715
844.8360, 124.1299
845.9710, 108.9912
847.1070, 75.63379
848.2420, 11.73926
849.3770, 19.87402
850.5120, 277.5928
851.6460, 46.82715
852.7810, 123.2998
853.9150, 215.1309
855.0490, 2.447266
856.1830, 93.94336
857.3170, 234.6689
858.4510, 227.0283
859.5840, 93.37988
860.7180, 84.74219
861.8510, 76.11523
862.9840, 183.4941
864.1170, 177.8584
865.2500, 143.2188
866.3820, 86.78711
867.5150, 98.45215
868.6470, 150.4150
869.7790, 92.78711
870.9110, 124.9521
872.0430, 142.4805
873.1740, 152.8008
874.3060, 65.10449
875.4370, 119.3896
876.5680, 62.65625
877.6990, 139.9043
878.8300, 113.7139
879.9600, 8.345703
881.0910, 73.52637
882.2210, 34.76953
883.3510, 31.99707
884.4810, 100.1406
885.6110, 57.40234
886.7410, 70.40625
887.8700, 165.4863
888.9990, 43.30957
890.1290, 90.08105
891.2580, 11.16797
892.3860, 38.53711
893.5150, 97.21680
894.6440, 50.93555
895.7720, 123.8789
896.9000, 107.8574
898.0280, 138.5410
899.1560, 51.24316
900.2840, 3.118164
901.4110, 153.4775
902.5390, 9.054688
903.6660, 93.59473
904.7930, 68.11328
905.9200, 177.6084
907.0470, 147.0820
908.1730, 138.5361
909.3000, 69.97070
910.4260, 72.37988
911.5520, 151.2354
912.6780, 181.0283
913.8030, 283.2715
914.9290, 152.4941
916.0540, 84.69629
917.1800, 180.8750
918.3050, 119.0322
919.4300, 99.16895
920.5550, 33.71582
921.6790, 219.3359
922.8040, 117.3672
923.9280, 258.5498
925.0520, 52.53906
926.1760, 240.5205
927.3000, 106.4590
928.4230, 152.3760
929.5470, 164.2725
930.6700, 210.1445
931.7930, 234.9980
932.9160, 220.0186
934.0390, 207.3701
935.1620, 185.4297
936.2840, 173.9385
937.4070, 133.9473
938.5290, 139.6719
939.6510, 105.5020
940.7730, 73.18164
941.8940, 184.8574
943.0160, 80.51172
944.1370, 269.1406
945.2580, 88.13086
946.3800, 164.7109
947.5000, 186.2715
948.6210, 133.0664
949.7420, 243.5840
950.8620, 42.92188
951.9820, 198.5039
953.1020, 71.90820
954.2220, 100.0312
955.3420, 284.3828
956.4620, 144.7129
957.5810, 312.0215
958.7000, 151.3066
959.8190, 71.08984
960.9380, 149.0137
962.0570, 31.21289
963.1760, 121.6816
964.2940, 63.84570
965.4120, 55.32812
966.5300, 270.4355
967.6480, 143.5254
968.7660, 164.3496
969.8840, 370.3242
971.0010, 142.0273
972.1190, 82.01172
973.2360, 212.4824
974.3530, 114.9023
975.4690, 124.0605
976.5860, 244.7520
977.7030, 173.6562
978.8190, 169.5430
979.9350, 14.40820
981.0510, 160.9629
982.1670, 224.7773
983.2830, 390.7617
984.3980, 113.0488
985.5130, 178.8027
986.6290, 161.3496
987.7440, 5.2733999E-02
988.8590, 129.7598
989.9730, 315.9473
991.0880, 12.63867
992.2020, 251.2988
993.3160, 256.9414
994.4300, 257.5664
995.5440, 258.1719
996.6580, 256.9375
997.7720, 201.7539
998.8850, 253.8906
999.9980, 86.43164
1001.111, 77.94922
1002.224, 47.44531
1003.337, 221.9199
1004.450, 275.3770
1005.562, 214.8125
1006.674, 250.2305
1007.786, 204.6289
1008.898, 262.7930
1010.010, 144.1543
1011.122, 236.2305
1012.233, 137.5566
1013.344, 163.8652
1014.455, 254.7051
1015.566, 101.7637
1016.677, 97.27344
1017.788, 103.4902
1018.898, 53.66992
1020.009, 176.2051
1021.119, 182.8809
1022.229, 215.5508
1023.339, 113.0117
1024.448, 149.9941
1025.558, 172.2520
1026.667, 88.55273
1027.776, 73.52344
1028.885, 51.81641
1029.994, 44.86914
1031.103, 129.4590
1032.211, 94.94727
1033.320, 141.7031
1034.428, 111.3027
1035.536, 187.2754
1036.644, 237.4062
1037.751, 235.1328
1038.859, 243.5801
1039.966, 206.4883
1041.074, 173.3965
1042.181, 220.2871
1043.288, 324.6758
1044.394, 261.6680
1045.501, 268.5996
1046.607, 201.7734
1047.713, 201.5938
1048.820, 198.4004
1049.925, 171.8340
1051.031, 210.6152
1052.137, 206.2812
1053.242, 152.7812
1054.348, 146.8164
1055.453, 100.5449
1056.558, 38.14062
1057.662, 82.84180
1058.767, 63.68555
1059.871, 94.36133
1060.976, 119.0391
1062.080, 145.4512
1063.184, 170.0879
1064.288, 144.7148
1065.391, 157.3320
1066.495, 234.9336
1067.598, 258.5273
1068.701, 437.1074
1069.804, 206.6758
1070.907, 144.1523
1072.010, 4.361328
1073.112, 259.8828
1074.214, 82.09766
1075.317, 210.6016
1076.419, 104.5625
1077.521, 14.04492
1078.622, 231.0664
1079.724, 255.5234
1080.825, 187.9707
1081.926, 142.2988
1083.027, 184.7305
1084.128, 122.6328
1085.229, 308.0430
1086.329, 201.7832
1087.430, 173.8242
1088.530, 68.20898
1089.630, 224.5137
1090.730, 105.8789
1091.830, 29.19336
1092.929, 141.8867
1094.029, 82.18750
1095.128, 117.2754
1096.227, 47.55859
1097.326, 30.33008
1098.425, 180.0723
1099.523, 169.4629
1100.622, 290.8477
1101.720, 244.6836
1102.818, 99.59180
1103.916, 137.9531
1105.014, 148.9531
1106.111, 110.3047
1107.209, 148.5371
1108.306, 121.8496
1109.403, 90.21094
1110.500, 105.5645
1111.597, 104.9102
1112.694, 68.18555
1113.790, 138.1074
1114.887, 58.60938
1115.983, 152.6543
1117.079, 209.7891
1118.174, 203.0410
1119.270, 278.3105
1120.366, 168.1191
1121.461, 140.4121
1122.556, 202.7012
1123.651, 62.64258
1124.746, 58.92773
1125.841, 198.2070
1126.935, 75.48047
1128.030, 157.7500
1129.124, 313.6836
1130.218, 278.9395
1131.312, 325.1230
1132.405, 136.2480
1133.499, 251.2305
1134.592, 233.8926
1135.686, 97.12500
1136.779, 136.3555
1137.871, 262.5781
1138.964, 360.7949
1140.057, 189.0098
1141.149, 183.2227
1142.241, 114.4297
1143.334, 209.6348
1144.425, 167.8359
1145.517, 294.0332
1146.609, 275.7324
1147.700, 270.3457
1148.791, 287.4473
1149.883, 316.6035
1150.974, 344.9395
1152.064, 341.7832
1153.155, 317.9082
1154.245, 274.2168
1155.336, 286.9648
1156.426, 124.2695
1157.516, 67.58789
1158.606, 250.9043
1159.695, 182.8398
1160.785, 162.1191
1161.874, 131.9805
1162.963, 133.1562
1164.052, 183.2539
1165.141, 283.3906
1166.230, 104.5391
1167.318, 170.6855
1168.406, 218.8379
1169.495, 410.9922
1170.583, 188.1445
1171.670, 300.9688
1172.758, 118.1211
1173.846, 120.2734
1174.933, 73.42383
1176.020, 314.5762
1177.107, 332.7793
1178.194, 214.9844
1179.281, 206.1875
1180.367, 220.3926
1181.454, 145.5957
1182.540, 334.8008
1183.626, 51.00586
1184.712, 63.21094
1185.798, 315.4395
1186.883, 234.6660
1187.969, 178.7227
1189.054, 214.9531
1190.139, 231.1641
1191.224, 110.3965
1192.309, 45.63477
1193.393, 55.87109
1194.478, 24.17969
1195.562, 86.34961
1196.646, 115.5918
1197.730, 144.8320
1198.814, 154.4238
1199.897, 113.3184
1200.981, 151.5664
1202.064, 79.81445
1203.147, 81.93750
1204.230, 86.80859
1205.313, 273.4004
1206.396, 28.61328
1207.478, 247.8320
1208.560, 210.6719
1209.642, 353.8945
1210.724, 257.1230
1211.806, 261.3516
1212.888, 244.5859
1213.969, 171.8203
1215.051, 273.0820
1216.132, 352.3438
1217.213, 257.6152
1218.294, 154.8887
1219.374, 243.1680
1220.455, 99.45117
1221.535, 137.7344
1222.616, 37.96875
1223.696, 184.2637
1224.775, 164.5605
1225.855, 21.86914
1226.935, 226.1777
1228.014, 368.4727
1229.093, 144.7969
1230.172, 204.1230
1231.251, 205.4531
1232.330, 234.7871
1233.408, 215.1250
1234.487, 234.4668
1235.565, 279.8164
1236.643, 234.1680
1237.721, 248.5215
1238.799, 188.8809
1239.876, 221.2461
1240.954, 157.6113
1242.031, 214.9844
1243.108, 190.6484
1244.185, 104.0371
1245.262, 142.6699
1246.338, 190.0664
1247.415, 159.4707
1248.491, 259.1758
1249.567, 117.4102
1250.643, 207.9609
1251.719, 93.66406
1252.795, 115.6719
1253.870, 297.0273
1254.945, 161.3848
1256.021, 199.7500
1257.096, 357.1211
1258.170, 34.50391
1259.245, 103.8613
1260.320, 192.2344
1261.394, 241.6094
1262.468, 91.99414
1263.542, 232.3867
1264.616, 128.7852
1265.690, 173.1914
1266.763, 151.6055
1267.836, 261.0234
1268.910, 291.4473
1269.983, 271.8789
1271.055, 299.5781
1272.128, 273.9824
1273.201, 267.2109
1274.273, 203.6699
1275.345, 189.1367
1276.417, 113.6074
1277.489, 76.08984
1278.561, 163.5781
1279.632, 245.0723
1280.704, 136.5781
1281.775, 218.0879
1282.846, 41.60742
1283.917, 9.865234
1284.988, 295.6602
1286.058, 201.1953
1287.129, 298.7383
1288.199, 141.2891
1289.269, 79.00977
1290.339, 80.57422
1291.409, 287.5312
1292.478, 413.1191
1293.548, 344.7832
1294.617, 68.31836
1295.686, 259.9375
1296.755, 100.5645
1297.824, 152.2012
1298.893, 200.8477
1299.961, 67.49219
1301.029, 112.1504
1302.097, 219.8027
1303.165, 100.4668
1304.233, 106.1406
1305.301, 199.8242
1306.368, 12.51953
1307.436, 302.2227
1308.503, 216.9375
1309.570, 36.66211
1310.637, 164.3984
1311.703, 90.14648
1312.770, 191.9062
1313.836, 273.6719
1314.902, 189.4473
1315.968, 131.2285
1317.034, 98.01953
1318.100, 340.8125
1319.165, 91.61523
1320.231, 176.4238
1321.296, 291.2422
1322.361, 118.0664
1323.426, 61.90039
1324.491, 266.7422
1325.555, 145.5879
1326.620, 80.44531
1327.684, 170.3086
1328.748, 290.1797
1329.812, 177.0605
1330.875, 194.9492
1331.939, 219.8516
1333.002, 169.7051
1334.066, 192.6855
1335.129, 143.2930
1336.192, 183.2285
1337.254, 145.1777
1338.317, 120.1328
1339.379, 215.0977
1340.442, 182.0723
1341.504, 153.0566
1342.566, 148.0488
1343.628, 227.0371
1344.689, 205.0352
1345.751, 424.0391
1346.812, 108.0527
1347.873, 282.0781
1348.934, 99.11328
1349.995, 162.1562
1351.055, 281.2148
1352.116, 236.2812
1353.176, 182.3574
1354.236, 202.4453
1355.296, 227.5449
1356.356, 225.6523
1357.416, 85.77148
1358.475, 144.9023
1359.535, 117.0430
1360.594, 240.1934
1361.653, 125.3555
1362.712, 48.52930
1363.770, 50.71289
1364.829, 86.90820
1365.887, 99.49414
1366.945, 70.33203
1368.003, 191.5645
1369.061, 212.8047
1370.119, 227.0586
1371.177, 173.3438
1372.234, 69.35938
1373.291, 362.9570
1374.348, 141.2852
1375.405, 16.37500
1376.462, 211.9746
1377.518, 41.83594
1378.575, 172.2070
1379.631, 128.6289
1380.687, 132.1016
1381.743, 221.5137
1382.799, 210.9395
1383.854, 147.3770
1384.910, 208.8262
1385.965, 129.6191
1387.020, 153.0977
1388.075, 260.5898
1389.130, 300.0957
1390.184, 279.6152
1391.239, 167.1504
1392.293, 126.7012
1393.347, 62.39648
1394.401, 1.845703
1395.455, 21.44141
1396.509, 94.05469
1397.562, 51.92188
1398.615, 173.3262
1399.669, 85.98828
1400.722, 133.6660
1401.774, 243.3613
1402.827, 291.0742
1403.879, 126.8066
1404.932, 249.5547
1405.984, 163.3203
1407.036, 250.1074
1408.088, 24.91406
1409.139, 128.7383
1410.191, 94.56250
1411.242, 173.9648
1412.294, 52.82812
1413.345, 114.7129
1414.395, 105.6172
1415.446, 128.5449
1416.497, 91.54492
1417.547, 51.56641
1418.597, 72.43945
1419.647, 55.75781
1420.697, 83.89062
1421.747, 62.81055
1422.796, 60.13672
1423.846, 248.2070
1424.895, 63.68945
1425.944, 248.9609
1426.993, 148.5938
1428.042, 215.9316
1429.090, 52.30664
1430.139, 173.7207
1431.187, 186.1172
1432.235, 415.5352
1433.283, 395.9824
1434.331, 127.4629
1435.378, 275.9746
1436.426, 139.5332
1437.473, 238.1484
1438.520, 354.8613
1439.567, 118.5781
1440.614, 111.3125
1441.661, 113.0645
1442.707, 191.8301
1443.753, 71.60938
1444.799, 125.4082
1445.845, 61.22266
1446.891, 265.0527
1447.937, 289.8965
1448.982, 320.7832
1450.028, 318.7148
1451.073, 307.8125
1452.118, 255.6250
1453.163, 258.6055
1454.207, 172.6094
1455.252, 150.6309
1456.296, 164.6680
1457.340, 202.7266
1458.384, 118.8027
1459.428, 85.89648
1460.472, 168.0098
1461.515, 275.1426
1462.559, 252.2930
1463.602, 194.4648
1464.645, 214.6523
1465.688, 203.8594
1466.731, 75.08789
1467.773, 168.1152
1468.816, 194.5195
1469.858, 287.3711
1470.900, 215.6758
1471.942, 306.0645
1472.983, 265.4922
1474.025, 250.9414
1475.066, 270.4199
1476.108, 373.9336
1477.149, 309.6387
1478.190, 288.0254
1479.230, 260.6035
1480.271, 147.2051
1481.311, 149.8281
1482.352, 120.8809
1483.392, 72.13672
1484.432, 133.8262
1485.472, 17.53320
1486.511, 59.26367
1487.551, 240.0176
1488.590, 331.7969
1489.629, 131.5957
1490.668, 118.4141
1491.707, 261.2520
1492.745, 39.09766
1493.784, 209.9551
1494.822, 282.8203
1495.860, 4.742188
1496.898, 16.67383
1497.936, 151.6172
1498.974, 74.57031
1500.011, 74.52930
1501.049, 101.4941
1502.086, 83.48828
1503.123, 63.51953
1504.160, 3.408203
1505.196, 39.29492
1506.233, 39.85938
1507.269, 105.0547
1508.305, 83.29102
1509.341, 237.5664
1510.377, 78.89062
1511.413, 27.25391
1512.449, 22.66602
1513.484, 103.1211
1514.519, 98.33789
1515.554, 116.6602
1516.589, 138.8613
1517.624, 125.6055
1518.658, 46.40039
1519.693, 31.25195
1520.727, 196.1582
1521.761, 62.11914
1522.795, 136.1445
1523.829, 209.2285
1524.862, 42.37695
1525.896, 38.58984
1526.929, 280.8730
1527.962, 202.2285
1528.995, 196.6660
1530.028, 100.1816
1531.060, 216.7871
1532.093, 242.4883
1533.125, 273.2949
1534.157, 72.40039
1535.189, 311.2480
1536.221, 114.1992
1537.253, 397.2617
1538.284, 24.44141
1539.316, 95.74609
1540.347, 98.17383
1541.378, 66.73242
1542.408, 215.4258
1543.439, 35.26562
1544.470, 142.2578
1545.500, 17.58789
1546.530, 61.74219
1547.560, 308.2559
1548.590, 3.849609
1549.620, 241.5039
1550.649, 193.1758
1551.679, 286.2109
1552.708, 65.66016
1553.737, 162.5996
1554.766, 143.9941
1555.794, 83.94336
1556.823, 129.6562
1557.851, 168.8809
1558.879, 364.4141
1559.907, 0.9296880
1560.935, 102.3242
1561.963, 0.0000000E+00
##END=



