##NAMES=Baddeleyite
##RRUFFID=R060016
##IDEAL CHEMISTRY=Zr^4+^O_2_
##LOCALITY=Wet Loo, Myanmar
##OWNER=RRUFF
##SOURCE=American Museum of Natural History
##DESCRIPTION=Brown crystal fragment
##STATUS=The identification of this mineral has been confirmed by X-ray diffraction and chemical analysis
##URL=rruff.info/R060016
##MEASURED CHEMISTRY=(Zr_0.99_Ti_0.01_)_Î£=1_O_2_
##PIN_ID=M00083
##ORIENTATION=Laser parallel to (1 0 -1). Fiducial mark perpendicular to laser is parallel to b [0 1 0]
40.39300, 0.0000000E+00
41.63700, 11.49997
42.88100, 1.686249
44.12400, 5.525970
45.36700, 14.49457
46.61100, 12.77228
47.85400, 25.85138
49.09700, 35.62369
50.33900, 22.72635
51.58200, 41.91275
52.82400, 42.85974
54.06700, 50.79321
55.30900, 40.73224
56.55100, 48.41248
57.79200, 72.35962
59.03400, 94.18201
60.27600, 79.45160
61.51700, 94.28839
62.75800, 74.47363
63.99900, 65.84583
65.24000, 55.39822
66.48100, 41.12360
67.72100, 32.09094
68.96100, 33.06784
70.20200, 11.28000
71.44200, 10.65259
72.68200, 3.187347
73.92100, 10.11526
75.16100, 23.25656
76.40000, 8.239197
77.64000, 23.06662
78.87900, 24.74527
80.11800, 10.28302
81.35600, 18.68796
82.59500, 10.96790
83.83400, 14.86920
85.07200, 24.81607
86.31000, 47.86548
87.54800, 119.0090
88.78600, 192.2400
90.02400, 358.5551
91.26100, 582.9522
92.49800, 848.4291
93.73600, 1314.984
94.97300, 1804.616
96.21000, 2549.335
97.44600, 3643.144
98.68300, 4865.052
99.91900, 5944.069
101.1560, 6614.201
102.3920, 6493.449
103.6280, 5913.814
104.8630, 4924.291
106.0990, 3889.874
107.3350, 2946.559
108.5700, 2097.339
109.8050, 1556.210
111.0400, 1246.168
112.2750, 1077.209
113.5100, 992.3284
114.7440, 865.5168
115.9780, 885.7537
117.2130, 821.0345
118.4470, 746.3558
119.6810, 691.7131
120.9140, 681.1031
122.1480, 722.5225
123.3810, 678.9684
124.6150, 664.4352
125.8480, 661.9205
127.0810, 612.4247
128.3130, 678.9462
129.5460, 680.4843
130.7790, 648.0338
132.0110, 674.5747
133.2430, 648.1069
134.4750, 645.6305
135.7070, 672.1638
136.9380, 689.7263
138.1700, 742.3218
139.4010, 718.9503
140.6330, 694.6121
141.8640, 682.3073
143.0950, 733.0364
144.3250, 717.7988
145.5560, 740.5950
146.7860, 737.4249
148.0160, 750.3182
149.2470, 738.3257
150.4760, 829.4564
151.7060, 790.7194
152.9360, 853.1203
154.1650, 846.6507
155.3950, 914.3288
156.6240, 972.1661
157.8530, 1069.181
159.0820, 1119.341
160.3100, 1278.641
161.5390, 1438.064
162.7670, 1776.591
163.9950, 2158.187
165.2230, 2812.827
166.4510, 3786.518
167.6790, 4867.222
168.9060, 5610.931
170.1340, 6246.640
171.3610, 7085.353
172.5880, 8713.068
173.8150, 10664.79
175.0420, 11861.51
176.2690, 12705.23
177.4950, 13001.96
178.7210, 12696.70
179.9470, 11630.43
181.1730, 10107.17
182.3990, 7919.910
183.6250, 6490.656
184.8500, 5964.403
186.0760, 6141.155
187.3010, 6465.910
188.5260, 6584.113
189.7510, 6435.297
190.9750, 6032.453
192.2000, 5366.584
193.4240, 4184.683
194.6490, 3221.749
195.8730, 2212.792
197.0970, 1634.805
198.3200, 1260.745
199.5440, 1114.682
200.7670, 910.5958
201.9910, 783.4871
203.2140, 724.3364
204.4370, 708.1725
205.6590, 689.9163
206.8820, 720.6013
208.1050, 778.0354
209.3270, 843.8392
210.5490, 960.4718
211.7710, 1078.136
212.9930, 1200.804
214.2150, 1310.427
215.4360, 1525.040
216.6570, 1701.770
217.8790, 2026.180
219.1000, 2134.731
220.3210, 2273.139
221.5410, 2108.903
222.7620, 1995.016
223.9820, 1665.240
225.2030, 1345.697
226.4230, 976.2072
227.6430, 759.7799
228.8620, 602.9752
230.0820, 482.8014
231.3010, 435.0333
232.5210, 380.2922
233.7400, 343.5776
234.9590, 339.8893
236.1780, 378.2267
237.3960, 341.5895
238.6150, 333.9773
239.8330, 350.0048
241.0510, 340.8267
242.2690, 358.2876
243.4870, 316.7720
244.7050, 298.2798
245.9230, 355.8103
247.1400, 336.3633
248.3570, 274.9379
249.5740, 315.5338
250.7910, 288.1506
252.0080, 277.7876
253.2240, 299.9448
254.4410, 247.6614
255.6570, 315.9104
256.8730, 330.0364
258.0890, 407.5760
259.3050, 390.0901
260.5210, 390.6355
261.7360, 318.0225
262.9510, 286.5112
264.1670, 292.9094
265.3820, 298.1042
266.5960, 303.3304
267.8110, 299.5842
269.0260, 335.9244
270.2400, 358.4191
271.4540, 382.3530
272.6680, 379.9113
273.8820, 395.3208
275.0960, 417.4867
276.3090, 465.4552
277.5230, 469.0430
278.7360, 477.8533
279.9490, 536.9952
281.1620, 563.7627
282.3750, 601.1697
283.5880, 632.1389
284.8000, 690.9229
286.0120, 685.0176
287.2240, 769.9606
288.4360, 813.4553
289.6480, 884.9697
290.8600, 968.0354
292.0710, 1066.125
293.2830, 1185.224
294.4940, 1307.926
295.7050, 1463.448
296.9160, 1618.573
298.1260, 1793.705
299.3370, 2020.845
300.5470, 2153.990
301.7580, 2374.142
302.9680, 2567.299
304.1770, 2745.460
305.3870, 2795.624
306.5970, 2825.792
307.8060, 2723.963
309.0150, 2655.135
310.2250, 2474.310
311.4340, 2328.488
312.6420, 2267.666
313.8510, 2234.846
315.0590, 2274.028
316.2680, 2404.211
317.4760, 2710.396
318.6840, 3128.583
319.8920, 3802.772
321.0990, 4653.962
322.3070, 5843.156
323.5140, 6994.352
324.7210, 8215.547
325.9280, 9335.749
327.1350, 10932.95
328.3420, 12545.15
329.5490, 13666.36
330.7550, 14268.57
331.9610, 14269.77
333.1670, 13207.99
334.3730, 11793.21
335.5790, 9985.433
336.7840, 8185.662
337.9900, 6568.898
339.1950, 5437.140
340.4000, 4671.389
341.6050, 4264.644
342.8100, 3955.907
344.0150, 3762.177
345.2190, 3657.453
346.4230, 3409.738
347.6280, 3108.030
348.8320, 2791.330
350.0350, 2386.638
351.2390, 1856.955
352.4430, 1535.281
353.6460, 1184.616
354.8490, 946.9602
356.0520, 828.3138
357.2550, 629.6770
358.4580, 583.0496
359.6600, 485.4319
360.8630, 471.8239
362.0650, 388.2251
363.2670, 404.6375
364.4690, 414.0601
365.6710, 392.4939
366.8720, 393.9415
368.0740, 445.4061
369.2750, 492.8829
370.4760, 568.3752
371.6770, 593.8831
372.8780, 640.4019
374.0780, 762.9338
375.2790, 828.4756
376.4790, 874.0256
377.6790, 856.5837
378.8790, 871.1499
380.0790, 814.7240
381.2790, 757.8851
382.4780, 680.8962
383.6780, 588.4941
384.8770, 508.1003
386.0760, 409.7142
387.2750, 325.3359
388.4730, 302.9656
389.6720, 197.6031
390.8700, 162.2484
392.0690, 157.9017
393.2670, 71.56287
394.4650, 41.23181
395.6620, 43.90881
396.8600, 10.59387
398.0570, 36.72070
399.2550, 46.05627
400.4520, 25.41748
401.6490, 67.79407
402.8450, 32.20691
404.0420, 50.63794
405.2390, 99.09619
406.4350, 49.60510
407.6310, 65.14038
408.8270, 61.70923
410.0230, 62.30994
411.2190, 79.94238
412.4140, 98.61511
413.6090, 84.33667
414.8050, 109.1001
416.0000, 102.9171
417.1940, 134.7845
418.3890, 79.71741
419.5840, 76.68835
420.7780, 104.6956
421.9720, 74.75244
423.1660, 80.84375
424.3600, 91.97217
425.5540, 51.14258
426.7480, 79.33472
427.9410, 40.56189
429.1340, 9.805054
430.3270, 26.04968
431.5200, 18.30298
432.7130, 37.56079
433.9060, 29.83154
435.0980, 37.88879
436.2900, 41.62048
437.4830, 79.36389
438.6750, 122.1193
439.8660, 138.8864
441.0580, 178.0896
442.2500, 170.4573
443.4410, 241.2615
444.6320, 271.0781
445.8230, 305.9076
447.0140, 363.7500
448.2050, 433.6057
449.3950, 492.4744
450.5860, 569.3564
451.7760, 675.2521
452.9660, 794.1616
454.1560, 949.0847
455.3450, 1109.022
456.5350, 1368.973
457.7240, 1715.939
458.9140, 2054.919
460.1030, 2545.913
461.2920, 3032.924
462.4810, 3872.948
463.6690, 4746.987
464.8580, 5777.042
466.0460, 7066.112
467.2340, 8317.198
468.4220, 9347.300
469.6100, 10390.42
470.7970, 11499.55
471.9850, 12199.70
473.1720, 12476.87
474.3590, 12047.05
475.5460, 11255.25
476.7330, 9998.462
477.9200, 8443.695
479.1060, 6865.944
480.2930, 5539.210
481.4790, 4418.495
482.6650, 3569.796
483.8510, 3187.115
485.0370, 2697.451
486.2220, 2407.806
487.4080, 2390.177
488.5930, 2434.567
489.7780, 2491.975
490.9630, 2825.402
492.1480, 3109.846
493.3320, 3580.309
494.5170, 3874.791
495.7010, 4375.292
496.8850, 4904.810
498.0690, 5270.348
499.2530, 5486.905
500.4360, 5362.616
501.6200, 5177.077
502.8030, 4575.691
503.9860, 3926.325
505.1690, 3085.979
506.3520, 2454.652
507.5350, 1887.344
508.7170, 1482.057
509.9000, 1214.789
511.0820, 963.5417
512.2640, 846.3142
513.4460, 769.1067
514.6270, 645.9192
515.8090, 547.7522
516.9900, 591.6052
518.1710, 587.4790
519.3530, 569.3730
520.5330, 627.2880
521.7140, 737.2234
522.8950, 768.1799
524.0750, 903.1576
525.2550, 1161.156
526.4350, 1397.176
527.6150, 1745.217
528.7950, 2079.279
529.9750, 2592.364
531.1540, 2963.470
532.3340, 3532.601
533.5130, 3913.756
534.6920, 4277.933
535.8700, 4447.135
537.0490, 4428.359
538.2280, 4164.617
539.4060, 3685.407
540.5840, 3210.688
541.7620, 2731.483
542.9400, 2349.448
544.1180, 2030.809
545.2950, 1836.551
546.4720, 1593.439
547.6500, 1656.343
548.8270, 1652.201
550.0040, 1685.209
551.1800, 1779.465
552.3570, 1871.753
553.5330, 1955.062
554.7090, 2007.332
555.8850, 1931.497
557.0610, 1769.266
558.2370, 1698.466
559.4130, 1480.873
560.5880, 1275.575
561.7630, 1121.522
562.9380, 862.9084
564.1130, 638.1249
565.2880, 495.0601
566.4630, 437.4248
567.6370, 368.1995
568.8120, 333.4587
569.9860, 278.5996
571.1600, 217.1986
572.3330, 189.6428
573.5070, 159.5831
574.6810, 109.5533
575.8540, 112.3221
577.0270, 161.5117
578.2000, 127.0426
579.3730, 138.6144
580.5460, 174.2339
581.7180, 180.8987
582.8910, 221.6042
584.0630, 274.3527
585.2350, 369.1368
586.4070, 318.9590
587.5780, 453.8256
588.7500, 539.7267
589.9210, 556.6625
591.0930, 673.6377
592.2640, 809.6499
593.4350, 887.6958
594.6050, 1091.776
595.7760, 1323.891
596.9460, 1550.044
598.1170, 1780.234
599.2870, 2119.461
600.4570, 2607.724
601.6260, 3057.023
602.7960, 3599.355
603.9650, 4420.722
605.1350, 5326.123
606.3040, 6470.557
607.4730, 7471.029
608.6420, 8610.532
609.8100, 9564.070
610.9790, 10623.64
612.1470, 11789.25
613.3150, 12094.89
614.4830, 12358.56
615.6510, 12250.27
616.8190, 11494.01
617.9860, 10658.79
619.1540, 9821.607
620.3210, 8803.458
621.4880, 8184.336
622.6550, 7695.250
623.8220, 7333.199
624.9880, 7320.182
626.1550, 7591.197
627.3210, 7994.246
628.4870, 8619.328
629.6530, 9361.443
630.8190, 10203.59
631.9840, 10770.77
633.1500, 11572.99
634.3150, 12086.23
635.4800, 12353.51
636.6450, 12213.83
637.8100, 11773.17
638.9740, 10813.55
640.1390, 9627.956
641.3030, 8552.398
642.4670, 7292.869
643.6310, 6288.375
644.7950, 5280.912
645.9590, 4434.483
647.1220, 3773.083
648.2850, 3176.717
649.4490, 2693.381
650.6120, 2322.076
651.7740, 2060.802
652.9370, 1716.559
654.1000, 1509.347
655.2620, 1361.165
656.4240, 1269.015
657.5860, 1177.894
658.7480, 971.8042
659.9100, 818.7443
661.0710, 780.7152
662.2330, 731.7161
663.3940, 659.7537
664.5550, 543.8146
665.7160, 538.9290
666.8770, 458.0492
668.0370, 454.1995
669.1980, 428.3805
670.3580, 380.5911
671.5180, 401.5042
672.6780, 307.2535
673.8380, 288.5692
674.9970, 342.2720
676.1570, 330.7480
677.3160, 258.6439
678.4750, 232.0200
679.6340, 222.4697
680.7930, 198.8958
681.9520, 195.5111
683.1100, 207.9076
684.2680, 192.3374
685.4270, 186.7958
686.5850, 202.1718
687.7420, 194.2458
688.9000, 222.1307
690.0580, 215.0154
691.2150, 224.9608
692.3720, 267.6660
693.5290, 261.8083
694.6860, 272.0776
695.8430, 278.2117
696.9990, 268.8245
698.1560, 269.6194
699.3120, 260.0396
700.4680, 305.4531
701.6240, 312.7075
702.7800, 315.4415
703.9350, 322.6022
705.0900, 346.8875
706.2460, 341.8538
707.4010, 337.1857
708.5560, 292.1165
709.7110, 313.5376
710.8650, 300.8726
712.0200, 285.5646
713.1740, 306.8058
714.3280, 258.0381
715.4820, 267.2284
716.6360, 261.7439
717.7890, 245.3007
718.9430, 185.4070
720.0960, 215.0100
721.2490, 206.4470
722.4020, 203.4955
723.5550, 212.9388
724.7080, 201.0653
725.8600, 197.2960
727.0130, 193.4382
728.1650, 220.6663
729.3170, 226.9186
730.4690, 245.7826
731.6200, 285.8313
732.7720, 237.1284
733.9230, 313.2449
735.0740, 298.3613
736.2250, 322.4866
737.3760, 387.2239
738.5270, 435.8977
739.6780, 439.3933
740.8280, 510.7174
741.9780, 533.8531
743.1280, 629.5308
744.2780, 634.6881
745.4280, 696.4586
746.5770, 814.8564
747.7270, 808.0439
748.8760, 881.5105
750.0250, 955.8063
751.1740, 937.1317
752.3230, 993.5491
753.4720, 1017.300
754.6200, 990.0435
755.7680, 1010.649
756.9160, 1000.501
758.0640, 893.9097
759.2120, 898.2957
760.3600, 832.7974
761.5070, 752.2507
762.6550, 692.8824
763.8020, 644.3267
764.9490, 578.9026
766.0960, 503.3354
767.2420, 501.7056
768.3890, 426.2926
769.5350, 351.8560
770.6810, 342.1963
771.8270, 303.9860
772.9730, 284.3279
774.1190, 253.7842
775.2640, 203.1923
776.4100, 216.6106
777.5550, 216.9761
778.7000, 171.3368
779.8450, 139.9248
780.9900, 154.5117
782.1340, 120.0599
783.2790, 144.6458
784.4230, 150.1113
785.5670, 85.54761
786.7110, 106.9240
787.8550, 80.30090
788.9980, 81.67896
790.1420, 28.05725
791.2850, 35.50952
792.4280, 81.88843
793.5710, 42.26709
794.7140, 55.64526
795.8560, 36.06836
796.9990, 32.44922
798.1410, 11.93604
799.2830, 21.31006
800.4250, 1.681885
801.5670, 15.07056
802.7090, 0.5623780
803.8500, 3.851318
804.9920, 20.38269
806.1330, 26.02527
807.2740, 40.46655
808.4150, 22.18213
809.5550, 16.84204
810.6960, 0.5224610
811.8360, 12.94739
812.9760, 4.496338
814.1160, 51.06458
815.2560, 40.70154
816.3960, 40.41785
817.5350, 21.11987
818.6750, 22.72534
819.8140, 51.49170
820.9530, 50.26404
822.0920, 32.05908
823.2310, 11.88953
824.3690, 54.79150
825.5080, 67.48364
826.6460, 15.34570
827.7840, 80.08142
828.9220, 26.04309
830.0600, 17.05115
831.1970, 27.03979
832.3350, 3.055054
833.4720, 49.93713
834.6090, 51.05139
835.7460, 27.26929
836.8830, 8.991333
838.0190, 53.15808
839.1560, 27.20850
840.2920, 16.51038
841.4280, 32.86841
842.5640, 10.26617
843.7000, 0.5170900
844.8360, 21.79736
845.9710, 29.15863
847.1070, 10.64874
848.2420, 0.8396000
849.3770, 6.717041
850.5120, 5.325317
851.6460, 15.04828
852.7810, 7.604736
853.9150, 7.247925
855.0490, 30.93671
856.1830, 21.94397
857.3170, 2.407837
858.4510, 11.21136
859.5840, 18.90118
860.7180, 10.99261
861.8510, 15.94092
862.9840, 34.08649
864.1170, 32.12622
865.2500, 7.270569
866.3820, 16.23193
867.5150, 52.29956
868.6470, 36.21875
869.7790, 49.19812
870.9110, 15.07959
872.0430, 15.93384
873.1740, 26.78888
874.3060, 30.17505
875.4370, 37.95514
876.5680, 47.86517
877.6990, 102.6707
878.8300, 35.39136
879.9600, 82.10168
881.0910, 34.78076
882.2210, 52.46191
883.3510, 84.11237
884.4810, 51.77979
885.6110, 65.45349
886.7410, 65.03442
887.8700, 59.58905
888.9990, 44.21558
890.1290, 45.72534
891.2580, 53.29938
892.3860, 43.76257
893.5150, 69.20105
894.6440, 72.64795
895.7720, 65.04468
896.9000, 70.49609
898.0280, 59.84973
899.1560, 74.39246
900.2840, 65.89685
901.4110, 78.42566
902.5390, 87.69116
903.6660, 68.93585
904.7930, 72.15784
905.9200, 96.35730
907.0470, 60.60822
908.1730, 110.7625
909.3000, 87.03101
910.4260, 94.32788
911.5520, 94.57275
912.6780, 103.6443
913.8030, 109.7520
914.9290, 80.91541
916.0540, 82.05383
917.1800, 86.09497
918.3050, 84.09595
919.4300, 97.75922
920.5550, 102.2919
921.6790, 120.2344
922.8040, 132.1047
923.9280, 134.0309
925.0520, 119.9093
926.1760, 104.8597
927.3000, 127.6435
928.4230, 130.4819
929.5470, 134.3087
930.6700, 111.1446
931.7930, 121.8928
932.9160, 104.6097
934.0390, 145.2736
935.1620, 134.9042
936.2840, 121.5060
937.4070, 158.0929
938.5290, 115.6339
939.6510, 101.1987
940.7730, 90.76025
941.8940, 112.3264
943.0160, 143.8915
944.1370, 130.6683
945.2580, 122.7910
946.3800, 99.23322
947.5000, 107.7133
948.6210, 109.5167
949.7420, 112.3426
950.8620, 122.6942
951.9820, 111.9822
953.1020, 97.31409
954.2220, 118.4787
955.3420, 109.8798
956.4620, 105.2752
957.5810, 106.6603
958.7000, 125.1512
959.8190, 79.02649
960.9380, 90.01672
962.0570, 73.09973
963.1760, 88.14154
964.2940, 89.43384
965.4120, 83.20428
966.5300, 68.29822
967.6480, 77.26709
968.7660, 84.77728
969.8840, 96.13898
971.0010, 38.93549
972.1190, 72.74493
973.2360, 51.73969
974.3530, 76.28687
975.4690, 81.43408
976.5860, 79.48297
977.7030, 47.87982
978.8190, 55.88483
979.9350, 55.41583
981.0510, 66.41553
982.1670, 63.07428
983.2830, 67.25848
984.3980, 71.46735
985.5130, 67.69891
986.6290, 69.18811
987.7440, 57.94495
988.8590, 59.86566
989.9730, 58.23767
991.0880, 46.11359
992.2020, 53.15576
993.3160, 64.58685
994.4300, 81.62335
995.5440, 99.26196
996.6580, 79.22626
997.7720, 51.56396
998.8850, 30.81525
999.9980, 78.04108
1001.111, 31.65472
1002.224, 84.08221
1003.337, 37.26025
1004.450, 73.61737
1005.562, 67.97339
1006.674, 47.31927
1007.786, 3.051025
1008.898, 76.84192
1010.010, 24.80902
1011.122, 35.94464
1012.233, 65.26617
1013.344, 48.04333
1014.455, 71.33826
1015.566, 44.01715
1016.677, 46.06543
1017.788, 37.32092
1018.898, 30.29425
1020.009, 47.43408
1021.119, 51.54095
1022.229, 27.55200
1023.339, 65.22540
1024.448, 26.90198
1025.558, 51.71228
1026.667, 52.27081
1027.776, 38.26917
1028.885, 71.28516
1029.994, 26.18054
1031.103, 44.11884
1032.211, 9.873596
1033.320, 10.80975
1034.428, 6.607971
1035.536, 55.54248
1036.644, 63.53412
1037.751, 79.30286
1038.859, 77.13318
1039.966, 23.09259
1041.074, 52.63989
1042.181, 13.62866
1043.288, 7.495728
1044.394, 10.40338
1045.501, 37.29309
1046.607, 23.22876
1047.713, 11.16174
1048.820, 10.85931
1049.925, 21.54999
1051.031, 4.271362
1052.137, 1.947388
1053.242, 36.73474
1054.348, 21.54352
1055.453, 62.40369
1056.558, 14.25476
1057.662, 20.09607
1058.767, 4.929138
1059.871, 45.67883
1060.976, 12.49646
1062.080, 10.30481
1063.184, 6.103882
1064.288, 16.84827
1065.391, 18.62543
1066.495, 25.28662
1067.598, 29.52576
1068.701, 27.80762
1069.804, 32.53723
1070.907, 27.27844
1072.010, 19.96228
1073.112, 14.51807
1074.214, 6.951782
1075.317, 2.713745
1076.419, 24.28259
1077.521, 3.014282
1078.622, 8.650146
1079.724, 12.13715
1080.825, 42.68970
1081.926, 47.24951
1083.027, 28.85510
1084.128, 38.51910
1085.229, 30.14764
1086.329, 40.66296
1087.430, 49.32129
1088.530, 49.96222
1089.630, 49.00720
1090.730, 39.76984
1091.830, 36.96851
1092.929, 17.44617
1094.029, 9.061951
1095.128, 9.532776
1096.227, 46.19354
1097.326, 6.878418
1098.425, 33.52332
1099.523, 6.938477
1100.622, 38.66931
1101.720, 14.36902
1102.818, 5.141174
1103.916, 24.39203
1105.014, 20.06653
1106.111, 21.59174
1107.209, 22.68939
1108.306, 31.47113
1109.403, 29.26379
1110.500, 3.904358
1111.597, 18.56909
1112.694, 9.253357
1113.790, 7.037048
1114.887, 33.81726
1115.983, 26.62341
1117.079, 67.45337
1118.174, 10.27667
1119.270, 12.10675
1120.366, 23.90118
1121.461, 34.71521
1122.556, 59.54669
1123.651, 28.34186
1124.746, 52.18268
1125.841, 36.07941
1126.935, 50.99152
1128.030, 27.89062
1129.124, 44.79889
1130.218, 47.67535
1131.312, 40.42725
1132.405, 45.34021
1133.499, 65.12415
1134.592, 62.03760
1135.686, 55.87073
1136.779, 75.78259
1137.871, 45.69775
1138.964, 67.58832
1140.057, 58.92572
1141.149, 70.84717
1142.241, 79.61798
1143.334, 97.47302
1144.425, 93.39392
1145.517, 100.6268
1146.609, 100.4354
1147.700, 97.12195
1148.791, 90.02954
1149.883, 76.90076
1150.974, 60.74487
1152.064, 76.66180
1153.155, 68.58508
1154.245, 47.41583
1155.336, 60.34149
1156.426, 46.18103
1157.516, 78.10999
1158.606, 49.04144
1159.695, 49.94403
1160.785, 18.87640
1161.874, 51.73346
1162.963, 41.66772
1164.052, 79.39154
1165.141, 36.13318
1166.230, 55.82941
1167.318, 41.76849
1168.406, 53.70862
1169.495, 46.64996
1170.583, 40.62036
1171.670, 38.46490
1172.758, 33.65778
1173.846, 30.25354
1174.933, 29.01678
1176.020, 39.81177
1177.107, 41.75952
1178.194, 26.65131
1179.281, 58.46722
1180.367, 20.28717
1181.454, 9.183411
1182.540, 27.12610
1183.626, 45.88013
1184.712, 14.84167
1185.798, 36.75385
1186.883, 31.71826
1187.969, 53.60663
1189.054, 15.74255
1190.139, 47.56659
1191.224, 27.28638
1192.309, 42.18207
1193.393, 19.06934
1194.478, 27.92743
1195.562, 41.85303
1196.646, 40.78986
1197.730, 53.75922
1198.814, 45.74164
1199.897, 23.72601
1200.981, 40.71222
1202.064, 0.7003780
1203.147, 17.66852
1204.230, 32.61914
1205.313, 59.57312
1206.396, 19.25085
1207.478, 38.27087
1208.560, 28.09875
1209.642, 13.06067
1210.724, 31.03162
1211.806, 47.14233
1212.888, 48.15552
1213.969, 11.17133
1215.051, 38.18945
1216.132, 52.20990
1217.213, 21.23590
1218.294, 69.66766
1219.374, 68.69830
1220.455, 23.73114
1221.535, 30.60193
1222.616, 25.63934
1223.696, 26.67987
1224.775, 28.61743
1225.855, 40.78607
1226.935, 27.83447
1228.014, 43.86334
1229.093, 35.91614
1230.172, 30.78778
1231.251, 40.84570
1232.330, 5.905762
1233.408, 19.94885
1234.487, 16.01471
1235.565, 44.08270
1236.643, 12.84650
1237.721, 29.22321
1238.799, 32.29456
1239.876, 3.632385
1240.954, 26.43103
1242.031, 14.50836
1243.108, 46.58795
1244.185, 17.66919
1245.262, 0.2478030
1246.338, 24.83685
1247.415, 16.92303
1248.491, 13.01080
1249.567, 3.100098
1250.643, 20.19110
1251.719, 9.283813
1252.795, 79.37817
1253.870, 2.476135
1254.945, 48.57373
1256.021, 1.327332
1257.096, 29.77289
1258.170, 31.87445
1259.245, 23.97723
1260.320, 38.08136
1261.394, 17.78442
1262.468, 33.89185
1263.542, 15.00110
1264.616, 10.11163
1265.690, 20.22369
1266.763, 11.39941
1267.836, 15.35828
1268.910, 15.56860
1269.983, 27.68933
1271.055, 35.81238
1272.128, 63.93732
1273.201, 30.06616
1274.273, 51.21393
1275.345, 8.345398
1276.417, 24.47815
1277.489, 22.61218
1278.561, 44.74750
1279.632, 35.88416
1280.704, 26.02240
1281.775, 34.16205
1282.846, 35.30328
1283.917, 16.44635
1284.988, 2.593628
1286.058, 4.742920
1287.129, 41.89337
1288.199, 3.044983
1289.269, 7.197937
1290.339, 39.35211
1291.409, 11.50775
1292.478, 1.664490
1293.548, 24.82324
1294.617, 14.98383
1295.686, 17.14661
1296.755, 0.3104250
1297.824, 19.47534
1298.893, 1.358398
1299.961, 20.80841
1301.029, 2.3621000E-02
1302.097, 38.14502
1303.165, 30.31494
1304.233, 32.39520
1305.301, 7.659119
1306.368, 27.83246
1307.436, 15.00659
1308.503, 1.182007
1309.570, 11.35864
1310.637, 5.463989
1311.703, 36.71301
1312.770, 33.89044
1313.836, 18.06921
1314.902, 18.24945
1315.968, 17.43005
1317.034, 6.391174
1318.100, 4.788086
1319.165, 17.03070
1320.231, 38.14844
1321.296, 10.32928
1322.361, 21.51172
1323.426, 11.69568
1324.491, 8.877258
1325.555, 28.06018
1326.620, 9.243774
1327.684, 29.42859
1328.748, 24.61456
1329.812, 20.79968
1330.875, 14.98596
1331.939, 33.16425
1333.002, 0.6565550
1334.066, 16.44586
1335.129, 0.2675170
1336.192, 21.91180
1337.254, 9.2896000E-02
1338.317, 30.27509
1339.379, 2.541504
1340.442, 16.64233
1341.504, 23.85663
1342.566, 27.04248
1343.628, 9.229309
1344.689, 24.02936
1345.751, 8.781921
1346.812, 29.40594
1347.873, 5.594666
1348.934, 32.17877
1349.995, 44.00403
1351.055, 18.22931
1352.116, 0.5899050
1353.176, 6.619995
1354.236, 23.80231
1355.296, 39.98541
1356.356, 25.16931
1357.416, 23.35388
1358.475, 29.08893
1359.535, 20.72687
1360.594, 31.91443
1361.653, 32.10272
1362.712, 27.29163
1363.770, 15.48108
1364.829, 15.32361
1365.887, 63.51422
1366.945, 53.70538
1368.003, 55.84473
1369.061, 30.03705
1370.119, 33.74579
1371.177, 45.42328
1372.234, 31.61719
1373.291, 8.808167
1374.348, 12.00317
1375.405, 6.142639
1376.462, 38.39478
1377.518, 6.591431
1378.575, 26.81958
1379.631, 17.01740
1380.687, 4.234192
1381.743, 22.43317
1382.799, 30.63275
1383.854, 41.86938
1384.910, 42.07025
1385.965, 26.27197
1387.020, 6.474182
1388.075, 10.32281
1389.130, 42.90479
1390.184, 71.14148
1391.239, 47.34412
1392.293, 39.54053
1393.347, 31.76086
1394.401, 54.95819
1395.455, 14.39001
1396.509, 36.58783
1397.562, 41.06384
1398.615, 23.26300
1399.669, 17.03186
1400.722, 4.296021
1401.774, 37.49719
1402.827, 46.69904
1403.879, 31.90161
1404.932, 64.10492
1405.984, 43.30896
1407.036, 50.51367
1408.088, 22.73572
1409.139, 31.05109
1410.191, 29.30829
1411.242, 29.22247
1412.294, 43.52191
1413.345, 63.72925
1414.395, 38.93665
1415.446, 21.14813
1416.497, 48.35583
1417.547, 55.55859
1418.597, 38.75464
1419.647, 17.93536
1420.697, 73.11426
1421.747, 59.29163
1422.796, 73.46777
1423.846, 50.67987
1424.895, 49.93750
1425.944, 46.05115
1426.993, 58.18427
1428.042, 46.29852
1429.090, 76.40845
1430.139, 41.51093
1431.187, 44.60431
1432.235, 62.67670
1433.283, 62.73822
1434.331, 80.85388
1435.378, 73.97473
1436.426, 57.00348
1437.473, 71.73676
1438.520, 45.71936
1439.567, 74.98322
1440.614, 76.24811
1441.661, 60.28888
1442.707, 52.77863
1443.753, 54.03802
1444.799, 34.29840
1445.845, 45.55975
1446.891, 38.82202
1447.937, 18.08527
1448.982, 59.31818
1450.028, 35.71167
1451.073, 15.95721
1452.118, 32.10370
1453.163, 33.36243
1454.207, 38.62183
1455.252, 51.41028
1456.296, 59.66083
1457.340, 40.75098
1458.384, 30.92114
1459.428, 7.150818
1460.472, 38.38098
1461.515, 37.61157
1462.559, 41.84265
1463.602, 30.07404
1464.645, 30.30780
1465.688, 17.54388
1466.731, 8.781067
1467.773, 25.01880
1468.816, 18.25690
1469.858, 7.504456
1470.900, 50.73456
1471.942, 70.97363
1472.983, 53.21021
1474.025, 8.449646
1475.066, 40.68909
1476.108, 6.074463
1477.149, 29.30365
1478.190, 10.53265
1479.230, 26.76154
1480.271, 19.98743
1481.311, 31.20984
1482.352, 43.39716
1483.392, 33.61041
1484.432, 43.07013
1485.472, 40.03546
1486.511, 46.24615
1487.551, 40.44989
1488.590, 42.64642
1489.629, 37.87903
1490.668, 38.12506
1491.707, 30.22943
1492.745, 37.42242
1493.784, 42.61481
1494.822, 40.80585
1495.860, 31.99823
1496.898, 37.44385
1497.936, 23.38879
1498.974, 36.58807
1500.011, 33.78967
1501.049, 25.00043
1502.086, 50.21210
1503.123, 14.43207
1504.160, 29.65674
1505.196, 17.87897
1506.233, 27.09906
1507.269, 34.33417
1508.305, 10.57007
1509.341, 49.80872
1510.377, 78.07227
1511.413, 35.28625
1512.449, 25.57324
1513.484, 17.86127
1514.519, 16.15045
1515.554, 47.36346
1516.589, 56.00873
1517.624, 18.26123
1518.658, 38.40942
1519.693, 0.5379030
1520.727, 72.72089
1521.761, 1.4160000E-02
1522.795, 49.25183
1523.829, 4.480713
1524.862, 10.78815
1525.896, 28.05884
1526.929, 48.33203
1527.962, 50.60815
1528.995, 54.37891
1530.028, 43.17029
1531.060, 42.45660
1532.093, 23.74640
1533.125, 7.909241
1534.157, 16.12061
1535.189, 5.589233
1536.221, 10.46106
1537.253, 31.74347
1538.284, 33.89014
1539.316, 28.97845
1540.347, 63.18823
1541.378, 31.16760
1542.408, 49.75397
1543.439, 32.27148
1544.470, 26.80640
1545.500, 29.70679
1546.530, 32.55225
1547.560, 18.19415
1548.590, 9.468994
1549.620, 19.31189
1550.649, 19.25610
1551.679, 33.37341
1552.708, 41.61316
1553.737, 34.94757
1554.766, 39.88782
1555.794, 21.99274
1556.823, 24.50305
1557.851, 2.056030
1558.879, 0.1937870
1559.907, 14.84814
1560.935, 6.6955999E-02
1561.963, 0.0000000E+00
##END=



