##NAMES=Baddeleyite
##RRUFFID=R060078
##IDEAL CHEMISTRY=Zr^4+^O_2_
##LOCALITY=Wetloo mine, Mogok, Burma
##OWNER=RRUFF
##SOURCE=Marcus Origlieri
##DESCRIPTION=Dark brown fragment
##STATUS=The identification of this mineral has been confirmed by X-ray diffraction and chemical analysis
##URL=rruff.info/R060078
##MEASURED CHEMISTRY=(Zr_0.99_Hf_0.01_)_Î£=1_O_2_
##PIN_ID=L00612
##ORIENTATION=Laser parallel to (1 0 1). Fiducial mark perpendicular to laser is parallel to b [0 1 0]
51.43100, 0.0000000E+00
52.67100, 45.91086
53.91000, 100.6255
55.14900, 144.9268
56.38700, 176.2968
57.62600, 258.9112
58.86400, 359.6382
60.10300, 308.9174
61.34100, 196.9207
62.57900, 94.69073
63.81700, 16.02942
65.05400, 40.32849
66.29200, 94.65955
67.52900, 85.21436
68.76700, 51.21472
70.00400, 118.1379
71.24100, 80.19312
72.47700, 219.1144
73.71400, 84.32825
74.95100, 149.1007
76.18700, 117.7560
77.42300, 258.6569
78.65900, 268.1543
79.89500, 430.6475
81.13100, 612.0605
82.36700, 906.3340
83.60200, 1266.407
84.83700, 1177.217
86.07200, 1098.701
87.30800, 1219.796
88.54200, 1549.441
89.77700, 1937.538
91.01200, 2580.969
92.24600, 3256.630
93.48000, 3791.422
94.71400, 4575.278
95.94800, 5369.147
97.18200, 6022.980
98.41600, 6771.736
99.64900, 7982.383
100.8830, 9288.893
102.1160, 11095.23
103.3490, 13441.38
104.5820, 16418.32
105.8150, 18985.06
107.0470, 18883.66
108.2800, 16719.15
109.5120, 13399.57
110.7440, 9569.946
111.9760, 6656.249
113.2080, 5179.443
114.4400, 4828.494
115.6710, 4764.370
116.9030, 5053.033
118.1340, 4232.461
119.3650, 3924.623
120.5960, 3746.495
121.8270, 3768.052
123.0580, 3850.273
124.2880, 3828.135
125.5190, 3522.510
126.7490, 3161.044
127.9790, 3182.713
129.2090, 3187.496
130.4390, 3199.380
131.6680, 3024.348
132.8980, 2822.353
134.1270, 2842.451
135.3560, 2808.765
136.5850, 2853.288
137.8140, 2848.130
139.0430, 2973.209
140.2710, 2896.567
141.5000, 2762.212
142.7280, 2541.155
143.9560, 2611.397
145.1840, 2477.946
146.4120, 2618.805
147.6390, 2453.978
148.8670, 2433.465
150.0940, 2509.272
151.3210, 2743.397
152.5490, 2721.843
153.7750, 2695.608
155.0020, 2715.695
156.2290, 2641.136
157.4550, 2642.111
158.6810, 2691.813
159.9080, 2915.483
161.1340, 3112.232
162.3590, 3340.550
163.5850, 3647.212
164.8110, 3887.341
166.0360, 4264.410
167.2610, 4530.330
168.4860, 4911.958
169.7110, 5561.092
170.9360, 5931.545
172.1610, 6307.180
173.3850, 6726.979
174.6100, 7160.943
175.8340, 8169.073
177.0580, 9242.371
178.2820, 10416.84
179.5050, 12020.47
180.7290, 12637.27
181.9520, 12304.24
183.1760, 10930.37
184.3990, 9263.675
185.6220, 7916.140
186.8450, 7551.769
188.0670, 7850.562
189.2900, 8480.515
190.5120, 9566.628
191.7340, 10935.90
192.9560, 12189.33
194.1780, 12476.92
195.4000, 11351.66
196.6220, 9425.556
197.8430, 7561.604
199.0640, 6631.300
200.2860, 6266.767
201.5070, 6139.981
202.7270, 6151.902
203.9480, 6065.600
205.1690, 5498.169
206.3890, 5116.285
207.6090, 5064.372
208.8290, 4957.599
210.0490, 4768.493
211.2690, 4953.648
212.4890, 5038.025
213.7080, 5064.564
214.9280, 5333.809
216.1470, 5382.709
217.3660, 5665.033
218.5850, 6000.772
219.8030, 6438.912
221.0220, 7109.441
222.2400, 8028.350
223.4590, 8788.622
224.6770, 9049.252
225.8950, 8765.229
227.1120, 7446.542
228.3300, 6277.186
229.5480, 5089.150
230.7650, 4471.424
231.9820, 3951.004
233.1990, 3794.883
234.4160, 3651.049
235.6330, 3334.498
236.8490, 3306.223
238.0660, 3186.219
239.2820, 3187.479
240.4980, 3198.999
241.7140, 3257.774
242.9300, 3285.920
244.1460, 3255.072
245.3610, 3420.588
246.5770, 3488.340
247.7920, 3626.329
249.0070, 3638.549
250.2220, 3537.996
251.4370, 3644.669
252.6510, 3630.562
253.8660, 3513.674
255.0800, 3760.997
256.2940, 3782.531
257.5080, 3920.271
258.7220, 4068.211
259.9360, 4043.064
261.1490, 4050.459
262.3630, 4018.967
263.5760, 3883.661
264.7890, 3813.713
266.0020, 3674.208
267.2150, 3516.848
268.4270, 3422.254
269.6400, 3397.170
270.8520, 3504.855
272.0640, 3398.773
273.2760, 3539.183
274.4880, 3708.230
275.7000, 3641.536
276.9120, 3780.144
278.1230, 3912.055
279.3340, 4142.026
280.5450, 4159.459
281.7560, 4359.483
282.9670, 4642.165
284.1780, 4905.835
285.3880, 5273.396
286.5980, 5487.687
287.8090, 5796.097
289.0190, 5975.273
290.2290, 6027.338
291.4380, 6465.536
292.6480, 6463.865
293.8570, 6768.324
295.0670, 6952.915
296.2760, 7164.632
297.4850, 7365.476
298.6930, 7567.237
299.9020, 7770.540
301.1110, 7969.761
302.3190, 8228.102
303.5270, 8415.562
304.7350, 8756.140
305.9430, 9057.830
307.1510, 9515.627
308.3580, 9467.527
309.5660, 9647.527
310.7730, 9558.621
311.9800, 9077.803
313.1870, 8640.074
314.3940, 8324.428
315.6010, 7806.862
316.8070, 7968.375
318.0130, 7726.968
319.2200, 8097.640
320.4260, 8235.393
321.6310, 8685.220
322.8370, 9241.129
324.0430, 10229.11
325.2480, 11313.17
326.4540, 12481.30
327.6590, 13622.52
328.8640, 15325.80
330.0680, 17008.17
331.2730, 18976.60
332.4780, 21324.11
333.6820, 23489.70
334.8860, 24766.35
336.0900, 24243.08
337.2940, 21533.88
338.4980, 17989.75
339.7010, 14172.70
340.9050, 10970.71
342.1080, 9003.794
343.3110, 7629.948
344.5140, 6716.230
345.7170, 6288.636
346.9200, 5980.171
348.1220, 6028.838
349.3240, 5574.635
350.5270, 5162.563
351.7290, 4346.628
352.9310, 3729.826
354.1320, 3101.159
355.3340, 2728.627
356.5350, 2257.235
357.7370, 1974.987
358.9380, 1799.886
360.1390, 1785.922
361.3400, 1635.081
362.5400, 1730.357
363.7410, 1842.749
364.9410, 1973.255
366.1410, 2138.875
367.3410, 2580.604
368.5410, 3122.444
369.7410, 3633.393
370.9400, 4461.448
372.1400, 5156.609
373.3390, 6244.875
374.5380, 7532.244
375.7370, 8971.714
376.9360, 10757.29
378.1350, 12922.96
379.3330, 14610.73
380.5310, 16058.60
381.7300, 16404.56
382.9280, 15323.63
384.1260, 13506.79
385.3230, 12027.04
386.5210, 10176.38
387.7180, 8589.816
388.9160, 6938.349
390.1130, 5381.970
391.3100, 4343.682
392.5060, 3345.484
393.7030, 2491.375
394.9000, 1911.354
396.0960, 1579.421
397.2920, 1010.577
398.4880, 785.8193
399.6840, 556.1479
400.8800, 435.5630
402.0750, 223.3389
403.2710, 24.35156
404.4660, 76.73047
405.6610, 180.0981
406.8560, 233.4990
408.0510, 362.9595
409.2450, 512.5400
410.4400, 436.3105
411.6340, 592.2368
412.8280, 633.3916
414.0220, 642.7949
415.2160, 679.3486
416.4100, 665.6934
417.6030, 636.5820
418.7970, 619.0352
419.9900, 565.7349
421.1830, 512.6562
422.3760, 528.7759
423.5690, 460.4966
424.7610, 431.6025
425.9540, 367.2656
427.1460, 272.4014
428.3380, 212.6177
429.5300, 89.89600
430.7220, 49.85254
431.9140, 65.20020
433.1050, 132.9287
434.2970, 169.5684
435.4880, 242.7656
436.6790, 261.1123
437.8700, 240.5391
439.0610, 331.0439
440.2510, 315.6289
441.4420, 455.2939
442.6320, 570.0371
443.8220, 749.8604
445.0120, 669.7627
446.2020, 919.7441
447.3910, 1013.804
448.5810, 1078.942
449.7700, 1266.160
450.9600, 1478.457
452.1490, 1642.832
453.3370, 2048.286
454.5260, 2196.818
455.7150, 2620.431
456.9030, 3227.121
458.0910, 3692.891
459.2800, 4381.738
460.4670, 5109.667
461.6550, 6240.674
462.8430, 7511.758
464.0300, 8985.924
465.2180, 10956.17
466.4050, 13212.49
467.5920, 16149.89
468.7790, 19365.38
469.9650, 23323.94
471.1520, 27233.58
472.3380, 32578.31
473.5250, 37783.11
474.7110, 42793.99
475.8970, 46736.95
477.0820, 48557.00
478.2680, 46246.12
479.4540, 41848.34
480.6390, 34816.61
481.8240, 28108.97
483.0090, 21688.42
484.1940, 16858.95
485.3780, 13330.56
486.5630, 11117.25
487.7470, 9207.015
488.9320, 7414.863
490.1160, 6479.794
491.3000, 5638.805
492.4830, 5174.896
493.6670, 4852.066
494.8500, 4464.316
496.0340, 4353.645
497.2170, 4314.055
498.4000, 4364.541
499.5820, 4219.106
500.7650, 4202.750
501.9480, 4128.474
503.1300, 4157.273
504.3120, 3769.150
505.4940, 3615.105
506.6760, 3054.138
507.8580, 2666.247
509.0390, 2177.434
510.2210, 1979.696
511.4020, 1712.037
512.5830, 1531.453
513.7640, 1432.946
514.9450, 1201.515
516.1250, 1243.160
517.3060, 1199.882
518.4860, 1100.682
519.6660, 1210.558
520.8460, 1264.524
522.0260, 1115.570
523.2060, 1342.713
524.3850, 1454.938
525.5650, 1663.238
526.7440, 1853.613
527.9230, 2249.064
529.1020, 2439.590
530.2810, 3041.203
531.4590, 3558.932
532.6380, 4226.764
533.8160, 4972.067
534.9940, 5684.735
536.1720, 6623.893
537.3500, 7625.154
538.5270, 8571.563
539.7050, 8830.103
540.8820, 8871.745
542.0590, 8167.496
543.2360, 7704.336
544.4130, 7037.291
545.5900, 6735.389
546.7660, 6808.842
547.9430, 6980.090
549.1190, 7571.506
550.2950, 8465.875
551.4710, 9683.081
552.6470, 10928.44
553.8220, 12531.32
554.9980, 14276.98
556.1730, 16256.17
557.3480, 17552.41
558.5230, 18567.44
559.6980, 18866.10
560.8730, 18054.78
562.0470, 16302.41
563.2220, 14022.03
564.3960, 11737.87
565.5700, 9649.540
566.7440, 8140.346
567.9170, 6600.558
569.0910, 5664.193
570.2640, 4472.867
571.4380, 3676.084
572.6110, 3179.436
573.7840, 2706.289
574.9570, 2391.525
576.1290, 1965.886
577.3020, 1564.363
578.4740, 1449.955
579.6460, 1258.667
580.8180, 1078.497
581.9900, 907.4551
583.1620, 813.5303
584.3330, 848.7227
585.5040, 754.0283
586.6760, 644.4531
587.8470, 752.9863
589.0180, 599.6279
590.1880, 637.3809
591.3590, 651.2402
592.5290, 745.2051
593.7000, 823.2754
594.8700, 1018.451
596.0400, 1207.731
597.2090, 1380.116
598.3790, 1676.354
599.5490, 2004.201
600.7180, 2348.902
601.8870, 2780.707
603.0560, 3276.616
604.2250, 3870.630
605.3940, 4613.745
606.5620, 5030.971
607.7300, 5586.298
608.8990, 6377.728
610.0670, 6883.259
611.2350, 7355.889
612.4020, 7646.623
613.5700, 7932.460
614.7370, 7907.393
615.9050, 7804.432
617.0720, 7586.572
618.2390, 6946.808
619.4060, 6349.145
620.5720, 5745.579
621.7390, 5364.111
622.9050, 4739.743
624.0710, 4223.473
625.2370, 4170.300
626.4030, 3974.224
627.5690, 3820.244
628.7340, 3993.361
629.9000, 4285.576
631.0650, 4686.886
632.2300, 5079.291
633.3950, 5495.791
634.5600, 5963.387
635.7240, 6327.072
636.8890, 6428.854
638.0530, 6556.727
639.2170, 6291.691
640.3810, 5915.747
641.5450, 5142.895
642.7080, 4628.133
643.8720, 3608.461
645.0350, 3172.880
646.1980, 2381.387
647.3610, 2022.983
648.5240, 1686.670
649.6870, 1352.444
650.8490, 1152.306
652.0120, 910.2559
653.1740, 693.2930
654.3360, 653.4160
655.4980, 523.6260
656.6600, 471.9219
657.8210, 404.7979
658.9830, 371.0059
660.1440, 286.5479
661.3050, 104.5127
662.4660, 37.41211
663.6270, 59.21387
664.7870, 178.0977
665.9480, 32.06250
667.1080, 39.10938
668.2680, 50.23633
669.4280, 66.54492
670.5880, 26.30176
671.7480, 142.3232
672.9070, 194.2510
674.0670, 218.9277
675.2260, 203.5625
676.3850, 310.3447
677.5440, 263.8848
678.7030, 306.7158
679.8610, 382.9336
681.0200, 495.0723
682.1780, 518.0898
683.3360, 658.1855
684.4940, 850.3682
685.6520, 827.7607
686.8090, 1007.063
687.9670, 984.3604
689.1240, 1188.856
690.2810, 1425.367
691.4380, 1391.091
692.5950, 1548.279
693.7520, 1756.268
694.9080, 1829.426
696.0650, 2103.218
697.2210, 2286.293
698.3770, 2410.774
699.5330, 2785.753
700.6880, 2871.211
701.8440, 3138.534
702.9990, 3319.870
704.1550, 3317.674
705.3100, 3523.296
706.4650, 3656.074
707.6190, 3724.338
708.7740, 3745.512
709.9290, 3763.661
711.0830, 3577.099
712.2370, 3480.823
713.3910, 3207.167
714.5450, 3005.312
715.6980, 2852.356
716.8520, 2613.856
718.0050, 2273.605
719.1580, 2226.554
720.3110, 1912.613
721.4640, 1728.645
722.6170, 1621.608
723.7700, 1273.474
724.9220, 1242.529
726.0740, 1034.551
727.2260, 964.9976
728.3780, 914.0557
729.5300, 782.2393
730.6810, 758.2744
731.8330, 781.4150
732.9840, 772.4238
734.1350, 645.4785
735.2860, 618.6416
736.4370, 588.8711
737.5880, 569.3252
738.7380, 548.6753
739.8880, 653.4536
741.0390, 512.7266
742.1890, 514.3154
743.3380, 497.7676
744.4880, 648.2725
745.6380, 539.0024
746.7870, 695.3345
747.9360, 669.4902
749.0850, 612.9106
750.2340, 650.8003
751.3830, 730.1514
752.5310, 641.3672
753.6800, 778.8003
754.8280, 782.3271
755.9760, 803.5796
757.1240, 737.3525
758.2720, 745.7573
759.4190, 747.0977
760.5670, 702.6489
761.7140, 662.6055
762.8610, 631.9121
764.0080, 671.5464
765.1550, 600.0576
766.3020, 510.7437
767.4480, 591.5039
768.5950, 459.9492
769.7410, 370.6499
770.8870, 386.1641
772.0330, 327.7427
773.1780, 360.1919
774.3240, 480.6533
775.4690, 341.9883
776.6140, 289.3223
777.7590, 398.6533
778.9040, 236.9814
780.0490, 203.3057
781.1940, 263.6260
782.3380, 253.9409
783.4820, 160.2500
784.6260, 172.5532
785.7700, 162.8501
786.9140, 99.16650
788.0580, 113.4458
789.2010, 72.71631
790.3450, 35.97607
791.4880, 43.22656
792.6310, 103.4668
793.7730, 36.69580
794.9160, 7.087402
796.0590, 66.10986
797.2010, 57.70361
798.3430, 4.557617
799.4850, 72.43457
800.6270, 15.36865
801.7690, 80.66602
802.9100, 565.6841
804.0520, 644.6841
805.1930, 251.6646
806.3340, 20.37305
807.4750, 143.4526
808.6160, 75.63818
809.7560, 35.89795
810.8970, 164.2148
812.0370, 108.3486
813.1770, 72.88379
814.3170, 246.5000
815.4570, 167.2876
816.5960, 86.20801
817.7360, 81.21875
818.8750, 7.318848
820.0140, 107.4761
821.1530, 152.7427
822.2920, 71.14355
823.4310, 65.63721
824.5690, 61.19678
825.7070, 139.4897
826.8460, 38.29590
827.9840, 100.1978
829.1220, 86.22217
830.2590, 61.11621
831.3970, 153.3613
832.5340, 77.76123
833.6710, 44.16455
834.8080, 12.76611
835.9450, 14.79346
837.0820, 15.88477
838.2190, 56.78711
839.3550, 51.69043
840.4910, 69.80859
841.6270, 30.04492
842.7630, 107.3921
843.8990, 46.89355
845.0350, 18.48145
846.1700, 16.23633
847.3060, 77.94385
848.4410, 26.04199
849.5760, 14.95215
850.7100, 44.93701
851.8450, 116.7412
852.9800, 114.4858
854.1140, 87.15918
855.2480, 94.75488
856.3820, 41.27295
857.5160, 100.6963
858.6500, 108.0410
859.7830, 167.3086
860.9170, 79.51025
862.0500, 260.6245
863.1830, 216.6787
864.3160, 178.6699
865.4480, 261.5938
866.5810, 300.4565
867.7130, 285.2593
868.8460, 327.0010
869.9780, 325.6826
871.1100, 309.3042
872.2410, 302.8750
873.3730, 272.3838
874.5050, 223.8271
875.6360, 400.2017
876.7670, 327.5156
877.8980, 281.7661
879.0290, 300.9492
880.1590, 221.0679
881.2900, 286.1123
882.4200, 352.0879
883.5500, 426.0000
884.6800, 344.8491
885.8100, 292.6338
886.9400, 374.3481
888.0690, 428.9985
889.1990, 262.5854
890.3280, 350.0972
891.4570, 466.5430
892.5860, 329.9253
893.7140, 381.2383
894.8430, 434.4854
895.9710, 370.6675
897.1000, 327.7827
898.2280, 452.8262
899.3560, 373.8047
900.4830, 394.8003
901.6110, 375.6436
902.7380, 370.5601
903.8660, 420.1216
904.9930, 384.7583
906.1200, 410.3262
907.2460, 405.8252
908.3730, 428.7598
909.5000, 427.6865
910.6260, 478.9897
911.7520, 473.2261
912.8780, 466.4399
914.0040, 534.5425
915.1290, 501.6782
916.2550, 563.7979
917.3800, 595.7324
918.5050, 527.7432
919.6300, 491.5176
920.7550, 585.4644
921.8800, 469.1045
923.0040, 503.6768
924.1290, 503.1816
925.2530, 520.6211
926.3770, 588.4424
927.5010, 571.0728
928.6250, 494.6875
929.7480, 559.8574
930.8720, 603.7329
931.9950, 489.0854
933.1180, 591.7720
934.2410, 553.3403
935.3640, 551.0654
936.4860, 638.9307
937.6090, 588.9775
938.7310, 506.6543
939.8530, 559.2129
940.9750, 534.9268
942.0970, 603.9204
943.2180, 537.9126
944.3400, 537.5474
945.4610, 531.3574
946.5820, 433.3950
947.7030, 489.6201
948.8240, 537.5796
949.9450, 532.7490
951.0650, 467.6357
952.1860, 482.8306
953.3060, 479.9048
954.4260, 481.8779
955.5460, 496.6777
956.6650, 486.4087
957.7850, 481.1680
958.9040, 396.2393
960.0230, 338.9165
961.1420, 384.3931
962.2610, 390.9712
963.3800, 445.4688
964.4990, 324.7056
965.6170, 401.2212
966.7350, 373.0444
967.8530, 199.2705
968.9710, 329.4199
970.0890, 301.3008
971.2070, 318.8164
972.3240, 284.8882
973.4410, 291.3477
974.5580, 334.2354
975.6750, 362.3193
976.7920, 310.3550
977.9090, 304.1597
979.0250, 290.3345
980.1410, 279.5649
981.2580, 267.7422
982.3740, 271.0928
983.4890, 273.4712
984.6050, 289.8545
985.7200, 295.6870
986.8360, 346.9243
987.9510, 328.2441
989.0660, 351.0913
990.1810, 371.7852
991.2950, 334.5801
992.4100, 297.3584
993.5240, 287.0659
994.6390, 318.2144
995.7530, 322.7842
996.8660, 344.3623
997.9800, 244.7612
999.0940, 338.6304
1000.207, 324.3101
1001.320, 395.7300
1002.433, 277.0474
1003.546, 299.6689
1004.659, 355.1748
1005.772, 607.8770
1006.884, 837.0405
1007.996, 462.9727
1009.108, 307.5532
1010.220, 610.8613
1011.332, 1049.877
1012.444, 987.5605
1013.555, 1432.362
1014.666, 1217.093
1015.777, 346.5796
1016.888, 352.4443
1017.999, 320.4663
1019.110, 361.2021
1020.220, 245.5405
1021.331, 290.3037
1022.441, 289.1812
1023.551, 370.8184
1024.661, 331.3398
1025.770, 246.2988
1026.880, 227.5273
1027.989, 240.0430
1029.098, 229.7129
1030.207, 309.0889
1031.316, 246.7285
1032.425, 281.6514
1033.533, 183.9565
1034.642, 272.2690
1035.750, 300.3794
1036.858, 248.3877
1037.966, 213.6836
1039.073, 229.6958
1040.181, 287.8657
1041.288, 244.0269
1042.396, 176.2026
1043.503, 251.0576
1044.610, 195.2866
1045.716, 178.5278
1046.823, 200.7471
1047.929, 163.5474
1049.036, 149.9116
1050.142, 177.5273
1051.248, 141.6548
1052.353, 219.8350
1053.459, 128.8599
1054.564, 178.1421
1055.670, 216.0586
1056.775, 190.9771
1057.880, 260.4370
1058.985, 95.78760
1060.089, 108.6270
1061.194, 100.5381
1062.298, 217.3213
1063.402, 162.0806
1064.506, 101.8184
1065.610, 1.367676
1066.713, 203.3208
1067.817, 138.9897
1068.920, 130.6562
1070.023, 88.30664
1071.126, 139.9316
1072.229, 178.5371
1073.332, 98.12012
1074.435, 42.68066
1075.537, 119.2314
1076.639, 163.8032
1077.741, 115.3838
1078.843, 138.9604
1079.945, 96.26318
1081.046, 124.8862
1082.148, 142.7139
1083.249, 238.4053
1084.350, 24.18115
1085.451, 34.91748
1086.551, 93.66455
1087.652, 91.40820
1088.752, 87.17480
1089.853, 54.97705
1090.953, 31.79346
1092.053, 101.5942
1093.152, 137.0503
1094.252, 114.9199
1095.351, 196.8110
1096.451, 94.73096
1097.550, 147.4380
1098.649, 49.41406
1099.748, 68.44287
1100.846, 59.38135
1101.945, 67.43164
1103.043, 75.11377
1104.141, 156.4370
1105.239, 79.32178
1106.337, 17.65674
1107.434, 43.52295
1108.532, 7.615723
1109.629, 29.77002
1110.726, 29.96338
1111.823, 79.23682
1112.920, 5.462891
1114.017, 36.69580
1115.113, 1.956055
1116.210, 98.20166
1117.306, 12.53174
1118.402, 37.26611
1119.498, 129.9771
1120.593, 21.21973
1121.689, 59.46094
1122.784, 12.16553
1123.879, 35.41650
1124.974, 44.50146
1126.069, 0.9433590
1127.164, 53.18994
1128.259, 56.44189
1129.353, 13.68750
1130.447, 1.924805
1131.541, 7.156738
1132.635, 76.37988
1133.729, 71.59619
1134.822, 27.80664
1135.916, 39.00928
1137.009, 42.79590
1138.102, 70.37207
1139.195, 67.53467
1140.288, 7.693359
1141.380, 71.84814
1142.473, 123.9971
1143.565, 110.1411
1144.657, 133.0508
1145.749, 83.42139
1146.841, 111.5610
1147.932, 95.69922
1149.024, 77.83350
1150.115, 101.9634
1151.206, 48.09082
1152.297, 72.21582
1153.388, 127.3374
1154.479, 93.45605
1155.569, 129.5767
1156.659, 21.69482
1157.750, 74.80859
1158.839, 72.92139
1159.929, 145.0322
1161.019, 134.1401
1162.108, 52.24756
1163.198, 83.35498
1164.287, 39.45947
1165.376, 87.47852
1166.465, 91.58105
1167.553, 83.68359
1168.642, 60.78662
1169.730, 78.88818
1170.818, 72.99121
1171.906, 36.09375
1172.994, 98.19531
1174.082, 35.77051
1175.170, 127.3164
1176.257, 43.93701
1177.344, 41.44824
1178.431, 13.43311
1179.518, 1.452148
1180.605, 10.52441
1181.691, 32.52002
1182.778, 14.22168
1183.864, 43.48877
1184.950, 4.682129
1186.036, 73.38477
1187.122, 61.45215
1188.207, 12.47949
1189.292, 10.41455
1190.378, 48.19824
1191.463, 20.93604
1192.548, 60.62207
1193.632, 66.71533
1194.717, 47.77148
1195.801, 17.54736
1196.886, 51.90430
1197.970, 170.9824
1199.054, 101.9854
1200.137, 184.9634
1201.221, 93.69531
1202.305, 96.98047
1203.388, 75.06982
1204.471, 67.93945
1205.554, 58.34814
1206.637, 64.39355
1207.719, 72.87744
1208.802, 45.87305
1209.884, 40.45752
1210.966, 39.64062
1212.048, 2.018555
1213.130, 45.78076
1214.212, 22.89307
1215.293, 39.32324
1216.374, 146.9092
1217.456, 157.8867
1218.536, 151.8628
1219.617, 265.9961
1220.698, 169.7583
1221.778, 201.3413
1222.859, 202.3989
1223.939, 332.5522
1225.019, 297.6987
1226.099, 269.8540
1227.178, 196.5273
1228.258, 159.5415
1229.337, 132.4976
1230.417, 141.5488
1231.496, 116.5137
1232.574, 57.51807
1233.653, 100.5601
1234.732, 71.73193
1235.810, 65.80273
1236.888, 119.5737
1237.966, 95.82227
1239.044, 105.4302
1240.122, 96.23193
1241.199, 13.04443
1242.277, 84.14160
1243.354, 74.76660
1244.431, 20.66162
1245.508, 74.27393
1246.585, 67.45215
1247.661, 60.63672
1248.738, 27.49316
1249.814, 43.67090
1250.890, 28.48389
1251.966, 11.46582
1253.042, 32.27930
1254.117, 49.22656
1255.193, 44.78125
1256.268, 46.85254
1257.343, 117.8633
1258.418, 42.89111
1259.493, 84.66064
1260.567, 66.33740
1261.642, 47.06641
1262.716, 65.47510
1263.790, 46.83887
1264.864, 54.22168
1265.938, 63.20020
1267.011, 20.85986
1268.085, 83.97656
1269.158, 107.0854
1270.231, 21.87695
1271.304, 174.0112
1272.377, 151.1689
1273.450, 204.3267
1274.522, 179.4849
1275.594, 161.6431
1276.666, 75.80176
1277.738, 118.9609
1278.810, 64.12012
1279.882, 109.2798
1280.953, 98.34766
1282.025, 79.50781
1283.096, 44.66846
1284.167, 62.82959
1285.238, 45.74609
1286.308, 24.96582
1287.379, 50.13379
1288.449, 57.30176
1289.519, 72.40625
1290.589, 68.26611
1291.659, 110.7651
1292.729, 61.93506
1293.798, 122.0146
1294.868, 148.1851
1295.937, 105.3569
1297.006, 65.52832
1298.075, 111.7007
1299.143, 60.89160
1300.212, 80.06494
1301.280, 22.15283
1302.348, 59.32617
1303.416, 22.91992
1304.484, 10.90967
1305.552, 14.08496
1306.620, 4.210449
1307.687, 76.72705
1308.754, 122.6523
1309.821, 16.29688
1310.888, 104.4009
1311.955, 40.43164
1313.021, 86.58789
1314.088, 116.4580
1315.154, 152.6406
1316.220, 12.82324
1317.286, 59.43848
1318.352, 82.13770
1319.417, 80.32178
1320.483, 140.4062
1321.548, 4.688477
1322.613, 49.87451
1323.678, 5.062500
1324.743, 124.1587
1325.807, 72.97363
1326.872, 81.17383
1327.936, 112.3721
1329.000, 105.5688
1330.064, 5.229980
1331.128, 128.9712
1332.191, 81.17090
1333.255, 22.62744
1334.318, 4.574219
1335.381, 8.473633
1336.444, 134.0449
1337.507, 48.24854
1338.569, 35.44580
1339.632, 60.62939
1340.694, 15.37988
1341.756, 76.80371
1342.818, 13.93799
1343.880, 2.126465
1344.941, 26.31738
1346.003, 77.51074
1347.064, 2.294922
1348.125, 102.9009
1349.186, 96.09863
1350.247, 13.29980
1351.308, 100.2031
1352.368, 31.40625
1353.428, 30.61084
1354.489, 29.91064
1355.549, 15.63721
1356.608, 38.51318
1357.668, 7.701172
1358.727, 74.89307
1359.787, 71.08691
1360.846, 81.28223
1361.905, 34.47900
1362.964, 37.67725
1364.022, 48.87646
1365.081, 84.18799
1366.139, 62.40918
1367.197, 102.6333
1368.255, 97.23682
1369.313, 75.03271
1370.371, 90.75244
1371.428, 58.16895
1372.486, 34.86084
1373.543, 51.10107
1374.600, 13.34180
1375.657, 100.6113
1376.713, 39.86963
1377.770, 42.12891
1378.826, 91.39111
1379.882, 27.19434
1380.938, 112.4614
1381.994, 106.7305
1383.050, 38.10205
1384.106, 61.37646
1385.161, 58.65283
1386.216, 72.93066
1387.271, 108.1978
1388.326, 91.46777
1389.381, 105.7412
1390.435, 108.8418
1391.490, 103.2646
1392.544, 111.5718
1393.598, 75.85303
1394.652, 81.14648
1395.705, 83.29346
1396.759, 108.7402
1397.812, 83.04199
1398.866, 100.3462
1399.919, 68.58936
1400.972, 111.8633
1402.024, 125.1157
1403.077, 107.3447
1404.129, 110.5747
1405.181, 83.80420
1406.233, 93.03418
1407.285, 94.94629
1408.337, 92.58301
1409.389, 121.8042
1410.440, 89.01514
1411.491, 118.2402
1412.542, 150.4482
1413.593, 141.9478
1414.644, 165.2402
1415.695, 79.44336
1416.745, 166.7471
1417.795, 71.94580
1418.845, 148.1440
1419.895, 61.33936
1420.945, 73.53223
1421.995, 168.8027
1423.044, 187.9902
1424.093, 88.17529
1425.142, 30.35791
1426.191, 121.5396
1427.240, 89.72021
1428.289, 57.89795
1429.337, 62.07520
1430.385, 148.2598
1431.433, 82.39160
1432.481, 132.5239
1433.529, 142.6475
1434.577, 74.83252
1435.624, 73.95410
1436.672, 117.7246
1437.719, 184.8379
1438.766, 104.9453
1439.812, 162.0469
1440.859, 111.1450
1441.905, 100.3345
1442.952, 173.3472
1443.998, 143.3389
1445.044, 61.44385
1446.090, 73.33691
1447.135, 16.02344
1448.181, 130.4551
1449.226, 190.8921
1450.271, 38.34619
1451.316, 19.19580
1452.361, 160.0054
1453.405, 94.41406
1454.450, 134.4204
1455.494, 118.8755
1456.538, 157.3340
1457.582, 134.5088
1458.626, 110.4497
1459.670, 83.91406
1460.713, 68.19678
1461.757, 27.65869
1462.800, 79.07861
1463.843, 132.6572
1464.886, 88.61133
1465.928, 64.90430
1466.971, 115.2686
1468.013, 74.63525
1469.055, 128.0044
1470.097, 53.37402
1471.139, 72.74512
1472.181, 116.1118
1473.222, 43.47412
1474.263, 156.7739
1475.305, 64.13770
1476.346, 83.49512
1477.386, 55.87500
1478.427, 158.2686
1479.468, 12.33643
1480.508, 138.0596
1481.548, 47.45703
1482.588, 40.85547
1483.628, 106.2549
1484.668, 100.6553
1485.707, 135.0566
1486.747, 92.45947
1487.786, 172.8643
1488.825, 85.27148
1489.864, 24.68213
1490.902, 107.0942
1491.941, 97.50977
1492.979, 150.9194
1494.017, 171.3232
1495.055, 3.728516
1496.093, 15.13818
1497.131, 4.550781
1498.168, 127.9678
1499.206, 83.35645
1500.243, 48.78174
1501.280, 149.2129
1502.317, 126.6489
1503.354, 73.09277
1504.390, 70.53760
1505.426, 155.9854
1506.463, 110.4414
1507.499, 28.90576
1508.535, 176.3813
1509.570, 86.67773
1510.606, 128.1714
1511.641, 83.29004
1512.676, 143.7363
1513.711, 127.9497
1514.746, 137.0752
1515.781, 136.1401
1516.816, 114.4668
1517.850, 144.9565
1518.884, 118.7471
1519.918, 87.12598
1520.952, 100.7188
1521.986, 103.3188
1523.019, 118.9258
1524.053, 58.56738
1525.086, 43.85254
1526.119, 42.82959
1527.152, 49.03564
1528.185, 48.91895
1529.217, 99.07080
1530.250, 121.2065
1531.282, 143.0000
1532.314, 28.08691
1533.346, 124.5503
1534.377, 114.3271
1535.409, 45.22949
1536.440, 108.0146
1537.472, 11.16260
1538.503, 28.61426
1539.534, 159.8691
1540.564, 24.52588
1541.595, 51.18115
1542.625, 80.83545
1543.656, 120.4209
1544.686, 81.93506
1545.716, 29.35449
1546.745, 73.66504
1547.775, 112.1855
1548.804, 96.75586
1549.834, 160.6528
1550.863, 235.5166
1551.892, 279.7622
1552.920, 423.6982
1553.949, 478.5889
1554.977, 437.9800
1556.006, 326.4619
1557.034, 35.65576
1558.062, 28.76709
1559.089, 87.96924
1560.117, 3.186035
1561.144, 80.42432
1562.172, 69.76855
1563.199, 110.3638
1564.226, 73.06396
1565.252, 20.99414
1566.279, 94.75732
1567.305, 65.04541
1568.332, 1.5137000E-02
1569.358, 55.58545
1570.384, 0.0000000E+00
##END=



