##NAMES=Baddeleyite
##RRUFFID=R060078
##IDEAL CHEMISTRY=Zr^4+^O_2_
##LOCALITY=Wetloo mine, Mogok, Burma
##OWNER=RRUFF
##SOURCE=Marcus Origlieri
##DESCRIPTION=Dark brown fragment
##STATUS=The identification of this mineral has been confirmed by X-ray diffraction and chemical analysis
##URL=rruff.info/R060078
##MEASURED CHEMISTRY=(Zr_0.99_Hf_0.01_)_Î£=1_O_2_
##PIN_ID=L00612
##ORIENTATION=Laser parallel to (1 0 1). Fiducial mark perpendicular to laser is parallel to b [0 1 0]
51.43100, 0.0000000E+00
52.67100, 11.51813
53.91000, 11.12817
55.14900, 37.59244
56.38700, 20.25674
57.62600, 53.04324
58.86400, 67.18121
60.10300, 46.92191
61.34100, 29.71863
62.57900, 6.497070
63.81700, 9.804779
65.05400, 2.279968
66.29200, 11.98834
67.52900, 18.01099
68.76700, 47.66345
70.00400, 96.62640
71.24100, 129.0154
72.47700, 222.0639
73.71400, 211.8647
74.95100, 261.0999
76.18700, 310.7400
77.42300, 290.7675
78.65900, 292.1608
79.89500, 309.9028
81.13100, 457.9757
82.36700, 590.3611
83.60200, 696.0418
84.83700, 632.0024
86.07200, 550.2284
87.30800, 620.7066
88.54200, 747.4242
89.77700, 853.3649
91.01200, 1154.509
92.24600, 1381.839
93.48000, 1505.341
94.71400, 1702.005
95.94800, 2094.821
97.18200, 2238.782
98.41600, 2575.884
99.64900, 3003.133
100.8830, 3519.586
102.1160, 3935.201
103.3490, 4672.987
104.5820, 5281.892
105.8150, 5783.919
107.0470, 5441.144
108.2800, 4785.498
109.5120, 3912.974
110.7440, 2585.572
111.9760, 1657.284
113.2080, 1302.109
114.4400, 1234.042
115.6710, 1327.080
116.9030, 1074.218
118.1340, 980.4552
119.3650, 849.7876
120.5960, 792.2129
121.8270, 880.7285
123.0580, 858.3323
124.2880, 805.0219
125.5190, 733.7791
126.7490, 745.1250
127.9790, 720.3374
129.2090, 733.1309
130.4390, 739.9371
131.6680, 697.7378
132.8980, 667.5476
134.1270, 640.3818
135.3560, 665.2488
136.5850, 724.1506
137.8140, 780.0906
139.0430, 825.0702
140.2710, 779.0911
141.5000, 718.1552
142.7280, 686.2631
143.9560, 741.4161
145.1840, 745.6147
146.4120, 782.8601
147.6390, 800.0208
148.8670, 786.1334
150.0940, 804.9753
151.3210, 867.0089
152.5490, 931.5474
153.7750, 908.9380
155.0020, 931.2308
156.2290, 914.8276
157.4550, 945.5554
158.6810, 1030.443
159.9080, 1128.060
161.1340, 1171.222
162.3590, 1343.191
163.5850, 1642.600
164.8110, 1869.138
166.0360, 2275.791
167.2610, 2769.503
168.4860, 3573.252
169.7110, 4427.035
170.9360, 5373.849
172.1610, 6139.693
173.3850, 7316.569
174.6100, 8756.477
175.8340, 10666.41
177.0580, 12476.38
178.2820, 15197.38
179.5050, 17858.41
180.7290, 19055.47
181.9520, 18419.56
183.1760, 16282.69
184.3990, 13793.85
185.6220, 12594.03
186.8450, 13256.25
188.0670, 14851.50
189.2900, 17507.79
190.5120, 20469.10
191.7340, 24576.45
192.9560, 27212.82
194.1780, 26324.23
195.4000, 21720.67
196.6220, 14964.14
197.8430, 9091.637
199.0640, 5521.454
200.2860, 3851.212
201.5070, 2893.897
202.7270, 2423.570
203.9480, 1898.191
205.1690, 1347.698
206.3890, 1097.289
207.6090, 846.9817
208.8290, 769.7627
210.0490, 786.6202
211.2690, 723.6855
212.4890, 752.5640
213.7080, 850.1895
214.9280, 896.3892
216.1470, 943.6609
217.3660, 960.0021
218.5850, 1149.410
219.8030, 1324.881
221.0220, 1553.415
222.2400, 1694.009
223.4590, 1872.660
224.6770, 1823.368
225.8950, 1534.130
227.1120, 1196.946
228.3300, 786.8125
229.5480, 542.7294
230.7650, 374.6949
231.9820, 278.7080
233.1990, 180.7672
234.4160, 157.8717
235.6330, 128.0204
236.8490, 53.21216
238.0660, 87.44617
239.2820, 71.72156
240.4980, 75.03772
241.7140, 57.39404
242.9300, 31.21045
244.1460, 36.77881
245.3610, 26.31262
246.5770, 18.81128
247.7920, 3.274658
249.0070, 5.297607
250.2220, 25.09509
251.4370, 4.455078
252.6510, 34.78137
253.8660, 23.92224
255.0800, 32.34119
256.2940, 18.57544
257.5080, 16.57471
258.7220, 135.8815
259.9360, 62.05200
261.1490, 201.5328
262.3630, 13.83679
263.5760, 5.363647
264.7890, 18.50806
266.0020, 18.55640
267.2150, 25.03125
268.4270, 12.91748
269.6400, 37.72742
270.8520, 11.35986
272.0640, 7.364868
273.2760, 26.44092
274.4880, 38.40637
275.7000, 47.46106
276.9120, 44.39062
278.1230, 130.5215
279.3340, 185.7312
280.5450, 140.6454
281.7560, 129.9744
282.9670, 157.5894
284.1780, 191.3035
285.3880, 278.7070
286.5980, 352.1355
287.8090, 313.5886
289.0190, 405.0663
290.2290, 422.5682
291.4380, 534.0947
292.6480, 559.6451
293.8570, 656.2148
295.0670, 754.8000
296.2760, 858.4060
297.4850, 991.0320
298.6930, 1174.676
299.9020, 1342.339
301.1110, 1548.022
302.3190, 1747.739
303.5270, 2052.488
304.7350, 2383.262
305.9430, 2600.065
307.1510, 2750.888
308.3580, 2797.737
309.5660, 2852.614
310.7730, 2670.525
311.9800, 2439.467
313.1870, 2162.429
314.3940, 1902.409
315.6010, 1647.409
316.8070, 1535.427
318.0130, 1520.465
319.2200, 1625.521
320.4260, 1683.596
321.6310, 1919.690
322.8370, 2126.802
324.0430, 2548.934
325.2480, 2879.083
326.4540, 3488.251
327.6590, 3851.438
328.8640, 4692.643
330.0680, 5171.866
331.2730, 6108.108
332.4780, 6790.368
333.6820, 7529.645
334.8860, 7794.940
336.0900, 7594.255
337.2940, 6897.588
338.4980, 6360.938
339.7010, 5814.306
340.9050, 5700.692
342.1080, 5885.097
343.3110, 6448.518
344.5140, 7200.966
345.7170, 8115.440
346.9200, 8872.940
348.1220, 9604.468
349.3240, 9841.022
350.5270, 9380.607
351.7290, 8136.215
352.9310, 6539.851
354.1320, 5070.516
355.3340, 3686.210
356.5350, 2913.935
357.7370, 2158.686
358.9380, 1725.466
360.1390, 1436.270
361.3400, 1128.100
362.5400, 996.9536
363.7410, 822.8323
364.9410, 655.7351
366.1410, 671.6621
367.3410, 567.6128
368.5410, 620.5872
369.7410, 649.5854
370.9400, 676.6067
372.1400, 753.6511
373.3390, 811.7192
374.5380, 973.8101
375.7370, 1066.924
376.9360, 1270.060
378.1350, 1462.219
379.3330, 1630.400
380.5310, 1872.604
381.7300, 2088.829
382.9280, 2263.076
384.1260, 2334.346
385.3230, 2303.638
386.5210, 2091.951
387.7180, 1955.716
388.9160, 1610.340
390.1130, 1320.265
391.3100, 918.3799
392.5060, 711.7573
393.7030, 554.2002
394.9000, 403.2300
396.0960, 308.6597
397.2920, 222.4622
398.4880, 141.9902
399.6840, 77.89795
400.8800, 25.47266
402.0750, 8.779785
403.2710, 34.90137
404.4660, 32.31470
405.6610, 59.62256
406.8560, 62.97998
408.0510, 73.62817
409.2450, 69.11035
410.4400, 44.04028
411.6340, 33.55688
412.8280, 17.38354
414.0220, 76.11060
415.2160, 68.96631
416.4100, 46.75977
417.6030, 104.3425
418.7970, 31.96313
419.9900, 47.58887
421.1830, 69.22705
422.3760, 5.113037
423.5690, 8.535889
424.7610, 40.82080
425.9540, 23.19849
427.1460, 20.59399
428.3380, 55.00659
429.5300, 112.4404
430.7220, 131.8958
431.9140, 175.3728
433.1050, 219.8716
434.2970, 262.7458
435.4880, 314.9336
436.6790, 380.4973
437.8700, 450.9026
439.0610, 533.6897
440.2510, 623.3186
441.4420, 730.9690
442.6320, 842.7468
443.8220, 939.3362
445.0120, 1083.537
446.2020, 1256.892
447.3910, 1376.476
448.5810, 1678.542
449.7700, 1857.143
450.9600, 2142.880
452.1490, 2506.551
453.3370, 2909.310
454.5260, 3374.651
455.7150, 3991.733
456.9030, 4643.663
458.0910, 5349.614
459.2800, 6391.585
460.4670, 7662.577
461.6550, 9301.589
462.8430, 11409.62
464.0300, 13821.68
465.2180, 17322.76
466.4050, 21076.85
467.5920, 25744.97
468.7790, 30751.11
469.9650, 36571.27
471.1520, 42685.45
472.3380, 49456.66
473.5250, 55851.88
474.7110, 60766.12
475.8970, 63215.40
477.0820, 63213.68
478.2680, 59479.00
479.4540, 51919.32
480.6390, 42051.67
481.8240, 33275.05
483.0090, 25384.45
484.1940, 19799.87
485.3780, 15664.30
486.5630, 12586.76
487.7470, 10451.24
488.9320, 8762.744
490.1160, 7562.270
491.3000, 6495.815
492.4830, 5658.382
493.6670, 5120.972
494.8500, 4709.582
496.0340, 4379.212
497.2170, 4071.865
498.4000, 3867.540
499.5820, 3662.235
500.7650, 3540.951
501.9480, 3301.689
503.1300, 3063.448
504.3120, 2788.228
505.4940, 2544.028
506.6760, 2255.850
507.8580, 1977.694
509.0390, 1788.662
510.2210, 1590.443
511.4020, 1438.350
512.5830, 1328.277
513.7640, 1212.225
514.9450, 1117.215
516.1250, 1116.205
517.3060, 1046.216
518.4860, 1021.248
519.6660, 945.3008
520.8460, 883.3740
522.0260, 876.4685
523.2060, 895.5837
524.3850, 864.7197
525.5650, 918.8765
526.7440, 1031.054
527.9230, 1090.252
529.1020, 1209.471
530.2810, 1410.714
531.4590, 1644.981
532.6380, 1797.272
533.8160, 2012.585
534.9940, 2435.920
536.1720, 2746.276
537.3500, 2889.654
538.5270, 3196.055
539.7050, 3328.480
540.8820, 3258.926
542.0590, 3016.397
543.2360, 2895.684
544.4130, 2721.568
545.5900, 2811.085
546.7660, 2981.752
547.9430, 3229.947
549.1190, 3600.970
550.2950, 4100.427
551.4710, 4744.143
552.6470, 5392.267
553.8220, 6206.982
554.9980, 7088.618
556.1730, 7756.139
557.3480, 8324.097
558.5230, 8456.312
559.6980, 8115.432
560.8730, 7524.525
562.0470, 6495.800
563.2220, 5303.926
564.3960, 4272.023
565.5700, 3329.467
566.7440, 2627.549
567.9170, 2044.394
569.0910, 1684.206
570.2640, 1348.384
571.4380, 1086.595
572.6110, 832.8486
573.7840, 676.1401
574.9570, 572.4570
576.1290, 383.8064
577.3020, 310.1792
578.4740, 265.5894
579.6460, 198.0237
580.8180, 177.4824
581.9900, 57.96655
583.1620, 46.47461
584.3330, 7.007080
585.5040, 61.43677
586.6760, 43.88037
587.8470, 26.31567
589.0180, 57.73364
590.1880, 48.14844
591.3590, 50.55615
592.5290, 48.95874
593.7000, 70.35083
594.8700, 61.74463
596.0400, 8.133789
597.2090, 34.49707
598.3790, 88.15112
599.5490, 86.82764
600.7180, 125.5264
601.8870, 148.2507
603.0560, 271.0007
604.2250, 339.7747
605.3940, 477.5708
606.5620, 600.3892
607.7300, 835.2295
608.8990, 895.0977
610.0670, 1137.990
611.2350, 1326.903
612.4020, 1461.842
613.5700, 1561.803
614.7370, 1710.788
615.9050, 1747.796
617.0720, 1694.832
618.2390, 1536.889
619.4060, 1267.970
620.5720, 1112.084
621.7390, 982.2200
622.9050, 693.3794
624.0710, 553.5693
625.2370, 482.7837
626.4030, 321.0247
627.5690, 255.2864
628.7340, 236.5691
629.9000, 213.8723
631.0650, 197.1980
632.2300, 217.5449
633.3950, 250.9146
634.5600, 197.3059
635.7240, 252.7175
636.8890, 219.1489
638.0530, 233.6016
639.2170, 226.0752
640.3810, 236.5708
641.5450, 208.2798
642.7080, 190.2732
643.8720, 144.1814
645.0350, 108.7588
646.1980, 74.35645
647.3610, 75.36401
648.5240, 42.61133
649.6870, 89.26685
650.8490, 61.94214
652.0120, 54.63599
653.1740, 61.34912
654.3360, 8.3007999E-02
655.4980, 112.8374
656.6600, 22.61401
657.8210, 68.40918
658.9830, 104.2236
660.1440, 97.05591
661.3050, 122.4917
662.4660, 84.77466
663.6270, 128.6616
664.7870, 155.5664
665.9480, 152.7625
667.1080, 39.42822
668.2680, 110.3850
669.4280, 120.3589
670.5880, 54.35083
671.7480, 164.3601
672.9070, 107.5754
674.0670, 137.6179
675.2260, 194.6765
676.3850, 165.7524
677.5440, 163.0376
678.7030, 179.1489
679.8610, 179.6292
681.0200, 230.5212
682.1780, 193.6777
683.3360, 218.8506
684.4940, 186.0471
685.6520, 267.4055
686.8090, 234.6157
687.9670, 242.9558
689.1240, 318.3376
690.2810, 330.8862
691.4380, 301.6597
692.5950, 329.0491
693.7520, 341.1406
694.9080, 392.5347
696.0650, 386.6946
697.2210, 394.1655
698.3770, 390.6565
699.5330, 406.2124
700.6880, 453.6606
701.8440, 435.5527
702.9990, 465.0654
704.1550, 480.9802
705.3100, 482.0859
706.4650, 570.3052
707.6190, 533.5083
708.7740, 537.0188
709.9290, 652.8435
711.0830, 573.8767
712.2370, 459.7620
713.3910, 529.9880
714.5450, 482.6375
715.6980, 520.4773
716.8520, 454.3940
718.0050, 514.4355
719.1580, 435.4097
720.3110, 438.7207
721.4640, 436.6794
722.6170, 465.7480
723.7700, 367.7778
724.9220, 365.2368
726.0740, 373.6860
727.2260, 359.4153
728.3780, 397.3242
729.5300, 377.8633
730.6810, 381.9348
731.8330, 410.2183
732.9840, 358.6692
734.1350, 394.1663
735.2860, 340.0349
736.4370, 381.0618
737.5880, 432.0332
738.7380, 438.0139
739.8880, 473.6765
741.0390, 486.3904
742.1890, 388.8022
743.3380, 453.8018
744.4880, 478.8059
745.6380, 451.8726
746.7870, 507.0852
747.9360, 422.5586
749.0850, 489.5811
750.2340, 448.3179
751.3830, 542.6206
752.5310, 589.1052
753.6800, 532.6221
754.8280, 628.9448
755.9760, 499.1523
757.1240, 461.4988
758.2720, 491.4768
759.4190, 525.6807
760.5670, 445.3577
761.7140, 497.6145
762.8610, 439.4512
764.0080, 421.8335
765.1550, 354.9658
766.3020, 419.1086
767.4480, 338.2200
768.5950, 341.7166
769.7410, 273.0815
770.8870, 329.6750
772.0330, 282.1404
773.1780, 192.3098
774.3240, 257.3760
775.4690, 220.7529
776.6140, 233.1045
777.7590, 193.8123
778.9040, 232.0536
780.0490, 166.4167
781.1940, 235.9785
782.3380, 170.0709
783.4820, 169.3823
784.6260, 137.7683
785.7700, 123.8864
786.9140, 159.9409
788.0580, 129.2263
789.2010, 140.2769
790.3450, 53.51172
791.4880, 118.1251
792.6310, 159.8387
793.7730, 76.86938
794.9160, 91.95972
796.0590, 85.34888
797.2010, 102.3944
798.3430, 92.47620
799.4850, 83.72180
800.6270, 97.99121
801.7690, 83.10876
802.9100, 103.1204
804.0520, 61.21814
805.1930, 45.28955
806.3340, 86.28760
807.4750, 54.70007
808.6160, 67.78247
809.7560, 0.8630370
810.8970, 44.84338
812.0370, 45.81689
813.1770, 73.09705
814.3170, 2.190552
815.4570, 18.14124
816.5960, 8.210449
817.7360, 39.19653
818.8750, 23.26770
820.0140, 51.19214
821.1530, 47.17090
822.2920, 10.19983
823.4310, 8.591553
824.5690, 19.30078
825.7070, 19.69116
826.8460, 9.856567
827.9840, 30.97986
829.1220, 7.144409
830.2590, 34.33093
831.3970, 38.36914
832.5340, 49.61682
833.6710, 53.66174
834.8080, 53.17651
835.9450, 42.54089
837.0820, 13.64307
838.2190, 14.12817
839.3550, 2.324463
840.4910, 17.20483
841.6270, 7.761230
842.7630, 4.575195
843.8990, 43.14368
845.0350, 15.69666
846.1700, 20.27637
847.3060, 52.88501
848.4410, 38.54041
849.5760, 8.765015
850.7100, 15.94482
851.8450, 55.31738
852.9800, 35.43164
854.1140, 22.78101
855.2480, 30.98010
856.3820, 10.16650
857.5160, 35.51208
858.6500, 24.49487
859.7830, 29.63879
860.9170, 42.76965
862.0500, 27.89941
863.1830, 6.023071
864.3160, 22.02820
865.4480, 15.23877
866.5810, 44.33679
867.7130, 2.568848
868.8460, 17.51807
869.9780, 0.6018070
871.1100, 40.68384
872.2410, 44.75354
873.3730, 68.80957
874.5050, 59.92920
875.6360, 8.959351
876.7670, 7.969971
877.8980, 20.96082
879.0290, 68.93457
880.1590, 79.89502
881.2900, 50.84192
882.4200, 0.2252200
883.5500, 21.68298
884.6800, 70.57361
885.8100, 11.45068
886.9400, 35.30750
888.0690, 24.14807
889.1990, 22.98584
890.3280, 0.2095950
891.4570, 46.56934
892.5860, 36.33655
893.7140, 25.91248
894.8430, 49.79907
895.9710, 18.49487
897.1000, 13.82886
898.2280, 12.81384
899.3560, 0.4610600
900.4830, 63.05652
901.6110, 62.63806
902.7380, 67.20410
903.8660, 31.75537
904.9930, 42.28821
906.1200, 26.80359
907.2460, 35.29980
908.3730, 63.77820
909.5000, 97.24121
910.6260, 43.68945
911.7520, 46.12000
912.8780, 22.53333
914.0040, 57.92615
915.1290, 46.30505
916.2550, 31.66663
917.3800, 77.00964
918.5050, 51.33826
919.6300, 45.64954
920.7550, 74.94299
921.8800, 119.2207
923.0040, 55.48486
924.1290, 126.7362
925.2530, 61.97681
926.3770, 30.20068
927.5010, 23.40833
928.6250, 11.59509
929.7480, 79.75977
930.8720, 46.90906
931.9950, 90.03992
933.1180, 81.15515
934.2410, 61.25476
935.3640, 58.33704
936.4860, 76.40186
937.6090, 102.4504
938.7310, 78.48364
939.8530, 81.50073
940.9750, 98.50195
942.0970, 44.48755
943.2180, 79.45422
944.3400, 79.40479
945.4610, 99.14990
946.5820, 100.1598
947.7030, 54.06433
948.8240, 75.95081
949.9450, 117.6283
951.0650, 77.47998
952.1860, 91.21045
953.3060, 76.03296
954.4260, 106.8389
955.5460, 89.62976
956.6650, 79.40491
957.7850, 57.03101
958.9040, 102.8173
960.0230, 38.49243
961.1420, 38.14355
962.2610, 85.64795
963.3800, 101.9482
964.4990, 111.6477
965.6170, 66.65759
966.7350, 96.37341
967.8530, 80.34509
968.9710, 88.02600
970.0890, 83.70154
971.2070, 35.01013
972.3240, 46.43530
973.4410, 108.8525
974.5580, 111.5775
975.6750, 73.90344
976.7920, 64.04346
977.9090, 77.06726
979.0250, 84.10608
980.1410, 93.83728
981.2580, 96.25134
982.3740, 106.7887
983.4890, 78.80078
984.6050, 125.8042
985.7200, 128.3804
986.8360, 132.7626
987.9510, 86.06445
989.0660, 85.23755
990.1810, 80.47461
991.2950, 89.37000
992.4100, 99.61414
993.5240, 114.7439
994.6390, 100.9083
995.7530, 118.0861
996.8660, 154.6371
997.9800, 134.5704
999.0940, 134.1740
1000.207, 142.7351
1001.320, 129.9182
1002.433, 83.67383
1003.546, 121.4878
1004.659, 150.7493
1005.772, 86.85522
1006.884, 108.9714
1007.996, 47.13855
1009.108, 121.2904
1010.220, 115.7552
1011.332, 83.16333
1012.444, 120.8678
1013.555, 100.9795
1014.666, 105.0804
1015.777, 112.1129
1016.888, 96.99377
1017.999, 139.6078
1019.110, 154.6702
1020.220, 120.0084
1021.331, 107.7742
1022.441, 57.38293
1023.551, 129.9218
1024.661, 112.6476
1025.770, 144.3469
1026.880, 97.17175
1027.989, 86.22168
1029.098, 149.0583
1030.207, 132.3953
1031.316, 99.17847
1032.425, 47.40466
1033.533, 154.0619
1034.642, 75.10083
1035.750, 93.97949
1036.858, 125.8363
1037.966, 119.3179
1039.073, 60.90552
1040.181, 112.2560
1041.288, 74.82239
1042.396, 99.63354
1043.503, 63.48865
1044.610, 91.02454
1045.716, 105.5928
1046.823, 124.7808
1047.929, 156.0027
1049.036, 103.5609
1050.142, 73.04810
1051.248, 109.9720
1052.353, 135.5112
1053.459, 121.9664
1054.564, 93.68018
1055.670, 64.74890
1056.775, 63.78979
1057.880, 65.06604
1058.985, 56.62451
1060.089, 65.35901
1061.194, 61.23743
1062.298, 75.83093
1063.402, 77.55835
1064.506, 77.91211
1065.610, 80.47412
1066.713, 83.52026
1067.817, 87.70520
1068.920, 79.13672
1070.023, 107.7095
1071.126, 83.37744
1072.229, 96.94824
1073.332, 63.53467
1074.435, 86.18311
1075.537, 107.4064
1076.639, 89.94849
1077.741, 98.48120
1078.843, 19.10132
1079.945, 87.96362
1081.046, 42.26074
1082.148, 88.73303
1083.249, 80.33899
1084.350, 107.8214
1085.451, 158.3748
1086.551, 111.8312
1087.652, 73.46826
1088.752, 122.9932
1089.853, 96.45581
1090.953, 102.7260
1092.053, 94.29529
1093.152, 98.35388
1094.252, 89.89258
1095.351, 93.88342
1096.451, 84.44678
1097.550, 90.01953
1098.649, 111.4189
1099.748, 59.00220
1100.846, 52.56445
1101.945, 62.16443
1103.043, 77.77319
1104.141, 5.908325
1105.239, 10.51404
1106.337, 59.14465
1107.434, 43.77515
1108.532, 112.3633
1109.629, 72.90845
1110.726, 46.50769
1111.823, 42.14221
1112.920, 80.78076
1114.017, 41.42480
1115.113, 98.08276
1116.210, 52.75122
1117.306, 68.43372
1118.402, 94.10522
1119.498, 124.7733
1120.593, 89.45129
1121.689, 155.1270
1122.784, 119.7916
1123.879, 201.4833
1124.974, 88.16113
1126.069, 76.83655
1127.164, 79.50940
1128.259, 102.1796
1129.353, 25.84766
1130.447, 24.51550
1131.541, 38.18188
1132.635, 83.84729
1133.729, 29.41028
1134.822, 72.24036
1135.916, 35.10999
1137.009, 69.52637
1138.102, 27.15833
1139.195, 25.78784
1140.288, 78.33862
1141.380, 53.96326
1142.473, 107.5887
1143.565, 142.2150
1144.657, 46.84094
1145.749, 124.4647
1146.841, 90.08618
1147.932, 88.70557
1149.024, 88.32874
1150.115, 22.95166
1151.206, 51.57263
1152.297, 45.19482
1153.388, 15.81641
1154.479, 53.42273
1155.569, 92.04431
1156.659, 16.32703
1157.750, 1.707275
1158.839, 52.91089
1159.929, 17.54004
1161.019, 25.16809
1162.108, 13.79736
1163.198, 6.434448
1164.287, 10.04724
1165.376, 3.310059
1166.465, 10.32971
1167.553, 44.96814
1168.642, 16.60547
1169.730, 27.27649
1170.818, 27.91443
1171.906, 6.4575002E-02
1172.994, 8.703491
1174.082, 37.34119
1175.170, 53.97766
1176.257, 16.61462
1177.344, 30.25159
1178.431, 11.10583
1179.518, 9.527588
1180.605, 2.838867
1181.691, 2.205933
1182.778, 43.42493
1183.864, 41.05603
1184.950, 28.68762
1186.036, 5.681030
1187.122, 19.05322
1188.207, 17.93933
1189.292, 29.17542
1190.378, 16.21472
1191.463, 12.38928
1192.548, 7.004272
1193.632, 2.602661
1194.717, 36.20911
1195.801, 18.81848
1196.886, 42.53052
1197.970, 21.03662
1199.054, 48.64624
1200.137, 61.25671
1201.221, 27.86755
1202.305, 46.47803
1203.388, 50.08875
1204.471, 44.69971
1205.554, 42.31042
1206.637, 19.92297
1207.719, 22.53564
1208.802, 39.14880
1209.884, 4.328979
1210.966, 48.28186
1212.048, 30.89417
1213.130, 30.35291
1214.212, 84.58289
1215.293, 59.19690
1216.374, 47.81116
1217.456, 6.426147
1218.536, 88.04102
1219.617, 71.65601
1220.698, 135.2719
1221.778, 114.8892
1222.859, 76.50647
1223.939, 86.12622
1225.019, 73.74854
1226.099, 105.3710
1227.178, 66.21155
1228.258, 66.83435
1229.337, 75.51514
1230.417, 12.13904
1231.496, 35.76306
1232.574, 43.38696
1233.653, 77.01099
1234.732, 45.29688
1235.810, 43.83191
1236.888, 72.45764
1237.966, 66.08484
1239.044, 86.71216
1240.122, 81.33972
1241.199, 95.96716
1242.277, 132.5946
1243.354, 75.22168
1244.431, 66.84888
1245.508, 71.47559
1246.585, 12.10535
1247.661, 28.73145
1248.738, 26.35730
1249.814, 81.98413
1250.890, 20.62866
1251.966, 30.63977
1253.042, 39.06104
1254.117, 25.16711
1255.193, 59.17432
1256.268, 26.79944
1257.343, 57.43982
1258.418, 39.06421
1259.493, 44.68140
1260.567, 82.29346
1261.642, 56.91687
1262.716, 2.540161
1263.790, 65.46008
1264.864, 74.08191
1265.938, 12.64490
1267.011, 64.26660
1268.085, 63.88818
1269.158, 50.50964
1270.231, 87.14343
1271.304, 76.76526
1272.377, 56.38696
1273.450, 49.00879
1274.522, 124.6304
1275.594, 115.2522
1276.666, 72.87402
1277.738, 71.49597
1278.810, 30.14819
1279.882, 78.76648
1280.953, 30.38855
1282.025, 61.01074
1283.096, 47.60156
1284.167, 82.22375
1285.238, 59.48303
1286.308, 50.24060
1287.379, 34.72668
1288.449, 34.34912
1289.519, 23.71704
1290.589, 13.57446
1291.659, 18.16333
1292.729, 12.72217
1293.798, 27.29675
1294.868, 28.73193
1295.937, 77.30908
1297.006, 102.9319
1298.075, 3.536621
1299.143, 79.15930
1300.212, 8.180298
1301.280, 54.34448
1302.348, 27.91260
1303.416, 90.53125
1304.484, 77.17444
1305.552, 45.77783
1306.620, 10.39709
1307.687, 72.44006
1308.754, 92.01636
1309.821, 43.45618
1310.888, 54.92004
1311.955, 30.54077
1313.021, 71.16248
1314.088, 49.78467
1315.154, 57.10840
1316.220, 49.67993
1317.286, 28.32239
1318.352, 73.94910
1319.417, 85.73950
1320.483, 77.34314
1321.548, 115.6257
1322.613, 17.19495
1323.678, 76.25586
1324.743, 57.88477
1325.807, 24.51416
1326.872, 38.14404
1327.936, 37.77466
1329.000, 59.40576
1330.064, 32.03748
1331.128, 82.66980
1332.191, 53.29102
1333.255, 86.92078
1334.318, 40.54309
1335.381, 59.16602
1336.444, 40.78931
1337.507, 41.41321
1338.569, 11.78503
1339.632, 34.40381
1340.694, 15.84216
1341.756, 28.22607
1342.818, 74.38354
1343.880, 24.99377
1344.941, 33.65381
1346.003, 11.21887
1347.064, 59.83069
1348.125, 10.44287
1349.186, 40.05579
1350.247, 38.66907
1351.308, 35.27502
1352.368, 23.89941
1353.428, 9.502441
1354.489, 21.89417
1355.549, 23.70447
1356.608, 0.3200680
1357.668, 28.91931
1358.727, 19.49731
1359.787, 38.09741
1360.846, 40.69788
1361.905, 55.29895
1362.964, 29.90210
1364.022, 39.50586
1365.081, 27.48352
1366.139, 17.08838
1367.197, 29.68933
1368.255, 40.29077
1369.313, 36.90479
1370.371, 35.98730
1371.428, 33.09827
1372.486, 24.70178
1373.543, 7.305664
1374.600, 11.89441
1375.657, 40.49915
1376.713, 54.42383
1377.770, 4.029785
1378.826, 24.36389
1379.882, 4.237183
1380.938, 12.16138
1381.994, 41.43799
1383.050, 45.03784
1384.106, 4.637939
1385.161, 79.23840
1386.216, 69.83533
1387.271, 31.43274
1388.326, 48.03076
1389.381, 12.62927
1390.435, 53.14856
1391.490, 54.75549
1392.544, 58.36328
1393.598, 37.97852
1394.652, 37.59521
1395.705, 28.21277
1396.759, 5.830444
1397.812, 56.44922
1398.866, 37.06860
1399.919, 28.68921
1400.972, 18.31042
1402.024, 77.93298
1403.077, 31.55652
1404.129, 21.22607
1405.181, 1.851929
1406.233, 72.47913
1407.285, 55.10229
1408.337, 72.72693
1409.389, 105.3529
1410.440, 37.98047
1411.491, 12.39050
1412.542, 40.23193
1413.593, 59.85974
1414.644, 79.48950
1415.695, 87.12097
1416.745, 15.75378
1417.795, 60.38855
1418.845, 21.02527
1419.895, 74.66394
1420.945, 35.30493
1421.995, 32.94873
1423.044, 59.59521
1424.093, 13.24402
1425.142, 50.86182
1426.191, 1.514526
1427.240, 46.65845
1428.289, 11.31689
1429.337, 22.97864
1430.385, 4.644043
1431.433, 11.31323
1432.481, 43.98657
1433.529, 36.66101
1434.577, 65.34631
1435.624, 62.03711
1436.672, 30.73438
1437.719, 57.43896
1438.766, 64.26379
1439.812, 48.98315
1440.859, 52.15137
1441.905, 18.89075
1442.952, 17.64563
1443.998, 78.45374
1445.044, 4.457275
1446.090, 78.06396
1447.135, 8.271240
1448.181, 11.99890
1449.226, 8.275513
1450.271, 43.45129
1451.316, 17.17944
1452.361, 72.90918
1453.405, 60.64050
1454.450, 21.37341
1455.494, 37.10803
1456.538, 47.84692
1457.582, 44.89978
1458.626, 10.61658
1459.670, 18.33496
1460.713, 44.05518
1461.757, 32.77710
1462.800, 81.50085
1463.843, 70.82068
1464.886, 42.46838
1465.928, 2.816284
1466.971, 38.90125
1468.013, 36.62085
1469.055, 57.34045
1470.097, 1.060059
1471.139, 35.78186
1472.181, 16.50562
1473.222, 65.22766
1474.263, 24.95630
1475.305, 71.66003
1476.346, 46.55823
1477.386, 6.424072
1478.427, 81.10706
1479.468, 55.81287
1480.508, 28.52075
1481.548, 8.231323
1482.588, 36.94458
1483.628, 13.65967
1484.668, 51.35950
1485.707, 29.07825
1486.747, 68.79907
1487.786, 51.52148
1488.825, 91.20007
1489.864, 9.074585
1490.902, 24.65283
1491.941, 52.38757
1492.979, 42.10608
1494.017, 91.82617
1495.055, 67.54797
1496.093, 68.27161
1497.131, 56.99695
1498.168, 89.72400
1499.206, 74.38831
1500.243, 42.12549
1501.280, 8.179199
1502.317, 38.55981
1503.354, 99.30005
1504.390, 53.04077
1505.426, 80.78040
1506.463, 88.51514
1507.499, 79.24463
1508.535, 120.8970
1509.570, 31.57983
1510.606, 51.41125
1511.641, 113.1227
1512.676, 50.83264
1513.711, 70.54065
1514.746, 68.27197
1515.781, 17.01062
1516.816, 46.76709
1517.850, 97.53809
1518.884, 22.00732
1519.918, 60.79077
1520.952, 47.45386
1521.986, 78.23730
1523.019, 24.02209
1524.053, 56.82910
1525.086, 84.62207
1526.119, 33.47778
1527.152, 41.29163
1528.185, 9.156982
1529.217, 72.02783
1530.250, 63.90527
1531.282, 37.63037
1532.314, 21.51782
1533.346, 51.41235
1534.377, 27.31445
1535.409, 27.22534
1536.440, 81.00684
1537.472, 61.90149
1538.503, 53.80334
1539.534, 23.71326
1540.564, 40.63623
1541.595, 55.60437
1542.625, 53.58838
1543.656, 51.58838
1544.686, 60.60388
1545.716, 35.21716
1546.745, 60.71777
1547.775, 38.80664
1548.804, 70.91602
1549.834, 74.14917
1550.863, 119.9227
1551.892, 118.1473
1552.920, 209.4020
1553.949, 285.7271
1554.977, 192.1365
1556.006, 178.6046
1557.034, 98.13611
1558.062, 49.73889
1559.089, 49.42273
1560.117, 112.2004
1561.144, 59.12012
1562.172, 14.17725
1563.199, 64.39124
1564.226, 2.215576
1565.252, 56.39648
1566.279, 81.27734
1567.305, 39.60303
1568.332, 0.5849610
1569.358, 91.99292
1570.384, 0.0000000E+00
##END=



