##NAMES=Baddeleyite
##RRUFFID=R060078
##IDEAL CHEMISTRY=Zr^4+^O_2_
##LOCALITY=Wetloo mine, Mogok, Burma
##OWNER=RRUFF
##SOURCE=Marcus Origlieri
##DESCRIPTION=Dark brown fragment
##STATUS=The identification of this mineral has been confirmed by X-ray diffraction and chemical analysis
##URL=rruff.info/R060078
##MEASURED CHEMISTRY=(Zr_0.99_Hf_0.01_)_Î£=1_O_2_
##PIN_ID=L01986
##ORIENTATION=Laser parallel to a* (1 0 0). Fiducial mark perpendicular to laser is parallel to -b [0 -1 0]
51.43100, 0.0000000E+00
52.67100, 56.61188
53.91000, 60.68024
55.14900, 20.19867
56.38700, 24.61145
57.62600, 13.63098
58.86400, 13.64874
60.10300, 10.53381
61.34100, 11.11633
62.57900, 1.716919
63.81700, 1.800842
65.05400, 17.99902
66.29200, 46.20227
67.52900, 99.24377
68.76700, 178.2569
70.00400, 259.8849
71.24100, 376.3810
72.47700, 516.3066
73.71400, 646.8553
74.95100, 810.9141
76.18700, 944.4481
77.42300, 873.4391
78.65900, 823.8612
79.89500, 756.6965
81.13100, 762.9214
82.36700, 872.5054
83.60200, 1010.422
84.83700, 912.6470
86.07200, 806.1603
87.30800, 835.9438
88.54200, 997.9802
89.77700, 1141.249
91.01200, 1412.728
92.24600, 1598.397
93.48000, 1777.244
94.71400, 2005.257
95.94800, 2168.552
97.18200, 2549.744
98.41600, 2489.204
99.64900, 2616.877
100.8830, 2700.747
102.1160, 3037.888
103.3490, 3345.210
104.5820, 3917.657
105.8150, 4632.237
107.0470, 4868.093
108.2800, 4881.114
109.5120, 4260.226
110.7440, 2975.428
111.9760, 2025.716
113.2080, 1719.089
114.4400, 1764.545
115.6710, 1879.081
116.9030, 1652.696
118.1340, 1647.387
119.3650, 1476.154
120.5960, 1294.994
121.8270, 1145.906
123.0580, 1090.889
124.2880, 942.9412
125.5190, 884.5541
126.7490, 791.1470
127.9790, 785.2375
129.2090, 809.3190
130.4390, 819.3926
131.6680, 802.4771
132.8980, 816.5814
134.1270, 674.7109
135.3560, 745.8690
136.5850, 760.0586
137.8140, 851.2822
139.0430, 868.5424
140.2710, 875.8408
141.5000, 795.1785
142.7280, 797.5571
143.9560, 791.9773
145.1840, 781.4399
146.4120, 838.1593
147.6390, 819.6136
148.8670, 793.1912
150.0940, 833.8199
151.3210, 925.7202
152.5490, 1043.924
153.7750, 939.0262
155.0020, 994.5681
156.2290, 935.3718
157.4550, 954.2832
158.6810, 1055.458
159.9080, 1080.309
161.1340, 1190.982
162.3590, 1428.327
163.5850, 1699.874
164.8110, 2003.242
166.0360, 2523.687
167.2610, 3101.191
168.4860, 3954.731
169.7110, 5210.304
170.9360, 6209.912
172.1610, 6543.552
173.3850, 6718.225
174.6100, 7482.933
175.8340, 8679.671
177.0580, 10436.44
178.2820, 12873.25
179.5050, 16269.08
180.7290, 19158.94
181.9520, 20624.85
183.1760, 19755.77
184.3990, 16940.74
185.6220, 13461.72
186.8450, 12273.75
188.0670, 12654.80
189.2900, 14041.88
190.5120, 16722.99
191.7340, 20723.14
192.9560, 25244.31
194.1780, 26873.52
195.4000, 24188.76
196.6220, 17826.02
197.8430, 10728.32
199.0640, 6281.961
200.2860, 3984.457
201.5070, 2951.800
202.7270, 2454.033
203.9480, 1890.016
205.1690, 1347.214
206.3890, 998.8036
207.6090, 775.8375
208.8290, 658.2441
210.0490, 604.1506
211.2690, 559.1499
212.4890, 585.2366
213.7080, 567.4056
214.9280, 550.6531
216.1470, 483.9750
217.3660, 436.3672
218.5850, 463.8274
219.8030, 446.3518
221.0220, 503.9385
222.2400, 525.5845
223.4590, 531.2880
224.6770, 499.0465
225.8950, 443.8584
227.1120, 352.7216
228.3300, 255.6343
229.5480, 194.5947
230.7650, 149.0176
231.9820, 90.65332
233.1990, 111.7487
234.4160, 71.88623
235.6330, 91.06519
236.8490, 79.28455
238.0660, 89.54309
239.2820, 52.84009
240.4980, 31.82507
241.7140, 23.54285
242.9300, 59.05298
244.1460, 0.6218260
245.3610, 33.84399
246.5770, 45.65552
247.7920, 8.871338
249.0070, 57.56934
250.2220, 15.98779
251.4370, 34.37720
252.6510, 30.74097
253.8660, 10.07983
255.0800, 7.755127
256.2940, 38.84595
257.5080, 6.367676
258.7220, 197.0779
259.9360, 109.4495
261.1490, 126.6265
262.3630, 59.57056
263.5760, 31.37207
264.7890, 3.558838
266.0020, 10.56885
267.2150, 22.45044
268.4270, 32.12744
269.6400, 23.90088
270.8520, 47.43579
272.0640, 32.46802
273.2760, 10.29102
274.4880, 3.9062999E-02
275.7000, 33.39355
276.9120, 8.693115
278.1230, 69.80640
279.3340, 17.20898
280.5450, 48.36914
281.7560, 89.74023
282.9670, 110.9463
284.1780, 98.17554
285.3880, 86.42749
286.5980, 154.7024
287.8090, 228.0000
289.0190, 188.3203
290.2290, 290.6633
291.4380, 297.0286
292.6480, 382.4102
293.8570, 425.8005
295.0670, 539.2129
296.2760, 759.6379
297.4850, 863.0693
298.6930, 1015.510
299.9020, 1155.970
301.1110, 1344.447
302.3190, 1546.946
303.5270, 1768.467
304.7350, 1872.006
305.9430, 2223.564
307.1510, 2425.128
308.3580, 2602.694
309.5660, 2717.281
310.7730, 2626.894
311.9800, 2349.530
313.1870, 1965.194
314.3940, 1714.877
315.6010, 1416.580
316.8070, 1222.450
318.0130, 1051.044
319.2200, 957.8047
320.4260, 965.5842
321.6310, 966.3828
322.8370, 1047.201
324.0430, 1184.038
325.2480, 1291.893
326.4540, 1432.448
327.6590, 1573.344
328.8640, 1733.573
330.0680, 1901.504
331.2730, 2060.453
332.4780, 2296.422
333.6820, 2617.408
334.8860, 2877.414
336.0900, 3082.438
337.2940, 3342.480
338.4980, 3611.540
339.7010, 4062.620
340.9050, 4403.718
342.1080, 4799.833
343.3110, 5315.967
344.5140, 5961.128
345.7170, 6723.316
346.9200, 7733.530
348.1220, 8595.775
349.3240, 9515.048
350.5270, 9384.353
351.7290, 8595.680
352.9310, 7167.040
354.1320, 5416.425
355.3340, 4091.839
356.5350, 2949.278
357.7370, 2130.742
358.9380, 1690.230
360.1390, 1275.749
361.3400, 1069.292
362.5400, 808.8594
363.7410, 698.4502
364.9410, 578.0649
366.1410, 546.7034
367.3410, 464.3655
368.5410, 449.0508
369.7410, 396.7588
370.9400, 389.4897
372.1400, 428.2432
373.3390, 487.0190
374.5380, 527.8171
375.7370, 606.6372
376.9360, 679.4795
378.1350, 742.2681
379.3330, 817.2300
380.5310, 891.1377
381.7300, 912.0671
382.9280, 996.0181
384.1260, 1089.991
385.3230, 1047.197
386.5210, 1011.212
387.7180, 1012.330
388.9160, 820.3635
390.1130, 699.4424
391.3100, 434.1660
392.5060, 324.2871
393.7030, 227.5117
394.9000, 189.3457
396.0960, 111.5881
397.2920, 93.94580
398.4880, 8.984375
399.6840, 23.08447
400.8800, 33.83691
402.0750, 32.70386
403.2710, 77.45093
404.4660, 1.221680
405.6610, 34.98218
406.8560, 17.74707
408.0510, 22.50903
409.2450, 39.39111
410.4400, 41.53540
411.6340, 82.21704
412.8280, 25.47070
414.0220, 10.60620
415.2160, 21.44873
416.4100, 17.80640
417.6030, 15.58203
418.7970, 10.54956
419.9900, 46.31055
421.1830, 46.91992
422.3760, 65.82666
423.5690, 37.41064
424.7610, 16.66968
425.9540, 75.94775
427.1460, 71.24756
428.3380, 89.56860
429.5300, 163.9119
430.7220, 188.2769
431.9140, 168.6631
433.1050, 194.0713
434.2970, 238.7373
435.4880, 320.9531
436.6790, 384.4265
437.8700, 455.9224
439.0610, 607.4399
440.2510, 676.9795
441.4420, 685.5415
442.6320, 853.1260
443.8220, 898.6147
445.0120, 1060.244
446.2020, 1174.895
447.3910, 1304.568
448.5810, 1628.634
449.7700, 1816.652
450.9600, 2091.792
452.1490, 2428.017
453.3370, 2857.138
454.5260, 3219.505
455.7150, 3917.375
456.9030, 4635.228
458.0910, 5439.102
459.2800, 6569.000
460.4670, 7859.919
461.6550, 9657.860
462.8430, 12008.82
464.0300, 14926.81
465.2180, 18559.82
466.4050, 22557.85
467.5920, 27204.90
468.7790, 31807.97
469.9650, 36114.08
471.1520, 41187.19
472.3380, 46446.34
473.5250, 51809.51
474.7110, 57508.69
475.8970, 61233.90
477.0820, 62815.13
478.2680, 60989.39
479.4540, 54441.67
480.6390, 44843.96
481.8240, 35033.29
483.0090, 26640.63
484.1940, 20411.00
485.3780, 15712.39
486.5630, 12361.80
487.7470, 10122.23
488.9320, 8432.688
490.1160, 7210.168
491.3000, 6326.672
492.4830, 5433.195
493.6670, 4876.741
494.8500, 4387.309
496.0340, 4023.900
497.2170, 3658.580
498.4000, 3407.215
499.5820, 3129.871
500.7650, 3107.550
501.9480, 2881.339
503.1300, 2696.094
504.3120, 2513.838
505.4940, 2256.605
506.6760, 2034.418
507.8580, 1815.239
509.0390, 1636.499
510.2210, 1464.003
511.4020, 1317.883
512.5830, 1192.779
513.7640, 1041.698
514.9450, 1024.637
516.1250, 906.5984
517.3060, 892.5813
518.4860, 815.5854
519.6660, 848.6113
520.8460, 777.2673
522.0260, 656.7271
523.2060, 682.8171
524.3850, 638.9287
525.5650, 608.0613
526.7440, 619.2153
527.9230, 672.3945
529.1020, 677.5952
530.2810, 764.8262
531.4590, 677.0781
532.6380, 805.3516
533.8160, 921.6572
534.9940, 917.9893
536.1720, 1096.353
537.3500, 1144.739
538.5270, 1294.152
539.7050, 1210.590
540.8820, 1438.413
542.0590, 1554.710
543.2360, 1658.487
544.4130, 1835.355
545.5900, 2054.805
546.7660, 2429.304
547.9430, 2890.097
549.1190, 3478.802
550.2950, 4023.287
551.4710, 4527.899
552.6470, 5240.431
553.8220, 5788.813
554.9980, 6485.335
556.1730, 7256.669
557.3480, 7685.547
558.5230, 8084.698
559.6980, 8097.983
560.8730, 7429.560
562.0470, 6557.316
563.2220, 5527.316
564.3960, 4296.075
565.5700, 3434.125
566.7440, 2645.012
567.9170, 2011.112
569.0910, 1539.237
570.2640, 1249.387
571.4380, 1049.560
572.6110, 784.7690
573.7840, 651.0010
574.9570, 498.2693
576.1290, 432.5754
577.3020, 289.9065
578.4740, 227.2625
579.6460, 229.6572
580.8180, 124.0750
581.9900, 124.5278
583.1620, 107.0139
584.3330, 27.47729
585.5040, 90.04761
586.6760, 9.596924
587.8470, 40.17700
589.0180, 38.21924
590.1880, 12.60547
591.3590, 38.96973
592.5290, 17.32593
593.7000, 37.66479
594.8700, 19.99268
596.0400, 52.30151
597.2090, 74.39233
598.3790, 19.10889
599.5490, 123.8462
600.7180, 170.6055
601.8870, 278.3857
603.0560, 280.1887
604.2250, 373.0132
605.3940, 506.8608
606.5620, 651.7366
607.7300, 757.6384
608.8990, 950.5615
610.0670, 1113.508
611.2350, 1189.476
612.4020, 1427.464
613.5700, 1598.472
614.7370, 1767.500
615.9050, 1875.549
617.0720, 1837.619
618.2390, 1734.708
619.4060, 1700.820
620.5720, 1476.953
621.7390, 1169.107
622.9050, 965.2832
624.0710, 843.4802
625.2370, 557.6987
626.4030, 459.9373
627.5690, 266.1943
628.7340, 232.4707
629.9000, 202.7659
631.0650, 103.0830
632.2300, 116.4209
633.3950, 20.77832
634.5600, 34.15405
635.7240, 17.55054
636.8890, 4.034668
638.0530, 56.40039
639.2170, 46.85376
640.3810, 12.32593
641.5450, 34.18433
642.7080, 1.687256
643.8720, 17.82788
645.0350, 4.360596
646.1980, 1.089600
647.3610, 0.4770510
648.5240, 4.856934
649.6870, 32.65967
650.8490, 1.278076
652.0120, 15.91406
653.1740, 33.56909
654.3360, 19.24170
655.4980, 5.932617
656.6600, 35.63989
657.8210, 61.36401
658.9830, 24.10474
660.1440, 60.86230
661.3050, 14.63574
662.4660, 38.42725
663.6270, 80.23389
664.7870, 83.05640
665.9480, 68.89429
667.1080, 42.74756
668.2680, 54.61670
669.4280, 31.50171
670.5880, 35.40161
671.7480, 35.31616
672.9070, 82.18140
674.0670, 44.32959
675.2260, 158.5291
676.3850, 135.5022
677.5440, 122.4897
678.7030, 147.5994
679.8610, 122.6860
681.0200, 169.7029
682.1780, 162.7488
683.3360, 162.1128
684.4940, 215.6184
685.6520, 196.7505
686.8090, 179.1711
687.9670, 222.3455
689.1240, 206.4844
690.2810, 238.8242
691.4380, 226.5276
692.5950, 212.4529
693.7520, 230.9360
694.9080, 235.7812
696.0650, 209.1926
697.2210, 228.7024
698.3770, 244.0854
699.5330, 253.1628
700.6880, 299.7732
701.8440, 238.0120
702.9990, 249.7913
704.1550, 296.5107
705.3100, 360.6738
706.4650, 368.4507
707.6190, 332.4128
708.7740, 327.3562
709.9290, 332.5444
711.0830, 324.5220
712.2370, 340.0662
713.3910, 367.9031
714.5450, 354.0056
715.6980, 377.0122
716.8520, 341.0984
718.0050, 333.5588
719.1580, 286.2056
720.3110, 405.8862
721.4640, 267.9587
722.6170, 327.7100
723.7700, 258.0955
724.9220, 287.2703
726.0740, 310.8638
727.2260, 238.9612
728.3780, 281.4080
729.5300, 246.5818
730.6810, 319.8491
731.8330, 324.1201
732.9840, 256.9705
734.1350, 308.8242
735.2860, 245.4429
736.4370, 245.5007
737.5880, 306.1685
738.7380, 294.9531
739.8880, 303.1777
741.0390, 291.7605
742.1890, 308.6924
743.3380, 295.9436
744.4880, 330.2849
745.6380, 370.2817
746.7870, 291.1941
747.9360, 433.5210
749.0850, 379.5134
750.2340, 461.2146
751.3830, 427.8167
752.5310, 423.6782
753.6800, 388.7329
754.8280, 350.6401
755.9760, 443.4194
757.1240, 333.5706
758.2720, 415.7373
759.4190, 272.8855
760.5670, 389.2791
761.7140, 383.3909
762.8610, 306.7458
764.0080, 265.5815
765.1550, 280.2971
766.3020, 226.1106
767.4480, 244.8262
768.5950, 224.4109
769.7410, 227.6465
770.8870, 198.5574
772.0330, 184.3098
773.1780, 178.3757
774.3240, 171.6389
775.4690, 163.8208
776.6140, 169.7429
777.7590, 168.6406
778.9040, 152.3462
780.0490, 155.1213
781.1940, 80.99414
782.3380, 152.7590
783.4820, 121.4570
784.6260, 127.1882
785.7700, 19.87036
786.9140, 106.6643
788.0580, 79.80786
789.2010, 126.8420
790.3450, 84.04321
791.4880, 59.06616
792.6310, 77.19067
793.7730, 17.96851
794.9160, 51.72852
796.0590, 48.53809
797.2010, 100.5071
798.3430, 88.17847
799.4850, 111.3569
800.6270, 61.01270
801.7690, 49.65820
802.9100, 22.41821
804.0520, 62.06787
805.1930, 47.93359
806.3340, 44.82251
807.4750, 86.44507
808.6160, 31.08496
809.7560, 8.302734
810.8970, 12.67285
812.0370, 5.028809
813.1770, 30.90796
814.3170, 59.49878
815.4570, 14.10742
816.5960, 17.66333
817.7360, 24.78809
818.8750, 28.74072
820.0140, 29.63672
821.1530, 2.856201
822.2920, 29.40845
823.4310, 7.883545
824.5690, 59.35693
825.7070, 58.21338
826.8460, 24.66504
827.9840, 3.174316
829.1220, 17.27539
830.2590, 16.17554
831.3970, 2.574951
832.5340, 27.39551
833.6710, 56.22729
834.8080, 52.31738
835.9450, 16.35791
837.0820, 17.94312
838.2190, 33.72095
839.3550, 10.53613
840.4910, 15.88452
841.6270, 1.118164
842.7630, 14.33594
843.8990, 6.542236
845.0350, 7.734619
846.1700, 32.93335
847.3060, 35.55005
848.4410, 65.58276
849.5760, 39.29468
850.7100, 43.21045
851.8450, 8.833740
852.9800, 6.863525
854.1140, 48.06616
855.2480, 38.90503
856.3820, 35.13452
857.5160, 25.21143
858.6500, 29.67993
859.7830, 4.559570
860.9170, 7.426514
862.0500, 16.72217
863.1830, 11.10132
864.3160, 26.90942
865.4480, 1.711426
866.5810, 50.49683
867.7130, 39.27759
868.8460, 10.04907
869.9780, 3.811035
871.1100, 67.55762
872.2410, 17.30273
873.3730, 85.03296
874.5050, 37.75195
875.6360, 44.45898
876.7670, 19.15381
877.8980, 27.83374
879.0290, 11.50000
880.1590, 9.850098
881.2900, 4.226074
882.4200, 32.37451
883.5500, 9.961426
884.6800, 27.53125
885.8100, 78.08691
886.9400, 50.63037
888.0690, 63.86279
889.1990, 25.68164
890.3280, 37.18628
891.4570, 49.68018
892.5860, 21.16162
893.7140, 20.62744
894.8430, 22.07715
895.9710, 10.38989
897.1000, 24.92725
898.2280, 12.32788
899.3560, 47.71265
900.4830, 69.08447
901.6110, 51.44385
902.7380, 104.7903
903.8660, 5.124268
904.9930, 19.43848
906.1200, 42.73560
907.2460, 61.03442
908.3730, 13.32007
909.5000, 61.58789
910.6260, 9.844238
911.7520, 43.08228
912.8780, 45.30591
914.0040, 69.51538
915.1290, 54.71313
916.2550, 41.90259
917.3800, 62.07764
918.5050, 73.23975
919.6300, 63.38940
920.7550, 77.52637
921.8800, 49.65063
923.0040, 26.76123
924.1290, 34.85596
925.2530, 23.32251
926.3770, 36.14722
927.5010, 28.05225
928.6250, 61.09204
929.7480, 63.11865
930.8720, 57.14038
931.9950, 40.14844
933.1180, 75.14136
934.2410, 24.12207
935.3640, 78.08545
936.4860, 92.03613
937.6090, 61.97412
938.7310, 77.89868
939.8530, 48.81006
940.9750, 45.70703
942.0970, 94.59229
943.2180, 77.47095
944.3400, 87.34473
945.4610, 75.27368
946.5820, 61.92603
947.7030, 40.52808
948.8240, 77.35620
949.9450, 72.17212
951.0650, 99.86621
952.1860, 91.87183
953.3060, 81.37671
954.4260, 63.14258
955.5460, 89.60229
956.6650, 64.93384
957.7850, 109.6611
958.9040, 79.10547
960.0230, 29.80884
961.1420, 83.49683
962.2610, 66.11035
963.3800, 59.31592
964.4990, 70.31274
965.6170, 83.77417
966.7350, 24.88403
967.8530, 87.42725
968.9710, 42.88086
970.0890, 94.46680
971.2070, 90.36548
972.3240, 64.73633
973.4410, 82.49170
974.5580, 51.70459
975.6750, 86.99438
976.7920, 75.83887
977.9090, 84.08203
979.0250, 77.12500
980.1410, 67.18457
981.2580, 22.58032
982.3740, 81.01660
983.4890, 102.4670
984.6050, 74.62207
985.7200, 135.5090
986.8360, 107.4890
987.9510, 49.38672
989.0660, 77.90674
990.1810, 94.23730
991.2950, 148.5310
992.4100, 60.42944
993.5240, 107.6455
994.6390, 123.3418
995.7530, 105.1270
996.8660, 129.4900
997.9800, 75.34521
999.0940, 107.4780
1000.207, 110.9492
1001.320, 107.2229
1002.433, 118.4275
1003.546, 134.1738
1004.659, 105.6902
1005.772, 132.9546
1006.884, 79.81641
1007.996, 115.0637
1009.108, 86.19019
1010.220, 110.3557
1011.332, 104.9094
1012.444, 120.1553
1013.555, 99.90405
1014.666, 98.44946
1015.777, 102.3342
1016.888, 87.29834
1017.999, 95.84277
1019.110, 100.7158
1020.220, 73.87476
1021.331, 133.9717
1022.441, 100.1150
1023.551, 105.9036
1024.661, 121.4895
1025.770, 74.63770
1026.880, 80.31201
1027.989, 49.96460
1029.098, 87.62915
1030.207, 47.13135
1031.316, 127.8457
1032.425, 131.7163
1033.533, 124.6670
1034.642, 89.73169
1035.750, 103.6643
1036.858, 72.74268
1037.966, 108.9172
1039.073, 125.4343
1040.181, 134.8992
1041.288, 83.88428
1042.396, 98.24658
1043.503, 117.4907
1044.610, 83.74951
1045.716, 119.5352
1046.823, 109.3374
1047.929, 135.4993
1049.036, 116.3601
1050.142, 121.1433
1051.248, 112.0464
1052.353, 95.00854
1053.459, 114.9036
1054.564, 79.85376
1055.670, 123.6394
1056.775, 116.1226
1057.880, 95.70190
1058.985, 88.11987
1060.089, 91.19336
1061.194, 100.4910
1062.298, 97.37354
1063.402, 102.1873
1064.506, 101.0420
1065.610, 109.6570
1066.713, 75.61938
1067.817, 146.9790
1068.920, 82.85693
1070.023, 71.73535
1071.126, 105.4897
1072.229, 157.3450
1073.332, 129.9746
1074.435, 112.2964
1075.537, 140.4563
1076.639, 91.19458
1077.741, 53.93311
1078.843, 85.78052
1079.945, 90.54932
1081.046, 92.08374
1082.148, 91.89624
1083.249, 108.6799
1084.350, 124.5054
1085.451, 155.3269
1086.551, 156.1033
1087.652, 171.6299
1088.752, 158.6934
1089.853, 165.4475
1090.953, 155.2668
1092.053, 105.0757
1093.152, 81.49023
1094.252, 175.2981
1095.351, 87.03638
1096.451, 54.71997
1097.550, 167.4839
1098.649, 45.28662
1099.748, 68.65308
1100.846, 85.45093
1101.945, 130.0515
1103.043, 108.8594
1104.141, 90.67163
1105.239, 77.43506
1106.337, 57.25317
1107.434, 109.9653
1108.532, 93.77905
1109.629, 31.59229
1110.726, 86.40308
1111.823, 103.2129
1112.920, 88.00171
1114.017, 118.4968
1115.113, 46.31274
1116.210, 80.12500
1117.306, 136.9485
1118.402, 139.7842
1119.498, 82.62671
1120.593, 126.4053
1121.689, 73.25317
1122.784, 61.09863
1123.879, 69.95459
1124.974, 77.82056
1126.069, 115.6838
1127.164, 122.5479
1128.259, 104.4116
1129.353, 124.8113
1130.447, 70.15063
1131.541, 116.0186
1132.635, 93.89502
1133.729, 57.76196
1134.822, 48.62671
1135.916, 52.49146
1137.009, 75.35742
1138.102, 55.22095
1139.195, 82.08423
1140.288, 96.94507
1141.380, 34.80493
1142.473, 100.6628
1143.565, 73.52441
1144.657, 5.385010
1145.749, 74.24487
1146.841, 95.11035
1147.932, 62.98047
1149.024, 81.85010
1150.115, 65.16235
1151.206, 76.59033
1152.297, 38.45801
1153.388, 42.32422
1154.479, 31.18896
1155.569, 10.94702
1156.659, 5.910156
1157.750, 53.76538
1158.839, 34.62109
1159.929, 30.47705
1161.019, 7.333252
1162.108, 22.18994
1163.198, 6.953369
1164.287, 30.90063
1165.376, 39.75391
1166.465, 78.60522
1167.553, 33.45581
1168.642, 40.30518
1169.730, 78.15674
1170.818, 57.99048
1171.906, 55.83057
1172.994, 56.65088
1174.082, 3.525635
1175.170, 70.38208
1176.257, 82.20386
1177.344, 49.02661
1178.431, 1.150635
1179.518, 48.66919
1180.605, 14.49048
1181.691, 69.31128
1182.778, 30.13135
1183.864, 80.95068
1184.950, 62.76880
1186.036, 20.58643
1187.122, 85.40356
1188.207, 36.44775
1189.292, 24.26660
1190.378, 35.91333
1191.463, 13.88794
1192.548, 7.689941
1193.632, 31.50879
1194.717, 2.275146
1195.801, 19.05762
1196.886, 4.840820
1197.970, 63.62207
1199.054, 58.53760
1200.137, 28.32031
1201.221, 108.1025
1202.305, 38.88477
1203.388, 33.66626
1204.471, 10.55176
1205.554, 19.81689
1206.637, 29.46973
1207.719, 13.26025
1208.802, 15.51733
1209.884, 14.21606
1210.966, 76.94922
1212.048, 39.68311
1213.130, 100.4167
1214.212, 47.15186
1215.293, 60.88672
1216.374, 88.62134
1217.456, 82.35522
1218.536, 26.08936
1219.617, 94.82300
1220.698, 117.5566
1221.778, 64.28979
1222.859, 103.0229
1223.939, 108.7581
1225.019, 117.4924
1226.099, 75.22681
1227.178, 125.9614
1228.258, 56.69580
1229.337, 68.43042
1230.417, 75.17627
1231.496, 32.91211
1232.574, 49.64795
1233.653, 59.38428
1234.732, 82.12012
1235.810, 65.85571
1236.888, 63.59106
1237.966, 81.32666
1239.044, 75.06152
1240.122, 42.78955
1241.199, 47.52417
1242.277, 70.25830
1243.354, 11.99219
1244.431, 49.72705
1245.508, 81.46143
1246.585, 25.19580
1247.661, 68.92969
1248.738, 18.66309
1249.814, 40.39648
1250.890, 60.12939
1251.966, 47.86157
1253.042, 68.59351
1254.117, 51.65039
1255.193, 59.38135
1256.268, 52.11206
1257.343, 80.84180
1258.418, 64.57129
1259.493, 46.30029
1260.567, 98.02856
1261.642, 17.75659
1262.716, 89.48389
1263.790, 99.21094
1264.864, 62.93726
1265.938, 75.66577
1267.011, 36.39355
1268.085, 58.12085
1269.158, 62.84766
1270.231, 70.70850
1271.304, 63.21826
1272.377, 60.04150
1273.450, 43.76660
1274.522, 56.38257
1275.594, 63.10669
1276.666, 75.07153
1277.738, 82.79443
1278.810, 39.51685
1279.882, 36.23828
1280.953, 36.69751
1282.025, 32.50244
1283.096, 51.40039
1284.167, 45.12061
1285.238, 66.18457
1286.308, 55.80737
1287.379, 68.52588
1288.449, 72.86353
1289.519, 46.96265
1290.589, 74.59131
1291.659, 45.28223
1292.729, 29.56689
1293.798, 36.28394
1294.868, 96.00049
1295.937, 61.71680
1297.006, 102.4326
1298.075, 105.0361
1299.143, 82.86328
1300.212, 84.94727
1301.280, 88.66187
1302.348, 29.69141
1303.416, 1.130371
1304.484, 63.84399
1305.552, 111.9045
1306.620, 47.61792
1307.687, 23.16699
1308.754, 33.34595
1309.821, 58.00757
1310.888, 42.72119
1311.955, 60.43506
1313.021, 40.14917
1314.088, 41.87695
1315.154, 82.56665
1316.220, 1.718750
1317.286, 18.99438
1318.352, 24.69995
1319.417, 58.14136
1320.483, 64.80615
1321.548, 74.44360
1322.613, 60.15820
1323.678, 32.77393
1324.743, 50.45557
1325.807, 42.07837
1326.872, 20.21216
1327.936, 28.55054
1329.000, 47.25537
1330.064, 22.96045
1331.128, 104.6660
1332.191, 53.37207
1333.255, 61.35352
1334.318, 38.75317
1335.381, 62.58936
1336.444, 86.40234
1337.507, 34.07446
1338.569, 17.73804
1339.632, 27.44800
1340.694, 31.15820
1341.756, 60.26196
1342.818, 45.97388
1343.880, 56.68628
1344.941, 61.39966
1346.003, 91.11328
1347.064, 75.82812
1348.125, 120.5435
1349.186, 33.25977
1350.247, 12.97681
1351.308, 44.80322
1352.368, 42.52002
1353.428, 69.23755
1354.489, 44.95605
1355.549, 11.67505
1356.608, 43.39526
1357.668, 1.116211
1358.727, 97.83789
1359.787, 64.55957
1360.846, 43.28174
1361.905, 32.99951
1362.964, 33.71631
1364.022, 20.43433
1365.081, 45.15283
1366.139, 67.87231
1367.197, 1.592529
1368.255, 58.31396
1369.313, 28.03613
1370.371, 9.759277
1371.428, 3.446045
1372.486, 30.17090
1373.543, 65.89722
1374.600, 74.62451
1375.657, 48.35034
1376.713, 57.06934
1377.770, 9.794434
1378.826, 30.51660
1379.882, 48.23999
1380.938, 7.035645
1381.994, 13.68774
1383.050, 87.41260
1384.106, 57.13843
1385.161, 25.86475
1386.216, 78.59253
1387.271, 74.32178
1388.326, 67.05103
1389.381, 70.77490
1390.435, 60.50684
1391.490, 53.79297
1392.544, 54.56030
1393.598, 27.28564
1394.652, 46.01221
1395.705, 17.73584
1396.759, 2.540039
1397.812, 55.18506
1398.866, 18.08887
1399.919, 30.63281
1400.972, 28.36621
1402.024, 46.09058
1403.077, 5.184082
1404.129, 15.54150
1405.181, 32.26807
1406.233, 38.99634
1407.285, 76.72559
1408.337, 106.4932
1409.389, 101.2249
1410.440, 3.964355
1411.491, 40.69897
1412.542, 53.50635
1413.593, 9.247559
1414.644, 79.99072
1415.695, 52.73560
1416.745, 50.48218
1417.795, 29.23120
1418.845, 38.98169
1419.895, 63.80933
1420.945, 56.55420
1421.995, 77.30371
1423.044, 38.05249
1424.093, 108.8042
1425.142, 31.55786
1426.191, 51.31421
1427.240, 33.08862
1428.289, 7.135254
1429.337, 37.64209
1430.385, 27.33350
1431.433, 7.884033
1432.481, 4.899902
1433.529, 1.687500
1434.577, 10.47021
1435.624, 71.32104
1436.672, 43.20850
1437.719, 30.00952
1438.766, 102.8167
1439.812, 1.629639
1440.859, 45.45020
1441.905, 66.32129
1442.952, 31.10815
1443.998, 35.06689
1445.044, 42.89771
1446.090, 61.04492
1447.135, 48.28833
1448.181, 43.08594
1449.226, 52.89453
1450.271, 39.54419
1451.316, 50.34570
1452.361, 27.14819
1453.405, 1.043945
1454.450, 62.78442
1455.494, 54.63232
1456.538, 87.48779
1457.582, 88.34351
1458.626, 35.19946
1459.670, 46.05786
1460.713, 21.08179
1461.757, 51.78101
1462.800, 10.64502
1463.843, 17.51147
1464.886, 24.38013
1465.928, 74.23975
1466.971, 8.886963
1468.013, 34.98950
1469.055, 78.86816
1470.097, 20.74170
1471.139, 37.62598
1472.181, 65.51343
1473.222, 33.40381
1474.263, 99.29736
1475.305, 50.19385
1476.346, 1.906250
1477.386, 66.56763
1478.427, 53.46948
1479.468, 63.37476
1480.508, 32.28320
1481.548, 36.19531
1482.588, 86.10742
1483.628, 74.01953
1484.668, 46.74292
1485.707, 7.383545
1486.747, 39.28979
1487.786, 37.84033
1488.825, 28.74951
1489.864, 34.66309
1490.902, 47.57983
1491.941, 53.50049
1492.979, 59.42432
1494.017, 65.69238
1495.055, 67.33203
1496.093, 72.21973
1497.131, 62.15918
1498.168, 61.16211
1499.206, 42.05151
1500.243, 67.45508
1501.280, 56.40479
1502.317, 89.73511
1503.354, 69.81445
1504.390, 76.75244
1505.426, 69.69238
1506.463, 63.60864
1507.499, 78.55322
1508.535, 36.49829
1509.570, 69.44580
1510.606, 47.40137
1511.641, 80.38208
1512.676, 116.2446
1513.711, 82.23267
1514.746, 30.22437
1515.781, 80.21948
1516.816, 14.15308
1517.850, 74.80347
1518.884, 94.76245
1519.918, 52.77588
1520.952, 65.71899
1521.986, 49.66333
1523.019, 74.60815
1524.053, 38.26807
1525.086, 10.21729
1526.119, 91.16675
1527.152, 26.11572
1528.185, 90.06714
1529.217, 88.03833
1530.250, 75.03711
1531.282, 28.03784
1532.314, 6.040283
1533.346, 66.04419
1534.377, 14.04956
1535.409, 69.05591
1536.440, 8.0077998E-02
1537.472, 39.14111
1538.503, 62.22144
1539.534, 80.30835
1540.564, 24.40186
1541.595, 36.50122
1542.625, 59.61060
1543.656, 1.725342
1544.686, 26.14917
1545.716, 17.28955
1546.745, 56.46338
1547.775, 75.66040
1548.804, 95.50073
1549.834, 132.7778
1550.863, 137.3303
1551.892, 192.3792
1552.920, 193.6362
1553.949, 206.4656
1554.977, 241.7810
1556.006, 129.1179
1557.034, 88.47900
1558.062, 13.28491
1559.089, 69.87036
1560.117, 6.541016
1561.144, 45.28418
1562.172, 45.14062
1563.199, 46.18018
1564.226, 89.39502
1565.252, 25.78418
1566.279, 2.957275
1567.305, 13.15869
1568.332, 46.10571
1569.358, 0.2673340
1570.384, 0.0000000E+00
##END=



