##NAMES=Baddeleyite
##RRUFFID=R060078
##IDEAL CHEMISTRY=Zr^4+^O_2_
##LOCALITY=Wetloo mine, Mogok, Burma
##OWNER=RRUFF
##SOURCE=Marcus Origlieri
##DESCRIPTION=Dark brown fragment
##STATUS=The identification of this mineral has been confirmed by X-ray diffraction and chemical analysis
##URL=rruff.info/R060078
##MEASURED CHEMISTRY=(Zr_0.99_Hf_0.01_)_Î£=1_O_2_
##PIN_ID=L01430
##ORIENTATION=Laser parallel to c* (0 0 1). Fiducial mark perpendicular to laser is parallel to a [1 0 0]
51.43100, 0.0000000E+00
52.67100, 78.24133
53.91000, 79.93481
55.14900, 143.1824
56.38700, 169.6550
57.62600, 382.6376
58.86400, 362.6266
60.10300, 232.4957
61.34100, 71.01312
62.57900, 10.15741
63.81700, 103.4102
65.05400, 49.14185
66.29200, 31.72021
67.52900, 89.52893
68.76700, 415.3229
70.00400, 562.3529
71.24100, 717.7551
72.47700, 991.5911
73.71400, 867.2358
74.95100, 854.0676
76.18700, 655.9734
77.42300, 913.1304
78.65900, 852.5754
79.89500, 1286.891
81.13100, 1954.980
82.36700, 2931.763
83.60200, 3328.169
84.83700, 3048.135
86.07200, 2598.600
87.30800, 2674.504
88.54200, 3097.790
89.77700, 3725.370
91.01200, 4702.136
92.24600, 5014.990
93.48000, 4719.858
94.71400, 4838.679
95.94800, 4589.405
97.18200, 4474.998
98.41600, 4870.421
99.64900, 5945.646
100.8830, 5231.646
102.1160, 6134.398
103.3490, 8213.880
104.5820, 11917.08
105.8150, 15665.00
107.0470, 16156.64
108.2800, 14868.98
109.5120, 13514.02
110.7440, 8877.772
111.9760, 5982.250
113.2080, 5088.438
114.4400, 5463.323
115.6710, 6121.891
116.9030, 5769.126
118.1340, 5016.006
119.3650, 4471.515
120.5960, 4395.634
121.8270, 4544.346
123.0580, 4644.636
124.2880, 4361.486
125.5190, 3891.784
126.7490, 3541.201
127.9790, 3566.723
129.2090, 3591.331
130.4390, 3661.028
131.6680, 3421.736
132.8980, 3032.513
134.1270, 3030.476
135.3560, 2985.647
136.5850, 3030.045
137.8140, 3372.681
139.0430, 3554.566
140.2710, 3377.710
141.5000, 3000.121
142.7280, 2684.806
143.9560, 2575.770
145.1840, 2471.017
146.4120, 2494.551
147.6390, 2566.375
148.8670, 2471.490
150.0940, 2474.899
151.3210, 2839.601
152.5490, 3120.595
153.7750, 2798.884
155.0020, 2683.468
156.2290, 2486.415
157.4550, 2353.847
158.6810, 2218.810
159.9080, 2492.393
161.1340, 2680.354
162.3590, 3049.580
163.5850, 3488.072
164.8110, 3902.825
166.0360, 4064.172
167.2610, 4264.304
168.4860, 4545.103
169.7110, 4969.473
170.9360, 5292.307
172.1610, 5664.517
173.3850, 6107.038
174.6100, 7042.866
175.8340, 9103.009
177.0580, 12472.47
178.2820, 18218.22
179.5050, 24772.20
180.7290, 25133.38
181.9520, 19034.77
183.1760, 13435.37
184.3990, 10747.15
185.6220, 10316.13
186.8450, 11207.30
188.0670, 14234.67
189.2900, 20811.22
190.5120, 32515.96
191.7340, 51512.88
192.9560, 60440.98
194.1780, 50426.27
195.4000, 31765.74
196.6220, 19094.39
197.8430, 13274.21
199.0640, 10466.65
200.2860, 9318.907
201.5070, 9113.928
202.7270, 8607.718
203.9480, 7066.446
205.1690, 5424.559
206.3890, 4280.978
207.6090, 3824.954
208.8290, 3406.972
210.0490, 3410.636
211.2690, 3339.033
212.4890, 3091.035
213.7080, 3084.856
214.9280, 3073.677
216.1470, 2606.904
217.3660, 2700.523
218.5850, 2627.977
219.8030, 2634.878
221.0220, 2748.590
222.2400, 2632.641
223.4590, 2798.022
224.6770, 2687.723
225.8950, 2551.734
227.1120, 2274.051
228.3300, 2032.667
229.5480, 1855.573
230.7650, 1832.767
231.9820, 1862.238
233.1990, 1764.996
234.4160, 1872.019
235.6330, 1721.305
236.8490, 1794.840
238.0660, 1604.618
239.2820, 1644.633
240.4980, 1599.880
241.7140, 1751.354
242.9300, 1665.051
244.1460, 1748.967
245.3610, 1726.099
246.5770, 1873.442
247.7920, 1869.995
249.0070, 1800.752
250.2220, 1878.712
251.4370, 1860.872
252.6510, 1899.401
253.8660, 1746.775
255.0800, 1968.513
256.2940, 2045.437
257.5080, 2028.545
258.7220, 3225.017
259.9360, 4052.531
261.1490, 3163.010
262.3630, 2314.876
263.5760, 2045.116
264.7890, 1932.655
266.0020, 1980.060
267.2150, 1840.990
268.4270, 1691.606
269.6400, 1839.374
270.8520, 1818.292
272.0640, 1856.357
273.2760, 1855.571
274.4880, 1934.931
275.7000, 2033.439
276.9120, 2064.094
278.1230, 2083.022
279.3340, 2192.060
280.5450, 2219.269
281.7560, 2378.081
282.9670, 2553.174
284.1780, 2689.830
285.3880, 2778.484
286.5980, 2985.903
287.8090, 3224.373
289.0190, 3443.411
290.2290, 3527.871
291.4380, 3849.393
292.6480, 3919.915
293.8570, 4272.138
295.0670, 4296.080
296.2760, 4751.471
297.4850, 5051.663
298.6930, 5541.707
299.9020, 6165.531
301.1110, 6654.804
302.3190, 7763.062
303.5270, 8734.304
304.7350, 10667.47
305.9430, 12716.58
307.1510, 14714.48
308.3580, 16019.48
309.5660, 15919.39
310.7730, 14125.60
311.9800, 12348.92
313.1870, 10921.34
314.3940, 8368.853
315.6010, 7187.462
316.8070, 6345.165
318.0130, 5817.958
319.2200, 5293.842
320.4260, 5110.813
321.6310, 4935.872
322.8370, 4766.017
324.0430, 4614.247
325.2480, 4720.559
326.4540, 4693.956
327.6590, 4766.435
328.8640, 4909.993
330.0680, 4775.633
331.2730, 4818.352
332.4780, 5122.152
333.6820, 5218.029
334.8860, 5238.984
336.0900, 5346.015
337.2940, 5183.123
338.4980, 5558.306
339.7010, 5995.564
340.9050, 7228.896
342.1080, 8571.302
343.3110, 10698.78
344.5140, 14128.39
345.7170, 18928.11
346.9200, 24850.97
348.1220, 30928.95
349.3240, 33339.05
350.5270, 30619.29
351.7290, 24643.66
352.9310, 18497.15
354.1320, 13687.78
355.3340, 10113.54
356.5350, 7872.453
357.7370, 6157.492
358.9380, 5865.649
360.1390, 4005.921
361.3400, 3443.304
362.5400, 2897.798
363.7410, 2564.400
364.9410, 2365.107
366.1410, 1987.921
367.3410, 1977.839
368.5410, 1912.859
369.7410, 1896.979
370.9400, 1789.462
372.1400, 1894.095
373.3390, 2067.981
374.5380, 2415.382
375.7370, 2924.213
376.9360, 3825.181
378.1350, 4951.647
379.3330, 5818.435
380.5310, 6075.921
381.7300, 5715.460
382.9280, 5065.630
384.1260, 4411.916
385.3230, 3968.228
386.5210, 3305.624
387.7180, 2782.104
388.9160, 2380.666
390.1130, 1667.309
391.3100, 1268.033
392.5060, 1025.836
393.7030, 798.7178
394.9000, 594.6787
396.0960, 434.7168
397.2920, 248.8315
398.4880, 199.0220
399.6840, 32.28809
400.8800, 29.62842
402.0750, 95.95752
403.2710, 90.50391
404.4660, 211.0107
405.6610, 212.5288
406.8560, 194.0591
408.0510, 293.5972
409.2450, 265.1865
410.4400, 381.8159
411.6340, 38.45898
412.8280, 309.8027
414.0220, 226.2134
415.2160, 366.6909
416.4100, 109.2349
417.6030, 374.8452
418.7970, 70.95898
419.9900, 295.2617
421.1830, 350.9336
422.3760, 439.2256
423.5690, 474.6562
424.7610, 425.2432
425.9540, 351.9663
427.1460, 320.7925
428.3380, 297.7100
429.5300, 233.7090
430.7220, 211.7627
431.9140, 120.8613
433.1050, 124.9668
434.2970, 102.0820
435.4880, 38.19873
436.6790, 48.08643
437.8700, 58.36182
439.0610, 43.41943
440.2510, 55.45752
441.4420, 88.48193
442.6320, 80.28564
443.8220, 5.534180
445.0120, 81.52832
446.2020, 2.476074
447.3910, 32.51367
448.5810, 39.59521
449.7700, 92.72217
450.9600, 64.90234
452.1490, 29.13281
453.3370, 221.4028
454.5260, 161.7246
455.7150, 278.0977
456.9030, 324.5220
458.0910, 283.9961
459.2800, 305.5210
460.4670, 541.0947
461.6550, 748.7183
462.8430, 705.3921
464.0300, 940.1133
465.2180, 1016.883
466.4050, 1319.702
467.5920, 1727.569
468.7790, 2492.483
469.9650, 2414.445
471.1520, 3237.454
472.3380, 4584.510
473.5250, 5723.613
474.7110, 6100.322
475.8970, 6824.957
477.0820, 6287.198
478.2680, 5236.484
479.4540, 4105.816
480.6390, 3091.193
481.8240, 2038.615
483.0090, 1608.081
484.1940, 1142.591
485.3780, 862.1455
486.5630, 723.7432
487.7470, 632.3857
488.9320, 500.0693
490.1160, 383.7954
491.3000, 365.5640
492.4830, 348.3740
493.6670, 383.2241
494.8500, 320.1143
496.0340, 441.0444
497.2170, 421.0137
498.4000, 342.0215
499.5820, 525.0674
500.7650, 588.1504
501.9480, 514.2710
503.1300, 475.4272
504.3120, 395.6201
505.4940, 369.8486
506.6760, 235.1123
507.8580, 222.4106
509.0390, 202.4116
510.2210, 149.1123
511.4020, 192.5205
512.5830, 124.9624
513.7640, 78.43457
514.9450, 114.9312
516.1250, 61.46582
517.3060, 84.01318
518.4860, 8.579590
519.6660, 70.13525
520.8460, 63.71436
522.0260, 118.3066
523.2060, 121.4487
524.3850, 156.7827
525.5650, 152.2954
526.7440, 236.0312
527.9230, 305.8179
529.1020, 371.6528
530.2810, 304.5415
531.4590, 414.4873
532.6380, 581.4688
533.8160, 578.4893
534.9940, 784.5698
536.1720, 785.7041
537.3500, 892.8740
538.5270, 842.1177
539.7050, 896.4019
540.8820, 923.7402
542.0590, 956.1094
543.2360, 991.5225
544.4130, 974.7930
545.5900, 994.2290
546.7660, 1083.926
547.9430, 1274.450
549.1190, 1484.825
550.2950, 1682.108
551.4710, 1871.731
552.6470, 2206.012
553.8220, 2500.792
554.9980, 3091.598
556.1730, 3553.439
557.3480, 3952.321
558.5230, 4007.193
559.6980, 4211.265
560.8730, 3738.312
562.0470, 3272.405
563.2220, 2779.407
564.3960, 2410.501
565.5700, 1931.560
566.7440, 1796.210
567.9170, 1465.754
569.0910, 1152.916
570.2640, 1057.605
571.4380, 1004.033
572.6110, 801.9238
573.7840, 634.4204
574.9570, 483.6641
576.1290, 496.0146
577.3020, 485.5298
578.4740, 337.5098
579.6460, 250.9365
580.8180, 221.0762
581.9900, 157.2002
583.1620, 131.5322
584.3330, 135.5728
585.5040, 114.4663
586.6760, 147.5264
587.8470, 178.7510
589.0180, 195.1968
590.1880, 140.8501
591.3590, 211.8647
592.5290, 186.9116
593.7000, 312.1958
594.8700, 343.3105
596.0400, 324.4565
597.2090, 465.6343
598.3790, 683.8418
599.5490, 750.0801
600.7180, 797.3481
601.8870, 1012.646
603.0560, 1361.974
604.2250, 1485.330
605.3940, 1909.718
606.5620, 2168.135
607.7300, 2610.581
608.8990, 2999.054
610.0670, 3132.555
611.2350, 3458.084
612.4020, 3631.641
613.5700, 3797.225
614.7370, 3832.835
615.9050, 3786.472
617.0720, 3601.136
618.2390, 3439.827
619.4060, 3144.544
620.5720, 3009.883
621.7390, 2795.054
622.9050, 2730.847
624.0710, 2709.662
625.2370, 2504.508
626.4030, 2872.375
627.5690, 3019.266
628.7340, 3320.181
629.9000, 3850.120
631.0650, 4435.083
632.2300, 5373.068
633.3950, 6384.076
634.5600, 7590.109
635.7240, 8454.161
636.8890, 9225.234
638.0530, 9593.334
639.2170, 9214.452
640.3810, 8593.591
641.5450, 7345.753
642.7080, 6202.935
643.8720, 5210.138
645.0350, 4298.360
646.1980, 3623.604
647.3610, 2812.951
648.5240, 2900.315
649.6870, 2711.617
650.8490, 2662.450
652.0120, 2205.950
653.1740, 1849.468
654.3360, 1177.716
655.4980, 947.2192
656.6600, 967.7441
657.8210, 816.1831
658.9830, 853.3618
660.1440, 676.3506
661.3050, 688.4385
662.4660, 613.6729
663.6270, 528.5020
664.7870, 453.0024
665.9480, 526.4014
667.1080, 535.0127
668.2680, 486.1772
669.4280, 545.4038
670.5880, 524.9463
671.7480, 558.3750
672.9070, 576.5674
674.0670, 387.8916
675.2260, 570.7568
676.3850, 602.4272
677.5440, 493.2720
678.7030, 650.2236
679.8610, 692.8335
681.0200, 673.9048
682.1780, 740.7949
683.3360, 648.3335
684.4940, 748.6123
685.6520, 792.7495
686.8090, 814.2603
687.9670, 896.6797
689.1240, 959.8398
690.2810, 966.4180
691.4380, 962.7319
692.5950, 1147.537
693.7520, 1029.702
694.9080, 1381.603
696.0650, 1353.283
697.2210, 1570.595
698.3770, 1592.520
699.5330, 1692.426
700.6880, 1888.705
701.8440, 1859.866
702.9990, 2103.401
704.1550, 2021.202
705.3100, 2127.502
706.4650, 2255.552
707.6190, 2308.191
708.7740, 2341.544
709.9290, 2205.107
711.0830, 2236.278
712.2370, 2238.477
713.3910, 2145.165
714.5450, 1859.699
715.6980, 1834.401
716.8520, 1706.920
718.0050, 1632.187
719.1580, 1523.470
720.3110, 1361.602
721.4640, 1278.166
722.6170, 1126.185
723.7700, 1061.073
724.9220, 989.6968
726.0740, 901.9780
727.2260, 898.6255
728.3780, 808.2314
729.5300, 683.1362
730.6810, 666.3472
731.8330, 608.8628
732.9840, 521.0327
734.1350, 587.1958
735.2860, 582.3516
736.4370, 520.8530
737.5880, 582.8105
738.7380, 521.9438
739.8880, 415.0688
741.0390, 638.1855
742.1890, 908.3975
743.3380, 572.9058
744.4880, 452.1826
745.6380, 902.2627
746.7870, 1212.333
747.9360, 393.3926
749.0850, 569.4414
750.2340, 953.5122
751.3830, 551.6523
752.5310, 499.6694
753.6800, 564.6753
754.8280, 430.6699
755.9760, 350.8525
757.1240, 513.8921
758.2720, 398.8501
759.4190, 370.8086
760.5670, 424.7417
761.7140, 403.7495
762.8610, 391.6714
764.0080, 395.5498
765.1550, 354.4556
766.3020, 320.5127
767.4480, 310.3643
768.5950, 274.2246
769.7410, 288.0479
770.8870, 261.8564
772.0330, 295.6494
773.1780, 257.7354
774.3240, 280.1899
775.4690, 205.9360
776.6140, 160.6675
777.7590, 153.3828
778.9040, 136.8315
780.0490, 117.7642
781.1940, 114.1157
782.3380, 136.0796
783.4820, 105.7119
784.6260, 87.32666
785.7700, 89.92334
786.9140, 160.5010
788.0580, 7.938965
789.2010, 83.58789
790.3450, 54.09521
791.4880, 0.5815430
792.6310, 23.95508
793.7730, 225.4683
794.9160, 83.02930
796.0590, 339.2817
797.2010, 15.31787
798.3430, 55.05127
799.4850, 3.405762
800.6270, 40.88428
801.7690, 26.72217
802.9100, 27.23096
804.0520, 58.57031
805.1930, 50.43799
806.3340, 66.36670
807.4750, 86.36670
808.6160, 3.448730
809.7560, 12.56934
810.8970, 98.73389
812.0370, 71.98877
813.1770, 4.319336
814.3170, 149.6914
815.4570, 23.18164
816.5960, 80.72363
817.7360, 13.65234
818.8750, 36.00684
820.0140, 29.72607
821.1530, 10.49805
822.2920, 69.31494
823.4310, 26.20605
824.5690, 103.1533
825.7070, 18.19824
826.8460, 39.29639
827.9840, 121.5400
829.1220, 71.86621
830.2590, 210.1299
831.3970, 9.884277
832.5340, 20.40283
833.6710, 93.74609
834.8080, 87.18555
835.9450, 38.71777
837.0820, 44.31738
838.2190, 6.013184
839.3550, 1.298828
840.4910, 104.5376
841.6270, 12.74561
842.7630, 100.9106
843.8990, 8.956543
845.0350, 18.87793
846.1700, 20.86035
847.3060, 42.09473
848.4410, 3.008789
849.5760, 82.87305
850.7100, 29.70117
851.8450, 88.48535
852.9800, 34.23389
854.1140, 50.93896
855.2480, 51.60352
856.3820, 62.95703
857.5160, 11.81104
858.6500, 119.3457
859.7830, 89.84717
860.9170, 112.3115
862.0500, 176.7402
863.1830, 114.1367
864.3160, 20.49854
865.4480, 132.8130
866.5810, 194.0933
867.7130, 49.34180
868.8460, 259.5479
869.9780, 219.7227
871.1100, 206.8672
872.2410, 284.9795
873.3730, 163.0610
874.5050, 264.1104
875.6360, 221.1289
876.7670, 205.1152
877.8980, 179.0713
879.0290, 130.9956
880.1590, 159.3784
881.2900, 308.7412
882.4200, 212.5669
883.5500, 249.3618
884.6800, 289.1260
885.8100, 196.8589
886.9400, 177.5610
888.0690, 244.2314
889.1990, 238.8711
890.3280, 292.4800
891.4570, 163.0586
892.5860, 187.6050
893.7140, 206.1196
894.8430, 200.6035
895.9710, 209.0576
897.1000, 182.4805
898.2280, 282.8735
899.3560, 215.2349
900.4830, 196.5664
901.6110, 167.8687
902.7380, 260.1377
903.8660, 196.3765
904.9930, 245.5859
906.1200, 322.7651
907.2460, 223.9141
908.3730, 271.0347
909.5000, 329.1348
910.6260, 360.2070
911.7520, 362.1279
912.8780, 367.6499
914.0040, 370.2646
915.1290, 300.2305
916.2550, 366.1714
917.3800, 270.0825
918.5050, 500.9668
919.6300, 403.8228
920.7550, 425.5669
921.8800, 314.2842
923.0040, 317.0537
924.1290, 359.2817
925.2530, 344.8345
926.3770, 400.0981
927.5010, 233.5688
928.6250, 403.6235
929.7480, 290.2285
930.8720, 564.5737
931.9950, 493.8760
933.1180, 454.4941
934.2410, 431.4375
935.3640, 402.6553
936.4860, 313.3066
937.6090, 498.7300
938.7310, 375.2158
939.8530, 611.5576
940.9750, 495.0547
942.0970, 510.0503
943.2180, 336.4434
944.3400, 365.9385
945.4610, 327.8296
946.5820, 337.2466
947.7030, 395.2764
948.8240, 338.5000
949.9450, 394.5425
951.0650, 330.4663
952.1860, 318.7212
953.3060, 365.5034
954.4260, 399.4551
955.5460, 334.7466
956.6650, 371.1299
957.7850, 292.0142
958.9040, 357.3799
960.0230, 344.8682
961.1420, 340.6416
962.2610, 330.6279
963.3800, 351.2710
964.4990, 313.0493
965.6170, 335.9683
966.7350, 418.1387
967.8530, 282.5171
968.9710, 370.2520
970.0890, 266.3604
971.2070, 358.4756
972.3240, 260.2056
973.4410, 320.0449
974.5580, 331.5781
975.6750, 241.9331
976.7920, 389.8848
977.9090, 314.1738
979.0250, 436.9429
980.1410, 386.0610
981.2580, 433.0283
982.3740, 384.4292
983.4890, 370.8433
984.6050, 402.7871
985.7200, 300.9058
986.8360, 329.8721
987.9510, 379.0239
989.0660, 441.4336
990.1810, 448.3638
991.2950, 475.1685
992.4100, 463.9878
993.5240, 489.2109
994.6390, 476.2842
995.7530, 486.9771
996.8660, 416.5898
997.9800, 435.6709
999.0940, 434.3633
1000.207, 378.5850
1001.320, 420.0659
1002.433, 478.2280
1003.546, 510.7266
1004.659, 444.2168
1005.772, 421.6982
1006.884, 447.1724
1007.996, 323.4697
1009.108, 396.9287
1010.220, 397.3809
1011.332, 480.8271
1012.444, 438.1616
1013.555, 321.1836
1014.666, 396.4214
1015.777, 450.8403
1016.888, 405.2524
1017.999, 500.6670
1019.110, 352.0791
1020.220, 373.4541
1021.331, 365.7412
1022.441, 284.1367
1023.551, 434.5259
1024.661, 406.9126
1025.770, 332.0938
1026.880, 389.4023
1027.989, 336.7744
1029.098, 413.1289
1030.207, 348.4917
1031.316, 302.7637
1032.425, 325.8564
1033.533, 360.4702
1034.642, 319.7910
1035.750, 296.9448
1036.858, 304.2896
1037.966, 314.6074
1039.073, 361.9458
1040.181, 297.3306
1041.288, 277.6636
1042.396, 396.1860
1043.503, 429.9507
1044.610, 323.7998
1045.716, 396.1284
1046.823, 304.4644
1047.929, 406.7827
1049.036, 322.8667
1050.142, 320.1816
1051.248, 341.9702
1052.353, 399.2812
1053.459, 328.5913
1054.564, 460.0786
1055.670, 399.4868
1056.775, 447.6953
1057.880, 337.0098
1058.985, 413.3242
1060.089, 373.6406
1061.194, 385.0977
1062.298, 403.4312
1063.402, 368.4443
1064.506, 356.7793
1065.610, 373.4624
1066.713, 351.4595
1067.817, 402.8081
1068.920, 330.1621
1070.023, 339.5356
1071.126, 294.9331
1072.229, 317.0898
1073.332, 335.1562
1074.435, 272.0542
1075.537, 326.3970
1076.639, 402.9033
1077.741, 252.2739
1078.843, 261.8042
1079.945, 224.3696
1081.046, 291.0850
1082.148, 332.5615
1083.249, 367.2168
1084.350, 386.8892
1085.451, 387.5942
1086.551, 349.3071
1087.652, 316.0410
1088.752, 318.7949
1089.853, 293.8916
1090.953, 329.7642
1092.053, 271.5771
1093.152, 322.4292
1094.252, 313.2993
1095.351, 252.1938
1096.451, 343.0923
1097.550, 240.9966
1098.649, 250.9263
1099.748, 310.8667
1100.846, 126.8267
1101.945, 247.8252
1103.043, 284.8604
1104.141, 217.9209
1105.239, 257.7876
1106.337, 152.8892
1107.434, 311.0044
1108.532, 233.1255
1109.629, 216.2588
1110.726, 326.3979
1111.823, 179.5552
1112.920, 270.7324
1114.017, 136.9307
1115.113, 195.1392
1116.210, 291.3618
1117.306, 225.5928
1118.402, 380.8350
1119.498, 360.0850
1120.593, 462.3457
1121.689, 397.6162
1122.784, 306.8970
1123.879, 418.1875
1124.974, 206.4912
1126.069, 366.8018
1127.164, 248.1196
1128.259, 429.4507
1129.353, 314.1245
1130.447, 168.1313
1131.541, 117.4883
1132.635, 68.74561
1133.729, 94.22021
1134.822, 70.60010
1135.916, 44.98486
1137.009, 97.37451
1138.102, 40.26221
1139.195, 137.3809
1140.288, 11.78662
1141.380, 89.19824
1142.473, 163.9312
1143.565, 152.3530
1144.657, 199.9546
1145.749, 119.2158
1146.841, 178.6567
1147.932, 184.1035
1149.024, 80.47559
1150.115, 96.71436
1151.206, 68.17773
1152.297, 92.64648
1153.388, 49.12061
1154.479, 126.6006
1155.569, 53.63135
1156.659, 54.12158
1157.750, 32.61865
1158.839, 96.16113
1159.929, 38.66846
1161.019, 66.18262
1162.108, 94.70215
1163.198, 48.22803
1164.287, 3.758301
1165.376, 52.31104
1166.465, 52.96631
1167.553, 18.30225
1168.642, 27.86133
1169.730, 95.42627
1170.818, 3.002930
1171.906, 53.57275
1172.994, 54.84619
1174.082, 17.27930
1175.170, 19.71143
1176.257, 0.8574220
1177.344, 50.56934
1178.431, 43.99219
1179.518, 25.44141
1180.605, 20.12402
1181.691, 17.30518
1182.778, 15.26562
1183.864, 32.84277
1184.950, 7.575195
1186.036, 52.01074
1187.122, 21.60254
1188.207, 62.19922
1189.292, 81.80176
1190.378, 86.40967
1191.463, 30.97607
1192.548, 28.63330
1193.632, 20.75195
1194.717, 8.862305
1195.801, 10.87598
1196.886, 23.10596
1197.970, 10.73633
1199.054, 25.37402
1200.137, 20.01660
1201.221, 104.0234
1202.305, 87.30371
1203.388, 26.66650
1204.471, 21.96533
1205.554, 40.38721
1206.637, 73.23730
1207.719, 21.13525
1208.802, 36.48926
1209.884, 81.11816
1210.966, 43.24951
1212.048, 20.63184
1213.130, 50.98096
1214.212, 82.59766
1215.293, 111.2188
1216.374, 83.84277
1217.456, 136.4697
1218.536, 19.10010
1219.617, 29.26611
1220.698, 106.3574
1221.778, 17.03564
1222.859, 70.66504
1223.939, 116.3643
1225.019, 83.15820
1226.099, 152.7964
1227.178, 59.43652
1228.258, 120.2646
1229.337, 124.9097
1230.417, 76.55713
1231.496, 80.20654
1232.574, 92.85742
1233.653, 88.51025
1234.732, 12.47021
1235.810, 147.1782
1236.888, 107.8281
1237.966, 47.47949
1239.044, 121.1318
1240.122, 30.78613
1241.199, 8.440918
1242.277, 103.0967
1243.354, 120.7539
1244.431, 96.41162
1245.508, 138.6494
1246.585, 142.7002
1247.661, 132.4043
1248.738, 159.0703
1249.814, 126.7363
1250.890, 87.40283
1251.966, 97.13232
1253.042, 115.7358
1254.117, 55.40234
1255.193, 108.0688
1256.268, 33.73584
1257.343, 105.7100
1258.418, 74.37744
1259.493, 56.04541
1260.567, 23.71240
1261.642, 93.37988
1262.716, 117.0464
1263.790, 82.71240
1264.864, 158.3789
1265.938, 146.0444
1267.011, 145.3594
1268.085, 5.375000
1269.158, 104.0366
1270.231, 86.69873
1271.304, 3.359375
1272.377, 84.01611
1273.450, 80.67529
1274.522, 108.3325
1275.594, 103.9893
1276.666, 91.64551
1277.738, 22.69873
1278.810, 4.061035
1279.882, 69.56787
1280.953, 107.1963
1282.025, 164.8237
1283.096, 64.44922
1284.167, 1.074219
1285.238, 83.69238
1286.308, 55.31299
1287.379, 15.93213
1288.449, 155.5498
1289.519, 29.16602
1290.589, 104.8657
1291.659, 149.4771
1292.729, 152.0854
1293.798, 21.68994
1294.868, 14.47900
1295.937, 0.9223630
1297.006, 134.6724
1298.075, 53.37793
1299.143, 114.9712
1300.212, 62.51416
1301.280, 61.10645
1302.348, 30.50537
1303.416, 81.65967
1304.484, 36.72607
1305.552, 92.30957
1306.620, 88.88428
1307.687, 80.47314
1308.754, 122.2939
1309.821, 68.88232
1310.888, 30.99414
1311.955, 52.56982
1313.021, 62.14453
1314.088, 118.5405
1315.154, 141.1138
1316.220, 149.6865
1317.286, 91.25830
1318.352, 59.82959
1319.417, 902.6099
1320.483, 417.9185
1321.548, 660.6353
1322.613, 94.60010
1323.678, 72.16699
1324.743, 127.7339
1325.807, 149.2705
1326.872, 176.4033
1327.936, 56.93848
1329.000, 25.94580
1330.064, 122.7065
1331.128, 74.47070
1332.191, 159.9004
1333.255, 29.41748
1334.318, 96.06494
1335.381, 62.57910
1336.444, 56.23877
1337.507, 142.7520
1338.569, 70.26318
1339.632, 47.64355
1340.694, 204.2739
1341.756, 107.7729
1342.818, 106.2710
1343.880, 81.76807
1344.941, 51.26416
1346.003, 128.7588
1347.064, 70.17188
1348.125, 73.49902
1349.186, 18.82373
1350.247, 40.31348
1351.308, 15.80225
1352.368, 8.339844
1353.428, 220.8262
1354.489, 41.31104
1355.549, 74.20508
1356.608, 145.2549
1357.668, 34.71436
1358.727, 96.16260
1359.787, 180.6528
1360.846, 127.0972
1361.905, 3.541016
1362.964, 105.2031
1364.022, 114.6431
1365.081, 82.08154
1366.139, 176.5190
1367.197, 138.9556
1368.255, 56.39697
1369.313, 58.83203
1370.371, 144.2632
1371.428, 65.69287
1372.486, 88.18213
1373.543, 123.6851
1374.600, 115.1040
1375.657, 187.4653
1376.713, 75.82520
1377.770, 211.1831
1378.826, 174.5381
1379.882, 155.8911
1380.938, 70.24268
1381.994, 108.5918
1383.050, 141.9385
1384.106, 10.49756
1385.161, 196.8389
1386.216, 125.1733
1387.271, 151.5044
1388.326, 219.8330
1389.381, 73.15869
1390.435, 138.5000
1391.490, 135.8193
1392.544, 93.13574
1393.598, 124.4502
1394.652, 91.76025
1395.705, 170.8564
1396.759, 121.1357
1397.812, 131.4805
1398.866, 112.4351
1399.919, 132.2827
1400.972, 75.54932
1402.024, 133.8130
1403.077, 97.17773
1404.129, 66.42969
1405.181, 72.82422
1406.233, 106.2886
1407.285, 100.3286
1408.337, 116.8511
1409.389, 137.0024
1410.440, 140.2036
1411.491, 171.8857
1412.542, 150.2817
1413.593, 88.21338
1414.644, 101.3560
1415.695, 67.61670
1416.745, 25.63037
1417.795, 128.5718
1418.845, 162.4185
1419.895, 169.0938
1420.945, 8.552734
1421.995, 124.1206
1423.044, 107.5771
1424.093, 22.03076
1425.142, 134.5024
1426.191, 143.9785
1427.240, 108.4697
1428.289, 107.9653
1429.337, 239.4624
1430.385, 144.9575
1431.433, 135.4507
1432.481, 84.93945
1433.529, 263.4292
1434.577, 137.9238
1435.624, 184.4199
1436.672, 116.9087
1437.719, 412.6411
1438.766, 239.7954
1439.812, 246.0981
1440.859, 62.00049
1441.905, 165.4873
1442.952, 91.98389
1443.998, 235.5000
1445.044, 15.01465
1446.090, 184.5283
1447.135, 48.04736
1448.181, 35.50830
1449.226, 124.7383
1450.271, 177.2568
1451.316, 124.8516
1452.361, 0.7089840
1453.405, 134.7275
1454.450, 16.33740
1455.494, 40.90137
1456.538, 141.5332
1457.582, 110.9653
1458.626, 104.3955
1459.670, 151.8091
1460.713, 78.22021
1461.757, 137.6304
1462.800, 182.0405
1463.843, 87.44922
1464.886, 152.8154
1465.928, 130.1929
1466.971, 142.5693
1468.013, 102.9443
1469.055, 450.3193
1470.097, 485.3203
1471.139, 434.5430
1472.181, 704.4492
1473.222, 294.8237
1474.263, 95.19775
1475.305, 92.58643
1476.346, 83.00537
1477.386, 43.42725
1478.427, 124.8569
1479.468, 73.28174
1480.508, 159.7109
1481.548, 110.9800
1482.588, 108.4331
1483.628, 176.4780
1484.668, 45.67480
1485.707, 86.09570
1486.747, 122.5107
1487.786, 159.9194
1488.825, 131.3218
1489.864, 75.71729
1490.902, 97.10596
1491.941, 74.54346
1492.979, 57.97754
1494.017, 221.4048
1495.055, 110.3003
1496.093, 120.6465
1497.131, 5.156250
1498.168, 43.30762
1499.206, 80.20654
1500.243, 61.46191
1501.280, 104.6577
1502.317, 69.83789
1503.354, 101.0010
1504.390, 150.1470
1505.426, 63.33203
1506.463, 66.50146
1507.499, 68.65430
1508.535, 13.78760
1509.570, 115.9019
1510.606, 75.99268
1511.641, 55.86572
1512.676, 117.8916
1513.711, 107.8892
1514.746, 48.75488
1515.781, 115.7700
1516.816, 98.74707
1517.850, 54.68311
1518.884, 102.5405
1519.918, 84.38281
1520.952, 90.54688
1521.986, 32.63770
1523.019, 98.73340
1524.053, 2.190918
1525.086, 57.86328
1526.119, 104.8911
1527.152, 26.30713
1528.185, 86.18359
1529.217, 36.02979
1530.250, 103.6733
1531.282, 68.42432
1532.314, 125.1304
1533.346, 148.5635
1534.377, 67.48779
1535.409, 42.84082
1536.440, 4.565918
1537.472, 37.10498
1538.503, 47.38086
1539.534, 30.75244
1540.564, 69.45410
1541.595, 46.38086
1542.625, 4.399902
1543.656, 0.0000000E+00
##END=



