##NAMES=Baddeleyite
##RRUFFID=R060016
##IDEAL CHEMISTRY=Zr^4+^O_2_
##LOCALITY=Wet Loo, Myanmar
##OWNER=RRUFF
##SOURCE=American Museum of Natural History
##DESCRIPTION=Brown crystal fragment
##STATUS=The identification of this mineral has been confirmed by X-ray diffraction and chemical analysis
##URL=rruff.info/R060016
##MEASURED CHEMISTRY=(Zr_0.99_Ti_0.01_)_Î£=1_O_2_
##PIN_ID=M00302
##ORIENTATION=Laser parallel to a* (1 0 0). Fiducial mark perpendicular to laser is parallel to b [0 1 0]
40.39300, 0.0000000E+00
41.63700, 0.1855470
42.88100, 6.292358
44.12400, 14.58755
45.36700, 21.42191
46.61100, 18.77844
47.85400, 28.96631
49.09700, 31.15515
50.33900, 30.67331
51.58200, 41.42825
52.82400, 44.80399
54.06700, 45.62756
55.30900, 54.73630
56.55100, 60.87894
57.79200, 49.17752
59.03400, 80.58081
60.27600, 87.58868
61.51700, 83.17603
62.75800, 83.23318
63.99900, 82.04224
65.24000, 67.96741
66.48100, 49.00446
67.72100, 42.14954
68.96100, 32.13809
70.20200, 17.75525
71.44200, 22.21649
72.68200, 16.78448
73.92100, 16.45901
75.16100, 0.7609560
76.40000, 3.876770
77.64000, 9.890289
78.87900, 3.804230
80.11800, 24.62250
81.35600, 10.34943
82.59500, 25.98972
83.83400, 2.548279
85.07200, 1.030090
86.31000, 9.560120
87.54800, 53.21707
88.78600, 79.93494
90.02400, 151.7109
91.26100, 257.5439
92.49800, 369.4329
93.73600, 530.3771
94.97300, 829.3766
96.21000, 1183.435
97.44600, 1760.561
98.68300, 2545.757
99.91900, 3555.029
101.1560, 4157.382
102.3920, 4334.811
103.6280, 4124.317
104.8630, 3475.894
106.0990, 2636.540
107.3350, 1949.254
108.5700, 1470.032
109.8050, 1119.873
111.0400, 892.7755
112.2750, 790.7370
113.5100, 641.7566
114.7440, 696.8304
115.9780, 628.9506
117.2130, 546.1131
118.4470, 554.3143
119.6810, 501.5499
120.9140, 503.8168
122.1480, 531.1108
123.3810, 517.4293
124.6150, 518.7682
125.8480, 527.1458
127.0810, 511.4935
128.3130, 530.8779
129.5460, 518.2733
130.7790, 513.6792
132.0110, 549.0945
133.2430, 518.5051
134.4750, 530.9078
135.7070, 543.2969
136.9380, 571.6945
138.1700, 568.1186
139.4010, 625.5716
140.6330, 644.0535
141.8640, 615.5648
143.0950, 663.1058
144.3250, 667.6765
145.5560, 633.2772
146.7860, 701.9080
148.0160, 748.5787
149.2470, 761.3188
150.4760, 803.2271
151.7060, 786.0762
152.9360, 858.1313
154.1650, 894.2728
155.3950, 948.5185
156.6240, 1006.867
157.8530, 1077.354
159.0820, 1219.936
160.3100, 1291.596
161.5390, 1458.299
162.7670, 1672.018
163.9950, 2041.754
165.2230, 2583.504
166.4510, 3260.272
167.6790, 4130.056
168.9060, 4881.858
170.1340, 5818.676
171.3610, 7317.511
172.5880, 10075.37
173.8150, 13263.24
175.0420, 16191.13
176.2690, 18304.04
177.4950, 19402.96
178.7210, 19318.92
179.9470, 17873.88
181.1730, 15611.87
182.3990, 13568.88
183.6250, 12461.91
184.8500, 13728.95
186.0760, 17013.02
187.3010, 21388.10
188.5260, 25044.07
189.7510, 26924.98
190.9750, 26642.88
192.2000, 23721.76
193.4240, 18757.61
194.6490, 13492.42
195.8730, 8787.211
197.0970, 5334.959
198.3200, 3406.672
199.5440, 2343.344
200.7670, 1816.987
201.9910, 1369.601
203.2140, 1121.180
204.4370, 929.7361
205.6590, 826.2205
206.8820, 711.6855
208.1050, 568.0850
209.3270, 548.3680
210.5490, 489.6786
211.7710, 526.0409
212.9930, 500.4000
214.2150, 498.6807
215.4360, 509.9659
216.6570, 619.2075
217.8790, 670.2787
219.1000, 751.5380
220.3210, 765.7871
221.5410, 758.1237
222.7620, 693.9446
223.9820, 577.6936
225.2030, 504.1858
226.4230, 378.1782
227.6430, 296.9797
228.8620, 168.7903
230.0820, 122.7300
231.3010, 113.2499
232.5210, 78.96716
233.7400, 103.8715
234.9590, 55.80151
236.1780, 76.75708
237.3960, 70.73804
238.6150, 85.74426
239.8330, 81.77551
241.0510, 54.83167
242.2690, 34.91248
243.4870, 56.01770
244.7050, 6.147339
245.9230, 41.30090
247.1400, 49.47827
248.3570, 10.67920
249.5740, 35.90332
250.7910, 15.15039
252.0080, 34.42004
253.2240, 33.95520
254.4410, 47.85767
255.6570, 50.76416
256.8730, 13.27490
258.0890, 44.32556
259.3050, 46.07666
260.5210, 56.18433
261.7360, 77.05603
262.9510, 33.28137
264.1670, 0.7719730
265.3820, 21.45483
266.5960, 38.54150
267.8110, 10.54126
269.0260, 23.47864
270.2400, 63.57056
271.4540, 57.11353
272.6680, 79.66882
273.8820, 86.73438
275.0960, 112.9667
276.3090, 149.8066
277.5230, 116.8781
278.7360, 212.4043
279.9490, 181.5221
281.1620, 239.2665
282.3750, 280.0568
283.5880, 294.8378
284.8000, 346.7070
286.0120, 377.8029
287.2240, 422.2908
288.4360, 448.1447
289.6480, 484.0170
290.8600, 562.0564
292.0710, 625.8159
293.2830, 752.7422
294.4940, 847.6865
295.7050, 1000.648
296.9160, 1186.628
298.1260, 1399.392
299.3370, 1688.645
300.5470, 1929.680
301.7580, 2254.742
302.9680, 2582.831
304.1770, 2900.939
305.3870, 3062.082
306.5970, 3057.250
307.8060, 3067.437
309.0150, 2820.639
310.2250, 2493.857
311.4340, 2165.090
312.6420, 1818.337
313.8510, 1538.599
315.0590, 1396.875
316.2680, 1195.166
317.4760, 1131.470
318.6840, 1131.790
319.8920, 1133.123
321.0990, 1217.471
322.3070, 1296.834
323.5140, 1480.211
324.7210, 1650.602
325.9280, 1894.007
327.1350, 2118.428
328.3420, 2532.862
329.5490, 2906.311
330.7550, 3275.775
331.9610, 3488.252
333.1670, 3698.745
334.3730, 3652.253
335.5790, 3667.777
336.7840, 3634.316
337.9900, 3995.872
339.1950, 4364.444
340.4000, 4892.032
341.6050, 5740.637
342.8100, 6946.260
344.0150, 8105.898
345.2190, 9252.555
346.4230, 9705.230
347.6280, 9631.921
348.8320, 8892.633
350.0350, 7573.360
351.2390, 6266.109
352.4430, 4762.876
353.6460, 3772.662
354.8490, 2749.469
356.0520, 2043.295
357.2550, 1619.141
358.4580, 1227.007
359.6600, 1026.893
360.8630, 819.8003
362.0650, 696.7277
363.2670, 621.6768
364.4690, 483.6467
365.6710, 503.6378
366.8720, 447.6495
368.0740, 541.6844
369.2750, 455.7427
370.4760, 442.8259
371.6770, 522.9319
372.8780, 668.0654
374.0780, 731.2228
375.2790, 864.4077
376.4790, 1067.614
377.6790, 1169.839
378.8790, 1327.085
380.0790, 1496.349
381.2790, 1564.633
382.4780, 1622.935
383.6780, 1580.257
384.8770, 1440.598
386.0760, 1240.958
387.2750, 1039.337
388.4730, 825.7357
389.6720, 621.1530
390.8700, 492.5895
392.0690, 333.0448
393.2670, 213.5195
394.4650, 162.0133
395.6620, 98.52588
396.8600, 12.05762
398.0570, 3.604980
399.2550, 15.83582
400.4520, 27.27283
401.6490, 36.71118
402.8450, 11.15515
404.0420, 73.59351
405.2390, 32.05408
406.4350, 56.51831
407.6310, 60.99719
408.8270, 7.503418
410.0230, 107.9916
411.2190, 32.51770
412.4140, 31.04761
413.6090, 33.58044
414.8050, 115.1172
416.0000, 96.69519
417.1940, 32.30554
418.3890, 71.91931
419.5840, 27.55408
420.7780, 50.18970
421.9720, 20.83618
423.1660, 12.48010
424.3600, 30.88220
425.5540, 21.26453
426.7480, 95.66602
427.9410, 92.08789
429.1340, 139.5302
430.3270, 169.9929
431.5200, 196.4762
432.7130, 245.6991
433.9060, 281.1006
435.0980, 360.0498
436.2900, 380.6160
437.4830, 490.2029
438.6750, 571.8108
439.8660, 680.4396
441.0580, 812.4836
442.2500, 902.6716
443.4410, 1055.041
444.6320, 1159.663
445.8230, 1366.737
447.0140, 1527.428
448.2050, 1713.626
449.3950, 1962.522
450.5860, 2255.441
451.7760, 2660.583
452.9660, 3006.442
454.1560, 3642.583
455.3450, 4296.483
456.5350, 5003.405
457.7240, 5973.348
458.9140, 7149.311
460.1030, 8667.295
461.2920, 10559.30
462.4810, 13052.33
463.6690, 16077.37
464.8580, 19902.45
466.0460, 24314.54
467.2340, 29861.64
468.4220, 36278.78
469.6100, 43495.93
470.7970, 51501.10
471.9850, 58314.31
473.1720, 63240.52
474.3590, 63774.77
475.5460, 63059.02
476.7330, 57601.31
477.9200, 49481.61
479.1060, 40289.95
480.2930, 31565.29
481.4790, 24383.67
482.6650, 18992.06
483.8510, 14788.47
485.0370, 11956.91
486.2220, 9872.372
487.4080, 8164.855
488.5930, 6925.358
489.7780, 5975.887
490.9630, 5337.435
492.1480, 4762.006
493.3320, 4385.600
494.5170, 3987.216
495.7010, 3739.854
496.8850, 3610.515
498.0690, 3523.198
499.2530, 3347.904
500.4360, 3192.632
501.6200, 3070.383
502.8030, 2645.156
503.9860, 2426.951
505.1690, 2150.770
506.3520, 1873.611
507.5350, 1646.474
508.7170, 1408.361
509.9000, 1239.269
511.0820, 1080.200
512.2640, 1040.154
513.4460, 899.1306
514.6270, 802.1296
515.8090, 823.1511
516.9900, 761.1954
518.1710, 686.2621
519.3530, 638.3512
520.5330, 599.4629
521.7140, 544.5974
522.8950, 562.7542
524.0750, 518.9338
525.2550, 591.1357
526.4350, 568.3606
527.6150, 615.6078
528.7950, 631.8777
529.9750, 709.1721
531.1540, 824.4890
532.3340, 877.8287
533.5130, 988.1910
534.6920, 1159.576
535.8700, 1291.984
537.0490, 1470.414
538.2280, 1420.867
539.4060, 1445.100
540.5840, 1519.010
541.7620, 1685.969
542.9400, 1671.370
544.1180, 1847.284
545.2950, 2155.545
546.4720, 2540.506
547.6500, 3064.747
548.8270, 3618.686
550.0040, 4194.405
551.1800, 4998.974
552.3570, 6029.186
553.5330, 6760.529
554.7090, 7802.978
555.8850, 8304.317
557.0610, 8374.258
558.2370, 7933.237
559.4130, 7139.753
560.5880, 6054.160
561.7630, 5079.004
562.9380, 4050.674
564.1130, 3157.949
565.2880, 2341.689
566.4630, 1947.857
567.6370, 1505.036
568.8120, 1190.271
569.9860, 902.5475
571.1600, 684.8602
572.3330, 523.2026
573.5070, 394.5771
574.6810, 306.9839
575.8540, 312.4272
577.0270, 184.8994
578.2000, 136.4050
579.3730, 61.93811
580.5460, 35.50256
581.7180, 18.90015
582.8910, 23.27429
584.0630, 3.619751
585.2350, 74.93811
586.4070, 71.24841
587.5780, 36.55188
588.7500, 114.8384
589.9210, 66.13220
591.0930, 41.41956
592.2640, 15.68762
593.4350, 17.07080
594.6050, 14.14392
595.7760, 38.66418
596.9460, 100.4982
598.1170, 179.3577
599.2870, 235.2427
600.4570, 297.1534
601.6260, 423.0905
602.7960, 522.0535
603.9650, 646.0420
605.1350, 951.0564
606.3040, 1190.096
607.4730, 1381.161
608.6420, 1678.253
609.8100, 2083.374
610.9790, 2345.519
612.1470, 2693.690
613.3150, 2883.887
614.4830, 3029.112
615.6510, 3008.376
616.8190, 2858.664
617.9860, 2628.977
619.1540, 2312.316
620.3210, 1958.679
621.4880, 1718.068
622.6550, 1465.483
623.8220, 1257.923
624.9880, 1222.387
626.1550, 1073.877
627.3210, 1153.396
628.4870, 1167.941
629.6530, 1212.511
630.8190, 1330.106
631.9840, 1348.725
633.1500, 1450.370
634.3150, 1562.040
635.4800, 1442.734
636.6450, 1515.451
637.8100, 1444.192
638.9740, 1327.957
640.1390, 1230.749
641.3030, 1060.563
642.4670, 904.4033
643.6310, 734.2693
644.7950, 616.1594
645.9590, 558.0728
647.1220, 404.0105
648.2850, 413.9713
649.4490, 327.9561
650.6120, 287.9639
651.7740, 254.9939
652.9370, 208.0465
654.1000, 226.1216
655.2620, 178.2183
656.4240, 153.3383
657.5860, 171.4810
658.7480, 136.6458
659.9100, 104.8318
661.0710, 90.03992
662.2330, 171.2699
663.3940, 82.52063
664.5550, 166.7932
665.7160, 125.0878
666.8770, 110.4034
668.0370, 154.7395
669.1980, 142.3715
670.3580, 130.7515
671.5180, 134.1530
672.6780, 146.0300
673.8380, 144.0175
674.9970, 186.4797
676.1570, 177.9620
677.3160, 193.4648
678.4750, 192.9880
679.6340, 160.5330
680.7930, 175.6515
681.9520, 216.7166
683.1100, 229.1227
684.2680, 181.3015
685.4270, 245.8250
686.5850, 264.5605
687.7420, 223.8308
688.9000, 305.7817
690.0580, 312.6128
691.2150, 261.6360
692.3720, 367.5315
693.5290, 317.4818
694.6860, 319.4762
695.8430, 316.2998
696.9990, 355.6340
698.1560, 381.4012
699.3120, 372.3264
700.4680, 418.5635
701.6240, 414.7224
702.7800, 485.3848
703.9350, 485.3203
705.0900, 438.4424
706.2460, 485.5267
707.4010, 467.9700
708.5560, 479.6937
709.7110, 474.1240
710.8650, 463.0551
712.0200, 491.5792
713.1740, 466.0574
714.3280, 457.6154
715.4820, 428.5338
716.6360, 451.3730
717.7890, 429.9624
718.9430, 419.0858
720.0960, 434.2218
721.2490, 391.7841
722.4020, 363.4849
723.5550, 348.3320
724.7080, 310.3564
725.8600, 324.9960
727.0130, 342.6427
728.1650, 309.0500
729.3170, 318.5116
730.4690, 281.8082
731.6200, 343.9399
732.7720, 317.6525
733.9230, 338.9910
735.0740, 343.5602
736.2250, 386.1136
737.3760, 374.6758
738.5270, 364.2773
739.6780, 359.0132
740.8280, 357.6951
741.9780, 376.8486
743.1280, 381.7346
744.2780, 417.6715
745.4280, 427.3676
746.5770, 425.4202
747.7270, 482.7014
748.8760, 480.3411
750.0250, 505.1509
751.1740, 492.1399
752.3230, 502.2910
753.4720, 491.3435
754.6200, 498.0881
755.7680, 526.7643
756.9160, 487.6388
758.0640, 412.3257
759.2120, 449.3774
760.3600, 429.5383
761.5070, 373.2548
762.6550, 364.1431
763.8020, 353.1044
764.9490, 301.0452
766.0960, 368.2555
767.2420, 305.3539
768.3890, 279.2169
769.5350, 248.1371
770.6810, 201.2393
771.8270, 185.4814
772.9730, 240.3987
774.1190, 166.2382
775.2640, 147.9796
776.4100, 195.0632
777.5550, 155.4966
778.7000, 145.3861
779.8450, 102.6909
780.9900, 106.6443
782.1340, 144.3279
783.2790, 114.2906
784.4230, 101.5049
785.5670, 107.4209
786.7110, 91.59753
787.8550, 60.57214
788.9980, 64.39514
790.1420, 117.3568
791.2850, 64.23157
792.4280, 85.01868
793.5710, 99.13513
794.7140, 25.22009
795.8560, 121.1625
796.9990, 45.92358
798.1410, 69.92395
799.2830, 83.83655
800.4250, 24.57751
801.5670, 58.60364
802.7090, 23.63489
803.8500, 78.52844
804.9920, 14.27649
806.1330, 4.639771
807.2740, 44.56238
808.4150, 61.57727
809.5550, 8.533936
810.6960, 13.36646
811.8360, 23.10645
812.9760, 18.91199
814.1160, 24.92334
815.2560, 32.82581
816.3960, 20.78333
817.5350, 23.21704
818.6750, 4.363892
819.8140, 26.33582
820.9530, 4.441406
822.0920, 43.63452
823.2310, 10.03040
824.3690, 20.31494
825.5080, 3.398926
826.6460, 13.25537
827.7840, 4.227051
828.9220, 47.83252
830.0600, 13.30872
831.1970, 12.55127
832.3350, 23.16052
833.4720, 13.64795
834.6090, 2.875610
835.7460, 38.34790
836.8830, 13.33582
838.0190, 40.15808
839.1560, 47.18494
840.2920, 34.80603
841.4280, 21.04895
842.5640, 35.75427
843.7000, 13.58899
844.8360, 44.66724
845.9710, 23.47693
847.1070, 1.763428
848.2420, 7.878052
849.3770, 6.606567
850.5120, 23.25500
851.6460, 4.147583
852.7810, 10.73499
853.9150, 17.31335
855.0490, 3.650879
856.1830, 8.655396
857.3170, 10.63379
858.4510, 14.33008
859.5840, 8.448242
860.7180, 2.582275
861.8510, 8.316406
862.9840, 28.25696
864.1170, 5.859131
865.2500, 34.01978
866.3820, 1.943115
867.5150, 1.823120
868.6470, 24.66321
869.7790, 36.48877
870.9110, 42.78711
872.0430, 50.98022
873.1740, 50.92029
874.3060, 43.76404
875.4370, 30.55786
876.5680, 36.82251
877.6990, 42.03455
878.8300, 39.80554
879.9600, 47.60950
881.0910, 41.32117
882.2210, 20.99316
883.3510, 13.64697
884.4810, 81.28064
885.6110, 36.93652
886.7410, 27.53992
887.8700, 21.12573
888.9990, 32.21069
890.1290, 47.31238
891.2580, 79.81982
892.3860, 39.36584
893.5150, 64.93884
894.6440, 30.40417
895.7720, 25.98230
896.9000, 61.52393
898.0280, 43.94360
899.1560, 39.34644
900.2840, 4.902588
901.4110, 27.26135
902.5390, 33.60559
903.6660, 50.98376
904.7930, 47.33887
905.9200, 35.62451
907.0470, 28.89099
908.1730, 50.13708
909.3000, 58.36560
910.4260, 89.71973
911.5520, 40.10364
912.6780, 23.28009
913.8030, 56.51147
914.9290, 29.66956
916.0540, 21.82214
917.1800, 39.91577
918.3050, 52.99847
919.4300, 36.05408
920.5550, 58.13733
921.6790, 39.20972
922.8040, 54.20703
923.9280, 71.18573
925.0520, 56.14722
926.1760, 66.09009
927.3000, 77.12183
928.4230, 45.03113
929.5470, 47.92383
930.6700, 59.89514
931.7930, 84.74951
932.9160, 55.58679
934.0390, 64.58453
935.1620, 95.45264
936.2840, 54.37622
937.4070, 54.14844
938.5290, 67.89441
939.6510, 89.70190
940.7730, 50.41534
941.8940, 41.83105
943.0160, 55.50049
944.1370, 60.18903
945.2580, 74.97192
946.3800, 89.58386
947.5000, 78.87878
948.6210, 56.46887
949.7420, 67.03015
950.8620, 60.59650
951.9820, 57.11414
953.1020, 69.06226
954.2220, 51.07214
955.3420, 58.75684
956.4620, 67.67554
957.5810, 79.25677
958.7000, 80.64697
959.8190, 68.51447
960.9380, 51.71832
962.0570, 42.19257
963.1760, 81.47168
964.2940, 42.78162
965.4120, 58.17877
966.5300, 23.40942
967.6480, 91.81909
968.7660, 49.74823
969.8840, 78.27643
971.0010, 50.64905
972.1190, 70.72852
973.2360, 23.98883
974.3530, 78.03223
975.4690, 27.44116
976.5860, 79.66699
977.7030, 58.00073
978.8190, 19.90210
979.9350, 92.61108
981.0510, 57.59821
982.1670, 39.07288
983.2830, 46.23975
984.3980, 33.09375
985.5130, 23.88318
986.6290, 57.28900
987.7440, 66.93958
988.8590, 66.66809
989.9730, 85.52527
991.0880, 57.08405
992.2020, 35.43530
993.3160, 56.56915
994.4300, 50.98102
995.5440, 81.35114
996.6580, 53.70587
997.7720, 68.47223
998.8850, 67.92584
999.9980, 52.67303
1001.111, 58.56091
1002.224, 66.43732
1003.337, 75.99109
1004.450, 67.43353
1005.562, 88.34058
1006.674, 55.03979
1007.786, 45.72540
1008.898, 54.36639
1010.010, 61.86804
1011.122, 65.41833
1012.233, 48.99384
1013.344, 37.53192
1014.455, 56.10529
1015.566, 65.61877
1016.677, 93.76971
1017.788, 64.68591
1018.898, 52.23792
1020.009, 62.61505
1021.119, 60.81006
1022.229, 36.83264
1023.339, 80.94745
1024.448, 71.37415
1025.558, 43.85150
1026.667, 35.12787
1027.776, 61.60266
1028.885, 27.68231
1029.994, 32.31671
1031.103, 81.74292
1032.211, 71.96234
1033.320, 23.10089
1034.428, 58.25146
1035.536, 54.12427
1036.644, 41.10083
1037.751, 42.30426
1038.859, 54.44183
1039.966, 77.38904
1041.074, 61.18744
1042.181, 68.30200
1043.288, 22.48560
1044.394, 16.75757
1045.501, 66.67822
1046.607, 33.26239
1047.713, 46.46136
1048.820, 42.14050
1049.925, 57.62817
1051.031, 47.45178
1052.137, 53.43628
1053.242, 37.16785
1054.348, 35.23950
1055.453, 66.97992
1056.558, 52.91193
1057.662, 53.98535
1058.767, 57.90955
1059.871, 20.91022
1060.976, 56.29572
1062.080, 49.80719
1063.184, 22.56519
1064.288, 48.45392
1065.391, 58.51324
1066.495, 10.32190
1067.598, 28.28857
1068.701, 14.42535
1069.804, 42.52936
1070.907, 71.25977
1072.010, 24.11639
1073.112, 42.10632
1074.214, 51.74860
1075.317, 63.44409
1076.419, 32.12958
1077.521, 9.860901
1078.622, 56.70337
1079.724, 8.374084
1080.825, 36.46759
1081.926, 38.09070
1083.027, 31.81018
1084.128, 41.46179
1085.229, 48.05841
1086.329, 45.78162
1087.430, 35.31415
1088.530, 56.95898
1089.630, 67.67535
1090.730, 48.50757
1091.830, 51.33649
1092.929, 50.08521
1094.029, 5.676270
1095.128, 6.137512
1096.227, 56.94891
1097.326, 4.401367
1098.425, 39.02014
1099.523, 37.10431
1100.622, 49.94122
1101.720, 28.49725
1102.818, 53.27991
1103.916, 33.87866
1105.014, 6.639038
1106.111, 6.096863
1107.209, 31.72919
1108.306, 33.14893
1109.403, 10.00696
1110.500, 29.78772
1111.597, 4.150940
1112.694, 7.036377
1113.790, 8.845581
1114.887, 6.482849
1115.983, 38.79248
1117.079, 20.42572
1118.174, 39.98193
1119.270, 2.195984
1120.366, 45.67133
1121.461, 36.53369
1122.556, 11.41492
1123.651, 46.24689
1124.746, 10.96088
1125.841, 14.80975
1126.935, 11.36609
1128.030, 11.51611
1129.124, 6.768188
1130.218, 34.22314
1131.312, 14.10040
1132.405, 17.92566
1133.499, 10.77850
1134.592, 21.65137
1135.686, 34.52118
1136.779, 24.38715
1137.871, 33.93048
1138.964, 29.07642
1140.057, 36.86053
1141.149, 41.67731
1142.241, 44.52307
1143.334, 26.36786
1144.425, 32.15405
1145.517, 21.88953
1146.609, 24.56158
1147.700, 26.53192
1148.791, 32.36279
1149.883, 48.19336
1150.974, 51.36322
1152.064, 15.18835
1153.155, 47.01190
1154.245, 28.73767
1155.336, 12.57208
1156.426, 24.40405
1157.516, 18.82043
1158.606, 8.905396
1159.695, 22.72101
1160.785, 29.59552
1161.874, 7.097656
1162.963, 36.89471
1164.052, 29.69031
1165.141, 31.31354
1166.230, 40.11102
1167.318, 30.90295
1168.406, 46.64154
1169.495, 13.38483
1170.583, 31.17889
1171.670, 23.97278
1172.758, 65.76703
1173.846, 37.56012
1174.933, 24.20947
1176.020, 9.811218
1177.107, 4.175049
1178.194, 2.059692
1179.281, 7.083618
1180.367, 2.837280
1181.454, 10.94714
1182.540, 34.73010
1183.626, 6.521362
1184.712, 0.7348020
1185.798, 36.00122
1186.883, 33.79254
1187.969, 30.13275
1189.054, 13.37415
1190.139, 13.16443
1191.224, 7.152466
1192.309, 16.36621
1193.393, 7.414001
1194.478, 33.09644
1195.562, 13.87860
1196.646, 10.66016
1197.730, 1.735229
1198.814, 2.050781
1199.897, 8.377991
1200.981, 7.394775
1202.064, 16.17499
1203.147, 32.87549
1204.230, 8.652344
1205.313, 4.566223
1206.396, 20.21515
1207.478, 42.95874
1208.560, 13.58960
1209.642, 43.37329
1210.724, 37.45667
1211.806, 29.22693
1212.888, 30.00751
1213.969, 26.75476
1215.051, 28.55237
1216.132, 29.34155
1217.213, 39.13165
1218.294, 47.91748
1219.374, 54.71063
1220.455, 63.50476
1221.535, 67.29944
1222.616, 89.09467
1223.696, 82.76135
1224.775, 91.55804
1225.855, 72.23383
1226.935, 78.03595
1228.014, 62.70752
1229.093, 82.51367
1230.172, 37.32373
1231.251, 64.13416
1232.330, 47.03497
1233.408, 72.84967
1234.487, 38.66589
1235.565, 67.38916
1236.643, 27.84070
1237.721, 36.66150
1238.799, 16.48480
1239.876, 53.23712
1240.954, 50.06183
1242.031, 44.79712
1243.108, 35.54626
1244.185, 25.30518
1245.262, 13.22290
1246.338, 18.60352
1247.415, 27.41272
1248.491, 69.24268
1249.567, 54.90460
1250.643, 34.73590
1251.719, 25.56787
1252.795, 53.37085
1253.870, 41.27954
1254.945, 73.43823
1256.021, 16.24194
1257.096, 50.46478
1258.170, 18.25842
1259.245, 47.03418
1260.320, 76.87225
1261.394, 65.68225
1262.468, 78.37531
1263.542, 58.31042
1264.616, 69.15149
1265.690, 60.99310
1266.763, 54.83551
1267.836, 78.67865
1268.910, 45.52264
1269.983, 55.36786
1271.055, 15.21393
1272.128, 22.06091
1273.201, 31.90863
1274.273, 48.75751
1275.345, 35.60767
1276.417, 65.45892
1277.489, 2.311035
1278.561, 14.16418
1279.632, 9.981567
1280.704, 6.870361
1281.775, 42.71973
1282.846, 11.57361
1283.917, 28.42902
1284.988, 52.27429
1286.058, 27.13171
1287.129, 22.98590
1288.199, 43.82312
1289.269, 44.68451
1290.339, 30.87616
1291.409, 17.71405
1292.478, 35.58051
1293.548, 31.44891
1294.617, 9.319397
1295.686, 39.19122
1296.755, 42.06439
1297.824, 30.93921
1298.893, 31.81561
1299.961, 34.69342
1301.029, 32.57275
1302.097, 31.45349
1303.165, 27.33569
1304.233, 28.51691
1305.301, 59.10583
1306.368, 31.97070
1307.436, 40.75702
1308.503, 47.64038
1309.570, 9.491211
1310.637, 17.40179
1311.703, 43.29749
1312.770, 64.18457
1313.836, 30.02094
1314.902, 37.91937
1315.968, 48.81897
1317.034, 8.719971
1318.100, 29.62225
1319.165, 37.52588
1320.231, 52.12311
1321.296, 44.25537
1322.361, 31.16357
1323.426, 32.37244
1324.491, 31.28394
1325.555, 26.72656
1326.620, 51.55957
1327.684, 45.38440
1328.748, 14.94672
1329.812, 32.86743
1330.875, 21.78973
1331.939, 36.71393
1333.002, 38.63977
1334.066, 24.38171
1335.129, 16.31073
1336.192, 60.24146
1337.254, 20.17389
1338.317, 30.10785
1339.379, 26.04651
1340.442, 7.987000
1341.504, 11.92902
1342.566, 8.872864
1343.628, 16.81836
1344.689, 22.76550
1345.751, 36.71436
1346.812, 13.66479
1347.873, 29.61414
1348.934, 51.56519
1349.995, 19.51801
1351.055, 17.84418
1352.116, 40.80042
1353.176, 9.758911
1354.236, 21.71973
1355.296, 9.682251
1356.356, 22.76703
1357.416, 30.73364
1358.475, 29.54211
1359.535, 3.327698
1360.594, 32.99976
1361.653, 21.97314
1362.712, 13.94836
1363.770, 30.92578
1364.829, 7.906799
1365.887, 27.88959
1366.945, 45.87433
1368.003, 23.86115
1369.061, 37.84998
1370.119, 23.84094
1371.177, 33.83417
1372.234, 16.82959
1373.291, 22.28851
1374.348, 9.289429
1375.405, 8.292297
1376.462, 15.29712
1377.518, 6.657898
1378.575, 37.31451
1379.631, 0.6738280
1380.687, 2.659973
1381.743, 10.64728
1382.799, 13.36084
1383.854, 38.37109
1384.910, 50.38605
1385.965, 54.27722
1387.020, 39.42261
1388.075, 43.44415
1389.130, 36.46790
1390.184, 21.49371
1391.239, 45.52191
1392.293, 22.55225
1393.347, 36.58478
1394.401, 46.61951
1395.455, 11.65192
1396.509, 64.68658
1397.562, 47.72339
1398.615, 19.76074
1399.669, 17.80035
1400.722, 47.83710
1401.774, 27.87585
1402.827, 32.91687
1403.879, 26.96002
1404.932, 31.03790
1405.984, 8.085266
1407.036, 57.75586
1408.088, 2.807495
1409.139, 47.86145
1410.191, 44.91754
1411.242, 57.97601
1412.294, 17.03699
1413.345, 38.13928
1414.395, 43.20978
1415.446, 50.28284
1416.497, 15.41071
1417.547, 19.49634
1418.597, 14.59985
1419.647, 39.83698
1420.697, 2.932068
1421.747, 48.03070
1422.796, 42.13190
1423.846, 31.23700
1424.895, 55.34607
1425.944, 46.45935
1426.993, 45.57538
1428.042, 83.69360
1429.090, 0.8157350
1430.139, 61.93378
1431.187, 25.08350
1432.235, 26.20966
1433.283, 7.339600
1434.331, 36.62451
1435.378, 6.770386
1436.426, 37.64581
1437.473, 13.02368
1438.520, 10.74573
1439.567, 22.81750
1440.614, 7.892395
1441.661, 42.97009
1442.707, 32.05200
1443.753, 25.14532
1444.799, 8.238892
1445.845, 6.630981
1446.891, 33.42932
1447.937, 10.53229
1448.982, 8.361694
1450.028, 14.74933
1451.073, 13.13654
1452.118, 18.98071
1453.163, 36.10101
1454.207, 41.22449
1455.252, 57.49512
1456.296, 34.48077
1457.340, 62.61377
1458.384, 38.74622
1459.428, 20.88177
1460.472, 20.01996
1461.515, 29.16064
1462.559, 34.18359
1463.602, 40.32556
1464.645, 55.47070
1465.688, 3.619019
1466.731, 35.77039
1467.773, 11.92493
1468.816, 46.08569
1469.858, 29.25287
1470.900, 45.42322
1471.942, 41.56934
1472.983, 37.12646
1474.025, 53.29926
1475.066, 15.47540
1476.108, 9.345154
1477.149, 54.83746
1478.190, 27.02338
1479.230, 11.21265
1480.271, 49.40527
1481.311, 3.398621
1482.352, 63.80096
1483.392, 10.00421
1484.432, 50.21088
1485.472, 8.576294
1486.511, 30.64301
1487.551, 29.86615
1488.590, 26.09290
1489.629, 10.32324
1490.668, 16.55634
1491.707, 21.04260
1492.745, 17.14813
1493.784, 28.78088
1494.822, 20.51373
1495.860, 43.76062
1496.898, 48.01062
1497.936, 49.26318
1498.974, 63.51727
1500.011, 24.77509
1501.049, 64.03754
1502.086, 34.30853
1503.123, 42.58545
1504.160, 44.86798
1505.196, 28.15649
1506.233, 67.79578
1507.269, 35.90088
1508.305, 33.17175
1509.341, 77.44733
1510.377, 21.72748
1511.413, 19.01245
1512.449, 46.30225
1513.484, 39.59998
1514.519, 31.90289
1515.554, 61.21118
1516.589, 27.52454
1517.624, 85.84363
1518.658, 53.18396
1519.693, 30.46039
1520.727, 73.78717
1521.761, 48.11926
1522.795, 44.08423
1523.829, 37.41681
1524.862, 36.58881
1525.896, 69.89734
1526.929, 45.20831
1527.962, 49.52155
1528.995, 2.836731
1530.028, 11.15375
1531.060, 33.47247
1532.093, 46.79254
1533.125, 50.94122
1534.157, 37.43353
1535.189, 45.80212
1536.221, 33.19855
1537.253, 4.600891
1538.284, 56.00879
1539.316, 21.42188
1540.347, 2.839722
1541.378, 29.28778
1542.408, 12.77081
1543.439, 2.713745
1544.470, 36.88629
1545.500, 19.51471
1546.530, 27.92474
1547.560, 23.60846
1548.590, 38.33704
1549.620, 22.11371
1550.649, 28.54144
1551.679, 49.80688
1552.708, 59.48492
1553.737, 33.34259
1554.766, 19.03558
1555.794, 32.71667
1556.823, 48.35608
1557.851, 2.038696
1558.879, 29.23260
1559.907, 21.23358
1560.935, 0.1234740
1561.963, 0.0000000E+00
##END=



