##NAMES=Baddeleyite
##RRUFFID=R060016
##IDEAL CHEMISTRY=Zr^4+^O_2_
##LOCALITY=Wet Loo, Myanmar
##OWNER=RRUFF
##SOURCE=American Museum of Natural History
##DESCRIPTION=Brown crystal fragment
##STATUS=The identification of this mineral has been confirmed by X-ray diffraction and chemical analysis
##URL=rruff.info/R060016
##MEASURED CHEMISTRY=(Zr_0.99_Ti_0.01_)_Î£=1_O_2_
##PIN_ID=M00302
##ORIENTATION=Laser parallel to a* (1 0 0). Fiducial mark perpendicular to laser is parallel to b [0 1 0]
40.39300, 0.0000000E+00
41.63700, 0.2571720
42.88100, 11.13220
44.12400, 11.47733
45.36700, 28.32346
46.61100, 35.53708
47.85400, 29.21982
49.09700, 29.55682
50.33900, 62.95825
51.58200, 65.66663
52.82400, 65.19879
54.06700, 91.35306
55.30900, 82.52747
56.55100, 92.22922
57.79200, 95.46640
59.03400, 113.4256
60.27600, 143.6638
61.51700, 158.5158
62.75800, 181.2491
63.99900, 169.2554
65.24000, 135.8903
66.48100, 130.7956
67.72100, 108.9649
68.96100, 83.39209
70.20200, 64.07239
71.44200, 53.00223
72.68200, 41.17981
73.92100, 24.60345
75.16100, 6.271118
76.40000, 0.8194270
77.64000, 17.67090
78.87900, 29.28946
80.11800, 33.68433
81.35600, 27.86514
82.59500, 40.84186
83.83400, 50.62488
85.07200, 37.22400
86.31000, 14.64853
87.54800, 19.09100
88.78600, 70.98285
90.02400, 144.0198
91.26100, 278.2000
92.49800, 501.5225
93.73600, 771.9868
94.97300, 1120.592
96.21000, 1620.338
97.44600, 2387.223
98.68300, 3430.249
99.91900, 4406.417
101.1560, 4953.730
102.3920, 5207.194
103.6280, 4900.811
104.8630, 4352.578
106.0990, 3467.495
107.3350, 2699.560
108.5700, 2011.770
109.8050, 1514.125
111.0400, 1267.621
112.2750, 1172.259
113.5100, 1025.037
114.7440, 1005.944
115.9780, 967.9527
117.2130, 896.0553
118.4470, 916.2448
119.6810, 886.5143
120.9140, 846.8579
122.1480, 869.2699
123.3810, 806.7463
124.6150, 824.2795
125.8480, 801.8616
127.0810, 776.4893
128.3130, 796.1646
129.5460, 760.8847
130.7790, 805.6467
132.0110, 779.4436
133.2430, 765.2568
134.4750, 733.0642
135.7070, 725.8754
136.9380, 798.6880
138.1700, 782.5583
139.4010, 746.5105
140.6330, 790.5463
141.8640, 727.6669
143.0950, 781.8730
144.3250, 826.1648
145.5560, 851.5428
146.7860, 821.0074
148.0160, 844.5583
149.2470, 841.1958
150.4760, 903.9197
151.7060, 909.7297
152.9360, 931.6266
154.1650, 974.6108
155.3950, 1054.684
156.6240, 1084.866
157.8530, 1194.177
159.0820, 1209.593
160.3100, 1347.165
161.5390, 1532.901
162.7670, 1685.783
163.9950, 1951.786
165.2230, 2463.884
166.4510, 3223.073
167.6790, 4051.347
168.9060, 4774.698
170.1340, 5197.124
171.3610, 5993.627
172.5880, 7373.207
173.8150, 8969.863
175.0420, 10304.60
176.2690, 11396.40
177.4950, 12284.29
178.7210, 13078.24
179.9470, 14141.28
181.1730, 14248.38
182.3990, 13705.56
183.6250, 13334.82
184.8500, 14524.14
186.0760, 17840.54
187.3010, 20996.02
188.5260, 22465.89
189.7510, 23200.68
190.9750, 22520.45
192.2000, 20582.18
193.4240, 17022.87
194.6490, 12847.53
195.8730, 8651.111
197.0970, 5518.633
198.3200, 3736.160
199.5440, 2842.628
200.7670, 2323.016
201.9910, 2058.413
203.2140, 1785.773
204.4370, 1572.118
205.6590, 1446.398
206.8820, 1315.585
208.1050, 1244.659
209.3270, 1188.627
210.5490, 1119.539
211.7710, 1128.514
212.9930, 1077.467
214.2150, 1075.553
215.4360, 1023.637
216.6570, 1024.648
217.8790, 986.5983
219.1000, 1021.598
220.3210, 1042.608
221.5410, 1018.454
222.7620, 912.8542
223.9820, 862.2026
225.2030, 795.8389
226.4230, 759.0847
227.6430, 737.3997
228.8620, 735.4187
230.0820, 648.9634
231.3010, 672.1669
232.5210, 629.3734
233.7400, 671.7317
234.9590, 610.3169
236.1780, 588.9971
237.3960, 636.7639
238.6150, 566.6216
239.8330, 654.5532
241.0510, 601.5648
242.2690, 618.6455
243.4870, 572.7908
244.7050, 624.0024
245.9230, 681.2756
247.1400, 584.6099
248.3570, 618.0048
249.5740, 671.4596
250.7910, 612.9736
252.0080, 669.5466
253.2240, 684.1777
254.4410, 594.8667
255.6570, 699.6125
256.8730, 717.4153
258.0890, 733.2737
259.3050, 826.1877
260.5210, 731.1569
261.7360, 686.1808
262.9510, 749.2587
264.1670, 752.3906
265.3820, 670.5762
266.5960, 697.0349
267.8110, 774.3271
269.0260, 774.7590
270.2400, 803.5742
271.4540, 805.5057
272.6680, 910.3245
273.8820, 955.0710
275.0960, 1001.998
276.3090, 1065.980
277.5230, 1126.738
278.7360, 1172.764
279.9490, 1259.981
281.1620, 1334.500
282.3750, 1390.761
283.5880, 1508.420
284.8000, 1709.249
286.0120, 1798.031
287.2240, 2127.263
288.4360, 2269.739
289.6480, 2484.580
290.8600, 2755.799
292.0710, 3234.140
293.2830, 3677.513
294.4940, 4282.935
295.7050, 5074.408
296.9160, 5921.926
298.1260, 6965.494
299.3370, 8035.110
300.5470, 9173.772
301.7580, 10289.48
302.9680, 11305.24
304.1770, 12021.04
305.3870, 12663.89
306.5970, 12667.79
307.8060, 12082.73
309.0150, 11144.71
310.2250, 9858.737
311.4340, 8402.806
312.6420, 7017.918
313.8510, 5932.075
315.0590, 4979.272
316.2680, 4369.513
317.4760, 3886.794
318.6840, 3579.117
319.8920, 3257.483
321.0990, 3110.890
322.3070, 3053.336
323.5140, 3028.823
324.7210, 2958.352
325.9280, 3013.920
327.1350, 2999.529
328.3420, 3172.176
329.5490, 3360.864
330.7550, 3631.589
331.9610, 3992.355
333.1670, 4471.159
334.3730, 5291.006
335.5790, 6348.896
336.7840, 7931.829
337.9900, 9765.804
339.1950, 11438.82
340.4000, 13382.89
341.6050, 15664.99
342.8100, 18198.14
344.0150, 20601.35
345.2190, 22122.59
346.4230, 22934.87
347.6280, 22753.21
348.8320, 21090.59
350.0350, 18582.01
351.2390, 15498.48
352.4430, 12011.99
353.6460, 9295.560
354.8490, 7302.171
356.0520, 5748.832
357.2550, 4651.539
358.4580, 3673.296
359.6600, 3279.100
360.8630, 2813.952
362.0650, 2576.851
363.2670, 2412.798
364.4690, 2371.794
365.6710, 2428.838
366.8720, 2642.931
368.0740, 2877.072
369.2750, 3305.810
370.4760, 3802.958
371.6770, 4238.802
372.8780, 4770.931
374.0780, 5707.809
375.2790, 6322.392
376.4790, 6899.038
377.6790, 7039.627
378.8790, 6948.772
380.0790, 6596.166
381.2790, 5946.706
382.4780, 5115.384
383.6780, 4198.252
384.8770, 3519.694
386.0760, 2961.737
387.2750, 2392.933
388.4730, 1936.688
389.6720, 1625.647
390.8700, 1328.643
392.0690, 1029.675
393.2670, 878.7439
394.4650, 679.8479
395.6620, 575.9880
396.8600, 485.1633
398.0570, 393.3745
399.2550, 316.6206
400.4520, 238.9016
401.6490, 273.2175
402.8450, 128.5679
404.0420, 157.9531
405.2390, 137.3723
406.4350, 51.82568
407.6310, 96.31274
408.8270, 71.83374
410.0230, 12.61182
411.2190, 38.97266
412.4140, 4.409912
413.6090, 49.76123
414.8050, 22.09399
416.0000, 91.39990
417.1940, 9.704346
418.3890, 14.97949
419.5840, 68.22681
420.7780, 84.46484
421.9720, 104.7002
423.1660, 88.94214
424.3600, 93.18433
425.5540, 86.29370
426.7480, 49.67358
427.9410, 51.90454
429.1340, 49.12256
430.3270, 3.327148
431.5200, 22.50366
432.7130, 8.657959
433.9060, 28.78613
435.0980, 3.104980
436.2900, 22.02490
437.4830, 12.97412
438.6750, 25.95239
439.8660, 43.95972
441.0580, 105.9958
442.2500, 81.06055
443.4410, 105.1538
444.6320, 83.27515
445.8230, 119.0178
447.0140, 201.6023
448.2050, 219.8076
449.3950, 263.0403
450.5860, 373.3005
451.7760, 363.5879
452.9660, 414.9026
454.1560, 535.2441
455.3450, 646.6123
456.5350, 711.0071
457.7240, 957.4285
458.9140, 1121.876
460.1030, 1337.350
461.2920, 1741.849
462.4810, 2149.374
463.6690, 2738.926
464.8580, 3152.502
466.0460, 3926.104
467.2340, 4685.731
468.4220, 5450.383
469.6100, 6111.060
470.7970, 6647.761
471.9850, 7365.487
473.1720, 7541.238
474.3590, 7605.013
475.5460, 7097.811
476.7330, 6339.635
477.9200, 5279.481
479.1060, 4226.353
480.2930, 3247.246
481.4790, 2439.163
482.6650, 1882.104
483.8510, 1383.066
485.0370, 1058.053
486.2220, 854.0613
487.4080, 769.0923
488.5930, 598.1458
489.7780, 480.2214
490.9630, 492.3186
492.1480, 433.4377
493.3320, 379.5784
494.5170, 411.7402
495.7010, 426.9231
496.8850, 379.1272
498.0690, 424.3518
499.2530, 457.5969
500.4360, 415.8625
501.6200, 403.1479
502.8030, 399.4536
503.9860, 219.7786
505.1690, 236.1230
506.3520, 181.4871
507.5350, 37.86987
508.7170, 47.27148
509.9000, 71.30835
511.0820, 5.913818
512.2640, 12.51562
513.4460, 61.11792
514.6270, 64.74243
515.8090, 95.38892
516.9900, 70.07446
518.1710, 69.78809
519.3530, 30.53003
520.5330, 76.28174
521.7140, 98.06299
522.8950, 62.88525
524.0750, 82.73340
525.2550, 11.61768
526.4350, 39.50464
527.6150, 6.591553
528.7950, 31.69238
529.9750, 15.82153
531.1540, 58.96045
532.3340, 71.12842
533.5130, 53.32153
534.6920, 121.5342
535.8700, 111.7651
537.0490, 100.0144
538.2280, 194.2849
539.4060, 161.5759
540.5840, 177.8918
541.7620, 116.2227
542.9400, 119.5803
544.1180, 102.9570
545.2950, 218.3584
546.4720, 245.7800
547.6500, 297.2153
548.8270, 283.6641
550.0040, 351.1255
551.1800, 348.6011
552.3570, 377.8696
553.5330, 433.3770
554.7090, 477.8259
555.8850, 486.9592
557.0610, 444.0442
558.2370, 406.3083
559.4130, 370.7100
560.5880, 347.2065
561.7630, 324.2766
562.9380, 287.7881
564.1130, 274.2910
565.2880, 212.5610
566.4630, 166.5984
567.6370, 177.9600
568.8120, 84.99780
569.9860, 162.9302
571.1600, 97.97266
572.3330, 62.63452
573.5070, 49.74341
574.6810, 48.29980
575.8540, 58.16650
577.0270, 60.97510
578.2000, 80.38306
579.3730, 79.91016
580.5460, 110.5190
581.7180, 79.39062
582.8910, 62.27368
584.0630, 48.16846
585.2350, 92.07642
586.4070, 65.99683
587.5780, 91.56689
588.7500, 186.8701
589.9210, 151.8225
591.0930, 183.7854
592.2640, 272.7595
593.4350, 318.7437
594.6050, 281.7378
595.7760, 365.7417
596.9460, 461.7554
598.1170, 553.7786
599.2870, 666.8113
600.4570, 776.8530
601.6260, 851.9045
602.7960, 985.9656
603.9650, 1237.036
605.1350, 1323.115
606.3040, 1562.204
607.4730, 1835.302
608.6420, 2028.409
609.8100, 2173.525
610.9790, 2376.652
612.1470, 2525.788
613.3150, 2573.932
614.4830, 2602.086
615.6510, 2588.247
616.8190, 2479.417
617.9860, 2246.596
619.1540, 2045.786
620.3210, 1913.984
621.4880, 1707.191
622.6550, 1622.406
623.8220, 1512.632
624.9880, 1575.869
626.1550, 1560.114
627.3210, 1637.370
628.4870, 1826.633
629.6530, 1908.903
630.8190, 2065.180
631.9840, 2159.463
633.1500, 2285.753
634.3150, 2407.049
635.4800, 2405.352
636.6450, 2423.661
637.8100, 2280.976
638.9740, 2099.295
640.1390, 1888.621
641.3030, 1625.951
642.4670, 1441.287
643.6310, 1162.629
644.7950, 966.9763
645.9590, 855.3286
647.1220, 712.6873
648.2850, 617.2697
649.4490, 585.4316
650.6120, 497.8324
651.7740, 438.7842
652.9370, 465.2664
654.1000, 394.1984
655.2620, 366.4347
656.4240, 291.3667
657.5860, 340.7478
658.7480, 313.0961
659.9100, 295.7600
661.0710, 240.1997
662.2330, 308.2046
663.3940, 284.0505
664.5550, 211.5416
665.7160, 247.2554
666.8770, 208.0999
668.0370, 222.6694
669.1980, 250.6227
670.3580, 254.0103
671.5180, 271.5905
672.6780, 299.4598
673.8380, 273.0134
674.9970, 327.3079
676.1570, 267.5767
677.3160, 321.6716
678.4750, 305.5516
679.6340, 301.4825
680.7930, 346.2798
681.9520, 359.7452
683.1100, 369.5027
684.2680, 369.6243
685.4270, 389.6041
686.5850, 406.5265
687.7420, 470.9087
688.9000, 467.4550
690.0580, 509.3271
691.2150, 571.8796
692.3720, 559.8984
693.5290, 591.1670
694.6860, 680.2036
695.8430, 643.5059
696.9990, 646.3438
698.1560, 646.2657
699.3120, 701.2734
700.4680, 744.3782
701.6240, 803.2227
702.7800, 832.5842
703.9350, 870.1375
705.0900, 873.3481
706.2460, 903.4156
707.4010, 864.4634
708.5560, 819.3655
709.7110, 846.1569
710.8650, 802.8785
712.0200, 780.5343
713.1740, 772.6011
714.3280, 714.6182
715.4820, 710.5471
716.6360, 672.3423
717.7890, 632.1597
718.9430, 664.9543
720.0960, 569.7026
721.2490, 596.5400
722.4020, 469.3950
723.5550, 515.6313
724.7080, 484.6851
725.8600, 430.4305
727.0130, 399.2284
728.1650, 452.9719
729.3170, 469.7144
730.4690, 427.6516
731.6200, 441.3916
732.7720, 429.9211
733.9230, 377.8707
735.0740, 409.6062
736.2250, 373.3398
737.3760, 345.0719
738.5270, 356.8019
739.6780, 367.5303
740.8280, 357.4491
741.9780, 371.1732
743.1280, 383.0302
744.2780, 390.2534
745.4280, 386.7944
746.5770, 414.5092
747.7270, 451.4318
748.8760, 460.5920
750.0250, 373.5570
751.1740, 449.6569
752.3230, 395.5731
753.4720, 336.2710
754.6200, 363.3097
755.7680, 363.1299
756.9160, 363.9817
758.0640, 405.7830
759.2120, 354.8154
760.3600, 363.8900
761.5070, 278.3337
762.6550, 287.9006
763.8020, 291.1669
764.9490, 292.6444
766.0960, 198.6295
767.2420, 218.3536
768.3890, 182.2478
769.5350, 170.9773
770.6810, 182.7930
771.8270, 159.7010
772.9730, 176.4464
774.1190, 155.2026
775.2640, 134.9026
776.4100, 140.5883
777.5550, 88.19971
778.7000, 142.8060
779.8450, 40.55737
780.9900, 92.56445
782.1340, 108.2283
783.2790, 100.8942
784.4230, 47.91565
785.5670, 27.65491
786.7110, 96.22876
787.8550, 26.79700
788.9980, 17.43921
790.1420, 91.03296
791.2850, 20.66150
792.4280, 3.512573
793.5710, 65.09802
794.7140, 20.77966
795.8560, 24.42786
796.9990, 8.191162
798.1410, 2.015137
799.2830, 5.774780
800.4250, 9.476196
801.5670, 49.24963
802.7090, 4.109497
803.8500, 33.16748
804.9920, 8.179199
806.1330, 54.08167
807.2740, 4.224487
808.4150, 42.48340
809.5550, 30.82642
810.6960, 9.197998
811.8360, 4.557983
812.9760, 3.896973
814.1160, 17.24927
815.2560, 13.52100
816.3960, 29.98145
817.5350, 13.52917
818.6750, 37.97046
819.8140, 10.50354
820.9530, 31.99268
822.0920, 13.57532
823.2310, 23.98132
824.3690, 37.50439
825.5080, 52.14258
826.6460, 12.42908
827.7840, 55.78845
828.9220, 12.84900
830.0600, 48.49390
831.1970, 5.795288
832.3350, 0.7269290
833.4720, 18.57678
834.6090, 13.82666
835.7460, 10.18994
836.8830, 12.47400
838.0190, 21.98596
839.1560, 15.81995
840.2920, 18.39636
841.4280, 6.393677
842.5640, 13.74719
843.7000, 25.12488
844.8360, 26.97815
845.9710, 42.06982
847.1070, 6.848755
848.2420, 4.391846
849.3770, 14.44141
850.5120, 22.47742
851.6460, 29.74304
852.7810, 48.51685
853.9150, 43.52136
855.0490, 49.13123
856.1830, 60.52197
857.3170, 40.50110
858.4510, 38.46924
859.5840, 12.43311
860.7180, 23.37537
861.8510, 71.31506
862.9840, 49.24316
864.1170, 72.15308
865.2500, 64.05261
866.3820, 33.94177
867.5150, 96.81860
868.6470, 64.68506
869.7790, 62.54150
870.9110, 103.3873
872.0430, 68.22278
873.1740, 90.04773
874.3060, 101.8619
875.4370, 98.66553
876.5680, 37.45862
877.6990, 90.23926
878.8300, 43.00928
879.9600, 34.76758
881.0910, 49.51282
882.2210, 68.24634
883.3510, 37.96936
884.4810, 6.679688
885.6110, 73.37305
886.7410, 24.05542
887.8700, 38.72388
888.9990, 79.37927
890.1290, 29.02393
891.2580, 48.65491
892.3860, 2.726318
893.5150, 50.87122
894.6440, 29.45691
895.7720, 26.02869
896.9000, 5.590698
898.0280, 1.831787
899.1560, 13.69055
900.2840, 4.161011
901.4110, 32.64795
902.5390, 59.12097
903.6660, 39.58606
904.7930, 58.03455
905.9200, 47.47119
907.0470, 37.93506
908.1730, 55.34595
909.3000, 53.74475
910.4260, 60.20410
911.5520, 61.60059
912.6780, 88.96619
913.8030, 83.32080
914.9290, 52.66443
916.0540, 28.24744
917.1800, 62.56738
918.3050, 61.87561
919.4300, 26.20276
920.5550, 53.41125
921.6790, 84.66797
922.8040, 78.93933
923.9280, 66.16113
925.0520, 75.28027
926.1760, 68.50732
927.3000, 46.63452
928.4230, 79.22205
929.5470, 67.41077
930.6700, 102.4957
931.7930, 61.59717
932.9160, 58.48669
934.0390, 60.08240
935.1620, 80.91138
936.2840, 65.77258
937.4070, 57.88257
938.5290, 35.61621
939.6510, 40.73792
940.7730, 80.49976
941.8940, 50.76721
943.0160, 63.06091
944.1370, 80.98816
945.2580, 73.62073
946.3800, 62.56323
947.5000, 54.75842
948.6210, 53.97314
949.7420, 40.35510
950.8620, 93.94531
951.9820, 77.47839
953.1020, 88.13892
954.2220, 69.12451
955.3420, 45.83887
956.4620, 62.20996
957.5810, 30.73975
958.7000, 33.51550
959.8190, 31.33301
960.9380, 51.19556
962.0570, 66.72534
963.1760, 53.56787
964.2940, 48.93848
965.4120, 62.05212
966.5300, 20.39136
967.6480, 40.51123
968.7660, 74.06372
969.8840, 28.90845
971.0010, 30.32727
972.1190, 11.58875
973.2360, 68.11304
974.3530, 36.12744
975.4690, 34.57312
976.5860, 58.81042
977.7030, 50.14661
978.8190, 113.7095
979.9350, 71.21912
981.0510, 72.84058
982.1670, 15.30493
983.2830, 55.38501
984.3980, 64.64233
985.5130, 59.48792
986.6290, 52.95020
987.7440, 43.53809
988.8590, 38.09570
989.9730, 63.24805
991.0880, 55.91284
992.2020, 65.42432
993.3160, 42.90918
994.4300, 95.00378
995.5440, 41.28271
996.6580, 42.21716
997.7720, 96.76392
998.8850, 64.31555
999.9980, 83.85901
1001.111, 109.1984
1002.224, 75.72595
1003.337, 58.34607
1004.450, 91.85425
1005.562, 52.37952
1006.674, 76.87585
1007.786, 72.36475
1008.898, 59.84583
1010.010, 71.31934
1011.122, 69.59277
1012.233, 55.05127
1013.344, 46.36719
1014.455, 53.57202
1015.566, 50.95764
1016.677, 51.52466
1017.788, 60.56018
1018.898, 52.26575
1020.009, 50.67444
1021.119, 48.68005
1022.229, 66.85938
1023.339, 66.24707
1024.448, 86.28418
1025.558, 73.52954
1026.667, 93.73340
1027.776, 82.97742
1028.885, 75.43579
1029.994, 34.96228
1031.103, 52.54443
1032.211, 41.98230
1033.320, 32.71045
1034.428, 50.21716
1035.536, 54.20605
1036.644, 31.44568
1037.751, 75.50500
1038.859, 84.71851
1039.966, 21.83545
1041.074, 61.84973
1042.181, 70.01587
1043.288, 14.63245
1044.394, 25.82312
1045.501, 80.01758
1046.607, 80.27698
1047.713, 40.53088
1048.820, 2.370850
1049.925, 42.14697
1051.031, 46.31067
1052.137, 21.46155
1053.242, 14.75378
1054.348, 40.29810
1055.453, 24.50513
1056.558, 36.70691
1057.662, 84.84607
1058.767, 26.03003
1059.871, 76.17749
1060.976, 28.13647
1062.080, 30.31860
1063.184, 75.14343
1064.288, 28.56567
1065.391, 27.63550
1066.495, 52.13550
1067.598, 22.19116
1068.701, 46.35242
1069.804, 51.45129
1070.907, 23.47876
1072.010, 25.30530
1073.112, 8.183472
1074.214, 20.32751
1075.317, 37.32812
1076.419, 30.43445
1077.521, 38.60046
1078.622, 22.77307
1079.724, 56.91858
1080.825, 51.41895
1081.926, 28.13599
1083.027, 58.14514
1084.128, 54.32556
1085.229, 44.51318
1086.329, 19.69861
1087.430, 12.89355
1088.530, 6.027588
1089.630, 2.232300
1090.730, 4.896484
1091.830, 41.34827
1092.929, 19.39624
1094.029, 38.57312
1095.128, 56.77356
1096.227, 20.95959
1097.326, 52.13525
1098.425, 30.34961
1099.523, 5.361694
1100.622, 11.53296
1101.720, 7.253662
1102.818, 2.831665
1103.916, 58.93054
1105.014, 30.88757
1106.111, 20.09802
1107.209, 37.26709
1108.306, 12.57056
1109.403, 37.64124
1110.500, 21.14771
1111.597, 26.06104
1112.694, 24.26843
1113.790, 20.47400
1114.887, 18.49695
1115.983, 48.70374
1117.079, 9.095581
1118.174, 33.10022
1119.270, 34.29492
1120.366, 16.48694
1121.461, 11.34473
1122.556, 19.15991
1123.651, 37.01404
1124.746, 21.18665
1125.841, 23.35107
1126.935, 8.523193
1128.030, 7.315674
1129.124, 0.8437500
1130.218, 40.00903
1131.312, 36.17285
1132.405, 34.33545
1133.499, 26.49768
1134.592, 1.341553
1135.686, 46.81689
1136.779, 3.974976
1137.871, 13.13171
1138.964, 16.28735
1140.057, 64.44202
1141.149, 21.59558
1142.241, 42.74829
1143.334, 87.90100
1144.425, 71.05273
1145.517, 71.20435
1146.609, 80.35620
1147.700, 81.50781
1148.791, 73.65869
1149.883, 41.81006
1150.974, 29.21948
1152.064, 28.14954
1153.155, 8.526855
1154.245, 40.68176
1155.336, 30.83606
1156.426, 54.99158
1157.516, 38.14722
1158.606, 20.30762
1159.695, 0.4683840
1160.785, 3.833984
1161.874, 1.756592
1162.963, 20.95459
1164.052, 17.12463
1165.141, 40.29236
1166.230, 47.46838
1167.318, 13.64563
1168.406, 30.81946
1169.495, 33.99817
1170.583, 69.17737
1171.670, 37.31738
1172.758, 32.49866
1173.846, 10.31946
1174.933, 4.788208
1176.020, 6.947876
1177.107, 37.41223
1178.194, 2.592041
1179.281, 18.77209
1180.367, 14.29871
1181.454, 10.87830
1182.540, 22.05603
1183.626, 49.20398
1184.712, 24.45825
1185.798, 1.640503
1186.883, 32.81006
1187.969, 84.99329
1189.054, 18.17737
1190.139, 27.35950
1191.224, 46.54504
1192.309, 13.73218
1193.393, 15.07983
1194.478, 5.897095
1195.562, 10.28406
1196.646, 10.53357
1197.730, 11.64612
1198.814, 11.81445
1199.897, 20.99634
1200.981, 13.17932
1202.064, 34.36072
1203.147, 1.547485
1204.230, 36.67249
1205.313, 4.851807
1206.396, 28.04382
1207.478, 63.23706
1208.560, 47.43115
1209.642, 29.62610
1210.724, 30.82227
1211.806, 10.01953
1212.888, 78.21814
1213.969, 62.41821
1215.051, 79.61926
1216.132, 41.82092
1217.213, 57.02368
1218.294, 116.1998
1219.374, 49.34961
1220.455, 124.4763
1221.535, 123.6260
1222.616, 120.8342
1223.696, 129.0442
1224.775, 125.9719
1225.855, 129.1837
1226.935, 124.3965
1228.014, 139.6102
1229.093, 103.8247
1230.172, 38.99622
1231.251, 79.34534
1232.330, 32.17737
1233.408, 18.34436
1234.487, 88.56726
1235.565, 60.79224
1236.643, 45.01807
1237.721, 36.24500
1238.799, 9.807739
1239.876, 74.03662
1240.954, 39.06763
1242.031, 75.29846
1243.108, 61.53027
1244.185, 53.76331
1245.262, 77.97156
1246.338, 42.20740
1247.415, 22.97620
1248.491, 93.21436
1249.567, 28.45374
1250.643, 51.69409
1251.719, 50.35486
1252.795, 52.54199
1253.870, 42.78638
1254.945, 53.79468
1256.021, 31.27881
1257.096, 68.51672
1258.170, 74.39978
1259.245, 76.61035
1260.320, 47.86658
1261.394, 67.12427
1262.468, 69.38354
1263.542, 42.64404
1264.616, 100.8059
1265.690, 65.21118
1266.763, 28.45667
1267.836, 50.73181
1268.910, 52.00854
1269.983, 60.28699
1271.055, 75.56726
1272.128, 44.84888
1273.201, 74.13220
1274.273, 45.41724
1275.345, 24.70850
1276.417, 59.00146
1277.489, 54.29626
1278.561, 42.59265
1279.632, 8.109375
1280.704, 10.18787
1281.775, 6.486816
1282.846, 58.78748
1283.917, 29.08984
1284.988, 28.39429
1286.058, 21.70032
1287.129, 69.00818
1288.199, 40.31763
1289.269, 82.60022
1290.339, 36.90991
1291.409, 41.21301
1292.478, 18.52856
1293.548, 31.84546
1294.617, 31.16370
1295.686, 33.48315
1296.755, 13.80383
1297.824, 20.60645
1298.893, 7.448608
1299.961, 16.77271
1301.029, 34.09802
1302.097, 24.42444
1303.165, 47.28015
1304.233, 11.60876
1305.301, 9.061646
1306.368, 67.26636
1307.436, 34.59521
1308.503, 19.92493
1309.570, 52.56970
1310.637, 42.90234
1311.703, 54.23596
1312.770, 28.57068
1313.836, 71.91077
1314.902, 45.25256
1315.968, 52.59595
1317.034, 47.94104
1318.100, 38.28760
1319.165, 70.63599
1320.231, 13.98621
1321.296, 66.33801
1322.361, 60.99524
1323.426, 69.10168
1324.491, 53.45886
1325.555, 48.93494
1326.620, 38.94861
1327.684, 39.08215
1328.748, 14.44666
1329.812, 30.81287
1330.875, 24.18958
1331.939, 47.70020
1333.002, 49.06873
1334.066, 29.43921
1335.129, 55.81140
1336.192, 27.18469
1337.254, 5.559814
1338.317, 23.99146
1339.379, 9.370239
1340.442, 27.75085
1341.504, 36.13367
1342.566, 51.51819
1343.628, 60.90479
1344.689, 23.29321
1345.751, 31.68359
1346.812, 32.10620
1347.873, 87.47095
1348.934, 43.86792
1349.995, 57.26733
1351.055, 60.71692
1352.116, 18.87988
1353.176, 32.52112
1354.236, 49.92419
1355.296, 2.328979
1356.356, 46.73560
1357.416, 45.61096
1358.475, 5.978516
1359.535, 22.43323
1360.594, 8.848633
1361.653, 51.26611
1362.712, 10.68555
1363.770, 41.10657
1364.829, 86.52954
1365.887, 34.95435
1366.945, 39.38416
1368.003, 58.81580
1369.061, 3.254517
1370.119, 61.69495
1371.177, 30.13770
1372.234, 40.58203
1373.291, 34.06079
1374.348, 71.51367
1375.405, 53.97095
1376.462, 74.43042
1377.518, 26.89197
1378.575, 60.35571
1379.631, 5.824219
1380.687, 91.29944
1381.743, 52.77698
1382.799, 53.25671
1383.854, 38.73877
1384.910, 19.43408
1385.965, 27.70959
1387.020, 12.06250
1388.075, 18.55396
1389.130, 60.04700
1390.184, 13.54248
1391.239, 33.04236
1392.293, 5.120972
1393.347, 1.237549
1394.401, 54.56470
1395.455, 20.07178
1396.509, 32.61902
1397.562, 56.15930
1398.615, 66.66736
1399.669, 54.17786
1400.722, 9.690796
1401.774, 30.37146
1402.827, 10.89563
1403.879, 74.41602
1404.932, 13.93896
1405.984, 59.46436
1407.036, 43.74658
1408.088, 51.27686
1409.139, 68.80981
1410.191, 48.34546
1411.242, 79.97485
1412.294, 36.51599
1413.345, 56.04175
1414.395, 49.56982
1415.446, 64.10010
1416.497, 56.62451
1417.547, 29.10925
1418.597, 66.59167
1419.647, 33.07373
1420.697, 15.52087
1421.747, 55.96460
1422.796, 52.40393
1423.846, 25.83777
1424.895, 56.26526
1425.944, 41.70422
1426.993, 82.11133
1428.042, 86.17639
1429.090, 29.89771
1430.139, 98.28162
1431.187, 48.65930
1432.235, 24.74536
1433.283, 33.10840
1434.331, 63.46655
1435.378, 48.82080
1436.426, 37.17615
1437.473, 47.57495
1438.520, 38.89429
1439.567, 63.43164
1440.614, 49.97192
1441.661, 44.51550
1442.707, 6.062134
1443.753, 40.61511
1444.799, 31.17700
1445.845, 18.74646
1446.891, 42.31946
1447.937, 33.72473
1448.982, 49.47424
1450.028, 47.05615
1451.073, 32.64172
1452.118, 48.23010
1453.163, 26.82214
1454.207, 38.41772
1455.252, 38.01733
1456.296, 5.620483
1457.340, 1.772705
1458.384, 22.98523
1459.428, 29.59058
1460.472, 43.19958
1461.515, 52.62354
1462.559, 21.23303
1463.602, 0.1539310
1464.645, 20.46289
1465.688, 56.08337
1466.731, 68.70752
1467.773, 38.33496
1468.816, 23.96606
1469.858, 23.60046
1470.900, 40.23828
1471.942, 31.87952
1472.983, 40.52405
1474.025, 53.17200
1475.066, 12.82312
1476.108, 2.467041
1477.149, 33.11389
1478.190, 62.55627
1479.230, 33.19189
1480.271, 61.81921
1481.311, 47.44812
1482.352, 4.920532
1483.392, 15.69751
1484.432, 28.31750
1485.472, 38.94116
1486.511, 48.70630
1487.551, 56.67371
1488.590, 58.82593
1489.629, 68.45752
1490.668, 69.80725
1491.707, 72.02466
1492.745, 54.37061
1493.784, 69.01770
1494.822, 50.67029
1495.860, 53.32947
1496.898, 23.99609
1497.936, 12.67334
1498.974, 42.36218
1500.011, 27.06079
1501.049, 24.76904
1502.086, 64.48401
1503.123, 109.2040
1504.160, 56.92847
1505.196, 59.65759
1506.233, 54.39148
1507.269, 78.12939
1508.305, 27.87195
1509.341, 63.61902
1510.377, 63.01770
1511.413, 7.215698
1512.449, 25.55811
1513.484, 46.20251
1514.519, 39.98657
1515.554, 25.77612
1516.589, 2.571167
1517.624, 56.37170
1518.658, 18.82239
1519.693, 34.84985
1520.727, 19.66724
1521.761, 22.49487
1522.795, 68.88220
1523.829, 32.68860
1524.862, 33.50281
1525.896, 9.674805
1526.929, 29.15613
1527.962, 51.99597
1528.995, 31.84497
1530.028, 72.70312
1531.060, 30.46179
1532.093, 53.33337
1533.125, 77.21289
1534.157, 45.09998
1535.189, 19.99500
1536.221, 39.89807
1537.253, 69.61243
1538.284, 59.37341
1539.316, 66.05017
1540.347, 40.00403
1541.378, 45.87390
1542.408, 62.59863
1543.439, 77.70764
1544.470, 63.68066
1545.500, 72.03601
1546.530, 31.40137
1547.560, 65.33203
1548.590, 25.05444
1549.620, 7.548340
1550.649, 14.76086
1551.679, 35.56775
1552.708, 22.45093
1553.737, 22.40381
1554.766, 18.09839
1555.794, 16.68958
1556.823, 14.97253
1557.851, 16.93604
1558.879, 36.09839
1559.907, 13.63623
1560.935, 0.1831050
1561.963, 0.0000000E+00
##END=



