##NAMES=Barrerite
##RRUFFID=R050135
##IDEAL CHEMISTRY=Na_2_(Al_2_Si_7_)O_18_&#183;6H_2_O
##LOCALITY=Kuiu Island, Alaska, USA
##OWNER=RRUFF
##SOURCE=Ben Norton
##DESCRIPTION=Colorless laminar crystals
##STATUS=The identification of this mineral has been confirmed by X-ray diffraction and chemical analysis
##URL=rruff.info/R050135
##MEASURED CHEMISTRY=(Na_4.49_K_1.30_Ca_1.23_[box]_0.98_)_Σ=8_(Si_27.75_Al_8.25_)O_72_·19H_2_O
##PIN_ID=M00229
##ORIENTATION=Laser parallel to -a* (-1 0 0). Fiducial mark perpendicular to laser is parallel to b [0 1 0]
151.019, 0.000
152.403, 12.834
153.788, 30.356
155.171, 20.179
156.555, 119.667
157.939, 70.082
159.322, 156.764
160.705, 144.909
162.088, 351.700
163.470, 409.071
164.853, 333.847
166.235, 403.267
167.617, 281.768
168.998, 412.519
170.380, 476.214
171.761, 336.406
173.142, 348.697
174.523, 279.582
175.904, 373.652
177.284, 483.656
178.664, 318.422
180.044, 439.553
181.424, 524.535
182.803, 542.445
184.183, 517.797
185.562, 487.536
186.940, 475.411
188.319, 427.710
189.698, 333.652
191.076, 456.246
192.454, 154.378
193.831, 333.251
195.209, 250.815
196.586, 105.412
197.963, 168.326
199.340, 59.707
200.717, 50.266
202.093, 41.000
203.470, 68.111
204.846, 102.909
206.221, 24.040
207.597, 164.749
208.972, 83.479
210.347, 72.160
211.722, 49.200
213.097, 31.892
214.472, 47.915
215.846, 3.632
217.220, 15.257
218.594, 43.036
219.967, 48.757
221.341, 130.632
222.714, 152.589
224.087, 164.621
225.460, 198.916
226.832, 288.900
228.204, 221.140
229.577, 303.439
230.948, 315.801
232.320, 318.219
233.692, 510.791
235.063, 313.792
236.434, 427.165
237.805, 300.857
239.175, 484.820
240.545, 449.006
241.916, 503.366
243.286, 617.860
244.655, 432.447
246.025, 547.085
247.394, 601.744
248.763, 616.380
250.132, 800.973
251.501, 805.504
252.869, 769.965
254.237, 614.341
255.605, 788.625
256.973, 822.793
258.340, 976.829
259.708, 1050.687
261.075, 924.387
262.442, 1097.780
263.808, 1080.966
265.175, 1034.050
266.541, 1237.033
267.907, 1089.929
269.273, 1402.808
270.639, 1445.679
272.004, 1338.579
273.369, 1401.659
274.734, 1604.854
276.099, 1608.248
277.463, 1891.800
278.828, 1915.493
280.192, 2019.329
281.556, 2233.273
282.919, 2337.285
284.283, 2211.412
285.646, 2415.614
287.009, 2109.862
288.372, 2334.187
289.734, 2258.525
291.097, 2102.875
292.459, 2077.229
293.821, 1861.588
295.183, 1985.950
296.544, 1770.311
297.905, 1534.670
299.266, 1709.027
300.627, 1553.384
301.988, 1447.738
303.348, 1272.090
304.709, 1211.609
306.069, 1180.788
307.428, 1075.134
308.788, 1019.478
310.147, 933.818
311.507, 918.156
312.865, 822.489
314.224, 756.820
315.583, 893.541
316.941, 839.788
318.299, 835.491
319.657, 750.559
321.015, 775.144
322.372, 959.063
323.729, 762.490
325.086, 795.299
326.443, 697.573
327.800, 1019.250
329.156, 900.341
330.512, 840.822
331.868, 920.478
333.224, 849.865
334.579, 898.753
335.935, 916.688
337.290, 834.159
338.645, 920.757
339.999, 857.120
341.354, 893.077
342.708, 807.899
344.062, 981.985
345.416, 705.864
346.769, 899.381
348.123, 832.527
349.476, 775.231
350.829, 907.805
352.182, 690.133
353.534, 831.807
354.887, 844.244
356.239, 864.252
357.591, 936.055
358.942, 947.667
360.294, 956.760
361.645, 1037.267
362.996, 1026.189
364.347, 1125.026
365.698, 1243.779
367.048, 1286.707
368.398, 1416.864
369.748, 1445.587
371.098, 1673.035
372.448, 1925.773
373.797, 1930.020
375.146, 2100.088
376.495, 2390.248
377.844, 2546.877
379.192, 2746.898
380.540, 2937.619
381.889, 3255.051
383.236, 3455.301
384.584, 3759.606
385.932, 4032.191
387.279, 4324.830
388.626, 4797.992
389.973, 5231.146
391.319, 5681.648
392.666, 6222.626
394.012, 6732.512
395.358, 7370.015
396.704, 8024.965
398.049, 8740.304
399.394, 9793.273
400.740, 10707.087
402.084, 11668.772
403.429, 12925.690
404.774, 14380.356
406.118, 15903.310
407.462, 16833.467
408.806, 18523.283
410.150, 19298.809
411.493, 20354.098
412.836, 21036.189
414.179, 21404.992
415.522, 21133.025
416.865, 20529.104
418.207, 19678.740
419.549, 18194.178
420.891, 17129.592
422.233, 15690.033
423.575, 14305.503
424.916, 13190.500
426.257, 11835.523
427.598, 11080.662
428.939, 10045.246
430.279, 9259.814
431.619, 8594.921
432.959, 7829.258
434.299, 7284.254
435.639, 6858.651
436.978, 6302.987
438.318, 6027.320
439.657, 5711.648
440.996, 5445.974
442.334, 5360.291
443.673, 4894.607
445.011, 4858.915
446.349, 4703.219
447.687, 4917.514
449.024, 4891.803
450.361, 4926.082
451.699, 5180.352
453.036, 5454.613
454.372, 5708.865
455.709, 5683.108
457.045, 6157.342
458.381, 6691.566
459.717, 6865.780
461.053, 6929.985
462.388, 7324.178
463.724, 7038.361
465.059, 6812.535
466.394, 6266.697
467.728, 6130.851
469.063, 5414.992
470.397, 5009.123
471.731, 4573.244
473.065, 3977.354
474.398, 3641.453
475.732, 3305.541
477.065, 3119.567
478.398, 2873.533
479.731, 2757.441
481.063, 2761.294
482.396, 2745.092
483.728, 2788.840
485.060, 2662.539
486.391, 3266.190
487.723, 3389.796
489.054, 3403.361
490.385, 4126.885
491.716, 4530.373
493.047, 5293.827
494.377, 6357.248
495.708, 7290.638
497.038, 8513.999
498.368, 9207.336
499.697, 10160.651
501.027, 10203.948
502.356, 10057.225
503.685, 9480.484
505.014, 8223.734
506.342, 7066.971
507.671, 5800.400
508.999, 4773.621
510.327, 3886.835
511.655, 3120.043
512.982, 2523.246
514.310, 2197.081
515.637, 1860.362
516.964, 1693.896
518.291, 1107.095
519.617, 1040.488
520.944, 943.715
522.270, 1017.154
523.596, 690.381
524.921, 574.035
526.247, 697.656
527.572, 421.725
528.897, 375.244
530.222, 318.904
531.547, 362.701
532.871, 146.320
534.196, 229.750
535.520, 153.818
536.844, 67.424
538.167, 72.742
539.491, 17.182
540.814, 70.598
542.137, 15.732
543.460, 48.678
544.783, 62.439
546.105, 86.523
547.427, 42.572
548.749, 183.902
550.071, 72.326
551.393, 118.398
552.714, 143.115
554.035, 59.303
555.356, 13.986
556.677, 182.748
557.998, 134.523
559.318, 98.723
560.638, 268.244
561.958, 34.799
563.278, 108.018
564.597, 118.658
565.917, 85.930
567.236, 72.359
568.555, 10.252
569.874, 72.840
571.192, 103.607
572.511, 51.090
573.829, 38.631
575.147, 6.223
576.464, 63.852
577.782, 28.945
579.099, 31.217
580.416, 76.201
581.733, 16.133
583.050, 128.586
584.366, 120.973
585.683, 93.062
586.999, 225.648
588.315, 227.688
589.630, 99.705
590.946, 371.691
592.261, 123.656
593.576, 265.625
594.891, 367.541
596.206, 449.801
597.520, 381.672
598.834, 433.518
600.148, 495.461
601.462, 556.551
602.776, 579.924
604.089, 782.055
605.402, 883.955
606.715, 1025.666
608.028, 1077.354
609.341, 1169.020
610.653, 1250.660
611.965, 1382.277
613.277, 1440.604
614.589, 1465.443
615.901, 1546.990
617.212, 1528.512
618.523, 1500.012
619.834, 1575.557
621.145, 1502.936
622.456, 1624.363
623.766, 1535.766
625.076, 1437.156
626.386, 1638.523
627.696, 1499.861
629.006, 1461.180
630.315, 1482.486
631.624, 1393.770
632.933, 1305.027
634.242, 1166.262
635.551, 1197.471
636.859, 1058.654
638.167, 1149.822
639.475, 1090.963
640.783, 1052.082
642.090, 723.176
643.398, 874.250
644.705, 745.297
646.012, 806.320
647.318, 697.322
648.625, 768.299
649.931, 779.254
651.237, 490.184
652.543, 721.090
653.849, 491.975
655.155, 532.836
656.460, 483.674
657.765, 454.490
659.070, 325.283
660.375, 426.049
661.679, 246.797
662.984, 327.521
664.288, 198.221
665.592, 298.928
666.895, 279.607
668.199, 280.268
669.502, 340.902
670.805, 91.877
672.108, 222.758
673.411, 163.584
674.713, 254.131
676.016, 194.709
677.318, 235.518
678.620, 187.377
679.921, 248.166
681.223, 138.613
682.524, 149.238
683.825, 49.842
685.126, 180.197
686.427, 152.613
687.727, 132.916
689.028, 183.191
690.328, 245.355
691.628, 85.400
692.927, 195.010
694.227, 14.031
695.526, 143.229
696.825, 151.742
698.124, 244.387
699.423, 62.635
700.721, 229.836
702.020, 148.863
703.318, 224.002
704.616, 332.977
705.913, 222.393
707.211, 166.967
708.508, 28.588
709.805, 142.475
711.102, 287.900
712.399, 476.432
713.695, 34.719
714.992, 185.410
716.288, 274.156
717.584, 75.791
718.879, 332.025
720.175, 98.014
721.470, 228.891
722.765, 28.150
724.060, 321.838
725.355, 211.486
726.649, 31.199
727.944, 302.785
729.238, 637.867
730.532, 253.980
731.825, 241.572
733.119, 75.672
734.412, 413.768
735.705, 111.855
736.998, 76.619
738.291, 264.719
739.584, 123.143
740.876, 201.711
742.168, 59.943
743.460, 238.904
744.752, 327.656
746.043, 215.852
747.334, 294.785
748.626, 173.043
749.916, 311.941
751.207, 90.807
752.498, 299.648
753.788, 188.467
755.078, 147.264
756.368, 66.035
757.658, 72.262
758.947, 83.504
760.237, 132.570
761.526, 261.244
762.815, 339.896
764.104, 338.525
765.392, 217.135
766.680, 305.721
767.969, 274.285
769.257, 192.830
770.544, 391.350
771.832, 239.852
773.119, 328.330
774.406, 356.789
775.693, 295.229
776.980, 283.646
778.267, 332.043
779.553, 382.684
780.839, 321.039
782.125, 378.395
783.411, 417.689
784.697, 389.367
785.982, 457.641
787.267, 405.893
788.552, 404.127
789.837, 272.340
791.122, 470.531
792.406, 619.867
793.690, 428.018
794.974, 436.152
796.258, 524.266
797.542, 622.359
798.825, 550.434
800.108, 388.488
801.391, 476.521
802.674, 454.539
803.957, 522.537
805.239, 560.516
806.522, 358.477
807.804, 326.416
809.085, 304.340
810.367, 352.242
811.649, 410.131
812.930, 368.000
814.211, 425.850
815.492, 385.115
816.772, 331.695
818.053, 319.490
819.333, 323.977
820.613, 312.598
821.893, 139.480
823.173, 207.205
824.452, 44.912
825.732, 64.621
827.011, 73.008
828.290, 150.326
829.568, 118.494
830.847, 55.914
832.125, 3.488
833.403, 55.500
834.681, 133.043
835.959, 80.150
837.236, 77.283
838.514, 193.988
839.791, 8.775
841.068, 288.303
842.345, 125.283
843.621, 17.533
844.898, 99.836
846.174, 186.551
847.450, 136.283
848.726, 159.131
850.001, 134.059
851.277, 197.340
852.552, 169.596
853.827, 114.232
855.102, 102.531
856.376, 81.051
857.651, 75.598
858.925, 192.443
860.199, 109.072
861.473, 285.498
862.746, 49.490
864.020, 36.906
865.293, 303.781
866.566, 9.352
867.839, 172.475
869.112, 179.205
870.384, 86.125
871.656, 242.531
872.928, 110.477
874.200, 285.945
875.472, 97.102
876.744, 298.924
878.015, 14.145
879.286, 177.229
880.557, 378.641
881.828, 15.480
883.098, 2.332
884.369, 49.184
885.639, 26.037
886.909, 132.408
888.178, 99.273
889.448, 24.201
890.717, 32.197
891.987, 69.062
893.256, 11.523
894.524, 142.512
895.793, 8.840
897.061, 115.688
898.330, 202.531
899.598, 79.371
900.865, 96.211
902.133, 33.014
903.401, 169.846
904.668, 316.305
905.935, 468.738
907.202, 428.092
908.468, 786.646
909.735, 293.006
911.001, 109.393
912.267, 4.174
913.533, 292.463
914.799, 199.262
916.064, 146.059
917.330, 102.855
918.595, 89.070
919.860, 101.482
921.124, 83.232
922.389, 180.020
923.653, 136.807
924.918, 193.596
926.182, 210.385
927.445, 137.170
928.709, 103.953
929.972, 340.740
931.236, 52.477
932.499, 244.287
933.761, 81.051
935.024, 377.812
936.286, 75.422
937.549, 81.312
938.811, 228.047
940.073, 134.785
941.334, 191.523
942.596, 238.266
943.857, 34.990
945.118, 211.742
946.379, 138.480
947.640, 245.217
948.900, 241.961
950.161, 268.707
951.421, 135.459
952.681, 202.213
953.940, 188.969
955.200, 315.730
956.459, 142.492
957.719, 179.260
958.978, 206.029
960.236, 122.805
961.495, 159.582
962.753, 356.361
964.012, 43.146
965.270, 279.938
966.527, 13.268
967.785, 203.525
969.043, 380.322
970.300, 152.869
971.557, 363.885
972.814, 110.643
974.071, 27.406
975.327, 44.174
976.583, 79.418
977.840, 37.260
979.095, 203.555
980.351, 29.684
981.607, 147.023
982.862, 63.484
984.117, 121.121
985.372, 415.303
986.627, 122.055
987.882, 378.609
989.136, 125.164
990.390, 51.945
991.644, 206.652
992.898, 103.475
994.152, 190.301
995.405, 174.607
996.659, 191.389
997.912, 508.268
999.165, 45.359
1000.417, 92.271
1001.670, 479.613
1002.922, 343.072
1004.174, 420.066
1005.426, 388.844
1006.678, 115.867
1007.930, 356.859
1009.181, 183.812
1010.432, 240.914
1011.683, 278.025
1012.934, 175.201
1014.185, 578.480
1015.435, 315.441
1016.685, 522.709
1017.935, 298.482
1019.185, 525.824
1020.435, 633.201
1021.684, 400.592
1022.934, 398.000
1024.183, 618.223
1025.432, 595.740
1026.680, 646.900
1027.929, 434.455
1029.177, 470.561
1030.425, 536.869
1031.673, 494.473
1032.921, 711.854
1034.169, 668.963
1035.416, 386.525
1036.663, 674.008
1037.911, 351.684
1039.157, 569.369
1040.404, 505.371
1041.650, 752.996
1042.897, 560.760
1044.143, 738.410
1045.389, 556.270
1046.634, 763.994
1047.880, 691.934
1049.125, 779.885
1050.371, 797.916
1051.615, 745.959
1052.860, 1003.939
1054.105, 662.041
1055.349, 740.154
1056.593, 918.277
1057.837, 806.453
1059.081, 444.643
1060.325, 872.844
1061.568, 571.055
1062.812, 848.904
1064.055, 677.143
1065.298, 795.393
1066.540, 843.652
1067.783, 511.924
1069.025, 780.203
1070.267, 758.492
1071.509, 766.811
1072.751, 825.137
1073.993, 633.494
1075.234, 691.859
1076.475, 870.232
1077.716, 698.615
1078.957, 827.004
1080.198, 935.416
1081.438, 621.611
1082.679, 1040.080
1083.919, 798.607
1085.159, 1037.146
1086.398, 1122.305
1087.638, 1020.947
1088.877, 1339.594
1090.116, 928.250
1091.355, 1257.328
1092.594, 1196.004
1093.833, 1203.523
1095.071, 1282.209
1096.309, 1330.904
1097.547, 1360.350
1098.785, 1709.057
1100.023, 1207.770
1101.260, 1276.992
1102.498, 1605.717
1103.735, 1154.449
1104.972, 1733.188
1106.208, 1651.932
1107.445, 1930.680
1108.681, 1929.434
1109.918, 1768.195
1111.154, 1856.963
1112.389, 1805.738
1113.625, 1844.516
1114.860, 2033.412
1116.096, 1862.000
1117.331, 2090.797
1118.566, 2210.969
1119.800, 2142.863
1121.035, 2221.674
1122.269, 2120.488
1123.503, 2239.309
1124.737, 2378.135
1125.971, 2354.316
1127.205, 1962.350
1128.438, 2621.301
1129.671, 2079.623
1130.904, 2559.502
1132.137, 2248.369
1133.370, 2183.164
1134.602, 2552.775
1135.834, 2291.654
1137.066, 2200.809
1138.298, 2770.533
1139.530, 2209.414
1140.762, 2843.631
1141.993, 2442.549
1143.224, 2231.547
1144.455, 3005.162
1145.686, 2234.672
1146.917, 2804.240
1148.147, 3014.461
1149.377, 2153.422
1150.607, 3003.650
1151.837, 2773.672
1153.067, 2692.719
1154.296, 2828.953
1155.526, 2468.781
1156.755, 2758.609
1157.984, 2880.441
1159.213, 2649.520
1160.441, 2609.951
1161.670, 2869.801
1162.898, 2599.930
1164.126, 2919.566
1165.354, 2395.793
1166.581, 2534.840
1167.809, 2379.301
1169.036, 2079.129
1170.263, 2329.326
1171.490, 2139.350
1172.717, 1568.363
1173.943, 2158.141
1175.170, 1708.916
1176.396, 1648.406
1177.622, 1610.766
1178.848, 1469.791
1180.073, 1529.732
1181.299, 1360.527
1182.524, 1339.504
1183.749, 1298.688
1184.974, 1069.129
1186.199, 1428.051
1187.423, 1095.898
1188.648, 1035.246
1189.872, 1215.713
1191.096, 1021.793
1192.320, 730.625
1193.543, 1081.324
1194.767, 672.236
1195.990, 741.002
1197.213, 626.852
1198.436, 705.611
1199.659, 734.303
1200.881, 572.777
1202.104, 321.420
1203.326, 950.035
1204.548, 489.953
1205.770, 408.518
1206.991, 697.631
1208.213, 436.145
1209.434, 614.637
1210.655, 485.480
1211.876, 413.922
1213.096, 633.404
1214.317, 472.453
1215.537, 500.873
1216.757, 579.197
1217.977, 682.672
1219.197, 520.939
1220.417, 274.816
1221.636, 523.021
1222.855, 661.199
1224.074, 479.746
1225.293, 687.865
1226.512, 519.453
1227.731, 537.691
1228.949, 645.730
1230.167, 575.633
1231.385, 445.055
1232.603, 883.010
1233.820, 671.939
1235.038, 529.873
1236.255, 728.273
1237.472, 187.379
1238.689, 805.271
1239.906, 373.148
1241.122, 401.264
1242.338, 769.117
1243.555, 116.961
1244.771, 524.785
1245.986, 612.600
1247.202, 180.848
1248.417, 568.629
1249.633, 426.391
1250.848, 434.135
1252.063, 541.865
1253.277, 319.582
1254.492, 527.283
1255.706, 544.961
1256.920, 373.600
1258.134, 671.240
1259.348, 368.857
1260.562, 297.100
1261.775, 754.652
1262.988, 572.156
1264.201, 69.633
1265.414, 627.021
1266.627, 374.416
1267.839, 372.252
1269.052, 459.541
1270.264, 367.879
1271.476, 595.049
1272.688, 372.102
1273.899, 322.594
1275.111, 589.559
1276.322, 126.375
1277.533, 613.479
1278.744, 210.197
1279.955, 176.900
1281.165, 623.564
1282.376, 290.189
1283.586, 156.727
1284.796, 423.217
1286.006, 20.436
1287.215, 462.221
1288.425, 348.268
1289.634, 5.721
1290.843, 230.168
1292.052, 215.938
1293.261, 121.662
1294.469, 427.449
1295.678, 106.922
1296.886, 158.838
1298.094, 614.322
1299.302, 40.273
1300.509, 195.014
1301.717, 200.256
1302.924, 45.424
1304.131, 450.451
1305.338, 104.678
1306.545, 189.920
1307.752, 154.459
1308.958, 91.066
1310.164, 36.695
1311.370, 667.596
1312.576, 8.172
1313.782, 185.979
1314.987, 140.064
1316.193, 255.916
1317.398, 427.955
1318.603, 191.754
1319.807, 95.477
1321.012, 259.125
1322.216, 32.703
1323.421, 406.197
1324.625, 169.605
1325.829, 92.943
1327.032, 416.160
1328.236, 319.305
1329.439, 112.381
1330.642, 445.381
1331.845, 61.691
1333.048, 261.039
1334.251, 103.701
1335.453, 193.709
1336.656, 468.736
1337.858, 108.887
1339.060, 73.367
1340.261, 415.545
1341.463, 192.348
1342.664, 349.629
1343.866, 451.545
1345.067, 76.594
1346.267, 485.166
1347.468, 366.865
1348.669, 101.490
1349.869, 460.371
1351.069, 211.854
1352.269, 353.281
1353.469, 396.727
1354.668, 58.057
1355.868, 529.334
1357.067, 130.570
1358.266, 181.770
1359.465, 322.938
1360.664, 404.078
1361.862, 4.799
1363.061, 526.285
1364.259, 12.654
1365.457, 398.383
1366.655, 499.311
1367.852, 230.248
1369.050, 581.201
1370.247, 22.180
1371.444, 86.814
1372.641, 454.223
1373.838, 114.619
1375.035, 86.668
1376.231, 458.246
1377.427, 259.633
1378.623, 445.969
1379.819, 201.098
1381.015, 106.594
1382.211, 472.043
1383.406, 456.668
1384.601, 261.486
1385.796, 796.781
1386.991, 512.031
1388.185, 327.230
1389.380, 832.379
1390.574, 217.469
1391.768, 582.387
1392.962, 495.832
1394.156, 330.752
1395.350, 935.613
1396.543, 370.414
1397.736, 425.037
1398.929, 928.506
1400.122, 142.410
1401.315, 676.080
1402.507, 1039.223
1403.700, 177.135
1404.892, 501.297
1406.084, 378.920
1407.276, 510.623
1408.467, 630.312
1409.659, 382.910
1410.850, 186.373
1412.041, 755.422
1413.232, 103.816
1414.423, 354.686
1415.614, 773.746
1416.804, 19.250
1417.994, 569.344
1419.184, 582.426
1420.374, 161.229
1421.564, 707.996
1422.753, 298.883
1423.943, 408.416
1425.132, 507.979
1426.321, 526.455
1427.510, 435.188
1428.698, 660.115
1429.887, 60.604
1431.075, 543.098
1432.263, 463.764
1433.451, 238.309
1434.639, 779.828
1435.827, 358.988
1437.014, 89.053
1438.201, 664.914
1439.388, 51.738
1440.575, 261.438
1441.762, 651.750
1442.949, 260.879
1444.135, 609.488
1445.321, 222.090
1446.507, 451.434
1447.693, 813.805
1448.879, 69.824
1450.064, 496.051
1451.250, 880.461
1452.435, 156.508
1453.620, 472.742
1454.805, 608.641
1455.989, 353.180
1457.174, 778.367
1458.358, 383.164
1459.542, 317.574
1460.726, 909.230
1461.910, 481.211
1463.093, 354.504
1464.277, 1047.609
1465.460, 319.215
1466.643, 528.980
1467.826, 841.762
1469.009, 264.742
1470.191, 846.680
1471.373, 529.270
1472.556, 371.488
1473.738, 863.633
1474.919, 435.746
1476.101, 478.488
1477.283, 781.523
1478.464, 174.086
1479.645, 705.922
1480.826, 588.309
1482.007, 160.754
1483.187, 633.320
1484.368, 577.461
1485.548, 152.195
1486.728, 416.859
1487.908, 641.438
1489.088, 125.992
1490.268, 810.594
1491.447, 24.590
1492.626, 230.402
1493.805, 875.770
1494.984, 88.074
1496.163, 388.465
1497.341, 706.039
1498.520, 104.762
1499.698, 704.230
1500.876, 454.605
1502.054, 65.984
1503.232, 658.328
1504.409, 61.852
1505.586, 213.492
1506.763, 829.977
1507.940, 72.512
1509.117, 140.391
1510.294, 530.230
1511.470, 332.297
1512.647, 417.258
1513.823, 658.621
1514.999, 249.961
1516.174, 744.199
1517.350, 671.719
1518.526, 0.000
##END=



