##NAMES=Barrerite
##RRUFFID=R050135
##IDEAL CHEMISTRY=Na_2_(Al_2_Si_7_)O_18_&#183;6H_2_O
##LOCALITY=Kuiu Island, Alaska, USA
##OWNER=RRUFF
##SOURCE=Ben Norton
##DESCRIPTION=Colorless laminar crystals
##STATUS=The identification of this mineral has been confirmed by X-ray diffraction and chemical analysis
##URL=rruff.info/R050135
##MEASURED CHEMISTRY=(Na_4.49_K_1.30_Ca_1.23_[box]_0.98_)_Σ=8_(Si_27.75_Al_8.25_)O_72_·19H_2_O
##PIN_ID=M00229
##ORIENTATION=Laser parallel to -a* (-1 0 0). Fiducial mark perpendicular to laser is parallel to b [0 1 0]
141.323, 0.000
142.709, 153.807
144.094, 164.637
145.480, 5.082
146.865, 224.162
148.250, 177.688
149.635, 244.719
151.019, 412.840
152.403, 629.445
153.788, 435.924
155.171, 738.705
156.555, 970.221
157.939, 822.738
159.322, 1230.762
160.705, 1218.477
162.088, 1258.885
163.470, 1379.752
164.853, 1315.562
166.235, 1329.959
167.617, 1426.393
168.998, 1475.043
170.380, 1665.568
171.761, 1562.330
173.142, 1621.066
174.523, 1386.070
175.904, 1403.537
177.284, 1389.969
178.664, 1150.623
180.044, 967.346
181.424, 843.859
182.803, 780.566
184.183, 626.279
185.562, 537.125
186.940, 380.377
188.319, 356.256
189.698, 211.551
191.076, 186.248
192.454, 103.422
193.831, 4.012
195.209, 22.869
196.586, 67.812
197.963, 85.977
199.340, 83.402
200.717, 72.771
202.093, 65.367
203.470, 54.020
204.846, 7.367
206.221, 91.275
207.597, 190.441
208.972, 322.848
210.347, 509.152
211.722, 679.492
213.097, 688.014
214.472, 1215.271
215.846, 1429.646
217.220, 1868.732
218.594, 1931.508
219.967, 2356.736
221.341, 2671.047
222.714, 2975.301
224.087, 3411.998
225.460, 3502.629
226.832, 3918.873
228.204, 4305.070
229.577, 4379.066
230.948, 4510.664
232.320, 4299.500
233.692, 4419.240
235.063, 4147.492
236.434, 4223.164
237.805, 4058.115
239.175, 3793.086
240.545, 3428.027
241.916, 3042.904
243.286, 2897.688
244.655, 2412.344
246.025, 2336.846
247.394, 2021.145
248.763, 1665.195
250.132, 1588.938
251.501, 1152.258
252.869, 975.096
254.237, 817.498
255.605, 759.551
256.973, 601.396
258.340, 253.127
259.708, 634.844
261.075, 196.635
262.442, 198.484
263.808, 400.373
265.175, 182.311
266.541, 174.373
267.907, 116.520
269.273, 82.236
270.639, 91.000
272.004, 153.367
273.369, 215.795
274.734, 348.193
276.099, 360.590
277.463, 505.836
278.828, 705.504
280.192, 767.916
281.556, 880.252
282.919, 1032.488
284.283, 964.619
285.646, 1176.648
287.009, 838.557
288.372, 1160.324
289.734, 1121.973
291.097, 833.502
292.459, 874.941
293.821, 616.303
295.183, 627.586
296.544, 468.801
297.905, 429.945
299.266, 591.014
300.627, 341.988
301.988, 232.859
303.348, 16.375
304.709, 294.256
306.069, 258.139
307.428, 11.127
308.788, 403.129
310.147, 203.633
311.507, 374.062
312.865, 413.516
314.224, 362.203
315.583, 560.236
316.941, 377.467
318.299, 633.824
319.657, 629.424
321.015, 684.154
322.372, 958.014
323.729, 641.064
325.086, 893.307
326.443, 754.773
327.800, 985.461
329.156, 995.354
330.512, 1124.412
331.868, 1262.541
333.224, 1262.713
334.579, 1395.588
335.935, 1350.639
337.290, 1324.959
338.645, 1438.111
339.999, 1441.043
341.354, 1573.740
342.708, 1435.363
344.062, 1626.164
345.416, 1416.396
346.769, 1756.309
348.123, 1565.180
349.476, 1613.279
350.829, 1679.994
352.182, 1506.410
353.534, 1610.906
354.887, 1635.014
356.239, 1507.555
357.591, 1636.678
358.942, 1274.240
360.294, 1519.098
361.645, 1422.904
362.996, 1236.941
364.347, 1382.395
365.698, 1408.859
367.048, 1486.283
368.398, 1477.652
369.748, 1501.410
371.098, 1667.197
372.448, 1804.059
373.797, 2012.922
375.146, 2103.004
376.495, 2568.873
377.844, 2601.266
379.192, 2910.086
380.540, 3092.553
381.889, 3246.193
383.236, 3628.406
384.584, 3685.275
385.932, 4137.449
387.279, 4421.830
388.626, 4693.912
389.973, 5345.463
391.319, 5415.018
392.666, 5907.105
394.012, 6546.059
395.358, 7159.830
396.704, 7811.402
398.049, 8508.375
399.394, 9508.863
400.740, 10309.629
402.084, 11098.895
403.429, 12360.666
404.774, 13491.438
406.118, 14882.764
407.462, 15754.109
408.806, 17078.668
410.150, 17705.361
411.493, 18676.521
412.836, 19532.391
414.179, 19782.965
415.522, 19512.252
416.865, 19101.309
418.207, 18320.207
419.549, 17148.045
420.891, 16133.844
422.233, 15093.242
423.575, 13358.375
424.916, 12615.457
426.257, 11272.408
427.598, 10947.832
428.939, 9893.215
430.279, 8949.295
431.619, 8623.221
432.959, 7667.203
434.299, 7173.082
435.639, 6857.861
436.978, 6232.803
438.318, 6128.785
439.657, 5625.631
440.996, 5372.514
442.334, 5099.449
443.673, 4836.205
445.011, 4653.750
446.349, 4480.799
447.687, 4388.574
449.024, 4495.031
450.361, 4512.715
451.699, 4580.297
453.036, 4516.646
454.372, 5173.139
455.709, 4958.514
457.045, 5533.908
458.381, 6168.609
459.717, 6143.115
461.053, 6578.266
462.388, 6712.342
463.724, 6615.645
465.059, 6506.201
466.394, 6252.141
467.728, 5933.301
469.063, 5454.125
470.397, 5037.918
471.731, 4450.354
473.065, 3923.746
474.398, 3527.178
475.732, 3200.262
477.065, 2938.088
478.398, 2706.949
479.731, 2680.807
481.063, 2594.533
482.396, 2678.381
483.728, 2727.914
485.060, 2476.742
486.391, 2971.168
487.723, 3034.926
489.054, 3209.562
490.385, 3844.156
491.716, 3929.125
493.047, 4774.016
494.377, 5648.828
495.708, 6213.566
497.038, 7628.238
498.368, 8182.844
499.697, 9067.387
501.027, 9081.910
502.356, 8856.332
503.685, 8340.695
505.014, 7365.352
506.342, 6379.707
507.671, 5074.598
508.999, 4348.770
510.327, 3493.248
511.655, 2788.234
512.982, 2272.564
514.310, 1778.209
515.637, 1449.410
516.964, 1346.199
518.291, 1000.215
519.617, 965.408
520.944, 800.783
522.270, 765.637
523.596, 450.684
524.921, 315.496
526.247, 259.154
527.572, 224.553
528.897, 219.340
530.222, 113.982
531.547, 218.719
532.871, 103.799
534.196, 38.656
535.520, 106.117
536.844, 8.551
538.167, 106.949
539.491, 137.650
540.814, 18.281
542.137, 155.557
543.460, 79.781
544.783, 114.404
546.105, 41.590
547.427, 167.398
548.749, 185.605
550.071, 129.467
551.393, 14.074
552.714, 122.023
554.035, 38.697
555.356, 84.387
556.677, 93.236
557.998, 149.883
559.318, 112.885
560.638, 123.902
561.958, 1.432
563.278, 191.102
564.597, 43.854
565.917, 25.539
567.236, 59.395
568.555, 94.137
569.874, 34.139
571.192, 81.492
572.511, 39.748
573.829, 161.205
575.147, 53.469
576.464, 24.936
577.782, 117.111
579.099, 88.977
580.416, 19.074
581.733, 132.445
583.050, 26.262
584.366, 95.115
585.683, 25.910
586.999, 16.830
588.315, 22.477
589.630, 118.514
590.946, 129.045
592.261, 10.307
593.576, 220.689
594.891, 441.068
596.206, 212.186
597.520, 142.727
598.834, 322.955
600.148, 363.611
601.462, 643.812
602.776, 463.893
604.089, 684.689
605.402, 565.113
606.715, 715.498
608.028, 825.344
609.341, 865.447
610.653, 1105.607
611.965, 1065.305
613.277, 1154.943
614.589, 1304.926
615.901, 1374.463
617.212, 1393.973
618.523, 1273.436
619.834, 1582.846
621.145, 1182.211
622.456, 1531.529
623.766, 1480.818
625.076, 1330.061
626.386, 1339.258
627.696, 1338.424
629.006, 1187.545
630.315, 1456.623
631.624, 1235.656
632.933, 1154.643
634.242, 793.582
635.551, 1122.477
636.859, 931.324
638.167, 890.125
639.475, 1068.877
640.783, 997.578
642.090, 806.227
643.398, 884.828
644.705, 663.377
646.012, 871.879
647.318, 610.326
648.625, 718.719
649.931, 647.057
651.237, 525.342
652.543, 893.570
653.849, 441.744
655.155, 639.861
656.460, 517.926
657.765, 425.936
659.070, 473.891
660.375, 631.795
661.679, 349.668
662.984, 407.484
664.288, 265.246
665.592, 442.965
666.895, 340.627
668.199, 208.627
669.502, 356.170
670.805, 34.365
672.108, 511.902
673.411, 629.957
674.713, 407.480
676.016, 124.734
677.318, 82.205
678.620, 210.061
679.921, 169.385
681.223, 226.043
682.524, 301.703
683.825, 279.551
685.126, 225.959
686.427, 272.658
687.727, 237.264
689.028, 142.658
690.328, 194.848
691.628, 88.967
692.927, 187.758
694.227, 215.828
695.526, 153.902
696.825, 275.893
698.124, 331.551
699.423, 115.824
700.721, 195.727
702.020, 220.137
703.318, 154.746
704.616, 389.027
705.913, 23.512
707.211, 199.957
708.508, 93.424
709.805, 189.967
711.102, 221.404
712.399, 404.908
713.695, 104.689
714.992, 199.332
716.288, 73.248
717.584, 209.045
718.879, 171.730
720.175, 109.371
721.470, 372.291
722.765, 16.795
724.060, 282.672
725.355, 260.084
726.649, 10.254
727.944, 347.590
729.238, 295.861
730.532, 93.586
731.825, 266.279
733.119, 78.971
734.412, 141.111
735.705, 107.254
736.998, 189.006
738.291, 235.334
739.584, 195.992
740.876, 318.391
742.168, 282.664
743.460, 333.721
744.752, 244.504
746.043, 367.297
747.334, 299.918
748.626, 203.004
749.916, 375.639
751.207, 152.236
752.498, 274.748
753.788, 466.930
755.078, 224.551
756.368, 317.572
757.658, 331.170
758.947, 144.535
760.237, 218.033
761.526, 211.480
762.815, 405.551
764.104, 248.902
765.392, 225.355
766.680, 410.230
767.969, 333.439
769.257, 226.602
770.544, 629.717
771.832, 397.588
773.119, 380.613
774.406, 503.887
775.693, 336.820
776.980, 549.711
778.267, 562.553
779.553, 545.355
780.839, 668.111
782.125, 521.320
783.411, 703.990
784.697, 736.615
785.982, 879.195
787.267, 621.730
788.552, 844.250
789.837, 606.701
791.122, 659.107
792.406, 861.473
793.690, 763.797
794.974, 746.074
796.258, 858.311
797.542, 960.506
798.825, 822.660
800.108, 724.770
801.391, 816.840
802.674, 828.869
803.957, 850.857
805.239, 642.803
806.522, 664.709
807.804, 626.576
809.085, 518.400
810.367, 560.188
811.649, 591.934
812.930, 423.598
814.211, 675.266
815.492, 482.947
816.772, 454.195
818.053, 575.654
819.333, 509.416
820.613, 457.359
821.893, 161.973
823.173, 362.469
824.452, 83.553
825.732, 223.252
827.011, 84.525
828.290, 195.756
829.568, 286.920
830.847, 176.869
832.125, 66.609
833.403, 6.848
834.681, 146.861
835.959, 247.082
837.236, 107.600
838.514, 12.002
839.791, 151.889
841.068, 338.258
842.345, 128.236
843.621, 92.203
844.898, 267.465
846.174, 96.674
847.450, 33.676
848.726, 216.025
850.001, 94.498
851.277, 174.621
852.552, 295.326
853.827, 104.357
855.102, 103.738
856.376, 16.791
857.651, 72.371
858.925, 112.580
860.199, 80.770
861.473, 150.213
862.746, 130.982
864.020, 168.643
865.293, 168.219
866.566, 1.590
867.839, 97.498
869.112, 57.047
870.384, 226.053
871.656, 285.680
872.928, 44.852
874.200, 264.297
875.472, 115.582
876.744, 351.031
878.015, 120.812
879.286, 99.461
880.557, 327.516
881.828, 242.496
883.098, 62.875
884.369, 115.836
885.639, 75.266
886.909, 26.096
888.178, 32.766
889.448, 11.480
890.717, 49.465
891.987, 139.736
893.256, 138.783
894.524, 71.660
895.793, 102.314
897.061, 97.164
898.330, 16.281
899.598, 55.799
900.865, 24.863
902.133, 324.053
903.401, 46.475
904.668, 222.182
905.935, 131.350
907.202, 79.234
908.468, 169.664
909.735, 428.947
911.001, 128.279
912.267, 116.828
913.533, 415.680
914.799, 5.500
916.064, 343.785
917.330, 57.260
918.595, 28.441
919.860, 350.762
921.124, 229.957
922.389, 318.746
923.653, 92.078
924.918, 147.043
926.182, 6.156
927.445, 185.254
928.709, 84.344
929.972, 363.426
931.236, 122.500
932.499, 271.564
933.761, 9.375
935.024, 399.670
936.286, 68.709
937.549, 77.740
938.811, 176.770
940.073, 45.789
941.334, 204.805
942.596, 253.816
943.857, 82.826
945.118, 401.828
946.379, 160.830
947.640, 239.822
948.900, 298.814
950.161, 387.805
951.421, 136.791
952.681, 525.773
953.940, 204.752
955.200, 213.730
956.459, 182.707
957.719, 181.680
958.978, 310.656
960.236, 349.627
961.495, 168.602
962.753, 287.570
964.012, 86.541
965.270, 215.508
966.527, 145.521
967.785, 183.393
969.043, 232.309
970.300, 88.771
971.557, 480.123
972.814, 129.020
974.071, 137.520
975.327, 166.426
976.583, 24.627
977.840, 119.496
979.095, 261.658
980.351, 220.363
981.607, 289.285
982.862, 357.945
984.117, 66.154
985.372, 402.844
986.627, 11.463
987.882, 440.467
989.136, 188.949
990.390, 234.789
991.644, 372.215
992.898, 251.256
994.152, 519.900
995.405, 441.227
996.659, 30.373
997.912, 539.023
999.165, 184.004
1000.417, 373.195
1001.670, 744.713
1002.922, 501.357
1004.174, 730.676
1005.426, 239.580
1006.678, 228.553
1007.930, 384.969
1009.181, 433.891
1010.432, 703.010
1011.683, 542.023
1012.934, 211.457
1014.185, 840.840
1015.435, 460.402
1016.685, 850.045
1017.935, 648.000
1019.185, 627.486
1020.435, 866.857
1021.684, 376.760
1022.934, 756.680
1024.183, 942.586
1025.432, 852.559
1026.680, 964.436
1027.929, 684.459
1029.177, 784.312
1030.425, 807.369
1031.673, 907.439
1032.921, 961.834
1034.169, 967.258
1035.416, 507.230
1036.663, 957.057
1037.911, 674.672
1039.157, 904.373
1040.404, 733.965
1041.650, 1040.492
1042.897, 990.721
1044.143, 901.010
1045.389, 786.547
1046.634, 1000.363
1047.880, 980.572
1049.125, 1130.465
1050.371, 890.680
1051.615, 1009.189
1052.860, 1209.719
1054.105, 947.191
1055.349, 827.762
1056.593, 1018.344
1057.837, 1104.217
1059.081, 904.828
1060.325, 1015.461
1061.568, 786.105
1062.812, 1006.768
1064.055, 867.453
1065.298, 967.479
1066.540, 1108.199
1067.783, 685.787
1069.025, 984.916
1070.267, 675.680
1071.509, 826.459
1072.751, 1007.250
1073.993, 703.258
1075.234, 724.078
1076.475, 854.619
1077.716, 725.475
1078.957, 976.340
1080.198, 977.258
1081.438, 978.250
1082.679, 1159.254
1083.919, 839.781
1085.159, 1180.852
1086.398, 871.936
1087.638, 1123.121
1088.877, 1664.320
1090.116, 1035.508
1091.355, 1227.023
1092.594, 1298.270
1093.833, 1379.570
1095.071, 1420.836
1096.309, 1362.109
1097.547, 1413.809
1098.785, 1915.102
1100.023, 1316.402
1101.260, 1647.781
1102.498, 1879.109
1103.735, 1400.449
1104.972, 1951.797
1106.208, 1663.156
1107.445, 2005.227
1108.681, 2096.609
1109.918, 1867.996
1111.154, 1969.453
1112.389, 1800.867
1113.625, 2062.293
1114.860, 2323.770
1116.096, 2029.168
1117.331, 2210.625
1118.566, 2463.043
1119.800, 2221.586
1121.035, 2153.070
1122.269, 2294.559
1123.503, 2446.516
1124.737, 2678.207
1125.971, 2579.727
1127.205, 2181.328
1128.438, 2952.867
1129.671, 2274.414
1130.904, 2906.957
1132.137, 2508.516
1133.370, 2360.680
1134.602, 3000.695
1135.834, 2592.281
1137.066, 2644.305
1138.298, 3016.258
1139.530, 2447.910
1140.762, 3021.508
1141.993, 2693.172
1143.224, 2426.188
1144.455, 3344.918
1145.686, 2437.242
1146.917, 3240.043
1148.147, 3232.797
1149.377, 2224.516
1150.607, 3177.887
1151.837, 2900.992
1153.067, 2952.809
1154.296, 3065.957
1155.526, 2638.434
1156.755, 3268.840
1157.984, 3092.734
1159.213, 2944.766
1160.441, 2952.117
1161.670, 3135.094
1162.898, 2737.621
1164.126, 3333.723
1165.354, 2559.484
1166.581, 3131.250
1167.809, 2880.574
1169.036, 2393.801
1170.263, 2846.555
1171.490, 2625.398
1172.717, 2037.184
1173.943, 2810.273
1175.170, 1994.293
1176.396, 2566.090
1177.622, 2159.238
1178.848, 2170.945
1180.073, 2393.082
1181.299, 2096.832
1182.524, 2129.656
1183.749, 1982.195
1184.974, 1615.070
1186.199, 2007.000
1187.423, 1601.617
1188.648, 1724.230
1189.872, 1926.781
1191.096, 1549.371
1192.320, 1050.988
1193.543, 1635.125
1194.767, 1208.641
1195.990, 960.238
1197.213, 1184.070
1198.436, 1176.359
1199.659, 1157.891
1200.881, 1012.902
1202.104, 724.398
1203.326, 1295.867
1204.548, 829.227
1205.770, 840.660
1206.991, 1124.102
1208.213, 396.312
1209.434, 957.930
1210.655, 511.988
1211.876, 473.281
1213.096, 1027.367
1214.317, 509.992
1215.537, 611.211
1216.757, 832.898
1217.977, 715.168
1219.197, 896.309
1220.417, 787.918
1221.636, 800.539
1222.855, 712.656
1224.074, 535.656
1225.293, 806.656
1226.512, 437.633
1227.731, 712.816
1228.949, 914.355
1230.167, 338.160
1231.385, 426.539
1232.603, 707.867
1233.820, 710.785
1235.038, 731.996
1236.255, 694.102
1237.472, 267.461
1238.689, 958.156
1239.906, 328.836
1241.122, 499.500
1242.338, 1110.156
1243.555, 250.949
1244.771, 531.578
1245.986, 622.188
1247.202, 344.727
1248.417, 895.305
1249.633, 595.871
1250.848, 526.961
1252.063, 757.496
1253.277, 208.934
1254.492, 589.539
1255.706, 530.020
1256.920, 371.516
1258.134, 1201.953
1259.348, 442.328
1260.562, 384.883
1261.775, 855.211
1262.988, 485.535
1264.201, 175.777
1265.414, 865.953
1266.627, 446.008
1267.839, 467.219
1269.052, 307.148
1270.264, 377.395
1271.476, 1047.070
1272.688, 406.711
1273.899, 428.207
1275.111, 699.629
1276.322, 196.789
1277.533, 896.820
1278.744, 295.957
1279.955, 84.113
1281.165, 985.230
1282.376, 344.203
1283.586, 363.121
1284.796, 441.988
1286.006, 50.809
1287.215, 609.508
1288.425, 138.145
1289.634, 213.477
1290.843, 314.789
1292.052, 202.977
1293.261, 221.109
1294.469, 479.477
1295.678, 282.500
1296.886, 168.969
1298.094, 586.758
1299.302, 115.500
1300.509, 322.141
1301.717, 70.281
1302.924, 67.188
1304.131, 434.520
1305.338, 338.320
1306.545, 208.785
1307.752, 315.449
1308.958, 157.957
1310.164, 311.512
1311.370, 644.777
1312.576, 49.000
1313.782, 147.129
1314.987, 253.172
1316.193, 40.863
1317.398, 484.992
1318.603, 170.777
1319.807, 66.473
1321.012, 482.066
1322.216, 157.582
1323.421, 543.012
1324.625, 398.355
1325.829, 93.613
1327.032, 248.793
1328.236, 313.871
1329.439, 228.863
1330.642, 453.770
1331.845, 38.594
1333.048, 283.332
1334.251, 297.988
1335.453, 97.434
1336.656, 577.098
1337.858, 61.477
1339.060, 115.715
1340.261, 649.867
1341.463, 436.059
1342.664, 337.801
1343.866, 521.582
1345.067, 25.297
1346.267, 598.930
1347.468, 692.496
1348.669, 115.996
1349.869, 589.426
1351.069, 102.785
1352.269, 316.082
1353.469, 449.309
1354.668, 52.480
1355.868, 765.582
1357.067, 48.926
1358.266, 181.910
1359.465, 564.832
1360.664, 398.262
1361.862, 251.105
1363.061, 693.906
1364.259, 106.672
1365.457, 529.406
1366.655, 262.117
1367.852, 114.812
1369.050, 667.477
1370.247, 79.855
1371.444, 147.258
1372.641, 365.301
1373.838, 47.887
1375.035, 39.492
1376.231, 393.172
1377.427, 270.645
1378.623, 412.191
1379.819, 191.785
1381.015, 69.477
1382.211, 607.336
1383.406, 615.195
1384.601, 552.570
1385.796, 970.238
1386.991, 497.914
1388.185, 645.520
1389.380, 1062.316
1390.574, 149.727
1391.768, 757.133
1392.962, 604.414
1394.156, 420.609
1395.350, 1257.809
1396.543, 334.406
1397.736, 531.254
1398.929, 1188.148
1400.122, 313.914
1401.315, 720.062
1402.507, 1096.820
1403.700, 142.504
1404.892, 736.680
1406.084, 601.523
1407.276, 546.094
1408.467, 749.582
1409.659, 598.320
1410.850, 252.371
1412.041, 982.492
1413.232, 423.965
1414.423, 545.148
1415.614, 1137.359
1416.804, 50.324
1417.994, 844.047
1419.184, 514.469
1420.374, 238.199
1421.564, 1026.613
1422.753, 237.898
1423.943, 360.656
1425.132, 679.473
1426.321, 559.773
1427.510, 578.164
1428.698, 768.414
1429.887, 583.363
1431.075, 650.285
1432.263, 621.793
1433.451, 442.438
1434.639, 1038.492
1435.827, 626.941
1437.014, 305.055
1438.201, 884.590
1439.388, 38.805
1440.575, 535.031
1441.762, 1035.176
1442.949, 574.113
1444.135, 1081.238
1445.321, 376.332
1446.507, 548.031
1447.693, 1049.738
1448.879, 268.992
1450.064, 653.375
1451.250, 1097.883
1452.435, 380.312
1453.620, 547.727
1454.805, 924.426
1455.989, 311.059
1457.174, 1003.035
1458.358, 597.547
1459.542, 440.699
1460.726, 1165.195
1461.910, 757.008
1463.093, 595.637
1464.277, 1479.000
1465.460, 422.250
1466.643, 682.613
1467.826, 1014.887
1469.009, 298.590
1470.191, 1187.371
1471.373, 729.324
1472.556, 360.977
1473.738, 1473.633
1474.919, 466.910
1476.101, 630.027
1477.283, 1273.719
1478.464, 157.762
1479.645, 940.590
1480.826, 1021.613
1482.007, 424.566
1483.187, 847.133
1484.368, 759.711
1485.548, 412.641
1486.728, 807.883
1487.908, 793.180
1489.088, 258.332
1490.268, 1033.570
1491.447, 288.891
1492.626, 654.484
1493.805, 1260.344
1494.984, 216.559
1496.163, 693.121
1497.341, 1270.176
1498.520, 67.652
1499.698, 965.527
1500.876, 673.328
1502.054, 12.984
1503.232, 1003.480
1504.409, 354.871
1505.586, 377.070
1506.763, 1120.254
1507.940, 384.617
1509.117, 340.355
1510.294, 853.957
1511.470, 422.855
1512.647, 375.066
1513.823, 787.234
1514.999, 431.941
1516.174, 1090.000
1517.350, 783.371
1518.526, 5.699
1519.701, 1125.348
1520.876, 0.000
##END=



