##NAMES=Barrerite
##RRUFFID=R050135
##IDEAL CHEMISTRY=Na_2_(Al_2_Si_7_)O_18_&#183;6H_2_O
##LOCALITY=Kuiu Island, Alaska, USA
##OWNER=RRUFF
##SOURCE=Ben Norton
##DESCRIPTION=Colorless laminar crystals
##STATUS=The identification of this mineral has been confirmed by X-ray diffraction and chemical analysis
##URL=rruff.info/R050135
##MEASURED CHEMISTRY=(Na_4.49_K_1.30_Ca_1.23_[box]_0.98_)_Σ=8_(Si_27.75_Al_8.25_)O_72_·19H_2_O
##PIN_ID=L00222
##ORIENTATION=Laser parallel to b* (0 1 0). Fiducial mark perpendicular to laser is parallel to c [0 0 1]
112.168, 0.000
113.559, 100.121
114.949, 817.789
116.339, 513.852
117.729, 599.615
119.119, 941.164
120.508, 1021.211
121.897, 1464.406
123.286, 1616.973
124.675, 1847.652
126.063, 1855.902
127.452, 1919.971
128.840, 2008.031
130.228, 2118.475
131.615, 2137.000
133.003, 2153.227
134.390, 2107.982
135.777, 2137.492
137.164, 1964.203
138.550, 2003.770
139.937, 1693.488
141.323, 1693.861
142.709, 1553.160
144.094, 1430.441
145.480, 1515.504
146.865, 1338.023
148.250, 1368.268
149.635, 1276.500
151.019, 1332.949
152.403, 1149.285
153.788, 1152.014
155.171, 1118.549
156.555, 1135.451
157.939, 1167.461
159.322, 1066.102
160.705, 1044.469
162.088, 1168.348
163.470, 1230.021
164.853, 908.943
166.235, 936.732
167.617, 966.980
168.998, 952.438
170.380, 840.160
171.761, 928.510
173.142, 778.652
174.523, 738.889
175.904, 685.947
177.284, 684.625
178.664, 528.213
180.044, 510.924
181.424, 443.729
182.803, 456.623
184.183, 399.604
185.562, 282.668
186.940, 425.812
188.319, 199.039
189.698, 272.346
191.076, 65.730
192.454, 259.195
193.831, 232.732
195.209, 6.348
196.586, 60.105
197.963, 15.939
199.340, 57.137
200.717, 22.627
202.093, 72.766
203.470, 47.953
204.846, 52.947
206.221, 117.758
207.597, 222.404
208.972, 156.893
210.347, 225.207
211.722, 65.473
213.097, 189.590
214.472, 63.605
215.846, 102.475
217.220, 31.365
218.594, 125.141
219.967, 21.129
221.341, 162.570
222.714, 76.256
224.087, 249.930
225.460, 36.398
226.832, 22.727
228.204, 9.053
229.577, 54.621
230.948, 98.295
232.320, 48.031
233.692, 75.641
235.063, 90.684
236.434, 23.006
237.805, 213.268
239.175, 70.557
240.545, 14.492
241.916, 161.438
243.286, 17.090
244.655, 182.500
246.025, 117.785
247.394, 233.104
248.763, 258.373
250.132, 303.568
251.501, 278.795
252.869, 354.062
254.237, 389.373
255.605, 354.654
256.973, 439.973
258.340, 495.314
259.708, 520.678
261.075, 446.156
262.442, 671.672
263.808, 597.227
265.175, 642.809
266.541, 1038.420
267.907, 886.396
269.273, 954.799
270.639, 915.455
272.004, 871.189
273.369, 976.945
274.734, 1022.729
276.099, 1158.535
277.463, 1225.328
278.828, 1283.789
280.192, 1333.189
281.556, 1323.189
282.919, 1073.596
284.283, 1324.285
285.646, 1105.166
287.009, 1246.174
288.372, 1137.266
289.734, 1058.396
291.097, 1099.539
292.459, 930.654
293.821, 1041.730
295.183, 802.752
296.544, 913.713
297.905, 744.609
299.266, 705.426
300.627, 766.145
301.988, 566.732
303.348, 687.176
304.709, 557.475
306.069, 497.625
307.428, 607.631
308.788, 367.500
310.147, 487.244
311.507, 286.871
312.865, 296.393
314.224, 415.818
315.583, 405.154
316.941, 438.973
318.299, 453.527
319.657, 462.512
321.015, 421.311
322.372, 429.857
323.729, 388.127
325.086, 375.953
326.443, 473.443
327.800, 430.643
329.156, 497.781
330.512, 514.779
331.868, 331.537
333.224, 468.084
334.579, 374.613
335.935, 351.000
337.290, 397.322
338.645, 383.623
339.999, 379.873
341.354, 276.111
342.708, 402.359
344.062, 348.623
345.416, 444.904
346.769, 321.201
348.123, 457.512
349.476, 423.840
350.829, 490.180
352.182, 366.535
353.534, 422.906
354.887, 538.922
356.239, 555.320
357.591, 361.730
358.942, 485.775
360.294, 641.932
361.645, 454.793
362.996, 555.170
364.347, 600.527
365.698, 510.139
367.048, 771.389
368.398, 732.404
369.748, 839.518
371.098, 970.045
372.448, 974.121
373.797, 1065.203
375.146, 1116.689
376.495, 1279.670
377.844, 1450.908
379.192, 1497.518
380.540, 1750.859
381.889, 1912.408
383.236, 1938.785
384.584, 2173.553
385.932, 2384.457
387.279, 2582.145
388.626, 2835.658
389.973, 3113.904
391.319, 3434.301
392.666, 3674.354
394.012, 4202.457
395.358, 4639.562
396.704, 5150.600
398.049, 6032.391
399.394, 6366.535
400.740, 7106.375
402.084, 7968.184
403.429, 8553.955
404.774, 9717.424
406.118, 10439.547
407.462, 11116.961
408.806, 11854.322
410.150, 12151.236
411.493, 12639.379
412.836, 12386.307
414.179, 12123.430
415.522, 11190.363
416.865, 10897.297
418.207, 9784.480
419.549, 8991.457
420.891, 8199.904
422.233, 7327.252
423.575, 6774.285
424.916, 6041.277
426.257, 5788.293
427.598, 5025.309
428.939, 4652.324
430.279, 4339.338
431.619, 3836.348
432.959, 3633.355
434.299, 3440.363
435.639, 3517.365
436.978, 3304.365
438.318, 2821.363
439.657, 3238.355
440.996, 2885.332
442.334, 2812.291
443.673, 2819.229
445.011, 2646.141
446.349, 2743.031
447.687, 3039.893
449.024, 2946.727
450.361, 3213.533
451.699, 3300.322
453.036, 3637.082
454.372, 3766.705
455.709, 3910.518
457.045, 4077.193
458.381, 4173.840
459.717, 4270.457
461.053, 4207.049
462.388, 3933.613
463.724, 3750.152
465.059, 3136.660
466.394, 3003.146
467.728, 2749.605
469.063, 2386.039
470.397, 2242.449
471.731, 1928.834
473.065, 1705.195
474.398, 1781.535
475.732, 1667.850
477.065, 1524.145
478.398, 1500.414
479.731, 1526.664
481.063, 1532.891
482.396, 1549.098
483.728, 1315.285
485.060, 1831.453
486.391, 1907.604
487.723, 2083.742
489.054, 2609.867
490.385, 2945.977
491.716, 3542.068
493.047, 4298.152
494.377, 4434.223
495.708, 5290.281
497.038, 5506.332
498.368, 5692.369
499.697, 5468.395
501.027, 5034.410
502.356, 4440.416
503.685, 3826.412
505.014, 3132.395
506.342, 2578.367
507.671, 2164.326
508.999, 1860.516
510.327, 1266.455
511.655, 1142.381
512.982, 828.488
514.310, 784.391
515.637, 671.068
516.964, 566.947
518.291, 434.389
519.617, 460.750
520.944, 566.873
522.270, 253.361
523.596, 268.432
524.921, 404.775
526.247, 151.121
527.572, 248.816
528.897, 124.988
530.222, 214.775
531.547, 171.441
532.871, 217.857
534.196, 4.666
535.520, 111.414
536.844, 161.391
538.167, 196.197
539.491, 62.801
540.814, 60.775
542.137, 96.178
543.460, 172.422
544.783, 156.428
546.105, 230.205
547.427, 155.666
548.749, 17.234
550.071, 24.740
551.393, 134.033
552.714, 2.680
554.035, 75.477
555.356, 91.172
556.677, 51.496
557.998, 174.617
559.318, 19.756
560.638, 59.877
561.958, 25.453
563.278, 71.938
564.597, 56.463
565.917, 107.498
567.236, 123.254
568.555, 268.633
569.874, 35.953
571.192, 321.250
572.511, 186.895
573.829, 272.545
575.147, 287.768
576.464, 192.023
577.782, 417.197
579.099, 32.451
580.416, 160.764
581.733, 235.846
583.050, 261.064
584.366, 292.166
585.683, 307.176
586.999, 342.285
588.315, 287.242
589.630, 402.174
590.946, 421.068
592.261, 391.998
593.576, 506.922
594.891, 451.752
596.206, 406.553
597.520, 491.326
598.834, 546.076
600.148, 710.803
601.462, 575.500
602.776, 530.170
604.089, 794.814
605.402, 849.531
606.715, 944.123
608.028, 1068.688
609.341, 1165.199
610.653, 1169.717
611.965, 1054.209
613.277, 1128.674
614.589, 1093.115
615.901, 1177.525
617.212, 1171.912
618.523, 1436.273
619.834, 1180.801
621.145, 1415.109
622.456, 1529.393
623.766, 1523.646
625.076, 1597.877
626.386, 1532.082
627.696, 1556.262
629.006, 1453.855
630.315, 1294.545
631.624, 1278.645
632.933, 1052.723
634.242, 1096.771
635.551, 920.795
636.859, 1064.795
638.167, 898.766
639.475, 992.713
640.783, 716.635
642.090, 1100.531
643.398, 864.402
644.705, 778.248
646.012, 812.066
647.318, 825.859
648.625, 989.629
649.931, 793.369
651.237, 867.086
652.543, 780.777
653.849, 724.676
655.155, 698.084
656.460, 641.699
657.765, 645.312
659.070, 608.898
660.375, 362.473
661.679, 526.021
662.984, 299.545
664.288, 293.104
665.592, 196.633
666.895, 310.135
668.199, 353.611
669.502, 207.061
670.805, 270.500
672.108, 93.910
673.411, 287.291
674.713, 50.672
676.016, 134.012
677.318, 187.324
678.620, 110.652
679.921, 86.049
681.223, 137.172
682.524, 140.361
683.825, 43.521
685.126, 186.639
686.427, 0.371
687.727, 102.656
689.028, 155.650
690.328, 58.611
691.628, 250.611
692.927, 73.338
694.227, 45.730
695.526, 111.438
696.825, 140.838
698.124, 69.027
699.423, 171.367
700.721, 26.014
702.020, 155.865
703.318, 293.064
704.616, 35.467
705.913, 54.078
707.211, 42.492
708.508, 49.801
709.805, 0.916
711.102, 212.592
712.399, 145.691
713.695, 71.373
714.992, 223.236
716.288, 27.799
717.584, 203.400
718.879, 75.842
720.175, 179.369
721.470, 104.492
722.765, 76.686
724.060, 157.900
725.355, 0.467
726.649, 259.908
727.944, 71.477
729.238, 62.828
730.532, 454.344
731.825, 114.162
733.119, 437.021
734.412, 128.391
735.705, 21.738
736.998, 359.199
738.291, 110.430
739.584, 68.322
740.876, 282.850
742.168, 114.000
743.460, 375.129
744.752, 266.232
746.043, 157.318
747.334, 128.381
748.626, 119.422
749.916, 180.441
751.207, 167.580
752.498, 192.418
753.788, 203.377
755.078, 324.312
756.368, 345.230
757.658, 176.129
758.947, 297.004
760.237, 97.861
761.526, 298.699
762.815, 329.516
764.104, 9.686
765.392, 412.047
766.680, 242.787
767.969, 213.512
769.257, 434.215
770.544, 284.900
771.832, 135.568
773.119, 476.217
774.406, 56.848
775.693, 307.459
776.980, 178.053
778.267, 388.627
779.553, 299.184
780.839, 199.727
782.125, 620.252
783.411, 520.758
784.697, 391.246
785.982, 471.721
787.267, 532.180
788.552, 322.619
789.837, 513.045
791.122, 463.453
792.406, 563.846
793.690, 284.225
794.974, 384.588
796.258, 341.934
797.542, 495.268
798.825, 365.584
800.108, 405.887
801.391, 466.174
802.674, 606.447
803.957, 426.705
805.239, 516.951
806.522, 327.182
807.804, 337.398
809.085, 467.602
810.367, 87.793
811.649, 423.635
812.930, 533.801
814.211, 136.648
815.492, 536.785
816.772, 456.910
818.053, 550.438
819.333, 110.535
820.613, 300.377
821.893, 170.447
823.173, 300.506
824.452, 413.701
825.732, 133.732
827.011, 242.969
828.290, 509.131
829.568, 167.553
830.847, 177.041
832.125, 377.625
833.403, 126.955
834.681, 434.150
835.959, 63.611
837.236, 393.072
838.514, 111.184
839.791, 580.820
841.068, 206.855
842.345, 386.053
843.621, 495.535
844.898, 548.104
846.174, 357.957
847.450, 416.730
848.726, 385.070
850.001, 224.365
851.277, 316.021
852.552, 292.766
853.827, 402.385
855.102, 317.129
856.376, 396.762
857.651, 606.727
858.925, 745.438
860.199, 889.244
861.473, 485.904
862.746, 770.268
864.020, 987.828
865.293, 547.824
866.566, 576.189
867.839, 675.723
869.112, 425.734
870.384, 751.699
871.656, 301.723
872.928, 564.697
874.200, 234.752
875.472, 636.273
876.744, 495.979
878.015, 196.031
879.286, 654.121
880.557, 94.209
881.828, 243.922
883.098, 323.607
884.369, 353.697
885.639, 381.092
886.909, 404.822
888.178, 332.910
889.448, 321.713
890.717, 241.818
891.987, 461.766
893.256, 355.809
894.524, 55.924
895.793, 395.914
897.061, 296.037
898.330, 106.162
899.598, 496.291
900.865, 276.385
902.133, 296.453
903.401, 706.598
904.668, 416.754
905.935, 176.916
907.202, 437.082
908.468, 477.277
909.735, 557.479
911.001, 167.699
912.267, 547.930
913.533, 238.064
914.799, 598.316
916.064, 238.574
917.330, 23.129
918.595, 487.135
919.860, 207.406
921.124, 247.688
922.389, 177.973
923.653, 198.268
924.918, 198.570
926.182, 198.881
927.445, 179.006
928.709, 245.822
929.972, 119.668
931.236, 360.014
932.499, 300.365
933.761, 300.729
935.024, 21.135
936.286, 371.547
937.549, 21.971
938.811, 272.406
940.073, 172.850
941.334, 373.303
942.596, 349.268
943.857, 254.240
945.118, 294.725
946.379, 255.221
947.640, 195.729
948.900, 256.244
950.161, 210.422
951.421, 217.312
952.681, 167.865
953.940, 348.428
955.200, 279.004
956.459, 229.592
957.719, 300.189
958.978, 240.799
960.236, 101.424
961.495, 392.061
962.753, 127.293
964.012, 313.322
965.270, 66.053
966.527, 104.561
967.785, 315.189
969.043, 264.154
970.300, 286.400
971.557, 216.969
972.814, 7.551
974.071, 88.148
975.327, 81.238
976.583, 159.355
977.840, 179.969
979.095, 139.402
980.351, 91.188
981.607, 131.801
982.862, 227.570
984.117, 502.984
985.372, 146.445
986.627, 144.125
987.882, 274.715
989.136, 135.324
990.390, 125.953
991.644, 176.605
992.898, 127.289
994.152, 197.996
995.405, 101.266
996.659, 379.465
997.912, 110.207
999.165, 240.973
1000.417, 461.762
1001.670, 652.633
1002.922, 943.520
1004.174, 664.434
1005.426, 455.359
1006.678, 536.332
1007.930, 177.320
1009.181, 218.328
1010.432, 269.359
1011.683, 59.562
1012.934, 491.531
1014.185, 332.676
1015.435, 293.844
1016.685, 85.078
1017.935, 206.379
1019.185, 417.699
1020.435, 319.035
1021.684, 420.414
1022.934, 611.809
1024.183, 513.250
1025.432, 534.066
1026.680, 530.059
1027.929, 347.773
1029.177, 499.336
1030.425, 360.918
1031.673, 462.527
1032.921, 624.156
1034.169, 355.801
1035.416, 557.469
1036.663, 299.195
1037.911, 280.941
1039.157, 312.707
1040.404, 474.512
1041.650, 456.336
1042.897, 558.203
1044.143, 480.117
1045.389, 502.055
1046.634, 594.012
1047.880, 525.988
1049.125, 677.984
1050.371, 570.004
1051.615, 702.043
1052.860, 394.105
1054.105, 508.230
1055.349, 650.336
1056.593, 812.461
1057.837, 725.926
1059.081, 681.879
1060.325, 527.293
1061.568, 669.500
1062.812, 601.727
1064.055, 426.191
1065.298, 788.453
1066.540, 101.473
1067.783, 422.816
1069.025, 455.148
1070.267, 507.500
1071.509, 519.871
1072.751, 402.262
1073.993, 324.668
1075.234, 587.098
1076.475, 419.547
1077.716, 712.016
1078.957, 854.504
1080.198, 377.035
1081.438, 819.566
1082.679, 772.121
1083.919, 732.172
1085.159, 974.766
1086.398, 937.379
1087.638, 1130.008
1088.877, 602.656
1090.116, 985.328
1091.355, 788.020
1092.594, 1020.727
1093.833, 1143.457
1095.071, 986.203
1096.309, 528.973
1097.547, 1191.762
1098.785, 584.570
1100.023, 757.402
1101.260, 1130.250
1102.498, 813.125
1103.735, 1116.016
1104.972, 1068.930
1106.208, 1081.871
1107.445, 1214.828
1108.681, 1067.812
1109.918, 890.820
1111.154, 1393.848
1112.389, 1121.238
1113.625, 1164.312
1114.860, 1224.715
1116.096, 917.840
1117.331, 1314.316
1118.566, 1314.078
1119.800, 1207.277
1121.035, 1140.500
1122.269, 1013.750
1123.503, 1407.023
1124.737, 1366.977
1125.971, 1150.305
1127.205, 1713.656
1128.438, 1190.879
1129.671, 1424.277
1130.904, 1347.707
1132.137, 900.281
1133.370, 1513.762
1134.602, 1490.828
1135.834, 1284.363
1137.066, 1707.926
1138.298, 1181.516
1139.530, 1615.133
1140.762, 1538.777
1141.993, 1042.434
1143.224, 1879.480
1144.455, 919.047
1145.686, 1772.719
1146.917, 1836.398
1148.147, 1000.098
1149.377, 1747.191
1150.607, 1630.945
1151.837, 1384.723
1153.067, 1638.527
1154.296, 1492.363
1155.526, 1616.227
1156.755, 1740.047
1157.984, 1363.895
1159.213, 1437.934
1160.441, 1679.906
1161.670, 1263.836
1162.898, 1607.789
1164.126, 1131.422
1165.354, 1485.430
1166.581, 1309.488
1167.809, 1053.551
1169.036, 1257.648
1170.263, 1241.766
1171.490, 525.918
1172.717, 1160.098
1173.943, 764.258
1175.170, 608.453
1176.396, 792.672
1177.622, 586.922
1178.848, 731.199
1180.073, 755.504
1181.299, 589.836
1182.524, 664.195
1183.749, 388.586
1184.974, 283.004
1186.199, 497.398
1187.423, 371.816
1188.648, 486.270
1189.872, 487.027
1191.096, 458.750
1192.320, 825.961
1193.543, 380.477
1194.767, 315.012
1195.990, 149.672
1197.213, 364.078
1198.436, 48.512
1199.659, 224.652
1200.881, 60.867
1202.104, 603.629
1203.326, 78.262
1204.548, 127.188
1205.770, 317.363
1206.991, 88.059
1208.213, 286.527
1209.434, 140.934
1210.655, 64.652
1211.876, 529.770
1213.096, 25.789
1214.317, 28.582
1215.537, 322.980
1216.757, 137.496
1217.977, 261.906
1219.197, 146.336
1220.417, 220.793
1221.636, 415.297
1222.855, 329.848
1224.074, 244.484
1225.293, 219.234
1226.512, 257.562
1227.731, 579.340
1228.949, 193.895
1230.167, 161.590
1231.385, 562.961
1232.603, 437.547
1233.820, 182.160
1235.038, 636.805
1236.255, 11.484
1237.472, 766.195
1238.689, 250.934
1239.906, 355.707
1241.122, 730.516
1242.338, 225.352
1243.555, 280.254
1244.771, 475.227
1245.986, 160.230
1247.202, 485.383
1248.417, 290.574
1249.633, 295.816
1250.848, 411.113
1252.063, 326.516
1253.277, 262.004
1254.492, 467.633
1255.706, 233.328
1256.920, 619.070
1258.134, 434.852
1259.348, 160.660
1260.562, 696.535
1261.775, 612.430
1262.988, 71.652
1264.201, 824.312
1265.414, 270.320
1266.627, 326.375
1267.839, 432.496
1269.052, 358.605
1270.264, 614.699
1271.476, 530.836
1272.688, 447.020
1273.899, 853.246
1275.111, 159.520
1276.322, 835.828
1277.533, 472.191
1278.744, 198.598
1279.955, 795.047
1281.165, 541.547
1282.376, 98.008
1283.586, 234.512
1284.796, 181.062
1286.006, 437.668
1287.215, 320.836
1288.425, 52.527
1289.634, 115.242
1290.843, 426.133
1292.052, 248.719
1293.261, 493.949
1294.469, 59.449
1295.678, 237.219
1296.886, 693.941
1298.094, 190.727
1299.302, 297.570
1300.509, 154.430
1301.717, 206.109
1302.924, 612.871
1304.131, 69.695
1305.338, 66.586
1306.545, 383.551
1307.752, 160.586
1308.958, 152.316
1310.164, 964.852
1311.370, 132.082
1312.576, 379.383
1313.782, 776.738
1314.987, 214.148
1316.193, 811.613
1317.398, 529.133
1318.603, 287.777
1319.807, 635.195
1321.012, 532.656
1322.216, 590.164
1323.421, 887.715
1324.625, 215.309
1325.829, 642.938
1327.032, 760.609
1328.236, 298.316
1329.439, 666.059
1330.642, 242.316
1331.845, 280.293
1333.048, 678.570
1334.251, 85.836
1335.453, 832.207
1336.656, 340.293
1337.858, 298.996
1339.060, 876.223
1340.261, 215.066
1341.463, 298.773
1342.664, 645.863
1343.866, 17.035
1345.067, 389.984
1346.267, 757.348
1347.468, 204.645
1348.669, 741.848
1349.869, 568.930
1351.069, 445.863
1352.269, 653.367
1353.469, 422.297
1354.668, 466.312
1355.868, 681.121
1357.067, 475.391
1358.266, 594.414
1359.465, 678.980
1360.664, 211.453
1361.862, 764.070
1363.061, 548.480
1364.259, 616.129
1365.457, 956.066
1366.655, 386.910
1367.852, 595.039
1369.050, 489.910
1370.247, 3.176
1371.444, 0.000
##END=



