##NAMES=Barrerite
##RRUFFID=R050135
##IDEAL CHEMISTRY=Na_2_(Al_2_Si_7_)O_18_&#183;6H_2_O
##LOCALITY=Kuiu Island, Alaska, USA
##OWNER=RRUFF
##SOURCE=Ben Norton
##DESCRIPTION=Colorless laminar crystals
##STATUS=The identification of this mineral has been confirmed by X-ray diffraction and chemical analysis
##URL=rruff.info/R050135
##MEASURED CHEMISTRY=(Na_4.49_K_1.30_Ca_1.23_[box]_0.98_)_Σ=8_(Si_27.75_Al_8.25_)O_72_·19H_2_O
##PIN_ID=L00222
##ORIENTATION=Laser parallel to b* (0 1 0). Fiducial mark perpendicular to laser is parallel to c [0 0 1]
110.777, 0.000
112.168, 25.820
113.559, 275.418
114.949, 637.037
116.339, 528.121
117.729, 447.516
119.119, 489.870
120.508, 731.759
121.897, 850.773
123.286, 965.472
124.675, 1204.925
126.063, 1288.325
127.452, 1264.918
128.840, 1324.017
130.228, 1204.987
131.615, 1507.412
133.003, 1511.324
134.390, 1436.851
135.777, 1634.824
137.164, 1533.770
138.550, 1503.849
139.937, 1405.354
141.323, 1497.189
142.709, 1649.434
144.094, 1402.346
145.480, 1554.725
146.865, 1806.812
148.250, 1788.389
149.635, 1589.629
151.019, 1630.870
152.403, 1560.870
153.788, 1634.162
155.171, 1560.318
156.555, 1518.080
157.939, 1470.373
159.322, 1279.661
160.705, 1252.877
162.088, 1273.091
163.470, 1272.001
164.853, 1349.506
166.235, 1661.440
167.617, 1600.596
168.998, 1294.728
170.380, 633.025
171.761, 818.466
173.142, 640.363
174.523, 631.321
175.904, 657.942
177.284, 480.269
178.664, 415.395
180.044, 394.349
181.424, 452.254
182.803, 257.994
184.183, 353.093
185.562, 324.901
186.940, 275.853
188.319, 237.506
189.698, 129.170
191.076, 0.841
192.454, 192.517
193.831, 164.189
195.209, 80.435
196.586, 17.912
197.963, 23.816
199.340, 37.983
200.717, 10.500
202.093, 38.547
203.470, 21.806
204.846, 18.040
206.221, 116.671
207.597, 38.468
208.972, 26.592
210.347, 105.519
211.722, 32.457
213.097, 30.396
214.472, 7.931
215.846, 54.417
217.220, 116.857
218.594, 60.925
219.967, 77.005
221.341, 64.762
222.714, 52.504
224.087, 80.084
225.460, 32.188
226.832, 18.624
228.204, 79.150
229.577, 43.089
230.948, 54.688
232.320, 2.466
233.692, 0.251
235.063, 37.300
236.434, 105.106
237.805, 37.064
239.175, 80.795
240.545, 58.686
241.916, 193.336
243.286, 15.319
244.655, 67.273
246.025, 10.736
247.394, 38.752
248.763, 63.148
250.132, 85.012
251.501, 33.105
252.869, 88.752
254.237, 19.379
255.605, 112.525
256.973, 15.631
258.340, 96.152
259.708, 77.951
261.075, 60.236
262.442, 41.570
263.808, 63.393
265.175, 45.195
266.541, 26.988
267.907, 27.025
269.273, 130.547
270.639, 22.311
272.004, 94.074
273.369, 135.838
274.734, 17.652
276.099, 48.385
277.463, 29.660
278.828, 103.000
280.192, 146.139
281.556, 89.615
282.919, 83.346
284.283, 167.268
285.646, 151.332
287.009, 125.504
288.372, 0.244
289.734, 134.059
291.097, 168.400
292.459, 42.766
293.821, 47.139
295.183, 18.486
296.544, 4.127
297.905, 15.332
299.266, 84.508
300.627, 1.225
301.988, 57.006
303.348, 32.852
304.709, 101.232
306.069, 95.268
307.428, 159.244
308.788, 63.168
310.147, 97.033
311.507, 90.848
312.865, 114.609
314.224, 258.320
315.583, 61.979
316.941, 295.588
318.299, 159.139
319.657, 82.613
321.015, 286.002
322.372, 79.336
323.729, 182.490
325.086, 205.584
326.443, 168.584
327.800, 41.541
329.156, 174.414
330.512, 197.143
331.868, 269.736
333.224, 322.312
334.579, 254.805
335.935, 117.227
337.290, 299.588
338.645, 191.857
339.999, 294.012
341.354, 6.150
342.708, 238.248
344.062, 240.338
345.416, 322.391
346.769, 154.414
348.123, 386.412
349.476, 328.406
350.829, 170.346
352.182, 192.279
353.534, 294.207
354.887, 295.967
356.239, 457.900
357.591, 79.824
358.942, 411.721
360.294, 302.646
361.645, 294.572
362.996, 384.689
364.347, 416.352
365.698, 466.215
367.048, 456.844
368.398, 648.631
369.748, 574.133
371.098, 553.547
372.448, 783.361
373.797, 605.498
375.146, 795.674
376.495, 985.240
377.844, 882.131
379.192, 1183.754
380.540, 967.180
381.889, 1155.654
383.236, 1122.811
384.584, 1331.326
385.932, 1400.580
387.279, 1514.736
388.626, 1576.771
389.973, 1669.031
391.319, 1686.463
392.666, 2011.893
394.012, 1983.668
395.358, 2274.842
396.704, 2430.443
398.049, 2862.416
399.394, 2857.471
400.740, 3090.842
402.084, 3557.213
403.429, 3715.762
404.774, 4219.943
406.118, 4443.346
407.462, 4885.588
408.806, 5016.836
410.150, 5306.586
411.493, 5442.941
412.836, 5354.822
414.179, 5254.736
415.522, 4826.518
416.865, 4716.535
418.207, 4418.979
419.549, 3979.041
420.891, 3722.053
422.233, 3233.844
423.575, 3092.047
424.916, 2863.656
426.257, 2735.594
427.598, 2406.807
428.939, 2228.645
430.279, 2150.646
431.619, 1851.844
432.959, 1643.977
434.299, 1631.738
435.639, 1642.840
436.978, 1414.221
438.318, 1265.289
439.657, 1434.602
440.996, 1245.668
442.334, 996.666
443.673, 1197.912
445.011, 1058.850
446.349, 989.857
447.687, 1170.732
449.024, 961.576
450.361, 1201.301
451.699, 1142.084
453.036, 1232.830
454.372, 1153.539
455.709, 1234.217
457.045, 1288.201
458.381, 1380.967
459.717, 1378.910
461.053, 1409.447
462.388, 1328.045
463.724, 1403.025
465.059, 999.410
466.394, 1069.811
467.728, 960.178
469.063, 950.510
470.397, 870.709
471.731, 820.973
473.065, 671.189
474.398, 621.389
475.732, 711.553
477.065, 861.457
478.398, 681.557
479.731, 781.621
481.063, 721.523
482.396, 781.521
483.728, 511.564
485.060, 1121.500
486.391, 1171.400
487.723, 1161.270
489.054, 1629.992
490.385, 1749.922
491.716, 2049.699
493.047, 2469.686
494.377, 2639.400
495.708, 3149.404
497.038, 3369.043
498.368, 3388.857
499.697, 3089.123
501.027, 3128.836
502.356, 2785.430
503.685, 2202.959
505.014, 2222.436
506.342, 1752.732
507.671, 1392.301
508.999, 1342.623
510.327, 802.393
511.655, 762.066
512.982, 652.570
514.310, 612.434
515.637, 537.367
516.964, 437.088
518.291, 306.990
519.617, 326.906
520.944, 237.664
522.270, 206.336
523.596, 146.033
524.921, 305.928
526.247, 245.975
527.572, 246.424
528.897, 126.666
530.222, 196.889
531.547, 256.750
532.871, 136.611
534.196, 86.338
535.520, 286.062
536.844, 67.318
538.167, 292.107
539.491, 4.521
540.814, 103.836
542.137, 178.928
543.460, 58.801
544.783, 64.062
546.105, 86.721
547.427, 172.197
548.749, 111.482
550.071, 65.961
551.393, 24.674
552.714, 25.191
554.035, 203.779
555.356, 37.631
556.677, 7.006
557.998, 191.732
559.318, 20.699
560.638, 232.072
561.958, 70.174
563.278, 0.508
564.597, 17.674
565.917, 120.240
567.236, 88.221
568.555, 66.275
569.874, 34.801
571.192, 193.109
572.511, 81.727
573.829, 209.670
575.147, 227.373
576.464, 75.201
577.782, 263.021
579.099, 30.623
580.416, 189.064
581.733, 66.953
583.050, 224.889
584.366, 142.391
585.683, 349.893
586.999, 157.721
588.315, 115.160
589.630, 302.756
590.946, 90.098
592.261, 62.371
593.576, 334.850
594.891, 242.189
596.206, 369.227
597.520, 166.221
598.834, 303.375
600.148, 580.301
601.462, 247.188
602.776, 324.105
604.089, 290.916
605.402, 388.111
606.715, 404.844
608.028, 391.539
609.341, 439.094
610.653, 485.723
611.965, 512.311
613.277, 540.949
614.589, 585.371
615.901, 591.859
617.212, 508.320
618.523, 553.086
619.834, 591.154
621.145, 597.527
622.456, 673.883
623.766, 610.221
625.076, 656.521
626.386, 592.783
627.696, 799.008
629.006, 685.195
630.315, 611.350
631.624, 617.465
632.933, 383.543
634.242, 459.582
635.551, 655.588
636.859, 451.561
638.167, 507.494
639.475, 543.393
640.783, 259.254
642.090, 605.076
643.398, 440.861
644.705, 396.611
646.012, 422.320
647.318, 287.998
648.625, 453.641
649.931, 259.242
651.237, 514.805
652.543, 240.330
653.849, 295.816
655.155, 271.266
656.460, 156.676
657.765, 282.045
659.070, 337.375
660.375, 87.252
661.679, 318.016
662.984, 113.244
664.288, 278.459
665.592, 94.025
666.895, 219.158
668.199, 234.254
669.502, 59.473
670.805, 174.514
672.108, 50.488
673.411, 194.422
674.713, 49.348
676.016, 134.541
677.318, 179.730
678.620, 165.463
679.921, 168.783
681.223, 114.561
682.524, 79.898
683.825, 34.539
685.126, 50.088
686.427, 51.418
687.727, 98.457
689.028, 93.277
690.328, 117.230
691.628, 110.926
692.927, 83.848
694.227, 154.283
695.526, 20.717
696.825, 161.914
698.124, 64.664
699.423, 48.955
700.721, 68.092
702.020, 166.363
703.318, 212.535
704.616, 115.875
705.913, 61.084
707.211, 81.537
708.508, 51.648
709.805, 141.307
711.102, 224.486
712.399, 166.707
713.695, 153.564
714.992, 96.428
716.288, 22.168
717.584, 350.744
718.879, 23.217
720.175, 243.633
721.470, 44.664
722.765, 267.566
724.060, 239.553
725.355, 49.236
726.649, 257.195
727.944, 81.457
729.238, 233.475
730.532, 305.848
731.825, 245.465
733.119, 235.393
734.412, 283.826
735.705, 64.785
736.998, 186.883
738.291, 168.270
739.584, 260.439
740.876, 250.209
742.168, 167.361
743.460, 249.141
744.752, 201.238
746.043, 252.568
747.334, 195.035
748.626, 240.678
749.916, 203.123
751.207, 265.045
752.498, 357.229
753.788, 218.768
755.078, 441.203
756.368, 453.293
757.658, 245.070
758.947, 357.096
760.237, 158.994
761.526, 471.059
762.815, 392.986
764.104, 44.887
765.392, 597.102
766.680, 288.934
767.969, 380.734
769.257, 712.502
770.544, 564.240
771.832, 416.867
773.119, 558.547
774.406, 490.195
775.693, 611.816
776.980, 443.404
778.267, 715.025
779.553, 526.557
780.839, 458.160
782.125, 859.633
783.411, 581.072
784.697, 813.258
785.982, 664.641
787.267, 825.996
788.552, 917.318
789.837, 548.615
791.122, 781.145
792.406, 782.383
793.690, 683.596
794.974, 914.775
796.258, 1035.688
797.542, 766.814
798.825, 767.912
800.108, 738.982
801.391, 940.025
802.674, 890.918
803.957, 691.906
805.239, 812.625
806.522, 543.557
807.804, 864.143
809.085, 604.936
810.367, 425.598
811.649, 605.879
812.930, 676.533
814.211, 473.076
815.492, 465.799
816.772, 496.518
818.053, 692.865
819.333, 143.375
820.613, 433.223
821.893, 344.283
823.173, 194.527
824.452, 460.686
825.732, 460.627
827.011, 245.447
828.290, 368.662
829.568, 167.840
830.847, 157.510
832.125, 25.150
833.403, 204.887
834.681, 426.326
835.959, 95.801
837.236, 375.070
838.514, 107.764
839.791, 366.729
841.068, 155.688
842.345, 164.959
843.621, 334.186
844.898, 283.488
846.174, 32.746
847.450, 405.059
848.726, 44.490
850.001, 160.875
851.277, 410.299
852.552, 223.900
853.827, 512.688
855.102, 3.955
856.376, 355.398
857.651, 294.988
858.925, 404.152
860.199, 308.066
861.473, 117.062
862.746, 475.863
864.020, 395.123
865.293, 214.717
866.566, 372.203
867.839, 271.521
869.112, 350.590
870.384, 577.184
871.656, 87.023
872.928, 505.604
874.200, 45.260
875.472, 570.465
876.744, 210.201
878.015, 120.191
879.286, 508.475
880.557, 21.922
881.828, 116.914
883.098, 376.375
884.369, 13.977
885.639, 415.494
886.909, 254.918
888.178, 164.516
889.448, 183.213
890.717, 172.412
891.987, 401.527
893.256, 211.018
894.524, 39.539
895.793, 339.512
897.061, 38.898
898.330, 128.076
899.598, 447.459
900.865, 196.594
902.133, 115.959
903.401, 375.158
904.668, 324.621
905.935, 284.072
907.202, 73.326
908.468, 452.760
909.735, 332.182
911.001, 351.568
912.267, 451.018
913.533, 130.029
914.799, 429.457
916.064, 208.869
917.330, 67.381
918.595, 596.773
919.860, 276.152
921.124, 395.521
922.389, 214.881
923.653, 5.770
924.918, 233.561
926.182, 212.881
927.445, 222.193
928.709, 491.492
929.972, 130.785
931.236, 270.066
932.499, 119.338
933.761, 338.604
935.024, 197.859
936.286, 2.895
937.549, 296.336
938.811, 245.559
940.073, 304.770
941.334, 413.977
942.596, 16.824
943.857, 292.352
945.118, 221.521
946.379, 180.686
947.640, 359.838
948.900, 358.988
950.161, 138.129
951.421, 367.266
952.681, 146.395
953.940, 365.516
955.200, 244.631
956.459, 173.740
957.719, 372.842
958.978, 211.939
960.236, 191.033
961.495, 400.123
962.753, 99.207
964.012, 408.289
965.270, 262.631
966.527, 176.307
967.785, 415.279
969.043, 115.756
970.300, 443.152
971.557, 91.670
972.814, 9.430
974.071, 179.461
975.327, 121.812
976.583, 137.020
977.840, 135.848
979.095, 225.301
980.351, 233.436
981.607, 191.863
982.862, 139.748
984.117, 497.973
985.372, 33.527
986.627, 315.131
987.882, 133.164
989.136, 78.172
990.390, 229.881
991.644, 138.520
992.898, 236.791
994.152, 225.105
995.405, 113.787
996.659, 622.471
997.912, 110.287
999.165, 149.006
1000.417, 486.939
1001.670, 325.398
1002.922, 804.145
1004.174, 382.916
1005.426, 281.760
1006.678, 519.039
1007.930, 337.916
1009.181, 626.795
1010.432, 395.678
1011.683, 254.590
1012.934, 663.135
1014.185, 262.059
1015.435, 480.994
1016.685, 359.930
1017.935, 458.922
1019.185, 647.922
1020.435, 306.926
1021.684, 665.947
1022.934, 914.551
1024.183, 563.576
1025.432, 622.023
1026.680, 461.074
1027.929, 620.127
1029.177, 741.258
1030.425, 460.318
1031.673, 497.502
1032.921, 586.320
1034.169, 175.395
1035.416, 732.990
1036.663, 392.354
1037.911, 441.436
1039.157, 580.486
1040.404, 589.574
1041.650, 618.668
1042.897, 607.783
1044.143, 407.309
1045.389, 543.754
1046.634, 752.881
1047.880, 641.986
1049.125, 840.994
1050.371, 540.158
1051.615, 959.324
1052.860, 428.459
1054.105, 509.898
1055.349, 799.074
1056.593, 508.854
1057.837, 398.117
1059.081, 777.301
1060.325, 437.865
1061.568, 767.047
1062.812, 416.230
1064.055, 465.309
1065.298, 784.484
1066.540, 143.662
1067.783, 582.625
1069.025, 511.799
1070.267, 500.963
1071.509, 840.121
1072.751, 229.281
1073.993, 427.596
1075.234, 836.738
1076.475, 435.986
1077.716, 705.107
1078.957, 574.232
1080.198, 443.299
1081.438, 732.434
1082.679, 511.467
1083.919, 741.232
1085.159, 770.379
1086.398, 598.758
1087.638, 997.912
1088.877, 527.072
1090.116, 666.473
1091.355, 875.645
1092.594, 813.557
1093.833, 872.738
1095.071, 611.924
1096.309, 531.260
1097.547, 950.457
1098.785, 509.656
1100.023, 499.074
1101.260, 748.293
1102.498, 347.516
1103.735, 756.746
1104.972, 875.984
1106.208, 885.230
1107.445, 914.484
1108.681, 473.750
1109.918, 833.746
1111.154, 1033.031
1112.389, 592.199
1113.625, 1012.160
1114.860, 575.703
1116.096, 605.023
1117.331, 1054.660
1118.566, 627.496
1119.800, 747.246
1121.035, 796.465
1122.269, 804.977
1123.503, 1204.449
1124.737, 837.039
1125.971, 646.434
1127.205, 1235.844
1128.438, 582.020
1129.671, 1172.043
1130.904, 871.484
1132.137, 603.125
1133.370, 1003.254
1134.602, 871.016
1135.834, 650.805
1137.066, 1170.707
1138.298, 596.340
1139.530, 1216.199
1140.762, 955.711
1141.993, 595.227
1143.224, 1302.785
1144.455, 552.426
1145.686, 1272.211
1146.917, 1061.691
1148.147, 381.180
1149.377, 1122.605
1150.607, 912.355
1151.837, 741.875
1153.067, 1116.703
1154.296, 666.254
1155.526, 1126.871
1156.755, 1016.449
1157.984, 646.031
1159.213, 786.738
1160.441, 1037.031
1161.670, 546.652
1162.898, 1007.898
1164.126, 288.312
1165.354, 807.969
1166.581, 859.078
1167.809, 318.754
1169.036, 838.441
1170.263, 538.359
1171.490, 138.062
1172.717, 887.773
1173.943, 287.727
1175.170, 307.465
1176.396, 577.211
1177.622, 216.996
1178.848, 446.797
1180.073, 376.992
1181.299, 406.805
1182.524, 666.629
1183.749, 76.473
1184.974, 386.195
1186.199, 415.926
1187.423, 175.637
1188.648, 605.355
1189.872, 309.195
1191.096, 58.629
1192.320, 498.328
1193.543, 238.133
1194.767, 37.488
1195.990, 194.910
1197.213, 184.211
1198.436, 273.496
1199.659, 134.426
1200.881, 46.332
1202.104, 672.871
1203.326, 32.852
1204.548, 71.984
1205.770, 551.090
1206.991, 189.844
1208.213, 548.988
1209.434, 198.484
1210.655, 206.867
1211.876, 615.172
1213.096, 233.312
1214.317, 151.301
1215.537, 539.152
1216.757, 436.855
1217.977, 494.340
1219.197, 213.074
1220.417, 170.254
1221.636, 687.297
1222.855, 163.938
1224.074, 439.570
1225.293, 209.457
1226.512, 219.359
1227.731, 539.266
1228.949, 239.188
1230.167, 49.125
1231.385, 559.078
1232.603, 359.055
1233.820, 399.043
1235.038, 549.043
1236.255, 149.051
1237.472, 789.074
1238.689, 219.113
1239.906, 309.164
1241.122, 979.219
1242.338, 179.289
1243.555, 409.520
1244.771, 559.797
1245.986, 170.125
1247.202, 710.473
1248.417, 300.918
1249.633, 371.441
1250.848, 542.059
1252.063, 302.773
1253.277, 383.523
1254.492, 424.316
1255.706, 65.152
1256.920, 795.969
1258.134, 246.762
1259.348, 87.582
1260.562, 898.398
1261.775, 419.156
1262.988, 179.836
1264.201, 960.539
1265.414, 161.242
1266.627, 531.953
1267.839, 482.668
1269.052, 243.391
1270.264, 1034.125
1271.476, 394.883
1272.688, 395.656
1273.899, 866.453
1275.111, 137.262
1276.322, 768.094
1277.533, 298.488
1278.744, 129.359
1279.955, 1080.223
1281.165, 220.414
1282.376, 200.441
1283.586, 401.223
1284.796, 221.766
1286.006, 458.645
1287.215, 347.598
1288.425, 92.043
1289.634, 248.504
1290.843, 219.105
1292.052, 309.488
1293.261, 560.234
1294.469, 21.055
1295.678, 251.812
1296.886, 772.637
1298.094, 196.250
1299.302, 474.902
1300.509, 104.770
1301.717, 395.961
1302.924, 826.668
1304.131, 107.922
1305.338, 169.215
1306.545, 790.199
1307.752, 71.051
1308.958, 162.418
1310.164, 793.805
1311.370, 95.207
1312.576, 664.758
1313.782, 416.145
1314.987, 305.758
1316.193, 876.277
1317.398, 576.488
1318.603, 317.836
1319.807, 978.910
1321.012, 420.266
1322.216, 719.789
1323.421, 801.117
1324.625, 300.285
1325.829, 819.223
1327.032, 589.328
1328.236, 410.719
1329.439, 992.277
1330.642, 452.238
1331.845, 685.832
1333.048, 655.777
1334.251, 7.531
1335.453, 916.340
1336.656, 279.391
1337.858, 253.766
1339.060, 889.266
1340.261, 61.824
1341.463, 433.648
1342.664, 637.336
1343.866, 90.320
1345.067, 593.785
1346.267, 726.438
1347.468, 175.602
1348.669, 816.133
1349.869, 367.191
1351.069, 527.383
1352.269, 652.180
1353.469, 166.074
1354.668, 811.887
1355.868, 273.125
1357.067, 450.664
1358.266, 571.918
1359.465, 458.172
1360.664, 199.504
1361.862, 656.457
1363.061, 1.871
1364.259, 289.312
1365.457, 381.402
1366.655, 25.742
1367.852, 0.000
##END=



