##NAMES=Barrerite
##RRUFFID=R050135
##IDEAL CHEMISTRY=Na_2_(Al_2_Si_7_)O_18_&#183;6H_2_O
##LOCALITY=Kuiu Island, Alaska, USA
##OWNER=RRUFF
##SOURCE=Ben Norton
##DESCRIPTION=Colorless laminar crystals
##STATUS=The identification of this mineral has been confirmed by X-ray diffraction and chemical analysis
##URL=rruff.info/R050135
##MEASURED CHEMISTRY=(Na_4.49_K_1.30_Ca_1.23_[box]_0.98_)_Σ=8_(Si_27.75_Al_8.25_)O_72_·19H_2_O
##PIN_ID=M00182
##ORIENTATION=Laser parallel to c* (0 0 1). Fiducial mark perpendicular to laser is parallel to -a [-1 0 0]
141.323, 0.000
142.709, 43.762
144.094, 165.373
145.480, 105.593
146.865, 192.577
148.250, 215.845
149.635, 21.248
151.019, 176.976
152.403, 94.726
153.788, 83.943
155.171, 8.600
156.555, 114.472
157.939, 95.465
159.322, 313.433
160.705, 222.607
162.088, 199.723
163.470, 253.761
164.853, 241.646
166.235, 244.596
167.617, 242.766
168.998, 424.834
170.380, 402.569
171.761, 258.940
173.142, 488.096
174.523, 216.486
175.904, 518.943
177.284, 447.192
178.664, 475.016
180.044, 452.030
181.424, 331.414
182.803, 557.969
184.183, 427.196
185.562, 457.919
186.940, 351.373
188.319, 446.138
189.698, 218.662
191.076, 238.610
192.454, 107.657
193.831, 117.330
195.209, 105.342
196.586, 172.417
197.963, 100.389
199.340, 98.631
200.717, 72.581
202.093, 157.716
203.470, 17.532
204.846, 106.385
206.221, 21.738
207.597, 19.062
208.972, 6.727
210.347, 34.196
211.722, 105.838
213.097, 133.730
214.472, 64.242
215.846, 13.574
217.220, 39.648
218.594, 84.373
219.967, 110.736
221.341, 70.914
222.714, 292.012
224.087, 3.267
225.460, 105.142
226.832, 167.537
228.204, 120.356
229.577, 43.521
230.948, 196.950
232.320, 19.410
233.692, 94.412
235.063, 68.367
236.434, 202.418
237.805, 394.979
239.175, 330.675
240.545, 344.551
241.916, 428.942
243.286, 233.013
244.655, 117.004
246.025, 180.914
247.394, 344.729
248.763, 118.423
250.132, 331.965
251.501, 85.355
252.869, 198.598
254.237, 221.688
255.605, 94.592
256.973, 307.313
258.340, 309.843
259.708, 302.170
261.075, 194.229
262.442, 246.112
263.808, 337.794
265.175, 109.396
266.541, 290.911
267.907, 132.373
269.273, 173.812
270.639, 85.241
272.004, 6.664
273.369, 18.126
274.734, 70.383
276.099, 71.122
277.463, 52.661
278.828, 15.771
280.192, 135.809
281.556, 127.411
282.919, 249.036
284.283, 100.660
285.646, 262.266
287.009, 123.835
288.372, 215.369
289.734, 306.833
291.097, 138.190
292.459, 459.479
293.821, 360.712
295.183, 511.898
296.544, 313.043
297.905, 434.148
299.266, 685.220
300.627, 516.270
301.988, 757.296
303.348, 738.311
304.709, 1009.316
306.069, 1071.154
307.428, 971.944
308.788, 1471.648
310.147, 1360.185
311.507, 1547.735
312.865, 1684.199
314.224, 1878.900
315.583, 2073.549
316.941, 1977.004
318.299, 2139.597
319.657, 2110.082
321.015, 2191.287
322.372, 2421.588
323.729, 2172.174
325.086, 2321.670
326.443, 2060.365
327.800, 2158.658
329.156, 2116.308
330.512, 1953.340
331.868, 1969.688
333.224, 1756.215
334.579, 1892.090
335.935, 1816.867
337.290, 1841.991
338.645, 1795.164
339.999, 1679.293
341.354, 1802.392
342.708, 1475.032
344.062, 1797.152
345.416, 1598.021
346.769, 1689.839
348.123, 1730.952
349.476, 1662.022
350.829, 1782.347
352.182, 1623.019
353.534, 1802.066
354.887, 1831.244
356.239, 1818.828
357.591, 2056.548
358.942, 1844.057
360.294, 2102.455
361.645, 2309.871
362.996, 2147.253
364.347, 2554.197
365.698, 2512.381
367.048, 2805.834
368.398, 2773.377
369.748, 3099.151
371.098, 3382.703
372.448, 3437.612
373.797, 3983.611
375.146, 4200.938
376.495, 4627.246
377.844, 5008.002
379.192, 5203.877
380.540, 5606.369
381.889, 5784.457
383.236, 6393.004
384.584, 6640.750
385.932, 7020.613
387.279, 7376.635
388.626, 7805.278
389.973, 8328.547
391.319, 8703.021
392.666, 9482.063
394.012, 10043.187
395.358, 10673.379
396.704, 11705.178
398.049, 12014.324
399.394, 13306.171
400.740, 14068.173
402.084, 15200.197
403.429, 16736.398
404.774, 17656.979
406.118, 19400.922
407.462, 20130.857
408.806, 21705.213
410.150, 22435.102
411.493, 23033.475
412.836, 24115.799
414.179, 23534.266
415.522, 23559.689
416.865, 23099.150
418.207, 21752.043
419.549, 20946.828
420.891, 19326.758
422.233, 18632.906
423.575, 16782.119
424.916, 15854.028
426.257, 14553.947
427.598, 13504.703
428.939, 12834.196
430.279, 11412.928
431.619, 10753.832
432.959, 10112.055
434.299, 9339.949
435.639, 9047.560
436.978, 8061.437
438.318, 8299.545
439.657, 7297.517
440.996, 6964.602
442.334, 6703.246
443.673, 6271.861
445.011, 6200.994
446.349, 5939.447
447.687, 5938.643
449.024, 6117.264
450.361, 5956.273
451.699, 6375.671
453.036, 6494.368
454.372, 7244.416
455.709, 7184.055
457.045, 7854.334
458.381, 8863.786
459.717, 9033.753
461.053, 9884.339
462.388, 10064.663
463.724, 10035.237
465.059, 10135.802
466.394, 9466.361
467.728, 9566.828
469.063, 8607.206
470.397, 8217.501
471.731, 7557.711
473.065, 6517.850
474.398, 6377.914
475.732, 5737.918
477.065, 5487.856
478.398, 5007.735
479.731, 4837.559
481.063, 4747.337
482.396, 4587.064
483.728, 4696.746
485.060, 4526.379
486.391, 4815.973
487.723, 4925.523
489.054, 5005.039
490.385, 5824.518
491.716, 5963.963
493.047, 6733.379
494.377, 7832.764
495.708, 8382.124
497.038, 9901.455
498.368, 10430.769
499.697, 11460.059
501.027, 11679.331
502.356, 11338.582
503.685, 10907.822
505.014, 9417.050
506.342, 8446.270
507.671, 7105.479
508.999, 5684.678
510.327, 4863.869
511.655, 3693.058
512.982, 3302.240
514.310, 2541.424
515.637, 2280.607
516.964, 1999.796
518.291, 1548.990
519.617, 1508.190
520.944, 1207.394
522.270, 1146.605
523.596, 876.206
524.921, 615.436
526.247, 884.670
527.572, 525.739
528.897, 495.095
530.222, 534.783
531.547, 444.586
532.871, 413.962
534.196, 253.371
535.520, 312.785
536.844, 262.760
538.167, 162.828
539.491, 282.580
540.814, 12.304
542.137, 151.962
543.460, 72.266
544.783, 31.917
546.105, 151.558
547.427, 1.878
548.749, 241.570
550.071, 17.653
551.393, 27.634
552.714, 37.824
554.035, 87.994
555.356, 65.672
556.677, 18.685
557.998, 48.771
559.318, 34.062
560.638, 39.590
561.958, 110.089
563.278, 9.377
564.597, 81.004
565.917, 21.576
567.236, 91.731
568.555, 87.643
569.874, 162.980
571.192, 43.618
572.511, 65.683
573.829, 104.992
575.147, 64.335
576.464, 76.408
577.782, 86.793
579.099, 42.394
580.416, 108.159
581.733, 100.963
583.050, 39.922
584.366, 79.160
585.683, 31.769
586.999, 137.276
588.315, 146.338
589.630, 24.591
590.946, 184.594
592.261, 93.624
593.576, 252.740
594.891, 351.768
596.206, 210.812
597.520, 369.855
598.834, 248.896
600.148, 408.077
601.462, 497.120
602.776, 436.158
604.089, 585.191
605.402, 534.219
606.715, 683.239
608.028, 737.515
609.341, 871.264
610.653, 910.288
611.965, 909.322
613.277, 1038.347
614.589, 1029.699
615.901, 1046.359
617.212, 1145.368
618.523, 1184.365
619.834, 1383.346
621.145, 1152.313
622.456, 1391.268
623.766, 1420.206
625.076, 1209.136
626.386, 1248.051
627.696, 1376.949
629.006, 1145.836
630.315, 1444.707
631.624, 1103.564
632.933, 1212.408
634.242, 1031.238
635.551, 1050.054
636.859, 1078.857
638.167, 947.648
639.475, 1106.424
640.783, 955.188
642.090, 773.939
643.398, 982.678
644.705, 651.403
646.012, 830.115
647.318, 668.815
648.625, 707.506
649.931, 806.185
651.237, 624.852
652.543, 673.505
653.849, 522.145
655.155, 640.772
656.460, 559.389
657.765, 437.991
659.070, 546.584
660.375, 605.163
661.679, 213.744
662.984, 572.311
664.288, 320.867
665.592, 499.428
666.895, 378.360
668.199, 266.896
669.502, 375.871
670.805, 274.720
672.108, 413.217
673.411, 271.731
674.713, 220.201
676.016, 258.735
677.318, 207.336
678.620, 256.373
679.921, 85.101
681.223, 203.993
682.524, 182.592
683.825, 2.131
685.126, 166.369
686.427, 100.922
687.727, 79.295
689.028, 198.479
690.328, 251.274
691.628, 259.521
692.927, 68.221
694.227, 59.882
695.526, 137.916
696.825, 161.988
698.124, 181.672
699.423, 39.703
700.721, 240.783
702.020, 278.056
703.318, 53.112
704.616, 313.401
705.913, 31.638
707.211, 131.219
708.508, 177.127
709.805, 181.325
711.102, 204.320
712.399, 338.390
713.695, 135.619
714.992, 240.775
716.288, 296.407
717.584, 201.787
718.879, 272.874
720.175, 165.863
721.470, 358.564
722.765, 98.567
724.060, 360.519
725.355, 240.579
726.649, 188.684
727.944, 303.609
729.238, 327.518
730.532, 179.081
731.825, 376.195
733.119, 105.389
734.412, 517.583
735.705, 124.812
736.998, 288.483
738.291, 365.791
739.584, 250.625
740.876, 487.538
742.168, 262.460
743.460, 315.420
744.752, 182.627
746.043, 148.034
747.334, 375.652
748.626, 162.523
749.916, 290.047
751.207, 297.734
752.498, 245.128
753.788, 372.372
755.078, 150.369
756.368, 287.713
757.658, 345.137
758.947, 242.517
760.237, 360.020
761.526, 307.140
762.815, 414.597
764.104, 621.674
765.392, 744.223
766.680, 1125.199
767.969, 652.215
769.257, 319.366
770.544, 436.339
771.832, 227.268
773.119, 514.284
774.406, 471.192
775.693, 408.245
776.980, 615.170
778.267, 492.013
779.553, 540.067
780.839, 426.867
782.125, 473.646
783.411, 670.401
784.697, 367.137
785.982, 763.919
787.267, 440.611
788.552, 597.281
789.837, 593.931
791.122, 580.558
792.406, 717.246
793.690, 593.831
794.974, 470.394
796.258, 686.936
797.542, 603.456
798.825, 619.955
800.108, 446.467
801.391, 592.923
802.674, 580.126
803.957, 606.540
805.239, 622.933
806.522, 629.304
807.804, 620.943
809.085, 461.982
810.367, 548.291
811.649, 514.577
812.930, 401.233
814.211, 507.478
815.492, 456.638
816.772, 402.841
818.053, 509.021
819.333, 339.636
820.613, 85.774
821.893, 221.889
823.173, 67.982
824.452, 94.050
825.732, 230.094
827.011, 166.118
828.290, 177.999
829.568, 153.959
830.847, 134.148
832.125, 40.086
833.403, 95.995
834.681, 51.501
835.959, 117.362
837.236, 76.799
838.514, 127.177
839.791, 67.151
841.068, 148.154
842.345, 23.348
843.621, 41.042
844.898, 204.508
846.174, 50.038
847.450, 24.962
848.726, 129.942
850.001, 64.844
851.277, 9.623
852.552, 105.637
853.827, 29.729
855.102, 155.527
856.376, 89.230
857.651, 24.709
858.925, 100.408
860.199, 25.578
861.473, 179.150
862.746, 115.928
864.020, 48.902
865.293, 93.852
866.566, 8.822
867.839, 33.479
869.112, 88.424
870.384, 73.363
871.656, 108.297
872.928, 76.758
874.200, 187.980
875.472, 47.131
876.744, 187.297
878.015, 27.850
879.286, 153.035
880.557, 61.686
881.828, 93.566
883.098, 11.109
884.369, 95.730
885.639, 89.600
886.909, 74.646
888.178, 29.275
889.448, 36.383
890.717, 58.219
891.987, 52.809
893.256, 137.395
894.524, 128.639
895.793, 83.457
897.061, 101.051
898.330, 65.533
899.598, 29.871
900.865, 154.350
902.133, 58.725
903.401, 13.180
904.668, 77.615
905.935, 162.039
907.202, 3.549
908.468, 70.707
909.735, 45.086
911.001, 49.451
912.267, 13.801
913.533, 288.141
914.799, 12.467
916.064, 336.779
917.330, 88.920
918.595, 64.678
919.860, 239.518
921.124, 53.703
922.389, 157.877
923.653, 67.959
924.918, 66.158
926.182, 120.264
927.445, 44.361
928.709, 68.449
929.972, 242.525
931.236, 23.406
932.499, 160.639
933.761, 114.676
935.024, 278.705
936.286, 122.727
937.549, 56.738
938.811, 250.740
940.073, 84.736
941.334, 108.727
942.596, 142.707
943.857, 46.682
945.118, 140.648
946.379, 114.605
947.640, 98.559
948.900, 172.508
950.161, 86.447
951.421, 50.381
952.681, 204.309
953.940, 21.770
955.200, 172.137
956.459, 66.037
957.719, 129.934
958.978, 193.822
960.236, 157.709
961.495, 201.586
962.753, 405.459
964.012, 10.674
965.270, 243.186
966.527, 72.961
967.785, 160.861
969.043, 264.680
970.300, 101.506
971.557, 292.264
972.814, 115.650
974.071, 99.412
975.327, 122.721
976.583, 56.139
977.840, 149.891
979.095, 143.607
980.351, 7.352
981.607, 211.016
982.862, 184.600
984.117, 127.732
985.372, 521.160
986.627, 34.412
987.882, 337.941
989.136, 294.777
990.390, 198.369
991.644, 265.891
992.898, 359.582
994.152, 372.443
995.405, 371.676
996.659, 315.498
997.912, 648.850
999.165, 279.221
1000.417, 402.926
1001.670, 500.852
1002.922, 322.283
1004.174, 735.941
1005.426, 296.197
1006.678, 340.121
1007.930, 536.748
1009.181, 367.463
1010.432, 561.193
1011.683, 471.945
1012.934, 355.977
1014.185, 571.207
1015.435, 414.836
1016.685, 618.680
1017.935, 471.717
1019.185, 595.338
1020.435, 739.246
1021.684, 493.100
1022.934, 577.109
1024.183, 615.238
1025.432, 729.451
1026.680, 779.520
1027.929, 663.756
1029.177, 615.094
1030.425, 658.676
1031.673, 652.662
1032.921, 630.061
1034.169, 753.742
1035.416, 457.914
1036.663, 695.699
1037.911, 499.811
1039.157, 633.744
1040.404, 675.004
1041.650, 679.105
1042.897, 813.197
1044.143, 647.592
1045.389, 631.990
1046.634, 770.564
1047.880, 744.924
1049.125, 799.146
1050.371, 943.295
1051.615, 687.803
1052.860, 862.102
1054.105, 616.240
1055.349, 770.662
1056.593, 905.219
1057.837, 829.014
1059.081, 573.449
1060.325, 687.793
1061.568, 782.170
1062.812, 836.406
1064.055, 951.016
1065.298, 775.277
1066.540, 909.902
1067.783, 549.049
1069.025, 739.752
1070.267, 704.402
1071.509, 688.902
1072.751, 783.564
1073.993, 765.416
1075.234, 784.623
1076.475, 843.584
1077.716, 768.125
1078.957, 822.779
1080.198, 757.508
1081.438, 641.039
1082.679, 975.805
1083.919, 820.766
1085.159, 1035.576
1086.398, 1080.393
1087.638, 935.180
1088.877, 1270.047
1090.116, 994.920
1091.355, 1199.936
1092.594, 1204.826
1093.833, 1259.643
1095.071, 1394.686
1096.309, 1319.602
1097.547, 1305.010
1098.785, 1719.938
1100.023, 1344.873
1101.260, 1600.021
1102.498, 1764.977
1103.735, 1439.166
1104.972, 1984.135
1106.208, 1739.109
1107.445, 1894.094
1108.681, 2019.084
1109.918, 1784.082
1111.154, 2099.086
1112.389, 2144.098
1113.625, 1968.727
1114.860, 2144.066
1116.096, 2116.164
1117.331, 2111.205
1118.566, 2226.070
1119.800, 2157.301
1121.035, 2302.494
1122.269, 2417.566
1123.503, 2322.922
1124.737, 2638.068
1125.971, 2343.166
1127.205, 2338.348
1128.438, 2913.461
1129.671, 2338.490
1130.904, 2764.791
1132.137, 2569.932
1133.370, 2505.643
1134.602, 2972.607
1135.834, 2647.766
1137.066, 2673.510
1138.298, 3009.828
1139.530, 2605.023
1140.762, 3091.762
1141.993, 2897.010
1143.224, 2582.504
1144.455, 3351.068
1145.686, 2586.363
1146.917, 3182.070
1148.147, 3258.080
1149.377, 2483.375
1150.607, 3117.988
1151.837, 3033.561
1153.067, 2898.906
1154.296, 3314.203
1155.526, 2640.023
1156.755, 3146.242
1157.984, 3104.223
1159.213, 2899.625
1160.441, 3101.773
1161.670, 3108.074
1162.898, 2773.816
1164.126, 3363.043
1165.354, 2731.516
1166.581, 3026.955
1167.809, 3043.352
1169.036, 2689.684
1170.263, 3215.840
1171.490, 2935.016
1172.717, 2790.459
1173.943, 3236.652
1175.170, 2774.266
1176.396, 3029.869
1177.622, 2942.951
1178.848, 2768.801
1180.073, 2974.271
1181.299, 2562.148
1182.524, 2607.641
1183.749, 3063.391
1184.974, 2470.238
1186.199, 2866.201
1187.423, 2426.865
1188.648, 2352.945
1189.872, 2568.887
1191.096, 2266.881
1192.320, 1892.588
1193.543, 2329.188
1194.767, 1946.363
1195.990, 1921.846
1197.213, 1872.184
1198.436, 1858.840
1199.659, 2454.572
1200.881, 2735.395
1202.104, 1080.893
1203.326, 1636.414
1204.548, 1053.484
1205.770, 1068.811
1206.991, 1235.209
1208.213, 901.303
1209.434, 1016.582
1210.655, 783.314
1211.876, 538.561
1213.096, 904.814
1214.317, 641.225
1215.537, 646.623
1216.757, 641.902
1217.977, 727.461
1219.197, 692.648
1220.417, 688.125
1221.636, 644.715
1222.855, 692.455
1224.074, 458.287
1225.293, 603.398
1226.512, 449.838
1227.731, 381.381
1228.949, 666.570
1230.167, 112.900
1231.385, 253.984
1232.603, 619.090
1233.820, 421.723
1235.038, 347.227
1236.255, 522.229
1237.472, 149.361
1238.689, 704.350
1239.906, 219.334
1241.122, 155.295
1242.338, 570.268
1243.555, 75.232
1244.771, 370.494
1245.986, 515.447
1247.202, 141.502
1248.417, 436.562
1249.633, 281.494
1250.848, 207.209
1252.063, 492.133
1253.277, 347.613
1254.492, 322.514
1255.706, 317.404
1256.920, 222.977
1258.134, 607.830
1259.348, 322.668
1260.562, 148.691
1261.775, 553.438
1262.988, 248.400
1264.201, 123.100
1265.414, 487.766
1266.627, 202.539
1267.839, 238.508
1269.052, 172.980
1270.264, 229.156
1271.476, 553.750
1272.688, 228.064
1273.899, 253.828
1275.111, 528.016
1276.322, 2.170
1277.533, 499.555
1278.744, 123.613
1279.955, 12.365
1281.165, 701.902
1282.376, 125.830
1283.586, 19.725
1284.796, 353.574
1286.006, 2.615
1287.215, 404.943
1288.425, 218.588
1289.634, 187.836
1290.843, 275.670
1292.052, 179.121
1293.261, 112.539
1294.469, 326.180
1295.678, 120.482
1296.886, 235.463
1298.094, 328.703
1299.302, 128.123
1300.509, 185.133
1301.717, 98.193
1302.924, 8.838
1304.131, 354.080
1305.338, 233.156
1306.545, 89.797
1307.752, 232.395
1308.958, 25.059
1310.164, 12.561
1311.370, 459.877
1312.576, 137.734
1313.782, 94.951
1314.987, 137.191
1316.193, 180.615
1317.398, 411.467
1318.603, 133.490
1319.807, 5.459
1321.012, 277.371
1322.216, 80.783
1323.421, 230.965
1324.625, 322.660
1325.829, 4.293
1327.032, 426.162
1328.236, 257.645
1329.439, 49.076
1330.642, 210.453
1331.845, 38.275
1333.048, 182.926
1334.251, 214.074
1335.453, 5.168
1336.656, 266.154
1337.858, 77.088
1339.060, 27.961
1340.261, 318.773
1341.463, 190.469
1342.664, 70.176
1343.866, 250.840
1345.067, 38.633
1346.267, 301.822
1347.468, 292.223
1348.669, 32.570
1349.869, 382.861
1351.069, 93.102
1352.269, 143.281
1353.469, 373.564
1354.668, 53.648
1355.868, 373.678
1357.067, 103.670
1358.266, 83.617
1359.465, 293.523
1360.664, 325.176
1361.862, 255.010
1363.061, 414.811
1364.259, 15.416
1365.457, 364.307
1366.655, 424.014
1367.852, 173.969
1369.050, 383.479
1370.247, 72.955
1371.444, 47.619
1372.641, 311.680
1373.838, 82.559
1375.035, 40.014
1376.231, 323.650
1377.427, 62.783
1378.623, 230.611
1379.819, 384.094
1381.015, 37.404
1382.211, 420.305
1383.406, 493.420
1384.601, 136.746
1385.796, 530.027
1386.991, 373.271
1388.185, 296.477
1389.380, 599.641
1390.574, 132.406
1391.768, 344.971
1392.962, 377.850
1394.156, 190.506
1395.350, 683.367
1396.543, 246.156
1397.736, 407.596
1398.929, 729.676
1400.122, 220.193
1401.315, 510.770
1402.507, 641.508
1403.700, 143.723
1404.892, 579.379
1406.084, 330.193
1407.276, 370.418
1408.467, 572.156
1409.659, 330.430
1410.850, 97.697
1412.041, 656.832
1413.232, 56.652
1414.423, 298.621
1415.614, 834.551
1416.804, 63.279
1417.994, 614.562
1419.184, 341.020
1420.374, 9.814
1421.564, 530.068
1422.753, 416.867
1423.943, 244.697
1425.132, 326.201
1426.321, 444.615
1427.510, 320.227
1428.698, 595.521
1429.887, 28.965
1431.075, 347.895
1432.263, 457.977
1433.451, 273.979
1434.639, 581.244
1435.827, 328.920
1437.014, 215.324
1438.201, 640.260
1439.388, 11.357
1440.575, 436.746
1441.762, 577.318
1442.949, 234.506
1444.135, 660.342
1445.321, 335.672
1446.507, 238.988
1447.693, 660.908
1448.879, 167.064
1450.064, 299.492
1451.250, 774.008
1452.435, 410.346
1453.620, 485.738
1454.805, 638.709
1455.989, 132.320
1457.174, 676.059
1458.358, 530.830
1459.542, 323.607
1460.726, 724.781
1461.910, 478.355
1463.093, 412.350
1464.277, 872.262
1465.460, 331.721
1466.643, 545.328
1467.826, 705.373
1469.009, 109.984
1470.191, 693.982
1471.373, 616.994
1472.556, 340.740
1473.738, 921.953
1474.919, 435.742
1476.101, 369.387
1477.283, 781.928
1478.464, 205.348
1479.645, 658.098
1480.826, 620.053
1482.007, 292.736
1483.187, 494.889
1484.368, 608.188
1485.548, 131.291
1486.728, 582.479
1487.908, 375.342
1489.088, 178.178
1490.268, 710.973
1491.447, 163.926
1492.626, 336.982
1493.805, 718.445
1494.984, 101.850
1496.163, 355.926
1497.341, 700.039
1498.520, 164.934
1499.698, 460.133
1500.876, 365.664
1502.054, 29.127
1503.232, 457.254
1504.409, 194.215
1505.586, 241.975
1506.763, 788.516
1507.940, 177.916
1509.117, 108.336
1510.294, 491.346
1511.470, 176.125
1512.647, 288.467
1513.823, 448.420
1514.999, 1.045
1516.174, 0.000
##END=



