##NAMES=Barrerite
##RRUFFID=R050135
##IDEAL CHEMISTRY=Na_2_(Al_2_Si_7_)O_18_&#183;6H_2_O
##LOCALITY=Kuiu Island, Alaska, USA
##OWNER=RRUFF
##SOURCE=Ben Norton
##DESCRIPTION=Colorless laminar crystals
##STATUS=The identification of this mineral has been confirmed by X-ray diffraction and chemical analysis
##URL=rruff.info/R050135
##MEASURED CHEMISTRY=(Na_4.49_K_1.30_Ca_1.23_[box]_0.98_)_Σ=8_(Si_27.75_Al_8.25_)O_72_·19H_2_O
##PIN_ID=L00222
##ORIENTATION=Laser parallel to b* (0 1 0). Fiducial mark perpendicular to laser is parallel to c [0 0 1]
114.949, 0.000
116.339, 290.136
117.729, 97.560
119.119, 364.648
120.508, 280.883
121.897, 466.330
123.286, 365.416
124.675, 524.682
126.063, 601.754
127.452, 625.012
128.840, 883.217
130.228, 825.664
131.615, 1111.750
133.003, 1160.691
134.390, 1252.020
135.777, 1275.432
137.164, 1250.738
138.550, 1377.725
139.937, 1486.006
141.323, 1665.182
142.709, 1800.799
144.094, 1838.180
145.480, 2122.018
146.865, 2187.021
148.250, 2341.814
149.635, 2376.344
151.019, 2741.180
152.403, 2586.703
153.788, 2752.555
155.171, 2579.184
156.555, 2526.342
157.939, 2564.465
159.322, 2273.291
160.705, 2282.492
162.088, 2131.174
163.470, 1939.035
164.853, 1820.768
166.235, 1661.711
167.617, 1447.807
168.998, 1218.645
170.380, 1031.277
171.761, 952.633
173.142, 795.166
174.523, 888.375
175.904, 789.336
177.284, 606.416
178.664, 405.033
180.044, 514.492
181.424, 433.000
182.803, 263.887
184.183, 394.855
185.562, 290.787
186.940, 246.752
188.319, 82.875
189.698, 155.834
191.076, 13.762
192.454, 179.891
193.831, 238.836
195.209, 129.109
196.586, 117.111
197.963, 134.957
199.340, 212.004
200.717, 214.018
202.093, 216.738
203.470, 283.762
204.846, 185.965
206.221, 130.713
207.597, 113.871
208.972, 145.809
210.347, 101.477
211.722, 135.496
213.097, 103.986
214.472, 112.572
215.846, 171.246
217.220, 130.000
218.594, 38.824
219.967, 167.713
221.341, 3.342
222.714, 65.650
224.087, 75.316
225.460, 113.748
226.832, 72.840
228.204, 18.055
229.577, 121.062
230.948, 89.629
232.320, 89.488
233.692, 41.398
235.063, 92.295
236.434, 76.797
237.805, 65.865
239.175, 75.090
240.545, 26.076
241.916, 42.902
243.286, 31.840
244.655, 100.732
246.025, 109.584
247.394, 48.396
248.763, 47.174
250.132, 15.914
251.501, 4.592
252.869, 113.240
254.237, 68.164
255.605, 0.406
256.973, 118.885
258.340, 97.238
259.708, 74.475
261.075, 76.293
262.442, 21.852
263.808, 10.035
265.175, 8.047
266.541, 113.926
267.907, 93.998
269.273, 21.902
270.639, 160.305
272.004, 42.592
273.369, 65.021
274.734, 97.439
276.099, 80.055
277.463, 37.250
278.828, 155.572
280.192, 66.529
281.556, 6.271
282.919, 135.301
284.283, 126.107
285.646, 222.139
287.009, 80.205
288.372, 108.121
289.734, 105.941
291.097, 86.297
292.459, 221.396
293.821, 40.881
295.183, 66.822
296.544, 35.447
297.905, 27.703
299.266, 89.932
300.627, 145.549
301.988, 44.287
303.348, 196.391
304.709, 178.443
306.069, 80.438
307.428, 242.363
308.788, 394.217
310.147, 445.994
311.507, 427.686
312.865, 299.295
314.224, 570.820
315.583, 372.262
316.941, 643.615
318.299, 474.881
319.657, 576.051
321.015, 687.125
322.372, 528.102
323.729, 448.975
325.086, 529.740
326.443, 650.404
327.800, 520.967
329.156, 481.434
330.512, 461.812
331.868, 482.098
333.224, 502.266
334.579, 522.270
335.935, 512.154
337.290, 461.875
338.645, 541.469
339.999, 440.906
341.354, 480.199
342.708, 489.389
344.062, 308.516
345.416, 717.578
346.769, 366.568
348.123, 535.488
349.476, 594.266
350.829, 492.994
352.182, 441.539
353.534, 490.010
354.887, 538.334
356.239, 536.607
357.591, 444.691
358.942, 552.662
360.294, 526.494
361.645, 488.242
362.996, 615.797
364.347, 654.133
365.698, 930.430
367.048, 887.594
368.398, 1032.840
369.748, 1201.564
371.098, 1178.408
372.448, 1315.283
373.797, 1422.010
375.146, 1459.158
376.495, 1568.703
377.844, 1592.941
379.192, 1699.805
380.540, 1757.053
381.889, 1783.639
383.236, 1810.732
384.584, 2105.570
385.932, 2082.096
387.279, 2129.961
388.626, 2386.641
389.973, 2213.607
391.319, 2427.346
392.666, 2619.568
394.012, 2660.098
395.358, 2986.631
396.704, 3099.205
398.049, 3498.775
399.394, 3415.182
400.740, 3831.875
402.084, 4141.785
403.429, 4434.721
404.774, 4990.770
406.118, 5376.662
407.462, 5623.520
408.806, 5898.844
410.150, 6055.941
411.493, 6143.311
412.836, 6018.527
414.179, 5983.117
415.522, 5689.402
416.865, 5359.326
418.207, 5003.941
419.549, 4770.223
420.891, 4519.336
422.233, 4008.777
423.575, 3798.076
424.916, 3393.584
426.257, 3276.986
427.598, 2871.484
428.939, 2598.352
430.279, 2594.350
431.619, 2259.410
432.959, 2103.613
434.299, 2044.994
435.639, 1970.703
436.978, 1948.443
438.318, 1527.262
439.657, 1802.580
440.996, 1476.645
442.334, 1356.270
443.673, 1409.617
445.011, 1354.777
446.349, 1190.627
447.687, 1280.133
449.024, 1008.434
450.361, 1244.861
451.699, 951.305
453.036, 1196.648
454.372, 965.588
455.709, 950.109
457.045, 1188.494
458.381, 1052.650
459.717, 1066.410
461.053, 1081.389
462.388, 886.705
463.724, 960.676
465.059, 766.102
466.394, 1041.402
467.728, 995.857
469.063, 941.324
470.397, 936.834
471.731, 792.311
473.065, 787.754
474.398, 793.164
475.732, 799.273
477.065, 872.551
478.398, 939.199
479.731, 1034.480
481.063, 1159.729
482.396, 1224.945
483.728, 1280.131
485.060, 1464.906
486.391, 1800.414
487.723, 1885.510
489.054, 2400.578
490.385, 2785.615
491.716, 3370.627
493.047, 4055.607
494.377, 4260.561
495.708, 4985.488
497.038, 5420.387
498.368, 5465.262
499.697, 5210.109
501.027, 4984.934
502.356, 4369.732
503.685, 3794.510
505.014, 3189.127
506.342, 2533.857
507.671, 2318.562
508.999, 1923.246
510.327, 1487.908
511.655, 1372.549
512.982, 1038.428
514.310, 893.027
515.637, 988.332
516.964, 612.891
518.291, 647.979
519.617, 615.611
520.944, 650.117
522.270, 424.604
523.596, 200.316
524.921, 544.771
526.247, 294.930
527.572, 225.471
528.897, 392.006
530.222, 276.424
531.547, 300.803
532.871, 275.361
534.196, 108.475
535.520, 262.967
536.844, 118.768
538.167, 413.234
539.491, 97.338
540.814, 143.076
542.137, 142.369
543.460, 206.600
544.783, 292.330
546.105, 93.275
547.427, 311.148
548.749, 75.527
550.071, 242.547
551.393, 59.381
552.714, 18.023
554.035, 182.084
555.356, 86.127
556.677, 73.709
557.998, 317.764
559.318, 111.803
560.638, 368.178
561.958, 232.209
563.278, 218.215
564.597, 192.234
565.917, 88.463
567.236, 202.447
568.555, 186.416
569.874, 23.320
571.192, 257.246
572.511, 191.162
573.829, 305.070
575.147, 368.963
576.464, 113.764
577.782, 417.660
579.099, 8.459
580.416, 225.377
581.733, 309.225
583.050, 123.086
584.366, 356.936
585.683, 270.781
586.999, 184.619
588.315, 198.480
589.630, 332.328
590.946, 106.162
592.261, 150.031
593.576, 493.904
594.891, 287.766
596.206, 201.645
597.520, 305.539
598.834, 289.422
600.148, 503.340
601.462, 317.271
602.776, 371.201
604.089, 525.162
605.402, 519.107
606.715, 543.105
608.028, 607.123
609.341, 641.168
610.653, 595.236
611.965, 609.293
613.277, 743.408
614.589, 707.510
615.901, 911.633
617.212, 785.746
618.523, 859.855
619.834, 793.953
621.145, 868.037
622.456, 932.115
623.766, 936.188
625.076, 1100.248
626.386, 1094.303
627.696, 1118.338
629.006, 1162.361
630.315, 996.369
631.624, 870.367
632.933, 594.348
634.242, 728.316
635.551, 702.271
636.859, 706.211
638.167, 780.141
639.475, 864.057
640.783, 806.859
642.090, 771.848
643.398, 655.727
644.705, 759.592
646.012, 573.447
647.318, 917.289
648.625, 691.117
649.931, 494.934
651.237, 708.738
652.543, 572.533
653.849, 486.314
655.155, 570.086
656.460, 493.844
657.765, 447.592
659.070, 421.328
660.375, 339.611
661.679, 317.951
662.984, 182.584
664.288, 276.344
665.592, 170.090
666.895, 203.830
668.199, 277.562
669.502, 11.281
670.805, 194.980
672.108, 28.668
673.411, 292.340
674.713, 36.033
676.016, 20.285
677.318, 183.355
678.620, 147.045
679.921, 10.725
681.223, 174.404
682.524, 61.924
683.825, 68.314
685.126, 4.770
686.427, 118.746
687.727, 142.252
689.028, 75.748
690.328, 110.768
691.628, 82.355
692.927, 154.248
694.227, 78.766
695.526, 127.957
696.825, 4.836
698.124, 52.203
699.423, 130.686
700.721, 3.783
702.020, 66.855
703.318, 38.891
704.616, 45.352
705.913, 22.098
707.211, 39.090
708.508, 31.684
709.805, 229.906
711.102, 252.783
712.399, 194.744
713.695, 107.428
714.992, 190.213
716.288, 17.383
717.584, 255.365
718.879, 11.895
720.175, 310.822
721.470, 16.502
722.765, 225.693
724.060, 208.367
725.355, 29.018
726.649, 382.199
727.944, 154.824
729.238, 107.418
730.532, 360.031
731.825, 157.363
733.119, 274.768
734.412, 297.270
735.705, 156.816
736.998, 259.305
738.291, 201.787
739.584, 203.953
740.876, 246.426
742.168, 158.895
743.460, 231.316
744.752, 183.773
746.043, 376.225
747.334, 268.318
748.626, 410.596
749.916, 253.031
751.207, 455.463
752.498, 527.889
753.788, 410.309
755.078, 392.727
756.368, 545.137
757.658, 467.543
758.947, 549.943
760.237, 282.340
761.526, 634.730
762.815, 587.117
764.104, 349.500
765.392, 721.947
766.680, 544.318
767.969, 346.684
769.257, 929.045
770.544, 571.402
771.832, 623.756
773.119, 986.104
774.406, 638.445
775.693, 900.785
776.980, 833.117
778.267, 997.664
779.553, 889.988
780.839, 782.309
782.125, 1214.625
783.411, 1166.936
784.697, 1429.242
785.982, 1151.547
787.267, 1383.848
788.552, 1296.145
789.837, 1358.438
791.122, 1431.316
792.406, 1543.014
793.690, 1535.297
794.974, 1667.576
796.258, 1769.855
797.542, 1715.609
798.825, 1554.689
800.108, 1666.961
801.391, 1629.229
802.674, 1681.496
803.957, 1493.760
805.239, 1566.021
806.522, 1348.281
807.804, 1360.541
809.085, 1322.797
810.367, 1085.053
811.649, 1147.309
812.930, 1119.561
814.211, 820.582
815.492, 852.832
816.772, 935.082
818.053, 933.982
819.333, 326.230
820.613, 638.479
821.893, 461.566
823.173, 283.811
824.452, 584.795
825.732, 317.039
827.011, 458.557
828.290, 528.977
829.568, 280.672
830.847, 339.803
832.125, 255.232
833.403, 217.473
834.681, 483.691
835.959, 165.932
837.236, 332.451
838.514, 258.570
839.791, 648.682
841.068, 530.896
842.345, 343.139
843.621, 585.184
844.898, 539.979
846.174, 222.064
847.450, 452.830
848.726, 144.918
850.001, 107.355
851.277, 498.143
852.552, 275.365
853.827, 567.635
855.102, 218.406
856.376, 500.502
857.651, 412.553
858.925, 634.639
860.199, 744.072
861.473, 454.004
862.746, 593.018
864.020, 715.398
865.293, 297.785
866.566, 606.639
867.839, 459.043
869.112, 421.455
870.384, 481.523
871.656, 233.951
872.928, 464.416
874.200, 226.867
875.472, 527.104
876.744, 309.574
878.015, 172.055
879.286, 711.596
880.557, 114.100
881.828, 326.613
883.098, 269.137
884.369, 401.670
885.639, 223.316
886.909, 315.873
888.178, 158.441
889.448, 201.029
890.717, 263.631
891.987, 466.246
893.256, 238.871
894.524, 221.512
895.793, 354.164
897.061, 306.830
898.330, 179.506
899.598, 372.191
900.865, 234.896
902.133, 417.609
903.401, 540.334
904.668, 223.080
905.935, 505.840
907.202, 438.611
908.468, 511.396
909.735, 264.191
911.001, 27.049
912.267, 689.916
913.533, 142.797
914.799, 425.693
916.064, 248.602
917.330, 1.523
918.595, 554.457
919.860, 237.404
921.124, 500.365
922.389, 123.342
923.653, 266.330
924.918, 219.332
926.182, 372.352
927.445, 165.381
928.709, 478.428
929.972, 58.510
931.236, 384.547
932.499, 197.615
933.761, 430.701
935.024, 343.801
936.286, 146.918
937.549, 320.049
938.811, 233.197
940.073, 146.359
941.334, 229.537
942.596, 219.303
943.857, 125.943
945.118, 289.172
946.379, 302.416
947.640, 215.678
948.900, 268.957
950.161, 7.748
951.421, 545.559
952.681, 208.883
953.940, 392.223
955.200, 75.580
956.459, 98.957
957.719, 292.350
958.978, 135.760
960.236, 299.191
961.495, 242.639
962.753, 56.105
964.012, 349.592
965.270, 196.906
966.527, 206.537
967.785, 130.002
969.043, 156.516
970.300, 396.930
971.557, 30.393
972.814, 26.123
974.071, 47.369
975.327, 10.879
976.583, 14.414
977.840, 187.969
979.095, 188.453
980.351, 95.072
981.607, 8.625
982.862, 277.793
984.117, 535.697
985.372, 130.791
986.627, 92.699
987.882, 326.209
989.136, 99.766
990.390, 323.369
991.644, 187.006
992.898, 110.664
994.152, 434.342
995.405, 41.939
996.659, 271.826
997.912, 105.615
999.165, 289.477
1000.417, 653.359
1001.670, 567.307
1002.922, 921.281
1004.174, 575.305
1005.426, 599.377
1006.678, 463.482
1007.930, 307.609
1009.181, 511.760
1010.432, 465.934
1011.683, 49.852
1012.934, 464.389
1014.185, 208.668
1015.435, 612.969
1016.685, 457.297
1017.935, 311.709
1019.185, 616.146
1020.435, 320.607
1021.684, 465.102
1022.934, 609.617
1024.183, 675.232
1025.432, 689.797
1026.680, 594.395
1027.929, 759.012
1029.177, 633.652
1030.425, 398.316
1031.673, 563.000
1032.921, 727.699
1034.169, 202.422
1035.416, 557.164
1036.663, 211.973
1037.911, 496.801
1039.157, 731.652
1040.404, 496.523
1041.650, 521.414
1042.897, 556.324
1044.143, 472.129
1045.389, 547.082
1046.634, 622.055
1047.880, 477.047
1049.125, 652.062
1050.371, 597.094
1051.615, 882.152
1052.860, 537.227
1054.105, 574.098
1055.349, 969.215
1056.593, 724.355
1057.837, 449.512
1059.081, 934.691
1060.325, 460.598
1061.568, 855.820
1062.812, 641.066
1064.055, 516.332
1065.298, 961.621
1066.540, 276.934
1067.783, 352.195
1069.025, 687.547
1070.267, 402.922
1071.509, 838.324
1072.751, 543.738
1073.993, 609.184
1075.234, 894.652
1076.475, 370.137
1077.716, 685.652
1078.957, 681.188
1080.198, 424.527
1081.438, 800.109
1082.679, 525.715
1083.919, 681.352
1085.159, 837.012
1086.398, 652.695
1087.638, 958.406
1088.877, 674.145
1090.116, 549.910
1091.355, 965.695
1092.594, 961.512
1093.833, 947.352
1095.071, 653.215
1096.309, 479.113
1097.547, 1005.027
1098.785, 670.973
1100.023, 586.656
1101.260, 872.652
1102.498, 218.664
1103.735, 884.707
1104.972, 910.777
1106.208, 926.871
1107.445, 982.988
1108.681, 1002.359
1109.918, 981.637
1111.154, 1051.523
1112.389, 967.742
1113.625, 953.996
1114.860, 1041.512
1116.096, 717.820
1117.331, 1294.691
1118.566, 754.387
1119.800, 820.652
1121.035, 1166.945
1122.269, 982.430
1123.503, 1468.781
1124.737, 1175.160
1125.971, 791.566
1127.205, 1318.008
1128.438, 706.297
1129.671, 1353.184
1130.904, 1079.715
1132.137, 603.086
1133.370, 1380.086
1134.602, 1201.492
1135.834, 868.145
1137.066, 1484.832
1138.298, 701.551
1139.530, 1218.305
1140.762, 1055.090
1141.993, 761.910
1143.224, 1373.336
1144.455, 688.902
1145.686, 1315.824
1146.917, 1302.777
1148.147, 349.750
1149.377, 1076.797
1150.607, 963.848
1151.837, 590.945
1153.067, 1164.965
1154.296, 582.133
1155.526, 779.348
1156.755, 996.594
1157.984, 623.887
1159.213, 661.328
1160.441, 997.504
1161.670, 454.766
1162.898, 902.066
1164.126, 350.461
1165.354, 657.836
1166.581, 706.621
1167.809, 373.656
1169.036, 720.664
1170.263, 678.000
1171.490, 45.203
1172.717, 821.328
1173.943, 317.734
1175.170, 323.910
1176.396, 571.848
1177.622, 135.801
1178.848, 402.582
1180.073, 329.398
1181.299, 156.250
1182.524, 513.133
1183.749, 170.051
1184.974, 287.000
1186.199, 473.977
1187.423, 50.984
1188.648, 538.027
1189.872, 225.098
1191.096, 37.812
1192.320, 469.312
1193.543, 76.371
1194.767, 193.457
1195.990, 310.574
1197.213, 417.727
1198.436, 134.914
1199.659, 342.129
1200.881, 60.625
1202.104, 796.660
1203.326, 93.992
1204.548, 361.363
1205.770, 518.762
1206.991, 213.809
1208.213, 403.660
1209.434, 231.152
1210.655, 68.676
1211.876, 786.234
1213.096, 273.824
1214.317, 211.441
1215.537, 739.094
1216.757, 416.773
1217.977, 374.488
1219.197, 272.227
1220.417, 190.105
1221.636, 428.047
1222.855, 386.066
1224.074, 524.133
1225.293, 392.234
1226.512, 310.426
1227.731, 788.703
1228.949, 217.191
1230.167, 165.797
1231.385, 804.438
1232.603, 343.125
1233.820, 211.816
1235.038, 650.539
1236.255, 209.309
1237.472, 978.109
1238.689, 446.906
1239.906, 345.684
1241.122, 1004.500
1242.338, 383.352
1243.555, 332.254
1244.771, 661.168
1245.986, 300.105
1247.202, 489.090
1248.417, 516.055
1249.633, 485.129
1250.848, 644.277
1252.063, 363.516
1253.277, 582.828
1254.492, 602.215
1255.706, 531.676
1256.920, 971.215
1258.134, 448.875
1259.348, 258.539
1260.562, 918.285
1261.775, 398.121
1262.988, 3.762
1264.201, 1033.688
1265.414, 296.789
1266.627, 706.324
1267.839, 515.930
1269.052, 345.605
1270.264, 995.355
1271.476, 395.188
1272.688, 445.086
1273.899, 765.059
1275.111, 65.098
1276.322, 915.203
1277.533, 485.359
1278.744, 75.578
1279.955, 1065.844
1281.165, 476.172
1282.376, 276.562
1283.586, 687.008
1284.796, 267.516
1286.006, 468.125
1287.215, 488.836
1288.425, 50.383
1289.634, 600.453
1290.843, 471.391
1292.052, 342.418
1293.261, 670.938
1294.469, 242.742
1295.678, 515.297
1296.886, 908.055
1298.094, 68.969
1299.302, 541.871
1300.509, 305.211
1301.717, 326.020
1302.924, 899.762
1304.131, 293.836
1305.338, 248.266
1306.545, 742.602
1307.752, 334.680
1308.958, 116.668
1310.164, 988.723
1311.370, 13.902
1312.576, 655.117
1313.782, 601.152
1314.987, 180.047
1316.193, 907.887
1317.398, 367.074
1318.603, 261.406
1319.807, 557.035
1321.012, 1.184
1322.216, 0.000
##END=



