##NAMES=Baryte
##RRUFFID=R050375
##IDEAL CHEMISTRY=BaS^6+^O_4_
##LOCALITY=unknown
##OWNER=RRUFF
##SOURCE=Eugene Schlepp
##DESCRIPTION=Pale green tabular crystals
##STATUS=The identification of this mineral has been confirmed by X-ray diffraction and chemical analysis
##URL=rruff.info/R050375
##MEASURED CHEMISTRY=Ba_1.00_SO_4_
##PIN_ID=L01233
##ORIENTATION=Laser parallel to b* (0 1 0). Fiducial mark perpendicular to laser is parallel to -c [0 0 -1]
51.43100, 0.0000000E+00
52.67100, 13.49258
53.91000, 24.96832
55.14900, 34.81805
56.38700, 53.62259
57.62600, 45.21887
58.86400, 20.56113
60.10300, 7.181580
61.34100, 8.004364
62.57900, 10.09412
63.81700, 10.18604
65.05400, 5.628204
66.29200, 41.26727
67.52900, 78.66119
68.76700, 109.7491
70.00400, 194.4783
71.24100, 267.8009
72.47700, 363.6705
73.71400, 496.0439
74.95100, 582.8821
76.18700, 607.1516
77.42300, 540.8226
78.65900, 524.8706
79.89500, 575.2742
81.13100, 680.0151
82.36700, 780.0775
83.60200, 823.4460
84.83700, 847.1064
86.07200, 962.0458
87.30800, 1051.253
88.54200, 1221.715
89.77700, 1389.416
91.01200, 1620.336
92.24600, 1602.456
93.48000, 1465.762
94.71400, 1330.245
95.94800, 1339.895
97.18200, 1426.706
98.41600, 1419.671
99.64900, 1439.784
100.8830, 1311.043
102.1160, 1239.444
103.3490, 1142.987
104.5820, 1109.668
105.8150, 1107.488
107.0470, 1026.444
108.2800, 1004.540
109.5120, 1037.771
110.7440, 994.1350
111.9760, 918.6276
113.2080, 905.2444
114.4400, 916.9829
115.6710, 888.8398
116.9030, 892.5840
118.1340, 922.8967
119.3650, 883.0919
120.5960, 877.3950
121.8270, 867.8035
123.0580, 890.3152
124.2880, 870.9280
125.5190, 873.6201
126.7490, 874.3298
127.9790, 864.9481
129.2090, 820.7867
130.4390, 867.5271
131.6680, 845.2766
132.8980, 869.0557
134.1270, 828.8711
135.3560, 844.7261
136.5850, 855.6240
137.8140, 812.5686
139.0430, 831.5604
140.2710, 836.6011
141.5000, 793.6924
142.7280, 754.8357
143.9560, 735.0315
145.1840, 793.2808
146.4120, 838.5842
147.6390, 851.9485
148.8670, 810.3782
150.0940, 905.8811
151.3210, 922.4836
152.5490, 876.1550
153.7750, 972.8943
155.0020, 959.7092
156.2290, 959.5938
157.4550, 941.5786
158.6810, 930.5110
159.9080, 902.8564
161.1340, 887.9753
162.3590, 822.3280
163.5850, 768.7708
164.8110, 692.2944
166.0360, 748.8787
167.2610, 733.5082
168.4860, 667.1831
169.7110, 746.9031
170.9360, 700.6683
172.1610, 692.4786
173.3850, 753.3340
174.6100, 701.2341
175.8340, 707.1793
177.0580, 743.1694
178.2820, 709.2039
179.5050, 808.2827
180.7290, 826.4060
181.9520, 864.5730
183.1760, 909.7841
184.3990, 913.0383
185.6220, 963.3367
186.8450, 1097.677
188.0670, 1191.062
189.2900, 1338.488
190.5120, 1399.957
191.7340, 1467.468
192.9560, 1480.020
194.1780, 1322.614
195.4000, 1101.249
196.6220, 997.9246
197.8430, 891.6409
199.0640, 815.3323
200.2860, 718.9819
201.5070, 662.5857
202.7270, 627.1467
203.9480, 610.6472
205.1690, 611.1194
206.3890, 579.5410
207.6090, 475.0012
208.8290, 489.1147
210.0490, 467.5682
211.2690, 441.3331
212.4890, 516.4647
213.7080, 502.6812
214.9280, 483.9791
216.1470, 416.3547
217.3660, 437.8097
218.5850, 443.3367
219.8030, 404.9336
221.0220, 450.5977
222.2400, 457.3674
223.4590, 398.1600
224.6770, 396.0142
225.8950, 427.9276
227.1120, 405.8993
228.3300, 391.9276
229.5480, 420.0110
230.7650, 380.1482
231.9820, 366.3378
233.1990, 365.5784
234.4160, 399.8691
235.6330, 386.2087
236.8490, 386.5961
238.0660, 372.0304
239.2820, 384.5106
240.4980, 324.0360
241.7140, 320.9858
242.9300, 323.5996
244.1460, 305.9402
245.3610, 369.6393
246.5770, 320.5814
247.7920, 391.5674
249.0070, 344.4636
250.2220, 346.7305
251.4370, 364.7358
252.6510, 294.1260
253.8660, 341.2385
255.0800, 310.3918
256.2940, 330.0239
257.5080, 294.1975
258.7220, 316.3374
259.9360, 354.9854
261.1490, 376.9873
262.3630, 346.8940
263.5760, 299.1719
264.7890, 305.4829
266.0020, 255.5574
267.2150, 367.5007
268.4270, 347.3865
269.6400, 284.9409
270.8520, 334.9854
272.0640, 304.5642
273.2760, 315.0957
274.4880, 301.0515
275.7000, 303.4250
276.9120, 295.0476
278.1230, 265.9556
279.3340, 295.6387
280.5450, 323.3521
281.7560, 304.0957
282.9670, 284.8689
284.1780, 290.6719
285.3880, 277.5046
286.5980, 283.3669
287.8090, 221.2583
289.0190, 260.1792
290.2290, 253.1289
291.4380, 296.1074
292.6480, 233.1145
293.8570, 245.1501
295.0670, 261.2144
296.2760, 253.3066
297.4850, 226.4263
298.6930, 288.5732
299.9020, 240.7529
301.1110, 193.9592
302.3190, 205.1921
303.5270, 257.4512
304.7350, 194.7358
305.9430, 238.0461
307.1510, 276.3816
308.3580, 189.7417
309.5660, 217.1260
310.7730, 200.5342
311.9800, 182.9722
313.1870, 196.4338
314.3940, 189.9187
315.6010, 151.4275
316.8070, 162.9597
318.0130, 140.5149
319.2200, 178.0928
320.4260, 171.6953
321.6310, 91.32080
322.8370, 147.9683
324.0430, 140.6384
325.2480, 200.3303
326.4540, 166.0444
327.6590, 167.7800
328.8640, 147.5376
330.0680, 197.3167
331.2730, 160.1169
332.4780, 190.9385
333.6820, 166.7810
334.8860, 148.6445
336.0900, 127.5288
337.2940, 104.4336
338.4980, 102.3589
339.7010, 146.3047
340.9050, 158.2705
342.1080, 149.2563
343.3110, 149.2622
344.5140, 140.7058
345.7170, 117.3633
346.9200, 116.4592
348.1220, 106.5854
349.3240, 94.74243
350.5270, 112.1511
351.7290, 96.51440
352.9310, 92.07983
354.1320, 63.21899
355.3340, 58.53247
356.5350, 40.56665
357.7370, 49.25342
358.9380, 10.65210
360.1390, 20.07812
361.3400, 11.37378
362.5400, 20.85303
363.7410, 36.35864
364.9410, 46.89038
366.1410, 2.552490
367.3410, 77.02930
368.5410, 37.63623
369.7410, 106.2678
370.9400, 61.92383
372.1400, 4.604736
373.3390, 31.30933
374.5380, 18.03784
375.7370, 54.79004
376.9360, 27.56567
378.1350, 62.36426
379.3330, 14.18628
380.5310, 36.03076
381.7300, 26.89819
382.9280, 25.78784
384.1260, 36.69971
385.3230, 14.36621
386.5210, 68.58618
387.7180, 22.43994
388.9160, 3.548828
390.1130, 7.440674
391.3100, 57.41138
392.5060, 54.05542
393.7030, 13.00879
394.9000, 2.931641
396.0960, 38.77173
397.2920, 2.688477
398.4880, 2.565186
399.6840, 39.42383
400.8800, 0.2731930
402.0750, 17.89648
403.2710, 57.91382
404.4660, 42.71509
405.6610, 39.51025
406.8560, 24.69824
408.0510, 19.92554
409.2450, 39.82715
410.4400, 12.57520
411.6340, 55.30664
412.8280, 68.03320
414.0220, 76.76025
415.2160, 66.50000
416.4100, 18.75098
417.6030, 91.95557
418.7970, 15.70728
419.9900, 10.56714
421.1830, 26.15503
422.3760, 29.16089
423.5690, 34.46411
424.7610, 68.79199
425.9540, 73.14233
427.1460, 88.56445
428.3380, 154.8967
429.5300, 120.3020
430.7220, 147.7310
431.9140, 183.1760
433.1050, 302.6472
434.2970, 346.1355
435.4880, 452.6423
436.6790, 576.1677
437.8700, 805.7717
439.0610, 1065.334
440.2510, 1328.913
441.4420, 1780.507
442.6320, 2317.349
443.8220, 2887.975
445.0120, 3605.615
446.2020, 4262.271
447.3910, 5071.941
448.5810, 6009.628
449.7700, 7118.327
450.9600, 8651.042
452.1490, 9760.772
453.3370, 10793.52
454.5260, 10207.58
455.7150, 8918.365
456.9030, 6989.162
458.0910, 5018.071
459.2800, 3372.896
460.4670, 2402.735
461.6550, 1780.588
462.8430, 1264.885
464.0300, 1018.765
465.2180, 784.6633
466.4050, 558.5745
467.5920, 505.4983
468.7790, 413.4355
469.9650, 303.3857
471.1520, 335.3496
472.3380, 186.3259
473.5250, 220.3159
474.7110, 199.3184
475.8970, 151.3333
477.0820, 132.3618
478.2680, 135.4023
479.4540, 119.4553
480.6390, 191.5200
481.8240, 63.59668
483.0090, 55.68555
484.1940, 117.7859
485.3780, 91.89795
486.5630, 97.57080
487.7470, 138.1570
488.9320, 92.30371
490.1160, 61.46143
491.3000, 91.63110
492.4830, 14.81177
493.6670, 18.00024
494.8500, 17.19751
496.0340, 112.4045
497.2170, 141.6213
498.4000, 87.84863
499.5820, 28.08594
500.7650, 137.3328
501.9480, 73.58911
503.1300, 0.8554690
504.3120, 98.12280
505.4940, 58.39941
506.6760, 64.68530
507.8580, 79.97998
509.0390, 83.24341
510.2210, 81.00879
511.4020, 74.09595
512.5830, 70.20654
513.7640, 48.54468
514.9450, 43.89087
516.1250, 38.24561
517.3060, 40.60815
518.4860, 111.9785
519.6660, 89.35693
520.8460, 125.7432
522.0260, 138.1365
523.2060, 90.53735
524.3850, 118.8938
525.5650, 90.36182
526.7440, 108.7847
527.9230, 83.92432
529.1020, 54.37085
530.2810, 41.13037
531.4590, 65.70459
532.6380, 72.96045
533.8160, 19.34155
534.9940, 164.8916
536.1720, 130.1997
537.3500, 30.81958
538.5270, 36.14258
539.7050, 57.33716
540.8820, 65.68677
542.0590, 139.5261
543.2360, 62.03491
544.4130, 171.6821
545.5900, 70.45874
546.7660, 89.84521
547.9430, 118.6890
549.1190, 63.20068
550.2950, 63.94385
551.4710, 79.20142
552.6470, 120.0330
553.8220, 47.96411
554.9980, 107.5234
556.1730, 92.51929
557.3480, 47.00586
558.5230, 20.55957
559.6980, 123.7239
560.8730, 17.50610
562.0470, 63.61206
563.2220, 15.43457
564.3960, 115.0129
565.5700, 100.3276
566.7440, 87.14771
567.9170, 36.75269
569.0910, 28.05200
570.2640, 46.51660
571.4380, 103.2136
572.6110, 94.82373
573.7840, 72.66479
574.9570, 63.49146
576.1290, 58.79761
577.3020, 72.99585
578.4740, 18.98828
579.6460, 50.38086
580.8180, 100.4353
581.9900, 55.09668
583.1620, 10.26172
584.3330, 95.37134
585.5040, 42.22241
586.6760, 60.86108
587.8470, 79.50439
589.0180, 60.22925
590.1880, 68.91309
591.3590, 31.56177
592.5290, 36.21265
593.7000, 53.33374
594.8700, 9.840332
596.0400, 58.81104
597.2090, 60.46436
598.3790, 21.18481
599.5490, 50.91284
600.7180, 106.9812
601.8870, 47.64014
603.0560, 8.334229
604.2250, 143.0728
605.3940, 177.7441
606.5620, 257.4556
607.7300, 326.1680
608.8990, 397.8813
610.0670, 465.5957
611.2350, 580.5159
612.4020, 597.2378
613.5700, 782.1262
614.7370, 969.8513
615.9050, 1205.576
617.0720, 1470.607
618.2390, 1649.333
619.4060, 1515.060
620.5720, 1226.787
621.7390, 1074.514
622.9050, 855.2402
624.0710, 860.9668
625.2370, 783.6926
626.4030, 762.4185
627.5690, 838.2358
628.7340, 979.9607
629.9000, 982.6851
631.0650, 1095.588
632.2300, 1078.312
633.3950, 962.8127
634.5600, 979.3901
635.7240, 1001.103
636.8890, 972.8223
638.0530, 1128.627
639.2170, 1281.360
640.3810, 1421.070
641.5450, 1698.786
642.7080, 1869.500
643.8720, 2022.371
645.0350, 2369.082
646.1980, 2607.792
647.3610, 2940.505
648.5240, 3043.218
649.6870, 2761.929
650.8490, 2316.638
652.0120, 1863.346
653.1740, 1233.053
654.3360, 786.7568
655.4980, 513.4597
656.6600, 417.1602
657.8210, 312.8589
658.9830, 212.5557
660.1440, 209.2505
661.3050, 145.9478
662.4660, 137.6382
663.6270, 90.36450
664.7870, 61.46240
665.9480, 48.73779
667.1080, 35.42090
668.2680, 46.10327
669.4280, 98.79321
670.5880, 33.59497
671.7480, 67.28467
672.9070, 35.02686
674.0670, 32.32983
675.2260, 36.99658
676.3850, 27.64844
677.5440, 55.23242
678.7030, 32.00537
679.8610, 60.84473
681.0200, 1.286621
682.1780, 35.92407
683.3360, 31.57861
684.4940, 29.79175
685.6520, 7.843018
686.8090, 93.45605
687.9670, 51.07373
689.1240, 28.69897
690.2810, 16.30835
691.4380, 2.918213
692.5950, 14.47998
693.7520, 18.88721
694.9080, 45.69751
696.0650, 48.29419
697.2210, 64.90088
698.3770, 71.47974
699.5330, 53.09863
700.6880, 14.70166
701.8440, 16.31226
702.9990, 65.95947
704.1550, 11.43555
705.3100, 2.849365
706.4650, 51.72217
707.6190, 9.290039
708.7740, 23.84766
709.9290, 8.601807
711.0830, 71.93115
712.2370, 19.54004
713.3910, 34.96558
714.5450, 10.46533
715.6980, 14.95557
716.8520, 25.65796
718.0050, 8.070068
719.1580, 22.53296
720.3110, 53.98804
721.4640, 57.43896
722.6170, 65.64697
723.7700, 35.09644
724.9220, 65.53271
726.0740, 56.96509
727.2260, 47.39331
728.3780, 52.83374
729.5300, 96.25244
730.6810, 63.66699
731.8330, 20.07715
732.9840, 18.19702
734.1350, 118.8845
735.2860, 78.25928
736.4370, 50.62964
737.5880, 49.89746
738.7380, 23.25781
739.8880, 69.74243
741.0390, 61.50610
742.1890, 60.87451
743.3380, 6.212402
744.4880, 80.76953
745.6380, 130.0886
746.7870, 92.40332
747.9360, 82.74463
749.0850, 48.43018
750.2340, 96.72778
751.3830, 51.37354
752.5310, 82.69336
753.6800, 87.97388
754.8280, 40.26514
755.9760, 127.6560
757.1240, 126.9182
758.2720, 118.1753
759.4190, 93.42700
760.5670, 103.6733
761.7140, 129.9146
762.8610, 159.1506
764.0080, 150.5195
765.1550, 60.60718
766.3020, 124.8267
767.4480, 92.04077
768.5950, 50.25000
769.7410, 159.4521
770.8870, 84.64941
772.0330, 119.8428
773.1780, 52.03174
774.3240, 110.2153
775.4690, 61.43384
776.6140, 73.60596
777.7590, 107.7725
778.9040, 123.9343
780.0490, 160.0906
781.1940, 158.2422
782.3380, 95.39185
783.4820, 102.5366
784.6260, 91.72681
785.7700, 190.8611
786.9140, 180.1118
788.0580, 162.2397
789.2010, 124.3621
790.3450, 158.4792
791.4880, 134.5913
792.6310, 132.6980
793.7730, 143.7998
794.9160, 163.8962
796.0590, 94.99219
797.2010, 116.0828
798.3430, 77.17749
799.4850, 178.2578
800.6270, 69.67896
801.7690, 128.7620
802.9100, 146.8289
804.0520, 91.91650
805.1930, 93.97656
806.3340, 161.3098
807.4750, 59.94482
808.6160, 118.8633
809.7560, 112.8997
810.8970, 176.8101
812.0370, 207.6831
813.1770, 150.4688
814.3170, 72.24438
815.4570, 53.25830
816.5960, 90.14648
817.7360, 86.16284
818.8750, 164.6628
820.0140, 67.57471
821.1530, 151.4189
822.2920, 64.66211
823.4310, 89.97754
824.5690, 132.9653
825.7070, 65.94873
826.8460, 136.7017
827.9840, 164.2104
829.1220, 70.30981
830.2590, 100.3997
831.3970, 126.2241
832.5340, 170.1548
833.6710, 76.09058
834.8080, 146.0393
835.9450, 81.98364
837.0820, 109.9233
838.2190, 70.32178
839.3550, 45.74951
840.4910, 108.6768
841.6270, 145.8684
842.7630, 120.5554
843.8990, 144.4583
845.0350, 72.66724
846.1700, 87.20190
847.3060, 62.52417
848.4410, 101.4238
849.5760, 85.09302
850.7100, 109.7761
851.8450, 85.98096
852.9800, 20.29346
854.1140, 168.8110
855.2480, 80.92822
856.3820, 102.3835
857.5160, 143.2317
858.6500, 63.09961
859.7830, 100.9702
860.9170, 120.6228
862.0500, 92.48730
863.1830, 57.34692
864.3160, 42.12451
865.4480, 75.94312
866.5810, 81.79614
867.7130, 99.64648
868.8460, 11.97412
869.9780, 129.6943
871.1100, 82.53101
872.2410, 73.36475
873.3730, 154.1309
874.5050, 81.88794
875.6360, 19.30371
876.7670, 62.87231
877.8980, 63.62622
879.0290, 69.59937
880.1590, 44.63184
881.2900, 94.08154
882.4200, 145.7932
883.5500, 29.50317
884.6800, 15.78955
885.8100, 87.70483
886.9400, 1.395996
888.0690, 26.91772
889.1990, 80.60156
890.3280, 30.28369
891.4570, 13.65942
892.5860, 54.33667
893.7140, 82.01294
894.8430, 36.68750
895.9710, 138.3608
897.1000, 123.0325
898.2280, 76.70264
899.3560, 38.37207
900.4830, 64.03955
901.6110, 32.17456
902.7380, 65.27979
903.8660, 32.94434
904.9930, 51.42847
906.1200, 75.16528
907.2460, 123.8264
908.3730, 105.4868
909.5000, 30.98193
910.6260, 15.64062
911.7520, 65.21265
912.8780, 86.85376
914.0040, 58.50977
915.1290, 39.16528
916.2550, 71.81982
917.3800, 79.47412
918.5050, 79.12793
919.6300, 15.21899
920.7550, 39.42432
921.8800, 2.067139
923.0040, 55.54150
924.1290, 59.18237
925.2530, 75.82324
926.3770, 45.46362
927.5010, 69.10400
928.6250, 100.7441
929.7480, 60.38428
930.8720, 24.08350
931.9950, 92.72339
933.1180, 14.36353
934.2410, 67.99878
935.3640, 3.935547
936.4860, 12.66431
937.6090, 43.30103
938.7310, 7.937744
939.8530, 0.5744630
940.9750, 37.56641
942.0970, 8.916260
943.2180, 21.58667
944.3400, 43.22241
945.4610, 51.85889
946.5820, 68.74731
947.7030, 57.16528
948.8240, 64.83374
949.9450, 65.49829
951.0650, 18.06152
952.1860, 17.73438
953.3060, 7.592041
954.4260, 94.08203
955.5460, 20.73755
956.6650, 70.41504
957.7850, 58.08472
958.9040, 33.77930
960.0230, 72.47485
961.1420, 73.90601
962.2610, 137.8604
963.3800, 152.5632
964.4990, 174.2712
965.6170, 278.9893
966.7350, 326.7178
967.8530, 293.4473
968.9710, 370.1821
970.0890, 315.9185
971.2070, 483.6567
972.3240, 456.3965
973.4410, 614.1401
974.5580, 788.8193
975.6750, 918.5698
976.7920, 1103.330
977.9090, 1587.097
979.0250, 2400.866
980.1410, 3730.640
981.2580, 6223.418
982.3740, 10108.21
983.4890, 14744.00
984.6050, 17734.80
985.7200, 22786.61
986.8360, 33077.42
987.9510, 48822.02
989.0660, 59364.84
990.1810, 53214.68
991.2950, 35498.50
992.4100, 19339.34
993.5240, 9930.180
994.6390, 5500.024
995.7530, 3427.869
996.8660, 2391.717
997.9800, 1836.582
999.0940, 1404.432
1000.207, 1153.302
1001.320, 922.1763
1002.433, 766.0532
1003.546, 706.6118
1004.659, 517.5063
1005.772, 550.4043
1006.884, 458.3047
1007.996, 310.2090
1009.108, 354.1162
1010.220, 318.8970
1011.332, 308.3970
1012.444, 246.8618
1013.555, 240.7852
1014.666, 186.4834
1015.777, 204.4189
1016.888, 226.3579
1017.999, 132.2695
1019.110, 269.8354
1020.220, 113.7881
1021.331, 147.3921
1022.441, 75.31982
1023.551, 133.2856
1024.661, 87.24023
1025.770, 149.0928
1026.880, 112.0732
1027.989, 130.0586
1029.098, 101.0479
1030.207, 25.04150
1031.316, 104.0400
1032.425, 44.04297
1033.533, 121.0508
1034.642, 104.0630
1035.750, 31.08008
1036.858, 82.10205
1037.966, 87.12842
1039.073, 4.839844
1040.181, 61.19629
1041.288, 68.23730
1042.396, 47.28271
1043.503, 85.33398
1044.610, 113.3496
1045.716, 10.41113
1046.823, 22.47705
1047.929, 59.54785
1049.036, 70.62451
1050.142, 14.70557
1051.248, 124.7920
1052.353, 151.8828
1053.459, 14.92822
1054.564, 73.02979
1055.670, 27.98535
1056.775, 66.11865
1057.880, 72.22852
1058.985, 24.34277
1060.089, 53.46289
1061.194, 9.587891
1062.298, 77.71826
1063.402, 33.14600
1064.506, 19.98584
1065.610, 24.12305
1066.713, 5.256348
1067.817, 17.59570
1068.920, 4.612305
1070.023, 28.35352
1071.126, 20.51367
1072.229, 27.65381
1073.332, 11.26709
1074.435, 2.684082
1075.537, 14.21094
1076.639, 7.897461
1077.741, 23.08984
1078.843, 42.74121
1079.945, 75.94971
1081.046, 71.16406
1082.148, 72.38770
1083.249, 75.61670
1084.350, 140.8525
1085.451, 67.09326
1086.551, 56.92480
1087.652, 143.1772
1088.752, 154.4351
1089.853, 119.6978
1090.953, 174.9658
1092.053, 126.2397
1093.152, 201.5195
1094.252, 248.8936
1095.351, 235.1836
1096.451, 360.4800
1097.550, 416.7812
1098.649, 568.0884
1099.748, 734.4004
1100.846, 1003.460
1101.945, 1165.783
1103.043, 1324.116
1104.141, 1550.454
1105.239, 1608.801
1106.337, 1579.152
1107.434, 1266.667
1108.532, 990.0293
1109.629, 760.3975
1110.726, 555.7891
1111.823, 458.1860
1112.920, 346.5986
1114.017, 315.0171
1115.113, 271.4414
1116.210, 190.8711
1117.306, 258.3760
1118.402, 198.8164
1119.498, 321.2705
1120.593, 236.7227
1121.689, 249.1797
1122.784, 329.6416
1123.879, 329.1094
1124.974, 328.5820
1126.069, 403.6084
1127.164, 386.5425
1128.259, 522.0312
1129.353, 551.6484
1130.447, 763.2065
1131.541, 1005.654
1132.635, 1285.397
1133.729, 1637.915
1134.822, 2034.438
1135.916, 2575.970
1137.009, 3099.509
1138.102, 3705.051
1139.195, 3889.599
1140.288, 3735.152
1141.380, 3523.711
1142.473, 3295.274
1143.565, 2870.862
1144.657, 2570.475
1145.749, 2294.091
1146.841, 1970.622
1147.932, 1775.368
1149.024, 1470.014
1150.115, 1219.665
1151.206, 1082.327
1152.297, 915.9941
1153.388, 884.6675
1154.479, 718.3457
1155.569, 660.0288
1156.659, 589.7178
1157.750, 650.4116
1158.839, 830.1104
1159.929, 906.8145
1161.019, 1013.523
1162.108, 1255.236
1163.198, 1637.954
1164.287, 1886.677
1165.376, 2110.405
1166.465, 2241.137
1167.553, 2382.874
1168.642, 2090.616
1169.730, 1699.364
1170.818, 1446.042
1171.906, 1158.798
1172.994, 886.5601
1174.082, 675.3262
1175.170, 528.0972
1176.257, 484.8721
1177.344, 432.6523
1178.431, 344.4370
1179.518, 329.5801
1180.605, 222.0200
1181.691, 268.8184
1182.778, 195.6211
1183.864, 144.4277
1184.950, 123.2446
1186.036, 105.0649
1187.122, 68.05762
1188.207, 32.88818
1189.292, 13.72266
1190.378, 135.5620
1191.463, 69.40527
1192.548, 119.2534
1193.632, 24.10498
1194.717, 64.90234
1195.801, 87.76318
1196.886, 68.62793
1197.970, 110.4976
1199.054, 75.94531
1200.137, 58.82471
1201.221, 40.70898
1202.305, 37.68262
1203.388, 92.57520
1204.471, 21.24951
1205.554, 5.127930
1206.637, 100.9536
1207.719, 46.98828
1208.802, 13.13184
1209.884, 102.8945
1210.966, 20.77734
1212.048, 13.56006
1213.130, 36.45166
1214.212, 54.44092
1215.293, 56.34082
1216.374, 59.45361
1217.456, 51.15283
1218.536, 43.06592
1219.617, 31.98193
1220.698, 15.44727
1221.778, 9.580566
1222.859, 13.75391
1223.939, 2.314453
1225.019, 38.61914
1226.099, 46.55664
1227.178, 52.50293
1228.258, 106.4517
1229.337, 40.40430
1230.417, 17.64014
1231.496, 87.31201
1232.574, 118.0864
1233.653, 68.14551
1234.732, 50.54004
1235.810, 189.5151
1236.888, 3.500977
1237.966, 31.48438
1239.044, 177.4731
1240.122, 86.61133
1241.199, 20.60645
1242.277, 76.18555
1243.354, 80.18604
1244.431, 6.189453
1245.508, 41.19580
1246.585, 19.79492
1247.661, 59.20801
1248.738, 3.213379
1249.814, 56.22119
1250.890, 29.23193
1251.966, 17.24463
1253.042, 97.26025
1254.117, 139.2783
1255.193, 121.2993
1256.268, 33.32275
1257.343, 91.34912
1258.418, 52.62256
1259.493, 53.38135
1260.567, 100.0381
1261.642, 1.952148
1262.716, 22.05811
1263.790, 160.0708
1264.864, 144.0859
1265.938, 74.10352
1267.011, 131.1235
1268.085, 113.1460
1269.158, 108.1836
1270.231, 81.21973
1271.304, 34.25830
1272.377, 113.2983
1273.450, 155.3408
1274.522, 86.38525
1275.594, 143.4316
1276.666, 31.48145
1277.738, 101.5332
1278.810, 93.58643
1279.882, 46.64111
1280.953, 120.6978
1282.025, 17.75537
1283.096, 129.8140
1284.167, 116.8755
1285.238, 90.95654
1286.308, 83.02002
1287.379, 72.77588
1288.449, 68.15039
1289.519, 65.21777
1290.589, 52.28711
1291.659, 57.11963
1292.729, 130.4277
1293.798, 83.50000
1294.868, 133.5737
1295.937, 151.6479
1297.006, 119.8921
1298.075, 17.00049
1299.143, 164.0781
1300.212, 39.15723
1301.280, 56.23730
1302.348, 136.3184
1303.416, 97.40137
1304.484, 165.4834
1305.552, 164.5659
1306.620, 140.6489
1307.687, 88.73193
1308.754, 135.8159
1309.821, 119.9023
1310.888, 28.98828
1311.955, 174.0752
1313.021, 64.16260
1314.088, 137.2495
1315.154, 147.3374
1316.220, 185.4287
1317.286, 113.5205
1318.352, 98.61133
1319.417, 120.7017
1320.483, 144.7939
1321.548, 97.88281
1322.613, 10.97412
1323.678, 61.07129
1324.743, 148.1694
1325.807, 75.26855
1326.872, 223.3687
1327.936, 114.4722
1329.000, 90.57666
1330.064, 5.676758
1331.128, 55.77344
1332.191, 69.87109
1333.255, 78.97119
1334.318, 144.0723
1335.381, 3.674805
1336.444, 107.7783
1337.507, 15.56982
1338.569, 36.53125
1339.632, 11.33789
1340.694, 87.76172
1341.756, 2.857910
1342.818, 61.95166
1343.880, 45.04639
1344.941, 108.1206
1346.003, 86.18164
1347.064, 98.27344
1348.125, 102.8262
1349.186, 77.44727
1350.247, 90.59131
1351.308, 147.6562
1352.368, 154.3433
1353.428, 161.7373
1354.489, 119.8286
1355.549, 135.8911
1356.608, 79.95459
1357.668, 17.02295
1358.727, 83.34521
1359.787, 8.590332
1360.846, 3.472168
1361.905, 1.166016
1362.964, 19.89355
1364.022, 81.25488
1365.081, 27.15820
1366.139, 20.21875
1367.197, 59.72070
1368.255, 52.32275
1369.313, 34.63379
1370.371, 21.39893
1371.428, 104.4961
1372.486, 118.6694
1373.543, 71.70117
1374.600, 52.66260
1375.657, 60.71094
1376.713, 123.7339
1377.770, 152.7666
1378.826, 108.7993
1379.882, 126.8315
1380.938, 40.86426
1381.994, 85.98193
1383.050, 85.99268
1384.106, 118.0264
1385.161, 127.0596
1386.216, 75.02637
1387.271, 4.938965
1388.326, 49.29688
1389.381, 95.09766
1390.435, 149.2725
1391.490, 74.30420
1392.544, 127.3926
1393.598, 79.42529
1394.652, 65.45850
1395.705, 12.20947
1396.759, 99.65088
1397.812, 153.7256
1398.866, 78.78125
1399.919, 131.8159
1400.972, 94.85107
1402.024, 19.87598
1403.077, 25.20850
1404.129, 72.28857
1405.181, 71.28662
1406.233, 67.26807
1407.285, 47.24902
1408.337, 42.22998
1409.389, 58.20996
1410.440, 57.85352
1411.491, 17.16406
1412.542, 88.13965
1413.593, 38.11475
1414.644, 57.08936
1415.695, 74.06250
1416.745, 116.0347
1417.795, 59.00537
1418.845, 96.97119
1419.895, 54.93213
1420.945, 26.89111
1421.995, 28.83398
1423.044, 6.795410
1424.093, 18.89746
1425.142, 138.7959
1426.191, 64.68018
1427.240, 108.5654
1428.289, 90.51807
1429.337, 27.39111
1430.385, 132.2593
1431.433, 180.1226
1432.481, 124.9800
1433.529, 124.8320
1434.577, 71.67725
1435.624, 76.95020
1436.672, 100.8022
1437.719, 102.6235
1438.766, 100.4365
1439.812, 118.4111
1440.859, 106.2021
1441.905, 129.9634
1442.952, 147.7109
1443.998, 130.4443
1445.044, 136.4849
1446.090, 132.1753
1447.135, 128.4292
1448.181, 145.5713
1449.226, 171.7129
1450.271, 104.8535
1451.316, 130.9941
1452.361, 196.0454
1453.405, 118.1851
1454.450, 199.2783
1455.494, 174.2402
1456.538, 71.45459
1457.582, 186.5259
1458.626, 48.69873
1459.670, 169.8721
1460.713, 98.04590
1461.757, 52.22070
1462.800, 73.39551
1463.843, 74.56689
1464.886, 32.73389
1465.928, 153.9058
1466.971, 89.99072
1468.013, 51.62549
1469.055, 206.7510
1470.097, 107.7959
1471.139, 36.67334
1472.181, 26.71387
1473.222, 22.75098
1474.263, 75.79932
1475.305, 15.84668
1476.346, 158.8936
1477.386, 37.93945
1478.427, 20.98291
1479.468, 9.957031
1480.508, 77.23242
1481.548, 65.29980
1482.588, 36.36523
1483.628, 212.4297
1484.668, 111.4604
1485.707, 151.4956
1486.747, 30.47119
1487.786, 84.55859
1488.825, 14.41553
1489.864, 65.60938
1490.902, 82.63428
1491.941, 52.62793
1492.979, 81.65137
1494.017, 62.67383
1495.055, 94.69580
1496.093, 27.71777
1497.131, 14.74023
1498.168, 45.42285
1499.206, 60.43896
1500.243, 40.45703
1501.280, 93.47314
1502.317, 75.49512
1503.354, 115.5200
1504.390, 50.54150
1505.426, 108.5659
1506.463, 86.59375
1507.499, 32.62695
1508.535, 48.66748
1509.570, 48.71436
1510.606, 35.07031
1511.641, 123.8062
1512.676, 11.84570
1513.711, 75.89160
1514.746, 19.96289
1515.781, 62.02930
1516.816, 38.08789
1517.850, 112.1401
1518.884, 86.11572
1519.918, 2.817871
1520.952, 13.69824
1521.986, 44.46875
1523.019, 49.59082
1524.053, 76.62793
1525.086, 102.7046
1526.119, 124.2212
1527.152, 7.424316
1528.185, 42.64258
1529.217, 61.08008
1530.250, 109.2012
1531.282, 118.5981
1532.314, 111.3125
1533.346, 142.0386
1534.377, 76.28174
1535.409, 71.19287
1536.440, 74.03271
1537.472, 58.91846
1538.503, 97.79102
1539.534, 57.40430
1540.564, 134.2344
1541.595, 70.80371
1542.625, 123.6890
1543.656, 178.7632
1544.686, 108.1592
1545.716, 131.2676
1546.745, 32.31445
1547.775, 6.215820
1548.804, 101.1792
1549.834, 52.97314
1550.863, 43.08350
1551.892, 26.19971
1552.920, 152.2310
1553.949, 65.16504
1554.977, 143.9644
1556.006, 191.6201
1557.034, 65.14014
1558.062, 55.54883
1559.089, 4.166992
1560.117, 37.65039
1561.144, 77.66797
1562.172, 72.63428
1563.199, 116.8369
1564.226, 14.41602
1565.252, 128.9844
1566.279, 147.6631
1567.305, 85.09473
1568.332, 141.0161
1569.358, 0.2343750
1570.384, 0.0000000E+00
##END=



