##NAMES=Baryte
##RRUFFID=R050342
##IDEAL CHEMISTRY=BaS^6+^O_4_
##LOCALITY=Palos Verdes, Los Angeles County, California, USA
##OWNER=RRUFF
##SOURCE=California Institute of Technology
##DESCRIPTION=Light brown fragment
##STATUS=The identification of this mineral has been confirmed by X-ray diffraction and chemical analysis
##URL=rruff.info/R050342
##MEASURED CHEMISTRY=Ba_1.00_S_1.00_O_4_
##PIN_ID=L01107
##ORIENTATION=Laser parallel to -a* (-1 0 0). Fiducial mark perpendicular to laser is parallel to b [0 1 0]
140.2710, 0.0000000E+00
141.5000, 43.01465
142.7280, 2.540039
143.9560, 154.1045
145.1840, 200.6162
146.4120, 117.0557
147.6390, 146.7822
148.8670, 140.3477
150.0940, 213.4307
151.3210, 313.7920
152.5490, 276.2363
153.7750, 236.6162
155.0020, 311.8076
156.2290, 218.7178
157.4550, 341.2666
158.6810, 242.4043
159.9080, 211.0732
161.1340, 194.2061
162.3590, 60.76172
163.5850, 137.7031
164.8110, 103.9932
166.0360, 100.6084
167.2610, 162.5176
168.4860, 49.70215
169.7110, 269.1523
170.9360, 337.8506
172.1610, 138.7842
173.3850, 163.9375
174.6100, 127.2988
175.8340, 240.8535
177.0580, 288.9697
178.2820, 224.8691
179.5050, 222.9893
180.7290, 197.1846
181.9520, 190.8945
183.1760, 220.0254
184.3990, 162.6514
185.6220, 218.3828
186.8450, 126.2217
188.0670, 206.1572
189.2900, 388.1875
190.5120, 295.3242
191.7340, 260.5488
192.9560, 192.8564
194.1780, 139.2461
195.4000, 311.7207
196.6220, 173.2783
197.8430, 270.0557
199.0640, 225.9053
200.2860, 208.8223
201.5070, 280.8330
202.7270, 157.9355
203.9480, 355.0986
205.1690, 155.3223
206.3890, 39.61133
207.6090, 116.9648
208.8290, 206.3760
210.0490, 247.8428
211.2690, 209.3662
212.4890, 284.9453
213.7080, 13.43750
214.9280, 71.22656
216.1470, 273.8809
217.3660, 2.462891
218.5850, 309.2012
219.8030, 295.8789
221.0220, 136.5723
222.2400, 341.2832
223.4590, 15.01660
224.6770, 119.6396
225.8950, 204.3955
227.1120, 212.1797
228.3300, 260.9902
229.5480, 195.8291
230.7650, 265.7002
231.9820, 195.6543
233.1990, 226.5830
234.4160, 147.5449
235.6330, 107.5361
236.8490, 107.5596
238.0660, 192.6143
239.2820, 286.2520
240.4980, 204.3633
241.7140, 43.50586
242.9300, 179.6797
244.1460, 130.8916
245.3610, 71.13867
246.5770, 189.4180
247.7920, 199.7412
249.0070, 135.2031
250.2220, 130.6914
251.4370, 256.2295
252.6510, 159.7939
253.8660, 192.9111
255.0800, 110.4590
256.2940, 131.0332
257.5080, 167.6689
258.7220, 141.2959
259.9360, 224.9541
261.1490, 258.6377
262.3630, 274.0479
263.5760, 190.7969
264.7890, 155.5693
266.0020, 307.3691
267.2150, 258.1914
268.4270, 103.0596
269.6400, 287.9492
270.8520, 306.8867
272.0640, 206.3682
273.2760, 142.3506
274.4880, 72.35645
275.7000, 241.4131
276.9120, 139.5195
278.1230, 295.6475
279.3340, 277.7949
280.5450, 90.96387
281.7560, 229.1533
282.9670, 225.3633
284.1780, 227.5967
285.3880, 224.8525
286.5980, 211.4854
287.8090, 213.7393
289.0190, 220.8369
290.2290, 192.4873
291.4380, 217.2959
292.6480, 190.2090
293.8570, 206.9336
295.0670, 164.3037
296.2760, 216.4697
297.4850, 218.7070
298.6930, 182.0107
299.9020, 160.3750
301.1110, 144.7979
302.3190, 172.2754
303.5270, 27.80273
304.7350, 180.3799
305.9430, 228.0029
307.1510, 153.6709
308.3580, 51.61914
309.5660, 159.1270
310.7730, 96.91113
311.9800, 160.7334
313.1870, 184.5918
314.3940, 67.48340
315.6010, 279.4102
316.8070, 147.3691
318.0130, 340.3594
319.2200, 70.37988
320.4260, 196.4307
321.6310, 3.491211
322.8370, 97.61426
324.0430, 274.7461
325.2480, 215.9033
326.4540, 278.0889
327.6590, 250.2988
328.8640, 194.5332
330.0680, 206.3408
331.2730, 150.0732
332.4780, 146.3770
333.6820, 158.7051
334.8860, 104.0547
336.0900, 190.4268
337.2940, 23.18066
338.4980, 106.2314
339.7010, 27.66602
340.9050, 187.1201
342.1080, 64.59375
343.3110, 7.086914
344.5140, 289.6006
345.7170, 79.12988
346.9200, 131.6455
348.1220, 99.21387
349.3240, 186.7979
350.5270, 88.40039
351.7290, 111.0195
352.9310, 99.65527
354.1320, 163.0098
355.3340, 212.5938
356.5350, 226.5479
357.7370, 231.9785
358.9380, 268.5977
360.1390, 255.3848
361.3400, 256.1299
362.5400, 45.87793
363.7410, 175.6553
364.9410, 129.5547
366.1410, 107.2314
367.3410, 308.0312
368.5410, 93.84766
369.7410, 228.6680
370.9400, 3.504883
372.1400, 132.3574
373.3390, 0.7763670
374.5380, 80.10547
375.7370, 119.0029
376.9360, 170.2012
378.1350, 48.12695
379.3330, 97.06543
380.5310, 192.0186
381.7300, 64.11328
382.9280, 127.8584
384.1260, 98.84082
385.3230, 143.8369
386.5210, 184.8477
387.7180, 150.8711
388.9160, 41.90820
390.1130, 206.9590
391.3100, 185.0225
392.5060, 128.0986
393.7030, 206.0742
394.9000, 51.17480
396.0960, 167.2881
397.2920, 85.41406
398.4880, 106.8154
399.6840, 170.9365
400.8800, 14.61621
402.0750, 204.5557
403.2710, 136.7373
404.4660, 150.9316
405.6610, 55.13867
406.8560, 123.3447
408.0510, 31.56250
409.2450, 189.9600
410.4400, 127.2002
411.6340, 152.4512
412.8280, 203.7129
414.0220, 90.98535
415.2160, 111.2676
416.4100, 141.5576
417.6030, 138.8584
418.7970, 113.1670
419.9900, 150.4873
421.1830, 23.82617
422.3760, 83.17773
423.5690, 46.53613
424.7610, 197.9053
425.9540, 115.8350
427.1460, 229.2227
428.3380, 68.61816
429.5300, 85.02441
430.7220, 80.55273
431.9140, 185.8545
433.1050, 300.4697
434.2970, 149.9131
435.4880, 193.3721
436.6790, 113.8467
437.8700, 299.3359
439.0610, 292.8389
440.2510, 312.3574
441.4420, 422.8896
442.6320, 375.4355
443.8220, 528.9941
445.0120, 695.5752
446.2020, 725.1689
447.3910, 904.7822
448.5810, 1412.407
449.7700, 1530.044
450.9600, 1922.692
452.1490, 2340.268
453.3370, 2535.940
454.5260, 2451.625
455.7150, 2298.320
456.9030, 1872.028
458.0910, 1720.746
459.2800, 1355.476
460.4670, 1196.215
461.6550, 1348.965
462.8430, 1061.726
464.0300, 1061.497
465.2180, 878.2451
466.4050, 564.0381
467.5920, 280.8408
468.7790, 383.6533
469.9650, 344.4746
471.1520, 376.3066
472.3380, 258.1475
473.5250, 200.9990
474.7110, 151.8701
475.8970, 180.7510
477.0820, 223.6406
478.2680, 165.5391
479.4540, 124.4473
480.6390, 162.9873
481.8240, 136.9180
483.0090, 184.8564
484.1940, 301.8037
485.3780, 133.7607
486.5630, 224.7266
487.7470, 88.69922
488.9320, 12.31934
490.1160, 83.66113
491.3000, 28.65039
492.4830, 106.6475
493.6670, 253.6523
494.8500, 43.66504
496.0340, 46.30859
497.2170, 140.2988
498.4000, 54.65137
499.5820, 127.6084
500.7650, 271.5732
501.9480, 32.42969
503.1300, 214.5586
504.3120, 16.55371
505.4940, 106.5566
506.6760, 304.5664
507.8580, 85.48242
509.0390, 29.51367
510.2210, 95.55078
511.4020, 66.59766
512.5830, 177.6484
513.7640, 192.7090
514.9450, 97.77734
516.1250, 242.8242
517.3060, 160.9062
518.4860, 3.996094
519.6660, 181.0918
520.8460, 125.1953
522.0260, 180.3066
523.2060, 66.57422
524.3850, 290.2773
525.5650, 92.37305
526.7440, 219.4766
527.9230, 25.70898
529.1020, 255.8242
530.2810, 213.9473
531.4590, 29.07422
532.6380, 110.2090
533.8160, 38.75977
534.9940, 28.49023
536.1720, 79.66016
537.3500, 74.81445
538.5270, 209.9766
539.7050, 35.85742
540.8820, 69.29688
542.0590, 4.453125
543.2360, 229.0176
544.4130, 35.18164
545.5900, 144.7324
546.7660, 311.9062
547.9430, 43.08789
549.1190, 124.2812
550.2950, 101.1699
551.4710, 65.98438
552.6470, 92.14258
553.8220, 146.3047
554.9980, 207.4707
556.1730, 253.6426
557.3480, 162.8301
558.5230, 112.0215
559.6980, 105.2266
560.8730, 81.43555
562.0470, 185.1621
563.2220, 131.3809
564.3960, 222.6035
565.5700, 70.83008
566.7440, 4.060547
567.9170, 41.29102
569.0910, 140.5234
570.2640, 180.9434
571.4380, 152.1973
572.6110, 117.6953
573.7840, 11.96484
574.9570, 52.05469
576.1290, 282.5078
577.3020, 95.78516
578.4740, 119.0645
579.6460, 146.3477
580.8180, 67.63477
581.9900, 131.4609
583.1620, 132.2305
584.3330, 190.5312
585.5040, 201.7598
586.6760, 225.0684
587.8470, 251.5684
589.0180, 283.0703
590.1880, 253.2285
591.3590, 294.5508
592.5290, 231.8770
593.7000, 91.21289
594.8700, 73.54883
596.0400, 79.88672
597.2090, 133.2266
598.3790, 216.5703
599.5490, 216.9180
600.7180, 294.2676
601.8870, 335.6191
603.0560, 270.9688
604.2250, 449.3223
605.3940, 307.6738
606.5620, 198.0273
607.7300, 349.3828
608.8990, 364.8086
610.0670, 483.6953
611.2350, 696.4551
612.4020, 912.8438
613.5700, 1202.219
614.7370, 1701.014
615.9050, 1990.375
617.0720, 2216.740
618.2390, 2180.053
619.4060, 2106.469
620.5720, 1807.836
621.7390, 1252.291
622.9050, 965.6602
624.0710, 879.0391
625.2370, 750.4199
626.4030, 756.8027
627.5690, 792.1836
628.7340, 722.5645
629.9000, 801.9766
631.0650, 566.3574
632.2300, 715.7363
633.3950, 464.1387
634.5600, 486.5410
635.7240, 207.0020
636.8890, 273.6992
638.0530, 395.1855
639.2170, 185.5859
640.3810, 210.9902
641.5450, 193.8574
642.7080, 201.7559
643.8720, 203.1562
645.0350, 224.8711
646.1980, 223.9492
647.3610, 261.7148
648.5240, 274.1328
649.6870, 233.6309
650.8490, 92.04688
652.0120, 67.48438
653.1740, 132.9180
654.3360, 57.68555
655.4980, 131.1406
656.6600, 90.59570
657.8210, 172.0527
658.9830, 113.0430
660.1440, 104.6621
661.3050, 235.1445
662.4660, 155.5957
663.6270, 182.1445
664.7870, 274.6016
665.9480, 216.0566
667.1080, 15.50781
668.2680, 184.9590
669.4280, 25.40625
670.5880, 72.85156
671.7480, 88.29492
672.9070, 82.73438
674.0670, 39.27734
675.2260, 192.8242
676.3850, 202.2578
677.5440, 215.6875
678.7030, 127.1152
679.8610, 271.3027
681.0200, 281.7539
682.1780, 101.1426
683.3360, 216.2188
684.4940, 5.576172
685.6520, 184.9277
686.8090, 72.27734
687.9670, 124.4883
689.1240, 7.089844
690.2810, 137.3887
691.4380, 139.7188
692.5950, 188.0469
693.7520, 251.9414
694.9080, 171.6934
696.0650, 271.7070
697.2210, 255.0215
698.3770, 108.3574
699.5330, 80.66406
700.6880, 31.03320
701.8440, 95.36328
702.9990, 62.63672
704.1550, 97.90430
705.3100, 74.16602
706.4650, 84.94531
707.6190, 30.28125
708.7740, 13.85352
709.9290, 94.09766
711.0830, 176.6270
712.2370, 226.0742
713.3910, 203.1328
714.5450, 84.37305
715.6980, 152.6074
716.8520, 75.83789
718.0050, 215.0625
719.1580, 230.4316
720.3110, 176.9746
721.4640, 39.18359
722.6170, 52.38867
723.7700, 18.41406
724.9220, 84.76172
726.0740, 7.042969
727.2260, 209.2539
728.3780, 131.0742
729.5300, 70.55273
730.6810, 227.7734
731.8330, 107.0098
732.9840, 188.1328
734.1350, 115.2520
735.2860, 275.3633
736.4370, 121.8203
737.5880, 55.22852
738.7380, 145.3223
739.8880, 34.41016
741.0390, 141.4902
742.1890, 363.5645
743.3380, 109.6328
744.4880, 232.6992
745.6380, 48.75391
746.7870, 139.8047
747.9360, 110.9570
749.0850, 45.02344
750.2340, 32.12305
751.3830, 34.55664
752.5310, 24.56836
753.6800, 82.48047
754.8280, 108.6270
755.9760, 156.8340
757.1240, 95.00781
758.2720, 71.20898
759.4190, 2.734375
760.5670, 183.2305
761.7140, 126.8496
762.8610, 79.80078
764.0080, 178.7441
765.1550, 122.2305
766.3020, 144.6680
767.4480, 142.5898
768.5950, 109.8359
769.7410, 159.7461
770.8870, 206.6992
772.0330, 75.97461
773.1780, 1.019531
774.3240, 136.8887
775.4690, 166.7598
776.6140, 173.2773
777.7590, 144.2246
778.9040, 68.87891
780.0490, 16.08594
781.1940, 110.9219
782.3380, 84.75195
783.4820, 243.5723
784.6260, 3.320313
785.7700, 169.4707
786.9140, 50.25195
788.0580, 196.0234
789.2010, 116.7910
790.3450, 270.5723
791.4880, 37.85352
792.6310, 128.6191
793.7730, 110.6777
794.9160, 171.1816
796.0590, 14.90820
797.2010, 50.62109
798.3430, 78.53906
799.4850, 223.2422
800.6270, 94.93359
801.7690, 200.6348
802.9100, 193.3262
804.0520, 90.01172
805.1930, 244.8789
806.3340, 182.5391
807.4750, 308.1895
808.6160, 216.8301
809.7560, 155.5527
810.8970, 25.82617
812.0370, 204.7598
813.1770, 175.3398
814.3170, 126.9121
815.4570, 270.4727
816.5960, 82.02344
817.7360, 89.57617
818.8750, 133.1152
820.0140, 282.3359
821.1530, 102.8594
822.2920, 282.9902
823.4310, 167.4922
824.5690, 9.017578
825.7070, 43.44727
826.8460, 62.54883
827.9840, 135.0156
829.1220, 149.4727
830.2590, 100.9746
831.3970, 204.4141
832.5340, 22.15625
833.6710, 167.2383
834.8080, 11.37891
835.9450, 185.9785
837.0820, 158.3242
838.2190, 68.14648
839.3550, 225.4727
840.4910, 192.7852
841.6270, 195.0879
842.7630, 82.38086
843.8990, 79.66602
845.0350, 33.05859
846.1700, 138.0078
847.3060, 0.7675780
848.4410, 54.43555
849.5760, 233.6270
850.7100, 253.8105
851.8450, 130.9824
852.9800, 122.1445
854.1140, 188.2969
855.2480, 68.43945
856.3820, 1.396484
857.5160, 199.7441
858.6500, 384.8750
859.7830, 270.9941
860.9170, 199.1797
862.0500, 98.28320
863.1830, 69.15430
864.3160, 15.83398
865.4480, 37.88672
866.5810, 1.347656
867.7130, 79.38086
868.8460, 181.3984
869.9780, 110.4082
871.1100, 279.4082
872.2410, 37.39648
873.3730, 42.37109
874.5050, 126.3340
875.6360, 285.2871
876.7670, 216.2285
877.8980, 221.1582
879.0290, 218.5898
880.1590, 166.5098
881.2900, 110.4082
882.4200, 184.3477
883.5500, 97.25781
884.6800, 230.1250
885.8100, 106.9824
886.9400, 139.7988
888.0690, 66.61914
889.1990, 107.0078
890.3280, 82.81836
891.4570, 66.87695
892.5860, 73.61719
893.7140, 65.39258
894.8430, 98.15430
895.9710, 136.8203
897.1000, 22.43555
898.2280, 124.4023
899.3560, 257.1777
900.4830, 101.8926
901.6110, 143.5664
902.7380, 153.2285
903.8660, 45.88281
904.9930, 117.5215
906.1200, 60.84961
907.2460, 39.79492
908.3730, 79.35547
909.5000, 255.8438
910.6260, 146.3906
911.7520, 19.92578
912.8780, 110.1367
914.0040, 135.7109
915.1290, 85.88086
916.2550, 202.8203
917.3800, 166.3047
918.5050, 252.7773
919.6300, 47.24023
920.7550, 181.4492
921.8800, 172.8887
923.0040, 244.2402
924.1290, 62.34180
925.2530, 109.0254
926.3770, 68.28711
927.5010, 116.7012
928.6250, 48.21289
929.7480, 11.48828
930.8720, 190.7461
931.9950, 327.4414
933.1180, 67.97852
934.2410, 299.6055
935.3640, 187.4062
936.4860, 166.7754
937.6090, 173.9902
938.7310, 162.0469
939.8530, 46.39453
940.9750, 268.5762
942.0970, 193.7500
943.2180, 336.9141
944.3400, 98.06641
945.4610, 304.2070
946.5820, 141.2344
947.7030, 190.3555
948.8240, 237.4688
949.9450, 195.5684
951.0650, 381.6582
952.1860, 144.6797
953.3060, 362.7246
954.4260, 16.79492
955.5460, 192.8770
956.6650, 340.9512
957.7850, 247.0156
958.9040, 264.2773
960.0230, 352.4570
961.1420, 230.3320
962.2610, 250.2324
963.3800, 173.2520
964.4990, 101.3203
965.6170, 132.5059
966.7350, 314.4941
967.8530, 364.7754
968.9710, 405.7461
970.0890, 465.6816
971.2070, 466.0625
972.3240, 413.5742
973.4410, 506.3965
974.5580, 527.3320
975.6750, 640.2559
976.7920, 741.1738
977.9090, 940.0078
979.0250, 1441.822
980.1410, 1701.389
981.2580, 2785.539
982.3740, 4307.119
983.4890, 6352.871
984.6050, 8625.777
985.7200, 13358.03
986.8360, 20368.87
987.9510, 28693.69
989.0660, 34270.51
990.1810, 30120.90
991.2950, 19735.38
992.4100, 10359.17
993.5240, 5523.273
994.6390, 3010.062
995.7530, 2124.227
996.8660, 1577.982
997.9800, 1011.617
999.0940, 727.7676
1000.207, 589.4414
1001.320, 657.2227
1002.433, 432.8574
1003.546, 355.5977
1004.659, 272.4043
1005.772, 442.1250
1006.884, 301.4883
1007.996, 425.8887
1009.108, 324.7285
1010.220, 217.4199
1011.332, 548.1055
1012.444, 210.7812
1013.555, 6.449219
1014.666, 222.1055
1015.777, 95.75391
1016.888, 100.6074
1017.999, 332.8887
1019.110, 236.4531
1020.220, 160.9727
1021.331, 180.5215
1022.441, 205.8535
1023.551, 370.3672
1024.661, 105.7695
1025.770, 54.09961
1026.880, 271.4453
1027.989, 176.7578
1029.098, 132.2637
1030.207, 103.7793
1031.316, 70.71484
1032.425, 83.12305
1033.533, 94.61328
1034.642, 142.1348
1035.750, 235.6133
1036.858, 241.0840
1037.966, 194.2188
1039.073, 269.6758
1040.181, 80.07422
1041.288, 180.1367
1042.396, 279.7207
1043.503, 174.1836
1044.610, 230.6113
1045.716, 52.58398
1046.823, 79.78125
1047.929, 64.49219
1049.036, 136.0410
1050.142, 178.7793
1051.248, 134.1836
1052.353, 132.5664
1053.459, 65.71680
1054.564, 293.0918
1055.670, 187.7070
1056.775, 263.0703
1057.880, 220.4277
1058.985, 81.24414
1060.089, 180.5449
1061.194, 30.83594
1062.298, 251.8184
1063.402, 176.3398
1064.506, 19.72852
1065.610, 2.994141
1066.713, 22.13281
1067.817, 3.865234
1068.920, 53.99805
1070.023, 115.2363
1071.126, 216.4707
1072.229, 262.6992
1073.332, 236.6172
1074.435, 179.0664
1075.537, 99.28320
1076.639, 176.4922
1077.741, 163.6074
1078.843, 231.8086
1079.945, 205.0195
1081.046, 279.2266
1082.148, 367.4316
1083.249, 421.7070
1084.350, 471.8398
1085.451, 415.7188
1086.551, 512.9961
1087.652, 433.6152
1088.752, 367.8809
1089.853, 154.0527
1090.953, 36.22266
1092.053, 111.3887
1093.152, 60.55664
1094.252, 82.71875
1095.351, 270.8789
1096.451, 70.03320
1097.550, 39.12891
1098.649, 165.2754
1099.748, 360.4160
1100.846, 278.5645
1101.945, 386.4961
1103.043, 322.8555
1104.141, 400.0000
1105.239, 240.2031
1106.337, 186.3418
1107.434, 286.4766
1108.532, 263.6094
1109.629, 309.7363
1110.726, 162.8594
1111.823, 107.9785
1112.920, 17.10938
1114.017, 111.2344
1115.113, 61.36133
1116.210, 69.76562
1117.306, 1.355469
1118.402, 81.77539
1119.498, 120.9004
1120.593, 130.0254
1121.689, 123.8535
1122.784, 170.1973
1123.879, 82.25000
1124.974, 11.63281
1126.069, 144.6758
1127.164, 0.7187500
1128.259, 112.7734
1129.353, 121.8066
1130.447, 70.83984
1131.541, 22.87500
1132.635, 56.91992
1133.729, 98.96289
1134.822, 266.0957
1135.916, 63.13867
1137.009, 376.1758
1138.102, 311.0957
1139.195, 231.1270
1140.288, 49.15430
1141.380, 363.3027
1142.473, 192.3359
1143.565, 294.3652
1144.657, 303.3184
1145.749, 455.8906
1146.841, 219.9082
1147.932, 287.8750
1149.024, 193.8828
1150.115, 333.9160
1151.206, 269.9668
1152.297, 215.0176
1153.388, 169.0625
1154.479, 169.7793
1155.569, 303.1484
1156.659, 167.1855
1157.750, 184.1602
1158.839, 118.6094
1159.929, 60.64062
1161.019, 131.6680
1162.108, 157.6895
1163.198, 89.58789
1164.287, 224.5391
1165.376, 53.53516
1166.465, 144.5801
1167.553, 121.6406
1168.642, 202.6973
1169.730, 278.7676
1170.818, 337.8223
1171.906, 139.8262
1172.994, 4.921875
1174.082, 18.00977
1175.170, 203.0449
1176.257, 119.3711
1177.344, 70.74023
1178.431, 25.26172
1179.518, 9.654297
1180.605, 0.3007810
1181.691, 71.86328
1182.778, 179.9023
1183.864, 60.10156
1184.950, 126.0098
1186.036, 18.04102
1187.122, 165.0684
1188.207, 197.0898
1189.292, 282.1309
1190.378, 185.8398
1191.463, 210.8984
1192.548, 164.7773
1193.632, 418.8340
1194.717, 47.89258
1195.801, 186.6738
1196.886, 153.8203
1197.970, 93.56445
1199.054, 106.8652
1200.137, 181.7168
1201.221, 271.7090
1202.305, 200.6973
1203.388, 70.68164
1204.471, 18.66602
1205.554, 298.9277
1206.637, 255.9043
1207.719, 505.8770
1208.802, 89.84766
1209.884, 152.8125
1210.966, 145.4062
1212.048, 97.36719
1213.130, 57.42383
1214.212, 227.2793
1215.293, 10.76562
1216.374, 21.82227
1217.456, 157.1094
1218.536, 55.25781
1219.617, 263.1855
1220.698, 225.1094
1221.778, 393.2559
1222.859, 356.1699
1223.939, 328.9844
1225.019, 252.8887
1226.099, 129.7949
1227.178, 122.6445
1228.258, 230.5098
1229.337, 141.4121
1230.417, 258.3145
1231.496, 154.2109
1232.574, 135.1035
1233.653, 412.3887
1234.732, 66.27734
1235.810, 118.1660
1236.888, 347.1836
1237.966, 356.1230
1239.044, 111.9980
1240.122, 220.8691
1241.199, 172.7344
1242.277, 290.5957
1243.354, 281.1836
1244.431, 99.03711
1245.508, 150.8066
1246.585, 347.5996
1247.661, 184.0293
1248.738, 238.8633
1249.814, 427.6934
1250.890, 180.5195
1251.966, 195.6094
1253.042, 139.7344
1254.117, 58.21484
1255.193, 118.2617
1256.268, 314.5039
1257.343, 78.90430
1258.418, 97.30664
1259.493, 178.8340
1260.567, 112.0859
1261.642, 186.0352
1262.716, 301.9551
1263.790, 68.14844
1264.864, 95.89453
1265.938, 170.5410
1267.011, 14.73633
1268.085, 285.3184
1269.158, 343.1426
1270.231, 66.55469
1271.304, 420.2559
1272.377, 339.9512
1273.450, 351.6465
1274.522, 355.3340
1275.594, 269.7539
1276.666, 200.0410
1277.738, 163.0371
1278.810, 181.7344
1279.882, 195.3809
1280.953, 156.6250
1282.025, 376.7422
1283.096, 130.4160
1284.167, 202.0820
1285.238, 265.7402
1286.308, 71.41211
1287.379, 17.92383
1288.449, 143.7227
1289.519, 184.2910
1290.589, 178.9238
1291.659, 216.5547
1292.729, 291.2930
1293.798, 304.3320
1294.868, 175.3828
1295.937, 170.3105
1297.006, 231.2188
1298.075, 116.1074
1299.143, 148.7559
1300.212, 142.9062
1301.280, 115.6816
1302.348, 242.1934
1303.416, 222.7168
1304.484, 61.00781
1305.552, 291.2148
1306.620, 366.0664
1307.687, 132.2656
1308.754, 309.5117
1309.821, 94.67578
1310.888, 150.5137
1311.955, 87.00586
1313.021, 411.4141
1314.088, 261.8867
1315.154, 317.4219
1316.220, 185.8672
1317.286, 288.9062
1318.352, 156.3320
1319.417, 322.7695
1320.483, 118.1934
1321.548, 352.0000
1322.613, 178.4062
1323.678, 413.6992
1324.743, 12.09570
1325.807, 340.4883
1326.872, 301.4492
1327.936, 184.3008
1329.000, 381.6855
1330.064, 252.0703
1331.128, 383.4473
1332.191, 159.8066
1333.255, 62.94531
1334.318, 390.3066
1335.381, 209.6641
1336.444, 317.0156
1337.507, 185.3613
1338.569, 5.705078
1339.632, 302.0391
1340.694, 471.6992
1341.756, 176.5801
1342.818, 152.0000
1343.880, 137.7461
1344.941, 402.1191
1346.003, 83.42383
1347.064, 381.6309
1348.125, 333.8984
1349.186, 34.16016
1350.247, 355.4141
1351.308, 424.6641
1352.368, 183.0938
1353.428, 241.3301
1354.489, 181.4121
1355.549, 105.2676
1356.608, 225.4531
1357.668, 168.6309
1358.727, 161.1191
1359.787, 207.4570
1360.846, 47.60156
1361.905, 387.2402
1362.964, 202.9648
1364.022, 111.0469
1365.081, 130.0859
1366.139, 401.1211
1367.197, 286.1484
1368.255, 302.1680
1369.313, 214.1816
1370.371, 239.2188
1371.428, 267.2148
1372.486, 61.85938
1373.543, 240.0312
1374.600, 170.9121
1375.657, 467.7812
1376.713, 247.6211
1377.770, 149.7715
1378.826, 193.8125
1379.882, 75.63867
1380.938, 92.62695
1381.994, 215.9297
1383.050, 39.78125
1384.106, 146.5625
1385.161, 20.31055
1386.216, 9.851563
1387.271, 31.68750
1388.326, 36.44922
1389.381, 81.32422
1390.435, 44.02148
1391.490, 146.6191
1392.544, 255.2949
1393.598, 203.2656
1394.652, 72.36719
1395.705, 125.9980
1396.759, 25.28125
1397.812, 384.2012
1398.866, 227.7852
1399.919, 200.2344
1400.972, 331.7910
1402.024, 151.3164
1403.077, 76.83008
1404.129, 79.67578
1405.181, 231.7734
1406.233, 57.63672
1407.285, 174.7559
1408.337, 228.1387
1409.389, 220.5039
1410.440, 319.7598
1411.491, 302.3027
1412.542, 335.2266
1413.593, 306.3848
1414.644, 231.2695
1415.695, 221.6406
1416.745, 286.4023
1417.795, 285.0156
1418.845, 135.2715
1419.895, 62.05078
1420.945, 63.72656
1421.995, 28.30664
1423.044, 88.52344
1424.093, 91.66992
1425.142, 54.71289
1426.191, 126.7559
1427.240, 113.8438
1428.289, 101.8281
1429.337, 247.8262
1430.385, 18.33398
1431.433, 34.21094
1432.481, 83.96484
1433.529, 277.0195
1434.577, 219.6406
1435.624, 170.2266
1436.672, 4.640625
1437.719, 182.1289
1438.766, 304.3945
1439.812, 161.7773
1440.859, 86.26562
1441.905, 265.5234
1442.952, 42.15234
1443.998, 328.4805
1445.044, 188.5547
1446.090, 162.3711
1447.135, 66.87109
1448.181, 296.7969
1449.226, 283.1406
1450.271, 282.0703
1451.316, 217.0078
1452.361, 183.9336
1453.405, 62.56250
1454.450, 273.4688
1455.494, 262.3711
1456.538, 322.5820
1457.582, 214.4531
1458.626, 372.3164
1459.670, 309.7031
1460.713, 456.7930
1461.757, 318.1523
1462.800, 210.9805
1463.843, 288.7930
1464.886, 241.4219
1465.928, 92.19922
1466.971, 49.50000
1468.013, 148.2500
1469.055, 158.7500
1470.097, 136.4766
1471.139, 187.1953
1472.181, 199.9062
1473.222, 355.2773
1474.263, 230.9062
1475.305, 241.5273
1476.346, 307.7383
1477.386, 128.0430
1478.427, 251.0430
1479.468, 34.76562
1480.508, 46.89062
1481.548, 184.3906
1482.588, 310.8789
1483.628, 95.89844
1484.668, 123.1328
1485.707, 221.5469
1486.747, 64.93750
1487.786, 48.82422
1488.825, 188.6992
1489.864, 301.4062
1490.902, 191.5508
1491.941, 200.6914
1492.979, 283.7656
1494.017, 264.0977
1495.055, 150.9062
1496.093, 262.0664
1497.131, 366.2773
1498.168, 181.0430
1499.206, 413.7148
1500.243, 184.6484
1501.280, 337.5039
1502.317, 66.33984
1503.354, 89.94531
1504.390, 172.0469
1505.426, 286.6133
1506.463, 231.5664
1507.499, 128.9570
1508.535, 277.5000
1509.570, 324.2695
1510.606, 375.8008
1511.641, 209.2812
1512.676, 262.7422
1513.711, 127.1016
1514.746, 259.4102
1515.781, 156.6602
1516.816, 466.8516
1517.850, 68.97656
1518.884, 14.74609
1519.918, 488.4570
1520.952, 116.7930
1521.986, 162.5703
1523.019, 216.3984
1524.053, 15.14453
1525.086, 143.3242
1526.119, 227.8164
1527.152, 448.4023
1528.185, 485.4844
1529.217, 322.4609
1530.250, 96.93750
1531.282, 251.5742
1532.314, 408.1250
1533.346, 272.4766
1534.377, 259.0703
1535.409, 138.8555
1536.440, 51.31641
1537.472, 288.5586
1538.503, 153.4336
1539.534, 117.0664
1540.564, 44.89062
1541.595, 4.156250
1542.625, 304.1523
1543.656, 41.85156
1544.686, 156.0703
1545.716, 349.2656
1546.745, 279.9023
1547.775, 111.2891
1548.804, 261.1797
1549.834, 345.1289
1550.863, 114.1602
1551.892, 315.1289
1552.920, 362.0195
1553.949, 112.8047
1554.977, 107.3359
1556.006, 307.7383
1557.034, 18.95312
1558.062, 160.3047
1559.089, 232.3516
1560.117, 108.8672
1561.144, 136.9414
1562.172, 101.0039
1563.199, 71.60156
1564.226, 16.49219
1565.252, 66.88281
1566.279, 1.398438
1567.305, 10.12500
1568.332, 209.4219
1569.358, 142.9141
1570.384, 0.0000000E+00
##END=



