##NAMES=Barysilite
##RRUFFID=R050002
##IDEAL CHEMISTRY=Pb^2+^_8_Mn^2+^(Si_2_O_7_)_3_
##LOCALITY=Franklin, Sussex County, New Jersey, USA
##OWNER=RRUFF
##SOURCE=University of Arizona Mineral Museum
##DESCRIPTION=A lamellar aggregate of platy crystals
##STATUS=The identification of this mineral has been confirmed by X-ray diffraction and chemical analysis
##URL=rruff.info/R050002
##MEASURED CHEMISTRY=Pb_8.00_Mn_1.00_(Si_2.00_O_7_)_3_
##PIN_ID=M00057
##ORIENTATION=Laser parallel to c* (0 0 1). Fiducial mark perpendicular to laser is parallel to a [1 0 0]
92.678, 0.000
94.071, 37.735
95.465, 1387.078
96.858, 4690.022
98.251, 9063.616
99.644, 13681.104
101.036, 17521.967
102.428, 20509.992
103.820, 21930.898
105.212, 22064.729
106.604, 19942.506
107.995, 16557.230
109.387, 13023.791
110.777, 9780.599
112.168, 8198.876
113.559, 6744.187
114.949, 5738.375
116.339, 5378.288
117.729, 4891.995
119.119, 4557.982
120.508, 4191.201
121.897, 3520.260
123.286, 3830.759
124.675, 3287.506
126.063, 3246.244
127.452, 3222.598
128.840, 2948.919
130.228, 2689.042
131.615, 2300.992
133.003, 2375.229
134.390, 1863.313
135.777, 1767.820
137.164, 1073.472
138.550, 1112.931
139.937, 520.539
141.323, 362.824
142.709, 59.035
144.094, 226.297
145.480, 230.503
146.865, 144.469
148.250, 23.536
149.635, 77.475
151.019, 231.301
152.403, 191.051
153.788, 189.865
155.171, 226.793
156.555, 285.938
157.939, 308.250
159.322, 231.085
160.705, 3.889
162.088, 122.670
163.470, 146.526
164.853, 167.383
166.235, 431.585
167.617, 958.014
168.998, 1965.941
170.380, 2851.432
171.761, 4258.674
173.142, 5925.773
174.523, 8866.744
175.904, 11695.259
177.284, 15179.215
178.664, 19275.379
180.044, 22801.053
181.424, 27093.361
182.803, 30445.863
184.183, 32398.266
185.562, 33630.906
186.940, 33832.855
188.319, 32325.547
189.698, 30262.943
191.076, 26939.438
192.454, 23794.680
193.831, 20772.885
195.209, 17685.703
196.586, 15248.198
197.963, 12749.899
199.340, 11328.589
200.717, 9616.897
202.093, 8548.021
203.470, 7450.595
204.846, 6554.438
206.221, 5708.847
207.597, 5299.590
208.972, 4964.662
210.347, 4175.333
211.722, 3652.949
213.097, 3413.958
214.472, 2907.410
215.846, 2817.282
217.220, 2206.556
218.594, 2164.214
219.967, 2001.244
221.341, 1877.363
222.714, 1624.941
224.087, 1365.110
225.460, 1669.876
226.832, 1528.389
228.204, 1548.638
229.577, 1529.021
230.948, 1646.517
232.320, 1667.120
233.692, 1696.817
235.063, 1930.611
236.434, 1724.493
237.805, 1945.469
239.175, 1886.525
240.545, 1987.665
241.916, 2245.880
243.286, 1998.166
244.655, 2040.518
246.025, 2088.685
247.394, 2054.173
248.763, 2224.343
250.132, 2201.303
251.501, 2568.861
252.869, 2685.464
254.237, 2888.058
255.605, 2849.455
256.973, 2806.103
258.340, 3132.031
259.708, 2725.775
261.075, 2591.947
262.442, 2155.783
263.808, 2106.115
265.175, 1561.671
266.541, 1313.384
267.907, 861.594
269.273, 583.820
270.639, 343.744
272.004, 24.084
273.369, 127.890
274.734, 141.161
276.099, 35.731
277.463, 26.779
278.828, 136.735
280.192, 76.775
281.556, 46.317
282.919, 22.448
284.283, 35.067
285.646, 33.216
287.009, 85.642
288.372, 4.002
289.734, 115.057
291.097, 68.151
292.459, 45.501
293.821, 12.531
295.183, 7.339
296.544, 24.466
297.905, 42.835
299.266, 9.032
300.627, 99.059
301.988, 2.999
303.348, 25.719
304.709, 55.425
306.069, 42.525
307.428, 30.003
308.788, 66.951
310.147, 57.007
311.507, 89.864
312.865, 82.120
314.224, 74.489
315.583, 19.985
316.941, 343.743
318.299, 501.266
319.657, 496.079
321.015, 897.937
322.372, 896.127
323.729, 917.024
325.086, 1091.860
326.443, 1146.452
327.800, 857.932
329.156, 1238.375
330.512, 843.482
331.868, 1018.491
333.224, 1038.405
334.579, 1294.243
335.935, 864.986
337.290, 989.665
338.645, 687.245
339.999, 700.772
341.354, 388.205
342.708, 323.585
344.062, 379.877
345.416, 176.067
346.769, 269.144
348.123, 12.974
349.476, 164.806
350.829, 40.181
352.182, 4.737
353.534, 144.938
354.887, 158.418
356.239, 166.133
357.591, 144.186
358.942, 268.558
360.294, 409.268
361.645, 302.311
362.996, 366.748
364.347, 709.646
365.698, 513.069
367.048, 608.321
368.398, 869.494
369.748, 695.645
371.098, 1073.772
372.448, 1005.884
373.797, 1155.981
375.146, 997.110
376.495, 1270.219
377.844, 1406.308
379.192, 1137.374
380.540, 1591.495
381.889, 1163.591
383.236, 1244.652
384.584, 1435.668
385.932, 1065.536
387.279, 944.343
388.626, 1081.099
389.973, 1105.811
391.319, 577.484
392.666, 684.117
394.012, 622.707
395.358, 372.256
396.704, 391.760
398.049, 213.220
399.394, 498.624
400.740, 69.985
402.084, 273.277
403.429, 190.519
404.774, 42.562
406.118, 427.706
407.462, 192.803
408.806, 109.167
410.150, 168.753
411.493, 93.049
412.836, 392.193
414.179, 294.857
415.522, 173.261
416.865, 480.529
418.207, 437.353
419.549, 489.444
420.891, 592.483
422.233, 738.732
423.575, 924.129
424.916, 762.557
426.257, 1393.262
427.598, 1666.320
428.939, 1866.721
430.279, 2203.340
431.619, 2198.186
432.959, 2398.482
434.299, 2747.338
435.639, 3222.070
436.978, 2837.667
438.318, 3113.191
439.657, 2750.677
440.996, 2707.368
442.334, 2693.328
443.673, 2173.222
445.011, 1894.590
446.349, 1837.275
447.687, 1488.496
449.024, 1450.558
450.361, 1362.858
451.699, 755.669
453.036, 733.424
454.372, 683.539
455.709, 733.568
457.045, 280.012
458.381, 424.815
459.717, 246.264
461.053, 393.799
462.388, 211.016
463.724, 240.183
465.059, 420.965
466.394, 286.101
467.728, 344.373
469.063, 535.986
470.397, 441.421
471.731, 406.200
473.065, 954.274
474.398, 634.346
475.732, 1484.023
477.065, 1391.789
478.398, 1951.748
479.731, 2150.765
481.063, 2613.810
482.396, 2783.662
483.728, 2929.533
485.060, 3198.376
486.391, 3291.839
487.723, 3394.549
489.054, 3594.282
490.385, 4188.218
491.716, 4525.718
493.047, 5056.970
494.377, 6127.982
495.708, 6921.580
497.038, 8204.691
498.368, 9556.060
499.697, 10713.908
501.027, 12726.133
502.356, 14318.577
503.685, 15559.621
505.014, 17219.428
506.342, 17470.506
507.671, 18083.092
508.999, 17215.982
510.327, 16348.277
511.655, 15094.985
512.982, 13597.696
514.310, 12236.252
515.637, 10328.604
516.964, 8956.039
518.291, 7578.447
519.617, 6534.075
520.944, 5718.567
522.270, 4583.630
523.596, 4009.980
524.921, 3590.740
526.247, 3186.643
527.572, 2733.751
528.897, 2209.862
530.222, 2306.896
531.547, 2132.145
532.871, 2236.022
534.196, 1581.518
535.520, 1582.243
536.844, 1974.886
538.167, 1580.869
539.491, 1674.923
540.814, 1380.347
542.137, 1349.692
543.460, 1073.957
544.783, 1106.138
546.105, 467.240
547.427, 828.286
548.749, 910.250
550.071, 799.132
551.393, 845.932
552.714, 982.656
554.035, 966.297
555.356, 972.483
556.677, 744.644
557.998, 524.146
559.318, 680.471
560.638, 556.673
561.958, 365.496
563.278, 56.812
564.597, 323.196
565.917, 215.716
567.236, 162.969
568.555, 111.037
569.874, 6.672
571.192, 7.299
572.511, 159.361
573.829, 76.949
575.147, 56.595
576.464, 34.412
577.782, 51.861
579.099, 2.112
580.416, 17.303
581.733, 10.533
583.050, 74.732
584.366, 53.884
585.683, 82.357
586.999, 56.529
588.315, 27.523
589.630, 5.715
590.946, 87.397
592.261, 227.002
593.576, 68.860
594.891, 48.691
596.206, 49.083
597.520, 24.776
598.834, 27.548
600.148, 70.550
601.462, 23.351
602.776, 74.215
604.089, 10.530
605.402, 9.524
606.715, 37.706
608.028, 41.087
609.341, 60.647
610.653, 74.748
611.965, 61.788
613.277, 21.082
614.589, 90.218
615.901, 6.046
617.212, 34.095
618.523, 3.452
619.834, 69.107
621.145, 132.903
622.456, 5.068
623.766, 3.630
625.076, 221.121
626.386, 54.367
627.696, 251.349
629.006, 17.683
630.315, 207.111
631.624, 46.193
632.933, 24.391
634.242, 342.221
635.551, 57.173
636.859, 44.141
638.167, 3.318
639.475, 209.373
640.783, 12.987
642.090, 21.372
643.398, 110.438
644.705, 1.518
646.012, 9.284
647.318, 32.790
648.625, 70.881
649.931, 103.477
651.237, 34.001
652.543, 209.405
653.849, 25.985
655.155, 365.954
656.460, 9.312
657.765, 187.096
659.070, 3.229
660.375, 1.180
661.679, 309.524
662.984, 24.713
664.288, 27.457
665.592, 71.094
666.895, 103.439
668.199, 32.045
669.502, 0.971
670.805, 13.364
672.108, 165.258
673.411, 11.105
674.713, 34.149
676.016, 273.982
677.318, 26.760
678.620, 64.470
679.921, 26.122
681.223, 96.707
682.524, 46.256
683.825, 4.518
685.126, 282.114
686.427, 359.430
687.727, 121.687
689.028, 416.894
690.328, 118.705
691.628, 259.033
692.927, 488.976
694.227, 85.865
695.526, 255.022
696.825, 703.545
698.124, 424.318
699.423, 539.855
700.721, 777.342
702.020, 1059.779
703.318, 1048.514
704.616, 1701.854
705.913, 1338.144
707.211, 1819.402
708.508, 2235.611
709.805, 1680.778
711.102, 811.897
712.399, 1064.969
713.695, 480.998
714.992, 689.993
716.288, 219.944
717.584, 452.866
718.879, 241.755
720.175, 99.096
721.470, 477.513
722.765, 193.236
724.060, 165.927
725.355, 162.629
726.649, 73.835
727.944, 18.140
729.238, 460.651
730.532, 273.509
731.825, 298.945
733.119, 189.889
734.412, 3.257
735.705, 8.627
736.998, 148.348
738.291, 5.360
739.584, 112.154
740.876, 129.490
742.168, 244.261
743.460, 26.472
744.752, 88.551
746.043, 180.508
747.334, 378.096
748.626, 7.738
749.916, 27.330
751.207, 107.663
752.498, 197.795
753.788, 288.986
755.078, 0.330
756.368, 258.681
757.658, 14.229
758.947, 7.426
760.237, 233.249
761.526, 0.320
762.815, 142.537
764.104, 28.927
765.392, 235.728
766.680, 25.398
767.969, 31.122
769.257, 356.559
770.544, 10.780
771.832, 180.145
773.119, 27.705
774.406, 12.339
775.693, 151.919
776.980, 0.588
778.267, 88.257
779.553, 197.456
780.839, 76.005
782.125, 161.256
783.411, 156.743
784.697, 33.562
785.982, 19.932
787.267, 170.174
788.552, 289.649
789.837, 40.457
791.122, 202.789
792.406, 160.645
793.690, 29.467
794.974, 173.671
796.258, 35.881
797.542, 506.134
798.825, 16.047
800.108, 322.273
801.391, 86.652
802.674, 276.745
803.957, 175.163
805.239, 66.694
806.522, 579.334
807.804, 105.263
809.085, 747.590
810.367, 740.524
811.649, 471.883
812.930, 556.726
814.211, 628.222
815.492, 727.053
816.772, 935.004
818.053, 1027.572
819.333, 1172.499
820.613, 1065.880
821.893, 1385.390
823.173, 1400.486
824.452, 1336.158
825.732, 1524.826
827.011, 886.678
828.290, 859.382
829.568, 669.660
830.847, 653.693
832.125, 908.886
833.403, 605.420
834.681, 203.580
835.959, 301.000
837.236, 388.493
838.514, 97.750
839.791, 510.918
841.068, 272.139
842.345, 306.065
843.621, 519.301
844.898, 81.844
846.174, 50.104
847.450, 419.406
848.726, 80.852
850.001, 84.004
851.277, 10.290
852.552, 51.019
853.827, 287.354
855.102, 29.734
856.376, 83.863
857.651, 202.506
858.925, 368.959
860.199, 226.619
861.473, 121.083
862.746, 413.556
864.020, 501.032
865.293, 44.517
866.566, 665.012
867.839, 538.511
869.112, 548.017
870.384, 831.531
871.656, 598.126
872.928, 547.727
874.200, 1140.589
875.472, 1043.222
876.744, 1015.874
878.015, 1369.535
879.286, 1312.234
880.557, 2029.664
881.828, 2245.030
883.098, 2764.829
884.369, 3358.042
885.639, 4323.919
886.909, 5056.810
888.178, 6052.669
889.448, 6415.326
890.717, 7204.319
891.987, 6543.666
893.256, 6247.714
894.524, 5774.833
895.793, 5027.967
897.061, 4675.890
898.330, 4355.904
899.598, 4187.192
900.865, 4776.492
902.133, 4714.225
903.401, 4831.745
904.668, 5242.185
905.935, 5476.418
907.202, 5215.947
908.468, 5272.888
909.735, 5276.486
911.001, 4875.212
912.267, 4317.142
913.533, 4127.819
914.799, 4327.056
916.064, 4228.816
917.330, 4968.951
918.595, 4804.749
919.860, 4871.615
921.124, 5133.582
922.389, 4819.729
923.653, 4676.851
924.918, 4259.865
926.182, 4194.901
927.445, 3813.958
928.709, 3541.041
929.972, 2994.925
931.236, 2866.089
932.499, 2765.326
933.761, 2651.587
935.024, 2085.929
936.286, 1866.217
937.549, 2026.204
938.811, 1442.664
940.073, 1816.199
941.334, 1276.875
942.596, 1317.061
943.857, 1329.759
945.118, 1099.495
946.379, 1024.627
947.640, 819.724
948.900, 1166.052
950.161, 886.094
951.421, 630.987
952.681, 656.939
953.940, 838.937
955.200, 668.221
956.459, 295.286
957.719, 760.393
958.978, 565.530
960.236, 688.037
961.495, 421.230
962.753, 650.933
964.012, 324.387
965.270, 388.053
966.527, 773.268
967.785, 469.362
969.043, 544.327
970.300, 428.646
971.557, 75.981
972.814, 452.297
974.071, 296.286
975.327, 507.706
976.583, 269.225
977.840, 512.889
979.095, 404.234
980.351, 244.929
981.607, 448.134
982.862, 295.482
984.117, 300.342
985.372, 907.385
986.627, 43.641
987.882, 554.998
989.136, 549.840
990.390, 55.768
991.644, 451.199
992.898, 290.174
994.152, 292.976
995.405, 232.925
996.659, 233.584
997.912, 524.925
999.165, 318.070
1000.417, 296.446
1001.670, 33.005
1002.922, 706.198
1004.174, 152.886
1005.426, 352.039
1006.678, 48.510
1007.930, 165.672
1009.181, 308.729
1010.432, 62.215
1011.683, 332.331
1012.934, 335.313
1014.185, 331.370
1015.435, 283.388
1016.685, 88.880
1017.935, 137.971
1019.185, 530.986
1020.435, 227.288
1021.684, 59.678
1022.934, 350.366
1024.183, 375.270
1025.432, 140.711
1026.680, 586.993
1027.929, 64.558
1029.177, 399.513
1030.425, 169.906
1031.673, 372.519
1032.921, 293.078
1034.169, 50.730
1035.416, 126.188
1036.663, 418.710
1037.911, 16.785
1039.157, 88.018
1040.404, 522.816
1041.650, 369.603
1042.897, 753.197
1044.143, 204.792
1045.389, 345.911
1046.634, 624.861
1047.880, 237.468
1049.125, 440.367
1050.371, 468.511
1051.615, 746.428
1052.860, 306.005
1054.105, 894.171
1055.349, 513.718
1056.593, 419.389
1057.837, 414.958
1059.081, 835.028
1060.325, 519.563
1061.568, 485.094
1062.812, 368.612
1064.055, 518.551
1065.298, 468.940
1066.540, 392.699
1067.783, 450.929
1069.025, 118.349
1070.267, 802.345
1071.509, 5.867
1072.751, 338.744
1073.993, 574.188
1075.234, 153.486
1076.475, 314.516
1077.716, 456.872
1078.957, 13.403
1080.198, 125.831
1081.438, 469.017
1082.679, 323.883
1083.919, 346.867
1085.159, 54.066
1086.398, 323.121
1087.638, 6.247
1088.877, 244.431
1090.116, 34.295
1091.355, 5.879
1092.594, 237.218
1093.833, 69.965
1095.071, 80.266
1096.309, 42.972
1097.547, 377.625
1098.785, 9.055
1100.023, 77.609
1101.260, 195.453
1102.498, 106.393
1103.735, 29.643
1104.972, 204.396
1106.208, 110.813
1107.445, 118.796
1108.681, 17.133
1109.918, 262.164
1111.154, 6.973
1112.389, 96.506
1113.625, 82.175
1114.860, 0.667
1116.096, 4.774
1117.331, 75.469
1118.566, 7.094
1119.800, 19.013
1121.035, 30.942
1122.269, 32.713
1123.503, 34.564
1124.737, 24.980
1125.971, 6.314
1127.205, 13.825
1128.438, 26.436
1129.671, 140.540
1130.904, 99.132
1132.137, 248.341
1133.370, 203.311
1134.602, 120.607
1135.834, 39.539
1137.066, 20.916
1138.298, 477.254
1139.530, 28.591
1140.762, 374.069
1141.993, 8.394
1143.224, 47.250
1144.455, 16.724
1145.686, 0.285
1146.917, 53.977
1148.147, 188.982
1149.377, 22.767
1150.607, 106.089
1151.837, 10.127
1153.067, 35.646
1154.296, 21.329
1155.526, 282.407
1156.755, 134.317
1157.984, 161.602
1159.213, 41.864
1160.441, 178.839
1161.670, 163.535
1162.898, 192.485
1164.126, 81.869
1165.354, 179.977
1166.581, 206.793
1167.809, 381.209
1169.036, 124.240
1170.263, 288.910
1171.490, 265.542
1172.717, 145.707
1173.943, 16.287
1175.170, 117.703
1176.396, 7.622
1177.622, 408.508
1178.848, 355.501
1180.073, 25.892
1181.299, 124.609
1182.524, 207.172
1183.749, 189.811
1184.974, 563.455
1186.199, 414.632
1187.423, 194.325
1188.648, 193.589
1189.872, 543.128
1191.096, 263.505
1192.320, 374.812
1193.543, 412.171
1194.767, 571.651
1195.990, 198.383
1197.213, 376.323
1198.436, 424.835
1199.659, 568.942
1200.881, 369.277
1202.104, 641.125
1203.326, 256.276
1204.548, 681.839
1205.770, 11.799
1206.991, 532.628
1208.213, 563.388
1209.434, 564.043
1210.655, 176.603
1211.876, 305.061
1213.096, 451.424
1214.317, 339.272
1215.537, 626.453
1216.757, 160.552
1217.977, 430.548
1219.197, 227.234
1220.417, 504.055
1221.636, 534.793
1222.855, 350.443
1224.074, 506.007
1225.293, 0.554
1226.512, 473.786
1227.731, 524.004
1228.949, 357.344
1230.167, 137.393
1231.385, 475.345
1232.603, 582.285
1233.820, 255.072
1235.038, 235.625
1236.255, 599.230
1237.472, 593.673
1238.689, 229.445
1239.906, 758.784
1241.122, 402.036
1242.338, 522.198
1243.555, 751.918
1244.771, 426.831
1245.986, 419.431
1247.202, 195.018
1248.417, 398.568
1249.633, 407.031
1250.848, 135.139
1252.063, 476.378
1253.277, 330.502
1254.492, 385.509
1255.706, 354.066
1256.920, 362.850
1258.134, 120.045
1259.348, 41.997
1260.562, 640.449
1261.775, 337.844
1262.988, 72.257
1264.201, 214.696
1265.414, 304.682
1266.627, 398.582
1267.839, 321.365
1269.052, 330.394
1270.264, 85.925
1271.476, 528.283
1272.688, 125.361
1273.899, 64.671
1275.111, 15.550
1276.322, 135.792
1277.533, 86.731
1278.744, 255.012
1279.955, 34.123
1281.165, 157.242
1282.376, 150.716
1283.586, 94.372
1284.796, 82.893
1286.006, 47.758
1287.215, 184.126
1288.425, 253.515
1289.634, 25.543
1290.843, 71.097
1292.052, 0.981
1293.261, 98.511
1294.469, 4.743
1295.678, 259.665
1296.886, 133.318
1298.094, 1.749
1299.302, 21.074
1300.509, 41.411
1301.717, 251.422
1302.924, 34.380
1304.131, 32.279
1305.338, 247.224
1306.545, 52.206
1307.752, 5.973
1308.958, 81.773
1310.164, 123.964
1311.370, 46.531
1312.576, 242.952
1313.782, 108.056
1314.987, 52.971
1316.193, 28.106
1317.398, 160.737
1318.603, 35.370
1319.807, 297.070
1321.012, 3.888
1322.216, 133.260
1323.421, 60.599
1324.625, 32.304
1325.829, 32.333
1327.032, 19.884
1328.236, 321.608
1329.439, 27.639
1330.642, 40.705
1331.845, 15.994
1333.048, 308.475
1334.251, 154.918
1335.453, 52.969
1336.656, 159.025
1337.858, 120.961
1339.060, 2.084
1340.261, 221.344
1341.463, 144.374
1342.664, 299.110
1343.866, 54.020
1345.067, 265.252
1346.267, 65.881
1347.468, 567.086
1348.669, 83.218
1349.869, 678.425
1351.069, 315.129
1352.269, 190.354
1353.469, 374.603
1354.668, 356.883
1355.868, 573.751
1357.067, 449.208
1358.266, 47.323
1359.465, 483.038
1360.664, 740.231
1361.862, 300.298
1363.061, 574.996
1364.259, 411.990
1365.457, 181.984
1366.655, 698.026
1367.852, 211.058
1369.050, 501.582
1370.247, 573.797
1371.444, 499.392
1372.641, 33.581
1373.838, 464.769
1375.035, 198.740
1376.231, 569.111
1377.427, 452.981
1378.623, 148.367
1379.819, 329.847
1381.015, 235.746
1382.211, 363.346
1383.406, 379.707
1384.601, 348.652
1385.796, 496.614
1386.991, 280.929
1388.185, 498.283
1389.380, 359.559
1390.574, 614.936
1391.768, 396.070
1392.962, 712.525
1394.156, 218.858
1395.350, 507.483
1396.543, 682.107
1397.736, 414.525
1398.929, 465.816
1400.122, 331.339
1401.315, 647.847
1402.507, 571.378
1403.700, 869.294
1404.892, 677.467
1406.084, 621.573
1407.276, 345.778
1408.467, 568.873
1409.659, 289.266
1410.850, 464.908
1412.041, 787.001
1413.232, 318.564
1414.423, 647.422
1415.614, 370.879
1416.804, 599.609
1417.994, 542.932
1419.184, 481.633
1420.374, 526.043
1421.564, 783.539
1422.753, 573.100
1423.943, 545.516
1425.132, 468.677
1426.321, 511.086
1427.510, 638.815
1428.698, 390.898
1429.887, 453.988
1431.075, 278.128
1432.263, 433.097
1433.451, 531.946
1434.639, 461.742
1435.827, 660.372
1437.014, 341.909
1438.201, 904.302
1439.388, 726.535
1440.575, 583.590
1441.762, 548.573
1442.949, 600.927
1444.135, 604.531
1445.321, 518.919
1446.507, 745.071
1447.693, 382.031
1448.879, 475.801
1450.064, 815.533
1451.250, 610.409
1452.435, 55.290
1453.620, 965.034
1454.805, 765.699
1455.989, 342.376
1457.174, 964.087
1458.358, 272.983
1459.542, 407.097
1460.726, 810.646
1461.910, 337.371
1463.093, 914.238
1464.277, 447.364
1465.460, 452.801
1466.643, 843.753
1467.826, 369.889
1469.009, 941.897
1470.191, 358.620
1471.373, 323.517
1472.556, 520.592
1473.738, 838.835
1474.919, 257.312
1476.101, 650.022
1477.283, 663.018
1478.464, 296.506
1479.645, 452.405
1480.826, 548.786
1482.007, 248.728
1483.187, 884.274
1484.368, 242.536
1485.548, 338.578
1486.728, 84.473
1487.908, 404.281
1489.088, 275.088
1490.268, 875.948
1491.447, 343.800
1492.626, 264.702
1493.805, 196.797
1494.984, 428.260
1496.163, 539.254
1497.341, 135.967
1498.520, 454.617
1499.698, 44.411
1500.876, 474.598
1502.054, 11.893
1503.232, 21.462
1504.409, 2.383
1505.586, 15.767
1506.763, 411.267
1507.940, 376.149
1509.117, 156.630
1510.294, 404.432
1511.470, 0.000
##END=



