##NAMES=Baryte
##RRUFFID=R050335
##IDEAL CHEMISTRY=BaS^6+^O_4_
##LOCALITY=Bullion Mountains, San Bernardino County, California, USA
##OWNER=RRUFF
##SOURCE=California Institute of Technology
##DESCRIPTION=Colorless cleavage fragment
##STATUS=The identification of this mineral has been confirmed by X-ray diffraction and chemical analysis
##URL=rruff.info/R050335
##MEASURED CHEMISTRY=(Ba_0.95_Sr_0.05_)_Î£=1_S_1.00_O_4_
##PIN_ID=M00174
##ORIENTATION=Laser parallel to -c* (0 0 -1). Fiducial mark perpendicular to laser is parallel to a [1 0 0]
93.48000, 0.0000000E+00
94.71400, 1.036133
95.94800, 65.68457
97.18200, 52.63550
98.41600, 175.4109
99.64900, 113.2102
100.8830, 138.5327
102.1160, 144.0520
103.3490, 91.53882
104.5820, 111.8215
105.8150, 51.76758
107.0470, 92.27686
108.2800, 123.2729
109.5120, 182.7136
110.7440, 25.54004
111.9760, 20.70142
113.2080, 22.15869
114.4400, 124.8772
115.6710, 53.82788
116.9030, 73.98682
118.1340, 78.33496
119.3650, 84.85815
120.5960, 101.5400
121.8270, 64.36768
123.0580, 76.43799
124.2880, 86.72266
125.5190, 82.10010
126.7490, 99.35010
127.9790, 99.19458
129.2090, 122.7463
130.4390, 102.4565
131.6680, 110.2397
132.8980, 104.0884
134.1270, 115.9976
135.3560, 110.9629
136.5850, 124.0508
137.8140, 87.04980
139.0430, 135.1689
140.2710, 165.3354
141.5000, 140.5459
142.7280, 167.8499
143.9560, 181.1899
145.1840, 184.5647
146.4120, 302.9753
147.6390, 256.4199
148.8670, 308.9016
150.0940, 327.4204
151.3210, 335.9680
152.5490, 363.6985
153.7750, 382.2229
155.0020, 458.7734
156.2290, 378.3496
157.4550, 311.9597
158.6810, 223.6060
159.9080, 271.2920
161.1340, 204.0308
162.3590, 201.7869
163.5850, 161.5715
164.8110, 160.3884
166.0360, 160.2903
167.2610, 89.19653
168.4860, 129.0923
169.7110, 56.97852
170.9360, 77.86450
172.1610, 117.7493
173.3850, 107.6587
174.6100, 102.5708
175.8340, 38.48730
177.0580, 120.4099
178.2820, 75.33887
179.5050, 39.27832
180.7290, 119.2566
181.9520, 138.2776
183.1760, 176.3093
184.3990, 103.3484
185.6220, 149.3953
186.8450, 152.4504
188.0670, 143.5137
189.2900, 139.5864
190.5120, 159.6545
191.7340, 152.7207
192.9560, 98.79614
194.1780, 113.8801
195.4000, 91.59814
196.6220, 86.61279
197.8430, 84.18457
199.0640, 84.46167
200.2860, 101.5862
201.5070, 89.71875
202.7270, 107.8596
203.9480, 111.5674
205.1690, 114.7180
206.3890, 128.7322
207.6090, 65.15942
208.8290, 104.3320
210.0490, 50.51270
211.2690, 61.87231
212.4890, 84.30835
213.7080, 25.49658
214.9280, 94.69263
216.1470, 7.895752
217.3660, 77.10596
218.5850, 15.32373
219.8030, 49.54810
221.0220, 26.69409
222.2400, 49.07324
223.4590, 84.30786
224.6770, 14.12988
225.8950, 17.81665
227.1120, 77.57642
228.3300, 80.79419
229.5480, 51.01880
230.7650, 104.2502
231.9820, 107.0942
233.1990, 80.33325
234.4160, 90.57861
235.6330, 59.71436
236.8490, 62.03296
238.0660, 72.25659
239.2820, 36.48633
240.4980, 8.062012
241.7140, 49.75659
242.9300, 23.36621
244.1460, 72.05469
245.3610, 36.80859
246.5770, 71.78833
247.7920, 65.64673
249.0070, 66.54810
250.2220, 40.48779
251.4370, 33.88477
252.6510, 66.89014
253.8660, 19.92432
255.0800, 95.98462
256.2940, 57.06958
257.5080, 17.17700
258.7220, 97.30518
259.9360, 103.4529
261.1490, 128.6189
262.3630, 133.8108
263.5760, 59.14868
264.7890, 72.37207
266.0020, 21.60986
267.2150, 41.00757
268.4270, 15.64453
269.6400, 43.92114
270.8520, 44.20898
272.0640, 0.5068360
273.2760, 64.00146
274.4880, 58.31934
275.7000, 102.6465
276.9120, 70.98242
278.1230, 41.32715
279.3340, 76.68018
280.5450, 61.04126
281.7560, 17.41431
282.9670, 80.79492
284.1780, 26.33350
285.3880, 32.72827
286.5980, 31.87036
287.8090, 52.53247
289.0190, 27.94116
290.2290, 46.35596
291.4380, 77.77686
292.6480, 64.20337
293.8570, 46.63550
295.0670, 85.07324
296.2760, 133.5161
297.4850, 24.96411
298.6930, 40.39502
299.9020, 24.83130
301.1110, 72.27271
302.3190, 3.281006
303.5270, 65.16992
304.7350, 34.62524
305.9430, 47.08594
307.1510, 32.55029
308.3580, 69.01929
309.5660, 19.49243
310.7730, 44.96948
311.9800, 17.45020
313.1870, 10.06519
314.3940, 69.42114
315.6010, 73.91138
316.8070, 1.594971
318.0130, 144.9021
319.2200, 28.40308
320.4260, 35.90771
321.6310, 28.41602
322.8370, 28.92773
324.0430, 21.44336
325.2480, 31.96265
326.4540, 23.51465
327.6590, 11.00635
328.8640, 125.5300
330.0680, 69.05737
331.2730, 63.58740
332.4780, 73.12109
333.6820, 20.65771
334.8860, 52.19727
336.0900, 75.73120
337.2940, 37.26831
338.4980, 24.80859
339.7010, 38.35181
340.9050, 41.89795
342.1080, 116.4473
343.3110, 58.99951
344.5140, 70.55396
345.7170, 19.11133
346.9200, 14.32861
348.1220, 61.23071
349.3240, 0.2094730
350.5270, 6.352051
351.7290, 49.91626
352.9310, 3.516846
354.1320, 1.948730
355.3340, 38.62305
356.5350, 6.897461
357.7370, 29.66968
358.9380, 25.76025
360.1390, 65.80640
361.3400, 71.37573
362.5400, 68.94775
363.7410, 24.52295
364.9410, 75.10034
366.1410, 24.67676
367.3410, 46.25488
368.5410, 9.164307
369.7410, 19.41333
370.9400, 34.99194
372.1400, 44.56616
373.3390, 42.45996
374.5380, 32.27393
375.7370, 13.30371
376.9360, 9.893799
378.1350, 41.31665
379.3330, 51.25317
380.5310, 35.81738
381.7300, 32.37109
382.9280, 29.92749
384.1260, 80.48657
385.3230, 3.948242
386.5210, 97.62061
387.7180, 17.19507
388.9160, 50.77734
390.1130, 0.3649900
391.3100, 18.95557
392.5060, 39.55029
393.7030, 40.14990
394.9000, 23.24609
396.0960, 52.34961
397.2920, 15.94922
398.4880, 26.55273
399.6840, 50.15967
400.8800, 8.776611
402.0750, 106.3972
403.2710, 138.0210
404.4660, 39.64893
405.6610, 96.24829
406.8560, 2.884277
408.0510, 110.5212
409.2450, 13.83813
410.4400, 34.20361
411.6340, 20.58447
412.8280, 83.02515
414.0220, 13.64307
415.2160, 55.26416
416.4100, 1.885742
417.6030, 135.5103
418.7970, 61.13770
419.9900, 70.76831
421.1830, 9.401123
422.3760, 34.03711
423.5690, 15.67554
424.7610, 58.20703
425.9540, 87.85059
427.1460, 3.496338
428.3380, 187.1433
429.5300, 256.7939
430.7220, 91.12598
431.9140, 162.7817
433.1050, 232.4399
434.2970, 228.1008
435.4880, 277.7642
436.6790, 303.4299
437.8700, 472.1130
439.0610, 557.7988
440.2510, 690.4868
441.4420, 1014.178
442.6320, 1316.872
443.8220, 1625.568
445.0120, 1988.267
446.2020, 2373.853
447.3910, 2633.558
448.5810, 3061.266
449.7700, 3647.976
450.9600, 4085.690
452.1490, 4446.407
453.3370, 4654.126
454.5260, 4297.848
455.7150, 3916.571
456.9030, 3535.873
458.0910, 2840.601
459.2800, 2507.332
460.4670, 2211.973
461.6550, 1929.708
462.8430, 1653.447
464.0300, 1417.188
465.2180, 1126.930
466.4050, 783.6753
467.5920, 589.4226
468.7790, 467.1719
469.9650, 415.7712
471.1520, 278.5254
472.3380, 231.2815
473.5250, 223.0405
474.7110, 282.8018
475.8970, 239.5654
477.0820, 162.3313
478.2680, 143.0991
479.4540, 54.86938
480.6390, 105.6416
481.8240, 91.41602
483.0090, 150.1929
484.1940, 104.9717
485.3780, 42.75269
486.5630, 155.5361
487.7470, 129.3296
488.9320, 98.13354
490.1160, 129.1396
491.3000, 67.94824
492.4830, 52.62842
493.6670, 73.44312
494.8500, 26.26001
496.0340, 25.78394
497.2170, 7.377930
498.4000, 60.20312
499.5820, 83.62720
500.7650, 82.46582
501.9480, 36.90063
503.1300, 29.74341
504.3120, 10.58862
505.4940, 49.43604
506.6760, 97.28589
507.8580, 69.13745
509.0390, 99.52783
510.2210, 78.84766
511.4020, 89.13062
512.5830, 102.9910
513.7640, 64.85400
514.9450, 49.71875
516.1250, 69.21606
517.3060, 39.24805
518.4860, 1.880127
519.6660, 91.34521
520.8460, 92.84155
522.0260, 95.71729
523.2060, 64.59570
524.3850, 37.47607
525.5650, 79.35938
526.7440, 100.2446
527.9230, 41.76172
529.1020, 68.65186
530.2810, 32.05420
531.4590, 7.948730
532.6380, 23.24268
533.8160, 9.593262
534.9940, 51.47607
536.1720, 13.39502
537.3500, 58.87744
538.5270, 43.78564
539.7050, 47.69580
540.8820, 20.60742
542.0590, 89.88477
543.2360, 123.8130
544.4130, 35.74365
545.5900, 6.793457
546.7660, 34.01123
547.9430, 143.9097
549.1190, 81.70312
550.2950, 72.62793
551.4710, 62.55469
552.6470, 56.36035
553.8220, 77.93604
554.9980, 85.10107
556.1730, 125.0610
557.3480, 112.0229
558.5230, 65.80078
559.6980, 146.8232
560.8730, 113.7910
562.0470, 59.76123
563.2220, 30.73291
564.3960, 16.68311
565.5700, 17.31689
566.7440, 6.662598
567.9170, 42.64648
569.0910, 48.48145
570.2640, 34.73779
571.4380, 47.73193
572.6110, 60.73340
573.7840, 50.73730
574.9570, 135.7715
576.1290, 24.77881
577.3020, 160.7876
578.4740, 59.29053
579.6460, 45.30273
580.8180, 101.3169
581.9900, 155.5684
583.1620, 98.58545
584.3330, 101.6045
585.5040, 106.6245
586.6760, 124.6460
587.8470, 225.9229
589.0180, 162.1987
590.1880, 202.2251
591.3590, 184.5625
592.5290, 66.59180
593.7000, 185.6221
594.8700, 195.6543
596.0400, 86.68750
597.2090, 240.7222
598.3790, 235.7603
599.5490, 264.8057
600.7180, 414.8530
601.8870, 414.9019
603.0560, 417.1958
604.2250, 500.2476
605.3940, 663.2998
606.5620, 838.3535
607.7300, 1229.408
608.8990, 1593.464
610.0670, 1782.521
611.2350, 2233.584
612.4020, 2571.648
613.5700, 3071.875
614.7370, 3568.946
615.9050, 3883.025
617.0720, 4044.099
618.2390, 3975.172
619.4060, 3582.248
620.5720, 2751.323
621.7390, 2293.400
622.9050, 1944.478
624.0710, 1696.557
625.2370, 1483.636
626.4030, 1458.716
627.5690, 1359.675
628.7340, 1300.568
629.9000, 1297.748
631.0650, 1251.847
632.2300, 1178.335
633.3950, 928.4351
634.5600, 701.5356
635.7240, 482.6367
636.8890, 409.7393
638.0530, 299.2256
639.2170, 188.3311
640.3810, 322.4385
641.5450, 236.5464
642.7080, 186.6611
643.8720, 180.7759
645.0350, 114.8911
646.1980, 184.0068
647.3610, 123.1230
648.5240, 190.2397
649.6870, 104.3569
650.8490, 106.4741
652.0120, 113.5947
653.1740, 130.7153
654.3360, 70.83643
655.4980, 8.041992
656.6600, 29.07422
657.8210, 59.19824
658.9830, 86.09814
660.1440, 87.22607
661.3050, 75.36377
662.4660, 88.60547
663.6270, 96.64160
664.7870, 82.78027
665.9480, 96.91992
667.1080, 77.05859
668.2680, 63.20020
669.4280, 5.658203
670.5880, 73.47900
671.7480, 137.6162
672.9070, 68.75391
674.0670, 83.89209
675.2260, 9.030273
676.3850, 45.16846
677.5440, 48.31348
678.7030, 32.45752
679.8610, 126.6025
681.0200, 18.53076
682.1780, 108.6572
683.3360, 90.79004
684.4940, 5.112793
685.6520, 0.2436520
686.8090, 64.48730
687.9670, 45.61523
689.1240, 44.74365
690.2810, 34.87305
691.4380, 16.10791
692.5950, 22.62598
693.7520, 14.52686
694.9080, 32.08594
696.0650, 28.22217
697.2210, 45.35742
698.3770, 12.49365
699.5330, 132.6382
700.6880, 28.77295
701.8440, 87.90723
702.9990, 36.04053
704.1550, 58.17334
705.3100, 102.6934
706.4650, 51.26318
707.6190, 79.39404
708.7740, 3.525391
709.9290, 55.63867
711.0830, 31.76611
712.2370, 30.89258
713.3910, 18.01758
714.5450, 27.14209
715.6980, 135.2656
716.8520, 49.61182
718.0050, 86.47949
719.1580, 33.57080
720.3110, 5.661133
721.4640, 65.74854
722.6170, 63.83496
723.7700, 130.9199
724.9220, 65.00439
726.0740, 5.088379
727.2260, 5.168945
728.3780, 166.2461
729.5300, 3.322266
730.6810, 100.3950
731.8330, 92.46631
732.9840, 40.53662
734.1350, 82.60693
735.2860, 24.67578
736.4370, 113.7437
737.5880, 64.26123
738.7380, 77.32764
739.8880, 112.3926
741.0390, 6.456543
742.1890, 44.51758
743.3380, 69.57715
744.4880, 46.63623
745.6380, 85.69385
746.7870, 63.75049
747.9360, 99.80664
749.0850, 99.86133
750.2340, 117.9155
751.3830, 9.967773
752.5310, 144.9854
753.6800, 23.03467
754.8280, 113.0830
755.9760, 56.12939
757.1240, 83.17480
758.2720, 110.2197
759.4190, 24.26367
760.5670, 54.30566
761.7140, 59.34668
762.8610, 41.38770
764.0080, 100.4268
765.1550, 21.08984
766.3020, 20.06934
767.4480, 16.93457
768.5950, 54.93604
769.7410, 3.937012
770.8870, 79.93213
772.0330, 35.92725
773.1780, 63.92090
774.3240, 30.91309
775.4690, 3.903809
776.6140, 127.8906
777.7590, 92.87598
778.9040, 78.86035
780.0490, 38.84961
781.1940, 138.8379
782.3380, 64.82666
783.4820, 89.81592
784.6260, 81.80420
785.7700, 76.79688
786.9140, 77.78906
788.0580, 159.7803
789.2010, 106.3730
790.3450, 146.7588
791.4880, 75.74707
792.6310, 42.73438
793.7730, 82.09033
794.9160, 48.07471
796.0590, 58.05957
797.2010, 62.04346
798.3430, 38.02734
799.4850, 69.00977
800.6270, 63.99121
801.7690, 135.9712
802.9100, 63.95117
804.0520, 85.93018
805.1930, 104.9082
806.3340, 60.88525
807.4750, 39.35107
808.6160, 48.32617
809.7560, 25.30078
810.8970, 63.27490
812.0370, 52.24756
813.1770, 76.20410
814.3170, 132.1753
815.4570, 74.14551
816.5960, 86.11523
817.7360, 36.91553
818.8750, 12.67773
820.0140, 21.62109
821.1530, 5.563965
822.2920, 70.38867
823.4310, 10.06836
824.5690, 29.01807
825.7070, 19.96777
826.8460, 85.91602
827.9840, 60.13525
829.1220, 53.77246
830.2590, 11.31543
831.3970, 1.623047
832.5340, 31.27344
833.6710, 27.17041
834.8080, 44.03662
835.9450, 12.90576
837.0820, 44.80127
838.2190, 65.69580
839.3550, 32.59033
840.4910, 113.4844
841.6270, 32.62158
842.7630, 1.744141
843.8990, 34.12939
845.0350, 124.0029
846.1700, 11.39307
847.3060, 47.47070
848.4410, 73.33447
849.5760, 93.19775
850.7100, 109.0723
851.8450, 105.8960
852.9800, 74.75977
854.1140, 75.01123
855.2480, 34.99463
856.3820, 50.85840
857.5160, 37.48682
858.6500, 25.35156
859.7830, 118.2158
860.9170, 82.08105
862.0500, 97.94678
863.1830, 62.55908
864.3160, 95.17480
865.4480, 82.04199
866.5810, 67.60059
867.7130, 98.98291
868.8460, 97.08691
869.9780, 116.2056
871.1100, 98.07520
872.2410, 48.94580
873.3730, 23.18311
874.5050, 27.67627
875.6360, 94.53613
876.7670, 10.39697
877.8980, 90.01367
879.0290, 8.875977
880.1590, 17.73926
881.2900, 31.60352
882.4200, 95.46875
883.5500, 62.33496
884.6800, 53.20117
885.8100, 27.06982
886.9400, 88.93945
888.0690, 16.35254
889.1990, 25.51025
890.3280, 54.36621
891.4570, 23.23145
892.5860, 75.09717
893.7140, 14.96484
894.8430, 21.83350
895.9710, 70.70361
897.1000, 54.57715
898.2280, 41.45215
899.3560, 6.328125
900.4830, 42.79395
901.6110, 36.19824
902.7380, 112.2573
903.8660, 131.0312
904.9930, 87.89502
906.1200, 93.36865
907.2460, 35.23584
908.3730, 95.11133
909.5000, 88.98242
910.6260, 49.85498
911.7520, 132.3462
912.8780, 82.22266
914.0040, 64.10156
915.1290, 50.45508
916.2550, 87.33789
917.3800, 69.52539
918.5050, 113.7314
919.6300, 60.62305
920.7550, 76.20947
921.8800, 137.8447
923.0040, 66.75391
924.1290, 76.66602
925.2530, 73.58008
926.3770, 140.4971
927.5010, 81.41895
928.6250, 47.34375
929.7480, 153.2788
930.8720, 118.2163
931.9950, 85.15674
933.1180, 44.10010
934.2410, 36.04443
935.3640, 90.99268
936.4860, 23.94238
937.6090, 96.89551
938.7310, 155.8511
939.8530, 99.80908
940.9750, 146.7725
942.0970, 153.7383
943.2180, 105.7090
944.3400, 79.68311
945.4610, 115.6592
946.5820, 130.6387
947.7030, 174.6211
948.8240, 153.9189
949.9450, 143.5981
951.0650, 124.5908
952.1860, 108.5869
953.3060, 101.5972
954.4260, 100.3872
955.5460, 101.8267
956.6650, 108.6514
957.7850, 128.2334
958.9040, 126.2861
960.0230, 201.3125
961.1420, 298.3418
962.2610, 340.3750
963.3800, 373.3086
964.4990, 365.3486
965.6170, 425.3164
966.7350, 443.8931
967.8530, 465.9497
968.9710, 496.0098
970.0890, 588.0742
971.2070, 686.1328
972.3240, 854.2051
973.4410, 828.2812
974.5580, 1138.361
975.6750, 1366.445
976.7920, 1834.256
977.9090, 2559.910
979.0250, 3667.005
980.1410, 5769.106
981.2580, 9551.227
982.3740, 16098.34
983.4890, 24716.45
984.6050, 31183.57
985.7200, 37474.69
986.8360, 46749.82
987.9510, 54670.95
989.0660, 57559.11
990.1810, 52526.27
991.2950, 38267.43
992.4100, 22782.59
993.5240, 12217.76
994.6390, 6653.937
995.7530, 4072.117
996.8660, 2637.302
997.9800, 1997.492
999.0940, 1575.688
1000.207, 1257.896
1001.320, 1053.110
1002.433, 875.3271
1003.546, 750.5498
1004.659, 665.7778
1005.772, 645.0098
1006.884, 525.2471
1007.996, 512.0381
1009.108, 420.2852
1010.220, 440.5371
1011.332, 343.7935
1012.444, 213.0562
1013.555, 290.3237
1014.666, 250.5967
1015.777, 246.8735
1016.888, 241.1562
1017.999, 216.4443
1019.110, 207.7368
1020.220, 161.0342
1021.331, 147.0947
1022.441, 117.6782
1023.551, 96.99170
1024.661, 93.72168
1025.770, 136.6353
1026.880, 82.96387
1027.989, 128.2988
1029.098, 112.6387
1030.207, 120.4873
1031.316, 37.83838
1032.425, 78.19385
1033.533, 52.55469
1034.642, 40.47607
1035.750, 55.85693
1036.858, 58.25146
1037.966, 35.57666
1039.073, 62.05859
1040.181, 1.471680
1041.288, 0.1020510
1042.396, 14.33447
1043.503, 87.77588
1044.610, 30.22363
1045.716, 52.67871
1046.823, 34.13916
1047.929, 40.38721
1049.036, 78.08008
1050.142, 13.09961
1051.248, 13.62500
1052.353, 88.85303
1053.459, 38.74414
1054.564, 138.7319
1055.670, 7.994629
1056.775, 65.48193
1057.880, 41.97461
1058.985, 42.47705
1060.089, 49.72754
1061.194, 7.241211
1062.298, 19.91602
1063.402, 14.48438
1064.506, 22.01562
1065.610, 19.41943
1066.713, 34.09521
1067.817, 18.64209
1068.920, 44.19482
1070.023, 57.75293
1071.126, 27.31738
1072.229, 112.9214
1073.332, 107.9263
1074.435, 129.5059
1075.537, 82.09131
1076.639, 51.68945
1077.741, 85.29688
1078.843, 121.9092
1079.945, 83.52734
1081.046, 145.5005
1082.148, 243.1289
1083.249, 186.7622
1084.350, 252.4019
1085.451, 254.0469
1086.551, 168.7095
1087.652, 87.37793
1088.752, 44.05127
1089.853, 36.73047
1090.953, 20.58447
1092.053, 35.10059
1093.152, 17.79053
1094.252, 121.4854
1095.351, 132.1860
1096.451, 178.9966
1097.550, 191.7266
1098.649, 231.3779
1099.748, 258.1245
1100.846, 264.1899
1101.945, 274.8628
1103.043, 279.3950
1104.141, 254.1621
1105.239, 265.9351
1106.337, 226.7114
1107.434, 232.4937
1108.532, 39.28076
1109.629, 83.08398
1110.726, 64.89404
1111.823, 117.7080
1112.920, 31.52734
1114.017, 23.35693
1115.113, 78.19092
1116.210, 76.03027
1117.306, 88.87451
1118.402, 129.7241
1119.498, 65.57812
1120.593, 82.43799
1121.689, 109.3018
1122.784, 65.17139
1123.879, 54.04492
1124.974, 136.9243
1126.069, 34.80762
1127.164, 92.69678
1128.259, 2.590332
1129.353, 124.4888
1130.447, 89.39355
1131.541, 70.69922
1132.635, 64.61328
1133.729, 90.15723
1134.822, 160.4546
1135.916, 189.3818
1137.009, 226.3232
1138.102, 310.2598
1139.195, 364.2007
1140.288, 453.1523
1141.380, 462.1084
1142.473, 426.0693
1143.565, 540.0361
1144.657, 531.0073
1145.749, 579.9824
1146.841, 470.9624
1147.932, 376.9468
1149.024, 347.9346
1150.115, 335.9272
1151.206, 299.9243
1152.297, 270.9258
1153.388, 151.9316
1154.479, 117.9453
1155.569, 130.9639
1156.659, 268.9863
1157.750, 31.02051
1158.839, 92.05859
1159.929, 66.10156
1161.019, 13.85254
1162.108, 123.1929
1163.198, 99.24268
1164.287, 103.2969
1165.376, 67.35400
1166.465, 124.7100
1167.553, 96.80371
1168.642, 73.90186
1169.730, 75.00732
1170.818, 23.11572
1171.906, 43.26221
1172.994, 87.03271
1174.082, 36.15283
1175.170, 86.27588
1176.257, 29.40283
1177.344, 68.53467
1178.431, 72.51709
1179.518, 67.18359
1180.605, 8.674805
1181.691, 10.16748
1182.778, 25.99512
1183.864, 20.85645
1184.950, 114.8672
1186.036, 36.98633
1187.122, 39.14746
1188.207, 98.28516
1189.292, 88.47119
1190.378, 17.38477
1191.463, 22.75586
1192.548, 25.10107
1193.632, 0.8764650
1194.717, 42.53516
1195.801, 53.67627
1196.886, 57.82031
1197.970, 64.89893
1199.054, 51.11230
1200.137, 47.26855
1201.221, 19.42432
1202.305, 0.4077150
1203.388, 10.24707
1204.471, 92.91211
1205.554, 47.07324
1206.637, 150.0547
1207.719, 60.03076
1208.802, 102.2012
1209.884, 96.37402
1210.966, 7.451172
1212.048, 82.72266
1213.130, 16.89795
1214.212, 25.14648
1215.293, 34.32715
1216.374, 103.7534
1217.456, 97.96045
1218.536, 54.14844
1219.617, 40.33887
1220.698, 49.53125
1221.778, 106.0498
1222.859, 70.24609
1223.939, 53.44434
1225.019, 90.64502
1226.099, 52.03174
1227.178, 146.2432
1228.258, 97.45654
1229.337, 90.67334
1230.417, 109.8911
1231.496, 90.11133
1232.574, 183.3335
1233.653, 165.5571
1234.732, 155.3242
1235.810, 160.1133
1236.888, 98.24072
1237.966, 101.4717
1239.044, 67.70361
1240.122, 25.93896
1241.199, 72.17529
1242.277, 58.27832
1243.354, 45.65283
1244.431, 80.89307
1245.508, 114.1357
1246.585, 91.37939
1247.661, 158.6230
1248.738, 51.86816
1249.814, 73.19434
1250.890, 41.44141
1251.966, 73.68896
1253.042, 63.93701
1254.117, 134.1860
1255.193, 68.45459
1256.268, 121.8364
1257.343, 86.08691
1258.418, 9.338867
1259.493, 188.8521
1260.567, 22.89502
1261.642, 111.3452
1262.716, 101.6597
1263.790, 169.9014
1264.864, 38.14404
1265.938, 2.386230
1267.011, 47.62891
1268.085, 108.8721
1269.158, 85.11475
1270.231, 27.36719
1271.304, 60.61133
1272.377, 66.24951
1273.450, 104.4937
1274.522, 136.7388
1275.594, 78.98438
1276.666, 196.2485
1277.738, 122.5127
1278.810, 33.77734
1279.882, 131.0420
1280.953, 162.3066
1282.025, 25.57031
1283.096, 186.8345
1284.167, 107.0977
1285.238, 77.36084
1286.308, 14.31006
1287.379, 51.57227
1288.449, 187.8394
1289.519, 52.10547
1290.589, 32.86768
1291.659, 139.1323
1292.729, 7.395996
1293.798, 82.66016
1294.868, 0.9824220
1295.937, 124.2734
1297.006, 38.75586
1298.075, 68.77246
1299.143, 39.02832
1300.212, 20.71729
1301.280, 10.47852
1302.348, 122.7495
1303.416, 41.97607
1304.484, 85.20068
1305.552, 247.8604
1306.620, 22.91895
1307.687, 122.2837
1308.754, 145.4897
1309.821, 93.34570
1310.888, 19.54932
1311.955, 60.75195
1313.021, 12.03174
1314.088, 103.2354
1315.154, 91.65527
1316.220, 76.85400
1317.286, 10.93213
1318.352, 64.49658
1319.417, 93.93555
1320.483, 140.1133
1321.548, 76.13281
1322.613, 0.7167970
1323.678, 89.45508
1324.743, 56.62695
1325.807, 75.79883
1326.872, 57.96973
1327.936, 43.37939
1329.000, 53.71387
1330.064, 12.69727
1331.128, 51.82080
1332.191, 39.54688
1333.255, 22.70312
1334.318, 23.14209
1335.381, 6.995117
1336.444, 22.48682
1337.507, 165.6294
1338.569, 111.7710
1339.632, 151.5610
1340.694, 96.70068
1341.756, 9.840332
1342.818, 111.0703
1343.880, 3.208008
1344.941, 15.44824
1346.003, 66.58350
1347.064, 77.91748
1348.125, 74.05078
1349.186, 62.18359
1350.247, 165.3184
1351.308, 49.45215
1352.368, 118.5850
1353.428, 6.716309
1354.489, 131.6187
1355.549, 84.74561
1356.608, 129.1733
1357.668, 89.29785
1358.727, 83.42236
1359.787, 58.84424
1360.846, 146.9634
1361.905, 58.08203
1362.964, 124.3311
1364.022, 38.50830
1365.081, 40.62744
1366.139, 64.74121
1367.197, 138.1602
1368.255, 55.25977
1369.313, 98.35742
1370.371, 57.58643
1371.428, 171.7310
1372.486, 115.9185
1373.543, 112.9731
1374.600, 73.02637
1375.657, 63.85693
1376.713, 20.12598
1377.770, 72.16895
1378.826, 36.21045
1379.882, 81.25000
1380.938, 103.2881
1381.994, 30.32373
1383.050, 17.35791
1384.106, 37.38818
1385.161, 120.4155
1386.216, 10.44189
1387.271, 145.4658
1388.326, 94.09082
1389.381, 23.10889
1390.435, 47.12500
1391.490, 87.13965
1392.544, 81.14941
1393.598, 176.1484
1394.652, 51.15527
1395.705, 120.1592
1396.759, 36.15967
1397.812, 62.15674
1398.866, 6.150879
1399.919, 75.14258
1400.972, 114.4922
1402.024, 135.4590
1403.077, 173.9248
1404.129, 70.00586
1405.181, 130.9561
1406.233, 79.90088
1407.285, 156.8423
1408.337, 172.8506
1409.389, 52.77930
1410.440, 172.7021
1411.491, 131.6235
1412.542, 13.45850
1413.593, 178.4502
1414.644, 74.52979
1415.695, 107.4336
1416.745, 105.3350
1417.795, 144.2354
1418.845, 162.1597
1419.895, 89.05566
1420.945, 32.94873
1421.995, 49.44531
1423.044, 21.42529
1424.093, 2.479492
1425.142, 66.14404
1426.191, 76.87988
1427.240, 152.9438
1428.289, 193.6641
1429.337, 157.4097
1430.385, 173.1113
1431.433, 9.764648
1432.481, 146.4023
1433.529, 78.17773
1434.577, 57.78223
1435.624, 180.3667
1436.672, 127.9302
1437.719, 112.4790
1438.766, 52.00732
1439.812, 60.09473
1440.859, 94.11035
1441.905, 61.60693
1442.952, 44.09326
1443.998, 16.51172
1445.044, 124.9653
1446.090, 72.41797
1447.135, 65.88184
1448.181, 42.64014
1449.226, 202.7598
1450.271, 78.87744
1451.316, 142.9922
1452.361, 138.0952
1453.405, 49.21045
1454.450, 16.53369
1455.494, 114.6187
1456.538, 152.7026
1457.582, 125.7109
1458.626, 144.5244
1459.670, 106.5762
1460.713, 95.64795
1461.757, 12.71729
1462.800, 139.7847
1463.843, 95.62842
1464.886, 186.6704
1465.928, 69.70850
1466.971, 137.7412
1468.013, 33.76953
1469.055, 66.79492
1470.097, 32.81592
1471.139, 83.83203
1472.181, 23.84424
1473.222, 89.85254
1474.263, 164.8589
1475.305, 60.75928
1476.346, 129.7607
1477.386, 77.73584
1478.427, 81.55908
1479.468, 13.79932
1480.508, 136.1973
1481.548, 19.10059
1482.588, 72.10254
1483.628, 73.10352
1484.668, 20.09082
1485.707, 133.5176
1486.747, 117.5068
1487.786, 34.46533
1488.825, 44.39258
1489.864, 58.31641
1490.902, 208.2397
1491.941, 21.16211
1492.979, 72.41357
1494.017, 129.2812
1495.055, 34.14746
1496.093, 47.01074
1497.131, 30.03662
1498.168, 57.13770
1499.206, 161.8774
1500.243, 105.6504
1501.280, 137.4312
1502.317, 79.42871
1503.354, 83.29639
1504.390, 154.0410
1505.426, 79.85645
1506.463, 99.67822
1507.499, 106.4741
1508.535, 168.8496
1509.570, 85.71143
1510.606, 55.53418
1511.641, 135.3867
1512.676, 141.2251
1513.711, 77.59717
1514.746, 73.46338
1515.781, 69.32617
1516.816, 155.4082
1517.850, 59.23926
1518.884, 265.0615
1519.918, 97.65283
1520.952, 89.19238
1521.986, 120.4692
1523.019, 57.22559
1524.053, 103.9722
1525.086, 16.70752
1526.119, 53.56494
1527.152, 57.68018
1528.185, 30.02197
1529.217, 221.5542
1530.250, 103.4780
1531.282, 90.93408
1532.314, 36.43555
1533.346, 178.4668
1534.377, 98.40820
1535.409, 91.04980
1536.440, 120.6816
1537.472, 107.3242
1538.503, 3.046387
1539.534, 98.56689
1540.564, 80.17773
1541.595, 144.7690
1542.625, 49.34619
1543.656, 203.9067
1544.686, 120.4712
1545.716, 159.0137
1546.745, 97.55713
1547.775, 64.08594
1548.804, 96.69287
1549.834, 66.37988
1550.863, 63.74219
1551.892, 24.53906
1552.920, 22.71387
1553.949, 33.60010
1554.977, 108.4648
1556.006, 54.36279
1557.034, 73.61670
1558.062, 73.07227
1559.089, 58.88281
1560.117, 104.4604
1561.144, 133.9795
1562.172, 155.1797
1563.199, 2.732910
1564.226, 54.75146
1565.252, 28.39551
1566.279, 116.5693
1567.305, 73.37549
1568.332, 39.84570
1569.358, 40.15381
1570.384, 0.0000000E+00
##END=



