##NAMES=Baryte
##RRUFFID=R050342
##IDEAL CHEMISTRY=BaS^6+^O_4_
##LOCALITY=Palos Verdes, Los Angeles County, California, USA
##OWNER=RRUFF
##SOURCE=California Institute of Technology
##DESCRIPTION=Light brown fragment
##STATUS=The identification of this mineral has been confirmed by X-ray diffraction and chemical analysis
##URL=rruff.info/R050342
##MEASURED CHEMISTRY=Ba_1.00_S_1.00_O_4_
##PIN_ID=L00875
##ORIENTATION=Laser parallel to c* (0 0 1). Fiducial mark perpendicular to laser is parallel to a [1 0 0]
93.48000, 0.0000000E+00
94.71400, 63.84473
95.94800, 121.1704
97.18200, 276.0225
98.41600, 310.9688
99.64900, 318.8350
100.8830, 246.2114
102.1160, 203.5679
103.3490, 154.8652
104.5820, 203.3672
105.8150, 156.5259
107.0470, 185.9238
108.2800, 104.2354
109.5120, 157.2021
110.7440, 167.6147
111.9760, 121.3003
113.2080, 176.1191
114.4400, 309.9570
115.6710, 249.7070
116.9030, 390.2788
118.1340, 297.5903
119.3650, 265.5708
120.5960, 198.1704
121.8270, 116.3467
123.0580, 140.0474
124.2880, 165.2329
125.5190, 116.8682
126.7490, 206.9199
127.9790, 131.3550
129.2090, 153.1519
130.4390, 154.2910
131.6680, 172.7461
132.8980, 242.6147
134.1270, 163.7339
135.3560, 218.0850
136.5850, 159.6929
137.8140, 211.5479
139.0430, 188.5981
140.2710, 274.8276
141.5000, 255.2241
142.7280, 238.7910
143.9560, 172.5088
145.1840, 231.3711
146.4120, 139.4795
147.6390, 278.8652
148.8670, 256.3755
150.0940, 309.9922
151.3210, 342.7109
152.5490, 407.5317
153.7750, 535.4502
155.0020, 497.6084
156.2290, 484.7671
157.4550, 321.0903
158.6810, 287.4932
159.9080, 144.9712
161.1340, 239.5239
162.3590, 133.1489
163.5850, 284.9248
164.8110, 237.7954
166.0360, 160.8462
167.2610, 241.9731
168.4860, 140.0469
169.7110, 217.0981
170.9360, 222.2183
172.1610, 186.1929
173.3850, 243.2593
174.6100, 140.3457
175.8340, 220.4590
177.0580, 135.5991
178.2820, 119.7686
179.5050, 68.66016
180.7290, 172.8608
181.9520, 225.6294
183.1760, 185.8984
184.3990, 106.4014
185.6220, 299.7920
186.8450, 151.2261
188.0670, 166.7017
189.2900, 269.2173
190.5120, 317.1338
191.7340, 342.7246
192.9560, 241.3555
194.1780, 213.0259
195.4000, 199.7358
196.6220, 93.48486
197.8430, 196.9058
199.0640, 111.1934
200.2860, 200.1577
201.5070, 180.9443
202.7270, 209.7544
203.9480, 199.5591
205.1690, 175.5713
206.3890, 133.4116
207.6090, 130.3721
208.8290, 69.36865
210.0490, 70.45117
211.2690, 36.51758
212.4890, 95.61816
213.7080, 166.7515
214.9280, 37.91846
216.1470, 8.882813
217.3660, 78.98828
218.5850, 128.3877
219.8030, 116.4888
221.0220, 150.7734
222.2400, 91.05811
223.4590, 168.3711
224.6770, 115.7119
225.8950, 156.0801
227.1120, 115.4746
228.3300, 11.89600
229.5480, 18.34180
230.7650, 14.82617
231.9820, 84.74561
233.1990, 92.25049
234.4160, 80.80225
235.6330, 89.33594
236.8490, 153.2114
238.0660, 88.75781
239.2820, 83.45361
240.4980, 76.39209
241.7140, 166.8730
242.9300, 139.5933
244.1460, 9.820313
245.3610, 137.3081
246.5770, 87.98633
247.7920, 75.89746
249.0070, 59.94531
250.2220, 62.13916
251.4370, 12.51465
252.6510, 93.96631
253.8660, 105.5259
255.0800, 80.65918
256.2940, 46.42480
257.5080, 110.2759
258.7220, 147.2046
259.9360, 84.21387
261.1490, 37.29150
262.3630, 69.43311
263.5760, 64.32666
264.7890, 134.9258
266.0020, 128.2314
267.2150, 5.594238
268.4270, 19.99463
269.6400, 83.46533
270.8520, 25.97070
272.0640, 29.51807
273.2760, 8.895508
274.4880, 52.73291
275.7000, 16.44775
276.9120, 44.36768
278.1230, 13.10596
279.3340, 91.12451
280.5450, 20.92432
281.7560, 14.75244
282.9670, 118.6089
284.1780, 44.49121
285.3880, 12.60010
286.5980, 5.331543
287.8090, 11.31055
289.0190, 26.31299
290.2290, 11.33789
291.4380, 56.38477
292.6480, 20.45264
293.8570, 80.53955
295.0670, 42.64502
296.2760, 40.77588
297.4850, 37.92773
298.6930, 59.09717
299.9020, 70.28369
301.1110, 37.51416
302.3190, 59.30176
303.5270, 56.08301
304.7350, 60.14258
305.9430, 64.60059
307.1510, 24.66016
308.3580, 23.06494
309.5660, 82.21875
310.7730, 7.515137
311.9800, 109.8228
313.1870, 50.14990
314.3940, 25.50781
315.6010, 98.89893
316.8070, 88.28711
318.0130, 112.2754
319.2200, 68.13330
320.4260, 140.5757
321.6310, 83.02930
322.8370, 68.49365
324.0430, 3.969238
325.2480, 83.44238
326.4540, 71.92627
327.6590, 105.4185
328.8640, 96.92090
330.0680, 96.29199
331.2730, 107.8652
332.4780, 69.48145
333.6820, 122.0215
334.8860, 79.56836
336.0900, 100.1230
337.2940, 50.68652
338.4980, 19.74219
339.7010, 2.166992
340.9050, 38.08301
342.1080, 97.99316
343.3110, 50.42676
344.5140, 45.12598
345.7170, 46.67090
346.9200, 12.21973
348.1220, 65.77441
349.3240, 116.3359
350.5270, 108.9043
351.7290, 195.4805
352.9310, 98.06152
354.1320, 177.6494
355.3340, 40.24316
356.5350, 83.84180
357.7370, 116.4463
358.9380, 63.06250
360.1390, 29.68359
361.3400, 62.92871
362.5400, 63.87207
363.7410, 92.49023
364.9410, 69.10156
366.1410, 47.46387
367.3410, 11.08496
368.5410, 69.29199
369.7410, 75.31934
370.9400, 141.9336
372.1400, 78.07715
373.3390, 102.7002
374.5380, 31.67383
375.7370, 1.944336
376.9360, 36.54395
378.1350, 88.85254
379.3330, 111.7314
380.5310, 164.3086
381.7300, 47.13086
382.9280, 61.42090
384.1260, 23.96191
385.3230, 49.52344
386.5210, 2.125977
387.7180, 127.7109
388.9160, 83.30957
390.1130, 81.92188
391.3100, 54.37988
392.5060, 76.02148
393.7030, 46.67188
394.9000, 80.13574
396.0960, 59.82617
397.2920, 105.6387
398.4880, 13.27637
399.6840, 205.6816
400.8800, 59.32617
402.0750, 93.98340
403.2710, 153.1855
404.4660, 125.8506
405.6610, 104.5273
406.8560, 36.20703
408.0510, 93.30469
409.2450, 115.9893
410.4400, 96.02734
411.6340, 119.7178
412.8280, 165.9404
414.0220, 174.1904
415.2160, 84.88672
416.4100, 229.5850
417.6030, 74.13184
418.7970, 34.16797
419.9900, 29.89746
421.1830, 107.5693
422.3760, 29.24023
423.5690, 67.91797
424.7610, 90.09961
425.9540, 76.25293
427.1460, 125.9199
428.3380, 131.5908
429.5300, 112.0225
430.7220, 59.17969
431.9140, 199.8506
433.1050, 159.5215
434.2970, 230.1904
435.4880, 322.8594
436.6790, 173.5303
437.8700, 365.1982
439.0610, 366.2598
440.2510, 383.6973
441.4420, 475.3574
442.6320, 642.0293
443.8220, 589.6816
445.0120, 758.1641
446.2020, 929.7695
447.3910, 969.7529
448.5810, 1288.311
449.7700, 1658.642
450.9600, 2311.274
452.1490, 2890.159
453.3370, 3481.784
454.5260, 3841.404
455.7150, 3871.904
456.9030, 4162.890
458.0910, 4748.664
459.2800, 6025.037
460.4670, 8190.396
461.6550, 10854.38
462.8430, 12032.30
464.0300, 10809.88
465.2180, 7759.449
466.4050, 5195.014
467.5920, 3160.529
468.7790, 2229.081
469.9650, 1588.625
471.1520, 1226.164
472.3380, 987.6963
473.5250, 721.2217
474.7110, 737.7402
475.8970, 553.2529
477.0820, 400.7588
478.2680, 446.2588
479.4540, 304.7520
480.6390, 495.2354
481.8240, 291.6816
483.0090, 394.7891
484.1940, 351.4043
485.3780, 236.8594
486.5630, 365.8408
487.7470, 335.2793
488.9320, 335.7178
490.1160, 208.1230
491.3000, 220.5469
492.4830, 156.9629
493.6670, 239.3701
494.8500, 170.7686
496.0340, 147.1611
497.2170, 129.5430
498.4000, 145.9346
499.5820, 187.3184
500.7650, 213.9404
501.9480, 189.3115
503.1300, 181.0293
504.3120, 94.08105
505.4940, 90.42773
506.6760, 72.85645
507.8580, 8.813477
509.0390, 162.4854
510.2210, 159.6914
511.4020, 95.03125
512.5830, 137.3105
513.7640, 6.418945
514.9450, 287.8184
516.1250, 83.04883
517.3060, 177.1504
518.4860, 150.6895
519.6660, 263.1240
520.8460, 86.24121
522.0260, 150.0703
523.2060, 210.6035
524.3850, 124.7383
525.5650, 120.0254
526.7440, 167.7119
527.9230, 59.88770
529.1020, 168.2012
530.2810, 93.32129
531.4590, 171.4316
532.6380, 90.87305
533.8160, 211.7402
534.9940, 157.8721
536.1720, 33.20215
537.3500, 8.218750
538.5270, 45.35742
539.7050, 94.39062
540.8820, 31.05957
542.0590, 183.9209
543.2360, 63.38672
544.4130, 5.345703
545.5900, 166.2793
546.7660, 187.8848
547.9430, 67.79883
549.1190, 104.6611
550.2950, 177.7051
551.4710, 10.58887
552.6470, 180.5225
553.8220, 23.74219
554.9980, 33.58203
556.1730, 101.3975
557.3480, 126.3320
558.5230, 21.25586
559.6980, 174.0303
560.8730, 8.794922
562.0470, 128.3389
563.2220, 212.0645
564.3960, 62.52930
565.5700, 174.2314
566.7440, 107.9248
567.9170, 101.8545
569.0910, 217.8066
570.2640, 83.47070
571.4380, 57.03516
572.6110, 77.79297
573.7840, 153.4932
574.9570, 156.5664
576.1290, 101.3457
577.3020, 169.8965
578.4740, 196.6973
579.6460, 10.31445
580.8180, 28.80469
581.9900, 101.2754
583.1620, 69.73438
584.3330, 123.1797
585.5040, 116.6475
586.6760, 83.07129
587.8470, 52.63281
589.0180, 31.77832
590.1880, 73.76367
591.3590, 158.2285
592.5290, 121.5791
593.7000, 180.9219
594.8700, 94.29102
596.0400, 0.6074220
597.2090, 39.10840
598.3790, 51.79492
599.5490, 31.29980
600.7180, 29.51855
601.8870, 48.66016
603.0560, 52.45996
604.2250, 154.0547
605.3940, 125.1133
606.5620, 156.1660
607.7300, 283.1973
608.8990, 327.3184
610.0670, 406.7773
611.2350, 348.5811
612.4020, 586.5605
613.5700, 777.5830
614.7370, 943.7480
615.9050, 1285.051
617.0720, 1660.186
618.2390, 2018.395
619.4060, 1470.285
620.5720, 997.1621
621.7390, 780.0342
622.9050, 661.1328
624.0710, 593.0322
625.2370, 610.9336
626.4030, 535.7676
627.5690, 663.5986
628.7340, 682.9629
629.9000, 1013.945
631.0650, 1022.942
632.2300, 832.7363
633.3950, 706.4941
634.5600, 531.4463
635.7240, 442.1885
636.8890, 369.9160
638.0530, 273.5361
639.2170, 229.3848
640.3810, 15.06836
641.5450, 128.6602
642.7080, 104.9268
643.8720, 219.5938
645.0350, 297.2061
646.1980, 97.34766
647.3610, 206.9482
648.5240, 176.2734
649.6870, 82.82324
650.8490, 176.9531
652.0120, 240.8506
653.1740, 123.3936
654.3360, 216.4102
655.4980, 172.4990
656.6600, 97.04395
657.8210, 128.5488
658.9830, 70.41504
660.1440, 88.17383
661.3050, 37.90039
662.4660, 6.450195
663.6270, 99.90820
664.7870, 92.36426
665.9480, 38.80566
667.1080, 115.2285
668.2680, 135.6357
669.4280, 153.1094
670.5880, 217.7373
671.7480, 6.197266
672.9070, 30.74512
674.0670, 117.0723
675.2260, 71.73438
676.3850, 136.4941
677.5440, 103.9814
678.7030, 158.2734
679.8610, 168.5391
681.0200, 203.1934
682.1780, 1.571289
683.3360, 255.7734
684.4940, 229.6592
685.6520, 5.166016
686.8090, 124.0469
687.9670, 134.1787
689.1240, 90.29395
690.2810, 230.3916
691.4380, 107.2197
692.5950, 52.28516
693.7520, 122.6836
694.9080, 206.3701
696.0650, 93.38574
697.2210, 93.68848
698.3770, 172.9297
699.5330, 112.1650
700.6880, 118.7354
701.8440, 206.6846
702.9990, 230.0342
704.1550, 244.9424
705.3100, 150.5859
706.4650, 66.47266
707.6190, 1.222656
708.7740, 124.8369
709.9290, 15.90430
711.0830, 64.69824
712.2370, 92.48340
713.3910, 33.35059
714.5450, 68.09961
715.6980, 3.492188
716.8520, 58.51367
718.0050, 99.16797
719.1580, 160.7637
720.3110, 160.8701
721.4640, 208.6709
722.6170, 182.9463
723.7700, 114.3525
724.9220, 127.9473
726.0740, 89.83008
727.2260, 81.12598
728.3780, 78.08789
729.5300, 95.90430
730.6810, 170.4170
731.8330, 159.5645
732.9840, 111.1270
734.1350, 229.6650
735.2860, 163.2324
736.4370, 142.2930
737.5880, 135.6846
738.7380, 104.4453
739.8880, 60.31543
741.0390, 109.2930
742.1890, 83.31641
743.3380, 247.8320
744.4880, 106.1631
745.6380, 148.5098
746.7870, 84.91016
747.9360, 46.34277
749.0850, 156.6279
750.2340, 126.8857
751.3830, 95.12695
752.5310, 57.52441
753.6800, 28.74414
754.8280, 58.22852
755.9760, 37.11523
757.1240, 123.2754
758.2720, 123.4531
759.4190, 125.9287
760.5670, 55.32812
761.7140, 99.81543
762.8610, 98.43652
764.0080, 134.9131
765.1550, 202.0518
766.3020, 18.90430
767.4480, 68.31934
768.5950, 61.76953
769.7410, 106.7529
770.8870, 138.8770
772.0330, 61.83301
773.1780, 213.3145
774.3240, 176.2383
775.4690, 55.85156
776.6140, 78.00977
777.7590, 146.3193
778.9040, 7.594727
780.0490, 4.212891
781.1940, 104.0449
782.3380, 169.0635
783.4820, 9.888672
784.6260, 108.6523
785.7700, 12.64648
786.9140, 157.3643
788.0580, 17.52539
789.2010, 37.15039
790.3450, 177.9824
791.4880, 192.8350
792.6310, 13.47559
793.7730, 112.4062
794.9160, 181.1113
796.0590, 33.91406
797.2010, 64.39746
798.3430, 72.81543
799.4850, 109.7119
800.6270, 228.2148
801.7690, 202.5293
802.9100, 202.4238
804.0520, 211.1846
805.1930, 118.6387
806.3340, 105.2910
807.4750, 69.74609
808.6160, 106.2002
809.7560, 77.29688
810.8970, 186.2266
812.0370, 40.61523
813.1770, 129.7559
814.3170, 18.20312
815.4570, 78.47461
816.5960, 208.9668
817.7360, 84.37793
818.8750, 147.7402
820.0140, 90.85156
821.1530, 67.34375
822.2920, 261.6680
823.4310, 106.5430
824.5690, 177.8359
825.7070, 137.1143
826.8460, 163.2334
827.9840, 99.55566
829.1220, 137.7236
830.2590, 73.58105
831.3970, 71.51855
832.5340, 241.9902
833.6710, 49.04688
834.8080, 67.14746
835.9450, 57.30762
837.0820, 231.3965
838.2190, 196.5088
839.3550, 26.63086
840.4910, 144.7334
841.6270, 1.177734
842.7630, 131.8906
843.8990, 23.69727
845.0350, 68.45117
846.1700, 62.50195
847.3060, 17.69824
848.4410, 120.5059
849.5760, 96.41504
850.7100, 207.9248
851.8450, 0.7001950
852.9800, 53.67383
854.1140, 118.3730
855.2480, 43.22656
856.3820, 66.17188
857.5160, 81.10742
858.6500, 116.0264
859.7830, 19.93359
860.9170, 223.7881
862.0500, 46.66309
863.1830, 190.3857
864.3160, 39.05762
865.4480, 44.73242
866.5810, 174.4648
867.7130, 0.2841800
868.8460, 100.0850
869.9780, 101.8320
871.1100, 156.6045
872.2410, 192.3721
873.3730, 85.14648
874.5050, 88.92773
875.6360, 60.67090
876.7670, 126.2441
877.8980, 144.0039
879.0290, 78.65137
880.1590, 176.3848
881.2900, 112.0996
882.4200, 9.192383
883.5500, 84.39453
884.6800, 115.8887
885.8100, 172.6211
886.9400, 200.2666
888.0690, 78.84082
889.1990, 117.2441
890.3280, 137.4834
891.4570, 178.8848
892.5860, 193.1631
893.7140, 111.7305
894.8430, 28.71484
895.9710, 51.80566
897.1000, 27.07812
898.2280, 7.520508
899.3560, 22.94043
900.4830, 99.43652
901.6110, 119.8818
902.7380, 67.93066
903.8660, 16.16797
904.9930, 136.7041
906.1200, 81.38281
907.2460, 125.9326
908.3730, 47.88379
909.5000, 224.4385
910.6260, 128.7490
911.7520, 199.1396
912.8780, 11.27344
914.0040, 6.543945
915.1290, 148.8711
916.2550, 91.49609
917.3800, 55.72461
918.5050, 97.95020
919.6300, 86.61719
920.7550, 49.80762
921.8800, 113.8584
923.0040, 81.33496
924.1290, 148.3711
925.2530, 71.46484
926.3770, 44.36133
927.5010, 172.6934
928.6250, 38.17480
929.7480, 66.21777
930.8720, 61.24512
931.9950, 91.11328
933.1180, 114.5820
934.2410, 285.5254
935.3640, 31.39355
936.4860, 87.02637
937.6090, 6.456055
938.7310, 0.6425780
939.8530, 175.2441
940.9750, 77.54688
942.0970, 37.46680
943.2180, 355.1240
944.3400, 208.9131
945.4610, 51.52246
946.5820, 111.3232
947.7030, 213.0283
948.8240, 100.0264
949.9450, 196.3984
951.0650, 81.96387
952.1860, 97.70898
953.3060, 128.2988
954.4260, 60.02148
955.5460, 83.83496
956.6650, 167.4004
957.7850, 62.10547
958.9040, 277.7402
960.0230, 198.4473
961.1420, 248.1445
962.2610, 103.8301
963.3800, 234.4111
964.4990, 176.0752
965.6170, 390.8447
966.7350, 269.2803
967.8530, 272.9209
968.9710, 105.2480
970.0890, 299.6895
971.2070, 378.0361
972.3240, 315.6416
973.4410, 465.2354
974.5580, 515.4014
975.6750, 586.9746
976.7920, 697.0625
977.9090, 714.6143
979.0250, 1010.822
980.1410, 1174.697
981.2580, 1672.980
982.3740, 2567.023
983.4890, 4022.531
984.6050, 5988.932
985.7200, 10188.42
986.8360, 19532.24
987.9510, 35096.43
989.0660, 44435.89
990.1810, 34210.24
991.2950, 18148.46
992.4100, 8748.739
993.5240, 4581.436
994.6390, 2822.401
995.7530, 1671.804
996.8660, 1274.071
997.9800, 1008.452
999.0940, 1000.488
1000.207, 561.5391
1001.320, 629.8916
1002.433, 435.5840
1003.546, 481.8359
1004.659, 385.0869
1005.772, 514.3984
1006.884, 398.7041
1007.996, 415.8564
1009.108, 303.0283
1010.220, 175.0703
1011.332, 163.3496
1012.444, 137.7461
1013.555, 244.7061
1014.666, 183.9697
1015.777, 326.1953
1016.888, 349.3418
1017.999, 100.4326
1019.110, 102.6445
1020.220, 241.8604
1021.331, 188.0674
1022.441, 237.0947
1023.551, 178.2744
1024.661, 114.4541
1025.770, 146.6250
1026.880, 156.7871
1027.989, 175.9092
1029.098, 194.7100
1030.207, 225.5615
1031.316, 195.2832
1032.425, 290.8848
1033.533, 107.7822
1034.642, 161.7988
1035.750, 76.88770
1036.858, 144.7637
1037.966, 34.38965
1039.073, 42.45801
1040.181, 74.53320
1041.288, 109.5869
1042.396, 131.1143
1043.503, 188.2207
1044.610, 206.6475
1045.716, 211.9824
1046.823, 233.7783
1047.929, 189.2949
1049.036, 144.7920
1050.142, 104.7080
1051.248, 121.4639
1052.353, 166.3896
1053.459, 109.5098
1054.564, 242.2207
1055.670, 211.1934
1056.775, 68.60449
1057.880, 28.56836
1058.985, 87.34961
1060.089, 177.0869
1061.194, 124.0723
1062.298, 95.50195
1063.402, 173.6123
1064.506, 154.3174
1065.610, 158.0869
1066.713, 46.00781
1067.817, 196.9053
1068.920, 50.54004
1070.023, 31.54102
1071.126, 156.8770
1072.229, 246.3340
1073.332, 30.57715
1074.435, 50.11719
1075.537, 140.9033
1076.639, 81.66797
1077.741, 155.4248
1078.843, 191.9014
1079.945, 30.62207
1081.046, 42.35938
1082.148, 63.16211
1083.249, 183.8857
1084.350, 198.5439
1085.451, 104.8232
1086.551, 139.8242
1087.652, 43.13965
1088.752, 75.61230
1089.853, 138.3438
1090.953, 129.7324
1092.053, 154.4551
1093.152, 203.4570
1094.252, 149.0566
1095.351, 156.5801
1096.451, 147.5039
1097.550, 21.88281
1098.649, 195.7500
1099.748, 252.5137
1100.846, 257.3770
1101.945, 88.24414
1103.043, 234.7930
1104.141, 153.3359
1105.239, 236.8750
1106.337, 264.4062
1107.434, 167.9336
1108.532, 33.45312
1109.629, 113.9668
1110.726, 72.47656
1111.823, 126.0195
1112.920, 208.4062
1114.017, 98.82812
1115.113, 235.2441
1116.210, 159.6562
1117.306, 197.0605
1118.402, 234.4590
1119.498, 144.8535
1120.593, 196.1836
1121.689, 46.77148
1122.784, 184.1543
1123.879, 91.53125
1124.974, 24.90430
1126.069, 263.2695
1127.164, 481.6309
1128.259, 49.98633
1129.353, 112.3457
1130.447, 314.6992
1131.541, 391.0488
1132.635, 176.3945
1133.729, 327.7344
1134.822, 563.0723
1135.916, 525.6230
1137.009, 729.9492
1138.102, 737.9004
1139.195, 998.2188
1140.288, 1155.406
1141.380, 1271.711
1142.473, 1502.012
1143.565, 1708.309
1144.657, 1728.682
1145.749, 1742.002
1146.841, 1473.283
1147.932, 1113.570
1149.024, 1002.877
1150.115, 765.0977
1151.206, 678.3203
1152.297, 696.6113
1153.388, 536.8984
1154.479, 520.1816
1155.569, 344.4590
1156.659, 250.7090
1157.750, 320.9766
1158.839, 225.2559
1159.929, 231.5293
1161.019, 247.8066
1162.108, 238.0801
1163.198, 150.3516
1164.287, 45.61914
1165.376, 92.59375
1166.465, 164.1016
1167.553, 145.1875
1168.642, 236.4414
1169.730, 244.3477
1170.818, 49.28711
1171.906, 177.9355
1172.994, 86.14648
1174.082, 174.3906
1175.170, 149.6309
1176.257, 187.8652
1177.344, 298.0957
1178.431, 128.3203
1179.518, 4.546875
1180.605, 136.7598
1181.691, 154.9395
1182.778, 144.1406
1183.864, 31.34375
1184.950, 179.5293
1186.036, 249.7188
1187.122, 102.9023
1188.207, 232.9707
1189.292, 95.84375
1190.378, 164.9590
1191.463, 78.16211
1192.548, 18.64062
1193.632, 7.498047
1194.717, 221.6680
1195.801, 90.83203
1196.886, 85.01953
1197.970, 225.9785
1199.054, 114.1543
1200.137, 22.61914
1201.221, 57.26953
1202.305, 14.78516
1203.388, 15.59375
1204.471, 61.29883
1205.554, 100.2520
1206.637, 156.4160
1207.719, 130.5293
1208.802, 137.6992
1209.884, 101.8633
1210.966, 206.7539
1212.048, 46.69336
1213.130, 223.7148
1214.212, 60.86133
1215.293, 137.1758
1216.374, 97.29297
1217.456, 43.56836
1218.536, 148.3203
1219.617, 49.34180
1220.698, 69.44336
1221.778, 65.19531
1222.859, 22.88086
1223.939, 195.9512
1225.019, 131.0156
1226.099, 92.07812
1227.178, 41.13672
1228.258, 3.806641
1229.337, 15.70117
1230.417, 3.140625
1231.496, 18.82617
1232.574, 119.1582
1233.653, 186.1855
1234.732, 207.2070
1235.810, 227.0840
1236.888, 288.2383
1237.966, 195.2520
1239.044, 137.9902
1240.122, 165.9961
1241.199, 150.0430
1242.277, 73.63867
1243.354, 85.63086
1244.431, 126.6211
1245.508, 251.6074
1246.585, 294.5898
1247.661, 217.5703
1248.738, 198.5469
1249.814, 343.7012
1250.890, 31.67188
1251.966, 331.3555
1253.042, 194.3203
1254.117, 188.2715
1255.193, 215.9395
1256.268, 219.1191
1257.343, 142.0703
1258.418, 190.3965
1259.493, 125.2969
1260.567, 206.2539
1261.642, 144.2109
1262.716, 120.1621
1263.790, 284.1113
1264.864, 15.05664
1265.938, 91.00000
1267.011, 6.812500
1268.085, 294.1289
1269.158, 45.94336
1270.231, 177.9531
1271.304, 96.84961
1272.377, 191.7402
1273.450, 48.62891
1274.522, 64.48828
1275.594, 155.3555
1276.666, 106.4336
1277.738, 161.8691
1278.810, 130.7480
1279.882, 287.8125
1280.953, 325.6406
1282.025, 233.5195
1283.096, 177.6270
1284.167, 160.4434
1285.238, 112.4512
1286.308, 195.2598
1287.379, 85.09961
1288.449, 150.9004
1289.519, 214.6992
1290.589, 162.4961
1291.659, 340.2891
1292.729, 130.0742
1293.798, 183.6641
1294.868, 269.4414
1295.937, 185.2422
1297.006, 114.2988
1298.075, 94.06445
1299.143, 284.1523
1300.212, 20.25977
1301.280, 253.6445
1302.348, 336.3906
1303.416, 161.1738
1304.484, 108.9043
1305.552, 182.7383
1306.620, 239.4590
1307.687, 323.4609
1308.754, 110.6914
1309.821, 283.3984
1310.888, 150.0977
1311.955, 281.7969
1313.021, 198.2910
1314.088, 130.9824
1315.154, 123.7520
1316.220, 73.53516
1317.286, 111.0273
1318.352, 184.0391
1319.417, 217.7188
1320.483, 200.3477
1321.548, 273.2070
1322.613, 261.2363
1323.678, 293.1602
1324.743, 225.8242
1325.807, 263.4688
1326.872, 146.1309
1327.936, 245.7871
1329.000, 350.1973
1330.064, 107.7695
1331.128, 206.2207
1332.191, 249.9336
1333.255, 279.0703
1334.318, 166.9180
1335.381, 317.7324
1336.444, 191.5957
1337.507, 186.4668
1338.569, 146.2383
1339.632, 164.9141
1340.694, 140.4473
1341.756, 180.1250
1342.818, 41.73828
1343.880, 220.8398
1344.941, 132.5371
1346.003, 248.3008
1347.064, 197.9980
1348.125, 138.6113
1349.186, 18.28516
1350.247, 317.6250
1351.308, 212.0957
1352.368, 381.7793
1353.428, 159.4609
1354.489, 146.1230
1355.549, 224.8574
1356.608, 42.49023
1357.668, 231.9531
1358.727, 91.31055
1359.787, 132.1152
1360.846, 166.9707
1361.905, 126.1562
1362.964, 131.7480
1364.022, 127.8613
1365.081, 118.4609
1366.139, 91.05469
1367.197, 174.6484
1368.255, 49.21289
1369.313, 48.77734
1370.371, 137.3750
1371.428, 153.9707
1372.486, 109.5645
1373.543, 249.1445
1374.600, 89.72266
1375.657, 258.2988
1376.713, 43.87305
1377.770, 304.4453
1378.826, 9.128906
1379.882, 101.4336
1380.938, 100.0801
1381.994, 94.64062
1383.050, 34.34375
1384.106, 155.8965
1385.161, 31.54688
1386.216, 34.99609
1387.271, 141.4883
1388.326, 213.0273
1389.381, 175.5664
1390.435, 320.1035
1391.490, 233.8945
1392.544, 281.1660
1393.598, 34.65234
1394.652, 90.50977
1395.705, 115.9902
1396.759, 283.5879
1397.812, 118.1133
1398.866, 115.5820
1399.919, 129.0078
1400.972, 183.3477
1402.024, 192.7266
1403.077, 47.87695
1404.129, 69.52930
1405.181, 79.88867
1406.233, 34.20508
1407.285, 327.5156
1408.337, 77.82227
1409.389, 22.21484
1410.440, 179.5156
1411.491, 44.81445
1412.542, 117.1094
1413.593, 60.59766
1414.644, 167.6738
1415.695, 92.64648
1416.745, 221.9082
1417.795, 144.0938
1418.845, 235.2734
1419.895, 215.4434
1420.945, 142.6055
1421.995, 87.76172
1423.044, 16.88477
1424.093, 231.2539
1425.142, 16.38867
1426.191, 267.5996
1427.240, 54.14062
1428.289, 86.25977
1429.337, 81.37500
1430.385, 327.4863
1431.433, 67.59570
1432.481, 243.6738
1433.529, 25.75391
1434.577, 137.8359
1435.624, 137.9141
1436.672, 208.9961
1437.719, 251.0762
1438.766, 84.16211
1439.812, 115.2559
1440.859, 76.49414
1441.905, 72.62109
1442.952, 62.75195
1443.998, 96.93945
1445.044, 145.7754
1446.090, 141.0312
1447.135, 140.3438
1448.181, 207.4121
1449.226, 109.1230
1450.271, 125.8359
1451.316, 129.5469
1452.361, 225.2637
1453.405, 185.7305
1454.450, 233.6719
1455.494, 138.3496
1456.538, 90.02539
1457.582, 27.70508
1458.626, 0.2988280
1459.670, 13.12305
1460.713, 28.41992
1461.757, 62.98242
1462.800, 60.68359
1463.843, 85.38477
1464.886, 288.8828
1465.928, 119.5879
1466.971, 172.2812
1468.013, 103.9746
1469.055, 11.66992
1470.097, 270.3652
1471.139, 151.6895
1472.181, 253.3828
1473.222, 107.0801
1474.263, 276.7793
1475.305, 54.75195
1476.346, 351.7520
1477.386, 294.4414
1478.427, 190.8301
1479.468, 390.1270
1480.508, 63.73438
1481.548, 12.65820
1482.588, 114.9473
1483.628, 160.1895
1484.668, 32.17383
1485.707, 68.48438
1486.747, 206.1426
1487.786, 437.0547
1488.825, 315.7441
1489.864, 277.9688
1490.902, 332.0254
1491.941, 427.3027
1492.979, 202.5020
1494.017, 360.0020
1495.055, 277.5059
1496.093, 174.0156
1497.131, 319.4941
1498.168, 273.8379
1499.206, 310.7832
1500.243, 273.9766
1501.280, 258.4199
1502.317, 382.7637
1503.354, 244.7930
1504.390, 346.3496
1505.426, 91.82812
1506.463, 187.2500
1507.499, 79.36328
1508.535, 379.9336
1509.570, 132.5117
1510.606, 251.1016
1511.641, 58.31641
1512.676, 174.2578
1513.711, 363.8281
1514.746, 169.5684
1515.781, 52.32812
1516.816, 232.5371
1517.850, 274.2383
1518.884, 278.5664
1519.918, 166.8242
1520.952, 236.0566
1521.986, 106.3105
1523.019, 216.4883
1524.053, 180.0625
1525.086, 258.3594
1526.119, 174.8262
1527.152, 175.2734
1528.185, 116.6152
1529.217, 82.96094
1530.250, 212.7676
1531.282, 140.6367
1532.314, 378.5645
1533.346, 88.54492
1534.377, 385.4922
1535.409, 308.4766
1536.440, 189.4414
1537.472, 347.3789
1538.503, 413.9551
1539.534, 6.757813
1540.564, 336.0234
1541.595, 136.1855
1542.625, 140.2266
1543.656, 203.0176
1544.686, 191.1895
1545.716, 178.2656
1546.745, 54.01758
1547.775, 162.1367
1548.804, 306.4141
1549.834, 84.99609
1550.863, 325.1719
1551.892, 254.8906
1552.920, 336.9824
1553.949, 363.2695
1554.977, 243.0781
1556.006, 316.7246
1557.034, 193.0059
1558.062, 113.5430
1559.089, 325.1855
1560.117, 300.0156
1561.144, 217.0371
1562.172, 224.2695
1563.199, 148.8652
1564.226, 107.8320
1565.252, 335.5879
1566.279, 179.7402
1567.305, 359.7324
1568.332, 1.988281
1569.358, 313.5586
1570.384, 0.0000000E+00
##END=



