##NAMES=Baryte
##RRUFFID=R050375
##IDEAL CHEMISTRY=BaS^6+^O_4_
##LOCALITY=unknown
##OWNER=RRUFF
##SOURCE=Eugene Schlepp
##DESCRIPTION=Pale green tabular crystals
##STATUS=The identification of this mineral has been confirmed by X-ray diffraction and chemical analysis
##URL=rruff.info/R050375
##MEASURED CHEMISTRY=Ba_1.00_SO_4_
##PIN_ID=L01233
##ORIENTATION=Laser parallel to b* (0 1 0). Fiducial mark perpendicular to laser is parallel to -c [0 0 -1]
51.43100, 0.0000000E+00
52.67100, 12.94730
53.91000, 15.22305
55.14900, 39.37305
56.38700, 30.49451
57.62600, 35.90817
58.86400, 2.425323
60.10300, 6.600708
61.34100, 0.2904360
62.57900, 17.33060
63.81700, 2.599976
65.05400, 9.828278
66.29200, 27.89008
67.52900, 104.5300
68.76700, 140.7004
70.00400, 237.3596
71.24100, 395.4703
72.47700, 556.9971
73.71400, 862.9066
74.95100, 1120.169
76.18700, 1078.760
77.42300, 774.6556
78.65900, 577.8384
79.89500, 505.2915
81.13100, 501.0003
82.36700, 568.9515
83.60200, 558.1334
84.83700, 624.5353
86.07200, 660.1470
87.30800, 738.9600
88.54200, 853.9655
89.77700, 905.1509
91.01200, 1002.500
92.24600, 1059.001
93.48000, 1031.642
94.71400, 1145.418
95.94800, 1182.321
97.18200, 1359.345
98.41600, 1414.488
99.64900, 1383.746
100.8830, 1292.116
102.1160, 1163.596
103.3490, 1006.184
104.5820, 955.8780
105.8150, 891.6762
107.0470, 856.5775
108.2800, 834.5796
109.5120, 811.6800
110.7440, 784.8763
111.9760, 766.1252
113.2080, 702.5474
114.4400, 710.0181
115.6710, 693.5765
116.9030, 631.2208
118.1340, 668.9492
119.3650, 642.7605
120.5960, 587.6530
121.8270, 614.6252
123.0580, 608.6758
124.2880, 571.8039
125.5190, 642.9930
126.7490, 618.1956
127.9790, 604.4081
129.2090, 612.6268
130.4390, 594.8547
131.6680, 589.0895
132.8980, 551.3499
134.1270, 538.6392
135.3560, 555.9597
136.5850, 557.3135
137.8140, 571.7053
139.0430, 542.1392
140.2710, 563.6160
141.5000, 532.1373
142.7280, 579.6982
143.9560, 557.2998
145.1840, 589.9424
146.4120, 566.6553
147.6390, 584.4214
148.8670, 569.2333
150.0940, 549.1104
151.3210, 627.0464
152.5490, 595.0303
153.7750, 609.0560
155.0020, 578.1331
156.2290, 602.2677
157.4550, 603.4519
158.6810, 548.6887
159.9080, 520.9875
161.1340, 496.3579
162.3590, 518.7727
163.5850, 509.2268
164.8110, 487.7203
166.0360, 455.2529
167.2610, 493.8247
168.4860, 441.4355
169.7110, 494.0852
170.9360, 406.7739
172.1610, 439.5012
173.3850, 489.2675
174.6100, 437.0723
175.8340, 419.9155
177.0580, 487.7971
178.2820, 487.7173
179.5050, 489.6753
180.7290, 477.6713
181.9520, 453.7048
183.1760, 505.7762
184.3990, 477.8849
185.6220, 533.0308
186.8450, 539.2136
188.0670, 581.4331
189.2900, 627.6890
190.5120, 598.9812
191.7340, 584.3093
192.9560, 580.6731
194.1780, 512.0724
195.4000, 527.5134
196.6220, 481.9827
197.8430, 406.4865
199.0640, 381.4742
200.2860, 363.4028
201.5070, 375.2695
202.7270, 390.0780
203.9480, 405.9235
205.1690, 355.7546
206.3890, 322.1281
207.6090, 310.0725
208.8290, 274.1057
210.0490, 310.4561
211.2690, 293.7177
212.4890, 299.0295
213.7080, 312.4269
214.9280, 303.8680
216.1470, 247.3755
217.3660, 270.9344
218.5850, 257.5494
219.8030, 261.2178
221.0220, 268.9386
222.2400, 258.8667
223.4590, 249.6866
224.6770, 239.7417
225.8950, 236.5186
227.1120, 265.8063
228.3300, 234.2858
229.5480, 228.4203
230.7650, 232.5093
231.9820, 205.6392
233.1990, 236.8088
234.4160, 166.0175
235.6330, 230.2642
236.8490, 242.5482
238.0660, 224.8689
239.2820, 195.4030
240.4980, 240.5767
241.7140, 182.0096
242.9300, 229.4829
244.1460, 245.9899
245.3610, 150.1108
246.5770, 182.2848
247.7920, 201.5559
249.0070, 191.1943
250.2220, 247.8269
251.4370, 197.5280
252.6510, 210.2773
253.8660, 182.0404
255.0800, 155.8408
256.2940, 141.4011
257.5080, 170.2585
258.7220, 209.2925
259.9360, 219.4536
261.1490, 211.3976
262.3630, 208.9797
263.5760, 194.1387
264.7890, 178.8307
266.0020, 147.6370
267.2150, 158.7607
268.4270, 125.4321
269.6400, 176.7112
270.8520, 164.1649
272.0640, 187.3560
273.2760, 174.5715
274.4880, 170.8119
275.7000, 167.0830
276.9120, 160.3813
278.1230, 138.7043
279.3340, 141.0839
280.5450, 130.4246
281.7560, 124.8215
282.9670, 128.2432
284.1780, 98.68896
285.3880, 148.1588
286.5980, 127.6527
287.8090, 71.17151
289.0190, 83.71680
290.2290, 114.2858
291.4380, 93.88196
292.6480, 93.50134
293.8570, 96.14539
295.0670, 98.81360
296.2760, 118.5044
297.4850, 103.2236
298.6930, 93.96509
299.9020, 70.72876
301.1110, 54.51440
302.3190, 92.32251
303.5270, 107.1523
304.7350, 98.00378
305.9430, 73.87646
307.1510, 102.7700
308.3580, 71.68982
309.5660, 89.63550
310.7730, 79.60144
311.9800, 77.58948
313.1870, 51.59766
314.3940, 100.6259
315.6010, 33.67383
316.8070, 51.74182
318.0130, 104.8296
319.2200, 85.93652
320.4260, 81.06299
321.6310, 60.20850
322.8370, 75.37305
324.0430, 58.55652
325.2480, 46.75879
326.4540, 63.97961
327.6590, 37.21899
328.8640, 54.32080
330.0680, 25.75269
331.2730, 80.04675
332.4780, 58.35889
333.6820, 78.68872
334.8860, 73.03625
336.0900, 0.4012450
337.2940, 59.78369
338.4980, 20.18347
339.7010, 127.6006
340.9050, 77.03442
342.1080, 17.48535
343.3110, 78.95300
344.5140, 42.44507
345.7170, 82.96130
346.9200, 40.50256
348.1220, 43.06885
349.3240, 17.65991
350.5270, 34.27600
351.7290, 44.91907
352.9310, 76.55396
354.1320, 27.24573
355.3340, 4.035400
356.5350, 35.70630
357.7370, 1.249756
358.9380, 27.53687
360.1390, 0.3457030
361.3400, 34.17651
362.5400, 24.70300
363.7410, 14.90295
364.9410, 26.79834
366.1410, 9.285400
367.3410, 7.650146
368.5410, 10.39355
369.7410, 10.41895
370.9400, 28.59119
372.1400, 20.39575
373.3390, 5.361450
374.5380, 73.06494
375.7370, 46.13135
376.9360, 64.73315
378.1350, 2.323853
379.3330, 48.44775
380.5310, 20.59058
381.7300, 4.752197
382.9280, 38.06787
384.1260, 52.36133
385.3230, 17.72583
386.5210, 26.30518
387.7180, 61.53687
388.9160, 20.21387
390.1130, 20.54810
391.3100, 47.27490
392.5060, 17.00073
393.7030, 29.62939
394.9000, 6.671875
396.0960, 0.3613280
397.2920, 63.69775
398.4880, 1.638672
399.6840, 21.99170
400.8800, 44.38989
402.0750, 32.08105
403.2710, 7.670898
404.4660, 14.20874
405.6610, 29.35205
406.8560, 10.86133
408.0510, 4.599121
409.2450, 20.92188
410.4400, 50.44238
411.6340, 38.90674
412.8280, 2.413574
414.0220, 6.810791
415.2160, 10.70752
416.4100, 18.39551
417.6030, 37.78784
418.7970, 25.78296
419.9900, 19.85034
421.1830, 18.81787
422.3760, 29.06348
423.5690, 55.74170
424.7610, 81.38403
425.9540, 141.0403
427.1460, 115.7100
428.3380, 141.3953
429.5300, 180.0938
430.7220, 177.0159
431.9140, 186.3020
433.1050, 240.0427
434.2970, 311.3540
435.4880, 409.6436
436.6790, 551.5728
437.8700, 708.5923
439.0610, 923.3970
440.2510, 1184.648
441.4420, 1645.480
442.6320, 1972.334
443.8220, 2666.200
445.0120, 3237.290
446.2020, 3987.181
447.3910, 4843.161
448.5810, 5900.076
449.7700, 7517.043
450.9600, 9369.239
452.1490, 11259.36
453.3370, 11936.33
454.5260, 11566.72
455.7150, 9798.706
456.9030, 7494.701
458.0910, 5301.712
459.2800, 3793.790
460.4670, 2630.823
461.6550, 1876.867
462.8430, 1428.921
464.0300, 1041.986
465.2180, 768.0613
466.4050, 644.1470
467.5920, 517.2432
468.7790, 379.3499
469.9650, 331.4661
471.1520, 333.5923
472.3380, 286.7283
473.5250, 265.8740
474.7110, 215.0291
475.8970, 177.1936
477.0820, 201.3674
478.2680, 144.5505
479.4540, 99.73633
480.6390, 119.9377
481.8240, 79.14844
483.0090, 98.36816
484.1940, 86.59668
485.3780, 64.83472
486.5630, 31.08252
487.7470, 72.33862
488.9320, 72.60327
490.1160, 115.8762
491.3000, 40.15747
492.4830, 62.44702
493.6670, 25.74438
494.8500, 7.950439
496.0340, 24.35400
497.2170, 59.66772
498.4000, 25.93970
499.5820, 8.269531
500.7650, 69.58496
501.9480, 32.92725
503.1300, 56.27075
504.3120, 95.62744
505.4940, 82.99097
506.6760, 79.36206
507.8580, 58.73975
509.0390, 26.96704
510.2210, 72.35767
511.4020, 73.56738
512.5830, 21.77881
513.7640, 67.18848
514.9450, 23.12769
516.1250, 7.460449
517.3060, 104.8845
518.4860, 70.31470
519.6660, 24.75073
520.8460, 88.19360
522.0260, 82.64185
523.2060, 46.09766
524.3850, 60.55981
525.5650, 4.849609
526.7440, 3.939209
527.9230, 12.80103
529.1020, 27.65723
530.2810, 106.1206
531.4590, 7.008545
532.6380, 63.88110
533.8160, 65.69385
534.9940, 17.19067
536.1720, 53.71362
537.3500, 6.331299
538.5270, 62.10547
539.7050, 17.39795
540.8820, 61.16016
542.0590, 61.48730
543.2360, 15.51514
544.4130, 59.86670
545.5900, 4.123291
546.7660, 49.62598
547.9430, 18.60156
549.1190, 24.99023
550.2950, 32.16772
551.4710, 6.305908
552.6470, 26.83496
553.8220, 69.10889
554.9980, 13.47388
556.1730, 39.69214
557.3480, 72.20093
558.5230, 24.71509
559.6980, 15.64746
560.8730, 1.861084
562.0470, 29.38257
563.2220, 87.89258
564.3960, 18.40576
565.5700, 53.13721
566.7440, 42.65552
567.9170, 46.21118
569.0910, 39.13599
570.2640, 57.66968
571.4380, 11.39722
572.6110, 1.928467
573.7840, 41.86963
574.9570, 3.599609
576.1290, 29.92554
577.3020, 7.475830
578.4740, 12.00732
579.6460, 39.53882
580.8180, 13.45435
581.9900, 49.06836
583.1620, 105.1494
584.3330, 46.68237
585.5040, 15.38403
586.6760, 74.99316
587.8470, 22.61182
589.0180, 52.28931
590.1880, 25.81934
591.3590, 8.607666
592.5290, 7.086670
593.7000, 81.57227
594.8700, 9.084473
596.0400, 93.14429
597.2090, 70.65479
598.3790, 80.19336
599.5490, 26.70532
600.7180, 75.28271
601.8870, 74.79492
603.0560, 58.30835
604.2250, 162.8284
605.3940, 89.55200
606.5620, 105.0979
607.7300, 273.7339
608.8990, 314.3252
610.0670, 394.8484
611.2350, 473.4343
612.4020, 529.9575
613.5700, 743.4902
614.7370, 996.0225
615.9050, 1459.555
617.0720, 1704.087
618.2390, 1567.623
619.4060, 1418.159
620.5720, 1040.694
621.7390, 751.2639
622.9050, 580.7991
624.0710, 453.3335
625.2370, 398.0420
626.4030, 387.7324
627.5690, 374.2651
628.7340, 406.7974
629.9000, 431.3291
631.0650, 453.8596
632.2300, 364.4087
633.3950, 356.9377
634.5600, 363.4661
635.7240, 359.0261
636.8890, 247.9688
638.0530, 341.5215
639.2170, 237.2651
640.3810, 277.5093
641.5450, 290.2036
642.7080, 322.8420
643.8720, 281.3628
645.0350, 344.8967
646.1980, 361.5928
647.3610, 445.1099
648.5240, 457.6255
649.6870, 358.1406
650.8490, 324.6997
652.0120, 338.2268
653.1740, 226.7805
654.3360, 163.3054
655.4980, 56.82520
656.6600, 78.97021
657.8210, 73.58447
658.9830, 73.10645
660.1440, 107.8682
661.3050, 77.38696
662.4660, 103.3713
663.6270, 97.08765
664.7870, 53.60132
665.9480, 10.60083
667.1080, 5.248535
668.2680, 51.39478
669.4280, 60.90820
670.5880, 49.55884
671.7480, 131.1003
672.9070, 77.61377
674.0670, 39.13306
675.2260, 109.5732
676.3850, 28.09277
677.5440, 18.35571
678.7030, 55.86792
679.8610, 30.91064
681.0200, 6.418457
682.1780, 12.07715
683.3360, 51.28735
684.4940, 62.77979
685.6520, 78.81494
686.8090, 7.305176
687.9670, 19.82129
689.1240, 3.307129
690.2810, 16.21533
691.4380, 71.29028
692.5950, 102.7178
693.7520, 50.19385
694.9080, 79.57251
696.0650, 55.04712
697.2210, 49.78394
698.3770, 6.590820
699.5330, 68.43994
700.6880, 5.589844
701.8440, 54.85620
702.9990, 84.30054
704.1550, 18.70728
705.3100, 86.14551
706.4650, 32.58154
707.6190, 9.401611
708.7740, 37.82959
709.9290, 20.25586
711.0830, 54.46899
712.2370, 8.329102
713.3910, 61.74341
714.5450, 52.28662
715.6980, 33.81299
716.8520, 116.0015
718.0050, 40.17993
719.1580, 5.584229
720.3110, 98.54907
721.4640, 33.05518
722.6170, 35.31689
723.7700, 19.68701
724.9220, 26.84204
726.0740, 26.20532
727.2260, 21.49023
728.3780, 47.84692
729.5300, 31.16187
730.6810, 59.25854
731.8330, 19.43237
732.9840, 72.77979
734.1350, 0.2941890
735.2860, 60.08838
736.4370, 8.574951
737.5880, 92.75049
738.7380, 26.01953
739.8880, 96.34082
741.0390, 56.66113
742.1890, 41.49146
743.3380, 15.80713
744.4880, 32.11914
745.6380, 22.63647
746.7870, 26.94312
747.9360, 70.31006
749.0850, 27.63525
750.2340, 37.93457
751.3830, 61.35864
752.5310, 112.6541
753.6800, 44.94702
754.8280, 66.23804
755.9760, 118.4856
757.1240, 63.77246
758.2720, 72.05737
759.4190, 33.34009
760.5670, 77.62036
761.7140, 76.89844
762.8610, 19.17432
764.0080, 20.44678
765.1550, 67.71558
766.3020, 58.98242
767.4480, 96.24707
768.5950, 81.50977
769.7410, 34.77051
770.8870, 55.02905
772.0330, 42.28564
773.1780, 53.54028
774.3240, 3.797363
775.4690, 33.05640
776.6140, 14.31348
777.7590, 47.56689
778.9040, 17.81934
780.0490, 22.06836
781.1940, 65.31470
782.3380, 35.55884
783.4820, 16.80078
784.6260, 103.0393
785.7700, 74.27588
786.9140, 60.51074
788.0580, 29.74365
789.2010, 67.13843
790.3450, 32.36694
791.4880, 98.59839
792.6310, 108.8276
793.7730, 43.05566
794.9160, 26.29004
796.0590, 77.52148
797.2010, 12.75122
798.3430, 49.97681
799.4850, 1.204590
800.6270, 15.43091
801.7690, 46.65405
802.9100, 89.12256
804.0520, 34.82129
805.1930, 42.37183
806.3340, 111.2156
807.4750, 19.44141
808.6160, 1.664307
809.7560, 57.88330
810.8970, 71.10083
812.0370, 104.3008
813.1770, 56.51758
814.3170, 20.61475
815.4570, 79.52979
816.5960, 19.74170
817.7360, 43.88599
818.8750, 38.53345
820.0140, 96.21484
821.1530, 70.42676
822.2920, 37.63696
823.4310, 70.84766
824.5690, 22.52148
825.7070, 65.47974
826.8460, 42.02271
827.9840, 26.46411
829.1220, 65.67139
830.2590, 81.88647
831.3970, 60.10010
832.5340, 41.31250
833.6710, 3.524170
834.8080, 10.73169
835.9450, 94.81689
837.0820, 39.02710
838.2190, 69.22437
839.3550, 51.43433
840.4910, 25.64355
841.6270, 91.63574
842.7630, 96.84302
843.8990, 1.985596
845.0350, 56.81665
846.1700, 50.01196
847.3060, 57.01489
848.4410, 71.21436
849.5760, 34.00293
850.7100, 69.20337
851.8450, 9.407227
852.9800, 15.41382
854.1140, 58.77856
855.2480, 87.97119
856.3820, 87.69019
857.5160, 68.88794
858.6500, 42.52832
859.7830, 54.71777
860.9170, 30.74023
862.0500, 77.85474
863.1830, 60.96069
864.3160, 99.00806
865.4480, 52.20361
866.5810, 96.35693
867.7130, 48.55786
868.8460, 58.61621
869.9780, 102.8218
871.1100, 11.47900
872.2410, 67.68555
873.3730, 30.86523
874.5050, 34.07153
875.6360, 68.21289
876.7670, 18.41968
877.8980, 24.37354
879.0290, 45.81982
880.1590, 35.81030
881.2900, 2.020996
882.4200, 56.05640
883.5500, 6.178955
884.6800, 11.37036
885.8100, 46.49878
886.9400, 35.31030
888.0690, 19.86255
889.1990, 19.03662
890.3280, 87.21069
891.4570, 15.61523
892.5860, 35.55103
893.7140, 34.71729
894.8430, 58.88403
895.9710, 142.0173
897.1000, 73.18481
898.2280, 115.3530
899.3560, 87.34717
900.4830, 81.35913
901.6110, 100.5286
902.7380, 121.6990
903.8660, 70.86938
904.9930, 86.06226
906.1200, 68.21509
907.2460, 64.41602
908.3730, 163.5894
909.5000, 82.76343
910.6260, 131.1914
911.7520, 101.4302
912.8780, 115.3875
914.0040, 98.50488
915.1290, 67.56982
916.2550, 37.63110
917.3800, 92.81006
918.5050, 44.97559
919.6300, 80.97803
920.7550, 18.15967
921.8800, 45.34204
923.0040, 116.5256
924.1290, 53.33350
925.2530, 118.8274
926.3770, 65.11694
927.5010, 65.27954
928.6250, 44.50366
929.7480, 20.15869
930.8720, 25.23340
931.9950, 122.4001
933.1180, 58.32422
934.2410, 113.3931
935.3640, 22.25464
936.4860, 77.22412
937.6090, 2.604248
938.7310, 39.56567
939.8530, 32.71729
940.9750, 9.093750
942.0970, 26.09033
943.2180, 46.13623
944.3400, 103.8892
945.4610, 77.07837
946.5820, 48.26855
947.7030, 77.98975
948.8240, 5.183350
949.9450, 147.2612
951.0650, 122.4592
952.1860, 93.53784
953.3060, 46.74341
954.4260, 52.95386
955.5460, 49.17212
956.6650, 163.3916
957.7850, 90.61279
958.9040, 105.8354
960.0230, 143.9905
961.1420, 105.2197
962.2610, 146.4534
963.3800, 158.6699
964.4990, 215.9146
965.6170, 367.1606
966.7350, 315.4084
967.8530, 363.6577
968.9710, 323.6445
970.0890, 371.7429
971.2070, 473.0022
972.3240, 530.2637
973.4410, 682.5308
974.5580, 668.7998
975.6750, 847.0552
976.7920, 1139.329
977.9090, 1432.604
979.0250, 1980.496
980.1410, 3153.777
981.2580, 5001.061
982.3740, 8098.347
983.4890, 11413.63
984.6050, 14479.93
985.7200, 20796.22
986.8360, 33627.40
987.9510, 51583.56
989.0660, 57926.86
990.1810, 46732.17
991.2950, 28354.47
992.4100, 14837.78
993.5240, 7672.101
994.6390, 4380.425
995.7530, 2845.753
996.8660, 1964.084
997.9800, 1589.417
999.0940, 1230.754
1000.207, 928.0928
1001.320, 714.4351
1002.433, 720.7798
1003.546, 586.1274
1004.659, 533.4775
1005.772, 420.7886
1006.884, 377.1460
1007.996, 365.5107
1009.108, 229.8777
1010.220, 339.2473
1011.332, 296.6189
1012.444, 228.4805
1013.555, 225.8579
1014.666, 238.2388
1015.777, 118.4146
1016.888, 200.8015
1017.999, 110.1287
1019.110, 168.4978
1020.220, 210.8936
1021.331, 178.1655
1022.441, 144.6519
1023.551, 55.05664
1024.661, 99.46436
1025.770, 175.9165
1026.880, 97.33032
1027.989, 79.74731
1029.098, 103.1667
1030.207, 27.58984
1031.316, 92.01611
1032.425, 6.445557
1033.533, 75.87891
1034.642, 31.31592
1035.750, 30.75635
1036.858, 12.19971
1037.966, 0.1572270
1039.073, 85.09619
1040.181, 0.4511720
1041.288, 20.00464
1042.396, 46.46313
1043.503, 33.07471
1044.610, 2.622070
1045.716, 19.83276
1046.823, 31.29199
1047.929, 91.75464
1049.036, 24.22119
1050.142, 26.69165
1051.248, 72.16528
1052.353, 48.64282
1053.459, 88.12476
1054.564, 25.60986
1055.670, 39.09863
1056.775, 149.1392
1057.880, 48.47021
1058.985, 26.03076
1060.089, 48.46167
1061.194, 2.041992
1062.298, 31.54321
1063.402, 37.94629
1064.506, 39.43970
1065.610, 18.93701
1066.713, 21.56128
1067.817, 26.06421
1068.920, 71.42871
1070.023, 59.92578
1071.126, 32.17944
1072.229, 33.68359
1073.332, 21.73877
1074.435, 25.47510
1075.537, 37.15552
1076.639, 32.68018
1077.741, 50.55957
1078.843, 34.09961
1079.945, 13.35669
1081.046, 77.18555
1082.148, 55.72168
1083.249, 4.272217
1084.350, 114.8264
1085.451, 38.46631
1086.551, 101.1440
1087.652, 128.7097
1088.752, 61.27856
1089.853, 93.85107
1090.953, 125.4272
1092.053, 129.0073
1093.152, 212.5906
1094.252, 261.4216
1095.351, 189.7830
1096.451, 429.3850
1097.550, 473.9902
1098.649, 594.5994
1099.748, 866.2119
1100.846, 1009.828
1101.945, 1397.449
1103.043, 1585.075
1104.141, 1861.703
1105.239, 1914.336
1106.337, 1898.971
1107.434, 1456.611
1108.532, 1142.254
1109.629, 826.9009
1110.726, 642.5513
1111.823, 521.2068
1112.920, 396.8704
1114.017, 368.5371
1115.113, 246.2407
1116.210, 217.9194
1117.306, 242.6086
1118.402, 117.3015
1119.498, 172.9988
1120.593, 188.7085
1121.689, 162.4224
1122.784, 196.1482
1123.879, 147.8774
1124.974, 150.6104
1126.069, 200.3464
1127.164, 110.0862
1128.259, 169.8296
1129.353, 98.57642
1130.447, 109.3267
1131.541, 184.0828
1132.635, 317.9756
1133.729, 282.7383
1134.822, 443.5051
1135.916, 588.2751
1137.009, 722.0486
1138.102, 811.8257
1139.195, 909.6060
1140.288, 798.3901
1141.380, 573.1777
1142.473, 465.9700
1143.565, 288.7656
1144.657, 285.5713
1145.749, 241.3804
1146.841, 175.1929
1147.932, 184.0154
1149.024, 177.8413
1150.115, 58.67114
1151.206, 127.5161
1152.297, 81.36475
1153.388, 1.774170
1154.479, 86.08911
1155.569, 133.9561
1156.659, 121.8264
1157.750, 185.7041
1158.839, 226.5854
1159.929, 187.4700
1161.019, 176.3579
1162.108, 318.2493
1163.198, 379.1438
1164.287, 445.0415
1165.376, 538.9426
1166.465, 658.8472
1167.553, 635.7546
1168.642, 624.6658
1169.730, 494.5586
1170.818, 488.4763
1171.906, 343.3684
1172.994, 262.2922
1174.082, 172.2195
1175.170, 140.4802
1176.257, 120.3230
1177.344, 86.26001
1178.431, 96.20044
1179.518, 122.1440
1180.605, 59.09106
1181.691, 29.04150
1182.778, 53.99487
1183.864, 31.03174
1184.950, 28.99170
1186.036, 22.95483
1187.122, 13.07910
1188.207, 60.88574
1189.292, 51.86694
1190.378, 3.678955
1191.463, 73.66650
1192.548, 40.59692
1193.632, 55.10083
1194.717, 7.098145
1195.801, 13.09912
1196.886, 35.10303
1197.970, 80.21021
1199.054, 5.061035
1200.137, 46.07495
1201.221, 49.09180
1202.305, 21.11328
1203.388, 50.86182
1204.471, 53.14429
1205.554, 53.26147
1206.637, 68.27661
1207.719, 9.304932
1208.802, 121.7131
1209.884, 37.73486
1210.966, 101.2297
1212.048, 58.25732
1213.130, 33.28809
1214.212, 74.32153
1215.293, 24.64209
1216.374, 3.611816
1217.456, 27.41968
1218.536, 83.45435
1219.617, 70.49219
1220.698, 2.532715
1221.778, 28.57642
1222.859, 103.6226
1223.939, 39.27808
1225.019, 74.38330
1226.099, 54.43799
1227.178, 32.49487
1228.258, 35.55518
1229.337, 60.61743
1230.417, 51.68262
1231.496, 10.75049
1232.574, 63.82056
1233.653, 65.89355
1234.732, 91.96899
1235.810, 54.04663
1236.888, 13.14087
1237.966, 68.22998
1239.044, 76.31519
1240.122, 5.403320
1241.199, 43.49390
1242.277, 20.48096
1243.354, 91.57593
1244.431, 0.3266600
1245.508, 54.70703
1246.585, 17.55176
1247.661, 124.6553
1248.738, 93.76050
1249.814, 149.8843
1250.890, 20.99487
1251.966, 69.04956
1253.042, 13.16406
1254.117, 74.28076
1255.193, 53.23022
1256.268, 78.51953
1257.343, 42.64209
1258.418, 54.77393
1259.493, 59.90088
1260.567, 61.03638
1261.642, 1.348145
1262.716, 85.78271
1263.790, 47.91504
1264.864, 55.05005
1265.938, 122.1868
1267.011, 67.32544
1268.085, 102.4741
1269.158, 74.62476
1270.231, 94.77686
1271.304, 43.15063
1272.377, 68.31738
1273.450, 30.47461
1274.522, 72.63306
1275.594, 51.86304
1276.666, 85.20093
1277.738, 32.36401
1278.810, 47.52881
1279.882, 40.49097
1280.953, 69.65820
1282.025, 52.82666
1283.096, 53.91187
1284.167, 25.08301
1285.238, 44.40527
1286.308, 98.42920
1287.379, 63.60400
1288.449, 82.78003
1289.519, 62.95752
1290.589, 68.13574
1291.659, 68.08374
1292.729, 72.32422
1293.798, 65.67822
1294.868, 87.86157
1295.937, 89.04590
1297.006, 84.23145
1298.075, 93.41846
1299.143, 62.60669
1300.212, 32.79590
1301.280, 18.98608
1302.348, 8.177246
1303.416, 23.36914
1304.484, 37.56958
1305.552, 38.21313
1306.620, 155.9741
1307.687, 53.17822
1308.754, 132.3853
1309.821, 147.5933
1310.888, 88.80176
1311.955, 2.010742
1313.021, 46.22021
1314.088, 94.42993
1315.154, 75.64062
1316.220, 116.3044
1317.286, 86.51929
1318.352, 99.73535
1319.417, 82.95679
1320.483, 66.17676
1321.548, 34.39502
1322.613, 39.62109
1323.678, 57.84814
1324.743, 57.07715
1325.807, 75.30713
1326.872, 110.5430
1327.936, 54.78003
1329.000, 37.01196
1330.064, 68.24512
1331.128, 95.47998
1332.191, 92.16919
1333.255, 15.59326
1334.318, 89.64038
1335.381, 20.12451
1336.444, 31.76294
1337.507, 10.98633
1338.569, 54.21069
1339.632, 18.45410
1340.694, 78.68384
1341.756, 64.91455
1342.818, 29.14673
1343.880, 8.298584
1344.941, 54.41748
1346.003, 15.64868
1347.064, 55.92310
1348.125, 48.14185
1349.186, 103.3616
1350.247, 20.57690
1351.308, 23.21802
1352.368, 1.980957
1353.428, 47.18066
1354.489, 85.38086
1355.549, 79.57886
1356.608, 76.77759
1357.668, 58.97729
1358.727, 69.17798
1359.787, 61.37891
1360.846, 67.57886
1361.905, 47.77930
1362.964, 49.97266
1364.022, 6.166504
1365.081, 8.342285
1366.139, 40.51855
1367.197, 54.77734
1368.255, 106.9705
1369.313, 10.85254
1370.371, 65.32080
1371.428, 110.4941
1372.486, 11.36548
1373.543, 24.19604
1374.600, 28.96606
1375.657, 26.12817
1376.713, 12.44702
1377.770, 76.71069
1378.826, 27.13135
1379.882, 26.01807
1380.938, 67.17065
1381.994, 25.32031
1383.050, 100.4697
1384.106, 105.6333
1385.161, 14.99927
1386.216, 33.14819
1387.271, 3.702637
1388.326, 129.4438
1389.381, 64.45728
1390.435, 97.60376
1391.490, 55.95752
1392.544, 82.10376
1393.598, 68.24976
1394.652, 55.42847
1395.705, 51.57397
1396.759, 105.7192
1397.812, 1.863770
1398.866, 20.00732
1399.919, 125.1514
1400.972, 102.2957
1402.024, 150.4399
1403.077, 14.41504
1404.129, 55.72485
1405.181, 80.86523
1406.233, 38.99390
1407.285, 92.13623
1408.337, 45.26636
1409.389, 58.39771
1410.440, 29.53076
1411.491, 40.66504
1412.542, 55.79663
1413.593, 53.52759
1414.644, 52.06445
1415.695, 79.20020
1416.745, 40.33374
1417.795, 57.46899
1418.845, 107.6060
1419.895, 49.74072
1420.945, 72.95288
1421.995, 111.0491
1423.044, 45.20630
1424.093, 103.4768
1425.142, 112.5742
1426.191, 102.6719
1427.240, 71.76978
1428.289, 104.8677
1429.337, 125.9658
1430.385, 105.0635
1431.433, 132.7031
1432.481, 103.3682
1433.529, 133.5146
1434.577, 150.1394
1435.624, 114.2317
1436.672, 85.31787
1437.719, 100.4055
1438.766, 84.50244
1439.812, 88.42871
1440.859, 93.70947
1441.905, 99.74194
1442.952, 105.5059
1443.998, 110.6375
1445.044, 77.60864
1446.090, 115.2634
1447.135, 68.60522
1448.181, 118.8999
1449.226, 138.1951
1450.271, 71.49048
1451.316, 123.7861
1452.361, 171.0825
1453.405, 127.2390
1454.450, 129.0623
1455.494, 92.36353
1456.538, 68.66504
1457.582, 70.70020
1458.626, 123.2756
1459.670, 70.59155
1460.713, 102.9077
1461.757, 112.2249
1462.800, 64.64551
1463.843, 95.94727
1464.886, 39.25024
1465.928, 131.5547
1466.971, 75.86011
1468.013, 130.1670
1469.055, 101.4514
1470.097, 92.76099
1471.139, 61.96436
1472.181, 35.26587
1473.222, 102.1831
1474.263, 51.45288
1475.305, 103.4099
1476.346, 71.12915
1477.386, 63.35815
1478.427, 76.58813
1479.468, 66.56494
1480.508, 79.36377
1481.548, 70.58789
1482.588, 115.8105
1483.628, 111.0217
1484.668, 131.2209
1485.707, 51.08521
1486.747, 102.2810
1487.786, 83.62646
1488.825, 53.79907
1489.864, 116.7151
1490.902, 40.83252
1491.941, 20.94824
1492.979, 37.06274
1494.017, 72.17505
1495.055, 138.2856
1496.093, 104.3940
1497.131, 88.49902
1498.168, 77.60107
1499.206, 49.70068
1500.243, 81.79858
1501.280, 0.8950200
1502.317, 92.98877
1503.354, 124.0752
1504.390, 65.15552
1505.426, 44.23413
1506.463, 99.31079
1507.499, 94.37915
1508.535, 42.43896
1509.570, 6.510010
1510.606, 105.5793
1511.641, 74.63892
1512.676, 100.6987
1513.711, 64.78711
1514.746, 109.8657
1515.781, 8.933105
1516.816, 88.98901
1517.850, 86.07202
1518.884, 28.89111
1519.918, 67.16846
1520.952, 89.21606
1521.986, 58.17017
1523.019, 94.29102
1524.053, 109.4624
1525.086, 105.7161
1526.119, 125.8582
1527.152, 121.0632
1528.185, 131.2651
1529.217, 147.4751
1530.250, 145.7317
1531.282, 116.1035
1532.314, 113.1714
1533.346, 100.5083
1534.377, 102.0337
1535.409, 90.36426
1536.440, 115.8538
1537.472, 134.2673
1538.503, 142.6860
1539.534, 155.1353
1540.564, 61.67017
1541.595, 132.1323
1542.625, 68.61865
1543.656, 82.19482
1544.686, 44.69995
1545.716, 110.3201
1546.745, 41.47217
1547.775, 19.62231
1548.804, 136.7610
1549.834, 113.8848
1550.863, 209.9890
1551.892, 145.0652
1552.920, 128.1028
1553.949, 156.1108
1554.977, 103.0825
1556.006, 35.00488
1557.034, 49.86157
1558.062, 2.053223
1559.089, 100.8083
1560.117, 148.2976
1561.144, 109.5923
1562.172, 189.8965
1563.199, 112.2278
1564.226, 40.68066
1565.252, 72.21387
1566.279, 1.017822
1567.305, 39.10254
1568.332, 82.24146
1569.358, 68.79419
1570.384, 0.0000000E+00
##END=



