##NAMES=Baryte
##RRUFFID=R050342
##IDEAL CHEMISTRY=BaS^6+^O_4_
##LOCALITY=Palos Verdes, Los Angeles County, California, USA
##OWNER=RRUFF
##SOURCE=California Institute of Technology
##DESCRIPTION=Light brown fragment
##STATUS=The identification of this mineral has been confirmed by X-ray diffraction and chemical analysis
##URL=rruff.info/R050342
##MEASURED CHEMISTRY=Ba_1.00_S_1.00_O_4_
##PIN_ID=L00807
##ORIENTATION=Laser parallel to b* (0 1 0). Fiducial mark perpendicular to laser is parallel to c [0 0 1]
93.48000, 0.0000000E+00
94.71400, 2.920898
95.94800, 70.98145
97.18200, 44.06348
98.41600, 213.3765
99.64900, 286.6445
100.8830, 156.4414
102.1160, 259.8105
103.3490, 37.07959
104.5820, 74.75488
105.8150, 196.4600
107.0470, 95.90039
108.2800, 211.8447
109.5120, 140.1050
110.7440, 242.5312
111.9760, 115.9980
113.2080, 274.4004
114.4400, 159.6416
115.6710, 290.6406
116.9030, 163.3271
118.1340, 215.6406
119.3650, 335.5303
120.5960, 364.9473
121.8270, 342.8535
123.0580, 308.2178
124.2880, 359.0117
125.5190, 284.2090
126.7490, 339.7832
127.9790, 355.7139
129.2090, 302.9863
130.4390, 341.7920
131.6680, 338.3477
132.8980, 327.6191
134.1270, 415.0156
135.3560, 371.6436
136.5850, 510.4883
137.8140, 454.5381
139.0430, 411.7852
140.2710, 438.2207
141.5000, 507.8340
142.7280, 469.6191
143.9560, 375.5684
145.1840, 424.6758
146.4120, 530.9336
147.6390, 496.3535
148.8670, 646.9150
150.0940, 579.6113
151.3210, 628.4902
152.5490, 611.5215
153.7750, 521.6797
155.0020, 636.9697
156.2290, 656.3994
157.4550, 576.9375
158.6810, 525.5889
159.9080, 627.3477
161.1340, 452.2334
162.3590, 542.2832
163.5850, 494.4785
164.8110, 453.7646
166.0360, 410.1387
167.2610, 406.5693
168.4860, 410.9648
169.7110, 483.3496
170.9360, 529.7363
172.1610, 588.1387
173.3850, 490.5635
174.6100, 384.0625
175.8340, 540.6250
177.0580, 478.2227
178.2820, 521.8633
179.5050, 618.5576
180.7290, 561.2969
181.9520, 725.1094
183.1760, 614.0098
184.3990, 648.9570
185.6220, 803.9512
186.8450, 885.9961
188.0670, 801.0889
189.2900, 882.2305
190.5120, 788.4209
191.7340, 759.6631
192.9560, 789.9521
194.1780, 736.2920
195.4000, 678.6797
196.6220, 670.1182
197.8430, 577.5742
199.0640, 551.1387
200.2860, 462.2451
201.5070, 482.9336
202.7270, 528.6045
203.9480, 396.3232
205.1690, 273.0879
206.3890, 404.9004
207.6090, 358.9180
208.8290, 287.8574
210.0490, 412.7715
211.2690, 356.2109
212.4890, 259.3135
213.7080, 301.3545
214.9280, 400.4395
216.1470, 366.1055
217.3660, 275.5469
218.5850, 331.0498
219.8030, 257.2822
221.0220, 242.5547
222.2400, 359.1709
223.4590, 309.6318
224.6770, 189.1572
225.8950, 230.8115
227.1120, 241.7930
228.3300, 298.6924
229.5480, 360.2725
230.7650, 363.9746
231.9820, 259.5479
233.1990, 239.2910
234.4160, 250.9453
235.6330, 187.8721
236.8490, 266.7188
238.0660, 302.5938
239.2820, 251.5000
240.4980, 342.3633
241.7140, 165.6865
242.9300, 212.7314
244.1460, 201.0283
245.3610, 216.5391
246.5770, 222.2344
247.7920, 250.0938
249.0070, 199.0996
250.2220, 260.2490
251.4370, 225.5205
252.6510, 159.9141
253.8660, 142.1973
255.0800, 244.7139
256.2940, 254.3984
257.5080, 240.1904
258.7220, 148.0625
259.9360, 267.0117
261.1490, 267.1084
262.3630, 172.1982
263.5760, 190.0029
264.7890, 174.2217
266.0020, 286.4990
267.2150, 207.0479
268.4270, 226.4443
269.6400, 168.3779
270.8520, 188.9658
272.0640, 207.5166
273.2760, 217.1455
274.4880, 230.8203
275.7000, 207.5381
276.9120, 211.3037
278.1230, 5.111328
279.3340, 196.9580
280.5450, 110.8438
281.7560, 222.7695
282.9670, 242.7305
284.1780, 95.72949
285.3880, 111.7637
286.5980, 185.8408
287.8090, 182.9492
289.0190, 195.0918
290.2290, 161.2686
291.4380, 192.4746
292.6480, 188.7129
293.8570, 131.9863
295.0670, 181.2881
296.2760, 199.6191
297.4850, 145.9795
298.6930, 123.3672
299.9020, 183.7842
301.1110, 119.2324
302.3190, 62.70703
303.5270, 98.20801
304.7350, 26.26855
305.9430, 43.27734
307.1510, 5.151367
308.3580, 131.4434
309.5660, 203.0596
310.7730, 39.69727
311.9800, 54.38867
313.1870, 55.09961
314.3940, 135.8330
315.6010, 156.5879
316.8070, 97.36426
318.0130, 159.1621
319.2200, 44.01758
320.4260, 36.81934
321.6310, 90.67676
322.8370, 65.44531
324.0430, 72.44727
325.2480, 176.3584
326.4540, 185.2910
327.6590, 22.75781
328.8640, 175.2129
330.0680, 6.798828
331.2730, 152.2080
332.4780, 167.2344
333.6820, 53.27930
334.8860, 92.34277
336.0900, 151.4229
337.2940, 51.47754
338.4980, 138.6338
339.7010, 14.23730
340.9050, 185.9062
342.1080, 14.93164
343.3110, 155.2451
344.5140, 19.43848
345.7170, 98.64746
346.9200, 135.8711
348.1220, 11.88867
349.3240, 2.633789
350.5270, 210.0352
351.7290, 177.3203
352.9310, 81.57324
354.1320, 48.87305
355.3340, 46.18555
356.5350, 2.489258
357.7370, 12.44434
358.9380, 146.4238
360.1390, 36.10059
361.3400, 118.2646
362.5400, 20.64062
363.7410, 73.97266
364.9410, 136.4160
366.1410, 86.81641
367.3410, 72.77246
368.5410, 65.63965
369.7410, 129.0605
370.9400, 93.49414
372.1400, 77.93555
373.3390, 128.3838
374.5380, 48.82910
375.7370, 67.28516
376.9360, 150.5107
378.1350, 78.97559
379.3330, 58.45117
380.5310, 120.9346
381.7300, 152.4297
382.9280, 131.9346
384.1260, 1.448242
385.3230, 89.98535
386.5210, 19.72266
387.7180, 145.3467
388.9160, 104.9531
390.1130, 32.58203
391.3100, 62.22949
392.5060, 84.89648
393.7030, 45.00098
394.9000, 77.70312
396.0960, 91.52246
397.2920, 15.74121
398.4880, 85.99707
399.6840, 119.7275
400.8800, 211.3027
402.0750, 86.08887
403.2710, 91.97363
404.4660, 7.754883
405.6610, 217.5488
406.8560, 8.645508
408.0510, 71.16602
409.2450, 186.9912
410.4400, 4.075195
411.6340, 152.5850
412.8280, 69.56055
414.0220, 15.67969
415.2160, 90.42969
416.4100, 124.2773
417.6030, 129.1338
418.7970, 49.00195
419.9900, 100.6465
421.1830, 172.5322
422.3760, 107.4404
423.5690, 244.3564
424.7610, 83.30957
425.9540, 126.2705
427.1460, 260.2402
428.3380, 215.2168
429.5300, 294.7812
430.7220, 392.7764
431.9140, 391.7783
433.1050, 375.7891
434.2970, 468.8057
435.4880, 380.8281
436.6790, 599.9111
437.8700, 664.9531
439.0610, 989.9990
440.2510, 1042.051
441.4420, 1535.154
442.6320, 1926.606
443.8220, 2358.870
445.0120, 2960.943
446.2020, 3237.021
447.3910, 3906.104
448.5810, 4716.809
449.7700, 5213.912
450.9600, 5633.128
452.1490, 5806.758
453.3370, 5979.451
454.5260, 5576.515
455.7150, 4986.639
456.9030, 4313.768
458.0910, 3721.917
459.2800, 3370.062
460.4670, 3011.224
461.6550, 2759.385
462.8430, 2374.513
464.0300, 2251.812
465.2180, 1658.980
466.4050, 1185.532
467.5920, 783.7070
468.7790, 656.8838
469.9650, 482.0615
471.1520, 467.8535
472.3380, 284.0391
473.5250, 229.1436
474.7110, 295.3398
475.8970, 175.5371
477.0820, 162.7393
478.2680, 235.9570
479.4540, 162.1758
480.6390, 193.1006
481.8240, 237.3223
483.0090, 167.3037
484.1940, 80.52734
485.3780, 188.4873
486.5630, 159.7129
487.7470, 94.93750
488.9320, 156.1631
490.1160, 98.39258
491.3000, 64.40332
492.4830, 170.4141
493.6670, 83.71777
494.8500, 28.14941
496.0340, 91.95605
497.2170, 151.0625
498.4000, 210.1719
499.5820, 17.19727
500.7650, 37.02930
501.9480, 39.04004
503.1300, 229.9727
504.3120, 143.0391
505.4940, 138.1074
506.6760, 177.4805
507.8580, 55.54590
509.0390, 76.61133
510.2210, 164.9883
511.4020, 200.0625
512.5830, 86.13574
513.7640, 76.20605
514.9450, 107.2783
516.1250, 51.15723
517.3060, 65.41602
518.4860, 15.48242
519.6660, 102.5410
520.8460, 68.59961
522.0260, 58.65527
523.2060, 83.33008
524.3850, 123.7617
525.5650, 69.86328
526.7440, 76.81934
527.9230, 38.86230
529.1020, 47.73145
530.2810, 63.93555
531.4590, 79.96875
532.6380, 135.9990
533.8160, 170.0264
534.9940, 12.94824
536.1720, 230.0518
537.3500, 6.952148
538.5270, 102.0205
539.7050, 98.20410
540.8820, 160.2441
542.0590, 54.72754
543.2360, 49.23047
544.4130, 43.13770
545.5900, 179.0410
546.7660, 213.8652
547.9430, 81.75977
549.1190, 107.9990
550.2950, 92.08398
551.4710, 37.96680
552.6470, 22.63086
553.8220, 126.5039
554.9980, 25.11328
556.1730, 45.32227
557.3480, 233.4697
558.5230, 78.26074
559.6980, 336.5332
560.8730, 17.32227
562.0470, 243.0986
563.2220, 265.7402
564.3960, 206.5068
565.5700, 213.9941
566.7440, 270.7510
567.9170, 115.5020
569.0910, 260.2451
570.2640, 4.549805
571.4380, 77.45312
572.6110, 142.3262
573.7840, 151.0244
574.9570, 111.7158
576.1290, 90.39941
577.3020, 17.07617
578.4740, 70.84766
579.6460, 101.4990
580.8180, 147.1426
581.9900, 59.77734
583.1620, 39.40234
584.3330, 15.05078
585.5040, 177.6445
586.6760, 243.4482
587.8470, 209.0254
589.0180, 141.8154
590.1880, 143.5508
591.3590, 54.10645
592.5290, 149.8740
593.7000, 59.41113
594.8700, 76.85742
596.0400, 198.6016
597.2090, 225.4883
598.3790, 68.75293
599.5490, 198.5234
600.7180, 192.8750
601.8870, 138.2930
603.0560, 310.7021
604.2250, 199.1055
605.3940, 187.5000
606.5620, 341.9121
607.7300, 429.3213
608.8990, 353.7188
610.0670, 604.1299
611.2350, 528.6660
612.4020, 740.8730
613.5700, 747.7432
614.7370, 1033.210
615.9050, 1095.806
617.0720, 1058.705
618.2390, 1130.368
619.4060, 1009.926
620.5720, 992.5088
621.7390, 912.8037
622.9050, 788.6006
624.0710, 791.9355
625.2370, 606.2031
626.4030, 859.4590
627.5690, 661.7559
628.7340, 782.9902
629.9000, 707.2129
631.0650, 820.7070
632.2300, 934.9707
633.3950, 789.7783
634.5600, 832.1348
635.7240, 701.4375
636.8890, 874.6113
638.0530, 878.8301
639.2170, 1108.318
640.3810, 1142.912
641.5450, 1360.521
642.7080, 1390.525
643.8720, 1591.643
645.0350, 1692.527
646.1980, 1718.648
647.3610, 1934.816
648.5240, 1686.154
649.6870, 1606.945
650.8490, 1410.119
652.0120, 841.4766
653.1740, 761.5195
654.3360, 583.0664
655.4980, 461.2773
656.6600, 323.3828
657.8210, 312.3965
658.9830, 307.9336
660.1440, 142.5742
661.3050, 210.6348
662.4660, 254.7422
663.6270, 254.6895
664.7870, 85.62695
665.9480, 181.5547
667.1080, 156.4707
668.2680, 238.3164
669.4280, 193.1641
670.5880, 218.4785
671.7480, 138.5898
672.9070, 233.7070
674.0670, 197.7441
675.2260, 202.3965
676.3850, 291.2578
677.5440, 144.9492
678.7030, 211.7266
679.8610, 280.4941
681.0200, 90.26562
682.1780, 92.33789
683.3360, 153.0469
684.4940, 242.9473
685.6520, 152.9355
686.8090, 141.6348
687.9670, 223.3203
689.1240, 65.99609
690.2810, 163.2773
691.4380, 268.3535
692.5950, 220.5293
693.7520, 244.1445
694.9080, 214.7168
696.0650, 120.1543
697.2210, 264.7852
698.3770, 42.99023
699.5330, 187.9121
700.6880, 180.0645
701.8440, 20.39844
702.9990, 143.6406
704.1550, 81.85352
705.3100, 189.4121
706.4650, 137.1777
707.6190, 155.6055
708.7740, 38.95703
709.9290, 70.70703
711.0830, 77.11523
712.2370, 357.4102
713.3910, 200.6875
714.5450, 246.2148
715.6980, 189.5918
716.8520, 12.05078
718.0050, 130.2559
719.1580, 172.4473
720.3110, 128.6230
721.4640, 196.7344
722.6170, 113.4844
723.7700, 123.5859
724.9220, 69.77539
726.0740, 187.0645
727.2260, 70.37500
728.3780, 11.25391
729.5300, 291.9766
730.6810, 71.14453
731.8330, 187.4336
732.9840, 76.31055
734.1350, 148.5957
735.2860, 41.79297
736.4370, 17.97656
737.5880, 0.5078130
738.7380, 26.37891
739.8880, 148.4453
741.0390, 145.8262
742.1890, 202.9785
743.3380, 200.7520
744.4880, 265.4258
745.6380, 190.1660
746.7870, 224.8926
747.9360, 126.8105
749.0850, 94.50391
750.2340, 22.21289
751.3830, 45.82812
752.5310, 11.59570
753.6800, 77.37891
754.8280, 40.96680
755.9760, 30.45703
757.1240, 79.07031
758.2720, 70.58008
759.4190, 148.0703
760.5670, 46.27734
761.7140, 126.9551
762.8610, 148.4004
764.0080, 210.8281
765.1550, 128.4570
766.3020, 219.3848
767.4480, 19.77148
768.5950, 83.44141
769.7410, 135.7754
770.8870, 255.2422
772.0330, 109.0703
773.1780, 129.4277
774.3240, 282.7793
775.4690, 15.33984
776.6140, 69.68555
777.7590, 110.2031
778.9040, 260.8359
780.0490, 272.1348
781.1940, 169.6855
782.3380, 30.17188
783.4820, 144.6680
784.6260, 133.3477
785.7700, 89.52539
786.9140, 20.14062
788.0580, 127.0898
789.2010, 80.18750
790.3450, 172.5879
791.4880, 57.34766
792.6310, 117.4434
793.7730, 139.4590
794.9160, 295.4570
796.0590, 86.03125
797.2010, 42.99219
798.3430, 139.4141
799.4850, 125.3301
800.6270, 291.2266
801.7690, 233.0332
802.9100, 189.8691
804.0520, 199.7070
805.1930, 133.5293
806.3340, 184.3320
807.4750, 99.57617
808.6160, 67.20312
809.7560, 98.94922
810.8970, 114.6738
812.0370, 103.5156
813.1770, 150.2891
814.3170, 260.9629
815.4570, 176.6250
816.5960, 228.2695
817.7360, 311.1543
818.8750, 127.6914
820.0140, 265.8008
821.1530, 95.38867
822.2920, 98.95703
823.4310, 173.9590
824.5690, 173.4922
825.7070, 190.1855
826.8460, 5.492188
827.9840, 191.9668
829.1220, 11.57227
830.2590, 183.8496
831.3970, 201.2559
832.5340, 140.6523
833.6710, 16.05078
834.8080, 2.582031
835.9450, 78.27539
837.0820, 75.58789
838.2190, 162.8828
839.3550, 49.28516
840.4910, 154.5371
841.6270, 18.03906
842.7630, 66.24414
843.8990, 143.4297
845.0350, 322.5938
846.1700, 263.1699
847.3060, 135.1172
848.4410, 203.0684
849.5760, 170.1660
850.7100, 95.24609
851.8450, 127.3047
852.9800, 91.34570
854.1140, 172.2598
855.2480, 172.8047
856.3820, 285.2559
857.5160, 186.2266
858.6500, 195.1777
859.7830, 117.0781
860.9170, 138.9980
862.0500, 110.6816
863.1830, 102.0566
864.3160, 83.52930
865.4480, 105.8750
866.5810, 80.69727
867.7130, 84.56445
868.8460, 199.0547
869.9780, 90.61133
871.1100, 94.38477
872.2410, 93.69727
873.3730, 8.396484
874.5050, 91.97070
875.6360, 178.7266
876.7670, 33.38867
877.8980, 67.02734
879.0290, 247.6465
880.1590, 93.75391
881.2900, 154.7715
882.4200, 221.5801
883.5500, 103.0684
884.6800, 283.8867
885.8100, 144.1797
886.9400, 31.22461
888.0690, 75.97656
889.1990, 201.2422
890.3280, 166.1680
891.4570, 231.9375
892.5860, 159.9980
893.7140, 158.4570
894.8430, 182.4590
895.9710, 11.52734
897.1000, 98.54883
898.2280, 260.1230
899.3560, 169.6016
900.4830, 98.00977
901.6110, 33.11914
902.7380, 64.31445
903.8660, 72.78711
904.9930, 172.9727
906.1200, 118.2422
907.2460, 45.39453
908.3730, 234.7539
909.5000, 166.0254
910.6260, 99.19531
911.7520, 143.0898
912.8780, 96.88086
914.0040, 64.90430
915.1290, 147.1387
916.2550, 2.984375
917.3800, 92.96484
918.5050, 84.01172
919.6300, 39.79688
920.7550, 163.8965
921.8800, 109.0098
923.0040, 122.1641
924.1290, 309.9414
925.2530, 71.35938
926.3770, 74.66602
927.5010, 133.6719
928.6250, 148.1211
929.7480, 188.6445
930.8720, 21.23047
931.9950, 242.5039
933.1180, 33.41211
934.2410, 160.8672
935.3640, 201.2480
936.4860, 91.75781
937.6090, 12.70117
938.7310, 171.1543
939.8530, 148.6738
940.9750, 308.0625
942.0970, 33.66992
943.2180, 0.8789060
944.3400, 189.7344
945.4610, 353.9043
946.5820, 109.1211
947.7030, 123.2754
948.8240, 280.6484
949.9450, 200.0176
951.0650, 312.3711
952.1860, 79.71094
953.3060, 262.0352
954.4260, 20.18945
955.5460, 183.4785
956.6650, 173.4609
957.7850, 32.86328
958.9040, 175.1465
960.0230, 97.36914
961.1420, 292.0117
962.2610, 217.1738
963.3800, 316.3516
964.4990, 459.3047
965.6170, 362.4531
966.7350, 453.5859
967.8530, 330.5977
968.9710, 365.6602
970.0890, 425.9570
971.2070, 457.8242
972.3240, 589.5078
973.4410, 626.5410
974.5580, 745.0312
975.6750, 777.0215
976.7920, 1085.195
977.9090, 1620.842
979.0250, 2113.793
980.1410, 3497.797
981.2580, 6206.785
982.3740, 10147.92
983.4890, 14415.91
984.6050, 18065.86
985.7200, 24446.79
986.8360, 31831.86
987.9510, 37310.49
989.0660, 36928.38
990.1810, 29576.27
991.2950, 18945.14
992.4100, 10702.00
993.5240, 5539.852
994.6390, 3232.508
995.7530, 2261.246
996.8660, 1620.854
997.9800, 1125.410
999.0940, 982.8789
1000.207, 642.4414
1001.320, 750.8867
1002.433, 609.3340
1003.546, 573.0723
1004.659, 427.5195
1005.772, 551.9727
1006.884, 293.4121
1007.996, 238.4668
1009.108, 443.9004
1010.220, 288.5996
1011.332, 317.7129
1012.444, 441.0234
1013.555, 243.6836
1014.666, 116.4160
1015.777, 42.05273
1016.888, 187.6738
1017.999, 25.07617
1019.110, 270.6699
1020.220, 144.2207
1021.331, 35.83008
1022.441, 196.0762
1023.551, 6.369141
1024.661, 26.83008
1025.770, 318.6836
1026.880, 13.19727
1027.989, 142.6992
1029.098, 21.81055
1030.207, 22.92969
1031.316, 8.164063
1032.425, 39.60352
1033.533, 52.02930
1034.642, 132.2246
1035.750, 4.097656
1036.858, 136.4785
1037.966, 8.548828
1039.073, 49.07812
1040.181, 46.88086
1041.288, 2.042969
1042.396, 13.56250
1043.503, 50.51367
1044.610, 97.55078
1045.716, 51.76758
1046.823, 37.78125
1047.929, 19.34180
1049.036, 103.8574
1050.142, 71.77344
1051.248, 121.7266
1052.353, 138.8398
1053.459, 2.978516
1054.564, 4.847656
1055.670, 65.26758
1056.775, 59.31836
1057.880, 142.4668
1058.985, 28.29102
1060.089, 40.72461
1061.194, 157.7930
1062.298, 120.9102
1063.402, 167.1973
1064.506, 106.1465
1065.610, 188.2539
1066.713, 177.0469
1067.817, 168.1387
1068.920, 252.2246
1070.023, 171.3770
1071.126, 25.81641
1072.229, 178.8730
1073.332, 103.9453
1074.435, 72.08984
1075.537, 152.6035
1076.639, 5.212891
1077.741, 150.1113
1078.843, 131.1387
1079.945, 153.0215
1081.046, 89.95703
1082.148, 164.9609
1083.249, 148.9570
1084.350, 142.9277
1085.451, 169.8750
1086.551, 115.8477
1087.652, 169.2676
1088.752, 121.2246
1089.853, 15.82227
1090.953, 85.66406
1092.053, 173.5879
1093.152, 32.25586
1094.252, 30.73242
1095.351, 156.6191
1096.451, 299.4961
1097.550, 296.3789
1098.649, 486.2539
1099.748, 644.1230
1100.846, 605.0273
1101.945, 599.8867
1103.043, 864.7461
1104.141, 645.5996
1105.239, 700.4512
1106.337, 795.2930
1107.434, 393.1680
1108.532, 657.9961
1109.629, 274.8223
1110.726, 425.6445
1111.823, 164.7188
1112.920, 253.5293
1114.017, 29.33203
1115.113, 82.12695
1116.210, 253.9160
1117.306, 27.69727
1118.402, 21.47070
1119.498, 111.2637
1120.593, 141.0254
1121.689, 192.8926
1122.784, 245.7363
1123.879, 278.4766
1124.974, 224.2148
1126.069, 429.9434
1127.164, 347.6680
1128.259, 474.3887
1129.353, 445.1016
1130.447, 512.8125
1131.541, 814.5156
1132.635, 942.2168
1133.729, 1414.912
1134.822, 1700.604
1135.916, 2145.352
1137.009, 2596.041
1138.102, 2816.717
1139.195, 3091.523
1140.288, 2843.996
1141.380, 2749.668
1142.473, 2531.336
1143.565, 2369.000
1144.657, 2132.662
1145.749, 2039.316
1146.841, 1771.221
1147.932, 1550.736
1149.024, 1023.287
1150.115, 1006.613
1151.206, 859.2754
1152.297, 516.9316
1153.388, 919.2812
1154.479, 372.9414
1155.569, 499.7754
1156.659, 692.5273
1157.750, 669.1699
1158.839, 513.4062
1159.929, 762.0430
1161.019, 713.9316
1162.108, 1126.213
1163.198, 1356.432
1164.287, 1465.777
1165.376, 1608.174
1166.465, 1883.697
1167.553, 1483.889
1168.642, 1171.521
1169.730, 1242.766
1170.818, 922.1230
1171.906, 812.6406
1172.994, 662.9805
1174.082, 520.2031
1175.170, 400.6992
1176.257, 372.3320
1177.344, 306.7695
1178.431, 316.6836
1179.518, 244.6406
1180.605, 161.5723
1181.691, 146.0996
1182.778, 23.72070
1183.864, 0.8398440
1184.950, 71.57031
1186.036, 40.83984
1187.122, 108.3242
1188.207, 225.7852
1189.292, 243.3867
1190.378, 235.7168
1191.463, 312.1504
1192.548, 74.77148
1193.632, 169.3887
1194.717, 44.00000
1195.801, 238.0859
1196.886, 29.69727
1197.970, 78.48047
1199.054, 172.3730
1200.137, 197.0254
1201.221, 98.52734
1202.305, 94.62695
1203.388, 197.5918
1204.471, 293.0547
1205.554, 200.3984
1206.637, 274.8633
1207.719, 17.50977
1208.802, 186.2695
1209.884, 433.7168
1210.966, 229.1641
1212.048, 151.5684
1213.130, 115.0098
1214.212, 27.44727
1215.293, 233.8828
1216.374, 144.3145
1217.456, 272.9902
1218.536, 153.5605
1219.617, 130.9883
1220.698, 165.9941
1221.778, 75.37109
1222.859, 0.7910160
1223.939, 48.77148
1225.019, 257.9355
1226.099, 281.3438
1227.178, 291.2227
1228.258, 90.00000
1229.337, 207.4043
1230.417, 61.80273
1231.496, 204.2012
1232.574, 244.5957
1233.653, 286.9863
1234.732, 331.3770
1235.810, 113.7637
1236.888, 63.14844
1237.966, 194.5293
1239.044, 367.9062
1240.122, 171.2852
1241.199, 10.67383
1242.277, 110.4062
1243.354, 243.7793
1244.431, 362.8984
1245.508, 247.2363
1246.585, 140.6016
1247.661, 131.7070
1248.738, 65.78516
1249.814, 89.39453
1250.890, 45.75000
1251.966, 50.12109
1253.042, 199.4688
1254.117, 158.8164
1255.193, 293.1602
1256.268, 118.5039
1257.343, 177.8438
1258.418, 209.3555
1259.493, 315.7188
1260.567, 332.1211
1261.642, 316.4590
1262.716, 351.7930
1263.790, 166.1211
1264.864, 58.45703
1265.938, 70.79688
1267.011, 241.1406
1268.085, 41.64648
1269.158, 48.51172
1270.231, 243.7910
1271.304, 172.6348
1272.377, 118.9316
1273.450, 303.2266
1274.522, 260.5176
1275.594, 20.80859
1276.666, 68.56055
1277.738, 280.8418
1278.810, 67.12305
1279.882, 124.6133
1280.953, 407.8906
1282.025, 139.1621
1283.096, 222.4316
1284.167, 172.6973
1285.238, 33.00977
1286.308, 221.2812
1287.379, 116.5508
1288.449, 81.18750
1289.519, 277.4727
1290.589, 120.7441
1291.659, 321.2617
1292.729, 165.5312
1293.798, 351.7988
1294.868, 13.93555
1295.937, 98.43164
1297.006, 215.6816
1298.075, 168.9316
1299.143, 242.6035
1300.212, 229.9531
1301.280, 33.71094
1302.348, 186.9727
1303.416, 130.3652
1304.484, 120.6250
1305.552, 201.2422
1306.620, 25.50391
1307.687, 93.73438
1308.754, 210.9746
1309.821, 281.5605
1310.888, 112.8203
1311.955, 152.8750
1313.021, 135.6914
1314.088, 23.94141
1315.154, 209.0605
1316.220, 350.9844
1317.286, 163.4199
1318.352, 331.1855
1319.417, 86.41211
1320.483, 110.7832
1321.548, 116.1504
1322.613, 202.3574
1323.678, 42.70312
1324.743, 132.4551
1325.807, 51.44922
1326.872, 24.60156
1327.936, 242.7480
1329.000, 259.9551
1330.064, 89.43555
1331.128, 94.27344
1332.191, 158.8477
1333.255, 88.50195
1334.318, 92.88672
1335.381, 184.0039
1336.444, 4.048828
1337.507, 89.04688
1338.569, 116.0996
1339.632, 322.3945
1340.694, 218.5117
1341.756, 208.2500
1342.818, 214.1621
1343.880, 93.45703
1344.941, 28.15625
1346.003, 53.26953
1347.064, 258.3789
1348.125, 232.6367
1349.186, 183.7539
1350.247, 98.86914
1351.308, 102.9160
1352.368, 83.59180
1353.428, 91.93945
1354.489, 3.302734
1355.549, 1.820313
1356.608, 128.1953
1357.668, 338.3164
1358.727, 328.3906
1359.787, 192.5059
1360.846, 245.6172
1361.905, 119.7285
1362.964, 157.7559
1364.022, 228.9453
1365.081, 278.0137
1366.139, 385.1211
1367.197, 569.1230
1368.255, 95.28516
1369.313, 12.32812
1370.371, 157.4316
1371.428, 199.5352
1372.486, 221.6387
1373.543, 106.7422
1374.600, 234.8027
1375.657, 128.8652
1376.713, 41.90039
1377.770, 192.9570
1378.826, 97.90625
1379.882, 310.8691
1380.938, 189.9238
1381.994, 136.3613
1383.050, 167.4102
1384.106, 109.9043
1385.161, 64.67578
1386.216, 100.1016
1387.271, 103.0898
1388.326, 94.07617
1389.381, 163.5273
1390.435, 138.7598
1391.490, 148.7520
1392.544, 155.8008
1393.598, 109.6973
1394.652, 71.14844
1395.705, 1.085938
1396.759, 165.0078
1397.812, 3.105469
1398.866, 300.7773
1399.919, 297.6582
1400.972, 362.5371
1402.024, 358.9062
1403.077, 3.044922
1404.129, 162.0410
1405.181, 226.8984
1406.233, 65.72070
1407.285, 213.5723
1408.337, 240.3945
1409.389, 443.2109
1410.440, 196.0234
1411.491, 109.8320
1412.542, 210.4609
1413.593, 271.2617
1414.644, 34.43945
1415.695, 118.2266
1416.745, 161.0098
1417.795, 65.24023
1418.845, 148.0020
1419.895, 160.7148
1420.945, 298.4023
1421.995, 99.17188
1423.044, 586.8398
1424.093, 175.7676
1425.142, 27.42969
1426.191, 87.91406
1427.240, 251.7129
1428.289, 161.1309
1429.337, 100.7539
1430.385, 133.3750
1431.433, 46.97656
1432.481, 203.5781
1433.529, 152.0703
1434.577, 147.6562
1435.624, 52.24609
1436.672, 190.2227
1437.719, 320.8125
1438.766, 187.4102
1439.812, 301.1016
1440.859, 146.4336
1441.905, 7.042969
1442.952, 100.9492
1443.998, 25.81250
1445.044, 275.2812
1446.090, 111.8945
1447.135, 110.0547
1448.181, 233.2969
1449.226, 58.99609
1450.271, 88.28125
1451.316, 220.9570
1452.361, 218.5195
1453.405, 193.7695
1454.450, 63.01562
1455.494, 81.08203
1456.538, 114.1680
1457.582, 216.4180
1458.626, 29.66797
1459.670, 89.48828
1460.713, 202.7305
1461.757, 103.9727
1462.800, 1.800781
1463.843, 128.9023
1464.886, 170.7109
1465.928, 196.9453
1466.971, 26.18750
1468.013, 216.4297
1469.055, 118.6758
1470.097, 33.91406
1471.139, 260.6953
1472.181, 283.9219
1473.222, 130.1484
1474.263, 190.3828
1475.305, 323.2969
1476.346, 258.5078
1477.386, 524.7422
1478.427, 118.9805
1479.468, 37.94922
1480.508, 356.0859
1481.548, 114.3203
1482.588, 229.5273
1483.628, 186.4688
1484.668, 518.9609
1485.707, 429.4141
1486.747, 353.6445
1487.786, 423.1992
1488.825, 342.7422
1489.864, 389.3711
1490.902, 309.6250
1491.941, 23.83203
1492.979, 12.10938
1494.017, 143.7773
1495.055, 259.6641
1496.093, 434.9609
1497.131, 393.0820
1498.168, 478.4531
1499.206, 230.4375
1500.243, 452.6562
1501.280, 420.6562
1502.317, 318.2539
1503.354, 655.5273
1504.390, 298.1250
1505.426, 543.3203
1506.463, 108.5352
1507.499, 417.0742
1508.535, 317.2734
1509.570, 161.9375
1510.606, 113.5156
1511.641, 297.4453
1512.676, 241.6836
1513.711, 70.44141
1514.746, 120.1328
1515.781, 15.64453
1516.816, 6.406250
1517.850, 377.4727
1518.884, 74.36719
1519.918, 313.7305
1520.952, 427.6719
1521.986, 272.4453
1523.019, 445.8125
1524.053, 525.5391
1525.086, 257.6445
1526.119, 320.5586
1527.152, 382.4336
1528.185, 169.9844
1529.217, 273.5273
1530.250, 297.0547
1531.282, 418.5391
1532.314, 313.7734
1533.346, 290.3672
1534.377, 398.5273
1535.409, 549.7734
1536.440, 352.1055
1537.472, 413.3984
1538.503, 133.6445
1539.534, 255.3438
1540.564, 288.7695
1541.595, 119.4336
1542.625, 438.8008
1543.656, 405.9805
1544.686, 298.7383
1545.716, 409.3320
1546.745, 354.8633
1547.775, 174.5898
1548.804, 408.6875
1549.834, 366.8359
1550.863, 484.8320
1551.892, 300.9141
1552.920, 517.1719
1553.949, 552.4023
1554.977, 295.6836
1556.006, 293.7617
1557.034, 160.9297
1558.062, 443.9219
1559.089, 322.4570
1560.117, 39.74609
1561.144, 460.0430
1562.172, 790.1133
1563.199, 283.7305
1564.226, 577.2852
1565.252, 528.6484
1566.279, 336.0820
1567.305, 116.6562
1568.332, 212.6172
1569.358, 2.042969
1570.384, 0.0000000E+00
##END=



