##NAMES=Baryte
##RRUFFID=R050342
##IDEAL CHEMISTRY=BaS^6+^O_4_
##LOCALITY=Palos Verdes, Los Angeles County, California, USA
##OWNER=RRUFF
##SOURCE=California Institute of Technology
##DESCRIPTION=Light brown fragment
##STATUS=The identification of this mineral has been confirmed by X-ray diffraction and chemical analysis
##URL=rruff.info/R050342
##MEASURED CHEMISTRY=Ba_1.00_S_1.00_O_4_
##PIN_ID=L01107
##ORIENTATION=Laser parallel to -a* (-1 0 0). Fiducial mark perpendicular to laser is parallel to b [0 1 0]
140.2710, 0.0000000E+00
141.5000, 15.77344
142.7280, 127.4053
143.9560, 143.7607
145.1840, 209.4351
146.4120, 234.3291
147.6390, 314.4199
148.8670, 367.5767
150.0940, 418.2617
151.3210, 396.3281
152.5490, 271.2686
153.7750, 307.6899
155.0020, 254.3291
156.2290, 137.3188
157.4550, 146.6084
158.6810, 111.0947
159.9080, 104.7588
161.1340, 38.22949
162.3590, 9.168945
163.5850, 19.75586
164.8110, 17.25928
166.0360, 2.753418
167.2610, 1.833008
168.4860, 79.67725
169.7110, 43.28027
170.9360, 95.98438
172.1610, 127.5737
173.3850, 59.39551
174.6100, 134.2959
175.8340, 142.2710
177.0580, 53.31445
178.2820, 99.42041
179.5050, 39.58350
180.7290, 3.191406
181.9520, 167.0703
183.1760, 14.37646
184.3990, 130.7212
185.6220, 90.10303
186.8450, 192.5195
188.0670, 109.9692
189.2900, 198.4487
190.5120, 157.9575
191.7340, 139.4956
192.9560, 134.0605
194.1780, 139.6499
195.4000, 105.2954
196.6220, 173.9941
197.8430, 107.7168
199.0640, 39.45752
200.2860, 43.21680
201.5070, 130.7134
202.7270, 114.6377
203.9480, 12.42041
205.1690, 122.5781
206.3890, 45.58789
207.6090, 84.60400
208.8290, 62.62451
210.0490, 82.65479
211.2690, 54.72900
212.4890, 149.8081
213.7080, 68.88867
214.9280, 72.96484
216.1470, 142.0410
217.3660, 130.1191
218.5850, 106.1997
219.8030, 0.2822270
221.0220, 92.36572
222.2400, 3.450684
223.4590, 99.53809
224.6770, 6.628418
225.8950, 78.70020
227.1120, 88.76953
228.3300, 150.8433
229.5480, 21.92236
230.7650, 53.00732
231.9820, 65.09766
233.1990, 30.19531
234.4160, 35.29736
235.6330, 40.40479
236.8490, 32.51953
238.0660, 55.63965
239.2820, 132.7671
240.4980, 58.90039
241.7140, 48.06104
242.9300, 110.2070
244.1460, 173.3599
245.3610, 150.0991
246.5770, 156.0898
247.7920, 136.8428
249.0070, 93.01465
250.2220, 97.97998
251.4370, 75.13330
252.6510, 36.29346
253.8660, 118.6641
255.0800, 30.83643
256.2940, 42.03418
257.5080, 250.2378
258.7220, 14.44775
259.9360, 179.6631
261.1490, 8.477051
262.3630, 67.90674
263.5760, 112.5513
264.7890, 110.7163
266.0020, 53.88770
267.2150, 40.99170
268.4270, 29.85010
269.6400, 109.5425
270.8520, 91.72119
272.0640, 130.9053
273.2760, 26.09375
274.4880, 164.2856
275.7000, 150.4814
276.9120, 30.68555
278.1230, 120.8950
279.3340, 107.5264
280.5450, 105.6470
281.7560, 47.88672
282.9670, 71.11230
284.1780, 113.3789
285.3880, 83.63086
286.5980, 58.54004
287.8090, 45.63037
289.0190, 83.68652
290.2290, 49.82812
291.4380, 73.99414
292.6480, 76.17041
293.8570, 91.35596
295.0670, 119.0845
296.2760, 76.75195
297.4850, 129.9639
298.6930, 103.0898
299.9020, 5.229004
301.1110, 21.38525
302.3190, 31.55762
303.5270, 8.749023
304.7350, 29.28711
305.9430, 118.1719
307.1510, 82.39844
308.3580, 98.63770
309.5660, 205.8359
310.7730, 26.20947
311.9800, 94.48096
313.1870, 87.66553
314.3940, 33.95605
315.6010, 106.2559
316.8070, 106.5645
318.0130, 79.87109
319.2200, 4.187500
320.4260, 12.50977
321.6310, 18.84082
322.8370, 65.17871
324.0430, 48.52246
325.2480, 48.87207
326.4540, 77.91895
327.6590, 24.49609
328.8640, 114.8643
330.0680, 81.23730
331.2730, 87.61621
332.4780, 149.0010
333.6820, 93.38965
334.8860, 30.78320
336.0900, 106.1826
337.2940, 8.585938
338.4980, 79.99512
339.7010, 60.40820
340.9050, 0.8242190
342.1080, 11.24512
343.3110, 27.66895
344.5140, 41.09766
345.7170, 57.38086
346.9200, 63.96191
348.1220, 78.39648
349.3240, 147.4385
350.5270, 133.8799
351.7290, 71.32227
352.9310, 159.7676
354.1320, 99.21484
355.3340, 88.66602
356.5350, 36.11816
357.7370, 68.57324
358.9380, 38.96973
360.1390, 43.47949
361.3400, 157.9326
362.5400, 1.387695
363.7410, 155.8438
364.9410, 2.700195
366.1410, 29.75977
367.3410, 80.39941
368.5410, 101.8643
369.7410, 75.64062
370.9400, 104.5537
372.1400, 30.02539
373.3390, 61.20117
374.5380, 3.025391
375.7370, 97.50391
376.9360, 66.98730
378.1350, 107.4736
379.3330, 25.03809
380.5310, 8.454102
381.7300, 3.948242
382.9280, 32.55566
384.1260, 50.06641
385.3230, 57.41406
386.5210, 78.89453
387.7180, 53.37695
388.9160, 112.8613
390.1130, 53.34863
391.3100, 32.83594
392.5060, 14.54980
393.7030, 26.63184
394.9000, 26.40918
396.0960, 0.9013670
397.2920, 4.427734
398.4880, 95.04395
399.6840, 34.52148
400.8800, 107.0000
402.0750, 53.48145
403.2710, 33.96289
404.4660, 50.44824
405.6610, 13.64648
406.8560, 126.1562
408.0510, 101.0596
409.2450, 193.0752
410.4400, 117.8457
411.6340, 74.32715
412.8280, 53.80176
414.0220, 39.27637
415.2160, 6.247070
416.4100, 47.22949
417.6030, 31.29199
418.7970, 86.17969
419.9900, 69.97949
421.1830, 115.4541
422.3760, 90.98535
423.5690, 63.46094
424.7610, 129.9287
425.9540, 104.4062
427.1460, 96.88672
428.3380, 127.3711
429.5300, 68.85645
430.7220, 157.9834
431.9140, 161.4834
433.1050, 183.0312
434.2970, 169.5381
435.4880, 268.0449
436.6790, 361.9619
437.8700, 548.4736
439.0610, 432.9844
440.2510, 612.4980
441.4420, 827.0107
442.6320, 1007.527
443.8220, 1342.044
445.0120, 1616.562
446.2020, 2114.690
447.3910, 2387.212
448.5810, 3373.735
449.7700, 3910.259
450.9600, 4908.824
452.1490, 5674.352
453.3370, 6083.883
454.5260, 5964.419
455.7150, 5362.958
456.9030, 4218.498
458.0910, 3167.037
459.2800, 2613.581
460.4670, 2029.123
461.6550, 1867.674
462.8430, 1622.225
464.0300, 1474.775
465.2180, 1145.329
466.4050, 847.8809
467.5920, 587.4355
468.7790, 441.9893
469.9650, 364.5439
471.1520, 328.0996
472.3380, 310.6572
473.5250, 306.2139
474.7110, 196.7725
475.8970, 202.3301
477.0820, 45.89160
478.2680, 113.4531
479.4540, 40.01465
480.6390, 26.57910
481.8240, 116.1426
483.0090, 144.7061
484.1940, 179.2559
485.3780, 98.82324
486.5630, 145.3906
487.7470, 142.9580
488.9320, 114.5254
490.1160, 119.0928
491.3000, 112.5312
492.4830, 81.22852
493.6670, 104.7979
494.8500, 119.3672
496.0340, 101.2061
497.2170, 148.5049
498.4000, 79.07324
499.5820, 38.64062
500.7650, 76.20898
501.9480, 8.665039
503.1300, 226.2324
504.3120, 69.79785
505.4940, 150.3623
506.6760, 25.92969
507.8580, 34.33691
509.0390, 9.4727002E-02
510.2210, 144.4717
511.4020, 25.96094
512.5830, 178.5938
513.7640, 161.1475
514.9450, 2.716797
516.1250, 71.28613
517.3060, 64.85547
518.4860, 78.25195
519.6660, 102.8965
520.8460, 139.4639
522.0260, 145.3789
523.2060, 69.94336
524.3850, 174.5088
525.5650, 90.24414
526.7440, 132.8770
527.9230, 56.43945
529.1020, 184.0020
530.2810, 66.56348
531.4590, 89.13867
532.6380, 52.69922
533.8160, 0.7421880
534.9940, 80.00488
536.1720, 124.0752
537.3500, 20.36719
538.5270, 60.04102
539.7050, 162.2861
540.8820, 153.3545
542.0590, 45.91895
543.2360, 130.6787
544.4130, 46.24219
545.5900, 190.0508
546.7660, 47.61133
547.9430, 7.175781
549.1190, 143.7568
550.2950, 85.53418
551.4710, 2.908203
552.6470, 78.65039
553.8220, 30.22070
554.9980, 65.77637
556.1730, 167.3320
557.3480, 224.4854
558.5230, 133.2217
559.6980, 126.9316
560.8730, 68.51660
562.0470, 27.99707
563.2220, 10.50781
564.3960, 191.0166
565.5700, 194.5254
566.7440, 236.6699
567.9170, 152.9463
569.0910, 220.6895
570.2640, 143.1914
571.4380, 7.666992
572.6110, 163.8281
573.7840, 20.32031
574.9570, 157.9883
576.1290, 114.4766
577.3020, 20.03613
578.4740, 83.43750
579.6460, 124.9072
580.8180, 116.4111
581.9900, 111.8779
583.1620, 145.4102
584.3330, 36.87695
585.5040, 148.3652
586.6760, 7.150391
587.8470, 145.3291
589.0180, 182.8047
590.1880, 90.29883
591.3590, 26.76953
592.5290, 186.2354
593.7000, 109.7012
594.8700, 161.1631
596.0400, 292.7734
597.2090, 163.2314
598.3790, 285.9580
599.5490, 73.40820
600.7180, 214.8574
601.8870, 344.8115
603.0560, 322.2715
604.2250, 338.8418
605.3940, 342.2949
606.5620, 508.7676
607.7300, 626.2344
608.8990, 927.6768
610.0670, 1066.126
611.2350, 1362.571
612.4020, 1729.228
613.5700, 2227.771
614.7370, 3028.432
615.9050, 3423.867
617.0720, 3713.588
618.2390, 3749.156
619.4060, 3488.791
620.5720, 3025.545
621.7390, 2471.977
622.9050, 1998.405
624.0710, 1624.921
625.2370, 1188.053
626.4030, 1216.472
627.5690, 963.8857
628.7340, 680.2939
629.9000, 750.6992
631.0650, 618.0977
632.2300, 658.6338
633.3950, 436.0234
634.5600, 447.4082
635.7240, 331.7891
636.8890, 263.1631
638.0530, 394.5332
639.2170, 291.8984
640.3810, 275.2588
641.5450, 170.6152
642.7080, 224.9736
643.8720, 318.3281
645.0350, 186.6777
646.1980, 187.2959
647.3610, 163.8789
648.5240, 257.7959
649.6870, 227.9482
650.8490, 162.6611
652.0120, 57.90039
653.1740, 133.2227
654.3360, 99.50488
655.4980, 89.96973
656.6600, 189.3086
657.8210, 7.357422
658.9830, 45.09277
660.1440, 295.4062
661.3050, 21.28613
662.4660, 178.0059
663.6270, 117.2939
664.7870, 280.7451
665.9480, 152.0283
667.1080, 145.3184
668.2680, 118.6191
669.4280, 147.9141
670.5880, 64.20117
671.7480, 146.4824
672.9070, 230.7559
674.0670, 130.9004
675.2260, 138.3447
676.3850, 85.41309
677.5440, 145.3906
678.7030, 232.0186
679.8610, 0.7226560
681.0200, 265.0947
682.1780, 28.33301
683.3360, 93.56250
684.4940, 16.81641
685.6520, 150.0293
686.8090, 223.8818
687.9670, 73.06934
689.1240, 26.70801
690.2810, 71.11133
691.4380, 96.80957
692.5950, 76.15723
693.7520, 221.2734
694.9080, 103.5498
696.0650, 181.6514
697.2210, 36.95020
698.3770, 179.1201
699.5330, 120.4980
700.6880, 82.24805
701.8440, 186.3164
702.9990, 85.32227
704.1550, 131.6543
705.3100, 18.05859
706.4650, 5.754883
707.6190, 23.25195
708.7740, 183.2998
709.9290, 34.58105
711.0830, 88.10840
712.2370, 217.0576
713.3910, 38.95215
714.5450, 147.3418
715.6980, 136.2627
716.8520, 200.1426
718.0050, 100.1221
719.1580, 74.23145
720.3110, 117.1191
721.4640, 67.49805
722.6170, 184.2373
723.7700, 124.5732
724.9220, 111.4248
726.0740, 146.2227
727.2260, 123.0557
728.3780, 84.87891
729.5300, 119.6943
730.6810, 154.4590
731.8330, 125.5791
732.9840, 177.3652
734.1350, 55.14258
735.2860, 127.1514
736.4370, 26.90820
737.5880, 185.8613
738.7380, 199.8086
739.8880, 12.09180
741.0390, 136.6113
742.1890, 70.64844
743.3380, 98.33105
744.4880, 93.21680
745.6380, 130.8340
746.7870, 130.5352
747.9360, 118.4375
749.0850, 155.0703
750.2340, 50.13477
751.3830, 76.74512
752.5310, 47.59473
753.6800, 136.5293
754.8280, 40.00781
755.9760, 75.57031
757.1240, 59.42871
758.2720, 30.06641
759.4190, 149.5938
760.5670, 145.4805
761.7140, 85.29883
762.8610, 3.919922
764.0080, 117.6914
765.1550, 169.1660
766.3020, 192.6328
767.4480, 188.0859
768.5950, 223.5293
769.7410, 74.96191
770.8870, 201.3877
772.0330, 235.8018
773.1780, 140.2051
774.3240, 206.5977
775.4690, 172.9805
776.6140, 165.3760
777.7590, 159.9453
778.9040, 152.3076
780.0490, 156.6465
781.1940, 121.3252
782.3380, 169.2930
783.4820, 46.59863
784.6260, 53.99805
785.7700, 10.34082
786.9140, 293.6543
788.0580, 25.91016
789.2010, 6.612305
790.3450, 177.4111
791.4880, 43.43945
792.6310, 80.74609
793.7730, 202.9180
794.9160, 193.5254
796.0590, 90.84473
797.2010, 141.9033
798.3430, 184.1387
799.4850, 213.5352
800.6270, 130.9336
801.7690, 81.01953
802.9100, 170.0918
804.0520, 144.4521
805.1930, 177.2539
806.3340, 179.2881
807.4750, 186.0801
808.6160, 183.5557
809.7560, 186.3037
810.8970, 140.2881
812.0370, 83.26172
813.1770, 11.86035
814.3170, 7.799805
815.4570, 16.50586
816.5960, 225.7256
817.7360, 3.905273
818.8750, 139.9463
820.0140, 176.5898
821.1530, 121.4160
822.2920, 170.9824
823.4310, 17.78125
824.5690, 122.5625
825.7070, 32.31348
826.8460, 288.8516
827.9840, 106.8164
829.1220, 71.54297
830.2590, 155.2451
831.3970, 84.94531
832.5340, 196.6318
833.6710, 76.30664
834.8080, 104.7842
835.9450, 55.43066
837.0820, 205.0615
838.2190, 198.6992
839.3550, 276.3232
840.4910, 58.93652
841.6270, 67.53516
842.7630, 57.53027
843.8990, 133.2812
845.0350, 111.5986
846.1700, 93.14160
847.3060, 36.03223
848.4410, 170.5498
849.5760, 163.0547
850.7100, 23.37012
851.8450, 159.8486
852.9800, 33.31348
854.1140, 104.7705
855.2480, 71.21387
856.3820, 182.6094
857.5160, 19.02832
858.6500, 3.363281
859.7830, 70.25586
860.9170, 164.0664
862.0500, 14.37891
863.1830, 138.6953
864.3160, 149.9990
865.4480, 171.2725
866.5810, 217.7744
867.7130, 44.82715
868.8460, 226.0830
869.9780, 125.3281
871.1100, 64.40820
872.2410, 158.6270
873.3730, 72.55957
874.5050, 71.75195
875.6360, 53.06934
876.7670, 176.5674
877.8980, 38.68359
879.0290, 151.6738
880.1590, 69.76367
881.2900, 15.18164
882.4200, 108.8662
883.5500, 57.90137
884.6800, 181.9219
885.8100, 22.00000
886.9400, 151.7793
888.0690, 59.65820
889.1990, 36.39941
890.3280, 46.64355
891.4570, 192.9961
892.5860, 45.77344
893.7140, 95.75195
894.8430, 120.5234
895.9710, 30.67773
897.1000, 44.81738
898.2280, 88.74902
899.3560, 51.38379
900.4830, 198.2119
901.6110, 201.3076
902.7380, 178.1133
903.8660, 165.9062
904.9930, 169.6885
906.1200, 153.7217
907.2460, 206.2227
908.3730, 156.0801
909.5000, 202.8174
910.6260, 247.8193
911.7520, 112.5352
912.8780, 68.32422
914.0040, 115.0957
915.1290, 237.9902
916.2550, 177.8262
917.3800, 124.4971
918.5050, 141.1543
919.6300, 91.52734
920.7550, 102.5352
921.8800, 105.5762
923.0040, 121.4150
924.1290, 19.15234
925.2530, 8.933594
926.3770, 110.3740
927.5010, 144.1768
928.6250, 238.4766
929.7480, 14.93652
930.8720, 257.3828
931.9950, 124.6924
933.1180, 86.12305
934.2410, 119.5400
935.3640, 40.95410
936.4860, 179.3564
937.6090, 169.5781
938.7310, 39.95898
939.8530, 46.67188
940.9750, 216.6680
942.0970, 236.0010
943.2180, 208.3232
944.3400, 130.6357
945.4610, 148.9365
946.5820, 140.2275
947.7030, 29.67188
948.8240, 112.7852
949.9450, 122.0967
951.0650, 79.95996
952.1860, 205.1758
953.3060, 146.8145
954.4260, 180.0137
955.5460, 137.2061
956.6650, 103.3564
957.7850, 142.5293
958.9040, 201.0459
960.0230, 151.1729
961.1420, 255.8701
962.2610, 49.02734
963.3800, 208.1211
964.4990, 365.0566
965.6170, 310.2070
966.7350, 470.1797
967.8530, 399.3115
968.9710, 380.2285
970.0890, 490.2578
971.2070, 466.0723
972.3240, 454.1709
973.4410, 504.2646
974.5580, 539.3486
975.6750, 651.1445
976.7920, 808.9678
977.9090, 906.7529
979.0250, 1386.813
980.1410, 1962.812
981.2580, 3037.727
982.3740, 5102.413
983.4890, 7400.453
984.6050, 11198.48
985.7200, 17735.04
986.8360, 26271.06
987.9510, 35753.69
989.0660, 40441.61
990.1810, 33703.55
991.2950, 20703.53
992.4100, 10818.00
993.5240, 5657.092
994.6390, 3189.658
995.7530, 1933.152
996.8660, 1590.609
997.9800, 1095.564
999.0940, 869.0596
1000.207, 695.1748
1001.320, 689.0859
1002.433, 590.6914
1003.546, 333.5879
1004.659, 421.4785
1005.772, 595.1211
1006.884, 332.9971
1007.996, 315.6592
1009.108, 339.3105
1010.220, 262.7920
1011.332, 229.6465
1012.444, 256.1494
1013.555, 308.9902
1014.666, 290.6123
1015.777, 180.4844
1016.888, 209.2559
1017.999, 143.2910
1019.110, 64.62109
1020.220, 81.97949
1021.331, 146.7773
1022.441, 164.3174
1023.551, 146.5967
1024.661, 192.5840
1025.770, 102.2217
1026.880, 16.59180
1027.989, 33.49414
1029.098, 15.25293
1030.207, 14.63281
1031.316, 39.06543
1032.425, 21.32520
1033.533, 175.1094
1034.642, 11.82324
1035.750, 244.5283
1036.858, 88.22754
1037.966, 130.9229
1039.073, 16.09961
1040.181, 265.5732
1041.288, 51.24121
1042.396, 256.0156
1043.503, 10.67188
1044.610, 232.3193
1045.716, 56.69629
1046.823, 61.08789
1047.929, 28.70703
1049.036, 39.54102
1050.142, 205.1582
1051.248, 108.7695
1052.353, 147.3760
1053.459, 6.128906
1054.564, 150.4033
1055.670, 21.08887
1056.775, 38.32520
1057.880, 167.7822
1058.985, 108.8086
1060.089, 161.4541
1061.194, 213.0303
1062.298, 122.6035
1063.402, 219.0117
1064.506, 106.5234
1065.610, 299.0859
1066.713, 222.5391
1067.817, 222.0918
1068.920, 124.4316
1070.023, 157.9746
1071.126, 149.5156
1072.229, 118.5215
1073.332, 326.1367
1074.435, 160.2090
1075.537, 193.7344
1076.639, 354.2559
1077.741, 517.7734
1078.843, 599.1973
1079.945, 629.7969
1081.046, 824.8105
1082.148, 867.3184
1083.249, 971.8281
1084.350, 939.2344
1085.451, 953.7852
1086.551, 831.4453
1087.652, 569.9570
1088.752, 367.4668
1089.853, 484.9727
1090.953, 264.5000
1092.053, 351.0039
1093.152, 325.7539
1094.252, 304.8613
1095.351, 383.5059
1096.451, 370.4199
1097.550, 497.4121
1098.649, 476.9121
1099.748, 538.4102
1100.846, 706.9160
1101.945, 796.4219
1103.043, 866.0977
1104.141, 1051.895
1105.239, 1075.994
1106.337, 1082.488
1107.434, 738.9785
1108.532, 728.4688
1109.629, 380.9570
1110.726, 420.4473
1111.823, 207.9355
1112.920, 191.4180
1114.017, 242.8984
1115.113, 238.3789
1116.210, 297.8555
1117.306, 160.3301
1118.402, 88.80078
1119.498, 62.26953
1120.593, 288.7383
1121.689, 22.20312
1122.784, 187.6621
1123.879, 219.1230
1124.974, 118.5781
1126.069, 39.33594
1127.164, 8.187500
1128.259, 68.71680
1129.353, 54.71680
1130.447, 8.851563
1131.541, 12.57031
1132.635, 117.9883
1133.729, 53.40430
1134.822, 88.82031
1135.916, 186.5234
1137.009, 215.9355
1138.102, 321.3457
1139.195, 319.7520
1140.288, 171.1582
1141.380, 319.5723
1142.473, 249.0039
1143.565, 324.4375
1144.657, 391.8652
1145.749, 316.2949
1146.841, 148.7227
1147.932, 231.1562
1149.024, 112.9160
1150.115, 221.5000
1151.206, 70.96484
1152.297, 171.4277
1153.388, 138.9219
1154.479, 17.57031
1155.569, 187.9277
1156.659, 15.55859
1157.750, 66.05664
1158.839, 3.144531
1159.929, 130.5781
1161.019, 63.76758
1162.108, 77.95312
1163.198, 130.2402
1164.287, 217.1914
1165.376, 139.6445
1166.465, 99.81641
1167.553, 290.2656
1168.642, 159.7109
1169.730, 0.8476560
1170.818, 171.4473
1171.906, 288.8828
1172.994, 32.20508
1174.082, 97.63477
1175.170, 87.78516
1176.257, 13.79102
1177.344, 35.45898
1178.431, 153.8652
1179.518, 10.05273
1180.605, 150.2812
1181.691, 212.6660
1182.778, 126.0469
1183.864, 113.6465
1184.950, 134.5078
1186.036, 26.90430
1187.122, 103.3242
1188.207, 226.1680
1189.292, 58.14062
1190.378, 255.5156
1191.463, 117.9199
1192.548, 94.32031
1193.632, 43.73438
1194.717, 24.19336
1195.801, 86.60547
1196.886, 60.01172
1197.970, 89.41797
1199.054, 41.81836
1200.137, 74.21875
1201.221, 67.61523
1202.305, 4.009766
1203.388, 56.59570
1204.471, 8.216797
1205.554, 130.1523
1206.637, 174.5215
1207.719, 200.8926
1208.802, 100.2578
1209.884, 105.6445
1210.966, 31.02930
1212.048, 157.4180
1213.130, 151.8066
1214.212, 225.1914
1215.293, 57.69336
1216.374, 33.07422
1217.456, 91.44922
1218.536, 206.8203
1219.617, 68.48047
1220.698, 62.84570
1221.778, 173.3320
1222.859, 9.818359
1223.939, 74.83008
1225.019, 1.480469
1226.099, 111.7832
1227.178, 188.0840
1228.258, 73.52539
1229.337, 201.8379
1230.417, 80.78320
1231.496, 282.0664
1232.574, 34.34961
1233.653, 5.888672
1234.732, 6.835938
1235.810, 231.4238
1236.888, 154.9590
1237.966, 89.20898
1239.044, 166.6562
1240.122, 149.8574
1241.199, 106.0938
1242.277, 125.3262
1243.354, 140.8027
1244.431, 107.9062
1245.508, 181.1250
1246.585, 209.3398
1247.661, 154.5488
1248.738, 282.7520
1249.814, 153.1094
1250.890, 105.4316
1251.966, 199.4629
1253.042, 112.6484
1254.117, 113.8301
1255.193, 12.00391
1256.268, 168.0879
1257.343, 206.9082
1258.418, 269.0547
1259.493, 326.7168
1260.567, 91.89258
1261.642, 382.8418
1262.716, 320.3242
1263.790, 329.4355
1264.864, 12.95898
1265.938, 192.3965
1267.011, 93.98633
1268.085, 334.1230
1269.158, 131.2559
1270.231, 136.8672
1271.304, 240.3652
1272.377, 132.0723
1273.450, 124.1797
1274.522, 113.6836
1275.594, 147.7812
1276.666, 170.0254
1277.738, 10.22656
1278.810, 52.30078
1279.882, 64.50977
1280.953, 133.2969
1282.025, 288.7129
1283.096, 186.2520
1284.167, 207.4727
1285.238, 141.5059
1286.308, 355.6699
1287.379, 177.7793
1288.449, 65.55469
1289.519, 362.5586
1290.589, 224.5566
1291.659, 187.5508
1292.729, 260.5352
1293.798, 262.7285
1294.868, 204.9414
1295.937, 227.1387
1297.006, 236.1719
1298.075, 223.7969
1299.143, 197.8828
1300.212, 238.8281
1301.280, 216.7656
1302.348, 232.5840
1303.416, 220.5059
1304.484, 287.6562
1305.552, 258.2773
1306.620, 263.7422
1307.687, 235.6328
1308.754, 250.4277
1309.821, 244.3066
1310.888, 166.3574
1311.955, 59.42969
1313.021, 88.28711
1314.088, 107.2383
1315.154, 46.94141
1316.220, 195.1973
1317.286, 27.85156
1318.352, 336.0098
1319.417, 196.9375
1320.483, 243.7246
1321.548, 370.4844
1322.613, 108.4395
1323.678, 223.0488
1324.743, 237.9844
1325.807, 307.7344
1326.872, 318.4902
1327.936, 256.1504
1329.000, 190.2891
1330.064, 167.0312
1331.128, 173.2871
1332.191, 150.4688
1333.255, 157.5254
1334.318, 142.8516
1335.381, 188.5703
1336.444, 146.2852
1337.507, 192.6699
1338.569, 152.3770
1339.632, 173.9453
1340.694, 203.6895
1341.756, 195.9238
1342.818, 100.1602
1343.880, 193.1543
1344.941, 312.6484
1346.003, 262.2812
1347.064, 60.91016
1348.125, 171.5332
1349.186, 101.1758
1350.247, 100.8281
1351.308, 189.1836
1352.368, 233.2324
1353.428, 221.5391
1354.489, 395.1289
1355.549, 31.28711
1356.608, 125.2793
1357.668, 23.16602
1358.727, 159.3691
1359.787, 250.8828
1360.846, 68.21289
1361.905, 130.4121
1362.964, 242.2988
1364.022, 65.78320
1365.081, 317.2012
1366.139, 84.53711
1367.197, 5.865234
1368.255, 185.1797
1369.313, 183.4902
1370.371, 102.7930
1371.428, 165.0859
1372.486, 146.3711
1373.543, 237.6465
1374.600, 248.9141
1375.657, 275.1758
1376.713, 97.42578
1377.770, 104.6738
1378.826, 154.9102
1379.882, 292.1406
1380.938, 289.3613
1381.994, 223.5762
1383.050, 202.4785
1384.106, 88.67383
1385.161, 120.8281
1386.216, 198.9902
1387.271, 107.1426
1388.326, 241.2910
1389.381, 55.51953
1390.435, 332.6387
1391.490, 59.41797
1392.544, 74.31055
1393.598, 50.33203
1394.652, 180.3418
1395.705, 212.3398
1396.759, 13.67383
1397.812, 59.28711
1398.866, 36.23828
1399.919, 227.1738
1400.972, 57.09766
1402.024, 236.0078
1403.077, 107.9043
1404.129, 117.7891
1405.181, 197.3340
1406.233, 112.0410
1407.285, 112.2129
1408.337, 90.41211
1409.389, 44.64648
1410.440, 114.0879
1411.491, 151.8145
1412.542, 235.5332
1413.593, 250.8340
1414.644, 185.9648
1415.695, 229.5059
1416.745, 203.3711
1417.795, 192.5508
1418.845, 160.0371
1419.895, 97.27734
1420.945, 89.80273
1421.995, 92.31445
1423.044, 129.8125
1424.093, 183.2988
1425.142, 122.7734
1426.191, 162.2344
1427.240, 151.6836
1428.289, 197.1172
1429.337, 265.5391
1430.385, 88.94531
1431.433, 197.3398
1432.481, 239.7109
1433.529, 294.0762
1434.577, 116.8691
1435.624, 261.2168
1436.672, 102.5586
1437.719, 94.89258
1438.766, 264.3340
1439.812, 121.5547
1440.859, 292.8516
1441.905, 58.85938
1442.952, 118.1406
1443.998, 126.6680
1445.044, 111.6680
1446.090, 212.5449
1447.135, 35.67383
1448.181, 80.64648
1449.226, 218.0078
1450.271, 102.3594
1451.316, 250.7031
1452.361, 147.0312
1453.405, 174.3848
1454.450, 63.72461
1455.494, 230.0312
1456.538, 32.30273
1457.582, 72.56641
1458.626, 392.6875
1459.670, 24.93164
1460.713, 185.8398
1461.757, 304.7793
1462.800, 58.98242
1463.843, 220.2754
1464.886, 139.8379
1465.928, 126.9199
1466.971, 108.7754
1468.013, 230.9375
1469.055, 66.76367
1470.097, 362.4980
1471.139, 350.6328
1472.181, 197.6035
1473.222, 290.7305
1474.263, 136.8516
1475.305, 138.6016
1476.346, 294.7129
1477.386, 136.8184
1478.427, 168.6562
1479.468, 237.6699
1480.508, 261.5938
1481.548, 187.2070
1482.588, 362.2930
1483.628, 239.6582
1484.668, 438.0859
1485.707, 332.6211
1486.747, 304.9551
1487.786, 300.6387
1488.825, 278.3770
1489.864, 245.3555
1490.902, 386.2559
1491.941, 192.5508
1492.979, 295.0469
1494.017, 303.5332
1495.055, 224.0117
1496.093, 345.1445
1497.131, 238.8359
1498.168, 208.1719
1499.206, 227.4492
1500.243, 325.8867
1501.280, 271.3359
1502.317, 175.3359
1503.354, 241.5469
1504.390, 204.6367
1505.426, 199.6465
1506.463, 244.9922
1507.499, 241.6113
1508.535, 280.2207
1509.570, 257.6504
1510.606, 206.3926
1511.641, 147.2539
1512.676, 192.4277
1513.711, 98.71484
1514.746, 147.3750
1515.781, 82.74805
1516.816, 96.14844
1517.850, 304.8223
1518.884, 223.1953
1519.918, 131.4180
1520.952, 160.0137
1521.986, 119.4863
1523.019, 184.7578
1524.053, 307.9688
1525.086, 272.0801
1526.119, 279.0605
1527.152, 272.2910
1528.185, 203.3457
1529.217, 162.3867
1530.250, 165.3457
1531.282, 122.9961
1532.314, 136.4395
1533.346, 131.0273
1534.377, 108.5820
1535.409, 201.0938
1536.440, 199.5488
1537.472, 235.9473
1538.503, 245.2949
1539.534, 191.5918
1540.564, 59.97852
1541.595, 227.4570
1542.625, 360.5039
1543.656, 232.9023
1544.686, 102.0664
1545.716, 143.8457
1546.745, 73.59766
1547.775, 212.2832
1548.804, 202.9160
1549.834, 339.4863
1550.863, 245.9941
1551.892, 364.3867
1552.920, 120.6191
1553.949, 264.6699
1554.977, 268.5195
1556.006, 101.7656
1557.034, 169.9844
1558.062, 3.306641
1559.089, 253.7031
1560.117, 272.1758
1561.144, 278.7637
1562.172, 10.45312
1563.199, 340.6836
1564.226, 220.6816
1565.252, 386.7578
1566.279, 173.8945
1567.305, 23.15625
1568.332, 28.17773
1569.358, 191.0469
1570.384, 0.0000000E+00
##END=



