##NAMES=Baryte
##RRUFFID=R050342
##IDEAL CHEMISTRY=BaS^6+^O_4_
##LOCALITY=Palos Verdes, Los Angeles County, California, USA
##OWNER=RRUFF
##SOURCE=California Institute of Technology
##DESCRIPTION=Light brown fragment
##STATUS=The identification of this mineral has been confirmed by X-ray diffraction and chemical analysis
##URL=rruff.info/R050342
##MEASURED CHEMISTRY=Ba_1.00_S_1.00_O_4_
##PIN_ID=L00875
##ORIENTATION=Laser parallel to c* (0 0 1). Fiducial mark perpendicular to laser is parallel to a [1 0 0]
93.48000, 0.0000000E+00
94.71400, 2.853516
95.94800, 335.0576
97.18200, 271.8560
98.41600, 420.6021
99.64900, 547.0498
100.8830, 467.8052
102.1160, 222.9399
103.3490, 309.8047
104.5820, 94.92480
105.8150, 90.94189
107.0470, 76.57422
108.2800, 130.6021
109.5120, 147.8472
110.7440, 155.5376
111.9760, 175.1973
113.2080, 172.5801
114.4400, 192.4863
115.6710, 192.0874
116.9030, 220.3154
118.1340, 149.1147
119.3650, 251.4355
120.5960, 153.2373
121.8270, 99.48438
123.0580, 215.1431
124.2880, 173.1875
125.5190, 151.5942
126.7490, 143.3408
127.9790, 125.4072
129.2090, 108.7764
130.4390, 216.4360
131.6680, 157.3599
132.8980, 229.5312
134.1270, 195.9302
135.3560, 203.5303
136.5850, 243.3213
137.8140, 258.2939
139.0430, 281.4380
140.2710, 208.7476
141.5000, 209.2144
142.7280, 273.8320
143.9560, 230.5923
145.1840, 294.4902
146.4120, 184.5386
147.6390, 384.7368
148.8670, 267.0615
150.0940, 371.5005
151.3210, 364.0522
152.5490, 474.7114
153.7750, 554.5308
155.0020, 493.4917
156.2290, 533.5459
157.4550, 557.6890
158.6810, 399.9521
159.9080, 364.3320
161.1340, 341.7935
162.3590, 174.3706
163.5850, 145.0508
164.8110, 306.8652
166.0360, 267.7891
167.2610, 230.7666
168.4860, 293.7026
169.7110, 369.6387
170.9360, 277.5708
172.1610, 315.9692
173.3850, 356.9194
174.6100, 194.8892
175.8340, 211.8833
177.0580, 253.9111
178.2820, 283.9824
179.5050, 281.9009
180.7290, 306.3301
181.9520, 286.5923
183.1760, 316.8765
184.3990, 348.2144
185.6220, 344.5947
186.8450, 367.0464
188.0670, 504.5361
189.2900, 548.0630
190.5120, 507.6289
191.7340, 687.2319
192.9560, 481.8730
194.1780, 398.5537
195.4000, 318.2725
196.6220, 326.0298
197.8430, 390.8262
199.0640, 160.1191
200.2860, 138.9751
201.5070, 257.4185
202.7270, 172.3438
203.9480, 290.3071
205.1690, 152.3076
206.3890, 196.3447
207.6090, 146.4185
208.8290, 206.6099
210.0490, 92.75537
211.2690, 123.9355
212.4890, 192.5029
213.7080, 159.2178
214.9280, 165.4531
216.1470, 126.7236
217.3660, 172.0293
218.5850, 92.36719
219.8030, 229.7378
221.0220, 207.1421
222.2400, 83.57764
223.4590, 124.4189
224.6770, 224.8867
225.8950, 193.3867
227.1120, 142.9214
228.3300, 270.7378
229.5480, 104.1577
230.7650, 79.81348
231.9820, 180.4399
233.1990, 176.2417
234.4160, 117.3784
235.6330, 241.0332
236.8490, 95.73145
238.0660, 117.3535
239.2820, 194.0942
240.4980, 84.19922
241.7140, 119.8862
242.9300, 103.2485
244.1460, 129.8096
245.3610, 49.60449
246.5770, 150.5688
247.7920, 247.6812
249.0070, 34.92529
250.2220, 22.71094
251.4370, 118.0254
252.6510, 162.5962
253.8660, 168.2593
255.0800, 206.0083
256.2940, 150.8384
257.5080, 178.7437
258.7220, 22.96875
259.9360, 82.01074
261.1490, 191.1162
262.3630, 51.07959
263.5760, 95.43799
264.7890, 163.7251
266.0020, 129.0640
267.2150, 159.4521
268.4270, 181.9097
269.6400, 178.3911
270.8520, 152.7178
272.0640, 92.48633
273.2760, 102.3188
274.4880, 84.97510
275.7000, 138.9443
276.9120, 72.67969
278.1230, 129.9341
279.3340, 196.7378
280.5450, 14.57422
281.7560, 39.44287
282.9670, 103.3433
284.1780, 118.2734
285.3880, 14.23682
286.5980, 178.2305
287.8090, 6.251953
289.0190, 146.3013
290.2290, 159.3770
291.4380, 61.47852
292.6480, 30.60645
293.8570, 73.76855
295.0670, 46.95996
296.2760, 39.18750
297.4850, 31.43848
298.6930, 38.54736
299.9020, 54.02246
301.1110, 13.34717
302.3190, 83.69287
303.5270, 43.94043
304.7350, 126.4414
305.9430, 56.84326
307.1510, 21.73535
308.3580, 54.70312
309.5660, 103.1768
310.7730, 44.66846
311.9800, 144.1772
313.1870, 10.70361
314.3940, 110.2471
315.6010, 69.80811
316.8070, 22.39062
318.0130, 51.98828
319.2200, 85.60400
320.4260, 37.23730
321.6310, 4.112793
322.8370, 168.5542
324.0430, 93.23926
325.2480, 143.9399
326.4540, 142.6567
327.6590, 78.39062
328.8640, 205.1406
330.0680, 13.09375
331.2730, 100.6865
332.4780, 97.51758
333.6820, 48.27734
334.8860, 176.0879
336.0900, 107.9131
337.2940, 147.4204
338.4980, 1.608887
339.7010, 62.47852
340.9050, 87.36328
342.1080, 84.26123
343.3110, 105.1748
344.5140, 117.7852
345.7170, 87.02881
346.9200, 83.91309
348.1220, 68.93359
349.3240, 23.90527
350.5270, 11.10840
351.7290, 68.11133
352.9310, 127.8877
354.1320, 139.8994
355.3340, 80.92383
356.5350, 88.18750
357.7370, 48.41602
358.9380, 79.45703
360.1390, 108.5107
361.3400, 5.422852
362.5400, 20.34668
363.7410, 41.73926
364.9410, 85.83789
366.1410, 47.05273
367.3410, 47.06055
368.5410, 119.1699
369.7410, 26.70996
370.9400, 86.41797
372.1400, 45.55664
373.3390, 33.29492
374.5380, 32.53418
375.7370, 34.36523
376.9360, 49.83105
378.1350, 7.986328
379.3330, 50.14551
380.5310, 41.69629
381.7300, 30.03711
382.9280, 122.2012
384.1260, 102.9805
385.3230, 31.17773
386.5210, 124.4004
387.7180, 18.82520
388.9160, 56.43066
390.1130, 59.70605
391.3100, 113.0000
392.5060, 28.31250
393.7030, 44.64258
394.9000, 0.2587890
396.0960, 44.10254
397.2920, 116.4785
398.4880, 123.8721
399.6840, 62.57617
400.8800, 99.99805
402.0750, 1.435547
403.2710, 51.88477
404.4660, 95.34766
405.6610, 33.17480
406.8560, 58.96094
408.0510, 52.49902
409.2450, 136.9717
410.4400, 34.47461
411.6340, 14.02734
412.8280, 48.47266
414.0220, 41.98535
415.2160, 54.30176
416.4100, 17.16211
417.6030, 111.8750
418.7970, 5.421875
419.9900, 64.98340
421.1830, 41.44922
422.3760, 43.10645
423.5690, 64.67188
424.7610, 115.2471
425.9540, 57.87500
427.1460, 67.47070
428.3380, 80.87695
429.5300, 109.6768
430.7220, 75.30273
431.9140, 115.9873
433.1050, 102.5830
434.2970, 182.2363
435.4880, 197.8994
436.6790, 270.6562
437.8700, 170.5586
439.0610, 315.0186
440.2510, 319.7207
441.4420, 224.0322
442.6320, 467.7461
443.8220, 379.4727
445.0120, 534.2070
446.2020, 653.9492
447.3910, 909.6426
448.5810, 1136.400
449.7700, 1431.165
450.9600, 1986.531
452.1490, 2398.248
453.3370, 2854.035
454.5260, 2830.829
455.7150, 2419.629
456.9030, 1915.437
458.0910, 1344.260
459.2800, 1090.945
460.4670, 1101.780
461.6550, 1165.623
462.8430, 1037.471
464.0300, 855.3262
465.2180, 647.1230
466.4050, 382.0029
467.5920, 271.8818
468.7790, 190.7666
469.9650, 185.6572
471.1520, 255.5557
472.3380, 150.4590
473.5250, 170.6279
474.7110, 82.99609
475.8970, 127.2324
477.0820, 118.1738
478.2680, 124.1201
479.4540, 145.5732
480.6390, 139.7617
481.8240, 159.0020
483.0090, 139.9756
484.1940, 121.9600
485.3780, 105.9473
486.5630, 124.4775
487.7470, 140.9395
488.9320, 172.9414
490.1160, 194.9492
491.3000, 218.9629
492.4830, 55.98047
493.6670, 90.68164
494.8500, 91.08496
496.0340, 76.15430
497.2170, 196.2275
498.4000, 23.30469
499.5820, 25.38574
500.7650, 125.4678
501.9480, 41.55469
503.1300, 156.6455
504.3120, 79.50879
505.4940, 120.8369
506.6760, 187.9404
507.8580, 134.0479
509.0390, 44.23828
510.2210, 144.3545
511.4020, 83.47461
512.5830, 143.4990
513.7640, 88.62598
514.9450, 41.75781
516.1250, 9.478516
517.3060, 33.22754
518.4860, 29.89648
519.6660, 109.0576
520.8460, 145.2207
522.0260, 127.7568
523.2060, 8.047852
524.3850, 77.26270
525.5650, 7.446289
526.7440, 42.62012
527.9230, 151.7979
529.1020, 9.978516
530.2810, 115.1982
531.4590, 115.3789
532.6380, 105.5664
533.8160, 55.75391
534.9940, 96.94629
536.1720, 205.1396
537.3500, 86.07422
538.5270, 107.2744
539.7050, 120.4775
540.8820, 18.68359
542.0590, 119.8916
543.2360, 47.10059
544.4130, 165.0635
545.5900, 71.28223
546.7660, 85.50293
547.9430, 32.07227
549.1190, 38.00586
550.2950, 114.2109
551.4710, 32.41797
552.6470, 95.62598
553.8220, 130.8154
554.9980, 108.0283
556.1730, 2.243164
557.3480, 46.45312
558.5230, 11.28418
559.6980, 52.92188
560.8730, 2.144531
562.0470, 109.0566
563.2220, 56.77441
564.3960, 74.97754
565.5700, 51.18262
566.7440, 28.38965
567.9170, 129.6006
569.0910, 0.8154300
570.2640, 19.25586
571.4380, 103.4795
572.6110, 48.68750
573.7840, 160.8975
574.9570, 111.1260
576.1290, 36.35449
577.3020, 26.41602
578.4740, 2.206055
579.6460, 33.88379
580.8180, 35.33301
581.9900, 13.48730
583.1620, 135.6777
584.3330, 165.7988
585.5040, 183.9668
586.6760, 101.1338
587.8470, 59.30176
589.0180, 52.47461
590.1880, 145.7344
591.3590, 82.90820
592.5290, 52.91699
593.7000, 71.22461
594.8700, 120.3672
596.0400, 45.51074
597.2090, 197.6631
598.3790, 186.7178
599.5490, 0.8730470
600.7180, 229.0195
601.8870, 249.1650
603.0560, 84.31055
604.2250, 266.5156
605.3940, 129.6602
606.5620, 37.80469
607.7300, 111.2344
608.8990, 112.3760
610.0670, 97.51660
611.2350, 223.9727
612.4020, 344.0742
613.5700, 462.2139
614.7370, 661.3545
615.9050, 816.4941
617.0720, 1078.969
618.2390, 1136.122
619.4060, 989.3281
620.5720, 780.7842
621.7390, 813.3672
622.9050, 540.5127
624.0710, 478.3379
625.2370, 780.4795
626.4030, 787.6191
627.5690, 946.7559
628.7340, 1123.892
629.9000, 1578.023
631.0650, 1488.153
632.2300, 1453.574
633.3950, 1147.078
634.5600, 900.5303
635.7240, 623.6719
636.8890, 379.8096
638.0530, 399.9443
639.2170, 243.8506
640.3810, 298.8008
641.5450, 157.9287
642.7080, 190.0547
643.8720, 271.1787
645.0350, 197.3027
646.1980, 270.4248
647.3610, 276.5449
648.5240, 217.6631
649.6870, 154.7852
650.8490, 204.9053
652.0120, 103.0225
653.1740, 102.1426
654.3360, 199.2578
655.4980, 189.3701
656.6600, 198.9561
657.8210, 75.56055
658.9830, 144.6406
660.1440, 123.1113
661.3050, 27.23047
662.4660, 73.33984
663.6270, 49.37305
664.7870, 55.29102
665.9480, 72.86621
667.1080, 191.9697
668.2680, 205.0684
669.4280, 163.6328
670.5880, 86.72754
671.7480, 112.8174
672.9070, 67.90430
674.0670, 168.9854
675.2260, 296.0635
676.3850, 108.1357
677.5440, 86.20605
678.7030, 174.2705
679.8610, 159.3379
681.0200, 88.61133
682.1780, 236.6826
683.3360, 88.74805
684.4940, 254.7949
685.6520, 233.8525
686.8090, 86.90430
687.9670, 108.5049
689.1240, 208.5684
690.2810, 63.62891
691.4380, 117.7920
692.5950, 220.8408
693.7520, 159.8896
694.9080, 103.9336
696.0650, 174.1787
697.2210, 31.93848
698.3770, 110.4688
699.5330, 105.6377
700.6880, 135.6533
701.8440, 145.6699
702.9990, 150.5020
704.1550, 73.70996
705.3100, 190.8037
706.4650, 83.31152
707.6190, 155.9268
708.7740, 32.12012
709.9290, 50.92383
711.0830, 94.90430
712.2370, 129.0586
713.3910, 210.9619
714.5450, 176.9346
715.6980, 124.8936
716.8520, 117.5254
718.0050, 200.4844
719.1580, 35.70996
720.3110, 140.8047
721.4640, 85.12695
722.6170, 1.307617
723.7700, 115.2139
724.9220, 143.1152
726.0740, 216.0107
727.2260, 116.9893
728.3780, 40.98730
729.5300, 239.8633
730.6810, 78.73535
731.8330, 194.6621
732.9840, 152.5205
734.1350, 151.8350
735.2860, 167.7773
736.4370, 14.50000
737.5880, 142.3184
738.7380, 102.2725
739.8880, 108.0781
741.0390, 210.8779
742.1890, 42.67090
743.3380, 183.5635
744.4880, 236.3438
745.6380, 4.896484
746.7870, 103.8604
747.9360, 200.6094
749.0850, 26.95801
750.2340, 78.69141
751.3830, 206.4189
752.5310, 163.3594
753.6800, 177.0723
754.8280, 37.21973
755.9760, 139.4521
757.1240, 44.11816
758.2720, 5.177734
759.4190, 19.51855
760.5670, 113.1484
761.7140, 8.771484
762.8610, 161.3848
764.0080, 222.9893
765.1550, 166.5879
766.3020, 118.1865
767.4480, 98.10742
768.5950, 124.3789
769.7410, 29.58789
770.8870, 69.59375
772.0330, 36.92773
773.1780, 160.4238
774.3240, 87.91211
775.4690, 113.3936
776.6140, 148.8682
777.7590, 61.38965
778.9040, 104.3535
780.0490, 110.9756
781.1940, 82.27441
782.3380, 89.41309
783.4820, 88.85742
784.6260, 66.29492
785.7700, 116.8867
786.9140, 155.3105
788.0580, 139.1016
789.2010, 206.5361
790.3450, 151.0430
791.4880, 89.63184
792.6310, 138.0693
793.7730, 43.15723
794.9160, 0.4794920
796.0590, 151.1963
797.2010, 26.53223
798.3430, 126.9727
799.4850, 233.9785
800.6270, 93.29004
801.7690, 29.74805
802.9100, 50.10547
804.0520, 70.55469
805.1930, 167.8389
806.3340, 128.1611
807.4750, 226.4307
808.6160, 159.6924
809.7560, 89.08691
810.8970, 80.33203
812.0370, 248.5713
813.1770, 199.8027
814.3170, 137.0244
815.4570, 129.2402
816.5960, 93.22070
817.7360, 20.24023
818.8750, 88.42773
820.0140, 251.6094
821.1530, 0.2177730
822.2920, 109.9941
823.4310, 78.14648
824.5690, 34.29297
825.7070, 98.44629
826.8460, 192.5908
827.9840, 49.72949
829.1220, 136.8662
830.2590, 85.99512
831.3970, 90.11816
832.5340, 228.2295
833.6710, 12.66113
834.8080, 197.1582
835.9450, 48.24121
837.0820, 137.3154
838.2190, 77.38574
839.3550, 142.4473
840.4910, 219.5000
841.6270, 56.54590
842.7630, 15.58105
843.8990, 11.60449
845.0350, 198.6152
846.1700, 82.38965
847.3060, 168.3711
848.4410, 44.36133
849.5760, 48.65820
850.7100, 75.28613
851.8450, 91.22168
852.9800, 212.1494
854.1140, 199.0781
855.2480, 65.00391
856.3820, 45.77441
857.5160, 115.6934
858.6500, 34.61230
859.7830, 212.5674
860.9170, 196.4668
862.0500, 143.3574
863.1830, 57.24219
864.3160, 51.11621
865.4480, 150.8955
866.5810, 101.7529
867.7130, 143.6016
868.8460, 147.4600
869.9780, 17.30957
871.1100, 21.85352
872.2410, 4.2969000E-02
873.3730, 185.8535
874.5050, 150.6406
875.6360, 158.4229
876.7670, 115.1982
877.8980, 81.98926
879.0290, 52.68750
880.1590, 152.4385
881.2900, 139.1807
882.4200, 136.6299
883.5500, 166.8379
884.6800, 5.127930
885.8100, 113.5605
886.9400, 180.2598
888.0690, 34.95117
889.1990, 152.1729
890.3280, 185.3076
891.4570, 185.6543
892.5860, 109.3125
893.7140, 63.90820
894.8430, 60.24414
895.9710, 129.4443
897.1000, 176.6611
898.2280, 241.5996
899.3560, 233.6436
900.4830, 210.8711
901.6110, 208.0879
902.7380, 87.68262
903.8660, 75.69727
904.9930, 15.72656
906.1200, 30.06348
907.2460, 93.87695
908.3730, 145.1113
909.5000, 115.8086
910.6260, 176.3340
911.7520, 149.8516
912.8780, 57.36133
914.0040, 3.497070
915.1290, 35.02539
916.2550, 12.50977
917.3800, 33.14746
918.5050, 119.6143
919.6300, 98.12402
920.7550, 33.64453
921.8800, 77.18750
923.0040, 12.62402
924.1290, 58.05078
925.2530, 46.47070
926.3770, 28.50391
927.5010, 59.28711
928.6250, 7.683594
929.7480, 18.17383
930.8720, 8.793945
931.9950, 121.5127
933.1180, 43.52832
934.2410, 58.15234
935.3640, 249.5049
936.4860, 26.85156
937.6090, 53.91992
938.7310, 32.20996
939.8530, 214.5625
940.9750, 58.90723
942.0970, 227.2441
943.2180, 165.6221
944.3400, 36.94629
945.4610, 162.2627
946.5820, 141.5732
947.7030, 252.8779
948.8240, 138.1738
949.9450, 77.50781
951.0650, 22.20801
952.1860, 38.94629
953.3060, 83.79199
954.4260, 175.1279
955.5460, 178.3594
956.6650, 56.76758
957.7850, 147.1250
958.9040, 209.4111
960.0230, 189.8594
961.1420, 297.0459
962.2610, 277.3350
963.3800, 307.4072
964.4990, 329.0430
965.6170, 329.9346
966.7350, 355.0879
967.8530, 357.2480
968.9710, 414.6738
970.0890, 529.8203
971.2070, 367.8193
972.3240, 476.9531
973.4410, 403.0830
974.5580, 488.2051
975.6750, 542.3223
976.7920, 630.4082
977.9090, 617.0605
979.0250, 1013.639
980.1410, 1263.754
981.2580, 2082.863
982.3740, 2959.968
983.4890, 4627.887
984.6050, 6939.228
985.7200, 12057.31
986.8360, 22257.39
987.9510, 38956.46
989.0660, 47861.54
990.1810, 36996.54
991.2950, 19521.44
992.4100, 9359.498
993.5240, 4947.287
994.6390, 3075.338
995.7530, 2014.383
996.8660, 1352.422
997.9800, 1213.365
999.0940, 874.2783
1000.207, 794.3008
1001.320, 467.3174
1002.433, 476.3281
1003.546, 505.3340
1004.659, 325.8730
1005.772, 407.7012
1006.884, 328.8975
1007.996, 164.9082
1009.108, 273.9131
1010.220, 333.9141
1011.332, 53.90918
1012.444, 129.8984
1013.555, 91.77539
1014.666, 150.7549
1015.777, 231.7295
1016.888, 145.7041
1017.999, 46.67383
1019.110, 167.0332
1020.220, 193.9941
1021.331, 267.9512
1022.441, 288.6826
1023.551, 173.6299
1024.661, 99.57129
1025.770, 196.5225
1026.880, 112.4688
1027.989, 158.3652
1029.098, 276.2510
1030.207, 6.808594
1031.316, 206.1211
1032.425, 76.05078
1033.533, 117.9756
1034.642, 24.10449
1035.750, 55.79590
1036.858, 36.30859
1037.966, 150.5557
1039.073, 16.80078
1040.181, 124.4238
1041.288, 51.30469
1042.396, 16.80469
1043.503, 202.0713
1044.610, 127.9453
1045.716, 121.8154
1046.823, 40.23438
1047.929, 45.11523
1049.036, 93.79492
1050.142, 14.38184
1051.248, 137.0547
1052.353, 40.88965
1053.459, 36.72070
1054.564, 29.38574
1055.670, 156.2080
1056.775, 245.6816
1057.880, 275.6309
1058.985, 60.33496
1060.089, 418.9463
1061.194, 220.6973
1062.298, 58.48438
1063.402, 12.01465
1064.506, 2.579102
1065.610, 215.8623
1066.713, 0.3085940
1067.817, 183.4023
1068.920, 227.1611
1070.023, 90.31055
1071.126, 55.99414
1072.229, 64.66211
1073.332, 122.4082
1074.435, 139.1211
1075.537, 45.86035
1076.639, 100.5947
1077.741, 72.18750
1078.843, 109.9160
1079.945, 143.6396
1081.046, 110.3594
1082.148, 46.07715
1083.249, 261.7900
1084.350, 279.7256
1085.451, 131.6738
1086.551, 25.37891
1087.652, 49.08008
1088.752, 16.40137
1089.853, 15.41504
1090.953, 31.09961
1092.053, 22.21875
1093.152, 95.44629
1094.252, 25.10840
1095.351, 33.23340
1096.451, 70.40430
1097.550, 77.03711
1098.649, 127.6689
1099.748, 265.8408
1100.846, 273.4658
1101.945, 326.0967
1103.043, 359.9834
1104.141, 180.3477
1105.239, 382.1025
1106.337, 162.7217
1107.434, 153.3379
1108.532, 39.86914
1109.629, 31.48047
1110.726, 31.18945
1111.823, 113.9014
1112.920, 91.50684
1114.017, 147.1084
1115.113, 219.7080
1116.210, 13.69531
1117.306, 92.90625
1118.402, 303.5039
1119.498, 350.0986
1120.593, 126.6914
1121.689, 196.2031
1122.784, 169.7891
1123.879, 313.3730
1124.974, 227.9551
1126.069, 163.5352
1127.164, 275.1123
1128.259, 312.6875
1129.353, 301.2598
1130.447, 317.8281
1131.541, 428.3965
1132.635, 580.9609
1133.729, 679.5234
1134.822, 866.6826
1135.916, 1168.640
1137.009, 1282.198
1138.102, 1480.900
1139.195, 1784.467
1140.288, 2421.032
1141.380, 2565.593
1142.473, 3449.150
1143.565, 3611.685
1144.657, 3789.238
1145.749, 3364.789
1146.841, 2887.336
1147.932, 2412.881
1149.024, 2106.425
1150.115, 1521.915
1151.206, 1315.499
1152.297, 984.0391
1153.388, 838.5859
1154.479, 683.1328
1155.569, 449.6748
1156.659, 614.2158
1157.750, 682.7529
1158.839, 518.2900
1159.929, 222.8242
1161.019, 126.3770
1162.108, 77.61719
1163.198, 188.8848
1164.287, 166.4287
1165.376, 191.9707
1166.465, 369.8438
1167.553, 200.3779
1168.642, 285.4824
1169.730, 275.0146
1170.818, 216.3945
1171.906, 243.7578
1172.994, 247.5869
1174.082, 210.9521
1175.170, 218.0469
1176.257, 215.5752
1177.344, 19.10059
1178.431, 82.99219
1179.518, 49.47949
1180.605, 22.00195
1181.691, 169.5703
1182.778, 72.08887
1183.864, 212.5596
1184.950, 111.0117
1186.036, 84.54883
1187.122, 106.0664
1188.207, 6.584961
1189.292, 198.0996
1190.378, 351.6221
1191.463, 127.1445
1192.548, 0.3349610
1193.632, 136.4209
1194.717, 139.7695
1195.801, 7.062500
1196.886, 7.446289
1197.970, 232.6865
1199.054, 117.1914
1200.137, 102.3037
1201.221, 260.1445
1202.305, 30.58398
1203.388, 62.02930
1204.471, 44.47266
1205.554, 107.9160
1206.637, 155.3066
1207.719, 212.8496
1208.802, 136.2871
1209.884, 141.7383
1210.966, 70.18945
1212.048, 293.6387
1213.130, 109.0410
1214.212, 170.4863
1215.293, 33.93945
1216.374, 174.4082
1217.456, 122.7656
1218.536, 170.3574
1219.617, 83.66016
1220.698, 230.9727
1221.778, 149.3496
1222.859, 304.2715
1223.939, 167.7344
1225.019, 119.0859
1226.099, 217.3184
1227.178, 196.7773
1228.258, 240.2344
1229.337, 40.30859
1230.417, 79.12500
1231.496, 162.5566
1232.574, 353.9883
1233.653, 297.4199
1234.732, 13.84961
1235.810, 133.2773
1236.888, 204.7051
1237.966, 13.86719
1239.044, 185.4961
1240.122, 119.8223
1241.199, 66.84961
1242.277, 216.5273
1243.354, 310.9043
1244.431, 284.2793
1245.508, 140.6523
1246.585, 184.8418
1247.661, 86.36914
1248.738, 121.7422
1249.814, 241.1113
1250.890, 14.52148
1251.966, 340.8379
1253.042, 152.1953
1254.117, 100.5527
1255.193, 168.9727
1256.268, 47.32812
1257.343, 132.6816
1258.418, 126.0352
1259.493, 130.3887
1260.567, 124.7402
1261.642, 218.0898
1262.716, 182.4414
1263.790, 271.7891
1264.864, 402.1367
1265.938, 277.0703
1267.011, 66.58203
1268.085, 213.7266
1269.158, 122.0332
1270.231, 133.3398
1271.304, 158.6445
1272.377, 196.9492
1273.450, 245.2520
1274.522, 78.55469
1275.594, 352.8555
1276.666, 119.1523
1277.738, 127.6172
1278.810, 199.9121
1279.882, 36.49023
1280.953, 206.0312
1282.025, 126.4141
1283.096, 167.8164
1284.167, 297.1074
1285.238, 203.3965
1286.308, 173.6836
1287.379, 214.2227
1288.449, 123.5215
1289.519, 378.6504
1290.589, 65.96094
1291.659, 156.2539
1292.729, 335.5488
1293.798, 215.8418
1294.868, 102.1328
1295.937, 202.4316
1297.006, 202.7324
1298.075, 116.0410
1299.143, 297.3496
1300.212, 21.65820
1301.280, 228.9609
1302.348, 323.2656
1303.416, 5.425781
1304.484, 241.8848
1305.552, 129.3711
1306.620, 200.5410
1307.687, 123.8535
1308.754, 131.1641
1309.821, 49.47656
1310.888, 122.8008
1311.955, 244.1035
1313.021, 227.3809
1314.088, 28.94727
1315.154, 367.2207
1316.220, 139.5000
1317.286, 197.5859
1318.352, 176.0215
1319.417, 152.5215
1320.483, 270.9688
1321.548, 382.1289
1322.613, 131.4023
1323.678, 286.6777
1324.743, 87.28516
1325.807, 235.5312
1326.872, 240.9355
1327.936, 217.3672
1329.000, 187.1895
1330.064, 215.4668
1331.128, 218.6680
1332.191, 174.9473
1333.255, 113.2051
1334.318, 190.4824
1335.381, 29.75781
1336.444, 85.03516
1337.507, 229.1172
1338.569, 242.5078
1339.632, 239.7871
1340.694, 192.0625
1341.756, 78.33984
1342.818, 204.6172
1343.880, 305.4277
1344.941, 154.7031
1346.003, 28.03125
1347.064, 57.62695
1348.125, 141.9629
1349.186, 130.2480
1350.247, 238.5312
1351.308, 192.0098
1352.368, 198.3008
1353.428, 220.4141
1354.489, 146.8984
1355.549, 179.1992
1356.608, 201.5039
1357.668, 97.25781
1358.727, 66.56641
1359.787, 214.1230
1360.846, 185.4258
1361.905, 350.7305
1362.964, 200.9023
1364.022, 146.2070
1365.081, 219.6074
1366.139, 217.9766
1367.197, 194.2637
1368.255, 196.5527
1369.313, 131.6055
1370.371, 143.2949
1371.428, 95.09180
1372.486, 124.3789
1373.543, 71.63867
1374.600, 24.90234
1375.657, 137.1680
1376.713, 72.88086
1377.770, 136.7188
1378.826, 106.0625
1379.882, 63.35156
1380.938, 174.6094
1381.994, 48.91016
1383.050, 95.16797
1384.106, 118.4043
1385.161, 230.6387
1386.216, 152.0977
1387.271, 276.3320
1388.326, 68.56445
1389.381, 97.79883
1390.435, 124.0293
1391.490, 299.2656
1392.544, 7.500000
1393.598, 272.6934
1394.652, 139.7500
1395.705, 134.9414
1396.759, 139.1172
1397.812, 216.2891
1398.866, 193.4609
1399.919, 266.6289
1400.972, 94.79492
1402.024, 181.9629
1403.077, 79.12695
1404.129, 27.28711
1405.181, 79.44727
1406.233, 1.076172
1407.285, 8.947266
1408.337, 34.12891
1409.389, 42.01172
1410.440, 70.15430
1411.491, 209.2949
1412.542, 99.43555
1413.593, 9.931641
1414.644, 67.06836
1415.695, 76.74805
1416.745, 68.36719
1417.795, 109.4805
1418.845, 189.5898
1419.895, 219.8945
1420.945, 143.3613
1421.995, 198.9922
1423.044, 189.1035
1424.093, 94.43164
1425.142, 136.8301
1426.191, 94.66992
1427.240, 125.6582
1428.289, 165.7871
1429.337, 157.9199
1430.385, 75.49414
1431.433, 33.66992
1432.481, 75.85547
1433.529, 240.2461
1434.577, 151.2891
1435.624, 39.30664
1436.672, 117.0996
1437.719, 15.90625
1438.766, 228.0742
1439.812, 9.039063
1440.859, 171.5840
1441.905, 82.24609
1442.952, 110.3379
1443.998, 32.78125
1445.044, 28.03711
1446.090, 39.65625
1447.135, 7.107422
1448.181, 105.4336
1449.226, 143.7617
1450.271, 104.0957
1451.316, 49.45508
1452.361, 54.84766
1453.405, 48.24023
1454.450, 53.52148
1455.494, 85.90039
1456.538, 157.2578
1457.582, 153.6191
1458.626, 275.9727
1459.670, 114.1660
1460.713, 118.4902
1461.757, 124.8320
1462.800, 56.82812
1463.843, 62.51367
1464.886, 297.8535
1465.928, 179.2188
1466.971, 216.5840
1468.013, 284.9492
1469.055, 20.68555
1470.097, 186.6895
1471.139, 82.08984
1472.181, 18.51367
1473.222, 82.94141
1474.263, 180.1738
1475.305, 152.6016
1476.346, 52.04492
1477.386, 183.4082
1478.427, 133.8574
1479.468, 109.3047
1480.508, 157.7578
1481.548, 214.2129
1482.588, 113.8496
1483.628, 100.3301
1484.668, 41.83984
1485.707, 260.3574
1486.747, 288.8828
1487.786, 266.4141
1488.825, 180.7031
1489.864, 83.44727
1490.902, 255.5938
1491.941, 306.1016
1492.979, 294.2168
1494.017, 328.3574
1495.055, 310.9941
1496.093, 237.6855
1497.131, 327.0703
1498.168, 199.4551
1499.206, 313.8457
1500.243, 315.2422
1501.280, 101.6367
1502.317, 318.7031
1503.354, 322.1152
1504.390, 102.2520
1505.426, 131.8027
1506.463, 97.70508
1507.499, 115.1328
1508.535, 293.8672
1509.570, 318.2812
1510.606, 54.68945
1511.641, 172.7969
1512.676, 447.6074
1513.711, 169.7051
1514.746, 159.0859
1515.781, 161.4688
1516.816, 462.8496
1517.850, 243.1270
1518.884, 289.3242
1519.918, 208.5078
1520.952, 333.7500
1521.986, 260.8965
1523.019, 170.8027
1524.053, 167.3223
1525.086, 200.3047
1526.119, 113.2637
1527.152, 292.2012
1528.185, 409.3711
1529.217, 243.2363
1530.250, 221.0684
1531.282, 207.6230
1532.314, 197.4844
1533.346, 127.5273
1534.377, 316.5449
1535.409, 228.5352
1536.440, 169.4316
1537.472, 33.36133
1538.503, 359.1992
1539.534, 24.03906
1540.564, 334.0371
1541.595, 174.1562
1542.625, 138.1875
1543.656, 60.17969
1544.686, 56.31836
1545.716, 21.87500
1546.745, 147.1289
1547.775, 78.69922
1548.804, 155.3203
1549.834, 379.0117
1550.863, 277.7910
1551.892, 179.6699
1552.920, 330.6309
1553.949, 401.6855
1554.977, 131.1074
1556.006, 103.3848
1557.034, 55.48047
1558.062, 176.2891
1559.089, 161.4199
1560.117, 194.7891
1561.144, 200.8262
1562.172, 204.1172
1563.199, 257.7656
1564.226, 23.10938
1565.252, 5.304688
1566.279, 105.2383
1567.305, 182.1914
1568.332, 17.86523
1569.358, 28.69727
1570.384, 0.0000000E+00
##END=



