##NAMES=Baryte
##RRUFFID=R050375
##IDEAL CHEMISTRY=BaS^6+^O_4_
##LOCALITY=unknown
##OWNER=RRUFF
##SOURCE=Eugene Schlepp
##DESCRIPTION=Pale green tabular crystals
##STATUS=The identification of this mineral has been confirmed by X-ray diffraction and chemical analysis
##URL=rruff.info/R050375
##MEASURED CHEMISTRY=Ba_1.00_SO_4_
##PIN_ID=L01220
##ORIENTATION=Laser parallel to -c* (0 0 -1). Fiducial mark perpendicular to laser is parallel to -a [-1 0 0]
51.43100, 0.0000000E+00
52.67100, 15.64832
53.91000, 32.64661
55.14900, 54.37604
56.38700, 52.93372
57.62600, 38.69113
58.86400, 2.521484
60.10300, 3.469238
61.34100, 0.6572880
62.57900, 15.19266
63.81700, 1.111267
65.05400, 7.816406
66.29200, 0.5151370
67.52900, 21.91980
68.76700, 38.97412
70.00400, 82.75543
71.24100, 122.8424
72.47700, 213.5702
73.71400, 309.7734
74.95100, 425.4161
76.18700, 483.4681
77.42300, 489.9014
78.65900, 381.6935
79.89500, 342.8236
81.13100, 370.2742
82.36700, 386.0299
83.60200, 474.0767
84.83700, 489.4019
86.07200, 533.9940
87.30800, 636.8425
88.54200, 699.9377
89.77700, 752.2640
91.01200, 800.8015
92.24600, 871.5334
93.48000, 900.4478
94.71400, 904.5347
95.94800, 1010.786
97.18200, 1083.195
98.41600, 1076.757
99.64900, 1118.467
100.8830, 1151.319
102.1160, 1199.312
103.3490, 1119.442
104.5820, 1157.929
105.8150, 1057.106
107.0470, 1137.635
108.2800, 1109.294
109.5120, 1075.082
110.7440, 1108.995
111.9760, 1054.031
113.2080, 1017.190
114.4400, 1012.467
115.6710, 980.8622
116.9030, 975.3723
118.1340, 960.8059
119.3650, 952.1497
120.5960, 945.5771
121.8270, 935.5312
123.0580, 945.5927
124.2880, 918.7598
125.5190, 974.0111
126.7490, 942.2848
127.9790, 984.5745
129.2090, 957.8739
130.4390, 954.8022
131.6680, 905.5077
132.8980, 917.8689
134.1270, 915.2698
135.3560, 859.7137
136.5850, 903.2039
137.8140, 848.7429
139.0430, 955.3334
140.2710, 888.9778
141.5000, 824.6808
142.7280, 842.4421
143.9560, 918.2598
145.1840, 915.1355
146.4120, 826.0701
147.6390, 885.0632
148.8670, 869.1166
150.0940, 941.2296
151.3210, 1023.415
152.5490, 991.6707
153.7750, 1104.000
155.0020, 1094.395
156.2290, 997.8584
157.4550, 1026.386
158.6810, 954.9752
159.9080, 851.6399
161.1340, 914.3755
162.3590, 882.1941
163.5850, 863.0913
164.8110, 792.0505
166.0360, 755.0752
167.2610, 780.1604
168.4860, 775.3174
169.7110, 827.5317
170.9360, 752.8037
172.1610, 755.1333
173.3850, 724.5200
174.6100, 772.9639
175.8340, 771.4648
177.0580, 775.0227
178.2820, 734.6373
179.5050, 739.9731
180.7290, 731.3511
181.9520, 721.8179
183.1760, 715.6562
184.3990, 706.5498
185.6220, 674.4980
186.8450, 770.5012
188.0670, 741.5586
189.2900, 737.6700
190.5120, 702.8352
191.7340, 691.9197
192.9560, 709.3253
194.1780, 675.6494
195.4000, 632.0264
196.6220, 650.4551
197.8430, 678.9358
199.0640, 639.4095
200.2860, 596.8082
201.5070, 573.1306
202.7270, 621.3407
203.9480, 594.5442
205.1690, 576.7194
206.3890, 587.3972
207.6090, 567.2462
208.8290, 572.8247
210.0490, 532.9053
211.2690, 530.6686
212.4890, 495.5358
213.7080, 561.4883
214.9280, 480.5247
216.1470, 485.6450
217.3660, 527.8423
218.5850, 453.1172
219.8030, 469.4824
221.0220, 463.9177
222.2400, 474.4211
223.4590, 455.9907
224.6770, 468.6248
225.8950, 397.3267
227.1120, 446.0898
228.3300, 364.0669
229.5480, 407.9502
230.7650, 402.2158
231.9820, 399.2166
233.1990, 434.2749
234.4160, 385.3911
235.6330, 384.5601
236.8490, 414.7827
238.0660, 436.0632
239.2820, 394.3938
240.4980, 405.7744
241.7140, 383.2053
242.9300, 360.6843
244.1460, 365.5349
245.3610, 360.7976
246.5770, 360.4321
247.7920, 351.1125
249.0070, 350.5869
250.2220, 319.5500
251.4370, 294.3652
252.6510, 339.4038
253.8660, 340.3862
255.0800, 309.9009
256.2940, 309.8933
257.5080, 311.1294
258.7220, 314.4756
259.9360, 309.1353
261.1490, 303.2917
262.3630, 297.4895
263.5760, 289.7268
264.7890, 283.1738
266.0020, 257.3379
267.2150, 286.3171
268.4270, 309.7371
269.6400, 254.2974
270.8520, 180.7686
272.0640, 288.1865
273.2760, 202.7463
274.4880, 299.8745
275.7000, 188.5183
276.9120, 262.2578
278.1230, 296.5066
279.3340, 200.2603
280.5450, 216.0576
281.7560, 157.3081
282.9670, 241.1431
284.1780, 246.0540
285.3880, 225.0007
286.5980, 234.9917
287.8090, 250.0186
289.0190, 200.0830
290.2290, 201.1826
291.4380, 185.3179
292.6480, 255.4956
293.8570, 167.7109
295.0670, 220.9617
296.2760, 194.2480
297.4850, 117.5686
298.6930, 228.9229
299.9020, 195.3110
301.1110, 176.7324
302.3190, 248.1870
303.5270, 149.6746
304.7350, 168.1951
305.9430, 191.7478
307.1510, 146.3330
308.3580, 165.9500
309.5660, 179.5986
310.7730, 163.2791
311.9800, 153.9905
313.1870, 158.7329
314.3940, 138.5063
315.6010, 149.3101
316.8070, 142.1445
318.0130, 128.0090
319.2200, 122.9038
320.4260, 154.8284
321.6310, 105.7827
322.8370, 190.7666
324.0430, 99.78003
325.2480, 163.8223
326.4540, 128.8938
327.6590, 185.9939
328.8640, 94.12280
330.0680, 76.28003
331.2730, 112.4653
332.4780, 177.6787
333.6820, 78.92017
334.8860, 134.1890
336.0900, 89.48560
337.2940, 73.80933
338.4980, 106.1604
339.7010, 131.5386
340.9050, 98.94336
342.1080, 95.37451
343.3110, 71.83252
344.5140, 144.3264
345.7170, 97.85693
346.9200, 98.42432
348.1220, 42.02930
349.3240, 100.6716
350.5270, 82.35156
351.7290, 9.152344
352.9310, 56.91162
354.1320, 27.12549
355.3340, 60.04468
356.5350, 75.78027
357.7370, 53.73682
358.9380, 103.6741
360.1390, 78.58228
361.3400, 47.58716
362.5400, 94.22192
363.7410, 32.55347
364.9410, 50.65723
366.1410, 6.792725
367.3410, 38.96045
368.5410, 24.15967
369.7410, 54.38403
370.9400, 27.64575
372.1400, 12.83008
373.3390, 21.49097
374.5380, 21.57568
375.7370, 10.93896
376.9360, 58.86572
378.1350, 101.0698
379.3330, 2.536621
380.5310, 22.28516
381.7300, 25.33643
382.9280, 21.88965
384.1260, 28.49634
385.3230, 23.02759
386.5210, 26.47046
387.7180, 23.86987
388.9160, 19.87476
390.1130, 37.18579
391.3100, 8.935059
392.5060, 34.28223
393.7030, 12.48022
394.9000, 29.34692
396.0960, 46.79932
397.2920, 5.928467
398.4880, 26.91553
399.6840, 61.08765
400.8800, 11.96655
402.0750, 14.88330
403.2710, 24.89160
404.4660, 57.12476
405.6610, 2.247803
406.8560, 17.32153
408.0510, 9.272949
409.2450, 33.15088
410.4400, 26.01270
411.6340, 0.8559570
412.8280, 40.67603
414.0220, 32.51733
415.2160, 83.20801
416.4100, 36.41064
417.6030, 21.10620
418.7970, 49.35522
419.9900, 2.360840
421.1830, 20.05518
422.3760, 49.27124
423.5690, 16.24683
424.7610, 15.38257
425.9540, 31.01538
427.1460, 59.42017
428.3380, 10.84595
429.5300, 68.18848
430.7220, 28.67432
431.9140, 129.6174
433.1050, 60.15479
434.2970, 57.70972
435.4880, 53.03882
436.6790, 101.1626
437.8700, 93.97925
439.0610, 223.8694
440.2510, 233.5090
441.4420, 319.1682
442.6320, 413.8547
443.8220, 513.5608
445.0120, 611.2861
446.2020, 865.0303
447.3910, 1018.798
448.5810, 1221.586
449.7700, 1738.394
450.9600, 2263.221
452.1490, 3007.069
453.3370, 3661.936
454.5260, 3973.821
455.7150, 3661.728
456.9030, 3092.656
458.0910, 2288.600
459.2800, 1798.564
460.4670, 1401.545
461.6550, 1366.550
462.8430, 1380.582
464.0300, 1294.629
465.2180, 1002.694
466.4050, 833.7759
467.5920, 583.8765
468.7790, 367.9954
469.9650, 283.1304
471.1520, 248.2817
472.3380, 195.4490
473.5250, 85.63257
474.7110, 117.8350
475.8970, 129.0525
477.0820, 65.28638
478.2680, 101.5354
479.4540, 84.79956
480.6390, 65.07935
481.8240, 55.37402
483.0090, 60.68384
484.1940, 40.00781
485.3780, 95.34692
486.5630, 63.70068
487.7470, 48.06836
488.9320, 86.45264
490.1160, 49.85327
491.3000, 46.26782
492.4830, 34.69775
493.6670, 11.14136
494.8500, 19.59668
496.0340, 1.251465
497.2170, 12.05200
498.4000, 7.968018
499.5820, 14.52563
500.7650, 35.03101
501.9480, 8.451416
503.1300, 41.06982
504.3120, 0.3967290
505.4940, 72.85718
506.6760, 122.6572
507.8580, 86.18408
509.0390, 40.72217
510.2210, 112.2715
511.4020, 7.168213
512.5830, 41.39355
513.7640, 11.96606
514.9450, 92.39453
516.1250, 2.987305
517.3060, 16.26343
518.4860, 4.871582
519.6660, 0.5153810
520.8460, 60.10083
522.0260, 13.72681
523.2060, 14.63892
524.3850, 77.99146
525.5650, 25.63086
526.7440, 16.27905
527.9230, 81.93408
529.1020, 7.257813
530.2810, 14.40430
531.4590, 13.66528
532.6380, 86.99683
533.8160, 70.17065
534.9940, 51.10107
536.1720, 94.71362
537.3500, 51.40869
538.5270, 82.32324
539.7050, 23.93921
540.8820, 2.912598
542.0590, 33.80322
543.2360, 24.32471
544.4130, 83.80249
545.5900, 54.00830
546.7660, 26.91260
547.9430, 43.29321
549.1190, 5.932617
550.2950, 73.92041
551.4710, 35.86694
552.6470, 71.01001
553.8220, 98.75684
554.9980, 45.40967
556.1730, 38.11890
557.3480, 12.76123
558.5230, 18.90576
559.6980, 23.73120
560.8730, 78.02539
562.0470, 49.72852
563.2220, 48.75024
564.3960, 12.47656
565.5700, 98.28784
566.7440, 0.3591310
567.9170, 30.70142
569.0910, 38.97168
570.2640, 17.07373
571.4380, 34.11328
572.6110, 12.88428
573.7840, 33.70361
574.9570, 34.47949
576.1290, 13.74048
577.3020, 11.02954
578.4740, 24.21191
579.6460, 21.98901
580.8180, 46.77295
581.9900, 51.50049
583.1620, 63.89941
584.3330, 68.94067
585.5040, 71.75439
586.6760, 65.55566
587.8470, 84.22168
589.0180, 119.5544
590.1880, 123.6323
591.3590, 125.4456
592.5290, 161.1282
593.7000, 124.9475
594.8700, 174.7693
596.0400, 104.8623
597.2090, 149.8315
598.3790, 158.6707
599.5490, 148.9155
600.7180, 167.7500
601.8870, 146.0435
603.0560, 198.0027
604.2250, 226.8418
605.3940, 230.6824
606.5620, 244.5254
607.7300, 394.9099
608.8990, 471.1204
610.0670, 560.9675
611.2350, 743.8159
612.4020, 987.6646
613.5700, 1257.526
614.7370, 1836.039
615.9050, 2496.890
617.0720, 3235.789
618.2390, 3616.641
619.4060, 3321.492
620.5720, 2707.344
621.7390, 2034.196
622.9050, 1432.048
624.0710, 1171.899
625.2370, 1053.751
626.4030, 1002.602
627.5690, 982.4531
628.7340, 1162.792
629.9000, 1120.182
631.0650, 1183.032
632.2300, 1026.271
633.3950, 860.1194
634.5600, 659.8904
635.7240, 549.7417
636.8890, 358.1729
638.0530, 278.9360
639.2170, 307.9170
640.3810, 169.7107
641.5450, 221.5564
642.7080, 116.4644
643.8720, 164.3774
645.0350, 175.6416
646.1980, 179.2222
647.3610, 106.2429
648.5240, 151.0815
649.6870, 137.9189
650.8490, 180.7551
652.0120, 99.59595
653.1740, 185.4294
654.3360, 126.0295
655.4980, 71.28906
656.6600, 114.6172
657.8210, 91.63159
658.9830, 89.94189
660.1440, 139.1089
661.3050, 152.9351
662.4660, 113.7791
663.6270, 76.12769
664.7870, 97.95532
665.9480, 60.75635
667.1080, 98.35669
668.2680, 43.17944
669.4280, 112.8660
670.5880, 33.39917
671.7480, 125.6233
672.9070, 3.565186
674.0670, 98.23120
675.2260, 43.02930
676.3850, 113.8662
677.5440, 26.85303
678.7030, 6.654053
679.8610, 94.32471
681.0200, 118.1572
682.1780, 79.94409
683.3360, 54.61597
684.4940, 5.401123
685.6520, 39.17798
686.8090, 6.130615
687.9670, 55.62573
689.1240, 32.07251
690.2810, 51.82300
691.4380, 63.57471
692.5950, 119.4165
693.7520, 95.79004
694.9080, 14.54321
696.0650, 54.33325
697.2210, 24.69434
698.3770, 39.20361
699.5330, 77.75171
700.6880, 59.49829
701.8440, 7.242920
702.9990, 58.98120
704.1550, 112.0901
705.3100, 79.90723
706.4650, 27.66577
707.6190, 15.79443
708.7740, 32.71802
709.9290, 17.83032
711.0830, 57.40015
712.2370, 41.68140
713.3910, 58.42603
714.5450, 77.16040
715.6980, 66.42285
716.8520, 8.059814
718.0050, 59.41504
719.1580, 89.20312
720.3110, 76.89014
721.4640, 14.42505
722.6170, 74.24170
723.7700, 47.90625
724.9220, 95.56836
726.0740, 0.7717290
727.2260, 17.87671
728.3780, 25.51929
729.5300, 119.1575
730.6810, 1.002441
731.8330, 127.6279
732.9840, 123.2510
734.1350, 6.128174
735.2860, 34.47900
736.4370, 49.43921
737.5880, 17.09106
738.7380, 63.74390
739.8880, 9.663818
741.0390, 21.08667
742.1890, 97.46973
743.3380, 82.02368
744.4880, 121.8564
745.6380, 10.40527
746.7870, 18.94727
747.9360, 84.73608
749.0850, 127.2698
750.2340, 109.8008
751.3830, 48.32935
752.5310, 4.855469
753.6800, 110.3730
754.8280, 43.88843
755.9760, 90.41064
757.1240, 118.9204
758.2720, 150.4277
759.4190, 133.4434
760.5670, 133.4395
761.7140, 69.93481
762.8610, 100.4321
764.0080, 55.92725
765.1550, 56.41992
766.3020, 9.910156
767.4480, 7.158936
768.5950, 55.87134
769.7410, 14.34619
770.8870, 99.81519
772.0330, 151.3699
773.1780, 63.83472
774.3240, 67.29736
775.4690, 84.75952
776.6140, 79.21997
777.7590, 86.68237
778.9040, 67.14233
780.0490, 85.60059
781.1940, 40.06030
782.3380, 46.51733
783.4820, 87.97607
784.6260, 27.45117
785.7700, 67.92236
786.9140, 103.3914
788.0580, 102.8582
789.2010, 85.32471
790.3450, 85.79395
791.4880, 81.26074
792.6310, 8.726563
793.7730, 37.34888
794.9160, 14.80884
796.0590, 93.26489
797.2010, 33.72144
798.3430, 87.19702
799.4850, 17.65259
800.6270, 41.61646
801.7690, 110.0742
802.9100, 51.52979
804.0520, 99.98364
805.1930, 81.43701
806.3340, 33.74438
807.4750, 44.19824
808.6160, 76.38940
809.7560, 83.84790
810.8970, 116.8018
812.0370, 85.25757
813.1770, 38.59277
814.3170, 21.04443
815.4570, 46.10181
816.5960, 87.56616
817.7360, 26.01489
818.8750, 83.50122
820.0140, 89.95044
821.1530, 85.38110
822.2920, 65.81909
823.4310, 85.10547
824.5690, 76.81470
825.7070, 69.77271
826.8460, 77.53027
827.9840, 45.94580
829.1220, 27.39307
830.2590, 4.160645
831.3970, 70.27905
832.5340, 25.03003
833.6710, 40.46704
834.8080, 135.5393
835.9450, 42.86572
837.0820, 41.32422
838.2190, 103.7815
839.3550, 60.45239
840.4910, 90.90771
841.6270, 24.36938
842.7630, 38.82886
843.8990, 1.963379
845.0350, 10.99731
846.1700, 47.27686
847.3060, 14.31982
848.4410, 33.68921
849.5760, 25.19653
850.7100, 26.65820
851.8450, 0.8759770
852.9800, 18.76636
854.1140, 82.64648
855.2480, 19.89331
856.3820, 57.55591
857.5160, 87.00464
858.6500, 47.65942
859.7830, 70.10742
860.9170, 100.5393
862.0500, 48.98657
863.1830, 118.4521
864.3160, 88.49463
865.4480, 56.67456
866.5810, 2.121826
867.7130, 102.7017
868.8460, 77.14868
869.9780, 105.5950
871.1100, 33.77295
872.2410, 4.923096
873.3730, 15.84058
874.5050, 14.54199
875.6360, 33.98511
876.7670, 58.97095
877.8980, 59.29321
879.0290, 70.73730
880.1590, 4.818115
881.2900, 26.62476
882.4200, 36.52783
883.5500, 4.393555
884.6800, 30.04883
885.8100, 42.49219
886.9400, 60.93555
888.0690, 38.36768
889.1990, 50.15088
890.3280, 65.59717
891.4570, 16.99561
892.5860, 46.44385
893.7140, 107.8926
894.8430, 65.34277
895.9710, 49.79395
897.1000, 20.24609
898.2280, 21.21094
899.3560, 181.1533
900.4830, 49.60840
901.6110, 79.06494
902.7380, 126.0352
903.8660, 44.05908
904.9930, 79.51953
906.1200, 22.59033
907.2460, 21.94238
908.3730, 44.51611
909.5000, 31.97607
910.6260, 56.43750
911.7520, 54.97949
912.8780, 74.36475
914.0040, 23.83008
915.1290, 39.29736
916.2550, 13.76611
917.3800, 48.16895
918.5050, 15.89209
919.6300, 110.3687
920.7550, 120.6655
921.8800, 22.14502
923.0040, 81.62549
924.1290, 123.5225
925.2530, 27.00732
926.3770, 130.4932
927.5010, 66.98145
928.6250, 4.953613
929.7480, 16.46143
930.8720, 154.6392
931.9950, 18.13867
933.1180, 4.535156
934.2410, 93.03809
935.3640, 30.50537
936.4860, 86.94287
937.6090, 117.4419
938.7310, 14.94287
939.8530, 78.45703
940.9750, 128.9731
942.0970, 109.3887
943.2180, 111.8833
944.3400, 16.40869
945.4610, 67.99561
946.5820, 21.53174
947.7030, 81.06934
948.8240, 36.56836
949.9450, 31.91797
951.0650, 68.07129
952.1860, 61.62451
953.3060, 22.95215
954.4260, 33.59619
955.5460, 17.37646
956.6650, 89.12256
957.7850, 55.68115
958.9040, 21.24268
960.0230, 108.8135
961.1420, 117.3867
962.2610, 133.9648
963.3800, 183.5449
964.4990, 195.2314
965.6170, 195.1929
966.7350, 363.7803
967.8530, 309.2725
968.9710, 341.8599
970.0890, 360.4585
971.2070, 329.0605
972.3240, 406.6641
973.4410, 516.2705
974.5580, 556.8823
975.6750, 606.5010
976.7920, 772.0386
977.9090, 908.6577
979.0250, 1225.856
980.1410, 1755.292
981.2580, 2513.926
982.3740, 3822.414
983.4890, 5885.038
984.6050, 8236.626
985.7200, 12515.36
986.8360, 21765.65
987.9510, 39637.96
989.0660, 57472.62
990.1810, 54314.91
991.2950, 35337.59
992.4100, 18525.25
993.5240, 9192.933
994.6390, 5082.613
995.7530, 3057.297
996.8660, 2220.984
997.9800, 1480.872
999.0940, 1190.570
1000.207, 836.2725
1001.320, 742.7686
1002.433, 700.7393
1003.546, 530.4536
1004.659, 494.1719
1005.772, 415.8979
1006.884, 362.2710
1007.996, 292.9526
1009.108, 251.6318
1010.220, 273.3730
1011.332, 250.1226
1012.444, 182.8848
1013.555, 227.6499
1014.666, 209.1367
1015.777, 211.9077
1016.888, 197.6841
1017.999, 199.2129
1019.110, 184.9971
1020.220, 221.7847
1021.331, 128.5752
1022.441, 98.36914
1023.551, 136.1689
1024.661, 102.9722
1025.770, 144.7686
1026.880, 186.5781
1027.989, 141.3911
1029.098, 201.2075
1030.207, 109.0264
1031.316, 114.8486
1032.425, 29.67432
1033.533, 42.50293
1034.642, 37.33496
1035.750, 84.17041
1036.858, 4.989258
1037.966, 60.85596
1039.073, 89.82275
1040.181, 52.37207
1041.288, 146.1411
1042.396, 110.0005
1043.503, 113.8633
1044.610, 48.72949
1045.716, 84.59863
1046.823, 73.47168
1047.929, 62.34814
1049.036, 65.22705
1050.142, 48.48438
1051.248, 9.629883
1052.353, 99.47607
1053.459, 22.36621
1054.564, 21.26025
1055.670, 117.1582
1056.775, 12.94141
1057.880, 60.95850
1058.985, 33.86230
1060.089, 62.92578
1061.194, 46.32324
1062.298, 41.56348
1063.402, 65.78320
1064.506, 42.70654
1065.610, 88.63330
1066.713, 43.54492
1067.817, 7.511719
1068.920, 62.92334
1070.023, 31.62988
1071.126, 33.58203
1072.229, 58.21973
1073.332, 94.17871
1074.435, 55.14111
1075.537, 33.30273
1076.639, 20.27197
1077.741, 1.756348
1078.843, 77.21729
1079.945, 31.19531
1081.046, 35.17529
1082.148, 9.158691
1083.249, 14.85400
1084.350, 63.13086
1085.451, 18.11816
1086.551, 76.07422
1087.652, 6.931641
1088.752, 5.937012
1089.853, 78.05957
1090.953, 53.05859
1092.053, 28.06055
1093.152, 182.0659
1094.252, 101.2764
1095.351, 76.28857
1096.451, 5.696289
1097.550, 97.32031
1098.649, 95.34229
1099.748, 81.36816
1100.846, 193.3975
1101.945, 202.4297
1103.043, 211.4648
1104.141, 283.5029
1105.239, 343.5444
1106.337, 258.5884
1107.434, 191.6035
1108.532, 102.6533
1109.629, 134.7070
1110.726, 75.76318
1111.823, 91.82422
1112.920, 58.88867
1114.017, 47.95605
1115.113, 58.02686
1116.210, 13.10107
1117.306, 22.82227
1118.402, 89.24756
1119.498, 44.32227
1120.593, 75.40576
1121.689, 81.49121
1122.784, 69.58643
1123.879, 126.6953
1124.974, 118.8066
1126.069, 164.9214
1127.164, 95.03809
1128.259, 27.15820
1129.353, 4.719727
1130.447, 35.40430
1131.541, 83.52930
1132.635, 156.6582
1133.729, 6.201172
1134.822, 144.9399
1135.916, 84.08398
1137.009, 75.25537
1138.102, 111.4048
1139.195, 182.5581
1140.288, 206.7168
1141.380, 237.8784
1142.473, 278.0430
1143.565, 371.2100
1144.657, 395.3853
1145.749, 491.5654
1146.841, 385.7485
1147.932, 425.9346
1149.024, 231.1230
1150.115, 253.3149
1151.206, 150.5112
1152.297, 123.7104
1153.388, 110.9136
1154.479, 143.1187
1155.569, 144.3262
1156.659, 88.53613
1157.750, 71.74805
1158.839, 127.9629
1159.929, 65.17920
1161.019, 68.39844
1162.108, 79.61963
1163.198, 133.8438
1164.287, 57.07031
1165.376, 16.29883
1166.465, 96.52930
1167.553, 113.7622
1168.642, 11.89111
1169.730, 1.872070
1170.818, 13.63428
1171.906, 22.59912
1172.994, 21.83936
1174.082, 73.08154
1175.170, 10.32666
1176.257, 114.5732
1177.344, 14.82227
1178.431, 111.0728
1179.518, 115.3257
1180.605, 7.418945
1181.691, 64.83447
1182.778, 4.178223
1183.864, 49.07715
1184.950, 74.33447
1186.036, 28.59375
1187.122, 89.85498
1188.207, 44.70410
1189.292, 20.96924
1190.378, 2.763672
1191.463, 9.679199
1192.548, 9.629395
1193.632, 5.968750
1194.717, 7.292969
1195.801, 8.556152
1196.886, 12.82178
1197.970, 58.48486
1199.054, 36.52881
1200.137, 13.19434
1201.221, 54.07715
1202.305, 44.64990
1203.388, 47.64258
1204.471, 37.89600
1205.554, 2.849609
1206.637, 15.40479
1207.719, 11.87744
1208.802, 51.85840
1209.884, 54.11719
1210.966, 53.37744
1212.048, 109.6396
1213.130, 103.9028
1214.212, 54.55322
1215.293, 101.8198
1216.374, 158.0889
1217.456, 107.3643
1218.536, 80.41016
1219.617, 70.49463
1220.698, 115.7744
1221.778, 63.05566
1222.859, 98.39941
1223.939, 3.300781
1225.019, 124.1118
1226.099, 87.41309
1227.178, 106.5210
1228.258, 31.82373
1229.337, 39.19824
1230.417, 73.50391
1231.496, 37.81104
1232.574, 49.11963
1233.653, 133.4292
1234.732, 13.74023
1235.810, 103.0522
1236.888, 16.63477
1237.966, 124.6714
1239.044, 151.9785
1240.122, 68.28711
1241.199, 116.5962
1242.277, 124.9062
1243.354, 78.21777
1244.431, 127.5415
1245.508, 99.85498
1246.585, 119.1694
1247.661, 80.35645
1248.738, 85.93896
1249.814, 122.9907
1250.890, 93.30859
1251.966, 104.6279
1253.042, 134.6382
1254.117, 87.95898
1255.193, 98.28076
1256.268, 27.60352
1257.343, 53.43994
1258.418, 128.2515
1259.493, 78.38379
1260.567, 142.7100
1261.642, 141.0376
1262.716, 94.47754
1263.790, 53.54785
1264.864, 148.9497
1265.938, 2.279785
1267.011, 142.6104
1268.085, 169.9424
1269.158, 78.85156
1270.231, 50.18408
1271.304, 154.5176
1272.377, 22.06152
1273.450, 89.65479
1274.522, 51.42041
1275.594, 158.7568
1276.666, 70.09375
1277.738, 107.4307
1278.810, 72.78857
1279.882, 99.62256
1280.953, 40.06592
1282.025, 82.68213
1283.096, 129.0332
1284.167, 152.3838
1285.238, 94.73535
1286.308, 104.0864
1287.379, 153.4375
1288.449, 82.78906
1289.519, 96.20459
1290.589, 139.5557
1291.659, 109.9077
1292.729, 139.2593
1293.798, 151.6108
1294.868, 75.96289
1295.937, 183.3140
1297.006, 78.66553
1298.075, 176.0464
1299.143, 50.27979
1300.212, 86.93799
1301.280, 95.29150
1302.348, 120.6450
1303.416, 133.0791
1304.484, 146.3408
1305.552, 143.7026
1306.620, 145.0537
1307.687, 131.4043
1308.754, 71.75391
1309.821, 73.75537
1310.888, 18.10254
1311.955, 56.23242
1313.021, 120.5801
1314.088, 149.9258
1315.154, 107.2710
1316.220, 104.7065
1317.286, 65.05225
1318.352, 127.3955
1319.417, 56.58105
1320.483, 55.43408
1321.548, 87.28369
1322.613, 33.31934
1323.678, 81.65771
1324.743, 43.98535
1325.807, 34.68604
1326.872, 91.63281
1327.936, 91.95312
1329.000, 81.51709
1330.064, 27.83838
1331.128, 6.478516
1332.191, 74.80127
1333.255, 81.12500
1334.318, 30.25293
1335.381, 113.5781
1336.444, 101.9038
1337.507, 44.22949
1338.569, 88.55615
1339.632, 87.88281
1340.694, 45.21045
1341.756, 70.53760
1342.818, 104.8691
1343.880, 75.75977
1344.941, 86.77734
1346.003, 59.15430
1347.064, 60.48926
1348.125, 61.82520
1349.186, 47.16260
1350.247, 8.499512
1351.308, 125.4854
1352.368, 5.606445
1353.428, 86.04102
1354.489, 97.36426
1355.549, 64.68896
1356.608, 12.00146
1357.668, 50.48193
1358.727, 85.62598
1359.787, 90.93408
1360.846, 120.2598
1361.905, 118.5562
1362.964, 60.85254
1364.022, 78.14844
1365.081, 74.58057
1366.139, 76.87061
1367.197, 71.49316
1368.255, 88.44922
1369.313, 40.73779
1370.371, 59.02637
1371.428, 25.31445
1372.486, 134.6025
1373.543, 96.92090
1374.600, 90.20801
1375.657, 74.50000
1376.713, 84.79102
1377.770, 102.0815
1378.826, 52.37256
1379.882, 37.33740
1380.938, 84.94043
1381.994, 35.21875
1383.050, 106.4956
1384.106, 98.77197
1385.161, 81.22998
1386.216, 90.58838
1387.271, 115.8652
1388.326, 117.1426
1389.381, 27.58057
1390.435, 38.68750
1391.490, 18.95605
1392.544, 109.2241
1393.598, 36.70654
1394.652, 132.9746
1395.705, 2.758301
1396.759, 42.50781
1397.812, 47.86182
1398.866, 6.214844
1399.919, 13.36621
1400.972, 0.1250000
1402.024, 67.12305
1403.077, 48.33008
1404.129, 67.53613
1405.181, 33.74072
1406.233, 0.9653320
1407.285, 21.64746
1408.337, 5.845215
1409.389, 82.70166
1410.440, 92.89697
1411.491, 48.09131
1412.542, 75.28467
1413.593, 47.29004
1414.644, 47.66602
1415.695, 29.06201
1416.745, 65.24805
1417.795, 96.43164
1418.845, 142.6143
1419.895, 84.81494
1420.945, 120.9893
1421.995, 70.16162
1423.044, 47.33008
1424.093, 39.50098
1425.142, 60.65918
1426.191, 73.43750
1427.240, 93.59570
1428.289, 104.6875
1429.337, 78.83301
1430.385, 132.9468
1431.433, 63.00049
1432.481, 151.0400
1433.529, 159.0703
1434.577, 185.0894
1435.624, 43.09668
1436.672, 64.09229
1437.719, 154.1353
1438.766, 103.1274
1439.812, 161.0391
1440.859, 79.93311
1441.905, 28.80762
1442.952, 104.0073
1443.998, 126.8242
1445.044, 56.76123
1446.090, 67.46631
1447.135, 99.78467
1448.181, 122.1650
1449.226, 149.5479
1450.271, 193.4722
1451.316, 178.8374
1452.361, 131.1768
1453.405, 183.5708
1454.450, 133.9678
1455.494, 98.36523
1456.538, 124.7637
1457.582, 200.1631
1458.626, 149.5620
1459.670, 192.9595
1460.713, 161.3579
1461.757, 119.6870
1462.800, 155.9214
1463.843, 166.2852
1464.886, 101.5684
1465.928, 100.9326
1466.971, 120.2964
1468.013, 157.6602
1469.055, 14.03076
1470.097, 140.4067
1471.139, 64.78369
1472.181, 81.14746
1473.222, 143.5264
1474.263, 94.90674
1475.305, 110.2876
1476.346, 47.84277
1477.386, 106.5020
1478.427, 32.84766
1479.468, 113.1914
1480.508, 90.53564
1481.548, 95.96338
1482.588, 143.1729
1483.628, 73.48193
1484.668, 68.96533
1485.707, 54.95850
1486.747, 139.7754
1487.786, 94.03613
1488.825, 92.26514
1489.864, 32.60840
1490.902, 126.4067
1491.941, 105.6089
1492.979, 108.8101
1494.017, 63.90771
1495.055, 84.10303
1496.093, 113.2969
1497.131, 89.49121
1498.168, 53.63428
1499.206, 87.82080
1500.243, 114.0029
1501.280, 169.1860
1502.317, 66.37109
1503.354, 145.5591
1504.390, 118.7002
1505.426, 102.8950
1506.463, 121.0967
1507.499, 73.12402
1508.535, 114.3350
1509.570, 28.56201
1510.606, 45.79150
1511.641, 94.05762
1512.676, 124.3188
1513.711, 116.5732
1514.746, 115.8203
1515.781, 104.0605
1516.816, 71.29297
1517.850, 24.52100
1518.884, 125.7437
1519.918, 134.9580
1520.952, 68.45459
1521.986, 47.63574
1523.019, 48.16357
1524.053, 23.08008
1525.086, 55.09619
1526.119, 53.08398
1527.152, 95.12354
1528.185, 144.1597
1529.217, 110.1792
1530.250, 42.27002
1531.282, 27.95166
1532.314, 73.14990
1533.346, 0.2446290
1534.377, 149.3311
1535.409, 113.3013
1536.440, 105.3657
1537.472, 61.41846
1538.503, 164.4600
1539.534, 29.49023
1540.564, 125.7695
1541.595, 106.3936
1542.625, 112.3247
1543.656, 63.22607
1544.686, 136.9756
1545.716, 178.7651
1546.745, 154.0522
1547.775, 66.43164
1548.804, 139.1201
1549.834, 4.179199
1550.863, 123.6768
1551.892, 91.11377
1552.920, 36.72217
1553.949, 42.44287
1554.977, 103.8179
1556.006, 142.6489
1557.034, 67.65918
1558.062, 85.19727
1559.089, 70.60156
1560.117, 65.57715
1561.144, 21.25146
1562.172, 28.04346
1563.199, 87.72363
1564.226, 50.76660
1565.252, 42.17139
1566.279, 0.8715820
1567.305, 45.50977
1568.332, 9.787109
1569.358, 9.108398
1570.384, 0.0000000E+00
##END=



