##NAMES=Baryte
##RRUFFID=R050375
##IDEAL CHEMISTRY=BaS^6+^O_4_
##LOCALITY=unknown
##OWNER=RRUFF
##SOURCE=Eugene Schlepp
##DESCRIPTION=Pale green tabular crystals
##STATUS=The identification of this mineral has been confirmed by X-ray diffraction and chemical analysis
##URL=rruff.info/R050375
##MEASURED CHEMISTRY=Ba_1.00_SO_4_
##PIN_ID=L01098
##ORIENTATION=Laser parallel to -a* (-1 0 0). Fiducial mark perpendicular to laser is parallel to -b [0 -1 0]
51.43100, 0.0000000E+00
52.67100, 15.59021
53.91000, 10.76788
55.14900, 8.688507
56.38700, 29.10464
57.62600, 15.49057
58.86400, 1.743408
60.10300, 12.78186
61.34100, 23.21655
62.57900, 49.11920
63.81700, 112.8149
65.05400, 165.9621
66.29200, 258.2289
67.52900, 303.8052
68.76700, 366.8853
70.00400, 443.4229
71.24100, 592.3777
72.47700, 749.7126
73.71400, 815.3942
74.95100, 775.3945
76.18700, 700.6877
77.42300, 513.2528
78.65900, 373.0706
79.89500, 281.1251
81.13100, 290.4019
82.36700, 264.8880
83.60200, 286.5715
84.83700, 311.4423
86.07200, 353.4901
87.30800, 396.7062
88.54200, 448.0824
89.77700, 512.6071
91.01200, 536.2673
92.24600, 530.0536
93.48000, 562.9572
94.71400, 548.9719
95.94800, 575.0945
97.18200, 540.3206
98.41600, 589.6455
99.64900, 587.0654
100.8830, 602.5759
102.1160, 563.1750
103.3490, 497.8600
104.5820, 494.6304
105.8150, 458.4851
107.0470, 467.4227
108.2800, 470.4404
109.5120, 452.7889
110.7440, 471.7063
111.9760, 427.9496
113.2080, 407.2635
114.4400, 375.6461
115.6710, 379.8274
116.9030, 449.6095
118.1340, 400.1868
119.3650, 433.8259
120.5960, 442.5250
121.8270, 426.2828
123.0580, 445.0989
124.2880, 433.9714
125.5190, 434.8868
126.7490, 422.8047
127.9790, 485.7318
129.2090, 493.6650
130.4390, 454.6069
131.6680, 450.5784
132.8980, 435.5669
134.1270, 411.5750
135.3560, 401.6045
136.5850, 439.6637
137.8140, 434.7667
139.0430, 453.9326
140.2710, 419.1349
141.5000, 467.3640
142.7280, 495.6277
143.9560, 559.9195
145.1840, 574.2389
146.4120, 576.5867
147.6390, 609.9628
148.8670, 592.3676
150.0940, 594.8016
151.3210, 650.2783
152.5490, 629.7996
153.7750, 577.3492
155.0020, 613.9472
156.2290, 516.5992
157.4550, 507.3089
158.6810, 457.0638
159.9080, 436.8690
161.1340, 407.1133
162.3590, 397.5676
163.5850, 351.4600
164.8110, 342.3771
166.0360, 324.3192
167.2610, 314.2860
168.4860, 302.5994
169.7110, 290.8914
170.9360, 282.3340
172.1610, 282.3989
173.3850, 276.4882
174.6100, 296.6013
175.8340, 298.7386
177.0580, 322.8997
178.2820, 312.0844
179.5050, 313.2926
180.7290, 301.5242
181.9520, 331.7791
183.1760, 329.0565
184.3990, 329.3568
185.6220, 347.6796
186.8450, 340.0248
188.0670, 344.3921
189.2900, 317.7815
190.5120, 327.1929
191.7340, 359.6256
192.9560, 383.0798
194.1780, 326.6107
195.4000, 272.1067
196.6220, 281.6234
197.8430, 268.1741
199.0640, 267.4231
200.2860, 246.6265
201.5070, 245.1589
202.7270, 230.2565
203.9480, 230.5601
205.1690, 210.8282
206.3890, 188.2594
207.6090, 196.2108
208.8290, 174.2777
210.0490, 143.4584
211.2690, 184.0603
212.4890, 174.7169
213.7080, 139.4250
214.9280, 202.1821
216.1470, 163.9858
217.3660, 147.8372
218.5850, 147.7308
219.8030, 116.6664
221.0220, 142.4171
222.2400, 135.2595
223.4590, 138.3075
224.6770, 115.1614
225.8950, 106.7792
227.1120, 137.9288
228.3300, 141.1102
229.5480, 79.32227
230.7650, 97.62610
231.9820, 77.30481
233.1990, 134.6597
234.4160, 119.9879
235.6330, 134.3475
236.8490, 119.7330
238.0660, 136.1436
239.2820, 132.5795
240.4980, 167.0394
241.7140, 72.52283
242.9300, 97.03076
244.1460, 114.5614
245.3610, 94.11414
246.5770, 142.6893
247.7920, 94.28601
249.0070, 92.35498
250.2220, 85.12561
251.4370, 67.94836
252.6510, 93.09277
253.8660, 60.79077
255.0800, 92.50793
256.2940, 105.4958
257.5080, 121.9147
258.7220, 131.3390
259.9360, 115.0801
261.1490, 131.5834
262.3630, 63.41162
263.5760, 37.78992
264.7890, 82.68469
266.0020, 61.54810
267.2150, 67.45374
268.4270, 93.36462
269.6400, 50.34851
270.8520, 42.13000
272.0640, 66.08679
273.2760, 25.05872
274.4880, 71.04565
275.7000, 123.0483
276.9120, 71.06616
278.1230, 76.09888
279.3340, 85.14771
280.5450, 99.21130
281.7560, 94.72095
282.9670, 91.12939
284.1780, 93.49756
285.3880, 60.62256
286.5980, 67.76331
287.8090, 35.91821
289.0190, 48.08704
290.2290, 51.26965
291.4380, 73.46619
292.6480, 89.67627
293.8570, 43.90002
295.0670, 51.13708
296.2760, 48.38745
297.4850, 43.65100
298.6930, 58.92761
299.9020, 66.21716
301.1110, 50.51941
302.3190, 19.83398
303.5270, 45.16089
304.7350, 47.49988
305.9430, 54.85046
307.1510, 68.21301
308.3580, 69.58716
309.5660, 26.97278
310.7730, 33.36987
311.9800, 48.77832
313.1870, 89.19800
314.3940, 89.62878
315.6010, 30.07056
316.8070, 57.52356
318.0130, 33.98718
319.2200, 23.46191
320.4260, 68.94702
321.6310, 64.44299
322.8370, 60.51343
324.0430, 56.36743
325.2480, 33.99365
326.4540, 32.53125
327.6590, 6.078979
328.8640, 30.63684
330.0680, 46.20483
331.2730, 22.78271
332.4780, 39.37073
333.6820, 4.031616
334.8860, 65.57544
336.0900, 41.19214
337.2940, 43.81848
338.4980, 6.454224
339.7010, 22.09912
340.9050, 8.753296
342.1080, 0.5831300
343.3110, 48.08936
344.5140, 44.77710
345.7170, 38.56067
346.9200, 19.79980
348.1220, 8.930908
349.3240, 8.677246
350.5270, 12.56091
351.7290, 6.786133
352.9310, 19.99561
354.1320, 21.18860
355.3340, 53.65991
356.5350, 34.48157
357.7370, 39.31677
358.9380, 16.16528
360.1390, 14.02698
361.3400, 20.62268
362.5400, 8.510254
363.7410, 8.635376
364.9410, 22.45190
366.1410, 23.53430
367.3410, 37.38770
368.5410, 43.54285
369.7410, 37.61255
370.9400, 24.31592
372.1400, 73.33765
373.3390, 44.28894
374.5380, 1.748535
375.7370, 11.77588
376.9360, 1.165161
378.1350, 8.824585
379.3330, 14.98621
380.5310, 22.38708
381.7300, 28.70630
382.9280, 27.19910
384.1260, 40.24158
385.3230, 30.81226
386.5210, 35.42322
387.7180, 11.70471
388.9160, 24.78723
390.1130, 26.01965
391.3100, 39.12830
392.5060, 9.753540
393.7030, 24.63025
394.9000, 13.50769
396.0960, 5.618164
397.2920, 50.75317
398.4880, 23.89734
399.6840, 3.946167
400.8800, 53.78333
402.0750, 16.52539
403.2710, 32.30627
404.4660, 33.88342
405.6610, 5.452637
406.8560, 30.22937
408.0510, 2.974976
409.2450, 38.83655
410.4400, 4.323975
411.6340, 19.49573
412.8280, 2.675781
414.0220, 15.13696
415.2160, 15.05090
416.4100, 36.25598
417.6030, 6.468994
418.7970, 34.76990
419.9900, 13.00293
421.1830, 61.24390
422.3760, 65.68042
423.5690, 79.93701
424.7610, 96.66052
425.9540, 61.93225
427.1460, 107.2117
428.3380, 98.60608
429.5300, 142.2378
430.7220, 191.5394
431.9140, 226.8488
433.1050, 265.1653
434.2970, 348.4890
435.4880, 449.8196
436.6790, 589.1575
437.8700, 664.5024
439.0610, 928.8542
440.2510, 1180.214
441.4420, 1618.580
442.6320, 2139.953
443.8220, 2678.333
445.0120, 3332.720
446.2020, 3811.114
447.3910, 4068.514
448.5810, 4275.923
449.7700, 4615.337
450.9600, 5192.758
452.1490, 5833.186
453.3370, 6573.619
454.5260, 6970.060
455.7150, 6661.507
456.9030, 5981.961
458.0910, 5114.422
459.2800, 4721.888
460.4670, 4547.362
461.6550, 4358.841
462.8430, 4358.328
464.0300, 4042.822
465.2180, 3389.322
466.4050, 2457.828
467.5920, 1674.340
468.7790, 1168.858
469.9650, 839.3835
471.1520, 628.9146
472.3380, 495.4514
473.5250, 431.9950
474.7110, 335.5443
475.8970, 243.0992
477.0820, 237.6060
478.2680, 208.1724
479.4540, 190.7444
480.6390, 171.5264
481.8240, 151.1639
483.0090, 137.4948
484.1940, 110.0892
485.3780, 111.6758
486.5630, 79.28125
487.7470, 119.8922
488.9320, 122.5085
490.1160, 46.59033
491.3000, 97.21924
492.4830, 92.85327
493.6670, 41.18652
494.8500, 45.69189
496.0340, 16.75537
497.2170, 13.77185
498.4000, 56.42920
499.5820, 27.09131
500.7650, 20.75806
501.9480, 62.43054
503.1300, 3.885498
504.3120, 38.79773
505.4940, 7.485229
506.6760, 34.17493
507.8580, 34.09253
509.0390, 31.96033
510.2210, 9.663086
511.4020, 44.59827
512.5830, 31.80798
513.7640, 9.522217
514.9450, 22.23987
516.1250, 70.96191
517.3060, 44.62573
518.4860, 4.052612
519.6660, 40.62183
520.8460, 13.64587
522.0260, 38.08032
523.2060, 24.81091
524.3850, 7.545166
525.5650, 31.43835
526.7440, 39.17883
527.9230, 3.922729
529.1020, 37.66772
530.2810, 48.41626
531.4590, 9.055176
532.6380, 43.47034
533.8160, 45.24988
534.9940, 53.55920
536.1720, 46.19055
537.3500, 78.32764
538.5270, 72.09790
539.7050, 58.75317
540.8820, 52.77759
542.0590, 31.91748
543.2360, 6.177002
544.4130, 23.34668
545.5900, 2.535156
546.7660, 3.774170
547.9430, 4.742432
549.1190, 8.683960
550.2950, 10.44727
551.4710, 18.56274
552.6470, 18.27234
553.8220, 24.92090
554.9980, 20.67920
556.1730, 29.65857
557.3480, 37.59949
558.5230, 24.43140
559.6980, 6.904175
560.8730, 26.03479
562.0470, 15.87866
563.2220, 2.721802
564.3960, 30.56592
565.5700, 2.587524
566.7440, 31.25989
567.9170, 21.10962
569.0910, 5.965332
570.2640, 0.1755370
571.4380, 15.70178
572.6110, 31.58301
573.7840, 43.44543
574.9570, 48.43506
576.1290, 26.17944
577.3020, 42.04810
578.4740, 42.91919
579.6460, 16.79260
580.8180, 34.81799
581.9900, 81.69946
583.1620, 94.59790
584.3330, 80.49817
585.5040, 76.40002
586.6760, 112.3077
587.8470, 64.27161
589.0180, 112.3110
590.1880, 107.2327
591.3590, 161.1566
592.5290, 175.0811
593.7000, 137.0068
594.8700, 129.9343
596.0400, 186.9932
597.2090, 203.9236
598.3790, 282.8600
599.5490, 246.7990
600.7180, 284.7463
601.8870, 361.8505
603.0560, 480.1484
604.2250, 619.1045
605.3940, 836.0615
606.5620, 1157.128
607.7300, 1654.087
608.8990, 2318.047
610.0670, 2801.223
611.2350, 3075.187
612.4020, 3295.172
613.5700, 3590.740
614.7370, 3644.273
615.9050, 3976.239
617.0720, 4167.217
618.2390, 4291.185
619.4060, 4037.154
620.5720, 3488.215
621.7390, 2855.184
622.9050, 2301.154
624.0710, 1944.123
625.2370, 1772.093
626.4030, 1472.145
627.5690, 1301.190
628.7340, 1254.160
629.9000, 1186.701
631.0650, 1118.674
632.2300, 998.6470
633.3950, 795.6199
634.5600, 578.5938
635.7240, 430.5688
636.8890, 346.5387
638.0530, 236.4783
639.2170, 237.4719
640.3810, 203.4515
641.5450, 187.6687
642.7080, 136.2782
643.8720, 153.8403
645.0350, 80.81824
646.1980, 123.5706
647.3610, 131.5476
648.5240, 136.5276
649.6870, 146.5848
650.8490, 97.43201
652.0120, 148.5162
653.1740, 45.51196
654.3360, 52.42505
655.4980, 73.46887
656.6600, 74.46216
657.8210, 48.45520
658.9830, 27.81824
660.1440, 43.81201
661.3050, 51.69397
662.4660, 29.79053
663.6270, 65.78162
664.7870, 8.639893
665.9480, 24.62769
667.1080, 32.62976
668.2680, 40.34021
669.4280, 45.32520
670.5880, 7.690796
671.7480, 3.852173
672.9070, 19.11597
674.0670, 65.08252
675.2260, 42.05054
676.3850, 31.02222
677.5440, 54.99585
678.7030, 60.96814
679.8610, 5.060669
681.0200, 53.14331
682.1780, 11.82166
683.3360, 16.01331
684.4940, 50.11401
685.6520, 46.88293
686.8090, 51.66589
687.9670, 45.47400
689.1240, 86.39600
690.2810, 3.577393
691.4380, 5.299072
692.5950, 40.47705
693.7520, 56.14856
694.9080, 56.21045
696.0650, 27.38074
697.2210, 77.71533
698.3770, 2.150757
699.5330, 5.852783
700.6880, 25.80554
701.8440, 42.73657
702.9990, 65.55774
704.1550, 64.55261
705.3100, 70.48682
706.4650, 53.45142
707.6190, 60.17200
708.7740, 40.50330
709.9290, 23.07776
711.0830, 22.98730
712.2370, 34.89453
713.3910, 46.79980
714.5450, 26.70813
715.6980, 34.60901
716.8520, 42.59631
718.0050, 57.64001
719.1580, 14.22412
720.3110, 53.30859
721.4640, 78.77307
722.6170, 37.65918
723.7700, 48.54260
724.9220, 59.32263
726.0740, 27.32104
727.2260, 21.19629
728.3780, 73.07043
729.5300, 32.93921
730.6810, 52.80493
731.8330, 35.66809
732.9840, 61.58228
734.1350, 20.53662
735.2860, 67.39587
736.4370, 50.27051
737.5880, 61.39246
738.7380, 70.94995
739.8880, 20.95032
741.0390, 11.51086
742.1890, 70.58655
743.3380, 49.41455
744.4880, 25.23950
745.6380, 53.06030
746.7870, 55.91467
747.9360, 17.72913
749.0850, 76.10144
750.2340, 34.90759
751.3830, 20.71021
752.5310, 54.50818
753.6800, 61.30286
754.8280, 36.09424
755.9760, 44.88220
757.1240, 40.66699
758.2720, 26.44849
759.4190, 74.22583
760.5670, 78.99988
761.7140, 51.77075
762.8610, 40.53821
764.0080, 27.30261
765.1550, 28.06274
766.3020, 50.81909
767.4480, 3.572144
768.5950, 100.3168
769.7410, 55.05811
770.8870, 51.79626
772.0330, 89.53101
773.1780, 84.26270
774.3240, 70.99097
775.4690, 48.71606
776.6140, 35.66125
777.7590, 71.15686
778.9040, 14.87244
780.0490, 14.41748
781.1940, 11.27515
782.3380, 89.96521
783.4820, 55.65186
784.6260, 96.33655
785.7700, 80.01782
786.9140, 26.69592
788.0580, 68.37012
789.2010, 24.04236
790.3450, 78.71045
791.4880, 81.37524
792.6310, 29.03711
793.7730, 55.69592
794.9160, 111.3514
796.0590, 60.00623
797.2010, 45.66077
798.3430, 28.31213
799.4850, 21.96484
800.6270, 63.61353
801.7690, 33.25903
802.9100, 60.74524
804.0520, 33.38525
805.1930, 44.02185
806.3340, 47.65686
807.4750, 73.28857
808.6160, 83.03076
809.7560, 51.99609
810.8970, 81.59753
812.0370, 73.58118
813.1770, 55.83594
814.3170, 77.45105
815.4570, 42.06299
816.5960, 34.67224
817.7360, 8.537842
818.8750, 21.13916
820.0140, 52.59717
821.1530, 9.808838
822.2920, 18.40015
823.4310, 59.98962
824.5690, 36.57715
825.7070, 61.16260
826.8460, 5.745605
827.9840, 10.02332
829.1220, 6.158569
830.2590, 4.594360
831.3970, 12.96057
832.5340, 16.48804
833.6710, 6.935425
834.8080, 4.467651
835.9450, 6.533325
837.0820, 18.58997
838.2190, 23.10852
839.3550, 10.62805
840.4910, 20.14539
841.6270, 4.339722
842.7630, 22.16968
843.8990, 8.323242
845.0350, 3.825806
846.1700, 61.66504
847.3060, 23.13635
848.4410, 73.60364
849.5760, 47.08960
850.7100, 20.57336
851.8450, 43.05212
852.9800, 7.531738
854.1140, 3.008301
855.2480, 7.518311
856.3820, 0.7998050
857.5160, 53.73950
858.6500, 21.68872
859.7830, 82.11523
860.9170, 11.46021
862.0500, 31.04590
863.1830, 112.3030
864.3160, 17.57593
865.4480, 26.96655
866.5810, 54.35474
867.7130, 27.74170
868.8460, 7.127441
869.9780, 2.510498
871.1100, 14.76172
872.2410, 14.85913
873.3730, 2.490723
874.5050, 26.12646
875.6360, 0.7790530
876.7670, 10.58911
877.8980, 2.597168
879.0290, 16.73535
880.1590, 27.06641
881.2900, 65.28760
882.4200, 4.616211
883.5500, 38.94312
884.6800, 8.947021
885.8100, 87.37231
886.9400, 81.67090
888.0690, 68.81787
889.1990, 50.13403
890.3280, 49.44922
891.4570, 43.71826
892.5860, 46.34644
893.7140, 48.37817
894.8430, 66.59619
895.9710, 77.90698
897.1000, 101.2173
898.2280, 135.5269
899.3560, 74.83594
900.4830, 124.0627
901.6110, 58.29565
902.7380, 25.60254
903.8660, 78.33813
904.9930, 35.64453
906.1200, 35.95020
907.2460, 6.255859
908.3730, 58.56079
909.5000, 87.86597
910.6260, 119.1750
911.7520, 47.51831
912.8780, 95.81348
914.0040, 80.12231
915.1290, 133.1948
916.2550, 98.87476
917.3800, 119.8806
918.5050, 147.1926
919.6300, 125.5042
920.7550, 81.81885
921.8800, 110.1372
923.0040, 130.3823
924.1290, 121.8042
925.2530, 137.0308
926.3770, 101.3525
927.5010, 102.6741
928.6250, 143.0471
929.7480, 120.3762
930.8720, 158.2319
931.9950, 171.5688
933.1180, 110.9065
934.2410, 126.1992
935.3640, 164.4387
936.4860, 134.7852
937.6090, 152.1152
938.7310, 175.4653
939.8530, 156.8010
940.9750, 151.1528
942.0970, 143.5056
943.2180, 129.5435
944.3400, 137.2263
945.4610, 111.5933
946.5820, 98.96118
947.7030, 100.3303
948.8240, 137.7007
949.9450, 151.0723
951.0650, 149.4448
952.1860, 171.5730
953.3060, 103.9570
954.4260, 178.2656
955.5460, 180.6519
956.6650, 156.8687
957.7850, 246.1917
958.9040, 266.5884
960.0230, 357.9868
961.1420, 381.3870
962.2610, 366.5515
963.3800, 379.8022
964.4990, 427.3972
965.6170, 552.0972
966.7350, 573.4072
967.8530, 656.3745
968.9710, 727.6465
970.0890, 754.8801
971.2070, 860.1648
972.3240, 1111.577
973.4410, 1270.010
974.5580, 1519.366
975.6750, 1930.793
976.7920, 2583.667
977.9090, 3718.110
979.0250, 5871.755
980.1410, 10353.68
981.2580, 19386.14
982.3740, 34201.61
983.4890, 48484.05
984.6050, 48074.52
985.7200, 46051.98
986.8360, 49617.46
987.9510, 56088.85
989.0660, 60879.16
990.1810, 57062.95
991.2950, 41927.25
992.4100, 24045.15
993.5240, 12507.64
994.6390, 6966.127
995.7530, 4301.723
996.8660, 2949.098
997.9800, 2226.599
999.0940, 1734.102
1000.207, 1409.610
1001.320, 1123.121
1002.433, 956.6372
1003.546, 807.1021
1004.659, 763.5281
1005.772, 623.0493
1006.884, 561.5564
1007.996, 457.8164
1009.108, 470.6421
1010.220, 473.0259
1011.332, 372.8496
1012.444, 305.1580
1013.555, 277.7148
1014.666, 265.2756
1015.777, 271.8408
1016.888, 264.3738
1017.999, 281.9478
1019.110, 228.9639
1020.220, 167.5471
1021.331, 162.1355
1022.441, 195.7283
1023.551, 152.3257
1024.661, 262.9272
1025.770, 150.5337
1026.880, 90.14453
1027.989, 178.7600
1029.098, 114.3813
1030.207, 134.0073
1031.316, 128.6379
1032.425, 100.2732
1033.533, 107.9131
1034.642, 104.5576
1035.750, 97.20728
1036.858, 67.86157
1037.966, 90.52295
1039.073, 66.18921
1040.181, 59.86011
1041.288, 100.5356
1042.396, 33.22095
1043.503, 58.89404
1044.610, 3.380371
1045.716, 46.31885
1046.823, 22.02295
1047.929, 29.01099
1049.036, 91.72559
1050.142, 51.45215
1051.248, 21.42822
1052.353, 41.16577
1053.459, 68.38696
1054.564, 27.04370
1055.670, 43.79541
1056.775, 7.181641
1057.880, 36.58130
1058.985, 44.34961
1060.089, 4.122559
1061.194, 7.099609
1062.298, 38.01221
1063.402, 20.67480
1064.506, 45.12158
1065.610, 17.91260
1066.713, 6.873535
1067.817, 96.67407
1068.920, 49.82715
1070.023, 27.64185
1071.126, 77.77661
1072.229, 78.60059
1073.332, 83.42944
1074.435, 140.2668
1075.537, 170.3232
1076.639, 199.9329
1077.741, 271.7839
1078.843, 332.6396
1079.945, 375.5151
1081.046, 421.3953
1082.148, 442.2805
1083.249, 475.1704
1084.350, 420.0654
1085.451, 524.9646
1086.551, 473.8694
1087.652, 305.7795
1088.752, 225.6943
1089.853, 268.6155
1090.953, 108.5415
1092.053, 79.47217
1093.152, 78.40723
1094.252, 48.34717
1095.351, 82.29248
1096.451, 127.2434
1097.550, 172.2024
1098.649, 231.1694
1099.748, 283.1414
1100.846, 296.1179
1101.945, 295.1199
1103.043, 295.1169
1104.141, 283.1191
1105.239, 239.1262
1106.337, 244.1377
1107.434, 195.1636
1108.532, 189.1936
1109.629, 126.2312
1110.726, 140.2727
1111.823, 76.32275
1112.920, 32.37988
1114.017, 86.44141
1115.113, 48.50757
1116.210, 33.57788
1117.306, 43.65308
1118.402, 45.73242
1119.498, 68.81665
1120.593, 63.90527
1121.689, 131.9993
1122.784, 33.10132
1123.879, 53.20801
1124.974, 45.33496
1126.069, 95.46631
1127.164, 97.60205
1128.259, 60.74609
1129.353, 63.90649
1130.447, 67.07080
1131.541, 97.23975
1132.635, 142.4131
1133.729, 129.5906
1134.822, 163.7725
1135.916, 200.9585
1137.009, 266.8879
1138.102, 316.6370
1139.195, 414.5505
1140.288, 425.7607
1141.380, 437.9824
1142.473, 452.2095
1143.565, 446.4441
1144.657, 454.6841
1145.749, 380.9282
1146.841, 321.1760
1147.932, 289.4285
1149.024, 317.6846
1150.115, 201.9453
1151.206, 226.2126
1152.297, 137.4836
1153.388, 164.7588
1154.479, 67.03809
1155.569, 98.32129
1156.659, 51.60840
1157.750, 95.89917
1158.839, 51.19409
1159.929, 65.76636
1161.019, 101.0691
1162.108, 91.37573
1163.198, 56.68628
1164.287, 154.0012
1165.376, 96.32056
1166.465, 83.64355
1167.553, 111.9707
1168.642, 145.3008
1169.730, 82.63477
1170.818, 53.97266
1171.906, 48.31372
1172.994, 57.80981
1174.082, 22.84229
1175.170, 0.4992680
1176.257, 93.81348
1177.344, 16.16382
1178.431, 7.476807
1179.518, 69.88306
1180.605, 47.24634
1181.691, 6.387207
1182.778, 3.979980
1183.864, 11.64966
1184.950, 20.38647
1186.036, 7.083496
1187.122, 6.546875
1188.207, 32.23291
1189.292, 69.60571
1190.378, 13.98169
1191.463, 6.360352
1192.548, 27.35791
1193.632, 11.98511
1194.717, 21.74048
1195.801, 6.226318
1196.886, 24.40601
1197.970, 9.954102
1199.054, 7.716064
1200.137, 25.64648
1201.221, 6.988525
1202.305, 79.37598
1203.388, 43.74292
1204.471, 58.99316
1205.554, 19.63428
1206.637, 15.73145
1207.719, 54.10010
1208.802, 70.47144
1209.884, 37.41064
1210.966, 53.78662
1212.048, 55.33350
1213.130, 99.71411
1214.212, 88.87402
1215.293, 49.48169
1216.374, 86.86914
1217.456, 66.26050
1218.536, 65.65918
1219.617, 84.31543
1220.698, 71.71802
1221.778, 83.12329
1222.859, 87.53027
1223.939, 68.93896
1225.019, 29.34985
1226.099, 125.7625
1227.178, 53.17676
1228.258, 75.59277
1229.337, 58.01074
1230.417, 43.23608
1231.496, 42.65723
1232.574, 64.08032
1233.653, 67.50488
1234.732, 84.93140
1235.810, 48.35913
1236.888, 64.92114
1237.966, 110.3518
1239.044, 30.78516
1240.122, 48.21948
1241.199, 103.6636
1242.277, 106.1006
1243.354, 72.53882
1244.431, 48.97827
1245.508, 81.41870
1246.585, 17.86035
1247.661, 24.30615
1248.738, 49.75220
1249.814, 56.22900
1250.890, 72.67725
1251.966, 37.12646
1253.042, 14.57715
1254.117, 48.02808
1255.193, 83.47998
1256.268, 61.93286
1257.343, 29.38647
1258.418, 100.3928
1259.493, 122.8484
1260.567, 32.30420
1261.642, 129.7605
1262.716, 70.21704
1263.790, 86.67456
1264.864, 55.13232
1265.938, 53.66821
1267.011, 98.12671
1268.085, 93.58521
1269.158, 69.04419
1270.231, 96.50342
1271.304, 106.9626
1272.377, 35.42188
1273.450, 35.88159
1274.522, 53.34106
1275.594, 72.80078
1276.666, 63.26001
1277.738, 17.71948
1278.810, 108.1790
1279.882, 46.63818
1280.953, 91.09717
1282.025, 75.55542
1283.096, 51.01416
1284.167, 88.47217
1285.238, 102.9304
1286.308, 65.38794
1287.379, 85.84497
1288.449, 2.301514
1289.519, 89.85425
1290.589, 108.3074
1291.659, 22.78027
1292.729, 59.40918
1293.798, 23.98022
1294.868, 76.48169
1295.937, 37.93188
1297.006, 82.38159
1298.075, 31.83105
1299.143, 100.2798
1300.212, 41.72754
1301.280, 10.82520
1302.348, 59.61157
1303.416, 24.06470
1304.484, 76.74341
1305.552, 37.17773
1306.620, 95.97290
1307.687, 56.12646
1308.754, 15.56030
1309.821, 38.99316
1310.888, 28.18164
1311.955, 42.61353
1313.021, 18.56616
1314.088, 40.08789
1315.154, 29.02222
1316.220, 0.8151860
1317.286, 49.60791
1318.352, 40.02856
1319.417, 42.44800
1320.483, 45.86499
1321.548, 50.94873
1322.613, 40.83667
1323.678, 60.24341
1324.743, 16.65552
1325.807, 54.92944
1326.872, 9.658203
1327.936, 44.40283
1329.000, 9.806885
1330.064, 19.87939
1331.128, 82.26611
1332.191, 8.346924
1333.255, 104.0356
1334.318, 58.44043
1335.381, 33.82104
1336.444, 66.24170
1337.507, 51.37817
1338.569, 30.98633
1339.632, 3.398926
1340.694, 100.7581
1341.756, 18.11646
1342.818, 33.47437
1343.880, 109.9443
1344.941, 47.72705
1346.003, 15.31250
1347.064, 2.718994
1348.125, 83.06177
1349.186, 42.40356
1350.247, 119.7444
1351.308, 16.08447
1352.368, 110.4236
1353.428, 43.76196
1354.489, 53.09644
1355.549, 49.42969
1356.608, 44.76196
1357.668, 5.907227
1358.727, 21.41919
1359.787, 47.86426
1360.846, 26.18823
1361.905, 72.51147
1362.964, 42.87671
1364.022, 26.80225
1365.081, 51.50854
1366.139, 31.07495
1367.197, 79.38354
1368.255, 17.69067
1369.313, 68.02368
1370.371, 20.32764
1371.428, 24.62817
1372.486, 25.92725
1373.543, 77.22534
1374.600, 78.13916
1375.657, 46.43481
1376.713, 15.72656
1377.770, 44.00635
1378.826, 65.29688
1379.882, 88.57397
1380.938, 44.84912
1381.994, 86.16626
1383.050, 29.43433
1384.106, 40.73145
1385.161, 0.8339840
1386.216, 70.42651
1387.271, 81.68530
1388.326, 77.94238
1389.381, 37.19824
1390.435, 35.45264
1391.490, 63.70581
1392.544, 12.95703
1393.598, 99.20630
1394.652, 90.45386
1395.705, 42.69995
1396.759, 55.93872
1397.812, 31.16235
1398.866, 35.42456
1399.919, 29.64453
1400.972, 50.86279
1402.024, 93.11694
1403.077, 89.33154
1404.129, 88.54248
1405.181, 30.75195
1406.233, 31.95825
1407.285, 69.15942
1408.337, 29.35864
1409.389, 56.58032
1410.440, 61.77441
1411.491, 81.95703
1412.542, 75.20801
1413.593, 37.31470
1414.644, 80.49023
1415.695, 13.38867
1416.745, 65.61206
1417.795, 25.77539
1418.845, 8.936279
1419.895, 12.12915
1420.945, 19.43164
1421.995, 71.43335
1423.044, 52.65430
1424.093, 71.88672
1425.142, 50.02783
1426.191, 50.16675
1427.240, 60.30273
1428.289, 55.47876
1429.337, 48.60913
1430.385, 4.741943
1431.433, 63.87183
1432.481, 13.94946
1433.529, 50.16870
1434.577, 61.76367
1435.624, 94.92603
1436.672, 110.0317
1437.719, 141.3516
1438.766, 44.73438
1439.812, 111.8240
1440.859, 9.0576001E-02
1441.905, 54.97900
1442.952, 85.46729
1443.998, 45.38574
1445.044, 61.35303
1446.090, 46.14185
1447.135, 35.75537
1448.181, 73.10425
1449.226, 103.4626
1450.271, 40.83789
1451.316, 28.19751
1452.361, 80.55933
1453.405, 92.99268
1454.450, 50.35254
1455.494, 110.8892
1456.538, 103.0288
1457.582, 132.3472
1458.626, 103.6633
1459.670, 63.96655
1460.713, 64.97583
1461.757, 23.26660
1462.800, 62.55518
1463.843, 62.84180
1464.886, 22.12646
1465.928, 56.46021
1466.971, 60.73022
1468.013, 33.99731
1469.055, 8.674805
1470.097, 2.091309
1471.139, 14.87085
1472.181, 17.35693
1473.222, 40.58203
1474.263, 53.79761
1475.305, 69.30273
1476.346, 89.18237
1477.386, 73.38916
1478.427, 82.59277
1479.468, 59.04688
1480.508, 77.23438
1481.548, 39.41943
1482.588, 105.4924
1483.628, 61.67041
1484.668, 10.84521
1485.707, 35.01709
1486.747, 91.18652
1487.786, 24.35278
1488.825, 48.51685
1489.864, 99.67822
1490.902, 1.837158
1491.941, 104.9934
1492.979, 83.14771
1494.017, 29.14331
1495.055, 66.26196
1496.093, 48.92310
1497.131, 53.97949
1498.168, 61.11572
1499.206, 4.750488
1500.243, 89.38916
1501.280, 88.04980
1502.317, 75.73999
1503.354, 31.83447
1504.390, 43.92212
1505.426, 38.00171
1506.463, 23.11157
1507.499, 98.17407
1508.535, 27.24316
1509.570, 5.319824
1510.606, 80.39111
1511.641, 75.41333
1512.676, 63.48633
1513.711, 66.59058
1514.746, 65.82397
1515.781, 106.8484
1516.816, 62.87891
1517.850, 91.99023
1518.884, 69.98828
1519.918, 70.09888
1520.952, 72.87598
1521.986, 74.72192
1523.019, 23.76733
1524.053, 63.80371
1525.086, 99.83008
1526.119, 24.86426
1527.152, 44.88965
1528.185, 44.56226
1529.217, 55.55981
1530.250, 109.4158
1531.282, 60.59009
1532.314, 65.52686
1533.346, 28.36353
1534.377, 93.28857
1535.409, 43.06055
1536.440, 43.89795
1537.472, 45.75513
1538.503, 35.63892
1539.534, 54.35547
1540.564, 19.42212
1541.595, 60.25684
1542.625, 52.07080
1543.656, 24.85645
1544.686, 97.61548
1545.716, 72.34473
1546.745, 16.16772
1547.775, 12.82080
1548.804, 85.44971
1549.834, 44.26367
1550.863, 83.06494
1551.892, 1.889160
1552.920, 76.52930
1553.949, 101.4460
1554.977, 52.36230
1556.006, 22.83936
1557.034, 80.79321
1558.062, 3.579102
1559.089, 24.62671
1560.117, 47.55908
1561.144, 3.402344
1562.172, 0.5224610
1563.199, 47.97485
1564.226, 60.34326
1565.252, 22.88428
1566.279, 27.50049
1567.305, 37.00000
1568.332, 0.4616700
1569.358, 32.80005
1570.384, 0.0000000E+00
##END=



