##NAMES=Baryte
##RRUFFID=R050342
##IDEAL CHEMISTRY=BaS^6+^O_4_
##LOCALITY=Palos Verdes, Los Angeles County, California, USA
##OWNER=RRUFF
##SOURCE=California Institute of Technology
##DESCRIPTION=Light brown fragment
##STATUS=The identification of this mineral has been confirmed by X-ray diffraction and chemical analysis
##URL=rruff.info/R050342
##MEASURED CHEMISTRY=Ba_1.00_S_1.00_O_4_
##PIN_ID=L00875
##ORIENTATION=Laser parallel to c* (0 0 1). Fiducial mark perpendicular to laser is parallel to a [1 0 0]
93.48000, 0.0000000E+00
94.71400, 130.6528
95.94800, 194.5464
97.18200, 202.4287
98.41600, 192.8374
99.64900, 278.5640
100.8830, 307.5874
102.1160, 339.9814
103.3490, 321.4380
104.5820, 196.0210
105.8150, 158.0352
107.0470, 120.9502
108.2800, 101.6895
109.5120, 166.8989
110.7440, 114.3369
111.9760, 175.4443
113.2080, 162.0396
114.4400, 174.9658
115.6710, 184.0874
116.9030, 197.2881
118.1340, 317.4673
119.3650, 180.5400
120.5960, 267.4302
121.8270, 185.0718
123.0580, 289.4087
124.2880, 232.3921
125.5190, 171.9805
126.7490, 309.1343
127.9790, 256.8179
129.2090, 357.0049
130.4390, 245.6670
131.6680, 216.7676
132.8980, 265.2690
134.1270, 306.1421
135.3560, 295.3613
136.5850, 202.9067
137.8140, 291.7588
139.0430, 328.9004
140.2710, 240.3149
141.5000, 363.9897
142.7280, 386.9121
143.9560, 253.0781
145.1840, 367.4746
146.4120, 340.0889
147.6390, 437.9141
148.8670, 307.9414
150.0940, 300.1602
151.3210, 423.5645
152.5490, 556.1934
153.7750, 600.9971
155.0020, 503.9658
156.2290, 432.1660
157.4550, 404.5439
158.6810, 501.0645
159.9080, 401.7227
161.1340, 341.5195
162.3590, 224.5439
163.5850, 390.7383
164.8110, 342.0547
166.0360, 366.5820
167.2610, 261.2119
168.4860, 272.8359
169.7110, 227.4521
170.9360, 356.1396
172.1610, 271.8369
173.3850, 308.5889
174.6100, 208.4268
175.8340, 337.3350
177.0580, 250.2998
178.2820, 258.3262
179.5050, 228.4238
180.7290, 301.5742
181.9520, 336.7822
183.1760, 355.0586
184.3990, 417.3916
185.6220, 304.7832
186.8450, 380.2344
188.0670, 384.7471
189.2900, 408.3252
190.5120, 491.9824
191.7340, 478.7217
192.9560, 364.5205
194.1780, 419.7422
195.4000, 314.6553
196.6220, 261.6289
197.8430, 271.6621
199.0640, 330.7539
200.2860, 336.9033
201.5070, 243.3379
202.7270, 289.5986
203.9480, 256.9170
205.1690, 241.2891
206.3890, 299.7158
207.6090, 216.1973
208.8290, 164.7305
210.0490, 176.3818
211.2690, 167.1758
212.4890, 228.8418
213.7080, 223.7617
214.9280, 190.5254
216.1470, 120.3389
217.3660, 85.40332
218.5850, 178.1709
219.8030, 150.0840
221.0220, 293.0439
222.2400, 202.0732
223.4590, 177.1230
224.6770, 263.2188
225.8950, 139.3574
227.1120, 144.7529
228.3300, 97.98047
229.5480, 244.5879
230.7650, 264.7227
231.9820, 164.4248
233.1990, 216.3574
234.4160, 195.7246
235.6330, 180.1299
236.8490, 165.5898
238.0660, 140.3398
239.2820, 207.7939
240.4980, 146.2246
241.7140, 204.5293
242.9300, 108.9961
244.1460, 169.8848
245.3610, 93.72559
246.5770, 115.6230
247.7920, 110.4160
249.0070, 180.4346
250.2220, 149.3516
251.4370, 118.8281
252.6510, 164.0586
253.8660, 174.7764
255.0800, 273.0166
256.2940, 147.0000
257.5080, 117.1055
258.7220, 208.3223
259.9360, 196.7617
261.1490, 181.1836
262.3630, 171.8086
263.5760, 121.7939
264.7890, 163.4951
266.0020, 228.2764
267.2150, 63.37988
268.4270, 33.31055
269.6400, 124.4463
270.8520, 112.2646
272.0640, 71.42676
273.2760, 220.6484
274.4880, 92.93066
275.7000, 272.2666
276.9120, 165.6592
278.1230, 45.10840
279.3340, 24.60840
280.5450, 135.1572
281.7560, 78.24414
282.9670, 129.8887
284.1780, 16.57715
285.3880, 20.30957
286.5980, 204.3555
287.8090, 107.1953
289.0190, 230.0742
290.2290, 41.00391
291.4380, 45.99219
292.6480, 36.01660
293.8570, 20.92383
295.0670, 72.16797
296.2760, 148.3105
297.4850, 32.48438
298.6930, 45.69043
299.9020, 177.9424
301.1110, 2.223633
302.3190, 153.5342
303.5270, 165.8740
304.7350, 41.24023
305.9430, 135.6396
307.1510, 6.066406
308.3580, 13.48145
309.5660, 26.99316
310.7730, 123.4922
311.9800, 125.0176
313.1870, 183.5654
314.3940, 182.1357
315.6010, 155.0684
316.8070, 37.34473
318.0130, 103.9844
319.2200, 11.64551
320.4260, 48.32715
321.6310, 47.03223
322.8370, 10.75781
324.0430, 61.49609
325.2480, 138.2637
326.4540, 8.957031
327.6590, 23.84082
328.8640, 213.6602
330.0680, 141.4980
331.2730, 38.35645
332.4780, 8.766602
333.6820, 15.12695
334.8860, 139.0391
336.0900, 162.9707
337.2940, 82.91797
338.4980, 86.88379
339.7010, 59.13672
340.9050, 34.42188
342.1080, 72.57129
343.3110, 90.43945
344.5140, 46.46680
345.7170, 62.50879
346.9200, 26.56543
348.1220, 1.636719
349.3240, 48.72168
350.5270, 3.822266
351.7290, 168.9375
352.9310, 65.06641
354.1320, 117.2090
355.3340, 53.35547
356.5350, 10.51465
357.7370, 3.313477
358.9380, 54.87012
360.1390, 140.4346
361.3400, 82.02832
362.5400, 95.76172
363.7410, 120.4307
364.9410, 32.63574
366.1410, 42.14844
367.3410, 53.15137
368.5410, 30.61621
369.7410, 17.62598
370.9400, 10.12109
372.1400, 60.13867
373.3390, 76.54980
374.5380, 24.81445
375.7370, 101.0811
376.9360, 146.3525
378.1350, 84.37012
379.3330, 69.10059
380.5310, 249.1650
381.7300, 81.42383
382.9280, 45.86621
384.1260, 45.87207
385.3230, 46.59766
386.5210, 21.68652
387.7180, 38.99805
388.9160, 49.57031
390.1130, 65.49219
391.3100, 150.2646
392.5060, 46.33105
393.7030, 105.7041
394.9000, 5.277344
396.0960, 46.87305
397.2920, 148.1748
398.4880, 80.41016
399.6840, 55.98242
400.8800, 107.3906
402.0750, 46.81445
403.2710, 31.74707
404.4660, 141.6855
405.6610, 20.28613
406.8560, 13.25391
408.0510, 98.33984
409.2450, 75.81348
410.4400, 16.29785
411.6340, 50.83008
412.8280, 22.68555
414.0220, 5.473633
415.2160, 142.5195
416.4100, 228.0684
417.6030, 53.62695
418.7970, 122.1943
419.9900, 57.77148
421.1830, 59.45605
422.3760, 84.04785
423.5690, 51.64844
424.7610, 16.96680
425.9540, 185.5791
427.1460, 65.19824
428.3380, 149.8242
429.5300, 40.54199
430.7220, 206.8965
431.9140, 93.51367
433.1050, 229.1689
434.2970, 174.3428
435.4880, 274.9785
436.6790, 289.4766
437.8700, 132.0107
439.0610, 355.3086
440.2510, 343.9629
441.4420, 424.6309
442.6320, 572.5771
443.8220, 631.2520
445.0120, 789.9287
446.2020, 985.6094
447.3910, 1101.293
448.5810, 1452.274
449.7700, 1840.963
450.9600, 2341.654
452.1490, 3046.178
453.3370, 3573.872
454.5260, 3742.156
455.7150, 3189.853
456.9030, 3090.551
458.0910, 3012.250
459.2800, 3530.131
460.4670, 4312.832
461.6550, 5376.535
462.8430, 5676.240
464.0300, 5020.945
465.2180, 3719.650
466.4050, 2594.356
467.5920, 1659.411
468.7790, 1156.120
469.9650, 698.6855
471.1520, 613.3936
472.3380, 547.1045
473.5250, 375.8145
474.7110, 257.5273
475.8970, 390.0723
477.0820, 367.7842
478.2680, 125.4951
479.4540, 272.2051
480.6390, 281.9150
481.8240, 124.6221
483.0090, 46.45898
484.1940, 222.1582
485.3780, 235.3916
486.5630, 246.0889
487.7470, 221.7842
488.9320, 216.4824
490.1160, 184.1797
491.3000, 133.8525
492.4830, 230.5449
493.6670, 111.2354
494.8500, 168.9238
496.0340, 235.6084
497.2170, 92.29297
498.4000, 126.9746
499.5820, 244.6533
500.7650, 212.1357
501.9480, 60.81152
503.1300, 60.48340
504.3120, 154.1494
505.4940, 86.76562
506.6760, 208.4238
507.8580, 131.1104
509.0390, 33.33789
510.2210, 100.0889
511.4020, 146.4004
512.5830, 202.0645
513.7640, 90.14844
514.9450, 73.57031
516.1250, 135.2217
517.3060, 127.8809
518.4860, 143.5371
519.6660, 114.1885
520.8460, 93.89453
522.0260, 220.3389
523.2060, 150.9883
524.3850, 66.63477
525.5650, 162.2754
526.7440, 114.5869
527.9230, 139.8340
529.1020, 146.4629
530.2810, 72.08789
531.4590, 38.10156
532.6380, 4.658203
533.8160, 36.93652
534.9940, 135.5195
536.1720, 41.09766
537.3500, 81.88965
538.5270, 37.78711
539.7050, 158.3428
540.8820, 116.5088
542.0590, 198.0537
543.2360, 265.5996
544.4130, 192.1387
545.5900, 170.5566
546.7660, 19.91016
547.9430, 135.1445
549.1190, 60.27441
550.2950, 179.7998
551.4710, 81.28613
552.6470, 69.52051
553.8220, 6.003906
554.9980, 36.87012
556.1730, 42.81543
557.3480, 90.94922
558.5230, 196.3418
559.6980, 155.7266
560.8730, 199.5762
562.0470, 22.47949
563.2220, 171.8379
564.3960, 119.1904
565.5700, 35.74707
566.7440, 94.85254
567.9170, 168.2969
569.0910, 187.6221
570.2640, 180.6523
571.4380, 64.01367
572.6110, 118.2441
573.7840, 16.50488
574.9570, 42.28711
576.1290, 80.88379
577.3020, 153.3604
578.4740, 86.95215
579.6460, 26.89941
580.8180, 162.4531
581.9900, 117.9443
583.1620, 19.95312
584.3330, 131.1133
585.5040, 182.5674
586.6760, 96.61719
587.8470, 204.6592
589.0180, 17.69336
590.1880, 98.70605
591.3590, 123.7129
592.5290, 103.7100
593.7000, 145.7002
594.8700, 42.68359
596.0400, 91.65137
597.2090, 92.61230
598.3790, 215.5645
599.5490, 65.64648
600.7180, 221.5801
601.8870, 207.5215
603.0560, 110.8047
604.2250, 116.7324
605.3940, 222.6514
606.5620, 295.5605
607.7300, 274.4648
608.8990, 364.0449
610.0670, 355.9375
611.2350, 540.8408
612.4020, 671.2793
613.5700, 775.1660
614.7370, 1197.895
615.9050, 1783.766
617.0720, 2012.628
618.2390, 2000.564
619.4060, 1783.406
620.5720, 1358.239
621.7390, 1092.066
622.9050, 801.8857
624.0710, 678.1328
625.2370, 627.2129
626.4030, 842.0293
627.5690, 901.8350
628.7340, 1118.456
629.9000, 1140.256
631.0650, 1252.045
632.2300, 1116.824
633.3950, 886.5938
634.5600, 590.3525
635.7240, 609.1035
636.8890, 505.9414
638.0530, 351.8066
639.2170, 235.5264
640.3810, 368.2832
641.5450, 255.7646
642.7080, 360.4189
643.8720, 241.7129
645.0350, 119.3789
646.1980, 192.0566
647.3610, 93.11133
648.5240, 63.32812
649.6870, 80.34082
650.8490, 29.98047
652.0120, 130.1904
653.1740, 243.8057
654.3360, 38.54492
655.4980, 113.9951
656.6600, 190.2354
657.8210, 244.8018
658.9830, 146.3555
660.1440, 168.4619
661.3050, 85.21777
662.4660, 154.1533
663.6270, 212.8750
664.7870, 281.2314
665.9480, 246.8867
667.1080, 180.3262
668.2680, 161.8584
669.4280, 144.3779
670.5880, 117.8525
671.7480, 182.6201
672.9070, 233.1973
674.0670, 165.0078
675.2260, 121.5176
676.3850, 94.38867
677.5440, 204.8799
678.7030, 137.3145
679.8610, 164.8066
681.0200, 209.3076
682.1780, 186.6406
683.3360, 150.1162
684.4940, 258.5820
685.6520, 121.0078
686.8090, 44.30371
687.9670, 181.1807
689.1240, 85.47363
690.2810, 113.0645
691.4380, 187.5352
692.5950, 151.9834
693.7520, 46.32520
694.9080, 232.7412
696.0650, 35.54297
697.2210, 256.8350
698.3770, 202.2207
699.5330, 199.4873
700.6880, 154.9395
701.8440, 102.2510
702.9990, 145.7705
704.1550, 67.39648
705.3100, 63.26172
706.4650, 75.48828
707.6190, 157.7510
708.7740, 178.1699
709.9290, 196.8525
711.0830, 252.2109
712.2370, 202.9365
713.3910, 89.56738
714.5450, 124.1318
715.6980, 49.22656
716.8520, 41.35059
718.0050, 191.4170
719.1580, 52.56934
720.3110, 18.05664
721.4640, 92.73242
722.6170, 95.45117
723.7700, 38.49414
724.9220, 148.4600
726.0740, 83.47852
727.2260, 103.5469
728.3780, 104.1221
729.5300, 123.1553
730.6810, 86.05859
731.8330, 139.9580
732.9840, 275.2783
734.1350, 156.5928
735.2860, 219.4463
736.4370, 151.5645
737.5880, 61.62402
738.7380, 197.2598
739.8880, 183.9209
741.0390, 44.71094
742.1890, 237.3682
743.3380, 220.1299
744.4880, 143.1006
745.6380, 188.6738
746.7870, 23.39648
747.9360, 153.0996
749.0850, 197.9248
750.2340, 34.01855
751.3830, 138.9570
752.5310, 16.60352
753.6800, 101.2500
754.8280, 234.7070
755.9760, 83.30566
757.1240, 255.8926
758.2720, 170.0078
759.4190, 106.0859
760.5670, 170.3223
761.7140, 139.8535
762.8610, 57.37598
764.0080, 110.8428
765.1550, 176.3398
766.3020, 17.82520
767.4480, 186.4834
768.5950, 150.9336
769.7410, 183.5322
770.8870, 194.9531
772.0330, 130.4326
773.1780, 173.1865
774.3240, 91.80469
775.4690, 83.19531
776.6140, 187.5703
777.7590, 105.0469
778.9040, 21.30859
780.0490, 55.71387
781.1940, 179.0400
782.3380, 171.3545
783.4820, 134.7852
784.6260, 82.93066
785.7700, 164.5596
786.9140, 130.4600
788.0580, 246.7744
789.2010, 33.09375
790.3450, 185.2520
791.4880, 88.63477
792.6310, 126.2578
793.7730, 24.62402
794.9160, 135.4561
796.0590, 246.5225
797.2010, 7.425781
798.3430, 71.64941
799.4850, 55.19336
800.6270, 86.19629
801.7690, 126.5664
802.9100, 154.5576
804.0520, 119.5186
805.1930, 290.4639
806.3340, 187.7080
807.4750, 112.6240
808.6160, 202.6846
809.7560, 18.74414
810.8970, 158.2783
812.0370, 183.1309
813.1770, 165.9727
814.3170, 174.9902
815.4570, 40.25781
816.5960, 172.0547
817.7360, 137.3496
818.8750, 21.11523
820.0140, 196.1006
821.1530, 240.0264
822.2920, 13.74121
823.4310, 211.4902
824.5690, 51.53027
825.7070, 218.2002
826.8460, 93.82324
827.9840, 119.4629
829.1220, 113.0879
830.2590, 30.69727
831.3970, 151.4893
832.5340, 180.0918
833.6710, 135.9453
834.8080, 107.5225
835.9450, 149.0820
837.0820, 85.62695
838.2190, 92.10645
839.3550, 64.60449
840.4910, 50.17578
841.6270, 54.44922
842.7630, 2.660156
843.8990, 111.9961
845.0350, 71.42676
846.1700, 34.83984
847.3060, 124.2344
848.4410, 102.6387
849.5760, 150.0273
850.7100, 164.0049
851.8450, 264.8076
852.9800, 123.8740
854.1140, 149.8018
855.2480, 16.15137
856.3820, 57.25586
857.5160, 12.19922
858.6500, 181.5059
859.7830, 116.8115
860.9170, 144.7070
862.0500, 115.9844
863.1830, 115.1973
864.3160, 299.4951
865.4480, 103.7354
866.5810, 177.9600
867.7130, 130.1709
868.8460, 41.36816
869.9780, 123.5459
871.1100, 144.7139
872.2410, 65.86719
873.3730, 77.00391
874.5050, 175.9883
875.6360, 46.90527
876.7670, 158.1562
877.8980, 2.852539
879.0290, 242.8779
880.1590, 78.88867
881.2900, 4.883789
882.4200, 152.8594
883.5500, 219.1436
884.6800, 51.90918
885.8100, 41.98828
886.9400, 64.32617
888.0690, 186.1895
889.1990, 125.1885
890.3280, 2.292969
891.4570, 213.1094
892.5860, 141.9980
893.7140, 24.78906
894.8430, 27.56055
895.9710, 11.31641
897.1000, 168.3105
898.2280, 180.0332
899.3560, 18.44141
900.4830, 207.5879
901.6110, 209.2539
902.7380, 37.87109
903.8660, 232.7402
904.9930, 90.33984
906.1200, 201.9219
907.2460, 111.4922
908.3730, 44.04883
909.5000, 82.39648
910.6260, 178.8848
911.7520, 259.5410
912.8780, 162.4023
914.0040, 311.8418
915.1290, 119.6973
916.2550, 146.8770
917.3800, 142.3262
918.5050, 2.240234
919.6300, 149.1758
920.7550, 62.19531
921.8800, 137.5840
923.0040, 78.96094
924.1290, 100.3379
925.2530, 161.1133
926.3770, 70.62891
927.5010, 64.95508
928.6250, 138.4316
929.7480, 152.0996
930.8720, 328.4160
931.9950, 254.7207
933.1180, 110.4492
934.2410, 62.47656
935.3640, 224.2031
936.4860, 35.26953
937.6090, 119.8223
938.7310, 188.0137
939.8530, 147.1719
940.9750, 48.34961
942.0970, 259.5117
943.2180, 84.60547
944.3400, 79.16797
945.4610, 82.44336
946.5820, 155.5078
947.7030, 161.1914
948.8240, 74.25391
949.9450, 44.68164
951.0650, 199.7461
952.1860, 13.74414
953.3060, 176.7285
954.4260, 59.85547
955.5460, 70.01953
956.6650, 219.9668
957.7850, 101.9395
958.9040, 279.1035
960.0230, 184.6309
961.1420, 248.5469
962.2610, 200.3945
963.3800, 255.2363
964.4990, 224.1602
965.6170, 294.3867
966.7350, 303.2930
967.8530, 326.1855
968.9710, 183.0723
970.0890, 416.8438
971.2070, 390.7109
972.3240, 282.3711
973.4410, 555.0449
974.5580, 570.5898
975.6750, 430.1641
976.7920, 808.7461
977.9090, 756.5996
979.0250, 1091.309
980.1410, 1480.840
981.2580, 2236.086
982.3740, 3388.818
983.4890, 4722.449
984.6050, 7673.203
985.7200, 12839.94
986.8360, 23641.67
987.9510, 41134.36
989.0660, 47751.08
990.1810, 38188.03
991.2950, 20333.43
992.4100, 9786.359
993.5240, 5192.059
994.6390, 3054.688
995.7530, 2340.371
996.8660, 1518.979
997.9800, 1125.576
999.0940, 761.2324
1000.207, 623.7617
1001.320, 546.4004
1002.433, 414.6738
1003.546, 501.2012
1004.659, 347.7773
1005.772, 363.3789
1006.884, 333.6934
1007.996, 472.0488
1009.108, 355.6270
1010.220, 171.3340
1011.332, 308.8945
1012.444, 264.5664
1013.555, 174.1113
1014.666, 194.4277
1015.777, 127.1191
1016.888, 149.6387
1017.999, 194.1562
1019.110, 205.5312
1020.220, 185.6152
1021.331, 259.8340
1022.441, 190.3223
1023.551, 23.78711
1024.661, 119.4180
1025.770, 46.88867
1026.880, 264.3477
1027.989, 272.2578
1029.098, 256.2402
1030.207, 23.93945
1031.316, 185.3711
1032.425, 63.79688
1033.533, 21.74414
1034.642, 156.6562
1035.750, 71.04883
1036.858, 87.24414
1037.966, 149.6289
1039.073, 145.8457
1040.181, 114.2168
1041.288, 123.3633
1042.396, 94.48438
1043.503, 63.60938
1044.610, 10.91211
1045.716, 55.79297
1046.823, 109.4648
1047.929, 36.82812
1049.036, 63.03125
1050.142, 222.5039
1051.248, 114.7617
1052.353, 117.3633
1053.459, 181.6094
1054.564, 183.6035
1055.670, 182.5996
1056.775, 71.92383
1057.880, 174.1133
1058.985, 34.36719
1060.089, 52.67969
1061.194, 45.66016
1062.298, 79.89453
1063.402, 147.1328
1064.506, 184.3672
1065.610, 223.6992
1066.713, 109.8809
1067.817, 47.49609
1068.920, 68.70312
1070.023, 0.4843750
1071.126, 274.6875
1072.229, 184.9648
1073.332, 273.1445
1074.435, 121.0078
1075.537, 153.2598
1076.639, 50.26758
1077.741, 196.7480
1078.843, 114.8867
1079.945, 9.906250
1081.046, 81.04102
1082.148, 66.00195
1083.249, 109.6953
1084.350, 146.8418
1085.451, 196.4746
1086.551, 205.6133
1087.652, 15.51172
1088.752, 256.5781
1089.853, 98.73633
1090.953, 6.808594
1092.053, 51.06055
1093.152, 61.18359
1094.252, 32.30664
1095.351, 108.8945
1096.451, 40.56641
1097.550, 99.67969
1098.649, 127.7891
1099.748, 86.89648
1100.846, 122.0000
1101.945, 257.2812
1103.043, 467.4043
1104.141, 235.5371
1105.239, 367.6523
1106.337, 218.7656
1107.434, 28.87695
1108.532, 33.98242
1109.629, 47.08594
1110.726, 161.1914
1111.823, 72.29297
1112.920, 288.3926
1114.017, 110.4902
1115.113, 205.5879
1116.210, 166.6816
1117.306, 182.7715
1118.402, 194.2012
1119.498, 108.1602
1120.593, 138.2441
1121.689, 174.3262
1122.784, 59.70312
1123.879, 119.7812
1124.974, 191.9961
1126.069, 317.0742
1127.164, 357.1465
1128.259, 277.2188
1129.353, 221.2871
1130.447, 237.3555
1131.541, 271.5234
1132.635, 282.5840
1133.729, 213.6426
1134.822, 317.6992
1135.916, 363.7578
1137.009, 673.8105
1138.102, 771.8613
1139.195, 1128.912
1140.288, 1231.959
1141.380, 1623.008
1142.473, 1921.281
1143.565, 2091.348
1144.657, 2247.418
1145.749, 2101.510
1146.841, 1804.607
1147.932, 1626.699
1149.024, 1255.793
1150.115, 1020.883
1151.206, 698.0547
1152.297, 665.1582
1153.388, 666.2617
1154.479, 490.3633
1155.569, 373.1914
1156.659, 258.2910
1157.750, 220.4688
1158.839, 198.3105
1159.929, 186.4082
1161.019, 264.5137
1162.108, 212.3613
1163.198, 303.4629
1164.287, 157.4746
1165.376, 156.2324
1166.465, 95.33984
1167.553, 172.3965
1168.642, 199.5234
1169.730, 143.9004
1170.818, 115.7773
1171.906, 116.0527
1172.994, 127.5859
1174.082, 122.5020
1175.170, 253.0234
1176.257, 136.9043
1177.344, 58.70117
1178.431, 28.85547
1179.518, 237.6465
1180.605, 8.744141
1181.691, 124.8926
1182.778, 26.92969
1183.864, 104.2090
1184.950, 231.3477
1186.036, 280.4824
1187.122, 66.61719
1188.207, 18.25977
1189.292, 300.8613
1190.378, 72.18945
1191.463, 242.7852
1192.548, 292.7344
1193.632, 138.8184
1194.717, 92.89453
1195.801, 35.97266
1196.886, 137.0469
1197.970, 237.1191
1199.054, 79.39648
1200.137, 118.4707
1201.221, 82.21289
1202.305, 37.69922
1203.388, 140.3691
1204.471, 256.5254
1205.554, 39.58984
1206.637, 73.65234
1207.719, 275.6230
1208.802, 28.70898
1209.884, 49.79297
1210.966, 80.42969
1212.048, 128.6094
1213.130, 163.7012
1214.212, 109.7656
1215.293, 184.8301
1216.374, 211.8926
1217.456, 185.9551
1218.536, 29.81055
1219.617, 53.86914
1220.698, 209.9258
1221.778, 30.74219
1222.859, 98.73828
1223.939, 199.7793
1225.019, 106.3008
1226.099, 7.031250
1227.178, 144.8359
1228.258, 213.8203
1229.337, 228.8027
1230.417, 109.7832
1231.496, 29.69531
1232.574, 194.6699
1233.653, 63.64258
1234.732, 229.6152
1235.810, 119.5840
1236.888, 222.5527
1237.966, 69.35938
1239.044, 147.1836
1240.122, 188.0625
1241.199, 209.0234
1242.277, 151.9824
1243.354, 203.9395
1244.431, 182.0293
1245.508, 247.9824
1246.585, 70.06250
1247.661, 165.0078
1248.738, 18.95508
1249.814, 179.0898
1250.890, 311.2656
1251.966, 35.79883
1253.042, 156.0859
1254.117, 38.99609
1255.193, 258.9570
1256.268, 181.8574
1257.343, 80.75781
1258.418, 102.8867
1259.493, 105.7031
1260.567, 47.67383
1261.642, 176.5645
1262.716, 275.4492
1263.790, 237.7109
1264.864, 244.5918
1265.938, 285.5410
1267.011, 271.4141
1268.085, 188.2930
1269.158, 230.4023
1270.231, 378.5859
1271.304, 24.63086
1272.377, 328.3652
1273.450, 104.2188
1274.522, 356.6211
1275.594, 191.6738
1276.666, 119.5156
1277.738, 87.35547
1278.810, 169.1953
1279.882, 67.02930
1280.953, 190.8574
1282.025, 356.6836
1283.096, 299.6172
1284.167, 330.4355
1285.238, 222.2500
1286.308, 265.0605
1287.379, 191.8711
1288.449, 231.6758
1289.519, 405.0273
1290.589, 212.8926
1291.659, 349.6855
1292.729, 110.4805
1293.798, 143.8008
1294.868, 190.5938
1295.937, 188.4512
1297.006, 211.4453
1298.075, 250.6289
1299.143, 259.4102
1300.212, 61.40430
1301.280, 6.587891
1302.348, 111.2402
1303.416, 175.0234
1304.484, 256.9727
1305.552, 358.7520
1306.620, 267.5430
1307.687, 47.78125
1308.754, 248.9688
1309.821, 129.5234
1310.888, 95.27930
1311.955, 177.6738
1313.021, 224.5215
1314.088, 258.2988
1315.154, 300.0391
1316.220, 223.7734
1317.286, 198.4863
1318.352, 183.2051
1319.417, 134.6133
1320.483, 243.7207
1321.548, 147.4180
1322.613, 128.1445
1323.678, 301.8359
1324.743, 153.4258
1325.807, 366.1875
1326.872, 308.8730
1327.936, 261.5684
1329.000, 353.2637
1330.064, 292.9570
1331.128, 319.5527
1332.191, 79.24023
1333.255, 589.9277
1334.318, 191.5293
1335.381, 249.2129
1336.444, 355.8906
1337.507, 175.6094
1338.569, 26.76953
1339.632, 254.8730
1340.694, 89.29492
1341.756, 173.9336
1342.818, 246.5703
1343.880, 171.2051
1344.941, 112.8379
1346.003, 355.4688
1347.064, 187.9668
1348.125, 393.5664
1349.186, 279.1914
1350.247, 109.6836
1351.308, 153.3906
1352.368, 290.0059
1353.428, 34.15234
1354.489, 232.2031
1355.549, 126.8105
1356.608, 249.4141
1357.668, 137.0156
1358.727, 85.38281
1359.787, 236.0469
1360.846, 358.6016
1361.905, 191.0977
1362.964, 144.6055
1364.022, 161.1641
1365.081, 215.6680
1366.139, 128.1680
1367.197, 220.6699
1368.255, 184.1660
1369.313, 252.2910
1370.371, 289.7676
1371.428, 73.23633
1372.486, 286.7012
1373.543, 76.14258
1374.600, 394.5566
1375.657, 285.9355
1376.713, 61.08008
1377.770, 50.43359
1378.826, 181.7832
1379.882, 419.8340
1380.938, 201.1738
1381.994, 93.37695
1383.050, 224.7070
1384.106, 186.0352
1385.161, 52.35547
1386.216, 310.6719
1387.271, 220.9824
1388.326, 128.1855
1389.381, 323.4883
1390.435, 21.78711
1391.490, 135.0801
1392.544, 92.36719
1393.598, 211.7949
1394.652, 108.0371
1395.705, 52.27148
1396.759, 34.50000
1397.812, 66.72656
1398.866, 18.52539
1399.919, 152.9355
1400.972, 92.86719
1402.024, 62.29688
1403.077, 151.4531
1404.129, 420.6035
1405.181, 336.7480
1406.233, 148.8867
1407.285, 133.9512
1408.337, 137.0781
1409.389, 86.19141
1410.440, 226.2969
1411.491, 185.8379
1412.542, 238.4980
1413.593, 154.5918
1414.644, 116.6836
1415.695, 28.22852
1416.745, 97.84570
1417.795, 114.9160
1418.845, 288.6055
1419.895, 11.66797
1420.945, 126.7227
1421.995, 98.77734
1423.044, 22.00781
1424.093, 28.80469
1425.142, 146.0742
1426.191, 37.88867
1427.240, 27.99805
1428.289, 48.37109
1429.337, 212.8086
1430.385, 20.73242
1431.433, 198.2715
1432.481, 142.5078
1433.529, 135.5000
1434.577, 205.6895
1435.624, 187.4336
1436.672, 218.3828
1437.719, 91.30664
1438.766, 96.25586
1439.812, 112.1738
1440.859, 212.2910
1441.905, 210.3906
1442.952, 112.3398
1443.998, 228.6855
1445.044, 127.8262
1446.090, 33.89062
1447.135, 139.6055
1448.181, 113.0918
1449.226, 168.5742
1450.271, 131.0527
1451.316, 104.5254
1452.361, 149.0039
1453.405, 230.3906
1454.450, 193.8691
1455.494, 210.6738
1456.538, 146.4824
1457.582, 199.8984
1458.626, 256.3672
1459.670, 332.8320
1460.713, 131.2949
1461.757, 304.7539
1462.800, 87.20898
1463.843, 27.40625
1464.886, 75.91992
1465.928, 28.55273
1466.971, 237.8887
1468.013, 197.3242
1469.055, 258.7598
1470.097, 166.1914
1471.139, 251.6172
1472.181, 130.8672
1473.222, 346.1250
1474.263, 256.5371
1475.305, 213.3945
1476.346, 107.8164
1477.386, 174.1797
1478.427, 197.6172
1479.468, 279.7461
1480.508, 293.7441
1481.548, 175.0996
1482.588, 299.4336
1483.628, 209.8574
1484.668, 129.4961
1485.707, 304.9453
1486.747, 177.7422
1487.786, 284.7207
1488.825, 113.0000
1489.864, 232.2832
1490.902, 222.3984
1491.941, 250.6836
1492.979, 351.9727
1494.017, 17.16797
1495.055, 144.2949
1496.093, 479.6523
1497.131, 222.7539
1498.168, 272.5469
1499.206, 359.1582
1500.243, 264.7207
1501.280, 201.8379
1502.317, 191.7246
1503.354, 254.6309
1504.390, 174.5039
1505.426, 203.9551
1506.463, 196.7402
1507.499, 120.5215
1508.535, 231.3906
1509.570, 255.4707
1510.606, 146.2715
1511.641, 333.9570
1512.676, 183.7715
1513.711, 242.5605
1514.746, 371.3242
1515.781, 303.0605
1516.816, 280.7637
1517.850, 81.82031
1518.884, 273.3926
1519.918, 393.9609
1520.952, 202.4902
1521.986, 219.9785
1523.019, 194.4258
1524.053, 316.6035
1525.086, 156.9609
1526.119, 176.2695
1527.152, 188.5312
1528.185, 251.6914
1529.217, 189.0449
1530.250, 230.3105
1531.282, 224.9766
1532.314, 202.0098
1533.346, 201.2676
1534.377, 205.5586
1535.409, 156.0117
1536.440, 134.7969
1537.472, 247.6289
1538.503, 271.4551
1539.534, 228.2793
1540.564, 295.1055
1541.595, 183.9414
1542.625, 22.76758
1543.656, 222.5898
1544.686, 189.7324
1545.716, 221.8945
1546.745, 1.097656
1547.775, 249.3574
1548.804, 194.6934
1549.834, 372.1172
1550.863, 222.6445
1551.892, 144.2793
1552.920, 93.16406
1553.949, 54.29688
1554.977, 290.3555
1556.006, 86.66602
1557.034, 182.6523
1558.062, 276.9570
1559.089, 28.62109
1560.117, 304.9023
1561.144, 235.3730
1562.172, 271.2949
1563.199, 238.9062
1564.226, 102.1602
1565.252, 95.74414
1566.279, 63.34961
1567.305, 54.51367
1568.332, 159.4062
1569.358, 1.861328
1570.384, 0.0000000E+00
##END=



