##NAMES=Baryte
##RRUFFID=R050375
##IDEAL CHEMISTRY=BaS^6+^O_4_
##LOCALITY=unknown
##OWNER=RRUFF
##SOURCE=Eugene Schlepp
##DESCRIPTION=Pale green tabular crystals
##STATUS=The identification of this mineral has been confirmed by X-ray diffraction and chemical analysis
##URL=rruff.info/R050375
##MEASURED CHEMISTRY=Ba_1.00_SO_4_
##PIN_ID=L01220
##ORIENTATION=Laser parallel to -c* (0 0 -1). Fiducial mark perpendicular to laser is parallel to -a [-1 0 0]
51.43100, 0.0000000E+00
52.67100, 32.38269
53.91000, 42.66919
55.14900, 23.96970
56.38700, 69.14471
57.62600, 35.05106
58.86400, 24.17590
60.10300, 1.777466
61.34100, 11.27219
62.57900, 17.10260
63.81700, 8.164185
65.05400, 12.41852
66.29200, 29.56567
67.52900, 48.52502
68.76700, 43.22687
70.00400, 87.61078
71.24100, 182.6222
72.47700, 169.2092
73.71400, 310.3245
74.95100, 475.9259
76.18700, 550.9772
77.42300, 530.4468
78.65900, 596.3085
79.89500, 625.5397
81.13100, 657.1212
82.36700, 738.0345
83.60200, 879.2625
84.83700, 935.7900
86.07200, 945.6022
87.30800, 1095.686
88.54200, 1110.027
89.77700, 1261.608
91.01200, 1251.408
92.24600, 1373.409
93.48000, 1392.596
94.71400, 1474.961
95.94800, 1583.495
97.18200, 1617.192
98.41600, 1677.046
99.64900, 1783.049
100.8830, 1795.199
102.1160, 1725.492
103.3490, 1591.928
104.5820, 1516.511
105.8150, 1523.237
107.0470, 1480.103
108.2800, 1527.107
109.5120, 1423.249
110.7440, 1444.521
111.9760, 1455.920
113.2080, 1398.441
114.4400, 1430.080
115.6710, 1388.833
116.9030, 1375.697
118.1340, 1399.667
119.3650, 1367.742
120.5960, 1300.917
121.8270, 1285.191
123.0580, 1389.559
124.2880, 1306.021
125.5190, 1312.555
126.7490, 1258.102
127.9790, 1279.658
129.2090, 1245.219
130.4390, 1239.364
131.6680, 1223.353
132.8980, 1241.953
134.1270, 1221.590
135.3560, 1247.275
136.5850, 1240.012
137.8140, 1204.796
139.0430, 1287.631
140.2710, 1153.530
141.5000, 1201.479
142.7280, 1200.482
143.9560, 1159.540
145.1840, 1231.643
146.4120, 1220.796
147.6390, 1210.016
148.8670, 1253.289
150.0940, 1299.611
151.3210, 1273.999
152.5490, 1431.493
153.7750, 1434.143
155.0020, 1380.909
156.2290, 1434.785
157.4550, 1362.723
158.6810, 1236.715
159.9080, 1214.790
161.1340, 1154.941
162.3590, 1095.153
163.5850, 1141.451
164.8110, 1001.833
166.0360, 1093.275
167.2610, 1064.751
168.4860, 1020.262
169.7110, 1032.806
170.9360, 1003.384
172.1610, 1009.996
173.3850, 1002.642
174.6100, 953.3204
175.8340, 1032.033
177.0580, 1033.779
178.2820, 982.5580
179.5050, 1030.370
180.7290, 1017.215
181.9520, 962.0928
183.1760, 984.0024
184.3990, 977.9448
185.6220, 1055.919
186.8450, 996.9248
188.0670, 1052.962
189.2900, 1154.031
190.5120, 1123.130
191.7340, 1143.261
192.9560, 1074.422
194.1780, 1001.614
195.4000, 972.8356
196.6220, 940.0869
197.8430, 910.3683
199.0640, 796.7856
200.2860, 847.1420
201.5070, 808.4288
202.7270, 846.6265
203.9480, 731.7769
205.1690, 720.7817
206.3890, 726.9849
207.6090, 748.9575
208.8290, 699.6572
210.0490, 689.9736
211.2690, 682.6686
212.4890, 644.4497
213.7080, 662.3130
214.9280, 629.4902
216.1470, 618.5068
217.3660, 580.2026
218.5850, 601.3594
219.8030, 612.4600
221.0220, 574.7456
222.2400, 626.5098
223.4590, 609.9155
224.6770, 597.3782
225.8950, 565.9741
227.1120, 556.9307
228.3300, 542.8936
229.5480, 505.8267
230.7650, 533.6924
231.9820, 541.4609
233.1990, 564.1055
234.4160, 545.6033
235.6330, 531.6794
236.8490, 511.8770
238.0660, 477.8643
239.2820, 487.9761
240.4980, 472.0437
241.7140, 419.5256
242.9300, 410.6704
244.1460, 457.3411
245.3610, 459.5603
246.5770, 416.8157
247.7920, 488.1067
249.0070, 400.5649
250.2220, 437.1411
251.4370, 455.5234
252.6510, 386.9656
253.8660, 455.1946
255.0800, 461.9163
256.2940, 423.4153
257.5080, 405.3787
258.7220, 422.3398
259.9360, 394.9485
261.1490, 402.0525
262.3630, 376.2866
263.5760, 330.2019
264.7890, 342.8953
266.0020, 348.3865
267.2150, 366.9761
268.4270, 311.4539
269.6400, 335.2742
270.8520, 364.1189
272.0640, 312.3313
273.2760, 357.2241
274.4880, 417.4087
275.7000, 285.3499
276.9120, 328.7766
278.1230, 296.7654
279.3340, 311.7778
280.5450, 266.8875
281.7560, 306.9473
282.9670, 289.0303
284.1780, 347.1375
285.3880, 293.2678
286.5980, 255.4209
287.8090, 263.5964
289.0190, 276.7944
290.2290, 219.0146
291.4380, 232.2568
292.6480, 223.6248
293.8570, 226.8064
295.0670, 222.1135
296.2760, 213.4419
297.4850, 207.7913
298.6930, 177.1609
299.9020, 194.5510
301.1110, 272.9602
302.3190, 152.3887
303.5270, 224.8359
304.7350, 177.3018
305.9430, 184.7861
307.1510, 166.2883
308.3580, 156.8086
309.5660, 130.3462
310.7730, 159.9009
311.9800, 194.4727
313.1870, 144.0613
314.3940, 187.6667
315.6010, 129.2891
316.8070, 98.92798
318.0130, 131.5833
319.2200, 92.25513
320.4260, 147.9434
321.6310, 124.6475
322.8370, 162.3682
324.0430, 117.1047
325.2480, 95.85742
326.4540, 25.62598
327.6590, 90.41016
328.8640, 153.2104
330.0680, 126.0261
331.2730, 52.85742
332.4780, 124.7041
333.6820, 118.5667
334.8860, 55.44385
336.0900, 75.33691
337.2940, 53.24487
338.4980, 51.16797
339.7010, 41.10596
340.9050, 90.05933
342.1080, 135.0271
343.3110, 21.00977
344.5140, 66.01685
345.7170, 41.04834
346.9200, 20.10400
348.1220, 26.18530
349.3240, 72.29175
350.5270, 27.42432
351.7290, 22.58203
352.9310, 99.76611
354.1320, 13.02222
355.3340, 62.21167
356.5350, 52.46826
357.7370, 36.74805
358.9380, 5.949707
360.1390, 58.37158
361.3400, 14.28516
362.5400, 23.07324
363.7410, 19.54688
364.9410, 31.84570
366.1410, 8.741455
367.3410, 58.68774
368.5410, 55.13745
369.7410, 22.39258
370.9400, 6.912842
372.1400, 11.41772
373.3390, 12.09106
374.5380, 0.3808590
375.7370, 9.164551
376.9360, 15.27124
378.1350, 2.368164
379.3330, 16.89722
380.5310, 17.50879
381.7300, 21.13892
382.9280, 2.787842
384.1260, 16.45288
385.3230, 24.86328
386.5210, 34.82593
387.7180, 5.467041
388.9160, 15.25293
390.1130, 10.99048
391.3100, 8.746094
392.5060, 3.518799
393.7030, 39.69287
394.9000, 34.90698
396.0960, 55.12207
397.2920, 88.34570
398.4880, 96.59399
399.6840, 13.87036
400.8800, 81.13574
402.0750, 61.42578
403.2710, 42.27148
404.4660, 23.01416
405.6610, 4.296387
406.8560, 3.432129
408.0510, 12.82520
409.2450, 28.07520
410.4400, 49.32422
411.6340, 26.58179
412.8280, 19.16235
414.0220, 15.92310
415.2160, 78.29956
416.4100, 21.45654
417.6030, 76.77100
418.7970, 27.98120
419.9900, 80.25024
421.1830, 62.49561
422.3760, 23.25830
423.5690, 9.037354
424.7610, 30.83130
425.9540, 19.64209
427.1460, 37.70312
428.3380, 48.54614
429.5300, 58.65796
430.7220, 38.28174
431.9140, 95.17407
433.1050, 99.08252
434.2970, 125.0076
435.4880, 162.9485
436.6790, 196.6128
437.8700, 239.8799
439.0610, 313.8699
440.2510, 385.8760
441.4420, 498.8987
442.6320, 588.9377
443.8220, 667.9929
445.0120, 871.0640
446.2020, 1071.152
447.3910, 1346.256
448.5810, 1655.375
449.7700, 2024.512
450.9600, 2711.665
452.1490, 3566.833
453.3370, 4496.018
454.5260, 5200.219
455.7150, 5423.436
456.9030, 5555.671
458.0910, 5775.921
459.2800, 6982.188
460.4670, 9024.471
461.6550, 11977.77
462.8430, 14540.08
464.0300, 14809.42
465.2180, 12030.76
466.4050, 8704.128
467.5920, 5614.508
468.7790, 3614.906
469.9650, 2471.321
471.1520, 1811.751
472.3380, 1299.198
473.5250, 1018.663
474.7110, 793.1428
475.8970, 608.6401
477.0820, 556.1541
478.2680, 443.6851
479.4540, 338.2322
480.6390, 308.7966
481.8240, 224.3774
483.0090, 312.9756
484.1940, 267.5903
485.3780, 274.2222
486.5630, 253.8708
487.7470, 232.5364
488.9320, 177.2190
490.1160, 117.9185
491.3000, 179.6348
492.4830, 191.3679
493.6670, 235.1179
494.8500, 220.8845
496.0340, 98.66772
497.2170, 114.9885
498.4000, 154.8052
499.5820, 54.63843
500.7650, 60.48877
501.9480, 57.12061
503.1300, 119.0039
504.3120, 134.2969
505.4940, 79.21387
506.6760, 163.2693
507.8580, 65.21948
509.0390, 54.76929
510.2210, 55.75293
511.4020, 87.75317
512.5830, 93.69165
513.7640, 36.34009
514.9450, 54.79053
516.1250, 88.85840
517.3060, 67.79858
518.4860, 90.89990
519.6660, 92.18872
520.8460, 82.26099
522.0260, 62.41309
523.2060, 118.5823
524.3850, 48.76831
525.5650, 53.88770
526.7440, 90.10791
527.9230, 22.96973
529.1020, 53.22437
530.2810, 60.00732
531.4590, 73.29590
532.6380, 75.60132
533.8160, 120.9238
534.9940, 81.13110
536.1720, 115.2720
537.3500, 155.6572
538.5270, 2.032715
539.7050, 76.67114
540.8820, 46.87061
542.0590, 1.341309
543.2360, 110.3958
544.4130, 62.49976
545.5900, 68.00391
546.7660, 50.05957
547.9430, 79.03125
549.1190, 129.3689
550.2950, 151.9741
551.4710, 114.8262
552.6470, 139.6255
553.8220, 69.58472
554.9980, 86.24487
556.1730, 65.99902
557.3480, 129.2791
558.5230, 54.99634
559.6980, 29.46533
560.8730, 74.22144
562.0470, 125.5349
563.2220, 150.3298
564.3960, 106.1516
565.5700, 40.91943
566.7440, 35.78076
567.9170, 19.33862
569.0910, 125.5596
570.2640, 95.47705
571.4380, 149.4141
572.6110, 72.38013
573.7840, 84.36572
574.9570, 125.3767
576.1290, 78.40942
577.3020, 124.4634
578.4740, 76.53687
579.6460, 73.63647
580.8180, 94.75659
581.9900, 60.89551
583.1620, 105.0544
584.3330, 121.2324
585.5040, 19.42969
586.6760, 55.64600
587.8470, 65.88110
589.0180, 77.13525
590.1880, 146.4092
591.3590, 158.7019
592.5290, 92.01367
593.7000, 11.34399
594.8700, 166.6929
596.0400, 122.0605
597.2090, 135.4480
598.3790, 103.8538
599.5490, 95.64380
600.7180, 210.7261
601.8870, 97.20264
603.0560, 125.7026
604.2250, 168.2393
605.3940, 107.7959
606.5620, 201.3730
607.7300, 234.9688
608.8990, 366.5977
610.0670, 348.2451
611.2350, 424.9116
612.4020, 519.6055
613.5700, 799.3174
614.7370, 1007.051
615.9050, 1515.814
617.0720, 1935.601
618.2390, 2091.405
619.4060, 1882.231
620.5720, 1597.075
621.7390, 1290.948
622.9050, 934.8398
624.0710, 907.7534
625.2370, 863.6890
626.4030, 922.6538
627.5690, 1014.636
628.7340, 1204.638
629.9000, 1380.664
631.0650, 1614.707
632.2300, 1412.769
633.3950, 1289.848
634.5600, 929.9600
635.7240, 765.0903
636.8890, 519.2378
638.0530, 449.4038
639.2170, 428.5913
640.3810, 266.8379
641.5450, 340.0693
642.7080, 222.3247
643.8720, 178.5967
645.0350, 200.8901
646.1980, 234.1997
647.3610, 267.5293
648.5240, 291.8745
649.6870, 219.2383
650.8490, 155.6211
652.0120, 184.0244
653.1740, 207.4790
654.3360, 157.9536
655.4980, 224.4463
656.6600, 245.9580
657.8210, 129.4863
658.9830, 194.0308
660.1440, 196.6123
661.3050, 89.21289
662.4660, 156.8281
663.6270, 178.4595
664.7870, 184.1060
665.9480, 202.7832
667.1080, 113.4771
668.2680, 157.1924
669.4280, 27.92139
670.5880, 179.6694
671.7480, 123.4385
672.9070, 119.2231
674.0670, 139.0225
675.2260, 173.8374
676.3850, 160.6797
677.5440, 102.5498
678.7030, 70.45215
679.8610, 65.31250
681.0200, 80.28809
682.1780, 117.2827
683.3360, 101.9897
684.4940, 135.3770
685.6520, 84.45117
686.8090, 121.5449
687.9670, 95.92725
689.1240, 115.0791
690.2810, 70.22119
691.4380, 69.49121
692.5950, 75.53076
693.7520, 3.736328
694.9080, 36.95312
696.0650, 140.1816
697.2210, 116.4404
698.3770, 96.71045
699.5330, 18.01025
700.6880, 51.93164
701.8440, 92.66162
702.9990, 110.5771
704.1550, 74.93896
705.3100, 134.4170
706.4650, 99.79932
707.6190, 79.95801
708.7740, 105.3608
709.9290, 79.77295
711.0830, 135.4590
712.2370, 88.89014
713.3910, 189.6855
714.5450, 61.59082
715.6980, 132.5151
716.8520, 110.0430
718.0050, 125.0112
719.1580, 89.77637
720.3110, 99.26758
721.4640, 96.59863
722.6170, 95.40918
723.7700, 100.9536
724.9220, 93.47998
726.0740, 97.00928
727.2260, 151.5454
728.3780, 106.2993
729.5300, 91.84961
730.6810, 59.40625
731.8330, 105.9702
732.9840, 69.54004
734.1350, 101.1162
735.2860, 141.9248
736.4370, 51.51318
737.5880, 65.50488
738.7380, 105.3970
739.8880, 62.71338
741.0390, 85.38623
742.1890, 154.2930
743.3380, 157.3013
744.4880, 120.5352
745.6380, 18.16406
746.7870, 190.2480
747.9360, 54.10840
749.0850, 151.8130
750.2340, 153.5376
751.3830, 124.3843
752.5310, 74.70898
753.6800, 163.2158
754.8280, 99.15234
755.9760, 75.81006
757.1240, 169.2856
758.2720, 97.94727
759.4190, 76.54395
760.5670, 124.3589
761.7140, 74.05322
762.8610, 74.67529
764.0080, 93.70410
765.1550, 92.93018
766.3020, 98.17773
767.4480, 127.3857
768.5950, 94.05566
769.7410, 120.3579
770.8870, 86.10938
772.0330, 36.34326
773.1780, 164.5103
774.3240, 64.23926
775.4690, 99.91504
776.6140, 76.55518
777.7590, 4.282227
778.9040, 55.60059
780.0490, 77.53613
781.1940, 97.37158
782.3380, 166.5190
783.4820, 92.18408
784.6260, 51.84668
785.7700, 146.5073
786.9140, 136.1655
788.0580, 167.6372
789.2010, 61.49365
790.3450, 112.3208
791.4880, 75.45557
792.6310, 103.1074
793.7730, 141.4370
794.9160, 98.28467
796.0590, 13.01416
797.2010, 94.97412
798.3430, 36.35840
799.4850, 77.98926
800.6270, 89.91211
801.7690, 79.54834
802.9100, 91.81348
804.0520, 155.9629
805.1930, 117.1455
806.3340, 142.1572
807.4750, 92.26172
808.6160, 87.42725
809.7560, 99.31934
810.8970, 57.06055
812.0370, 21.74414
813.1770, 115.1318
814.3170, 82.00439
815.4570, 29.73438
816.5960, 14.89502
817.7360, 45.63672
818.8750, 56.97705
820.0140, 138.3306
821.1530, 148.8247
822.2920, 80.46191
823.4310, 110.9678
824.5690, 0.4326170
825.7070, 21.38477
826.8460, 123.8271
827.9840, 14.25928
829.1220, 9.320313
830.2590, 47.08545
831.3970, 40.48047
832.5340, 90.86475
833.6710, 78.23730
834.8080, 105.5991
835.9450, 42.94873
837.0820, 62.28760
838.2190, 81.61426
839.3550, 18.07080
840.4910, 45.21826
841.6270, 25.49463
842.7630, 77.75781
843.8990, 94.00879
845.0350, 129.2485
846.1700, 47.47510
847.3060, 26.31055
848.4410, 114.8711
849.5760, 10.96045
850.7100, 7.182617
851.8450, 7.308105
852.9800, 39.41602
854.1140, 11.48975
855.2480, 19.53955
856.3820, 92.62891
857.5160, 33.66650
858.6500, 57.68896
859.7830, 49.69727
860.9170, 56.69141
862.0500, 145.6719
863.1830, 66.63770
864.3160, 30.58838
865.4480, 111.5239
866.5810, 94.44482
867.7130, 86.29541
868.8460, 85.24316
869.9780, 75.12012
871.1100, 32.98193
872.2410, 72.82764
873.3730, 22.65771
874.5050, 29.46924
875.6360, 23.73682
876.7670, 3.018066
877.8980, 48.25146
879.0290, 26.42627
880.1590, 17.08545
881.2900, 112.7231
882.4200, 33.65479
883.5500, 38.92236
884.6800, 58.48145
885.8100, 10.97607
886.9400, 42.53271
888.0690, 18.02344
889.1990, 22.50781
890.3280, 2.919922
891.4570, 80.32031
892.5860, 14.70508
893.7140, 142.0654
894.8430, 22.58984
895.9710, 51.71289
897.1000, 9.997559
898.2280, 12.25732
899.3560, 21.50781
900.4830, 87.68506
901.6110, 26.86133
902.7380, 1.016113
903.8660, 90.14111
904.9930, 25.24854
906.1200, 62.33350
907.2460, 30.59863
908.3730, 32.42236
909.5000, 72.82910
910.6260, 109.8110
911.7520, 16.77588
912.8780, 4.714844
914.0040, 10.58789
915.1290, 9.783691
916.2550, 58.63867
917.3800, 37.67285
918.5050, 92.48682
919.6300, 92.28467
920.7550, 129.3652
921.8800, 91.12842
923.0040, 23.87451
924.1290, 12.59570
925.2530, 84.69531
926.3770, 41.65674
927.5010, 91.25146
928.6250, 31.82764
929.7480, 60.38086
930.8720, 69.91504
931.9950, 37.41064
933.1180, 29.05078
934.2410, 102.1406
935.3640, 54.56104
936.4860, 86.96094
937.6090, 25.65674
938.7310, 39.67725
939.8530, 151.9888
940.9750, 103.2827
942.0970, 40.94971
943.2180, 8.204590
944.3400, 52.82959
945.4610, 64.03320
946.5820, 69.13281
947.7030, 28.29883
948.8240, 14.44043
949.9450, 18.57324
951.0650, 28.65771
952.1860, 86.79785
953.3060, 27.84082
954.4260, 26.91797
955.5460, 93.91162
956.6650, 63.88867
957.7850, 79.84717
958.9040, 95.25195
960.0230, 39.45898
961.1420, 112.4365
962.2610, 116.3223
963.3800, 137.0840
964.4990, 221.9629
965.6170, 212.7993
966.7350, 269.6191
967.8530, 299.4229
968.9710, 339.2100
970.0890, 323.9810
971.2070, 355.6499
972.3240, 296.4736
973.4410, 425.1958
974.5580, 476.3369
975.6750, 605.0273
976.7920, 761.5967
977.9090, 815.2549
979.0250, 1133.897
980.1410, 1614.524
981.2580, 2489.135
982.3740, 3791.468
983.4890, 5583.048
984.6050, 7908.259
985.7200, 12153.35
986.8360, 21706.42
987.9510, 40305.88
989.0660, 57457.89
990.1810, 53120.10
991.2950, 33694.58
992.4100, 17292.91
993.5240, 8699.356
994.6390, 4769.758
995.7530, 3008.173
996.8660, 2134.579
997.9800, 1396.971
999.0940, 1196.139
1000.207, 833.5024
1001.320, 776.8525
1002.433, 623.1895
1003.546, 560.5127
1004.659, 419.8223
1005.772, 376.8936
1006.884, 384.1763
1007.996, 281.0488
1009.108, 239.0142
1010.220, 365.5479
1011.332, 319.7178
1012.444, 286.6455
1013.555, 269.4648
1014.666, 129.0518
1015.777, 178.2354
1016.888, 94.95605
1017.999, 200.8926
1019.110, 128.9775
1020.220, 52.03516
1021.331, 129.9629
1022.441, 207.4038
1023.551, 93.65527
1024.661, 141.4702
1025.770, 122.5557
1026.880, 146.8140
1027.989, 175.8789
1029.098, 125.0010
1030.207, 62.89648
1031.316, 64.90430
1032.425, 22.97754
1033.533, 79.07764
1034.642, 88.08789
1035.750, 132.5107
1036.858, 122.4321
1037.966, 115.1519
1039.073, 83.29199
1040.181, 60.17725
1041.288, 14.57227
1042.396, 37.97363
1043.503, 31.89941
1044.610, 52.81641
1045.716, 41.76172
1046.823, 41.17529
1047.929, 3.139160
1049.036, 39.68994
1050.142, 0.5952150
1051.248, 66.79688
1052.353, 38.66406
1053.459, 3.475586
1054.564, 17.37646
1055.670, 20.22266
1056.775, 19.24658
1057.880, 3.876953
1058.985, 52.47070
1060.089, 28.85254
1061.194, 42.64941
1062.298, 71.75977
1063.402, 16.34424
1064.506, 2.962891
1065.610, 63.49023
1066.713, 37.48975
1067.817, 25.26855
1068.920, 8.724609
1070.023, 81.45850
1071.126, 51.55566
1072.229, 32.75928
1073.332, 84.50244
1074.435, 11.75586
1075.537, 89.46436
1076.639, 12.38525
1077.741, 7.027832
1078.843, 25.41748
1079.945, 50.18213
1081.046, 119.0684
1082.148, 28.53857
1083.249, 35.98340
1084.350, 115.8550
1085.451, 69.55420
1086.551, 2.562988
1087.652, 102.2964
1088.752, 34.00586
1089.853, 126.5625
1090.953, 0.7583010
1092.053, 71.95166
1093.152, 4.835449
1094.252, 117.8765
1095.351, 22.58984
1096.451, 27.69531
1097.550, 113.0166
1098.649, 160.7305
1099.748, 195.4458
1100.846, 188.1626
1101.945, 262.8813
1103.043, 304.6025
1104.141, 337.3257
1105.239, 320.0508
1106.337, 301.7783
1107.434, 264.5156
1108.532, 220.1431
1109.629, 196.9878
1110.726, 118.7456
1111.823, 121.4946
1112.920, 94.24805
1114.017, 25.00342
1115.113, 137.7734
1116.210, 48.54688
1117.306, 67.33008
1118.402, 120.1196
1119.498, 96.91504
1120.593, 160.7148
1121.689, 204.5264
1122.784, 133.3433
1123.879, 156.1655
1124.974, 185.9927
1126.069, 179.8252
1127.164, 210.6631
1128.259, 252.5059
1129.353, 364.3535
1130.447, 219.2075
1131.541, 295.0674
1132.635, 447.9331
1133.729, 511.8047
1134.822, 644.6865
1135.916, 709.5747
1137.009, 876.4692
1138.102, 1079.372
1139.195, 1377.280
1140.288, 1645.197
1141.380, 1989.122
1142.473, 2520.066
1143.565, 2791.022
1144.657, 3052.004
1145.749, 2861.995
1146.841, 2611.996
1147.932, 2202.005
1149.024, 1754.039
1150.115, 1466.083
1151.206, 1188.134
1152.297, 880.2026
1153.388, 692.2808
1154.479, 584.3696
1155.569, 637.4790
1156.659, 381.6045
1157.750, 340.7466
1158.839, 295.9014
1159.929, 211.0649
1161.019, 235.2495
1162.108, 245.4438
1163.198, 240.6523
1164.287, 193.8755
1165.376, 185.1211
1166.465, 191.3809
1167.553, 197.6523
1168.642, 169.9409
1169.730, 64.23975
1170.818, 123.5513
1171.906, 237.8745
1172.994, 146.2236
1174.082, 213.1831
1175.170, 52.56006
1176.257, 121.9482
1177.344, 139.3569
1178.431, 187.7822
1179.518, 15.08936
1180.605, 94.36670
1181.691, 83.63672
1182.778, 171.1187
1183.864, 123.6113
1184.950, 136.8149
1186.036, 196.3306
1187.122, 85.85840
1188.207, 24.40039
1189.292, 143.9448
1190.378, 119.8105
1191.463, 59.42627
1192.548, 125.0537
1193.632, 231.6968
1194.717, 199.3535
1195.801, 10.86475
1196.886, 169.5645
1197.970, 165.6274
1199.054, 61.35596
1200.137, 198.0991
1201.221, 137.8545
1202.305, 103.6382
1203.388, 93.43750
1204.471, 106.2505
1205.554, 100.6851
1206.637, 96.52686
1207.719, 107.9863
1208.802, 100.3633
1209.884, 98.83789
1210.966, 93.74268
1212.048, 105.6641
1213.130, 98.42480
1214.212, 84.54541
1215.293, 91.96436
1216.374, 43.96240
1217.456, 101.9189
1218.536, 101.9517
1219.617, 98.73291
1220.698, 164.0610
1221.778, 147.1172
1222.859, 123.2070
1223.939, 236.2134
1225.019, 109.3350
1226.099, 236.4707
1227.178, 127.7412
1228.258, 170.9082
1229.337, 48.08887
1230.417, 80.28467
1231.496, 78.49512
1232.574, 98.72021
1233.653, 185.9600
1234.732, 213.2153
1235.810, 68.48438
1236.888, 187.7686
1237.966, 251.0684
1239.044, 142.3823
1240.122, 273.7114
1241.199, 172.0557
1242.277, 194.4146
1243.354, 166.7886
1244.431, 151.1782
1245.508, 155.7183
1246.585, 212.0015
1247.661, 146.4355
1248.738, 113.8853
1249.814, 102.3496
1250.890, 179.8291
1251.966, 86.43604
1253.042, 90.94531
1254.117, 177.4702
1255.193, 140.0103
1256.268, 208.5654
1257.343, 193.4741
1258.418, 131.7275
1259.493, 160.3315
1260.567, 94.95166
1261.642, 64.58643
1262.716, 203.2363
1263.790, 78.01465
1264.864, 244.7046
1265.938, 196.4150
1267.011, 237.1406
1268.085, 197.8818
1269.158, 184.6416
1270.231, 105.4160
1271.304, 210.2056
1272.377, 156.0103
1273.450, 216.8516
1274.522, 14.68701
1275.594, 229.5405
1276.666, 126.4097
1277.738, 209.0552
1278.810, 198.9541
1279.882, 165.8682
1280.953, 280.7979
1282.025, 204.7427
1283.096, 74.70312
1284.167, 162.6782
1285.238, 237.9556
1286.308, 303.7607
1287.379, 173.7852
1288.449, 103.8252
1289.519, 58.87988
1290.589, 182.9497
1291.659, 164.0342
1292.729, 188.4233
1293.798, 262.5400
1294.868, 188.8223
1295.937, 131.9678
1297.006, 25.13037
1298.075, 110.3071
1299.143, 156.4980
1300.212, 126.1143
1301.280, 153.3340
1302.348, 183.6387
1303.416, 152.2397
1304.484, 43.16992
1305.552, 148.8037
1306.620, 103.1040
1307.687, 168.4180
1308.754, 110.5400
1309.821, 230.8828
1310.888, 195.2402
1311.955, 232.6108
1313.021, 158.9951
1314.088, 185.3955
1315.154, 46.81006
1316.220, 148.2383
1317.286, 132.6787
1318.352, 104.1343
1319.417, 153.6138
1320.483, 126.1040
1321.548, 150.6050
1322.613, 101.1196
1323.678, 176.6475
1324.743, 132.1895
1325.807, 134.6680
1326.872, 71.32080
1327.936, 108.9106
1329.000, 111.5132
1330.064, 85.12891
1331.128, 141.7588
1332.191, 75.40137
1333.255, 63.05518
1334.318, 231.7236
1335.381, 135.4053
1336.444, 143.1030
1337.507, 115.8135
1338.569, 38.54102
1339.632, 87.28223
1340.694, 50.03662
1341.756, 29.80859
1342.818, 22.40576
1343.880, 85.73047
1344.941, 47.53955
1346.003, 64.67529
1347.064, 30.19873
1348.125, 78.04736
1349.186, 101.9092
1350.247, 116.7852
1351.308, 95.67285
1352.368, 58.57471
1353.428, 105.4893
1354.489, 141.4170
1355.549, 21.72559
1356.608, 109.6763
1357.668, 76.64014
1358.727, 160.6167
1359.787, 19.60596
1360.846, 150.6079
1361.905, 93.62207
1362.964, 31.64893
1364.022, 137.6831
1365.081, 15.73047
1366.139, 29.78955
1367.197, 51.85938
1368.255, 82.92969
1369.313, 82.01172
1370.371, 52.10693
1371.428, 34.21094
1372.486, 43.31885
1373.543, 54.43896
1374.600, 60.56738
1375.657, 55.69922
1376.713, 107.8433
1377.770, 11.98877
1378.826, 6.854980
1379.882, 124.3125
1380.938, 37.49170
1381.994, 6.682617
1383.050, 171.8843
1384.106, 135.8511
1385.161, 144.0757
1386.216, 109.3125
1387.271, 49.56055
1388.326, 109.8203
1389.381, 150.0908
1390.435, 34.53906
1391.490, 62.74951
1392.544, 63.29883
1393.598, 81.60986
1394.652, 96.64844
1395.705, 80.18750
1396.759, 64.10303
1397.812, 53.44434
1398.866, 2.796875
1399.919, 0.8403320
1400.972, 5.532715
1402.024, 27.39746
1403.077, 109.7866
1404.129, 23.81299
1405.181, 65.59375
1406.233, 5.010742
1407.285, 24.43799
1408.337, 42.87549
1409.389, 2.687012
1410.440, 16.89795
1411.491, 9.802734
1412.542, 46.32422
1413.593, 9.158691
1414.644, 21.65381
1415.695, 95.15918
1416.745, 22.66162
1417.795, 9.175781
1418.845, 9.299805
1419.895, 48.74268
1420.945, 30.78027
1421.995, 38.68799
1423.044, 110.5938
1424.093, 3.077637
1425.142, 37.55615
1426.191, 11.95850
1427.240, 92.53076
1428.289, 27.97461
1429.337, 25.51660
1430.385, 1.985352
1431.433, 33.54443
1432.481, 158.9199
1433.529, 34.38184
1434.577, 11.82422
1435.624, 150.2480
1436.672, 128.6694
1437.719, 81.08691
1438.766, 68.49854
1439.812, 275.4980
1440.859, 66.89844
1441.905, 189.3193
1442.952, 86.71436
1443.998, 127.5801
1445.044, 214.8506
1446.090, 171.8823
1447.135, 78.67871
1448.181, 209.2744
1449.226, 157.8872
1450.271, 45.51562
1451.316, 115.1616
1452.361, 91.82324
1453.405, 101.5005
1454.450, 36.19434
1455.494, 150.9038
1456.538, 106.2383
1457.582, 106.3711
1458.626, 106.6353
1459.670, 101.3901
1460.713, 105.1592
1461.757, 116.9448
1462.800, 130.7437
1463.843, 132.6577
1464.886, 107.3833
1465.928, 151.2222
1466.971, 64.07520
1468.013, 87.94336
1469.055, 25.17383
1470.097, 125.7217
1471.139, 19.63135
1472.181, 73.55566
1473.222, 37.49463
1474.263, 114.4473
1475.305, 99.41504
1476.346, 112.2500
1477.386, 156.2446
1478.427, 143.2495
1479.468, 130.9326
1480.508, 1.708008
1481.548, 71.79736
1482.588, 99.80273
1483.628, 81.81348
1484.668, 157.8301
1485.707, 131.8584
1486.747, 67.87012
1487.786, 172.9165
1488.825, 121.8306
1489.864, 166.8867
1490.902, 28.95361
1491.941, 106.5835
1492.979, 106.8125
1494.017, 24.85596
1495.055, 138.9097
1496.093, 59.49219
1497.131, 67.62891
1498.168, 86.66699
1499.206, 104.0103
1500.243, 86.19238
1501.280, 103.0889
1502.317, 74.85010
1503.354, 104.8711
1504.390, 53.90430
1505.426, 43.95117
1506.463, 102.0029
1507.499, 100.0688
1508.535, 6.855957
1509.570, 73.24756
1510.606, 21.36914
1511.641, 73.50146
1512.676, 57.64404
1513.711, 57.79492
1514.746, 25.04541
1515.781, 143.1323
1516.816, 10.68164
1517.850, 60.51172
1518.884, 119.7109
1519.918, 2.916992
1520.952, 225.8252
1521.986, 62.96924
1523.019, 137.1133
1524.053, 53.25781
1525.086, 102.4009
1526.119, 3.539551
1527.152, 138.6880
1528.185, 197.8335
1529.217, 120.9736
1530.250, 197.1240
1531.282, 182.2827
1532.314, 80.48779
1533.346, 40.72900
1534.377, 46.01123
1535.409, 1.334473
1536.440, 124.7319
1537.472, 175.2163
1538.503, 96.71436
1539.534, 76.22559
1540.564, 172.6987
1541.595, 107.1299
1542.625, 106.5645
1543.656, 6.589844
1544.686, 93.80322
1545.716, 104.1338
1546.745, 7.920410
1547.775, 183.6533
1548.804, 187.6494
1549.834, 117.1753
1550.863, 219.6123
1551.892, 202.9429
1552.920, 155.3574
1553.949, 171.3286
1554.977, 197.6934
1556.006, 171.8364
1557.034, 189.7183
1558.062, 139.9297
1559.089, 164.6782
1560.117, 85.26416
1561.144, 110.5342
1562.172, 120.3101
1563.199, 0.6523440
1564.226, 128.9785
1565.252, 62.32666
1566.279, 75.92822
1567.305, 0.4931640
1568.332, 124.5571
1569.358, 53.01172
1570.384, 0.0000000E+00
##END=



