##NAMES=Baryte
##RRUFFID=R050375
##IDEAL CHEMISTRY=BaS^6+^O_4_
##LOCALITY=unknown
##OWNER=RRUFF
##SOURCE=Eugene Schlepp
##DESCRIPTION=Pale green tabular crystals
##STATUS=The identification of this mineral has been confirmed by X-ray diffraction and chemical analysis
##URL=rruff.info/R050375
##MEASURED CHEMISTRY=Ba_1.00_SO_4_
##PIN_ID=L01098
##ORIENTATION=Laser parallel to -a* (-1 0 0). Fiducial mark perpendicular to laser is parallel to -b [0 -1 0]
51.43100, 0.0000000E+00
52.67100, 17.83023
53.91000, 6.587219
55.14900, 18.14346
56.38700, 20.15747
57.62600, 1.144165
58.86400, 5.545898
60.10300, 9.132935
61.34100, 1.988037
62.57900, 2.191925
63.81700, 36.24203
65.05400, 87.21841
66.29200, 160.6777
67.52900, 310.5696
68.76700, 405.8519
70.00400, 730.4890
71.24100, 1180.449
72.47700, 1459.704
73.71400, 1471.228
74.95100, 1355.998
76.18700, 1100.996
77.42300, 765.2032
78.65900, 539.6068
79.89500, 397.1929
81.13100, 359.9504
82.36700, 361.8688
83.60200, 390.9386
84.83700, 413.1516
86.07200, 501.5006
87.30800, 562.9796
88.54200, 645.5820
89.77700, 715.2990
91.01200, 792.1202
92.24600, 814.0367
93.48000, 883.0430
94.71400, 979.1353
95.94800, 970.3101
97.18200, 1058.564
98.41600, 1011.893
99.64900, 882.2955
100.8830, 836.7687
102.1160, 680.3103
103.3490, 570.9181
104.5820, 474.5908
105.8150, 409.3264
107.0470, 414.1227
108.2800, 381.9773
109.5120, 381.8893
110.7440, 367.8558
111.9760, 347.2931
113.2080, 319.9478
114.4400, 313.0697
115.6710, 332.2405
116.9030, 320.4589
118.1340, 363.7266
119.3650, 361.0422
120.5960, 364.4215
121.8270, 316.8433
123.0580, 317.3072
124.2880, 331.8108
125.5190, 336.3495
126.7490, 320.8943
127.9790, 320.4415
129.2090, 346.9872
130.4390, 318.5327
131.6680, 326.0878
132.8980, 317.6562
134.1270, 303.0165
135.3560, 247.8695
136.5850, 282.5222
137.8140, 262.2120
139.0430, 255.9330
140.2710, 305.6743
141.5000, 282.4344
142.7280, 310.2138
143.9560, 341.0272
145.1840, 337.8757
146.4120, 350.7550
147.6390, 374.6569
148.8670, 365.5800
150.0940, 376.5272
151.3210, 403.4965
152.5490, 364.4855
153.7750, 404.5022
155.0020, 340.5661
156.2290, 295.6597
157.4550, 302.7730
158.6810, 282.9053
159.9080, 228.0566
161.1340, 206.2267
162.3590, 207.4155
163.5850, 220.6230
164.8110, 211.8492
166.0360, 195.1109
167.2610, 193.3738
168.4860, 178.6552
169.7110, 189.9548
170.9360, 176.2727
172.1610, 199.6242
173.3850, 172.9780
174.6100, 203.3498
175.8340, 197.7396
177.0580, 237.1471
178.2820, 261.5739
179.5050, 251.0166
180.7290, 274.4767
181.9520, 273.9540
183.1760, 304.4484
184.3990, 313.2490
185.6220, 322.7744
186.8450, 329.3182
188.0670, 350.9198
189.2900, 343.4852
190.5120, 339.0669
191.7340, 319.7506
192.9560, 298.3662
194.1780, 260.9958
195.4000, 198.6400
196.6220, 208.2993
197.8430, 196.9739
199.0640, 143.3063
200.2860, 151.0157
201.5070, 154.7115
202.7270, 161.5087
203.9480, 165.1924
205.1690, 145.6425
206.3890, 114.5761
207.6090, 113.9731
208.8290, 108.8796
210.0490, 117.8090
211.2690, 95.87646
212.4890, 72.92303
213.7080, 99.00122
214.9280, 101.8490
216.1470, 106.9994
217.3660, 85.19055
218.5850, 115.5912
219.8030, 88.09412
221.0220, 80.85541
222.2400, 107.8047
223.4590, 92.94128
224.6770, 68.63275
225.8950, 83.27148
227.1120, 43.68463
228.3300, 90.12103
229.5480, 62.58008
230.7650, 54.06097
231.9820, 71.56323
233.1990, 72.08600
234.4160, 86.62231
235.6330, 65.18457
236.8490, 71.01770
238.0660, 68.27814
239.2820, 50.89563
240.4980, 74.53064
241.7140, 68.37225
242.9300, 61.04120
244.1460, 87.75262
245.3610, 77.49054
246.5770, 77.33026
247.7920, 80.32483
249.0070, 76.07257
250.2220, 58.83514
251.4370, 61.61224
252.6510, 55.40363
253.8660, 65.49927
255.0800, 24.85504
256.2940, 52.12207
257.5080, 68.95813
258.7220, 89.05713
259.9360, 53.05139
261.1490, 68.93719
262.3630, 56.83533
263.5760, 82.74548
264.7890, 47.66742
266.0020, 51.60529
267.2150, 67.55457
268.4270, 30.51508
269.6400, 5.486572
270.8520, 36.46887
272.0640, 49.46198
273.2760, 39.46570
274.4880, 33.48065
275.7000, 48.50629
276.9120, 51.54309
278.1230, 37.59058
279.3340, 1.350220
280.5450, 73.72009
281.7560, 10.80090
282.9670, 34.89606
284.1780, 45.00140
285.3880, 29.11700
286.5980, 71.24255
287.8090, 40.37805
289.0190, 45.52344
290.2290, 54.67896
291.4380, 1.155884
292.6480, 17.02087
293.8570, 41.20691
295.0670, 12.40784
296.2760, 60.61780
297.4850, 68.83838
298.6930, 38.06848
299.9020, 19.30762
301.1110, 59.55835
302.3190, 0.8176270
303.5270, 30.08569
304.7350, 24.36279
305.9430, 29.64832
307.1510, 13.94214
308.3580, 28.24426
309.5660, 13.55469
310.7730, 4.873535
311.9800, 17.20044
313.1870, 25.53528
314.3940, 3.878174
315.6010, 11.77100
316.8070, 48.58643
318.0130, 16.95154
319.2200, 24.32434
320.4260, 0.7048340
321.6310, 28.90698
322.8370, 37.48425
324.0430, 9.882935
325.2480, 24.28918
326.4540, 28.70264
327.6590, 22.12341
328.8640, 4.448608
330.0680, 42.98462
331.2730, 0.4249270
332.4780, 41.87219
333.6820, 3.321655
334.8860, 0.7781980
336.0900, 12.24146
337.2940, 28.71118
338.4980, 7.187500
339.7010, 20.67053
340.9050, 26.16016
342.1080, 19.65662
343.3110, 17.84045
344.5140, 36.66809
345.7170, 16.18787
346.9200, 4.281006
348.1220, 42.26025
349.3240, 18.81299
350.5270, 4.621948
351.7290, 31.95264
352.9310, 46.53992
354.1320, 9.137451
355.3340, 2.254639
356.5350, 0.3621830
357.7370, 6.988647
358.9380, 18.37537
360.1390, 30.26343
361.3400, 44.56702
362.5400, 26.77600
363.7410, 6.120483
364.9410, 11.45898
366.1410, 14.79309
367.3410, 18.12476
368.5410, 7.455078
369.7410, 5.468506
370.9400, 10.89978
372.1400, 7.588135
373.3390, 13.28430
374.5380, 13.98840
375.7370, 11.70007
376.9360, 12.41943
378.1350, 20.85376
379.3330, 27.87183
380.5310, 4.395386
381.7300, 33.65759
382.9280, 5.072754
384.1260, 4.810303
385.3230, 2.445068
386.5210, 22.30457
387.7180, 2.061035
388.9160, 1.823853
390.1130, 0.4071040
391.3100, 3.632813
392.5060, 8.145508
393.7030, 6.593506
394.9000, 6.167969
396.0960, 11.52087
397.2920, 3.673828
398.4880, 8.902832
399.6840, 26.88916
400.8800, 17.84656
402.0750, 2.041260
403.2710, 0.7675780
404.4660, 7.608154
405.6610, 7.400757
406.8560, 14.22620
408.0510, 8.057617
409.2450, 11.87512
410.4400, 15.68848
411.6340, 20.51233
412.8280, 26.42188
414.0220, 30.28210
415.2160, 41.14783
416.4100, 31.01904
417.6030, 60.97681
418.7970, 55.85901
419.9900, 67.81958
421.1830, 107.7124
422.3760, 109.8108
423.5690, 94.83081
424.7610, 176.7393
425.9540, 188.5511
427.1460, 215.4709
428.3380, 268.3979
429.5300, 338.3286
430.7220, 380.2640
431.9140, 500.2043
433.1050, 574.2297
434.2970, 708.1804
435.4880, 917.5958
436.6790, 1141.557
437.8700, 1532.768
439.0610, 1895.739
440.2510, 2416.009
441.4420, 3360.105
442.6320, 4447.091
443.8220, 5810.709
445.0120, 7271.704
446.2020, 8589.732
447.3910, 10002.86
448.5810, 11268.87
449.7700, 12220.88
450.9600, 13077.91
452.1490, 12865.94
453.3370, 12435.02
454.5260, 10885.07
455.7150, 9143.114
456.9030, 6976.175
458.0910, 5057.241
459.2800, 3617.049
460.4670, 2604.124
461.6550, 1921.205
462.8430, 1460.290
464.0300, 1093.377
465.2180, 968.4954
466.4050, 726.5912
467.5920, 540.6907
468.7790, 484.7941
469.9650, 376.9008
471.1520, 331.0114
472.3380, 314.0430
473.5250, 243.1603
474.7110, 214.2783
475.8970, 163.4026
477.0820, 188.5302
478.2680, 141.6599
479.4540, 176.7943
480.6390, 94.93188
481.8240, 61.07349
483.0090, 107.2249
484.1940, 70.37927
485.3780, 86.53687
486.5630, 71.08252
487.7470, 80.25256
488.9320, 90.42542
490.1160, 86.48999
491.3000, 90.25330
492.4830, 89.72729
493.6670, 83.90759
494.8500, 76.09631
496.0340, 67.28760
497.2170, 39.48145
498.4000, 85.60803
499.5820, 68.79956
500.7650, 26.00098
501.9480, 69.47241
503.1300, 21.32129
504.3120, 55.87317
505.4940, 103.8923
506.6760, 62.84265
507.8580, 52.56616
509.0390, 65.13208
510.2210, 26.54163
511.4020, 27.42456
512.5830, 53.38757
513.7640, 76.60254
514.9450, 83.81982
516.1250, 48.03931
517.3060, 46.26086
518.4860, 33.48438
519.6660, 72.71057
520.8460, 23.94531
522.0260, 49.17542
523.2060, 54.15564
524.3850, 34.72900
525.5650, 14.96509
526.7440, 38.20337
527.9230, 50.25415
529.1020, 35.49609
530.2810, 50.71399
531.4590, 36.92322
532.6380, 19.04810
533.8160, 30.03516
534.9940, 49.28601
536.1720, 60.53857
537.3500, 21.04639
538.5270, 52.30225
539.7050, 56.51294
540.8820, 4.235474
542.0590, 1.462524
543.2360, 19.98303
544.4130, 42.00708
545.5900, 29.15515
546.7660, 76.42761
547.9430, 38.70142
549.1190, 12.97876
550.2950, 12.69507
551.4710, 44.57629
552.6470, 52.84912
553.8220, 59.12366
554.9980, 102.3995
556.1730, 35.67664
557.3480, 36.95483
558.5230, 6.234375
559.6980, 19.51416
560.8730, 6.795166
562.0470, 41.07642
563.2220, 2.358765
564.3960, 4.640015
565.5700, 50.92102
566.7440, 10.49304
567.9170, 18.78174
569.0910, 13.07825
570.2640, 33.50989
571.4380, 59.78723
572.6110, 33.06567
573.7840, 7.351563
574.9570, 37.83984
576.1290, 2.725342
577.3020, 31.55945
578.4740, 15.94702
579.6460, 15.33423
580.8180, 0.6108400
581.9900, 6.150757
583.1620, 18.42432
584.3330, 5.218750
585.5040, 28.04980
586.6760, 11.31873
587.8470, 5.798706
589.0180, 21.14355
590.1880, 15.83862
591.3590, 14.30957
592.5290, 39.79858
593.7000, 12.06665
594.8700, 32.70178
596.0400, 81.30054
597.2090, 42.07776
598.3790, 87.50037
599.5490, 58.76660
600.7180, 128.2188
601.8870, 121.0292
603.0560, 159.3019
604.2250, 220.5742
605.3940, 329.8569
606.5620, 452.1433
607.7300, 650.4832
608.8990, 943.8044
610.0670, 1145.089
611.2350, 1402.377
612.4020, 1694.666
613.5700, 1962.954
614.7370, 2168.240
615.9050, 2250.527
617.0720, 2274.812
618.2390, 2114.096
619.4060, 1800.396
620.5720, 1477.678
621.7390, 1194.126
622.9050, 1002.910
624.0710, 814.1477
625.2370, 660.4678
626.4030, 592.8894
627.5690, 547.4141
628.7340, 526.6917
629.9000, 536.9677
631.0650, 471.5709
632.2300, 436.8450
633.3950, 443.1174
634.5600, 369.3894
635.7240, 338.6598
636.8890, 296.9286
638.0530, 269.1960
639.2170, 244.4623
640.3810, 245.7273
641.5450, 188.9907
642.7080, 216.2560
643.8720, 230.8641
645.0350, 207.1631
646.1980, 178.5181
647.3610, 167.7834
648.5240, 139.0496
649.6870, 138.7057
650.8490, 136.9750
652.0120, 123.2443
653.1740, 84.51294
654.3360, 76.78015
655.4980, 82.04541
656.6600, 86.30896
657.8210, 84.57068
658.9830, 32.96106
660.1440, 79.21936
661.3050, 47.48022
662.4660, 76.73999
663.6270, 64.02551
664.7870, 81.29761
665.9480, 70.89404
667.1080, 52.83325
668.2680, 60.09363
669.4280, 47.35193
670.5880, 74.60852
671.7480, 34.86340
672.9070, 44.11707
674.0670, 75.36987
675.2260, 65.62073
676.3850, 7.869507
677.5440, 68.12830
678.7030, 8.370483
679.8610, 46.61169
681.0200, 2.687988
682.1780, 8.257813
683.3360, 31.49817
684.4940, 34.89075
685.6520, 60.56165
686.8090, 43.79712
687.9670, 61.44727
689.1240, 22.68665
690.2810, 76.93469
691.4380, 61.16443
692.5950, 110.4967
693.7520, 67.71777
694.9080, 61.94812
696.0650, 70.16431
697.2210, 58.37817
698.3770, 38.51404
699.5330, 48.76550
700.6880, 33.90125
701.8440, 60.10535
702.9990, 50.10669
704.1550, 54.17578
705.3100, 6.372559
706.4650, 46.66736
707.6190, 24.85657
708.7740, 13.09900
709.9290, 78.28284
711.0830, 43.53381
712.2370, 33.24121
713.3910, 11.33606
714.5450, 14.81689
715.6980, 38.66589
716.8520, 10.83044
718.0050, 27.98279
719.1580, 54.14026
720.3110, 7.001099
721.4640, 37.03540
722.6170, 18.18286
723.7700, 57.72449
724.9220, 54.86621
726.0740, 8.976074
727.2260, 17.98242
728.3780, 1.114014
729.5300, 9.239136
730.6810, 27.64453
731.8330, 39.45471
732.9840, 2.505127
734.1350, 3.595947
735.2860, 32.31860
736.4370, 11.74304
737.5880, 36.80066
738.7380, 9.855591
739.8880, 1.093384
741.0390, 37.48230
742.1890, 36.52319
743.3380, 33.11682
744.4880, 52.15234
745.6380, 23.18506
746.7870, 25.21448
747.9360, 42.24084
749.0850, 61.43298
750.2340, 74.45374
751.3830, 74.84875
752.5310, 79.90393
753.6800, 63.49927
754.8280, 67.50903
755.9760, 52.51562
757.1240, 28.51978
758.2720, 69.52087
759.4190, 13.51904
760.5670, 14.48682
761.7140, 44.49146
762.8610, 58.46704
764.0080, 14.43994
765.1550, 10.59131
766.3020, 37.36389
767.4480, 51.31628
768.5950, 5.266113
769.7410, 68.21008
770.8870, 46.15137
772.0330, 84.09009
773.1780, 119.0262
774.3240, 50.95959
775.4690, 36.89124
776.6140, 50.82043
777.7590, 91.77356
778.9040, 87.69727
780.0490, 46.61865
781.1940, 104.5408
782.3380, 22.46765
783.4820, 16.39160
784.6260, 57.31213
785.7700, 36.23022
786.9140, 2.145874
788.0580, 39.05530
789.2010, 67.96411
790.3450, 84.87061
791.4880, 47.77441
792.6310, 28.67578
793.7730, 57.57458
794.9160, 67.47131
796.0590, 11.36536
797.2010, 38.25586
798.3430, 41.14404
799.4850, 27.02979
800.6270, 20.91321
801.7690, 24.79407
802.9100, 23.64636
804.0520, 30.54797
805.1930, 30.71851
806.3340, 48.58960
807.4750, 42.45837
808.6160, 52.81201
809.7560, 56.40405
810.8970, 46.05103
812.0370, 48.91077
813.1770, 53.76819
814.3170, 21.36975
815.4570, 35.22266
816.5960, 23.82971
817.7360, 30.67810
818.8750, 2.876221
820.0140, 49.71655
821.1530, 12.44458
822.2920, 1.057007
823.4310, 42.20251
824.5690, 0.9790040
825.7070, 19.83325
826.8460, 55.59631
827.9840, 20.40894
829.1220, 7.219604
830.2590, 26.02710
831.3970, 17.83289
832.5340, 21.63660
833.6710, 20.43823
834.8080, 18.51013
835.9450, 12.03662
837.0820, 18.83276
838.2190, 27.62744
839.3550, 31.42053
840.4910, 19.21265
841.6270, 45.00378
842.7630, 27.41736
843.8990, 44.28113
845.0350, 8.050415
846.1700, 16.68347
847.3060, 6.469849
848.4410, 20.74585
849.5760, 27.02344
850.7100, 1.410889
851.8450, 1.205811
852.9800, 15.96863
854.1140, 0.4781490
855.2480, 47.27991
856.3820, 19.04187
857.5160, 43.53809
858.6500, 43.29932
859.7830, 7.976318
860.9170, 29.73767
862.0500, 30.49780
863.1830, 36.04590
864.3160, 28.95959
865.4480, 30.03418
866.5810, 32.06311
867.7130, 22.14673
868.8460, 33.90161
869.9780, 29.24927
871.1100, 29.25317
872.2410, 10.95264
873.3730, 18.54919
874.5050, 10.30103
875.6360, 21.86743
876.7670, 25.92554
877.8980, 2.811523
879.0290, 42.45166
880.1590, 20.26282
881.2900, 19.97681
882.4200, 4.636719
883.5500, 15.31396
884.6800, 20.97253
885.8100, 29.73047
886.9400, 9.433716
888.0690, 67.13696
889.1990, 42.84009
890.3280, 37.54321
891.4570, 34.24622
892.5860, 30.94946
893.7140, 74.63660
894.8430, 70.33997
895.9710, 48.87744
897.1000, 135.0781
898.2280, 105.7822
899.3560, 118.4868
900.4830, 43.04712
901.6110, 73.50647
902.7380, 59.21228
903.8660, 2.918579
904.9930, 77.29749
906.1200, 70.00488
907.2460, 35.71289
908.3730, 50.44458
909.5000, 90.15430
910.6260, 77.05945
911.7520, 38.77722
912.8780, 1.504395
914.0040, 34.21460
915.1290, 69.93457
916.2550, 39.43909
917.3800, 28.16418
918.5050, 88.85510
919.6300, 76.49890
920.7550, 53.23633
921.8800, 74.97925
923.0040, 37.33423
924.1290, 56.47742
925.2530, 94.22339
926.3770, 51.97058
927.5010, 54.72034
928.6250, 28.47119
929.7480, 15.22388
930.8720, 67.97778
931.9950, 92.60303
933.1180, 58.35962
934.2410, 89.11914
935.3640, 94.87927
936.4860, 66.61462
937.6090, 22.36987
938.7310, 9.876831
939.8530, 39.88770
940.9750, 80.65381
942.0970, 45.42151
943.2180, 57.19092
944.3400, 61.96179
945.4610, 4.734497
946.5820, 68.50879
947.7030, 52.28491
948.8240, 30.06262
949.9450, 28.82898
951.0650, 8.611450
952.1860, 50.39539
953.3060, 90.18262
954.4260, 48.40820
955.5460, 144.2023
956.6650, 139.8450
957.7850, 105.2101
958.9040, 129.0104
960.0230, 129.9860
961.1420, 205.1920
962.2610, 192.9993
963.3800, 260.8048
964.4990, 358.5077
965.6170, 425.3219
966.7350, 437.1270
967.8530, 499.9463
968.9710, 543.7678
970.0890, 646.5862
971.2070, 652.3705
972.3240, 777.1975
973.4410, 935.0293
974.5580, 1148.864
975.6750, 1379.701
976.7920, 1852.540
977.9090, 2608.384
979.0250, 3928.230
980.1410, 6617.022
981.2580, 11777.87
982.3740, 21274.66
983.4890, 32151.99
984.6050, 39759.85
985.7200, 49893.41
986.8360, 57361.12
987.9510, 58478.98
989.0660, 52806.63
990.1810, 40675.51
991.2950, 25765.39
992.4100, 14049.27
993.5240, 7753.165
994.6390, 4515.032
995.7530, 2935.928
996.8660, 2052.827
997.9800, 1513.731
999.0940, 1282.638
1000.207, 1014.550
1001.320, 818.4668
1002.433, 694.3960
1003.546, 626.3289
1004.659, 507.2666
1005.772, 492.2090
1006.884, 383.1658
1007.996, 342.1266
1009.108, 363.0908
1010.220, 322.0596
1011.332, 300.5016
1012.444, 295.4799
1013.555, 201.9059
1014.666, 170.8916
1015.777, 165.8810
1016.888, 134.8743
1017.999, 148.8716
1019.110, 120.7045
1020.220, 151.7876
1021.331, 77.79663
1022.441, 144.8096
1023.551, 145.8267
1024.661, 95.84778
1025.770, 99.87268
1026.880, 52.90186
1027.989, 61.93506
1029.098, 40.03430
1030.207, 39.07629
1031.316, 33.12891
1032.425, 51.18555
1033.533, 46.89844
1034.642, 49.31201
1035.750, 43.38708
1036.858, 44.46643
1037.966, 21.55005
1039.073, 14.63904
1040.181, 5.732422
1041.288, 2.026978
1042.396, 18.98071
1043.503, 9.905884
1044.610, 24.66858
1045.716, 20.79089
1046.823, 24.89075
1047.929, 1.021484
1049.036, 24.84363
1050.142, 41.05334
1051.248, 15.58997
1052.353, 51.70459
1053.459, 43.59375
1054.564, 22.74707
1055.670, 34.90027
1056.775, 13.94055
1057.880, 12.21887
1058.985, 32.38843
1060.089, 11.84302
1061.194, 13.02051
1062.298, 52.31116
1063.402, 15.49695
1064.506, 14.68665
1065.610, 5.881104
1066.713, 29.41809
1067.817, 23.27734
1068.920, 37.83081
1070.023, 31.04333
1071.126, 38.35327
1072.229, 44.44128
1073.332, 64.50317
1074.435, 99.73328
1075.537, 152.9674
1076.639, 196.2056
1077.741, 229.4478
1078.843, 330.6940
1079.945, 319.9443
1081.046, 454.1987
1082.148, 497.4575
1083.249, 475.7203
1084.350, 494.9872
1085.451, 459.2583
1086.551, 398.5333
1087.652, 327.8151
1088.752, 257.1008
1089.853, 207.4031
1090.953, 203.7113
1092.053, 285.0236
1093.152, 309.3422
1094.252, 386.6647
1095.351, 479.9922
1096.451, 682.3325
1097.550, 954.6775
1098.649, 1305.027
1099.748, 1612.380
1100.846, 1930.737
1101.945, 2231.099
1103.043, 2402.463
1104.141, 2460.833
1105.239, 2277.207
1106.337, 1941.585
1107.434, 1550.966
1108.532, 1117.355
1109.629, 832.7473
1110.726, 576.1438
1111.823, 489.5442
1112.920, 361.9490
1114.017, 283.3577
1115.113, 240.7706
1116.210, 198.1943
1117.306, 170.6219
1118.402, 166.0601
1119.498, 114.5034
1120.593, 117.9508
1121.689, 66.40308
1122.784, 109.8594
1123.879, 112.3195
1124.974, 77.78357
1126.069, 125.2513
1127.164, 79.72302
1128.259, 50.19873
1129.353, 83.67834
1130.447, 61.16174
1131.541, 50.64905
1132.635, 67.14026
1133.729, 125.6350
1134.822, 125.1334
1135.916, 112.6356
1137.009, 193.1416
1138.102, 161.6523
1139.195, 160.1718
1140.288, 148.6948
1141.380, 144.2214
1142.473, 118.7515
1143.565, 98.29175
1144.657, 65.83545
1145.749, 63.39380
1146.841, 83.95569
1147.932, 37.52087
1149.024, 6.089722
1150.115, 55.66187
1151.206, 2.756836
1152.297, 17.82703
1153.388, 12.41431
1154.479, 33.00623
1155.569, 39.60168
1156.659, 45.20007
1157.750, 26.80212
1158.839, 64.40747
1159.929, 1.984009
1161.019, 60.62708
1162.108, 55.24146
1163.198, 105.8591
1164.287, 83.48218
1165.376, 144.1099
1166.465, 126.7406
1167.553, 91.37451
1168.642, 81.01147
1169.730, 22.65173
1170.818, 35.29504
1171.906, 35.94141
1172.994, 0.6188960
1174.082, 11.03992
1175.170, 30.49292
1176.257, 27.62671
1177.344, 10.28137
1178.431, 39.93896
1179.518, 35.59937
1180.605, 17.52124
1181.691, 9.862305
1182.778, 21.48206
1183.864, 16.92297
1184.950, 21.90381
1186.036, 8.738037
1187.122, 11.38281
1188.207, 4.631958
1189.292, 25.66357
1190.378, 6.683960
1191.463, 11.96851
1192.548, 2.376465
1193.632, 68.27979
1194.717, 51.93835
1195.801, 34.59949
1196.886, 7.737183
1197.970, 21.30200
1199.054, 23.96692
1200.137, 10.88672
1201.221, 1.689697
1202.305, 11.98108
1203.388, 22.83887
1204.471, 45.51550
1205.554, 52.19446
1206.637, 33.87549
1207.719, 28.55872
1208.802, 42.24402
1209.884, 36.93152
1210.966, 43.62109
1212.048, 61.14551
1213.130, 65.33997
1214.212, 94.70215
1215.293, 82.40051
1216.374, 89.10095
1217.456, 82.81445
1218.536, 71.51868
1219.617, 19.86121
1220.698, 25.56909
1221.778, 37.27856
1222.859, 23.01025
1223.939, 66.72314
1225.019, 40.58069
1226.099, 70.39136
1227.178, 107.1089
1228.258, 62.82788
1229.337, 48.54846
1230.417, 51.27051
1231.496, 91.99414
1232.574, 78.71912
1233.653, 62.44556
1234.732, 36.17310
1235.810, 40.63513
1236.888, 47.63220
1237.966, 48.96838
1239.044, 69.70105
1240.122, 81.43481
1241.199, 35.16992
1242.277, 81.90588
1243.354, 85.64319
1244.431, 91.38135
1245.508, 15.12061
1246.585, 100.8868
1247.661, 130.7797
1248.738, 35.61084
1249.814, 43.35388
1250.890, 80.09741
1251.966, 55.84192
1253.042, 39.58716
1254.117, 31.33301
1255.193, 34.07983
1256.268, 54.82727
1257.343, 38.57568
1258.418, 74.34314
1259.493, 55.13074
1260.567, 77.88074
1261.642, 87.63110
1262.716, 36.38257
1263.790, 33.13416
1264.864, 71.90491
1265.938, 100.6577
1267.011, 100.6804
1268.085, 87.59961
1269.158, 101.8684
1270.231, 140.1074
1271.304, 94.86169
1272.377, 44.61633
1273.450, 16.37183
1274.522, 73.12732
1275.594, 59.91699
1276.666, 77.67285
1277.738, 81.43921
1278.810, 85.79175
1279.882, 91.35498
1280.953, 106.7706
1282.025, 89.53625
1283.096, 109.5883
1284.167, 101.3536
1285.238, 67.11902
1286.308, 73.88452
1287.379, 75.64978
1288.449, 53.41504
1289.519, 35.11804
1290.589, 68.92212
1291.659, 57.68750
1292.729, 11.94275
1293.798, 71.02637
1294.868, 28.79102
1295.937, 16.55945
1297.006, 70.32739
1298.075, 18.09546
1299.143, 32.91174
1300.212, 72.67896
1301.280, 23.55444
1302.348, 66.82031
1303.416, 58.57007
1304.484, 2.128540
1305.552, 40.61609
1306.620, 17.78699
1307.687, 34.10303
1308.754, 22.84521
1309.821, 38.82495
1310.888, 42.16797
1311.955, 41.93689
1313.021, 62.93469
1314.088, 20.67151
1315.154, 42.41187
1316.220, 87.15088
1317.286, 18.10962
1318.352, 30.61633
1319.417, 9.142700
1320.483, 29.86511
1321.548, 12.47595
1322.613, 27.19592
1323.678, 61.91602
1324.743, 10.63452
1325.807, 1.963745
1326.872, 50.75232
1327.936, 7.468384
1329.000, 48.18469
1330.064, 32.80798
1331.128, 1.524414
1332.191, 30.24011
1333.255, 66.95581
1334.318, 68.67139
1335.381, 47.37939
1336.444, 49.08704
1337.507, 50.31775
1338.569, 48.49011
1339.632, 58.18616
1340.694, 50.88208
1341.756, 49.76440
1342.818, 67.47498
1343.880, 25.22278
1344.941, 11.91479
1346.003, 23.60596
1347.064, 20.70325
1348.125, 16.97998
1349.186, 42.65601
1350.247, 11.33142
1351.308, 71.00635
1352.368, 4.680664
1353.428, 27.64624
1354.489, 96.01721
1355.549, 64.68005
1356.608, 90.35571
1357.668, 57.03796
1358.727, 50.76147
1359.787, 104.4130
1360.846, 73.06384
1361.905, 32.71375
1362.964, 57.36304
1364.022, 59.02686
1365.081, 3.326538
1366.139, 21.31458
1367.197, 91.95471
1368.255, 79.59375
1369.313, 62.23181
1370.371, 65.86877
1371.428, 30.49866
1372.486, 69.12732
1373.543, 16.75476
1374.600, 11.60229
1375.657, 10.00488
1376.713, 61.64490
1377.770, 75.24890
1378.826, 45.85388
1379.882, 95.45532
1380.938, 56.05554
1381.994, 43.73303
1383.050, 42.33044
1384.106, 27.97827
1385.161, 21.57251
1386.216, 17.16528
1387.271, 68.75647
1388.326, 39.34644
1389.381, 53.99109
1390.435, 77.57825
1391.490, 23.16406
1392.544, 33.75989
1393.598, 4.343018
1394.652, 11.07642
1395.705, 66.49609
1396.759, 57.06653
1397.812, 91.63574
1398.866, 43.23706
1399.919, 36.95679
1400.972, 32.52234
1402.024, 22.08655
1403.077, 46.64893
1404.129, 28.26099
1405.181, 110.0319
1406.233, 14.59802
1407.285, 51.19934
1408.337, 55.75476
1409.389, 6.308838
1410.440, 49.86060
1411.491, 40.41101
1412.542, 59.01135
1413.593, 38.59766
1414.644, 90.14575
1415.695, 38.69202
1416.745, 26.23718
1417.795, 61.99170
1418.845, 1.534668
1419.895, 6.075195
1420.945, 76.62549
1421.995, 64.11316
1423.044, 80.65112
1424.093, 81.27405
1425.142, 26.80859
1426.191, 76.34058
1427.240, 139.8151
1428.289, 17.52771
1429.337, 59.93250
1430.385, 35.38745
1431.433, 80.37573
1432.481, 107.8271
1433.529, 67.26587
1434.577, 101.7078
1435.624, 112.0895
1436.672, 98.45752
1437.719, 80.94336
1438.766, 72.37402
1439.812, 105.7246
1440.859, 74.25049
1441.905, 73.55908
1442.952, 106.8406
1443.998, 92.70947
1445.044, 20.89551
1446.090, 50.14722
1447.135, 57.11707
1448.181, 112.8083
1449.226, 62.49854
1450.271, 89.80432
1451.316, 34.48511
1452.361, 114.9811
1453.405, 120.6655
1454.450, 46.34863
1455.494, 48.03064
1456.538, 83.71155
1457.582, 55.39050
1458.626, 77.06726
1459.670, 62.73022
1460.713, 44.56799
1461.757, 51.20068
1462.800, 96.69153
1463.843, 76.92493
1464.886, 105.5520
1465.928, 106.1770
1466.971, 11.80029
1468.013, 37.42212
1469.055, 27.30896
1470.097, 40.92053
1471.139, 69.53076
1472.181, 67.13953
1473.222, 88.71411
1474.263, 62.73401
1475.305, 66.32141
1476.346, 72.90771
1477.386, 88.49231
1478.427, 53.07495
1479.468, 61.57959
1480.508, 55.15881
1481.548, 39.73596
1482.588, 38.28601
1483.628, 24.83081
1484.668, 83.38025
1485.707, 76.92798
1486.747, 58.47229
1487.786, 73.96436
1488.825, 39.47473
1489.864, 46.81201
1490.902, 73.87451
1491.941, 56.37048
1492.979, 84.86340
1494.017, 78.88611
1495.055, 85.20691
1496.093, 60.92261
1497.131, 88.37488
1498.168, 57.81604
1499.206, 40.16895
1500.243, 46.70923
1501.280, 33.84827
1502.317, 57.52661
1503.354, 41.94458
1504.390, 67.36194
1505.426, 81.77698
1506.463, 24.19031
1507.499, 73.60364
1508.535, 30.88062
1509.570, 88.32642
1510.606, 55.76807
1511.641, 88.16248
1512.676, 86.59473
1513.711, 31.01624
1514.746, 60.42651
1515.781, 51.82507
1516.816, 42.24792
1517.850, 54.68787
1518.884, 88.14307
1519.918, 128.1022
1520.952, 75.40662
1521.986, 71.83813
1523.019, 38.27869
1524.053, 17.72876
1525.086, 110.1705
1526.119, 59.60571
1527.152, 62.93628
1528.185, 35.19739
1529.217, 26.34753
1530.250, 46.05518
1531.282, 37.50916
1532.314, 95.96436
1533.346, 52.41589
1534.377, 77.90454
1535.409, 72.33521
1536.440, 37.79016
1537.472, 41.36353
1538.503, 64.95239
1539.534, 122.2405
1540.564, 71.62805
1541.595, 17.22949
1542.625, 72.59644
1543.656, 94.20935
1544.686, 50.77966
1545.716, 3.578491
1546.745, 90.09265
1547.775, 33.78955
1548.804, 55.44727
1549.834, 94.83008
1550.863, 122.9161
1551.892, 108.5991
1552.920, 120.4952
1553.949, 59.94690
1554.977, 75.34961
1556.006, 96.91553
1557.034, 106.4742
1558.062, 41.43542
1559.089, 42.34692
1560.117, 80.87036
1561.144, 8.387207
1562.172, 13.10413
1563.199, 27.30029
1564.226, 0.1048580
1565.252, 58.40784
1566.279, 38.45520
1567.305, 57.60400
1568.332, 36.67883
1569.358, 9.7655997E-02
1570.384, 0.0000000E+00
##END=



