##NAMES=Baryte
##RRUFFID=R050342
##IDEAL CHEMISTRY=BaS^6+^O_4_
##LOCALITY=Palos Verdes, Los Angeles County, California, USA
##OWNER=RRUFF
##SOURCE=California Institute of Technology
##DESCRIPTION=Light brown fragment
##STATUS=The identification of this mineral has been confirmed by X-ray diffraction and chemical analysis
##URL=rruff.info/R050342
##MEASURED CHEMISTRY=Ba_1.00_S_1.00_O_4_
##PIN_ID=L01107
##ORIENTATION=Laser parallel to -a* (-1 0 0). Fiducial mark perpendicular to laser is parallel to b [0 1 0]
140.2710, 0.0000000E+00
141.5000, 9.431641
142.7280, 142.0591
143.9560, 95.67236
145.1840, 100.7104
146.4120, 0.3720700
147.6390, 103.4639
148.8670, 80.31738
150.0940, 93.79932
151.3210, 117.8169
152.5490, 88.66113
153.7750, 117.1416
155.0020, 92.25928
156.2290, 109.6782
157.4550, 78.35303
158.6810, 152.2866
159.9080, 10.44189
161.1340, 81.75684
162.3590, 143.4795
163.5850, 126.5347
164.8110, 2.362793
166.0360, 8.212891
167.2610, 36.99365
168.4860, 71.25732
169.7110, 127.5845
170.9360, 111.9697
172.1610, 52.41113
173.3850, 67.90674
174.6100, 101.4531
175.8340, 168.0532
177.0580, 112.7339
178.2820, 52.39600
179.5050, 97.09912
180.7290, 112.8403
181.9520, 42.61719
183.1760, 193.4258
184.3990, 177.6797
185.6220, 174.3062
186.8450, 216.9814
188.0670, 258.6924
189.2900, 206.4390
190.5120, 197.2173
191.7340, 180.2124
192.9560, 204.8677
194.1780, 125.0308
195.4000, 153.9214
196.6220, 132.0396
197.8430, 135.2310
199.0640, 106.4326
200.2860, 21.64258
201.5070, 214.8677
202.7270, 56.11230
203.9480, 152.3896
205.1690, 102.6753
206.3890, 72.01611
207.6090, 107.3643
208.8290, 160.7397
210.0490, 75.17041
211.2690, 60.63477
212.4890, 77.10254
213.7080, 8.432129
214.9280, 100.0215
216.1470, 73.46875
217.3660, 168.9131
218.5850, 190.3560
219.8030, 91.79980
221.0220, 80.24561
222.2400, 67.69482
223.4590, 74.14844
224.6770, 156.6060
225.8950, 127.0688
227.1120, 39.46533
228.3300, 31.99463
229.5480, 84.48340
230.7650, 31.51074
231.9820, 142.9932
233.1990, 99.48242
234.4160, 12.97852
235.6330, 59.48096
236.8490, 20.44824
238.0660, 88.50537
239.2820, 18.02686
240.4980, 54.55322
241.7140, 43.08740
242.9300, 14.62744
244.1460, 83.17432
245.3610, 103.7266
246.5770, 55.28613
247.7920, 3.148926
249.0070, 83.46240
250.2220, 169.0767
251.4370, 141.8071
252.6510, 176.1436
253.8660, 125.5591
255.0800, 147.0693
256.2940, 93.58936
257.5080, 82.09473
258.7220, 145.6011
259.9360, 34.11475
261.1490, 246.6362
262.3630, 75.70068
263.5760, 146.2378
264.7890, 137.9917
266.0020, 112.5728
267.2150, 204.1304
268.4270, 34.69336
269.6400, 47.26270
270.8520, 21.23535
272.0640, 105.9053
273.2760, 85.52148
274.4880, 165.0635
275.7000, 98.65137
276.9120, 116.4277
278.1230, 114.0381
279.3340, 119.0117
280.5450, 131.5244
281.7560, 114.2207
282.9670, 144.8330
284.1780, 131.2520
285.3880, 122.0752
286.5980, 129.1885
287.8090, 120.4180
289.0190, 97.72461
290.2290, 114.0889
291.4380, 121.5000
292.6480, 163.9492
293.8570, 33.43066
295.0670, 181.9404
296.2760, 75.47754
297.4850, 153.0361
298.6930, 16.61914
299.9020, 76.21387
301.1110, 125.8262
302.3190, 65.45605
303.5270, 80.10156
304.7350, 171.7607
305.9430, 221.4346
307.1510, 63.12012
308.3580, 128.8174
309.5660, 117.5244
310.7730, 182.2109
311.9800, 97.78418
313.1870, 244.5176
314.3940, 151.2588
315.6010, 156.0088
316.8070, 58.76660
318.0130, 154.5322
319.2200, 2.695313
320.4260, 138.0830
321.6310, 9.868164
322.8370, 52.65527
324.0430, 97.44922
325.2480, 109.2490
326.4540, 93.05566
327.6590, 94.86914
328.8640, 120.6875
330.0680, 223.4717
331.2730, 129.2627
332.4780, 145.0596
333.6820, 70.86426
334.8860, 126.6748
336.0900, 137.4932
337.2940, 98.31543
338.4980, 140.7422
339.7010, 52.97852
340.9050, 183.8184
342.1080, 83.66309
343.3110, 132.5117
344.5140, 167.3652
345.7170, 61.22461
346.9200, 64.08789
348.1220, 113.9561
349.3240, 50.82715
350.5270, 66.70410
351.7290, 173.5840
352.9310, 36.46875
354.1320, 85.35742
355.3340, 157.6113
356.5350, 172.5068
357.7370, 101.4062
358.9380, 11.04590
360.1390, 115.0488
361.3400, 139.8311
362.5400, 46.71582
363.7410, 119.6025
364.9410, 34.50684
366.1410, 29.37891
367.3410, 85.26855
368.5410, 48.16113
369.7410, 117.0576
370.9400, 139.3691
372.1400, 58.65527
373.3390, 160.3037
374.5380, 101.2148
375.7370, 66.12695
376.9360, 97.04199
378.1350, 69.99414
379.3330, 98.88379
380.5310, 66.81055
381.7300, 35.27637
382.9280, 3.791016
384.1260, 73.14453
385.3230, 106.0820
386.5210, 140.0244
387.7180, 1.969727
388.9160, 52.91699
390.1130, 12.09473
391.3100, 133.8555
392.5060, 100.7002
393.7030, 25.65723
394.9000, 78.61719
396.0960, 84.54199
397.2920, 60.47168
398.4880, 35.60938
399.6840, 60.31836
400.8800, 5.324219
402.0750, 96.25977
403.2710, 36.19922
404.4660, 152.1416
405.6610, 91.08887
406.8560, 95.03711
408.0510, 85.98828
409.2450, 80.94238
410.4400, 33.10645
411.6340, 152.8008
412.8280, 125.7520
414.0220, 198.0684
415.2160, 50.98535
416.4100, 105.9512
417.6030, 143.8906
418.7970, 125.8320
419.9900, 211.7773
421.1830, 171.7168
422.3760, 169.6660
423.5690, 190.6045
424.7610, 166.5449
425.9540, 169.4893
427.1460, 268.4375
428.3380, 182.3877
429.5300, 288.3428
430.7220, 390.3027
431.9140, 372.2676
433.1050, 544.2383
434.2970, 635.2139
435.4880, 745.1934
436.6790, 872.1768
437.8700, 1187.164
439.0610, 1458.155
440.2510, 1818.150
441.4420, 2296.957
442.6320, 3243.959
443.8220, 3993.964
445.0120, 4727.974
446.2020, 5736.985
447.3910, 6538.004
448.5810, 7449.021
449.7700, 8071.045
450.9600, 9057.077
452.1490, 9515.115
453.3370, 9504.156
454.5260, 8817.202
455.7150, 7603.248
456.9030, 6000.299
458.0910, 4448.353
459.2800, 3156.409
460.4670, 2266.467
461.6550, 1711.529
462.8430, 1146.256
464.0300, 1062.323
465.2180, 811.3955
466.4050, 640.4697
467.5920, 533.5488
468.7790, 529.6289
469.9650, 356.7129
471.1520, 369.7988
472.3380, 314.9014
473.5250, 350.0078
474.7110, 331.1484
475.8970, 289.2920
477.0820, 233.4395
478.2680, 291.5889
479.4540, 111.7412
480.6390, 211.8965
481.8240, 76.05469
483.0090, 56.21387
484.1940, 250.3770
485.3780, 157.5684
486.5630, 79.76172
487.7470, 139.9580
488.9320, 88.15723
490.1160, 154.3584
491.3000, 74.56250
492.4830, 54.76953
493.6670, 167.9814
494.8500, 82.19629
496.0340, 80.41504
497.2170, 53.36523
498.4000, 61.82910
499.5820, 158.0254
500.7650, 251.2246
501.9480, 142.4277
503.1300, 186.6641
504.3120, 151.8799
505.4940, 163.0986
506.6760, 151.3213
507.8580, 115.4365
509.0390, 3.666992
510.2210, 161.8975
511.4020, 109.1318
512.5830, 6.631836
513.7640, 196.6025
514.9450, 121.8467
516.1250, 228.0986
517.3060, 60.35352
518.4860, 122.6113
519.6660, 64.87109
520.8460, 94.14355
522.0260, 42.41992
523.2060, 9.301758
524.3850, 143.9746
525.5650, 249.8086
526.7440, 101.0908
527.9230, 223.3750
529.1020, 84.66016
530.2810, 171.7695
531.4590, 18.94141
532.6380, 209.4531
533.8160, 234.7383
534.9940, 73.02539
536.1720, 194.3154
537.3500, 143.6074
538.5270, 142.9023
539.7050, 162.2109
540.8820, 67.74023
542.0590, 19.94727
543.2360, 77.35059
544.4130, 64.65820
545.5900, 85.96680
546.7660, 191.2783
547.9430, 85.59180
549.1190, 92.91113
550.2950, 214.2334
551.4710, 235.5576
552.6470, 36.16113
553.8220, 155.1484
554.9980, 42.54102
556.1730, 160.7539
557.3480, 157.9316
558.5230, 34.23145
559.6980, 199.5322
560.8730, 94.83496
562.0470, 197.1562
563.2220, 70.96973
564.3960, 56.27832
565.5700, 20.58789
566.7440, 152.8994
567.9170, 110.2129
569.0910, 103.5918
570.2640, 9.911133
571.4380, 39.67188
572.6110, 20.16406
573.7840, 67.87793
574.9570, 65.34375
576.1290, 77.67188
577.3020, 169.0000
578.4740, 99.33008
579.6460, 136.6621
580.8180, 235.9990
581.9900, 17.66406
583.1620, 68.66602
584.3330, 86.00000
585.5040, 169.3359
586.6760, 106.7803
587.8470, 152.1172
589.0180, 45.49414
590.1880, 22.83789
591.3590, 81.16797
592.5290, 53.51562
593.7000, 65.86230
594.8700, 23.20996
596.0400, 33.57129
597.2090, 105.9111
598.3790, 57.33496
599.5490, 96.68848
600.7180, 149.0400
601.8870, 105.3926
603.0560, 116.7461
604.2250, 234.1016
605.3940, 331.9902
606.5620, 317.3691
607.7300, 539.8115
608.8990, 623.2100
610.0670, 839.6064
611.2350, 947.0039
612.4020, 1029.505
613.5700, 1358.931
614.7370, 1561.941
615.9050, 1660.369
617.0720, 1716.797
618.2390, 1598.224
619.4060, 1542.651
620.5720, 1273.079
621.7390, 995.5049
622.9050, 806.9326
624.0710, 809.3574
625.2370, 583.6016
626.4030, 458.0254
627.5690, 671.4473
628.7340, 539.8682
629.9000, 568.2891
631.0650, 507.7080
632.2300, 307.1250
633.3950, 348.3389
634.5600, 530.7598
635.7240, 164.1875
636.8890, 255.6035
638.0530, 428.6562
639.2170, 218.3018
640.3810, 287.7139
641.5450, 359.1250
642.7080, 441.4326
643.8720, 286.8701
645.0350, 299.3174
646.1980, 224.9004
647.3610, 364.3379
648.5240, 252.1602
649.6870, 166.6035
650.8490, 205.0439
652.0120, 133.4932
653.1740, 165.5293
654.3360, 118.9746
655.4980, 132.4180
656.6600, 189.8594
657.8210, 220.4189
658.9830, 141.9541
660.1440, 146.6602
661.3050, 156.0908
662.4660, 69.72559
663.6270, 204.9658
664.7870, 77.39062
665.9480, 65.81543
667.1080, 138.2373
668.2680, 128.6562
669.4280, 139.0742
670.5880, 175.4580
671.7480, 46.86328
672.9070, 191.2754
674.0670, 181.6855
675.2260, 128.0918
676.3850, 322.4951
677.5440, 130.8955
678.7030, 107.1992
679.8610, 46.40723
681.0200, 40.96289
682.1780, 16.19727
683.3360, 147.6201
684.4940, 98.98047
685.6520, 118.3359
686.8090, 165.6885
687.9670, 242.1396
689.1240, 66.48535
690.2810, 85.82617
691.4380, 275.1641
692.5950, 63.54688
693.7520, 72.88477
694.9080, 53.43262
696.0650, 17.81543
697.2210, 103.1553
698.3770, 85.49219
699.5330, 220.8242
700.6880, 37.15332
701.8440, 17.49414
702.9990, 172.8125
704.1550, 259.1152
705.3100, 111.4121
706.4650, 123.7061
707.6190, 28.99609
708.7740, 132.7559
709.9290, 96.03613
711.0830, 165.5420
712.2370, 64.81348
713.3910, 16.08008
714.5450, 227.3857
715.6980, 161.6416
716.8520, 152.8936
718.0050, 55.14062
719.1580, 153.1582
720.3110, 254.3965
721.4640, 92.82227
722.6170, 50.05078
723.7700, 54.94531
724.9220, 26.16309
726.0740, 208.3760
727.2260, 45.66211
728.3780, 169.8633
729.5300, 22.93848
730.6810, 172.2354
731.8330, 202.4033
732.9840, 142.5674
734.1350, 126.0283
735.2860, 95.18164
736.4370, 39.34180
737.5880, 156.4834
738.7380, 89.61914
739.8880, 145.7490
741.0390, 138.8740
742.1890, 267.9941
743.3380, 5.552734
744.4880, 243.6562
745.6380, 49.88477
746.7870, 98.87793
747.9360, 157.0176
749.0850, 186.0957
750.2340, 32.23145
751.3830, 244.0088
752.5310, 103.9590
753.6800, 148.4414
754.8280, 211.6201
755.9760, 103.5918
757.1240, 193.8701
758.2720, 154.8027
759.4190, 122.7295
760.5670, 78.65137
761.7140, 84.59180
762.8610, 75.47461
764.0080, 172.5605
765.1550, 171.4307
766.3020, 90.29492
767.4480, 255.4629
768.5950, 189.3125
769.7410, 233.1543
770.8870, 6.129883
772.0330, 177.9502
773.1780, 80.76465
774.3240, 160.5713
775.4690, 242.3701
776.6140, 35.31934
777.7590, 209.1455
778.9040, 185.9355
780.0490, 12.28223
781.1940, 147.6748
782.3380, 82.42676
783.4820, 51.45605
784.6260, 152.1914
785.7700, 24.91895
786.9140, 178.6338
788.0580, 206.3418
789.2010, 178.5205
790.3450, 302.2734
791.4880, 148.9775
792.6310, 179.6904
793.7730, 193.3789
794.9160, 61.06250
796.0590, 66.73730
797.2010, 16.59570
798.3430, 163.0430
799.4850, 43.85840
800.6270, 29.75195
801.7690, 241.3643
802.9100, 140.9697
804.0520, 129.7314
805.1930, 243.4170
806.3340, 174.9980
807.4750, 121.5713
808.6160, 226.1357
809.7560, 124.6973
810.8970, 186.2510
812.0370, 237.7959
813.1770, 105.3330
814.3170, 104.8623
815.4570, 26.61621
816.5960, 225.8721
817.7360, 89.97852
818.8750, 237.4502
820.0140, 91.83691
821.1530, 236.2979
822.2920, 115.7510
823.4310, 193.1953
824.5690, 0.6337890
825.7070, 232.0527
826.8460, 240.4639
827.9840, 135.8682
829.1220, 92.26367
830.2590, 156.6592
831.3970, 14.04785
832.5340, 78.43359
833.6710, 140.7217
834.8080, 199.0918
835.9450, 292.4531
837.0820, 117.8066
838.2190, 84.13672
839.3550, 212.9658
840.4910, 235.2949
841.6270, 297.6172
842.7630, 100.9307
843.8990, 168.2363
845.0350, 17.47070
846.1700, 175.7568
847.3060, 38.03516
848.4410, 206.3047
849.5760, 195.5645
850.7100, 79.67773
851.8450, 276.9219
852.9800, 200.1592
854.1140, 199.3887
855.2480, 5.609375
856.3820, 103.8154
857.5160, 123.0146
858.6500, 136.2109
859.7830, 8.398438
860.9170, 130.5742
862.0500, 218.6348
863.1830, 0.2050780
864.3160, 145.9053
865.4480, 171.0391
866.5810, 191.1826
867.7130, 254.3027
868.8460, 212.4150
869.9780, 26.52051
871.1100, 178.6152
872.2410, 84.70117
873.3730, 106.7080
874.5050, 170.7803
875.6360, 182.8467
876.7670, 109.9043
877.8980, 139.9541
879.0290, 71.00293
880.1590, 138.4775
881.2900, 55.45996
882.4200, 46.63086
883.5500, 73.30566
884.6800, 109.2334
885.8100, 89.84570
886.9400, 34.94043
888.0690, 98.79297
889.1990, 6.053711
890.3280, 23.88770
891.4570, 69.71387
892.5860, 11.53223
893.7140, 270.3438
894.8430, 140.1475
895.9710, 205.3828
897.1000, 128.1475
898.2280, 104.9326
899.3560, 37.20117
900.4830, 104.9697
901.6110, 146.7334
902.7380, 12.49023
903.8660, 169.2900
904.9930, 176.0322
906.1200, 8.233398
907.2460, 321.6934
908.3730, 200.4062
909.5000, 117.1045
910.6260, 174.9277
911.7520, 37.64258
912.8780, 64.09766
914.0040, 250.7783
915.1290, 217.4541
916.2550, 21.22559
917.3800, 88.00586
918.5050, 12.34766
919.6300, 77.14648
920.7550, 172.7803
921.8800, 173.0293
923.0040, 227.6514
924.1290, 29.68066
925.2530, 59.90820
926.3770, 225.4912
927.5010, 65.06836
928.6250, 179.6904
929.7480, 170.9463
930.8720, 167.4609
931.9950, 70.94824
933.1180, 132.2627
934.2410, 21.84473
935.3640, 8.217773
936.4860, 180.5146
937.6090, 200.0791
938.7310, 25.63867
939.8530, 41.19238
940.9750, 317.7383
942.0970, 188.2812
943.2180, 226.8174
944.3400, 208.3486
945.4610, 288.8750
946.5820, 199.3965
947.7030, 186.9121
948.8240, 138.4229
949.9450, 118.9395
951.0650, 126.5400
952.1860, 116.0537
953.3060, 145.5762
954.4260, 183.0957
955.5460, 232.6104
956.6650, 202.1201
957.7850, 300.6260
958.9040, 279.1270
960.0230, 235.5215
961.1420, 288.0137
962.2610, 282.5020
963.3800, 320.9854
964.4990, 365.4639
965.6170, 367.9473
966.7350, 397.8496
967.8530, 401.2725
968.9710, 489.7441
970.0890, 563.2100
971.2070, 482.6729
972.3240, 771.1309
973.4410, 709.5566
974.5580, 984.0186
975.6750, 1163.489
976.7920, 1377.956
977.9090, 2008.419
979.0250, 3151.879
980.1410, 5016.859
981.2580, 8749.312
982.3740, 14632.53
983.4890, 20655.97
984.6050, 25147.42
985.7200, 31176.81
986.8360, 36461.25
987.9510, 40913.71
989.0660, 40942.16
990.1810, 33926.84
991.2950, 22781.27
992.4100, 12279.71
993.5240, 6527.383
994.6390, 3767.146
995.7530, 2472.576
996.8660, 1620.004
997.9800, 1396.350
999.0940, 1004.771
1000.207, 940.1914
1001.320, 643.6152
1002.433, 729.0371
1003.546, 577.4570
1004.659, 537.5703
1005.772, 538.9863
1006.884, 325.3848
1007.996, 371.7930
1009.108, 430.1992
1010.220, 214.6016
1011.332, 341.0039
1012.444, 220.4023
1013.555, 257.3535
1014.666, 416.7500
1015.777, 325.0137
1016.888, 127.1992
1017.999, 80.53906
1019.110, 217.9277
1020.220, 270.3418
1021.331, 97.53906
1022.441, 250.9375
1023.551, 183.9277
1024.661, 176.1309
1025.770, 178.5312
1026.880, 141.6191
1027.989, 176.0430
1029.098, 10.53516
1030.207, 101.1152
1031.316, 148.2480
1032.425, 7.388672
1033.533, 46.83984
1034.642, 143.2227
1035.750, 79.60352
1036.858, 10.67773
1037.966, 118.0566
1039.073, 158.4355
1040.181, 160.6758
1041.288, 114.0566
1042.396, 208.4375
1043.503, 1.181641
1044.610, 16.19531
1045.716, 124.4316
1046.823, 88.77930
1047.929, 184.1562
1049.036, 29.53320
1050.142, 1.236328
1051.248, 174.1465
1052.353, 60.24609
1053.459, 176.6289
1054.564, 30.00977
1055.670, 163.4746
1056.775, 72.14062
1057.880, 247.7461
1058.985, 102.0547
1060.089, 187.4023
1061.194, 17.18555
1062.298, 14.46680
1063.402, 10.87500
1064.506, 152.2148
1065.610, 139.0293
1066.713, 133.3770
1067.817, 154.1172
1068.920, 4.193359
1070.023, 43.54492
1071.126, 88.89648
1072.229, 88.08398
1073.332, 189.3359
1074.435, 274.6836
1075.537, 209.0352
1076.639, 278.3848
1077.741, 284.7344
1078.843, 273.0820
1079.945, 482.4316
1081.046, 379.7793
1082.148, 433.1289
1083.249, 374.2988
1084.350, 514.6602
1085.451, 153.0215
1086.551, 316.4609
1087.652, 260.8223
1088.752, 166.1836
1089.853, 289.5430
1090.953, 250.9062
1092.053, 176.2676
1093.152, 306.6328
1094.252, 407.0020
1095.351, 386.3750
1096.451, 741.7480
1097.550, 819.9219
1098.649, 1000.295
1099.748, 1256.672
1100.846, 1429.049
1101.945, 1517.426
1103.043, 1790.803
1104.141, 1859.180
1105.239, 1806.557
1106.337, 1769.846
1107.434, 1246.238
1108.532, 943.6133
1109.629, 951.9922
1110.726, 474.3691
1111.823, 423.7461
1112.920, 334.1406
1114.017, 206.5332
1115.113, 279.9258
1116.210, 298.3184
1117.306, 301.7109
1118.402, 344.0469
1119.498, 347.2949
1120.593, 371.8984
1121.689, 363.2910
1122.784, 340.6875
1123.879, 345.3242
1124.974, 0.4804690
1126.069, 216.8750
1127.164, 251.2715
1128.259, 97.66992
1129.353, 282.0684
1130.447, 207.4707
1131.541, 151.9043
1132.635, 173.3066
1133.729, 129.8223
1134.822, 111.2246
1135.916, 63.62695
1137.009, 264.0312
1138.102, 310.4355
1139.195, 366.8418
1140.288, 377.6660
1141.380, 326.9082
1142.473, 290.1152
1143.565, 176.5195
1144.657, 115.9219
1145.749, 53.35156
1146.841, 232.0977
1147.932, 8.476563
1149.024, 137.9648
1150.115, 150.4043
1151.206, 7.156250
1152.297, 83.30664
1153.388, 103.7695
1154.479, 209.2324
1155.569, 152.7012
1156.659, 195.7402
1157.750, 41.63867
1158.839, 209.1113
1159.929, 121.5820
1161.019, 133.6172
1162.108, 194.1133
1163.198, 55.58789
1164.287, 205.7520
1165.376, 177.2285
1166.465, 157.7051
1167.553, 266.1797
1168.642, 166.6094
1169.730, 229.0898
1170.818, 220.5703
1171.906, 164.2168
1172.994, 165.7012
1174.082, 114.7734
1175.170, 81.28516
1176.257, 34.04102
1177.344, 45.53516
1178.431, 29.02930
1179.518, 98.52734
1180.605, 16.02344
1181.691, 199.4043
1182.778, 51.90234
1183.864, 71.40820
1184.950, 106.9121
1186.036, 7.417969
1187.122, 197.9238
1188.207, 197.3789
1189.292, 44.89453
1190.378, 219.4141
1191.463, 120.0664
1192.548, 196.3730
1193.632, 292.1699
1194.717, 87.58398
1195.801, 24.95703
1196.886, 36.48633
1197.970, 9.066406
1199.054, 33.37500
1200.137, 43.74609
1201.221, 117.1914
1202.305, 137.6348
1203.388, 39.08398
1204.471, 120.5312
1205.554, 82.11328
1206.637, 109.4570
1207.719, 70.91992
1208.802, 73.38672
1209.884, 60.85156
1210.966, 151.3184
1212.048, 93.78711
1213.130, 61.74609
1214.212, 182.6895
1215.293, 43.12500
1216.374, 8.558594
1217.456, 189.9922
1218.536, 197.4258
1219.617, 113.8613
1220.698, 269.3027
1221.778, 135.8047
1222.859, 48.43750
1223.939, 245.8828
1225.019, 200.4082
1226.099, 109.8555
1227.178, 28.69531
1228.258, 79.73438
1229.337, 61.16602
1230.417, 339.5957
1231.496, 100.1016
1232.574, 235.5410
1233.653, 193.9824
1234.732, 108.4219
1235.810, 14.13867
1236.888, 47.70898
1237.966, 66.69727
1239.044, 78.09961
1240.122, 220.5059
1241.199, 221.7930
1242.277, 244.2754
1243.354, 268.6816
1244.431, 141.0859
1245.508, 184.4902
1246.585, 136.8945
1247.661, 22.70117
1248.738, 53.31250
1249.814, 187.0469
1250.890, 147.4043
1251.966, 201.7637
1253.042, 215.1211
1254.117, 368.4785
1255.193, 102.6055
1256.268, 155.9961
1257.343, 36.35156
1258.418, 231.7090
1259.493, 164.2500
1260.567, 29.60547
1261.642, 226.9570
1262.716, 9.310547
1263.790, 135.6641
1264.864, 251.0137
1265.938, 147.3652
1267.011, 178.7148
1268.085, 232.0664
1269.158, 248.4160
1270.231, 97.76562
1271.304, 23.24219
1272.377, 157.5898
1273.450, 38.93750
1274.522, 178.2832
1275.594, 1.355469
1276.666, 99.00000
1277.738, 281.9824
1278.810, 89.33594
1279.882, 187.6914
1280.953, 186.4160
1282.025, 152.8105
1283.096, 254.1621
1284.167, 133.5156
1285.238, 170.3340
1286.308, 59.98828
1287.379, 103.3340
1288.449, 281.7168
1289.519, 133.3262
1290.589, 43.69531
1291.659, 326.3047
1292.729, 141.6875
1293.798, 130.4512
1294.868, 208.8320
1295.937, 313.2148
1297.006, 136.5957
1298.075, 244.9766
1299.143, 51.35547
1300.212, 4.732422
1301.280, 122.1074
1302.348, 334.8984
1303.416, 79.48633
1304.484, 232.8555
1305.552, 129.3828
1306.620, 65.74414
1307.687, 266.3594
1308.754, 338.9668
1309.821, 74.27734
1310.888, 253.6309
1311.955, 335.9785
1313.021, 102.3223
1314.088, 55.76562
1315.154, 164.1582
1316.220, 312.6465
1317.286, 133.2129
1318.352, 124.7305
1319.417, 199.3105
1320.483, 196.1895
1321.548, 112.6191
1322.613, 215.9512
1323.678, 175.2812
1324.743, 57.13672
1325.807, 216.7500
1326.872, 49.50391
1327.936, 98.01172
1329.000, 132.6523
1330.064, 116.9824
1331.128, 134.2715
1332.191, 64.71094
1333.255, 134.5312
1334.318, 139.8613
1335.381, 167.1895
1336.444, 270.1719
1337.507, 170.4922
1338.569, 51.95117
1339.632, 140.2715
1340.694, 158.5918
1341.756, 162.0898
1342.818, 179.0781
1343.880, 57.72852
1344.941, 194.9688
1346.003, 135.2715
1347.064, 218.6094
1348.125, 184.0488
1349.186, 37.78320
1350.247, 6.083984
1351.308, 202.3867
1352.368, 15.08789
1353.428, 256.2070
1354.489, 187.5020
1355.549, 64.99414
1356.608, 62.29102
1357.668, 204.5840
1358.727, 34.14844
1359.787, 79.39648
1360.846, 260.6895
1361.905, 113.0859
1362.964, 90.37891
1364.022, 131.7578
1365.081, 129.0332
1366.139, 173.3223
1367.197, 92.60938
1368.255, 97.16211
1369.313, 45.82422
1370.371, 102.4453
1371.428, 58.70703
1372.486, 209.0215
1373.543, 73.28711
1374.600, 189.5938
1375.657, 134.3047
1376.713, 202.0898
1377.770, 129.3379
1378.826, 105.5820
1379.882, 199.8281
1380.938, 107.5137
1381.994, 147.3262
1383.050, 45.56641
1384.106, 161.8047
1385.161, 187.0430
1386.216, 10.27930
1387.271, 156.5137
1388.326, 71.71680
1389.381, 112.9492
1390.435, 131.0625
1391.490, 112.3203
1392.544, 131.4492
1393.598, 143.6387
1394.652, 70.16406
1395.705, 115.3496
1396.759, 139.5352
1397.812, 28.71875
1398.866, 78.81250
1399.919, 162.9648
1400.972, 142.1152
1402.024, 142.9414
1403.077, 74.76953
1404.129, 7.4219003E-02
1405.181, 215.1875
1406.233, 196.3008
1407.285, 211.4082
1408.337, 55.52148
1409.389, 279.6250
1410.440, 65.73047
1411.491, 3.171875
1412.542, 2.923828
1413.593, 143.0137
1414.644, 61.94141
1415.695, 12.00586
1416.745, 69.01172
1417.795, 18.41211
1418.845, 113.4805
1419.895, 0.5839840
1420.945, 175.6445
1421.995, 81.69336
1423.044, 81.90039
1424.093, 84.94336
1425.142, 167.4590
1426.191, 216.4004
1427.240, 121.1758
1428.289, 15.89258
1429.337, 24.02148
1430.385, 80.92773
1431.433, 37.76367
1432.481, 247.5176
1433.529, 18.24023
1434.577, 18.93945
1435.624, 159.8164
1436.672, 114.4219
1437.719, 122.9961
1438.766, 77.53320
1439.812, 54.03320
1440.859, 45.04297
1441.905, 43.06445
1442.952, 26.11523
1443.998, 37.53906
1445.044, 21.90625
1446.090, 113.6172
1447.135, 54.43164
1448.181, 115.7852
1449.226, 252.1445
1450.271, 104.5098
1451.316, 18.87305
1452.361, 233.2363
1453.405, 39.58008
1454.450, 16.90820
1455.494, 92.22852
1456.538, 66.54688
1457.582, 164.8828
1458.626, 45.76367
1459.670, 159.5898
1460.713, 123.9316
1461.757, 1.3672000E-02
1462.800, 96.07617
1463.843, 53.38477
1464.886, 150.7109
1465.928, 153.9492
1466.971, 124.0898
1468.013, 206.5508
1469.055, 110.8730
1470.097, 105.2129
1471.139, 214.8828
1472.181, 79.18359
1473.222, 23.51953
1474.263, 10.78516
1475.305, 203.1406
1476.346, 147.4941
1477.386, 36.85156
1478.427, 311.1602
1479.468, 295.2637
1480.508, 130.6191
1481.548, 232.9766
1482.588, 187.3359
1483.628, 33.69727
1484.668, 17.94336
1485.707, 272.2344
1486.747, 72.59961
1487.786, 307.9238
1488.825, 123.7715
1489.864, 217.0957
1490.902, 169.3574
1491.941, 208.9453
1492.979, 211.0742
1494.017, 279.6172
1495.055, 186.5039
1496.093, 134.1387
1497.131, 91.05273
1498.168, 193.6465
1499.206, 93.90039
1500.243, 255.6855
1501.280, 356.5371
1502.317, 191.4805
1503.354, 359.8066
1504.390, 147.0469
1505.426, 104.3066
1506.463, 226.1270
1507.499, 223.6934
1508.535, 227.0684
1509.570, 165.3027
1510.606, 229.6367
1511.641, 134.3789
1512.676, 140.3203
1513.711, 420.9492
1514.746, 172.0840
1515.781, 122.5625
1516.816, 332.1953
1517.850, 231.9883
1518.884, 40.08789
1519.918, 365.1738
1520.952, 284.2461
1521.986, 268.2930
1523.019, 279.8105
1524.053, 169.7734
1525.086, 131.1074
1526.119, 39.98242
1527.152, 114.9004
1528.185, 62.34180
1529.217, 212.7129
1530.250, 208.3398
1531.282, 245.9336
1532.314, 190.5137
1533.346, 338.0703
1534.377, 303.4375
1535.409, 248.7715
1536.440, 262.2812
1537.472, 156.7676
1538.503, 9.822266
1539.534, 6.585938
1540.564, 7.789063
1541.595, 47.28906
1542.625, 135.5664
1543.656, 104.9219
1544.686, 135.4375
1545.716, 168.2363
1546.745, 77.56445
1547.775, 268.1191
1548.804, 15.19727
1549.834, 147.7617
1550.863, 279.4160
1551.892, 298.9551
1552.920, 203.3652
1553.949, 344.6387
1554.977, 110.3047
1556.006, 230.6992
1557.034, 214.1777
1558.062, 123.2695
1559.089, 26.28711
1560.117, 171.2480
1561.144, 139.9453
1562.172, 161.2148
1563.199, 176.5352
1564.226, 2.439453
1565.252, 4.353516
1566.279, 117.5391
1567.305, 24.43555
1568.332, 326.3125
1569.358, 57.11719
1570.384, 0.0000000E+00
##END=



