##NAMES=Baryte
##RRUFFID=R050375
##IDEAL CHEMISTRY=BaS^6+^O_4_
##LOCALITY=unknown
##OWNER=RRUFF
##SOURCE=Eugene Schlepp
##DESCRIPTION=Pale green tabular crystals
##STATUS=The identification of this mineral has been confirmed by X-ray diffraction and chemical analysis
##URL=rruff.info/R050375
##MEASURED CHEMISTRY=Ba_1.00_SO_4_
##PIN_ID=L01233
##ORIENTATION=Laser parallel to b* (0 1 0). Fiducial mark perpendicular to laser is parallel to -c [0 0 -1]
51.43100, 0.0000000E+00
52.67100, 12.70612
53.91000, 27.80441
55.14900, 36.86954
56.38700, 42.96292
57.62600, 36.50970
58.86400, 42.79291
60.10300, 27.61075
61.34100, 13.35135
62.57900, 11.96100
63.81700, 11.62363
65.05400, 12.46612
66.29200, 9.625275
67.52900, 12.84653
68.76700, 15.90314
70.00400, 39.50403
71.24100, 86.61237
72.47700, 130.1917
73.71400, 187.2069
74.95100, 234.6269
76.18700, 251.4240
77.42300, 310.5745
78.65900, 402.0575
79.89500, 432.8549
81.13100, 542.9508
82.36700, 620.3314
83.60200, 695.9837
84.83700, 723.8968
86.07200, 759.0601
87.30800, 834.4643
88.54200, 972.1002
89.77700, 1052.954
91.01200, 1124.008
92.24600, 1249.246
93.48000, 1269.657
94.71400, 1301.230
95.94800, 1372.957
97.18200, 1446.834
98.41600, 1547.856
99.64900, 1560.019
100.8830, 1575.318
102.1160, 1394.750
103.3490, 1329.313
104.5820, 1250.005
105.8150, 1187.823
107.0470, 1162.766
108.2800, 1117.833
109.5120, 1076.968
110.7440, 1066.327
111.9760, 1025.751
113.2080, 1045.291
114.4400, 1020.564
115.6710, 1004.872
116.9030, 995.5825
118.1340, 988.5654
119.3650, 967.6552
120.5960, 994.8503
121.8270, 961.1493
123.0580, 975.5508
124.2880, 955.0538
125.5190, 962.6389
126.7490, 927.2504
127.9790, 967.8838
129.2090, 895.5339
130.4390, 877.2007
131.6680, 947.8848
132.8980, 920.5803
134.1270, 919.3105
135.3560, 936.0820
136.5850, 945.8978
137.8140, 969.7596
139.0430, 924.6702
140.2710, 871.6306
141.5000, 959.6432
142.7280, 909.7222
143.9560, 884.8708
145.1840, 969.0769
146.4120, 923.3384
147.6390, 973.6559
148.8670, 961.0317
150.0940, 1070.468
151.3210, 1060.964
152.5490, 1154.520
153.7750, 1184.135
155.0020, 1158.833
156.2290, 1152.593
157.4550, 1097.412
158.6810, 1016.297
159.9080, 1012.254
161.1340, 944.2935
162.3590, 814.3944
163.5850, 811.5532
164.8110, 835.7687
166.0360, 751.0413
167.2610, 835.3864
168.4860, 803.7896
169.7110, 743.2507
170.9360, 790.7676
172.1610, 736.3411
173.3850, 745.9697
174.6100, 767.6545
175.8340, 728.3953
177.0580, 779.1910
178.2820, 760.0425
179.5050, 757.9495
180.7290, 780.9111
181.9520, 767.9277
183.1760, 842.9991
184.3990, 847.1245
185.6220, 876.3042
186.8450, 1013.537
188.0670, 1036.824
189.2900, 1122.164
190.5120, 1127.147
191.7340, 1147.001
192.9560, 1054.497
194.1780, 978.0460
195.4000, 833.6460
196.6220, 714.2969
197.8430, 716.9985
199.0640, 715.8848
200.2860, 606.7310
201.5070, 566.5320
202.7270, 648.2705
203.9480, 610.9852
205.1690, 557.5675
206.3890, 501.1436
207.6090, 596.7760
208.8290, 533.3958
210.0490, 522.3483
211.2690, 520.4824
212.4890, 500.9556
213.7080, 462.8589
214.9280, 490.1831
216.1470, 485.5842
217.3660, 428.0588
218.5850, 535.6045
219.8030, 486.2194
221.0220, 523.9011
222.2400, 465.6482
223.4590, 423.4603
224.6770, 438.3345
225.8950, 463.2693
227.1120, 458.2632
228.3300, 422.3151
229.5480, 421.4236
230.7650, 483.6417
231.9820, 381.3416
233.1990, 387.2991
234.4160, 473.3157
235.6330, 408.7661
236.8490, 415.3408
238.0660, 405.8406
239.2820, 384.3962
240.4980, 351.9998
241.7140, 371.6511
242.9300, 375.3555
244.1460, 388.1152
245.3610, 384.0210
246.5770, 388.9331
247.7920, 402.9036
249.0070, 376.3252
250.2220, 336.9580
251.4370, 334.0081
252.6510, 331.1716
253.8660, 325.3074
255.0800, 322.1846
256.2940, 302.4082
257.5080, 310.1436
258.7220, 303.4495
259.9360, 283.7964
261.1490, 291.7349
262.3630, 261.6165
263.5760, 291.0842
264.7890, 253.9661
266.0020, 247.5095
267.2150, 254.9114
268.4270, 245.8696
269.6400, 256.7732
270.8520, 243.7563
272.0640, 261.5767
273.2760, 237.3413
274.4880, 207.1416
275.7000, 278.9775
276.9120, 228.8535
278.1230, 263.7849
279.3340, 238.7322
280.5450, 206.0225
281.7560, 260.2432
282.9670, 234.3201
284.1780, 296.4324
285.3880, 187.6731
286.5980, 171.8552
287.8090, 143.0720
289.0190, 172.3242
290.2290, 226.6113
291.4380, 158.9329
292.6480, 215.2883
293.8570, 173.6775
295.0670, 173.1086
296.2760, 202.5735
297.4850, 154.0737
298.6930, 219.6069
299.9020, 180.1785
301.1110, 171.7830
302.3190, 250.4246
303.5270, 137.1084
304.7350, 139.8242
305.9430, 237.5713
307.1510, 124.3499
308.3580, 102.1592
309.5660, 137.9995
310.7730, 197.8706
311.9800, 197.7720
313.1870, 122.7058
314.3940, 144.6694
315.6010, 165.6628
316.8070, 91.68604
318.0130, 161.7388
319.2200, 178.8206
320.4260, 165.9316
321.6310, 153.0715
322.8370, 100.2400
324.0430, 66.43701
325.2480, 168.6624
326.4540, 91.91577
327.6590, 134.1970
328.8640, 61.50610
330.0680, 115.8425
331.2730, 146.2065
332.4780, 189.5977
333.6820, 158.0159
334.8860, 138.4609
336.0900, 93.93237
337.2940, 59.43042
338.4980, 100.9548
339.7010, 108.5054
340.9050, 113.0815
342.1080, 156.6838
343.3110, 79.31152
344.5140, 68.97363
345.7170, 100.6704
346.9200, 44.40186
348.1220, 114.1687
349.3240, 54.97070
350.5270, 111.6182
351.7290, 76.49194
352.9310, 118.4016
354.1320, 51.48096
355.3340, 43.46094
356.5350, 44.32837
357.7370, 15.76709
358.9380, 9.856201
360.1390, 27.07495
361.3400, 18.22900
362.5400, 54.41479
363.7410, 44.63232
364.9410, 31.88159
366.1410, 42.99683
367.3410, 30.70654
368.5410, 35.04858
369.7410, 63.42090
370.9400, 55.82373
372.1400, 79.25610
373.3390, 27.71826
374.5380, 5.790039
375.7370, 29.26978
376.9360, 37.10864
378.1350, 37.18726
379.3330, 6.976318
380.5310, 10.30835
381.7300, 48.33496
382.9280, 60.69800
384.1260, 73.39648
385.3230, 19.13525
386.5210, 43.33521
387.7180, 2.139160
388.9160, 7.677246
390.1130, 4.830322
391.3100, 5.866699
392.5060, 8.120850
393.7030, 40.87085
394.9000, 61.94946
396.0960, 5.057861
397.2920, 9.091797
398.4880, 64.11938
399.6840, 59.71826
400.8800, 22.65723
402.0750, 26.81177
403.2710, 14.15063
404.4660, 55.21436
405.6610, 24.43848
406.8560, 57.61572
408.0510, 48.18384
409.2450, 17.02979
410.4400, 31.73364
411.6340, 51.48169
412.8280, 10.22070
414.0220, 6.936768
415.2160, 4.531250
416.4100, 48.55786
417.6030, 13.90771
418.7970, 13.28003
419.9900, 50.63501
421.1830, 5.2246001E-02
422.3760, 9.910400
423.5690, 42.02686
424.7610, 6.650879
425.9540, 17.25244
427.1460, 20.76050
428.3380, 2.710449
429.5300, 22.83789
430.7220, 41.40625
431.9140, 84.16797
433.1050, 115.9307
434.2970, 36.56689
435.4880, 122.2227
436.6790, 199.8977
437.8700, 135.5706
439.0610, 223.2842
440.2510, 345.4697
441.4420, 448.2207
442.6320, 582.8254
443.8220, 715.1541
445.0120, 872.0024
446.2020, 1072.133
447.3910, 1241.975
448.5810, 1604.835
449.7700, 2087.712
450.9600, 2648.607
452.1490, 3177.519
453.3370, 3615.449
454.5260, 3676.397
455.7150, 3179.782
456.9030, 2655.762
458.0910, 1988.761
459.2800, 1554.776
460.4670, 1256.827
461.6550, 1147.877
462.8430, 1096.943
464.0300, 882.0249
465.2180, 711.1228
466.4050, 502.2371
467.5920, 384.3667
468.7790, 333.5112
469.9650, 224.6714
471.1520, 167.8467
472.3380, 222.0374
473.5250, 158.2432
474.7110, 132.4634
475.8970, 80.70410
477.0820, 101.9595
478.2680, 93.22876
479.4540, 48.51343
480.6390, 31.81250
481.8240, 123.1260
483.0090, 108.4548
484.1940, 97.79810
485.3780, 75.15503
486.5630, 42.52588
487.7470, 49.90991
488.9320, 94.30713
490.1160, 60.71753
491.3000, 35.14038
492.4830, 29.42358
493.6670, 47.00928
494.8500, 25.45435
496.0340, 9.914551
497.2170, 52.38501
498.4000, 28.13257
499.5820, 3.344971
500.7650, 58.82983
501.9480, 13.32642
503.1300, 25.83301
504.3120, 62.35083
505.4940, 24.88110
506.6760, 96.42358
507.8580, 88.97656
509.0390, 10.54126
510.2210, 51.11377
511.4020, 80.69678
512.5830, 121.2896
513.7640, 108.9937
514.9450, 100.7097
516.1250, 59.13892
517.3060, 62.72559
518.4860, 5.894775
519.6660, 32.89844
520.8460, 17.87305
522.0260, 81.52637
523.2060, 105.0330
524.3850, 18.31616
525.5650, 55.32764
526.7440, 36.92749
527.9230, 11.41040
529.1020, 22.32251
530.2810, 12.50244
531.4590, 40.08057
532.6380, 23.67969
533.8160, 1.651611
534.9940, 21.79541
536.1720, 22.45166
537.3500, 30.19019
538.5270, 22.81787
539.7050, 101.7429
540.8820, 25.40308
542.0590, 43.36377
543.2360, 8.439209
544.4130, 19.22803
545.5900, 0.8989260
546.7660, 27.56738
547.9430, 89.66895
549.1190, 88.34839
550.2950, 95.77441
551.4710, 104.6096
552.6470, 60.77539
553.8220, 79.05713
554.9980, 35.03491
556.1730, 1.875488
557.3480, 77.83569
558.5230, 40.55225
559.6980, 66.29980
560.8730, 1.031494
562.0470, 52.16699
563.2220, 61.87915
564.3960, 33.61694
565.5700, 69.94873
566.7440, 14.57422
567.9170, 161.2947
569.0910, 65.18750
570.2640, 108.8228
571.4380, 43.56763
572.6110, 26.00830
573.7840, 27.53247
574.9570, 139.6204
576.1290, 50.40259
577.3020, 64.15063
578.4740, 15.09790
579.6460, 102.6416
580.8180, 17.43042
581.9900, 43.17188
583.1620, 1.084229
584.3330, 32.67896
585.5040, 3.416016
586.6760, 19.82544
587.8470, 130.8984
589.0180, 45.62524
590.1880, 99.35376
591.3590, 68.08521
592.5290, 114.8186
593.7000, 134.9468
594.8700, 89.68506
596.0400, 22.53931
597.2090, 94.27759
598.3790, 73.20581
599.5490, 92.94775
600.7180, 46.04102
601.8870, 107.0544
603.0560, 152.8953
604.2250, 189.6433
605.3940, 204.3926
606.5620, 119.3274
607.7300, 243.0789
608.8990, 249.8313
610.0670, 344.5845
611.2350, 430.3464
612.4020, 597.3005
613.5700, 674.0637
614.7370, 925.8274
615.9050, 1152.883
617.0720, 1256.650
618.2390, 1479.429
619.4060, 1331.459
620.5720, 1070.238
621.7390, 1063.164
622.9050, 932.1816
624.0710, 935.2043
625.2370, 917.9832
626.4030, 1048.804
627.5690, 1240.582
628.7340, 1477.360
629.9000, 1726.148
631.0650, 1909.924
632.2300, 1885.700
633.3950, 1501.797
634.5600, 1322.572
635.7240, 966.9910
636.8890, 780.6362
638.0530, 637.4146
639.2170, 485.3425
640.3810, 515.7346
641.5450, 431.5715
642.7080, 519.2490
643.8720, 459.0911
645.0350, 436.2751
646.1980, 528.3271
647.3610, 481.0972
648.5240, 627.1421
649.6870, 574.6763
650.8490, 459.5901
652.0120, 384.3545
653.1740, 285.1550
654.3360, 186.2722
655.4980, 194.9092
656.6600, 149.6672
657.8210, 119.4238
658.9830, 57.68970
660.1440, 87.69727
661.3050, 69.47778
662.4660, 52.18945
663.6270, 131.7498
664.7870, 157.8171
665.9480, 26.40674
667.1080, 96.62085
668.2680, 25.91504
669.4280, 36.70776
670.5880, 51.06494
671.7480, 72.78247
672.9070, 26.40723
674.0670, 63.27197
675.2260, 12.91382
676.3850, 93.52734
677.5440, 44.21216
678.7030, 27.76245
679.8610, 82.45703
681.0200, 55.03882
682.1780, 103.0146
683.3360, 68.41382
684.4940, 84.87695
685.6520, 128.6367
686.8090, 19.25854
687.9670, 104.9465
689.1240, 14.63281
690.2810, 114.3557
691.4380, 93.29395
692.5950, 35.97974
693.7520, 17.66919
694.9080, 27.35376
696.0650, 23.17334
697.2210, 54.84937
698.3770, 47.68091
699.5330, 95.35278
700.6880, 20.06152
701.8440, 120.7253
702.9990, 75.62183
704.1550, 54.25854
705.3100, 96.01514
706.4650, 74.99146
707.6190, 31.65210
708.7740, 79.30908
709.9290, 47.96460
711.0830, 7.617432
712.2370, 5.091797
713.3910, 21.57886
714.5450, 42.20898
715.6980, 60.83643
716.8520, 57.48730
718.0050, 79.75049
719.1580, 40.21313
720.3110, 91.37793
721.4640, 80.15454
722.6170, 41.34912
723.7700, 77.84253
724.9220, 40.62842
726.0740, 56.35962
727.2260, 95.96411
728.3780, 64.56592
729.5300, 91.16602
730.6810, 79.76367
731.8330, 15.38599
732.9840, 49.17847
734.1350, 32.76636
735.2860, 68.92993
736.4370, 26.51245
737.5880, 94.13428
738.7380, 16.82422
739.8880, 21.39014
741.0390, 33.95630
742.1890, 50.58032
743.3380, 60.78882
744.4880, 26.69971
745.6380, 96.30786
746.7870, 63.86060
747.9360, 93.41113
749.0850, 101.7661
750.2340, 27.31177
751.3830, 87.85376
752.5310, 66.39331
753.6800, 8.069580
754.8280, 64.95190
755.9760, 60.28516
757.1240, 24.88037
758.2720, 59.39429
759.4190, 32.90552
760.5670, 25.41333
761.7140, 24.91626
762.8610, 59.41431
764.0080, 43.90991
765.1550, 65.40308
766.3020, 116.8933
767.4480, 48.38135
768.5950, 65.86670
769.7410, 78.34985
770.8870, 32.83032
772.0330, 106.3152
773.1780, 3.798096
774.3240, 77.79272
775.4690, 83.29468
776.6140, 63.76831
777.7590, 117.2476
778.9040, 41.73950
780.0490, 101.2280
781.1940, 40.71484
782.3380, 13.20166
783.4820, 20.68262
784.6260, 54.15845
785.7700, 20.63672
786.9140, 59.10962
788.0580, 30.58203
789.2010, 68.05054
790.3450, 43.51660
791.4880, 14.97998
792.6310, 19.56177
793.7730, 61.87769
794.9160, 79.31519
796.0590, 131.7507
797.2010, 22.21387
798.3430, 33.65601
799.4850, 86.09839
800.6270, 1.485107
801.7690, 98.96753
802.9100, 47.42529
804.0520, 14.93359
805.1930, 105.3845
806.3340, 34.40942
807.4750, 72.69312
808.6160, 89.12915
809.7560, 53.58936
810.8970, 87.66821
812.0370, 52.12891
813.1770, 37.90723
814.3170, 121.3828
815.4570, 49.80664
816.5960, 76.00830
817.7360, 100.4800
818.8750, 12.95093
820.0140, 30.41748
821.1530, 114.8879
822.2920, 131.3582
823.4310, 71.83105
824.5690, 49.87524
825.7070, 58.34546
826.8460, 35.92188
827.9840, 12.73169
829.1220, 61.19507
830.2590, 58.54150
831.3970, 116.5244
832.5340, 73.71851
833.6710, 54.84058
834.8080, 11.69897
835.9450, 49.72925
837.0820, 44.17676
838.2190, 85.21973
839.3550, 11.66943
840.4910, 75.11597
841.6270, 63.56152
842.7630, 55.97290
843.8990, 50.46143
845.0350, 54.72632
846.1700, 100.1584
847.3060, 52.57715
848.4410, 96.30347
849.5760, 41.94775
850.7100, 79.03076
851.8450, 62.42188
852.9800, 19.84961
854.1140, 0.2761230
855.2480, 144.7065
856.3820, 42.08984
857.5160, 79.52124
858.6500, 123.9519
859.7830, 86.35986
860.9170, 7.795654
862.0500, 35.79395
863.1830, 67.63257
864.3160, 54.05835
865.4480, 84.48340
866.5810, 128.9084
867.7130, 29.33252
868.8460, 7.363770
869.9780, 162.7849
871.1100, 74.09253
872.2410, 53.51489
873.3730, 23.74927
874.5050, 14.44800
875.6360, 30.24170
876.7670, 76.39355
877.8980, 19.71924
879.0290, 130.1387
880.1590, 60.55811
881.2900, 19.79297
882.4200, 33.21167
883.5500, 39.63037
884.6800, 26.95093
885.8100, 36.45190
886.9400, 135.6633
888.0690, 87.06689
889.1990, 71.47021
890.3280, 5.417480
891.4570, 45.01855
892.5860, 13.35693
893.7140, 137.4814
894.8430, 37.85718
895.9710, 64.08716
897.1000, 73.22534
898.2280, 68.35889
899.3560, 118.7363
900.4830, 108.0725
901.6110, 91.45142
902.7380, 38.83081
903.8660, 41.99097
904.9930, 105.5820
906.1200, 24.96387
907.2460, 63.21460
908.3730, 63.59814
909.5000, 24.66357
910.6260, 16.63672
911.7520, 115.7432
912.8780, 36.11670
914.0040, 52.45654
915.1290, 102.7698
916.2550, 103.1458
917.3800, 87.09570
918.5050, 90.06177
919.6300, 77.15967
920.7550, 83.54224
921.8800, 70.57568
923.0040, 90.95703
924.1290, 94.19165
925.2530, 86.57520
926.3770, 80.92212
927.5010, 120.9521
928.6250, 119.4619
929.7480, 136.8501
930.8720, 84.23975
931.9950, 15.33447
933.1180, 101.3091
934.2410, 163.2158
935.3640, 111.6021
936.4860, 36.19238
937.6090, 43.59521
938.7310, 66.98730
939.8530, 64.11450
940.9750, 76.54102
942.0970, 82.08203
943.2180, 88.96436
944.3400, 85.75708
945.4610, 100.1924
946.5820, 95.63110
947.7030, 87.07080
948.8240, 97.47729
949.9450, 97.92383
951.0650, 28.37207
952.1860, 72.82324
953.3060, 43.27612
954.4260, 29.45312
955.5460, 58.82031
956.6650, 92.27783
957.7850, 108.7378
958.9040, 82.19873
960.0230, 170.6641
961.1420, 155.1323
962.2610, 154.5684
963.3800, 211.7886
964.4990, 194.2651
965.6170, 293.7456
966.7350, 280.2300
967.8530, 352.7178
968.9710, 358.2095
970.0890, 401.5459
971.2070, 454.6758
972.3240, 466.5400
973.4410, 581.0420
974.5580, 635.3115
975.6750, 749.8179
976.7920, 949.3267
977.9090, 1154.107
979.0250, 1668.621
980.1410, 2543.138
981.2580, 3672.657
982.3740, 6157.178
983.4890, 9148.707
984.6050, 12231.24
985.7200, 18146.78
986.8360, 29126.32
987.9510, 45139.76
989.0660, 57673.92
990.1810, 52254.48
991.2950, 33670.03
992.4100, 17719.58
993.5240, 8932.139
994.6390, 5033.699
995.7530, 3284.045
996.8660, 2219.182
997.9800, 1505.751
999.0940, 1287.325
1000.207, 978.9014
1001.320, 857.4805
1002.433, 628.0371
1003.546, 536.4214
1004.659, 410.0127
1005.772, 446.6074
1006.884, 467.2051
1007.996, 321.7632
1009.108, 345.2549
1010.220, 247.8516
1011.332, 208.4653
1012.444, 253.0234
1013.555, 222.6450
1014.666, 188.2700
1015.777, 226.8462
1016.888, 233.4785
1017.999, 190.1147
1019.110, 192.9478
1020.220, 163.5908
1021.331, 195.2393
1022.441, 167.8955
1023.551, 165.5557
1024.661, 209.7266
1025.770, 83.58740
1026.880, 149.1880
1027.989, 145.8701
1029.098, 104.5566
1030.207, 152.2471
1031.316, 97.94287
1032.425, 78.64453
1033.533, 45.34961
1034.642, 94.05908
1035.750, 59.77295
1036.858, 63.49072
1037.966, 74.69141
1039.073, 91.93896
1040.181, 95.66943
1041.288, 75.40479
1042.396, 114.4360
1043.503, 19.62939
1044.610, 66.08984
1045.716, 62.83936
1046.823, 59.40674
1047.929, 40.32715
1049.036, 69.06641
1050.142, 19.19043
1051.248, 56.55176
1052.353, 2.300293
1053.459, 24.94531
1054.564, 65.80469
1055.670, 35.56104
1056.775, 75.32080
1057.880, 71.08691
1058.985, 9.857422
1060.089, 52.63232
1061.194, 87.41406
1062.298, 16.20801
1063.402, 70.00684
1064.506, 44.19043
1065.610, 16.45166
1066.713, 19.66064
1067.817, 19.22754
1068.920, 60.46973
1070.023, 27.97412
1071.126, 75.33789
1072.229, 52.15088
1073.332, 31.97412
1074.435, 23.80176
1075.537, 68.63428
1076.639, 74.47119
1077.741, 35.31299
1078.843, 72.15967
1079.945, 49.01074
1081.046, 64.86670
1082.148, 75.77246
1083.249, 24.64502
1084.350, 29.52295
1085.451, 55.40479
1086.551, 53.29102
1087.652, 31.18408
1088.752, 39.45996
1089.853, 24.20117
1090.953, 31.89111
1092.053, 28.80371
1093.152, 40.12158
1094.252, 96.04297
1095.351, 24.97021
1096.451, 121.9028
1097.550, 131.0366
1098.649, 197.9780
1099.748, 219.8145
1100.846, 255.3540
1101.945, 276.6606
1103.043, 313.8853
1104.141, 297.8569
1105.239, 301.8335
1106.337, 308.8140
1107.434, 289.8008
1108.532, 124.7920
1109.629, 186.7876
1110.726, 127.8193
1111.823, 54.85547
1112.920, 59.89648
1114.017, 82.94189
1115.113, 119.9917
1116.210, 122.0469
1117.306, 146.7227
1118.402, 142.2017
1119.498, 169.2700
1120.593, 218.3584
1121.689, 217.4526
1122.784, 268.5522
1123.879, 309.6562
1124.974, 347.7651
1126.069, 355.8779
1127.164, 382.0059
1128.259, 396.1294
1129.353, 440.2676
1130.447, 539.4111
1131.541, 693.5591
1132.635, 898.7139
1133.729, 1132.611
1134.822, 1451.950
1135.916, 1772.206
1137.009, 2232.379
1138.102, 2732.559
1139.195, 3257.742
1140.288, 3725.930
1141.380, 3987.123
1142.473, 4566.321
1143.565, 4650.523
1144.657, 4737.731
1145.749, 4681.942
1146.841, 4067.160
1147.932, 3438.382
1149.024, 2911.608
1150.115, 2193.838
1151.206, 1811.081
1152.297, 1363.328
1153.388, 1181.658
1154.479, 947.9150
1155.569, 783.1763
1156.659, 734.4438
1157.750, 593.7378
1158.839, 530.0356
1159.929, 464.3384
1161.019, 581.6460
1162.108, 524.9570
1163.198, 612.2734
1164.287, 710.5938
1165.376, 740.9180
1166.465, 835.2598
1167.553, 826.6050
1168.642, 761.9551
1169.730, 647.3096
1170.818, 454.6675
1171.906, 410.0303
1172.994, 380.3970
1174.082, 261.7686
1175.170, 286.4878
1176.257, 135.8740
1177.344, 265.2651
1178.431, 167.9941
1179.518, 136.3936
1180.605, 155.7969
1181.691, 127.5630
1182.778, 137.9751
1183.864, 85.39111
1184.950, 26.87988
1186.036, 43.30469
1187.122, 30.73340
1188.207, 28.24463
1189.292, 106.6040
1190.378, 43.04590
1191.463, 77.49219
1192.548, 79.94238
1193.632, 25.39648
1194.717, 115.8550
1195.801, 26.28320
1196.886, 35.24951
1197.970, 3.916016
1199.054, 13.43750
1200.137, 54.95947
1201.221, 35.35059
1202.305, 5.949219
1203.388, 19.37891
1204.471, 15.83691
1205.554, 65.30029
1206.637, 36.76904
1207.719, 57.24121
1208.802, 7.785645
1209.884, 57.26611
1210.966, 115.7500
1212.048, 1.005371
1213.130, 100.4858
1214.212, 66.98145
1215.293, 75.48486
1216.374, 136.9922
1217.456, 144.5024
1218.536, 98.01758
1219.617, 78.53564
1220.698, 97.27588
1221.778, 31.80127
1222.859, 10.66943
1223.939, 48.85889
1225.019, 36.39111
1226.099, 89.92920
1227.178, 5.529297
1228.258, 25.01318
1229.337, 2.440918
1230.417, 22.10791
1231.496, 82.65918
1232.574, 83.21436
1233.653, 147.0063
1234.732, 123.5684
1235.810, 69.13330
1236.888, 131.7012
1237.966, 80.27295
1239.044, 88.84766
1240.122, 63.87256
1241.199, 119.4531
1242.277, 112.7612
1243.354, 147.6245
1244.431, 110.2148
1245.508, 74.80811
1246.585, 0.4038090
1247.661, 20.00195
1248.738, 175.6035
1249.814, 93.54541
1250.890, 117.1519
1251.966, 67.76074
1253.042, 68.37158
1254.117, 124.9854
1255.193, 58.60205
1256.268, 2.220703
1257.343, 52.84180
1258.418, 32.46484
1259.493, 156.0903
1260.567, 84.71826
1261.642, 76.72217
1262.716, 17.35938
1263.790, 15.99902
1264.864, 101.6406
1265.938, 42.28467
1267.011, 148.9307
1268.085, 31.58301
1269.158, 52.25098
1270.231, 57.90625
1271.304, 133.5640
1272.377, 135.2236
1273.450, 157.8848
1274.522, 91.54834
1275.594, 121.2129
1276.666, 110.8799
1277.738, 100.5488
1278.810, 63.21875
1279.882, 65.89111
1280.953, 111.5649
1282.025, 17.75928
1283.096, 103.9087
1284.167, 16.57764
1285.238, 95.24902
1286.308, 170.0938
1287.379, 96.76758
1288.449, 86.44238
1289.519, 112.1191
1290.589, 97.79688
1291.659, 54.52881
1292.729, 75.20996
1293.798, 83.89258
1294.868, 157.4678
1295.937, 71.15186
1297.006, 58.83691
1298.075, 149.5234
1299.143, 187.2109
1300.212, 141.8984
1301.280, 79.58691
1302.348, 17.35107
1303.416, 169.0410
1304.484, 12.73535
1305.552, 155.4297
1306.620, 0.8750000
1307.687, 56.83008
1308.754, 46.53662
1309.821, 160.2432
1310.888, 25.95312
1311.955, 46.66357
1313.021, 84.37500
1314.088, 94.09277
1315.154, 102.2837
1316.220, 122.5303
1317.286, 90.25049
1318.352, 83.97070
1319.417, 52.69141
1320.483, 30.61963
1321.548, 35.13184
1322.613, 22.85254
1323.678, 29.57520
1324.743, 117.3076
1325.807, 28.04346
1326.872, 170.6821
1327.936, 97.97363
1329.000, 86.01270
1330.064, 148.1973
1331.128, 13.06934
1332.191, 99.66211
1333.255, 100.8066
1334.318, 111.6689
1335.381, 119.9014
1336.444, 3.201172
1337.507, 44.93799
1338.569, 64.67529
1339.632, 24.58594
1340.694, 91.10889
1341.756, 119.8418
1342.818, 72.56104
1343.880, 67.29639
1344.941, 38.01416
1346.003, 19.99512
1347.064, 21.66699
1348.125, 1.175293
1349.186, 42.89697
1350.247, 58.60010
1351.308, 107.9048
1352.368, 22.61035
1353.428, 151.8213
1354.489, 45.52832
1355.549, 59.03711
1356.608, 25.74316
1357.668, 43.36182
1358.727, 25.72266
1359.787, 25.77588
1360.846, 1.483887
1361.905, 53.19092
1362.964, 47.89844
1364.022, 89.63623
1365.081, 93.34521
1366.139, 97.28125
1367.197, 49.23096
1368.255, 90.44971
1369.313, 55.13037
1370.371, 31.02588
1371.428, 122.7070
1372.486, 64.36719
1373.543, 132.0479
1374.600, 46.77588
1375.657, 55.43506
1376.713, 46.90576
1377.770, 150.7393
1378.826, 168.3838
1379.882, 73.02783
1380.938, 70.67236
1381.994, 21.37549
1383.050, 115.0190
1384.106, 46.65283
1385.161, 94.29590
1386.216, 48.00244
1387.271, 66.64453
1388.326, 1.497559
1389.381, 81.13770
1390.435, 43.77686
1391.490, 50.41064
1392.544, 71.04346
1393.598, 100.6758
1394.652, 73.09863
1395.705, 15.71875
1396.759, 78.33740
1397.812, 74.95605
1398.866, 110.5732
1399.919, 122.1904
1400.972, 59.80078
1402.024, 57.40967
1403.077, 47.01855
1404.129, 108.6265
1405.181, 79.23389
1406.233, 100.8394
1407.285, 133.4443
1408.337, 103.4404
1409.389, 36.64062
1410.440, 47.24023
1411.491, 50.83740
1412.542, 26.56543
1413.593, 85.02197
1414.644, 48.62207
1415.695, 74.20801
1416.745, 155.7930
1417.795, 15.37744
1418.845, 86.14404
1419.895, 81.70361
1420.945, 37.73877
1421.995, 46.78809
1423.044, 91.31445
1424.093, 104.8384
1425.142, 91.36133
1426.191, 53.88184
1427.240, 44.40137
1428.289, 14.91748
1429.337, 47.43018
1430.385, 98.94092
1431.433, 161.4487
1432.481, 169.5454
1433.529, 65.15869
1434.577, 189.6519
1435.624, 51.14453
1436.672, 36.63623
1437.719, 72.12695
1438.766, 96.67871
1439.812, 187.4673
1440.859, 153.9585
1441.905, 162.8062
1442.952, 119.3145
1443.998, 153.7637
1445.044, 190.1294
1446.090, 139.7524
1447.135, 153.6279
1448.181, 110.4014
1449.226, 195.1748
1450.271, 199.9482
1451.316, 167.7388
1452.361, 112.5366
1453.405, 125.3428
1454.450, 149.1460
1455.494, 48.87646
1456.538, 140.7788
1457.582, 153.5640
1458.626, 2.341309
1459.670, 14.11719
1460.713, 22.64844
1461.757, 61.42188
1462.800, 53.46777
1463.843, 134.9736
1464.886, 69.74902
1465.928, 56.52637
1466.971, 98.02588
1468.013, 6.199707
1469.055, 116.5757
1470.097, 152.1260
1471.139, 96.85742
1472.181, 121.5859
1473.222, 100.3149
1474.263, 89.04297
1475.305, 168.4590
1476.346, 46.14160
1477.386, 60.82324
1478.427, 1.495605
1479.468, 146.1846
1480.508, 116.3535
1481.548, 136.0122
1482.588, 110.6694
1483.628, 120.3213
1484.668, 124.9458
1485.707, 126.5908
1486.747, 88.23438
1487.786, 98.87793
1488.825, 34.52100
1489.864, 125.1621
1490.902, 91.81006
1491.941, 41.46484
1492.979, 102.6812
1494.017, 200.2900
1495.055, 4.811523
1496.093, 84.41406
1497.131, 167.1841
1498.168, 32.71826
1499.206, 14.25049
1500.243, 61.65186
1501.280, 50.17920
1502.317, 48.70508
1503.354, 79.23486
1504.390, 98.76416
1505.426, 103.2920
1506.463, 25.81299
1507.499, 142.3267
1508.535, 157.8394
1509.570, 81.35400
1510.606, 25.86523
1511.641, 120.3643
1512.676, 15.12939
1513.711, 90.36279
1514.746, 109.8794
1515.781, 127.1763
1516.816, 70.50537
1517.850, 130.9619
1518.884, 8.596680
1519.918, 117.4561
1520.952, 45.86572
1521.986, 100.3042
1523.019, 106.7266
1524.053, 46.22900
1525.086, 52.36523
1526.119, 94.81982
1527.152, 116.2686
1528.185, 118.7036
1529.217, 93.12549
1530.250, 111.4419
1531.282, 167.8296
1532.314, 26.22705
1533.346, 125.9736
1534.377, 95.46191
1535.409, 167.5991
1536.440, 104.1387
1537.472, 154.6738
1538.503, 42.20459
1539.534, 158.4980
1540.564, 88.01123
1541.595, 78.25098
1542.625, 2.480469
1543.656, 78.79199
1544.686, 169.1143
1545.716, 120.6064
1546.745, 101.8394
1547.775, 173.0444
1548.804, 108.2837
1549.834, 103.4932
1550.863, 48.67383
1551.892, 147.3667
1552.920, 98.48682
1553.949, 105.5703
1554.977, 55.48389
1556.006, 41.41846
1557.034, 88.63965
1558.062, 92.69629
1559.089, 134.0371
1560.117, 79.37646
1561.144, 56.71387
1562.172, 32.11670
1563.199, 0.8056640
1564.226, 134.1216
1565.252, 0.8974610
1566.279, 49.26709
1567.305, 146.4282
1568.332, 44.39453
1569.358, 1.1719000E-02
1570.384, 0.0000000E+00
##END=



