##NAMES=Baryte
##RRUFFID=R050335
##IDEAL CHEMISTRY=BaS^6+^O_4_
##LOCALITY=Bullion Mountains, San Bernardino County, California, USA
##OWNER=RRUFF
##SOURCE=California Institute of Technology
##DESCRIPTION=Colorless cleavage fragment
##STATUS=The identification of this mineral has been confirmed by X-ray diffraction and chemical analysis
##URL=rruff.info/R050335
##MEASURED CHEMISTRY=(Ba_0.95_Sr_0.05_)_Î£=1_S_1.00_O_4_
##PIN_ID=L01894
##ORIENTATION=Laser parallel to -a* (-1 0 0). Fiducial mark perpendicular to laser is parallel to b [0 1 0]
93.48000, 0.0000000E+00
94.71400, 69.56433
95.94800, 67.86060
97.18200, 182.0657
98.41600, 309.8208
99.64900, 318.0905
100.8830, 317.0447
102.1160, 272.1042
103.3490, 252.9249
104.5820, 301.0088
105.8150, 446.6311
107.0470, 668.7173
108.2800, 964.7117
109.5120, 716.4355
110.7440, 508.2191
111.9760, 688.3059
113.2080, 686.6456
114.4400, 523.1899
115.6710, 191.8927
116.9030, 101.7212
118.1340, 21.66223
119.3650, 27.30261
120.5960, 16.80542
121.8270, 29.02991
123.0580, 4.735352
124.2880, 3.061890
125.5190, 40.64563
126.7490, 38.59888
127.9790, 51.50586
129.2090, 34.72791
130.4390, 43.93298
131.6680, 61.06958
132.8980, 87.24951
134.1270, 52.36646
135.3560, 68.41760
136.5850, 3.413452
137.8140, 50.35718
139.0430, 37.24744
140.2710, 49.17236
141.5000, 64.13818
142.7280, 54.12146
143.9560, 61.04956
145.1840, 83.92590
146.4120, 92.75745
147.6390, 112.0481
148.8670, 136.2991
150.0940, 150.0101
151.3210, 175.8022
152.5490, 199.1311
153.7750, 203.1196
155.0020, 200.9552
156.2290, 153.5889
157.4550, 157.9010
158.6810, 109.2745
159.9080, 57.88831
161.1340, 58.01819
162.3590, 90.23657
163.5850, 99.11426
164.8110, 97.60120
166.0360, 68.67993
167.2610, 95.63354
168.4860, 49.73755
169.7110, 100.9884
170.9360, 34.32520
172.1610, 57.46008
173.3850, 80.53552
174.6100, 51.68567
175.8340, 58.60876
177.0580, 82.53882
178.2820, 116.5303
179.5050, 67.85156
180.7290, 59.81458
181.9520, 118.7139
183.1760, 74.61597
184.3990, 146.6753
185.6220, 212.2024
186.8450, 173.7997
188.0670, 214.6676
189.2900, 224.1053
190.5120, 215.4629
191.7340, 216.3428
192.9560, 200.1685
194.1780, 194.9994
195.4000, 173.8352
196.6220, 143.6758
197.8430, 135.5771
199.0640, 122.5334
200.2860, 112.4967
201.5070, 138.3524
202.7270, 108.1992
203.9480, 103.0463
205.1690, 84.89368
206.3890, 61.80396
207.6090, 42.59265
208.8290, 22.48413
210.0490, 4.379395
211.2690, 5.775879
212.4890, 1.320557
213.7080, 19.80042
214.9280, 14.03955
216.1470, 11.93176
217.3660, 3.768555
218.5850, 82.60425
219.8030, 39.43872
221.0220, 36.27209
222.2400, 25.89575
223.4590, 5.064819
224.6770, 8.764771
225.8950, 45.58313
227.1120, 33.48767
228.3300, 66.34534
229.5480, 23.12231
230.7650, 23.17871
231.9820, 30.04834
233.1990, 19.48401
234.4160, 5.444214
235.6330, 14.81238
236.8490, 26.64429
238.0660, 13.33630
239.2820, 19.02539
240.4980, 36.08972
241.7140, 47.32422
242.9300, 11.63538
244.1460, 13.98242
245.3610, 12.34314
246.5770, 20.29041
247.7920, 30.05212
249.0070, 15.37769
250.2220, 15.69104
251.4370, 25.73669
252.6510, 17.46399
253.8660, 22.25122
255.0800, 15.38708
256.2940, 39.52197
257.5080, 42.66199
258.7220, 41.23193
259.9360, 44.41150
261.1490, 23.10059
262.3630, 45.24939
263.5760, 8.398438
264.7890, 31.54858
266.0020, 23.08484
267.2150, 44.23340
268.4270, 49.68896
269.6400, 37.62048
270.8520, 49.62878
272.0640, 32.76672
273.2760, 16.89990
274.4880, 17.02771
275.7000, 1.540405
276.9120, 0.4844970
278.1230, 19.62061
279.3340, 22.47473
280.5450, 33.56409
281.7560, 89.64795
282.9670, 40.27368
284.1780, 70.78687
285.3880, 1.847046
286.5980, 36.90039
287.8090, 37.94861
289.0190, 17.99121
290.2290, 66.02869
291.4380, 51.06128
292.6480, 36.08911
293.8570, 98.11243
295.0670, 87.13147
296.2760, 31.14636
297.4850, 27.15649
298.6930, 82.14624
299.9020, 46.10413
301.1110, 17.05579
302.3190, 33.00012
303.5270, 11.94165
304.7350, 13.53394
305.9430, 21.67566
307.1510, 24.65588
308.3580, 39.55627
309.5660, 65.42834
310.7730, 80.28381
311.9800, 26.13782
313.1870, 42.99084
314.3940, 48.84229
315.6010, 56.69128
316.8070, 47.52502
318.0130, 25.35681
319.2200, 32.18713
320.4260, 23.59790
321.6310, 15.79858
322.8370, 29.67065
324.0430, 14.49646
325.2480, 31.31946
326.4540, 54.14160
327.6590, 59.96326
328.8640, 45.78406
330.0680, 53.60364
331.2730, 1.415039
332.4780, 84.21277
333.6820, 24.01013
334.8860, 77.78772
336.0900, 37.56226
337.2940, 11.33643
338.4980, 111.1101
339.7010, 50.88367
340.9050, 50.65686
342.1080, 23.43005
343.3110, 30.20251
344.5140, 52.97412
345.7170, 30.74500
346.9200, 52.51562
348.1220, 55.28613
349.3240, 46.03125
350.5270, 30.82617
351.7290, 42.59607
352.9310, 26.36548
354.1320, 40.08826
355.3340, 63.40649
356.5350, 24.12854
357.7370, 1.137939
358.9380, 19.99084
360.1390, 82.62354
361.3400, 1.218750
362.5400, 30.54785
363.7410, 90.31323
364.9410, 2.921265
366.1410, 20.84290
367.3410, 17.36475
368.5410, 4.201782
369.7410, 7.753174
370.9400, 50.51758
372.1400, 25.28162
373.3390, 69.04541
374.5380, 34.78650
375.7370, 71.52698
376.9360, 42.84534
378.1350, 14.16394
379.3330, 32.32764
380.5310, 29.62683
381.7300, 38.38147
382.9280, 1.054565
384.1260, 50.78186
385.3230, 51.55811
386.5210, 26.32397
387.7180, 32.97424
388.9160, 48.65161
390.1130, 14.30420
391.3100, 9.238403
392.5060, 29.98889
393.7030, 24.91992
394.9000, 32.65552
396.0960, 54.05530
397.2920, 37.71423
398.4880, 52.40662
399.6840, 115.0398
400.8800, 39.76550
402.0750, 25.49023
403.2710, 25.21423
404.4660, 47.93726
405.6610, 76.62793
406.8560, 78.73242
408.0510, 31.40149
409.2450, 88.12146
410.4400, 49.88794
411.6340, 29.61340
412.8280, 34.34521
414.0220, 20.81616
415.2160, 34.94434
416.4100, 23.67932
417.6030, 33.61829
418.7970, 31.35962
419.9900, 34.17664
421.1830, 68.46301
422.3760, 62.48767
423.5690, 110.1971
424.7610, 110.9276
425.9540, 142.2607
427.1460, 150.3894
428.3380, 204.1768
429.5300, 231.5491
430.7220, 275.0399
431.9140, 279.0066
433.1050, 349.7026
434.2970, 369.4385
435.4880, 434.1742
436.6790, 521.9099
437.8700, 657.6450
439.0610, 848.3804
440.2510, 1081.116
441.4420, 1376.850
442.6320, 1748.586
443.8220, 2269.321
445.0120, 3032.016
446.2020, 3992.048
447.3910, 4983.409
448.5810, 6512.084
449.7700, 8187.801
450.9600, 9942.578
452.1490, 11729.92
453.3370, 12376.66
454.5260, 11420.40
455.7150, 8999.145
456.9030, 6622.887
458.0910, 4758.631
459.2800, 3329.374
460.4670, 2515.118
461.6550, 1835.863
462.8430, 1383.609
464.0300, 1131.352
465.2180, 842.0635
466.4050, 702.8115
467.5920, 516.5212
468.7790, 429.2712
469.9650, 353.0217
471.1520, 304.7739
472.3380, 266.5264
473.5250, 237.2798
474.7110, 195.7993
475.8970, 229.5671
477.0820, 156.3359
478.2680, 170.1060
479.4540, 154.8772
480.6390, 87.60474
481.8240, 120.3779
483.0090, 101.1575
484.1940, 101.9382
485.3780, 7.720459
486.5630, 54.50391
487.7470, 103.2886
488.9320, 6.074707
490.1160, 49.86157
491.3000, 67.65942
492.4830, 89.45874
493.6670, 107.2600
494.8500, 63.06250
496.0340, 62.86597
497.2170, 38.67114
498.4000, 30.47925
499.5820, 88.29370
500.7650, 63.01294
501.9480, 4.841309
503.1300, 70.67163
504.3120, 91.43506
505.4940, 52.27026
506.6760, 83.10718
507.8580, 7.681885
509.0390, 44.52075
510.2210, 56.37085
511.4020, 51.20386
512.5830, 89.05518
513.7640, 68.91431
514.9450, 57.77417
516.1250, 51.63550
517.3060, 32.49805
518.4860, 25.36206
519.6660, 75.23779
520.8460, 79.39258
522.0260, 60.28223
523.2060, 77.17969
524.3850, 44.07861
525.5650, 37.98096
526.7440, 1.112305
527.9230, 0.2043460
529.1020, 56.70459
530.2810, 49.61523
531.4590, 29.52759
532.6380, 29.44141
533.8160, 36.36475
534.9940, 31.28906
536.1720, 47.21533
537.3500, 39.40186
538.5270, 59.33081
539.7050, 63.26196
540.8820, 48.45654
542.0590, 21.12891
543.2360, 27.07178
544.4130, 34.01587
545.5900, 49.98193
546.7660, 34.94482
547.9430, 38.90894
549.1190, 18.12524
550.2950, 49.83789
551.4710, 4.197266
552.6470, 66.76782
553.8220, 57.73438
554.9980, 10.49634
556.1730, 6.534668
557.3480, 40.43457
558.5230, 9.405273
559.6980, 24.62280
560.8730, 16.34204
562.0470, 63.31152
563.2220, 15.28394
564.3960, 10.26514
565.5700, 73.25513
566.7440, 45.24658
567.9170, 9.239258
569.0910, 25.75391
570.2640, 57.24463
571.4380, 29.24609
572.6110, 57.24878
573.7840, 52.00977
574.9570, 19.01514
576.1290, 28.02124
577.3020, 2.029053
578.4740, 22.03760
579.6460, 38.04761
580.8180, 63.05835
581.9900, 24.07056
583.1620, 19.08594
584.3330, 30.10229
585.5040, 39.27856
586.6760, 45.65942
587.8470, 25.31958
589.0180, 60.43311
590.1880, 8.457031
591.3590, 2.518066
592.5290, 48.49219
593.7000, 46.51196
594.8700, 8.522217
596.0400, 41.53320
597.2090, 55.54492
598.3790, 45.55811
599.5490, 48.57178
600.7180, 107.5864
601.8870, 134.6023
603.0560, 107.6189
604.2250, 161.6365
605.3940, 126.6641
606.5620, 182.6929
607.7300, 256.7263
608.8990, 358.7607
610.0670, 537.7961
611.2350, 682.8323
612.4020, 874.8696
613.5700, 1218.908
614.7370, 1533.318
615.9050, 1976.807
617.0720, 2147.848
618.2390, 2064.890
619.4060, 1642.933
620.5720, 1312.975
621.7390, 964.0195
622.9050, 828.1704
624.0710, 528.2158
625.2370, 532.3745
626.4030, 431.4204
627.5690, 442.4670
628.7340, 458.5137
629.9000, 450.5608
631.0650, 417.8337
632.2300, 377.9888
633.3950, 407.1484
634.5600, 339.1968
635.7240, 292.2456
636.8890, 337.2942
638.0530, 211.3430
639.2170, 296.3997
640.3810, 282.4490
641.5450, 281.4990
642.7080, 365.5491
643.8720, 347.5994
645.0350, 426.6499
646.1980, 404.7007
647.3610, 347.7515
648.5240, 296.8035
649.6870, 270.8555
650.8490, 202.9077
652.0120, 180.9597
653.1740, 141.7957
654.3360, 92.06348
655.4980, 99.11572
656.6600, 50.16772
657.8210, 75.21899
658.9830, 67.27075
660.1440, 54.32202
661.3050, 27.95703
662.4660, 39.57715
663.6270, 6.065186
664.7870, 58.23169
665.9480, 36.28491
667.1080, 46.32275
668.2680, 23.36987
669.4280, 88.42285
670.5880, 41.47559
671.7480, 70.52759
672.9070, 19.57935
674.0670, 38.63037
675.2260, 67.68335
676.3850, 79.73438
677.5440, 82.79248
678.7030, 55.85034
679.8610, 42.90723
681.0200, 51.96387
682.1780, 28.49976
683.3360, 30.01880
684.4940, 4.192627
685.6520, 25.42456
686.8090, 16.47681
687.9670, 14.52808
689.1240, 142.0232
690.2810, 75.67725
691.4380, 68.05396
692.5950, 56.10107
693.7520, 8.852783
694.9080, 39.18506
696.0650, 61.09497
697.2210, 63.13037
698.3770, 92.17188
699.5330, 50.24146
700.6880, 82.32202
701.8440, 46.35352
702.9990, 15.38403
704.1550, 34.15601
705.3100, 65.18408
706.4650, 119.2109
707.6190, 90.40454
708.7740, 100.2029
709.9290, 35.22583
711.0830, 19.24731
712.2370, 23.73218
713.3910, 12.27173
714.5450, 53.27441
715.6980, 18.27539
716.8520, 57.27539
718.0050, 65.27905
719.1580, 30.27637
720.3110, 31.27197
721.4640, 56.72729
722.6170, 40.71997
723.7700, 2.711426
724.9220, 117.9023
726.0740, 58.88940
727.2260, 4.874512
728.3780, 90.89697
729.5300, 41.87842
730.6810, 101.8130
731.8330, 16.18530
732.9840, 75.23364
734.1350, 77.20874
735.2860, 15.18262
736.4370, 77.15625
737.5880, 28.12720
738.7380, 86.09668
739.8880, 21.06470
741.0390, 12.03101
742.1890, 35.99585
743.3380, 65.05469
744.4880, 52.01611
745.6380, 76.57422
746.7870, 29.80811
747.9360, 89.76489
749.0850, 47.71948
750.2340, 37.67261
751.3830, 40.62378
752.5310, 0.5732420
753.6800, 32.48291
754.8280, 27.43872
755.9760, 72.35815
757.1240, 70.27588
758.2720, 38.19189
759.4190, 23.10620
760.5670, 10.97632
761.7140, 18.92969
762.8610, 6.833740
764.0080, 23.73486
765.1550, 22.63428
766.3020, 55.53174
767.4480, 37.42749
768.5950, 28.67847
769.7410, 7.194336
770.8870, 7.064209
772.0330, 65.93115
773.1780, 56.79663
774.3240, 63.66138
775.4690, 70.52466
776.6140, 12.38574
777.7590, 54.24512
778.9040, 25.10254
780.0490, 48.96362
781.1940, 24.82275
782.3380, 32.68066
783.4820, 85.54004
784.6260, 69.39722
785.7700, 76.25586
786.9140, 28.11328
788.0580, 34.96851
789.2010, 66.82178
790.3450, 100.6736
791.4880, 98.37500
792.6310, 113.3809
793.7730, 89.23218
794.9160, 62.08130
796.0590, 24.93604
797.2010, 111.7893
798.3430, 2.358887
799.4850, 67.48608
800.6270, 39.33008
801.7690, 10.82788
802.9100, 73.00293
804.0520, 112.8315
805.1930, 47.81860
806.3340, 109.6440
807.4750, 63.46802
808.6160, 46.29004
809.7560, 33.11011
810.8970, 22.71899
812.0370, 12.94287
813.1770, 36.75781
814.3170, 16.57104
815.4570, 44.38257
816.5960, 54.19238
817.7360, 47.00024
818.8750, 18.19360
820.0140, 56.59692
821.1530, 32.61401
822.2920, 11.85791
823.4310, 21.89575
824.5690, 15.64795
825.7070, 33.39819
826.8460, 43.14990
827.9840, 54.89917
829.1220, 62.24341
830.2590, 53.39404
831.3970, 68.34570
832.5340, 31.08936
833.6710, 23.83179
834.8080, 10.57300
835.9450, 28.31274
837.0820, 8.054932
838.2190, 31.79492
839.3550, 35.53369
840.4910, 21.72925
841.6270, 56.99146
842.7630, 102.7107
843.8990, 44.42847
845.0350, 29.14478
846.1700, 71.86450
847.3060, 65.58276
848.4410, 46.29980
849.5760, 41.25854
850.7100, 100.9729
851.8450, 23.68579
852.9800, 62.39771
854.1140, 8.108154
855.2480, 70.81738
856.3820, 71.52563
857.5160, 2.767334
858.6500, 29.93384
859.7830, 62.63403
860.9170, 1.174561
862.0500, 47.87036
863.1830, 37.56519
864.3160, 5.168213
865.4480, 12.86011
866.5810, 16.55127
867.7130, 54.24170
868.8460, 13.05786
869.9780, 75.63232
871.1100, 26.32178
872.2410, 7.010010
873.3730, 102.6975
874.5050, 29.38379
875.6360, 20.06934
876.7670, 71.75415
877.8980, 58.43799
879.0290, 29.87891
880.1590, 12.78540
881.2900, 10.55127
882.4200, 44.10327
883.5500, 6.757324
884.6800, 27.41040
885.8100, 59.06299
886.9400, 92.71509
888.0690, 78.45337
889.1990, 66.64551
890.3280, 45.84717
891.4570, 68.49683
892.5860, 60.14600
893.7140, 75.79492
894.8430, 51.44360
895.9710, 59.26562
897.1000, 77.80664
898.2280, 79.45410
899.3560, 101.9878
900.4830, 99.63477
901.6110, 53.28125
902.7380, 64.92773
903.8660, 95.57397
904.9930, 12.99487
906.1200, 87.53345
907.2460, 73.06812
908.3730, 26.71802
909.5000, 44.66748
910.6260, 86.31372
911.7520, 68.95996
912.8780, 21.59912
914.0040, 81.24585
915.1290, 97.11890
916.2550, 15.76587
917.3800, 54.54028
918.5050, 147.7849
919.6300, 106.4358
920.7550, 85.84058
921.8800, 65.49170
923.0040, 21.14282
924.1290, 85.79956
925.2530, 65.45605
926.3770, 58.17578
927.5010, 11.83276
928.6250, 134.4900
929.7480, 17.14746
930.8720, 114.4688
931.9950, 18.13330
933.1180, 49.93359
934.2410, 38.01831
935.3640, 79.83325
936.4860, 71.49854
937.6090, 85.05176
938.7310, 21.71802
939.8530, 0.6152340
940.9750, 24.04956
942.0970, 45.71533
943.2180, 52.38135
944.3400, 44.04785
945.4610, 56.25708
946.5820, 1.617188
947.7030, 66.04810
948.8240, 43.71484
949.9450, 57.38257
951.0650, 118.0508
952.1860, 37.71997
953.3060, 61.38965
954.4260, 68.47998
955.5460, 53.28638
956.6650, 84.34058
957.7850, 76.83521
958.9040, 66.51001
960.0230, 98.18579
961.1420, 93.87061
962.2610, 136.3381
963.3800, 173.2432
964.4990, 235.9314
965.6170, 283.6211
966.7350, 356.3157
967.8530, 284.0117
968.9710, 337.7090
970.0890, 398.4009
971.2070, 421.1008
972.3240, 560.7544
973.4410, 564.4573
974.5580, 668.1614
975.6750, 851.1245
976.7920, 973.8320
977.9090, 1197.541
979.0250, 1627.252
980.1410, 2365.964
981.2580, 3549.678
982.3740, 5608.394
983.4890, 8833.113
984.6050, 13596.84
985.7200, 20662.57
986.8360, 32167.30
987.9510, 49008.03
989.0660, 60342.77
990.1810, 52129.49
991.2950, 32262.25
992.4100, 17230.53
993.5240, 8917.273
994.6390, 4972.021
995.7530, 3209.568
996.8660, 2165.320
997.9800, 1589.075
999.0940, 1161.792
1000.207, 1033.551
1001.320, 897.3115
1002.433, 719.0752
1003.546, 688.7688
1004.659, 545.5361
1005.772, 534.3062
1006.884, 447.0767
1007.996, 374.8516
1009.108, 310.6287
1010.220, 341.4080
1011.332, 307.1895
1012.444, 290.3662
1013.555, 267.0840
1014.666, 251.4529
1015.777, 209.3701
1016.888, 175.1638
1017.999, 173.9604
1019.110, 180.7595
1020.220, 179.5613
1021.331, 107.3655
1022.441, 143.1726
1023.551, 121.9841
1024.661, 173.8091
1025.770, 150.6365
1026.880, 37.46655
1027.989, 115.2996
1029.098, 26.86475
1030.207, 109.9634
1031.316, 104.7993
1032.425, 58.63770
1033.533, 40.47974
1034.642, 53.32446
1035.750, 74.17188
1036.858, 17.02246
1037.966, 51.87573
1039.073, 11.74146
1040.181, 71.61279
1041.288, 0.4877930
1042.396, 9.632324
1043.503, 29.24707
1044.610, 24.12964
1045.716, 71.01514
1046.823, 37.90356
1047.929, 28.20483
1049.036, 34.67847
1050.142, 4.671875
1051.248, 15.78394
1052.353, 47.10132
1053.459, 19.01025
1054.564, 29.87427
1055.670, 64.76147
1056.775, 63.74463
1057.880, 124.6392
1058.985, 24.46289
1060.089, 62.42993
1061.194, 4.326416
1062.298, 28.22559
1063.402, 34.38306
1064.506, 24.50903
1065.610, 4.393799
1066.713, 57.29663
1067.817, 4.802979
1068.920, 77.09863
1070.023, 119.0034
1071.126, 16.91602
1072.229, 66.83179
1073.332, 105.5913
1074.435, 112.5137
1075.537, 81.43921
1076.639, 68.37109
1077.741, 188.3213
1078.843, 158.2749
1079.945, 244.0342
1081.046, 316.9934
1082.148, 331.9565
1083.249, 375.9224
1084.350, 420.8911
1085.451, 410.9255
1086.551, 361.8391
1087.652, 374.8245
1088.752, 337.8127
1089.853, 268.8149
1090.953, 240.8257
1092.053, 238.8394
1093.152, 249.1855
1094.252, 291.8333
1095.351, 344.7722
1096.451, 444.6021
1097.550, 545.6331
1098.649, 691.6670
1099.748, 884.7046
1100.846, 1199.745
1101.945, 1414.791
1103.043, 1611.841
1104.141, 1735.894
1105.239, 1719.949
1106.337, 1563.008
1107.434, 1242.071
1108.532, 969.1436
1109.629, 677.2266
1110.726, 605.3123
1111.823, 446.4009
1112.920, 439.4937
1114.017, 241.5896
1115.113, 214.6882
1116.210, 249.7903
1117.306, 295.8950
1118.402, 200.0029
1119.498, 98.11353
1120.593, 131.0566
1121.689, 107.1738
1122.784, 140.2937
1123.879, 89.41650
1124.974, 122.5444
1126.069, 130.6753
1127.164, 151.8091
1128.259, 160.9468
1129.353, 54.08716
1130.447, 87.23096
1131.541, 158.3774
1132.635, 156.5271
1133.729, 244.6797
1134.822, 299.8350
1135.916, 387.0034
1137.009, 406.4441
1138.102, 369.4238
1139.195, 395.6008
1140.288, 405.7805
1141.380, 308.9629
1142.473, 353.1484
1143.565, 301.3472
1144.657, 166.5491
1145.749, 232.7629
1146.841, 160.9795
1147.932, 159.2031
1149.024, 104.4299
1150.115, 146.6592
1151.206, 106.8911
1152.297, 84.12549
1153.388, 84.36206
1154.479, 73.55176
1155.569, 70.61353
1156.659, 85.08789
1157.750, 86.33496
1158.839, 95.58447
1159.929, 136.8362
1161.019, 123.9390
1162.108, 139.1958
1163.198, 203.4551
1164.287, 250.7163
1165.376, 321.9805
1166.465, 312.2468
1167.553, 264.5156
1168.642, 358.7864
1169.730, 191.0596
1170.818, 238.7888
1171.906, 187.1042
1172.994, 118.7908
1174.082, 136.7710
1175.170, 138.0566
1176.257, 59.34424
1177.344, 45.63379
1178.431, 53.92578
1179.518, 58.99365
1180.605, 17.71021
1181.691, 17.01709
1182.778, 94.15649
1183.864, 19.45215
1184.950, 80.99585
1186.036, 63.29541
1187.122, 24.40234
1188.207, 78.18237
1189.292, 51.53564
1190.378, 125.1553
1191.463, 12.45557
1192.548, 76.76709
1193.632, 30.92847
1194.717, 0.7075200
1195.801, 70.00269
1196.886, 45.16406
1197.970, 27.46338
1199.054, 70.61475
1200.137, 112.0100
1201.221, 41.31543
1202.305, 65.62256
1203.388, 32.06592
1204.471, 28.42090
1205.554, 66.73486
1206.637, 47.78198
1207.719, 44.79443
1208.802, 62.12061
1209.884, 82.44995
1210.966, 86.78174
1212.048, 73.11523
1213.130, 127.5090
1214.212, 103.8501
1215.293, 83.23877
1216.374, 142.5793
1217.456, 108.9377
1218.536, 101.2781
1219.617, 88.63599
1220.698, 83.99487
1221.778, 50.35498
1222.859, 31.28345
1223.939, 42.45166
1225.019, 38.80054
1226.099, 53.15088
1227.178, 124.5022
1228.258, 10.85449
1229.337, 73.27124
1230.417, 79.62646
1231.496, 33.66504
1232.574, 44.02173
1233.653, 96.37964
1234.732, 106.7380
1235.810, 107.0972
1236.888, 64.56714
1237.966, 69.01367
1239.044, 2.804199
1240.122, 51.16919
1241.199, 70.53223
1242.277, 123.1587
1243.354, 86.52295
1244.431, 99.88770
1245.508, 59.25269
1246.585, 110.6313
1247.661, 18.99878
1248.738, 95.36646
1249.814, 15.14551
1250.890, 26.21558
1251.966, 83.57690
1253.042, 22.93896
1254.117, 143.3010
1255.193, 50.73315
1256.268, 7.095703
1257.343, 6.458496
1258.418, 7.825684
1259.493, 54.18896
1260.567, 65.55737
1261.642, 49.01270
1262.716, 56.37671
1263.790, 63.74146
1264.864, 49.48022
1265.938, 30.84521
1267.011, 0.7902830
1268.085, 78.57397
1269.158, 147.9375
1270.231, 97.30127
1271.304, 39.66455
1272.377, 27.68896
1273.450, 28.05151
1274.522, 51.41382
1275.594, 50.83594
1276.666, 60.40576
1277.738, 64.62915
1278.810, 67.76367
1279.882, 71.48486
1280.953, 66.84351
1282.025, 82.20166
1283.096, 64.55859
1284.167, 55.91504
1285.238, 65.27051
1286.308, 77.62622
1287.379, 146.9844
1288.449, 85.34180
1289.519, 4.698486
1290.589, 85.05933
1291.659, 97.41919
1292.729, 56.77783
1293.798, 62.13574
1294.868, 47.43018
1295.937, 54.84814
1297.006, 20.20264
1298.075, 15.55591
1299.143, 4.004639
1300.212, 4.926270
1301.280, 3.134766
1302.348, 41.20996
1303.416, 59.55469
1304.484, 91.89771
1305.552, 50.23950
1306.620, 64.57983
1307.687, 42.91870
1308.754, 87.26147
1309.821, 39.83960
1310.888, 114.1802
1311.955, 134.5212
1313.021, 65.86060
1314.088, 32.20166
1315.154, 25.54028
1316.220, 1.215820
1317.286, 4.606689
1318.352, 2.535156
1319.417, 34.79248
1320.483, 16.11865
1321.548, 53.44116
1322.613, 20.27417
1323.678, 39.60205
1324.743, 30.93164
1325.807, 44.26147
1326.872, 120.5903
1327.936, 2.919922
1329.000, 20.22876
1330.064, 73.53687
1331.128, 1.932861
1332.191, 10.23926
1333.255, 76.56738
1334.318, 7.352783
1335.381, 54.21875
1336.444, 90.06567
1337.507, 58.71362
1338.569, 59.99438
1339.632, 115.2744
1340.694, 10.55005
1341.756, 24.07544
1342.818, 13.34912
1343.880, 142.6206
1344.941, 39.02173
1346.003, 88.25439
1347.064, 104.5142
1348.125, 59.77246
1349.186, 30.02979
1350.247, 61.28540
1351.308, 0.1318360
1352.368, 124.1191
1353.428, 47.36914
1354.489, 75.61792
1355.549, 49.86499
1356.608, 15.11084
1357.668, 30.34692
1358.727, 4.342529
1359.787, 93.93530
1360.846, 79.14819
1361.905, 56.38110
1362.964, 35.59595
1364.022, 10.85840
1365.081, 14.00659
1366.139, 15.79102
1367.197, 32.40356
1368.255, 83.59644
1369.313, 3.787598
1370.371, 86.03125
1371.428, 89.21753
1372.486, 43.40210
1373.543, 31.58496
1374.600, 53.99658
1375.657, 133.2317
1376.713, 12.40723
1377.770, 111.7510
1378.826, 49.92188
1379.882, 119.1160
1380.938, 48.28369
1381.994, 19.44946
1383.050, 49.61279
1384.106, 42.77466
1385.161, 35.93457
1386.216, 115.0928
1387.271, 36.31909
1388.326, 17.47388
1389.381, 47.62646
1390.435, 95.92383
1391.490, 13.93555
1392.544, 45.18970
1393.598, 49.30884
1394.652, 78.47217
1395.705, 79.58447
1396.759, 68.69385
1397.812, 54.76929
1398.866, 34.15796
1399.919, 93.90649
1400.972, 108.0366
1402.024, 26.08960
1403.077, 9.145752
1404.129, 50.18994
1405.181, 86.23145
1406.233, 93.27051
1407.285, 43.37134
1408.337, 70.40454
1409.389, 143.4346
1410.440, 182.4617
1411.491, 112.5190
1412.542, 59.76343
1413.593, 72.51929
1414.644, 64.67358
1415.695, 93.67993
1416.745, 108.6599
1417.795, 145.6580
1418.845, 87.65186
1419.895, 60.66357
1420.945, 75.64746
1421.995, 104.6440
1423.044, 50.61816
1424.093, 74.58984
1425.142, 32.55737
1426.191, 13.10767
1427.240, 44.03247
1428.289, 102.6060
1429.337, 70.56055
1430.385, 153.5046
1431.433, 114.4165
1432.481, 138.3237
1433.529, 124.2781
1434.577, 117.2188
1435.624, 77.10962
1436.672, 66.19995
1437.719, 106.8264
1438.766, 50.63916
1439.812, 59.43823
1440.859, 112.2393
1441.905, 71.01538
1442.952, 42.46899
1443.998, 69.17871
1445.044, 137.5217
1446.090, 107.4114
1447.135, 100.8318
1448.181, 74.09082
1449.226, 67.35498
1450.271, 90.61694
1451.316, 146.7822
1452.361, 133.1826
1453.405, 101.1082
1454.450, 126.6582
1455.494, 53.84961
1456.538, 25.03687
1457.582, 79.15259
1458.626, 41.27734
1459.670, 3.561523
1460.713, 4.417480
1461.757, 63.72363
1462.800, 4.436279
1463.843, 60.58398
1464.886, 105.6553
1465.928, 48.99170
1466.971, 10.12158
1468.013, 148.2488
1469.055, 65.13647
1470.097, 19.50122
1471.139, 38.72534
1472.181, 64.36694
1473.222, 80.43994
1474.263, 67.52368
1475.305, 137.4539
1476.346, 134.4082
1477.386, 65.53027
1478.427, 174.6091
1479.468, 135.6794
1480.508, 154.6211
1481.548, 81.68799
1482.588, 132.8315
1483.628, 30.87036
1484.668, 37.90601
1485.707, 112.0845
1486.747, 41.06836
1487.786, 44.64917
1488.825, 82.62207
1489.864, 83.59155
1490.902, 93.19312
1491.941, 76.52173
1492.979, 75.47437
1494.017, 95.41675
1495.055, 34.35693
1496.093, 50.29468
1497.131, 107.2290
1498.168, 62.16089
1499.206, 10.65796
1500.243, 34.56152
1501.280, 100.4792
1502.317, 69.39526
1503.354, 85.30933
1504.390, 43.22217
1505.426, 66.13599
1506.463, 102.0515
1507.499, 115.9338
1508.535, 128.8662
1509.570, 53.80713
1510.606, 63.74243
1511.641, 33.66553
1512.676, 82.57983
1513.711, 92.56787
1514.746, 21.35376
1515.781, 64.54077
1516.816, 71.56958
1517.850, 123.6084
1518.884, 22.47827
1519.918, 48.73828
1520.952, 82.26221
1521.986, 50.65723
1523.019, 79.35767
1524.053, 41.04272
1525.086, 24.71021
1526.119, 60.35840
1527.152, 41.00952
1528.185, 109.3086
1529.217, 87.96582
1530.250, 103.6594
1531.282, 27.35742
1532.314, 95.03931
1533.346, 54.52173
1534.377, 67.16333
1535.409, 33.98730
1536.440, 6.371094
1537.472, 6.067871
1538.503, 14.37451
1539.534, 79.87964
1540.564, 97.35278
1541.595, 48.49707
1542.625, 44.88354
1543.656, 36.60132
1544.686, 47.04028
1545.716, 37.88062
1546.745, 43.43188
1547.775, 74.09790
1548.804, 68.37842
1549.834, 9.977539
1550.863, 129.7051
1551.892, 37.96289
1552.920, 99.61719
1553.949, 109.4067
1554.977, 47.17285
1556.006, 51.30884
1557.034, 28.41113
1558.062, 30.58325
1559.089, 113.1179
1560.117, 52.03076
1561.144, 57.71289
1562.172, 61.37012
1563.199, 34.32324
1564.226, 23.11621
1565.252, 21.90527
1566.279, 79.41699
1567.305, 14.75146
1568.332, 18.47510
1569.358, 0.2270510
1570.384, 0.0000000E+00
##END=



