##NAMES=Barysilite
##RRUFFID=R050002
##IDEAL CHEMISTRY=Pb^2+^_8_Mn^2+^(Si_2_O_7_)_3_
##LOCALITY=Franklin, Sussex County, New Jersey, USA
##OWNER=RRUFF
##SOURCE=University of Arizona Mineral Museum
##DESCRIPTION=A lamellar aggregate of platy crystals
##STATUS=The identification of this mineral has been confirmed by X-ray diffraction and chemical analysis
##URL=rruff.info/R050002
##MEASURED CHEMISTRY=Pb_8.00_Mn_1.00_(Si_2.00_O_7_)_3_
##PIN_ID=M00057
##ORIENTATION=Laser parallel to c* (0 0 1). Fiducial mark perpendicular to laser is parallel to a [1 0 0]
91.284, 0.000
92.678, 33.641
94.071, 356.185
95.465, 2525.735
96.858, 5690.132
98.251, 9774.048
99.644, 13881.813
101.036, 17280.076
102.428, 20426.363
103.820, 21807.947
105.212, 22018.570
106.604, 20321.682
107.995, 17395.656
109.387, 14118.281
110.777, 11222.991
112.168, 9545.231
113.559, 8261.181
114.949, 7364.504
116.339, 6805.333
117.729, 6419.625
119.119, 5863.053
120.508, 5286.588
121.897, 4527.547
123.286, 4526.683
124.675, 3834.727
126.063, 3591.328
127.452, 3447.632
128.840, 2936.541
130.228, 2773.492
131.615, 2622.124
133.003, 2625.134
134.390, 2235.241
135.777, 2136.249
137.164, 1559.044
138.550, 1461.913
139.937, 999.744
141.323, 917.785
142.709, 629.735
144.094, 231.302
145.480, 152.452
146.865, 326.157
148.250, 367.834
149.635, 322.545
151.019, 118.289
152.403, 7.852
153.788, 6.821
155.171, 117.560
156.555, 22.932
157.939, 56.337
159.322, 50.067
160.705, 386.164
162.088, 422.287
163.470, 8.786
164.853, 185.128
166.235, 757.493
167.617, 1103.335
168.998, 2013.699
170.380, 2907.686
171.761, 4223.430
173.142, 5802.932
174.523, 8252.011
175.904, 10730.549
177.284, 13591.006
178.664, 17287.592
180.044, 20514.383
181.424, 24076.455
182.803, 27135.391
184.183, 29031.934
185.562, 30271.057
186.940, 30770.225
188.319, 29727.541
189.698, 28020.945
191.076, 24995.377
192.454, 22232.668
193.831, 19261.928
195.209, 16560.340
196.586, 14432.709
197.963, 12092.074
199.340, 10675.848
200.717, 9092.837
202.093, 8189.516
203.470, 6963.467
204.846, 6093.821
206.221, 5392.228
207.597, 5144.336
208.972, 4625.133
210.347, 3897.701
211.722, 3615.540
213.097, 3355.648
214.472, 2816.008
215.846, 2638.613
217.220, 2317.445
218.594, 2242.497
219.967, 2004.758
221.341, 1761.916
222.714, 1731.794
224.087, 1682.685
225.460, 1559.167
226.832, 1711.242
228.204, 1592.979
229.577, 1600.753
230.948, 1636.553
232.320, 1642.381
233.692, 1826.233
235.063, 1931.109
236.434, 1953.005
237.805, 2017.923
239.175, 2096.856
240.545, 1976.803
241.916, 2321.764
243.286, 2197.734
244.655, 2186.709
246.025, 2155.726
247.394, 2105.446
248.763, 2294.719
250.132, 2212.370
251.501, 2664.578
252.869, 2773.195
254.237, 2896.860
255.605, 2992.099
256.973, 3003.643
258.340, 3025.437
259.708, 2965.168
261.075, 2714.956
262.442, 2453.655
263.808, 2227.472
265.175, 1782.863
266.541, 1546.326
267.907, 1307.591
269.273, 701.470
270.639, 561.775
272.004, 222.201
273.369, 134.551
274.734, 30.690
276.099, 22.340
277.463, 227.537
278.828, 198.997
280.192, 203.702
281.556, 4.413
282.919, 178.358
284.283, 54.139
285.646, 184.910
287.009, 48.790
288.372, 28.743
289.734, 51.367
291.097, 133.562
292.459, 180.203
293.821, 83.913
295.183, 94.129
296.544, 70.599
297.905, 29.176
299.266, 89.556
300.627, 7.215
301.988, 105.809
303.348, 131.683
304.709, 59.411
306.069, 85.091
307.428, 86.123
308.788, 9.658
310.147, 100.060
311.507, 170.370
312.865, 155.854
314.224, 265.344
315.583, 272.840
316.941, 516.962
318.299, 693.906
319.657, 796.937
321.015, 1131.146
322.372, 1126.429
323.729, 1296.615
325.086, 1200.755
326.443, 1355.036
327.800, 1147.216
329.156, 1534.138
330.512, 1211.988
331.868, 1267.740
333.224, 1278.397
334.579, 1410.958
335.935, 1131.439
337.290, 1326.846
338.645, 929.160
339.999, 897.388
341.354, 759.524
342.708, 651.602
344.062, 478.604
345.416, 479.511
346.769, 417.321
348.123, 195.940
349.476, 144.975
350.829, 163.397
352.182, 212.231
353.534, 275.472
354.887, 214.155
356.239, 337.182
357.591, 372.660
358.942, 330.610
360.294, 519.020
361.645, 633.924
362.996, 597.409
364.347, 874.607
365.698, 747.588
367.048, 825.501
368.398, 922.388
369.748, 985.240
371.098, 1231.064
372.448, 1172.855
373.797, 1304.616
375.146, 1302.364
376.495, 1373.079
377.844, 1664.758
379.192, 1405.403
380.540, 1597.071
381.889, 1248.702
383.236, 1264.292
384.584, 1486.802
385.932, 1223.234
387.279, 1238.599
388.626, 1204.909
389.973, 1164.169
391.319, 807.383
392.666, 937.553
394.012, 705.678
395.358, 653.755
396.704, 565.788
398.049, 457.772
399.394, 645.706
400.740, 379.592
402.084, 354.421
403.429, 347.194
404.774, 289.906
406.118, 392.567
407.462, 320.303
408.806, 149.850
410.150, 283.303
411.493, 410.411
412.836, 398.710
414.179, 454.201
415.522, 293.870
416.865, 588.491
418.207, 574.521
419.549, 648.264
420.891, 654.949
422.233, 810.206
423.575, 979.882
424.916, 859.719
426.257, 1331.082
427.598, 1544.567
428.939, 1758.986
430.279, 2145.332
431.619, 2097.596
432.959, 2439.871
434.299, 2581.557
435.639, 3080.318
436.978, 2885.152
438.318, 2966.115
439.657, 2644.841
440.996, 2732.250
442.334, 2447.472
443.673, 2249.241
445.011, 1980.256
446.349, 1871.024
447.687, 1708.907
449.024, 1526.894
450.361, 1400.393
451.699, 1038.946
453.036, 896.406
454.372, 802.116
455.709, 949.028
457.045, 509.202
458.381, 643.962
459.717, 550.678
461.053, 595.852
462.388, 610.112
463.724, 488.334
465.059, 511.106
466.394, 504.215
467.728, 473.549
469.063, 785.561
470.397, 625.292
471.731, 685.456
473.065, 1011.106
474.398, 1103.164
475.732, 1557.095
477.065, 1517.861
478.398, 2017.372
479.731, 2341.977
481.063, 2628.371
482.396, 2801.631
483.728, 2894.308
485.060, 3261.044
486.391, 3142.150
487.723, 3341.729
489.054, 3606.642
490.385, 4056.938
491.716, 4470.283
493.047, 4807.569
494.377, 5661.819
495.708, 6398.201
497.038, 7690.198
498.368, 8627.656
499.697, 10103.582
501.027, 11568.558
502.356, 13236.016
503.685, 14450.141
505.014, 15763.051
506.342, 16258.732
507.671, 16540.586
508.999, 16082.720
510.327, 15381.210
511.655, 14234.200
512.982, 12772.761
514.310, 11376.615
515.637, 9579.156
516.964, 8506.656
518.291, 7153.868
519.617, 6278.745
520.944, 5449.039
522.270, 4335.503
523.596, 4031.319
524.921, 3366.716
526.247, 3052.414
527.572, 2602.396
528.897, 2371.962
530.222, 2319.465
531.547, 2058.906
532.871, 2076.660
534.196, 1831.378
535.520, 1831.629
536.844, 2049.819
538.167, 1742.947
539.491, 1703.321
540.814, 1452.332
542.137, 1340.300
543.460, 1053.203
544.783, 1131.042
546.105, 737.819
547.427, 1004.530
548.749, 973.179
550.071, 1030.763
551.393, 1013.287
552.714, 1154.746
554.035, 1102.139
555.356, 923.471
556.677, 849.569
557.998, 732.968
559.318, 818.110
560.638, 686.533
561.958, 454.546
563.278, 280.375
564.597, 413.380
565.917, 163.587
567.236, 190.789
568.555, 307.939
569.874, 9.380
571.192, 251.736
572.511, 119.890
573.829, 57.173
575.147, 66.142
576.464, 212.120
577.782, 15.962
579.099, 36.752
580.416, 45.666
581.733, 24.551
583.050, 158.378
584.366, 128.932
585.683, 348.007
586.999, 41.336
588.315, 41.681
589.630, 141.001
590.946, 102.419
592.261, 4.223
593.576, 71.235
594.891, 63.105
596.206, 74.029
597.520, 126.112
598.834, 26.749
600.148, 43.469
601.462, 72.057
602.776, 83.064
604.089, 67.011
605.402, 21.527
606.715, 36.496
608.028, 85.923
609.341, 71.766
610.653, 72.626
611.965, 94.540
613.277, 87.141
614.589, 7.310
615.901, 36.968
617.212, 66.489
618.523, 83.531
619.834, 21.649
621.145, 8.865
622.456, 59.760
623.766, 54.498
625.076, 139.605
626.386, 11.933
627.696, 90.570
629.006, 104.508
630.315, 86.736
631.624, 25.454
632.933, 25.028
634.242, 262.729
635.551, 40.041
636.859, 32.968
638.167, 33.007
639.475, 118.945
640.783, 17.145
642.090, 0.306
643.398, 177.020
644.705, 69.682
646.012, 15.259
647.318, 22.533
648.625, 62.202
649.931, 53.556
651.237, 44.854
652.543, 13.903
653.849, 10.255
655.155, 164.463
656.460, 40.490
657.765, 30.462
659.070, 69.497
660.375, 30.814
661.679, 203.907
662.984, 2.580
664.288, 20.675
665.592, 235.718
666.895, 56.208
668.199, 12.084
669.502, 37.066
670.805, 44.670
672.108, 225.701
673.411, 31.387
674.713, 19.798
676.016, 195.208
677.318, 6.718
678.620, 20.750
679.921, 185.156
681.223, 20.976
682.524, 12.167
683.825, 23.288
685.126, 251.244
686.427, 306.871
687.727, 197.463
689.028, 75.016
690.328, 10.685
691.628, 234.967
692.927, 318.687
694.227, 281.056
695.526, 216.062
696.825, 576.331
698.124, 329.307
699.423, 503.406
700.721, 699.471
702.020, 969.501
703.318, 1039.494
704.616, 1403.453
705.913, 1324.380
707.211, 1654.272
708.508, 1808.132
709.805, 1613.960
711.102, 974.754
712.399, 964.516
713.695, 616.246
714.992, 579.949
716.288, 257.621
717.584, 467.272
718.879, 148.900
720.175, 6.510
721.470, 540.080
722.765, 202.496
724.060, 301.020
725.355, 211.550
726.649, 27.719
727.944, 32.637
729.238, 419.949
730.532, 171.305
731.825, 265.616
733.119, 184.901
734.412, 24.564
735.705, 87.978
736.998, 81.844
738.291, 196.172
739.584, 92.205
740.876, 93.572
742.168, 207.662
743.460, 48.013
744.752, 49.015
746.043, 124.374
747.334, 259.003
748.626, 48.057
749.916, 222.985
751.207, 243.845
752.498, 10.011
753.788, 285.467
755.078, 62.135
756.368, 144.489
757.658, 28.823
758.947, 42.260
760.237, 175.211
761.526, 42.457
762.815, 148.945
764.104, 32.931
765.392, 169.975
766.680, 16.602
767.969, 85.107
769.257, 389.290
770.544, 32.250
771.832, 126.346
773.119, 100.776
774.406, 13.541
775.693, 220.023
776.980, 43.487
778.267, 60.898
779.553, 76.924
780.839, 98.777
782.125, 75.509
783.411, 65.110
784.697, 4.691
785.982, 73.849
787.267, 94.125
788.552, 38.456
789.837, 36.741
791.122, 355.612
792.406, 79.763
793.690, 71.129
794.974, 168.621
796.258, 59.519
797.542, 139.698
798.825, 146.374
800.108, 186.584
801.391, 63.365
802.674, 136.659
803.957, 158.802
805.239, 35.896
806.522, 497.938
807.804, 6.256
809.085, 476.842
810.367, 529.380
811.649, 501.376
812.930, 475.234
814.211, 742.498
815.492, 717.002
816.772, 867.628
818.053, 991.375
819.333, 1174.864
820.613, 1040.500
821.893, 1335.601
823.173, 1215.413
824.452, 1190.369
825.732, 1296.905
827.011, 993.571
828.290, 743.957
829.568, 808.951
830.847, 624.645
832.125, 808.023
833.403, 614.157
834.681, 194.875
835.959, 286.633
837.236, 328.376
838.514, 93.799
839.791, 383.574
841.068, 325.419
842.345, 249.265
843.621, 476.788
844.898, 60.318
846.174, 16.717
847.450, 369.255
848.726, 66.770
850.001, 208.885
851.277, 84.161
852.552, 212.763
853.827, 194.720
855.102, 34.686
856.376, 170.659
857.651, 389.635
858.925, 462.693
860.199, 246.754
861.473, 270.821
862.746, 521.899
864.020, 533.979
865.293, 216.063
866.566, 529.155
867.839, 376.251
869.112, 588.355
870.384, 670.468
871.656, 844.643
872.928, 625.821
874.200, 803.946
875.472, 972.141
876.744, 992.355
878.015, 1063.577
879.286, 1258.810
880.557, 1805.743
881.828, 1918.644
883.098, 2472.942
884.369, 2957.506
885.639, 3902.829
886.909, 4577.160
888.178, 5497.284
889.448, 5756.548
890.717, 6615.831
891.987, 6189.246
893.256, 5691.618
894.524, 5420.101
895.793, 4719.593
897.061, 4554.027
898.330, 4126.371
899.598, 3991.928
900.865, 4349.500
902.133, 4371.928
903.401, 4471.150
904.668, 4742.803
905.935, 5067.409
907.202, 4713.117
908.468, 4905.815
909.735, 4867.643
911.001, 4465.480
912.267, 4196.396
913.533, 4018.359
914.799, 4072.674
916.064, 3976.695
917.330, 4626.401
918.595, 4590.450
919.860, 4528.055
921.124, 4862.029
922.389, 4734.187
923.653, 4332.066
924.918, 4002.290
926.182, 3738.559
927.445, 3484.848
928.709, 3378.149
929.972, 2937.892
931.236, 2757.236
932.499, 2400.632
933.761, 2311.042
935.024, 1914.504
936.286, 1751.980
937.549, 2022.287
938.811, 1398.846
940.073, 1640.449
941.334, 1292.093
942.596, 1167.808
943.857, 1193.509
945.118, 1099.227
946.379, 826.982
947.640, 804.277
948.900, 1165.399
950.161, 853.646
951.421, 729.497
952.681, 789.411
953.940, 762.315
955.200, 632.617
956.459, 397.579
957.719, 639.997
958.978, 675.995
960.236, 678.145
961.495, 531.203
962.753, 610.671
964.012, 385.769
965.270, 248.183
966.527, 588.793
967.785, 513.562
969.043, 634.389
970.300, 441.137
971.557, 363.749
972.814, 483.491
974.071, 401.931
975.327, 387.713
976.583, 517.536
977.840, 576.395
979.095, 370.271
980.351, 273.184
981.607, 654.090
982.862, 382.342
984.117, 163.197
985.372, 591.341
986.627, 82.277
987.882, 496.581
989.136, 406.347
990.390, 72.971
991.644, 406.164
992.898, 159.036
994.152, 275.542
995.405, 334.715
996.659, 355.887
997.912, 482.397
999.165, 282.976
1000.417, 457.126
1001.670, 34.220
1002.922, 515.845
1004.174, 154.413
1005.426, 366.138
1006.678, 220.015
1007.930, 305.308
1009.181, 269.467
1010.432, 108.482
1011.683, 208.428
1012.934, 229.324
1014.185, 349.401
1015.435, 496.496
1016.685, 308.977
1017.935, 57.238
1019.185, 315.921
1020.435, 231.496
1021.684, 47.911
1022.934, 256.202
1024.183, 435.462
1025.432, 269.455
1026.680, 442.660
1027.929, 141.919
1029.177, 298.972
1030.425, 232.898
1031.673, 454.100
1032.921, 198.588
1034.169, 220.596
1035.416, 150.745
1036.663, 497.565
1037.911, 314.658
1039.157, 132.148
1040.404, 457.040
1041.650, 406.985
1042.897, 433.414
1044.143, 281.268
1045.389, 252.837
1046.634, 483.666
1047.880, 279.846
1049.125, 329.844
1050.371, 283.240
1051.615, 645.221
1052.860, 126.402
1054.105, 743.232
1055.349, 387.855
1056.593, 421.727
1057.837, 356.861
1059.081, 661.851
1060.325, 388.070
1061.568, 288.175
1062.812, 250.260
1064.055, 419.420
1065.298, 453.279
1066.540, 361.315
1067.783, 337.255
1069.025, 129.483
1070.267, 477.418
1071.509, 179.490
1072.751, 227.931
1073.993, 435.007
1075.234, 304.170
1076.475, 363.063
1077.716, 463.337
1078.957, 94.339
1080.198, 130.838
1081.438, 609.653
1082.679, 445.867
1083.919, 387.238
1085.159, 295.362
1086.398, 243.206
1087.638, 201.461
1088.877, 224.628
1090.116, 215.574
1091.355, 209.537
1092.594, 214.349
1093.833, 222.882
1095.071, 122.720
1096.309, 31.815
1097.547, 284.263
1098.785, 73.856
1100.023, 225.034
1101.260, 105.058
1102.498, 341.859
1103.735, 38.184
1104.972, 167.330
1106.208, 11.388
1107.445, 285.610
1108.681, 37.498
1109.918, 291.465
1111.154, 78.859
1112.389, 263.679
1113.625, 88.026
1114.860, 56.227
1116.096, 29.038
1117.331, 35.573
1118.566, 63.729
1119.800, 63.663
1121.035, 82.987
1122.269, 18.883
1123.503, 62.436
1124.737, 89.441
1125.971, 91.701
1127.205, 98.354
1128.438, 74.710
1129.671, 15.996
1130.904, 33.469
1132.137, 141.486
1133.370, 83.733
1134.602, 36.655
1135.834, 8.313
1137.066, 23.238
1138.298, 236.974
1139.530, 154.369
1140.762, 184.875
1141.993, 93.972
1143.224, 5.892
1144.455, 56.257
1145.686, 9.505
1146.917, 42.386
1148.147, 203.241
1149.377, 180.310
1150.607, 96.310
1151.837, 66.003
1153.067, 45.645
1154.296, 36.829
1155.526, 181.431
1156.755, 168.238
1157.984, 252.606
1159.213, 34.417
1160.441, 50.998
1161.670, 249.050
1162.898, 247.591
1164.126, 158.120
1165.354, 211.919
1166.581, 121.325
1167.809, 147.739
1169.036, 88.108
1170.263, 220.651
1171.490, 254.666
1172.717, 81.477
1173.943, 2.409
1175.170, 44.839
1176.396, 84.688
1177.622, 358.019
1178.848, 310.600
1180.073, 46.124
1181.299, 404.015
1182.524, 147.815
1183.749, 225.995
1184.974, 418.399
1186.199, 324.350
1187.423, 245.152
1188.648, 232.227
1189.872, 354.218
1191.096, 269.722
1192.320, 124.134
1193.543, 273.273
1194.767, 480.054
1195.990, 249.371
1197.213, 157.881
1198.436, 250.071
1199.659, 439.198
1200.881, 294.736
1202.104, 343.565
1203.326, 282.468
1204.548, 581.302
1205.770, 7.980
1206.991, 434.732
1208.213, 464.930
1209.434, 511.457
1210.655, 202.917
1211.876, 275.303
1213.096, 547.625
1214.317, 251.877
1215.537, 184.058
1216.757, 247.163
1217.977, 454.200
1219.197, 362.248
1220.417, 208.204
1221.636, 190.146
1222.855, 241.900
1224.074, 385.579
1225.293, 206.187
1226.512, 324.721
1227.731, 498.174
1228.949, 382.533
1230.167, 153.776
1231.385, 391.941
1232.603, 453.027
1233.820, 349.036
1235.038, 169.283
1236.255, 410.119
1237.472, 399.869
1238.689, 432.519
1239.906, 631.092
1241.122, 412.580
1242.338, 512.991
1243.555, 332.798
1244.771, 377.040
1245.986, 350.792
1247.202, 311.872
1248.417, 356.722
1249.633, 461.530
1250.848, 256.896
1252.063, 454.521
1253.277, 270.628
1254.492, 287.318
1255.706, 491.422
1256.920, 282.589
1258.134, 162.271
1259.348, 21.211
1260.562, 376.693
1261.775, 457.868
1262.988, 14.300
1264.201, 351.329
1265.414, 350.897
1266.627, 310.477
1267.839, 239.837
1269.052, 454.365
1270.264, 154.665
1271.476, 433.687
1272.688, 36.614
1273.899, 244.450
1275.111, 266.190
1276.322, 149.881
1277.533, 154.150
1278.744, 134.750
1279.955, 34.005
1281.165, 244.942
1282.376, 224.317
1283.586, 207.717
1284.796, 146.195
1286.006, 152.015
1287.215, 268.079
1288.425, 169.412
1289.634, 137.996
1290.843, 227.512
1292.052, 30.281
1293.261, 101.212
1294.469, 228.704
1295.678, 74.996
1296.886, 295.832
1298.094, 5.531
1299.302, 43.644
1300.509, 73.007
1301.717, 195.657
1302.924, 180.361
1304.131, 18.130
1305.338, 26.896
1306.545, 59.636
1307.752, 109.125
1308.958, 101.525
1310.164, 241.221
1311.370, 28.686
1312.576, 296.915
1313.782, 105.558
1314.987, 28.292
1316.193, 60.860
1317.398, 395.848
1318.603, 2.824
1319.807, 138.537
1321.012, 54.856
1322.216, 121.908
1323.421, 64.902
1324.625, 4.778
1325.829, 217.410
1327.032, 117.757
1328.236, 275.382
1329.439, 203.099
1330.642, 22.903
1331.845, 45.538
1333.048, 223.112
1334.251, 223.662
1335.453, 19.307
1336.656, 89.904
1337.858, 130.000
1339.060, 61.167
1340.261, 294.415
1341.463, 226.684
1342.664, 324.015
1343.866, 416.958
1345.067, 174.189
1346.267, 78.607
1347.468, 410.258
1348.669, 335.791
1349.869, 432.234
1351.069, 474.190
1352.269, 128.755
1353.469, 473.213
1354.668, 399.588
1355.868, 448.337
1357.067, 624.510
1358.266, 315.741
1359.465, 512.298
1360.664, 580.397
1361.862, 446.791
1363.061, 245.399
1364.259, 248.497
1365.457, 234.020
1366.655, 533.141
1367.852, 475.363
1369.050, 456.481
1370.247, 440.778
1371.444, 645.939
1372.641, 409.670
1373.838, 419.257
1375.035, 295.613
1376.231, 464.137
1377.427, 454.773
1378.623, 152.435
1379.819, 253.682
1381.015, 289.230
1382.211, 486.858
1383.406, 417.790
1384.601, 244.894
1385.796, 564.765
1386.991, 465.224
1388.185, 320.354
1389.380, 361.849
1390.574, 445.263
1391.768, 349.348
1392.962, 642.861
1394.156, 257.596
1395.350, 261.171
1396.543, 602.685
1397.736, 112.371
1398.929, 562.045
1400.122, 446.737
1401.315, 513.494
1402.507, 355.749
1403.700, 526.287
1404.892, 478.504
1406.084, 423.285
1407.276, 150.788
1408.467, 316.930
1409.659, 16.529
1410.850, 221.443
1412.041, 258.401
1413.232, 8.765
1414.423, 451.369
1415.614, 104.555
1416.804, 307.304
1417.994, 407.498
1419.184, 232.776
1420.374, 9.807
1421.564, 431.596
1422.753, 188.136
1423.943, 111.072
1425.132, 57.769
1426.321, 330.458
1427.510, 346.880
1428.698, 251.250
1429.887, 94.453
1431.075, 278.536
1432.263, 256.276
1433.451, 90.879
1434.639, 291.223
1435.827, 182.304
1437.014, 37.101
1438.201, 522.268
1439.388, 704.222
1440.575, 137.143
1441.762, 342.030
1442.949, 435.187
1444.135, 303.056
1445.321, 129.245
1446.507, 290.460
1447.693, 221.295
1448.879, 367.678
1450.064, 168.808
1451.250, 441.006
1452.435, 34.419
1453.620, 443.650
1454.805, 115.235
1455.989, 119.060
1457.174, 548.215
1458.358, 40.781
1459.542, 440.842
1460.726, 279.522
1461.910, 22.948
1463.093, 581.256
1464.277, 180.434
1465.460, 214.367
1466.643, 403.129
1467.826, 90.483
1469.009, 551.999
1470.191, 77.416
1471.373, 285.835
1472.556, 360.315
1473.738, 338.794
1474.919, 48.170
1476.101, 454.561
1477.283, 300.445
1478.464, 3.390
1479.645, 222.655
1480.826, 287.785
1482.007, 0.000
##END=



