##NAMES=Bertrandite
##RRUFFID=R060800
##IDEAL CHEMISTRY=Be_4_Si_2_O_7_(OH)_2_
##LOCALITY=Golconda mine, Governador Valadares, Minas Gerais, Brazil
##OWNER=RRUFF
##SOURCE=Bob Jenkins
##DESCRIPTION=Colorless pseudohexagonal prisms
##STATUS=The identification of this mineral is confirmed by single-crystal X-ray diffraction and chemical analysis.
##URL=rruff.info/R060800
##MEASURED CHEMISTRY=Be_4.00_Si_2.00_O_7_(OH)_2_
##PIN_ID=M00212
##ORIENTATION=Laser parallel to c* (0 0 1). Fiducial mark perpendicular to laser is parallel to a [1 0 0]
123.0580, 0.0000000E+00
124.2880, 127.6895
125.5190, 201.0020
126.7490, 13.54297
127.9790, 214.2031
129.2090, 379.3262
130.4390, 27.49219
131.6680, 105.7461
132.8980, 334.3848
134.1270, 143.8789
135.3560, 105.8086
136.5850, 38.84766
137.8140, 237.7266
139.0430, 81.23828
140.2710, 295.2012
141.5000, 309.4688
142.7280, 285.9102
143.9560, 409.4102
145.1840, 419.8730
146.4120, 237.2109
147.6390, 463.3535
148.8670, 252.2363
150.0940, 302.8066
151.3210, 392.0156
152.5490, 207.8223
153.7750, 261.1895
155.0020, 336.0781
156.2290, 279.4668
157.4550, 371.3164
158.6810, 319.8242
159.9080, 212.3047
161.1340, 270.3848
162.3590, 147.8066
163.5850, 180.5449
164.8110, 87.58984
166.0360, 388.9238
167.2610, 269.5332
168.4860, 449.4160
169.7110, 389.5566
170.9360, 468.9453
172.1610, 614.5723
173.3850, 619.4258
174.6100, 539.4980
175.8340, 672.7852
177.0580, 1092.285
178.2820, 1225.998
179.5050, 2141.916
180.7290, 2985.025
181.9520, 4328.322
183.1760, 5337.797
184.3990, 4866.438
185.6220, 3323.240
186.8450, 2057.219
188.0670, 1587.348
189.2900, 1402.623
190.5120, 1036.041
191.7340, 1182.598
192.9560, 1519.283
194.1780, 1690.092
195.4000, 2446.023
196.6220, 3170.043
197.8430, 3929.041
199.0640, 5199.996
200.2860, 6429.953
201.5070, 8178.932
202.7270, 11391.93
203.9480, 15014.15
205.1690, 17743.46
206.3890, 18346.83
207.6090, 14961.27
208.8290, 9403.785
210.0490, 5523.402
211.2690, 3384.234
212.4890, 2409.176
213.7080, 1351.217
214.9280, 1325.309
216.1470, 912.4492
217.3660, 1131.635
218.5850, 1032.889
219.8030, 1044.242
221.0220, 1541.664
222.2400, 1778.154
223.4590, 2386.693
224.6770, 3821.275
225.8950, 5225.033
227.1120, 7536.932
228.3300, 7848.928
229.5480, 6852.055
230.7650, 4891.246
231.9820, 3464.652
233.1990, 2822.127
234.4160, 2429.633
235.6330, 2652.166
236.8490, 3400.727
238.0660, 4389.314
239.2820, 4891.932
240.4980, 5430.580
241.7140, 4838.254
242.9300, 3741.953
244.1460, 2808.680
245.3610, 1980.445
246.5770, 1569.270
247.7920, 1159.125
249.0070, 766.7305
250.2220, 686.6582
251.4370, 601.6289
252.6510, 678.6660
253.8660, 512.7539
255.0800, 350.8613
256.2940, 375.9961
257.5080, 400.1465
258.7220, 277.3164
259.9360, 545.5078
261.1490, 313.7148
262.3630, 354.9434
263.5760, 437.1895
264.7890, 385.6035
266.0020, 294.8809
267.2150, 294.1738
268.4270, 386.4863
269.6400, 256.5859
270.8520, 89.47070
272.0640, 241.0742
273.2760, 246.1816
274.4880, 357.3477
275.7000, 244.7344
276.9120, 174.3223
278.1230, 238.1191
279.3340, 165.0762
280.5450, 161.1914
281.7560, 254.4414
282.9670, 268.8438
284.1780, 183.3418
285.3880, 94.47656
286.5980, 191.1914
287.8090, 24.00391
289.0190, 435.0645
290.2290, 254.0566
291.4380, 336.2422
292.6480, 669.3945
293.8570, 649.6230
295.0670, 763.2188
296.2760, 1178.584
297.4850, 1550.318
298.6930, 2016.266
299.9020, 2244.816
301.1110, 1888.916
302.3190, 1327.574
303.5270, 815.2871
304.7350, 572.0781
305.9430, 325.8848
307.1510, 585.7383
308.3580, 466.6328
309.5660, 423.5703
310.7730, 366.5469
311.9800, 282.2422
313.1870, 199.6094
314.3940, 177.3770
315.6010, 203.5020
316.8070, 226.6621
318.0130, 111.0020
319.2200, 186.2266
320.4260, 253.4805
321.6310, 234.7656
322.8370, 470.0762
324.0430, 345.4160
325.2480, 590.7812
326.4540, 489.4316
327.6590, 821.4531
328.8640, 1140.229
330.0680, 1107.686
331.2730, 854.1660
332.4780, 422.2109
333.6820, 369.7305
334.8860, 288.7754
336.0900, 383.3262
337.2940, 323.8984
338.4980, 179.8652
339.7010, 192.5762
340.9050, 216.1875
342.1080, 497.8164
343.3110, 147.4531
344.5140, 660.1074
345.7170, 583.7715
346.9200, 666.4492
348.1220, 911.1426
349.3240, 860.2871
350.5270, 967.5645
351.7290, 955.2910
352.9310, 1041.031
354.1320, 1101.777
355.3340, 1894.537
356.5350, 2888.305
357.7370, 3248.078
358.9380, 3056.859
360.1390, 2513.650
361.3400, 1434.445
362.5400, 1146.246
363.7410, 886.0566
364.9410, 883.1270
366.1410, 564.9453
367.3410, 379.4199
368.5410, 375.4297
369.7410, 420.6074
370.9400, 176.4414
372.1400, 425.8730
373.3390, 35.27539
374.5380, 314.3145
375.7370, 126.1543
376.9360, 79.03516
378.1350, 521.3633
379.3330, 206.2090
380.5310, 242.8594
381.7300, 238.7168
382.9280, 533.3008
384.1260, 620.1660
385.3230, 628.0293
386.5210, 520.9219
387.7180, 747.9102
388.9160, 522.9316
390.1130, 501.9531
391.3100, 580.9727
392.5060, 449.9883
393.7030, 457.9980
394.9000, 229.0020
396.0960, 269.0000
397.2920, 303.9941
398.4880, 391.9824
399.6840, 211.9629
400.8800, 42.93945
402.0750, 264.9082
403.2710, 63.87500
404.4660, 7.167969
405.6610, 133.7793
406.8560, 289.7227
408.0510, 282.6602
409.2450, 245.5859
410.4400, 270.9219
411.6340, 209.2793
412.8280, 212.4297
414.0220, 156.3418
415.2160, 184.3945
416.4100, 249.1934
417.6030, 300.2930
418.7970, 193.2598
419.9900, 346.2207
421.1830, 276.7422
422.3760, 153.7090
423.5690, 140.4883
424.7610, 391.4570
425.9540, 188.5742
427.1460, 125.3008
428.3380, 66.82812
429.5300, 132.0117
430.7220, 178.8477
431.9140, 23.31836
433.1050, 117.5000
434.2970, 54.68555
435.4880, 104.0938
436.6790, 238.8691
437.8700, 54.35742
439.0610, 9.376953
440.2510, 163.8945
441.4420, 21.26367
442.6320, 163.3457
443.8220, 116.0527
445.0120, 186.4785
446.2020, 155.0000
447.3910, 12.51367
448.5810, 246.0156
449.7700, 355.5117
450.9600, 269.9980
452.1490, 261.4727
453.3370, 76.93945
454.5260, 3.603516
455.7150, 193.8301
456.9030, 44.74219
458.0910, 75.64062
459.2800, 51.08203
460.4670, 33.55859
461.6550, 67.19727
462.8430, 232.5078
464.0300, 266.8047
465.2180, 165.0918
466.4050, 71.36523
467.5920, 117.8438
468.7790, 92.90625
469.9650, 65.73438
471.1520, 60.62891
472.3380, 102.4180
473.5250, 110.4512
474.7110, 125.3672
475.8970, 241.5547
477.0820, 59.53711
478.2680, 219.3066
479.4540, 143.1387
480.6390, 151.0469
481.8240, 82.33984
483.0090, 112.2852
484.1940, 178.8965
485.3780, 133.4941
486.5630, 478.0742
487.7470, 269.6406
488.9320, 300.1914
490.1160, 434.7793
491.3000, 520.2988
492.4830, 534.1250
493.6670, 773.6680
494.8500, 1128.141
496.0340, 957.5957
497.2170, 1183.037
498.4000, 970.4590
499.5820, 1019.869
500.7650, 819.2578
501.9480, 592.6328
503.1300, 485.9902
504.3120, 440.3301
505.4940, 296.6543
506.6760, 26.96094
507.8580, 145.2363
509.0390, 1.496094
510.2210, 87.71289
511.4020, 61.92773
512.5830, 190.1191
513.7640, 4.298828
514.9450, 134.4355
516.1250, 46.94727
517.3060, 235.3711
518.4860, 130.4492
519.6660, 8.146484
520.8460, 159.3672
522.0260, 43.44141
523.2060, 185.1387
524.3850, 56.61719
525.5650, 336.5898
526.7440, 320.9414
527.9230, 328.0117
529.1020, 329.0801
530.2810, 266.7598
531.4590, 666.5664
532.6380, 437.2168
533.8160, 1131.982
534.9940, 989.7285
536.1720, 1182.453
537.3500, 1287.156
538.5270, 1237.844
539.7050, 1357.506
540.8820, 1168.152
542.0590, 1020.775
543.2360, 808.3750
544.4130, 606.3242
545.5900, 337.5156
546.7660, 257.9062
547.9430, 233.4219
549.1190, 267.9219
550.2950, 250.3984
551.4710, 125.8555
552.6470, 123.2891
553.8220, 159.7070
554.9980, 297.0977
556.1730, 250.4766
557.3480, 305.8281
558.5230, 29.16016
559.6980, 219.4414
560.8730, 334.7031
562.0470, 28.06250
563.2220, 244.0977
564.3960, 104.2344
565.5700, 231.3398
566.7440, 420.4297
567.9170, 266.4688
569.0910, 320.5117
570.2640, 386.0039
571.4380, 523.0039
572.6110, 905.9844
573.7840, 1070.781
574.9570, 1165.715
576.1290, 1435.516
577.3020, 1570.406
578.4740, 1754.273
579.6460, 1426.832
580.8180, 1044.660
581.9900, 848.1602
583.1620, 636.3203
584.3330, 531.2578
585.5040, 400.5078
586.6760, 404.2344
587.8470, 392.9375
589.0180, 358.5898
590.1880, 241.2539
591.3590, 408.8945
592.5290, 207.5195
593.7000, 317.1250
594.8700, 298.7227
596.0400, 458.4297
597.2090, 390.3438
598.3790, 366.2109
599.5490, 186.9609
600.7180, 216.4648
601.8870, 103.0664
603.0560, 271.5273
604.2250, 237.9648
605.3940, 368.3867
606.5620, 212.7930
607.7300, 151.1797
608.8990, 472.5430
610.0670, 228.6328
611.2350, 358.3516
612.4020, 329.3242
613.5700, 251.6133
614.7370, 150.8867
615.9050, 490.5898
617.0720, 650.8242
618.2390, 520.5352
619.4060, 457.7305
620.5720, 750.9102
621.7390, 421.6914
622.9050, 669.7422
624.0710, 562.8867
625.2370, 464.0195
626.4030, 328.1562
627.5690, 547.2773
628.7340, 304.3828
629.9000, 149.4727
631.0650, 263.5586
632.2300, 85.63281
633.3950, 149.6836
634.5600, 244.7227
635.7240, 503.7422
636.8890, 367.7422
638.0530, 419.7305
639.2170, 345.7070
640.3810, 259.6602
641.5450, 447.6016
642.7080, 328.5352
643.8720, 373.4453
645.0350, 454.3398
646.1980, 608.2188
647.3610, 481.8281
648.5240, 499.7227
649.6870, 393.9570
650.8490, 468.0781
652.0120, 289.6914
653.1740, 360.0273
654.3360, 282.3594
655.4980, 277.4062
656.6600, 84.96094
657.8210, 175.8477
658.9830, 80.98438
660.1440, 3.042969
661.3050, 8.128906
662.4660, 30.87500
663.6270, 16.32812
664.7870, 134.7266
665.9480, 46.48438
667.1080, 90.77344
668.2680, 346.1133
669.4280, 115.5547
670.5880, 221.8047
671.7480, 20.15234
672.9070, 185.4766
674.0670, 377.7852
675.2260, 282.0820
676.3850, 526.3633
677.5440, 428.1406
678.7030, 374.3945
679.8610, 465.6328
681.0200, 551.8633
682.1780, 453.0742
683.3360, 761.2734
684.4940, 849.4570
685.6520, 1044.625
686.8090, 1507.785
687.9670, 1370.930
689.1240, 1722.469
690.2810, 2230.684
691.4380, 2573.734
692.5950, 2270.289
693.7520, 2473.129
694.9080, 2543.617
696.0650, 2393.672
697.2210, 2416.715
698.3770, 2076.590
699.5330, 2182.586
700.6880, 2092.586
701.8440, 2192.016
702.9990, 2182.027
704.1550, 1915.176
705.3100, 1641.133
706.4650, 1801.070
707.6190, 1529.051
708.7740, 1666.016
709.9290, 1576.984
711.0830, 1652.941
712.2370, 1672.887
713.3910, 1482.820
714.5450, 1433.750
715.6980, 1381.680
716.8520, 1037.598
718.0050, 890.5078
719.1580, 1038.418
720.3110, 1096.312
721.4640, 914.2461
722.6170, 1202.176
723.7700, 1264.090
724.9220, 1176.031
726.0740, 1456.957
727.2260, 1336.871
728.3780, 1108.777
729.5300, 706.6719
730.6810, 668.5547
731.8330, 523.6250
732.9840, 694.0117
734.1350, 109.8594
735.2860, 53.15234
736.4370, 312.1328
737.5880, 80.99609
738.7380, 320.7812
739.8880, 71.62109
741.0390, 320.6289
742.1890, 291.4570
743.3380, 480.2773
744.4880, 483.7617
745.6380, 449.9219
746.7870, 415.7734
747.9360, 499.5508
749.0850, 772.3516
750.2340, 965.1680
751.3830, 1180.000
752.5310, 1064.816
753.6800, 1251.465
754.8280, 1096.316
755.9760, 1449.145
757.1240, 1199.992
758.2720, 1276.824
759.4190, 1640.652
760.5670, 1357.648
761.7140, 1495.863
762.8610, 1753.168
764.0080, 1257.090
765.1550, 1492.945
766.3020, 1654.793
767.4480, 1432.625
768.5950, 1488.012
769.7410, 1393.824
770.8870, 1239.309
772.0330, 1215.047
773.1780, 1032.832
774.3240, 718.6367
775.4690, 972.4727
776.6140, 453.2578
777.7590, 579.5391
778.9040, 295.5586
780.0490, 507.3359
781.1940, 337.1211
782.3380, 339.9023
783.4820, 315.6797
784.6260, 320.6719
785.7700, 242.7109
786.9140, 258.7891
788.0580, 33.01172
789.2010, 227.4570
790.3450, 78.16797
791.4880, 282.3359
792.6310, 137.3750
793.7730, 75.05469
794.9160, 328.7617
796.0590, 310.7031
797.2010, 299.0039
798.3430, 379.2812
799.4850, 266.9531
800.6270, 278.2422
801.7690, 534.8086
802.9100, 209.3477
804.0520, 224.4844
805.1930, 220.8672
806.3340, 50.76953
807.4750, 364.9258
808.6160, 371.4648
809.7560, 175.1250
810.8970, 296.6523
812.0370, 279.1641
813.1770, 336.6680
814.3170, 17.16016
815.4570, 306.6406
816.5960, 235.1055
817.7360, 550.5625
818.8750, 489.8516
820.0140, 316.4531
821.1530, 403.8828
822.2920, 360.3047
823.4310, 288.7148
824.5690, 364.1172
825.7070, 38.58984
826.8460, 114.9727
827.9840, 50.64453
829.1220, 19.92969
830.2590, 298.7461
831.3970, 35.53125
832.5340, 176.8438
833.6710, 368.1445
834.8080, 404.4375
835.9450, 314.7305
837.0820, 147.0195
838.2190, 295.2969
839.3550, 128.5938
840.4910, 185.8828
841.6270, 256.1641
842.7630, 239.3828
843.8990, 301.4688
845.0350, 375.9531
846.1700, 393.1953
847.3060, 522.4297
848.4410, 630.6523
849.5760, 734.8672
850.7100, 704.0742
851.8450, 723.2656
852.9800, 608.4531
854.1140, 358.6250
855.2480, 413.7930
856.3820, 459.9492
857.5160, 646.0977
858.6500, 435.2344
859.7830, 593.3633
860.9170, 603.4766
862.0500, 482.5859
863.1830, 534.6836
864.3160, 371.7695
865.4480, 274.8477
866.5810, 655.9180
867.7130, 85.98047
868.8460, 45.97656
869.9780, 258.0273
871.1100, 25.90625
872.2410, 111.6758
873.3730, 346.6484
874.5050, 456.4414
875.6360, 372.4531
876.7670, 7.187500
877.8980, 260.1797
879.0290, 408.1562
880.1590, 3.128906
881.2900, 53.48047
882.4200, 72.41797
883.5500, 165.3477
884.6800, 169.2695
885.8100, 257.1836
886.9400, 175.0859
888.0690, 275.9844
889.1990, 257.8672
890.3280, 135.7422
891.4570, 462.6133
892.5860, 369.4688
893.7140, 194.6484
894.8430, 174.8125
895.9710, 36.35547
897.1000, 60.43359
898.2280, 35.75000
899.3560, 67.01172
900.4830, 175.7070
901.6110, 341.6289
902.7380, 510.3242
903.8660, 43.98828
904.9930, 256.6641
906.1200, 184.2969
907.2460, 172.9297
908.3730, 194.5469
909.5000, 253.5898
910.6260, 132.1914
911.7520, 158.3516
912.8780, 32.33984
914.0040, 92.90625
915.1290, 292.4609
916.2550, 262.6523
917.3800, 275.3164
918.5050, 287.7930
919.6300, 97.62500
920.7550, 157.5859
921.8800, 73.80859
923.0040, 160.5039
924.1290, 182.6172
925.2530, 170.5352
926.3770, 33.32031
927.5010, 64.63281
928.6250, 338.6016
929.7480, 58.29688
930.8720, 77.51562
931.9950, 178.5898
933.1180, 1.742188
934.2410, 89.79297
935.3640, 59.15625
936.4860, 26.16016
937.6090, 295.8164
938.7310, 283.7812
939.8530, 197.7344
940.9750, 376.7109
942.0970, 139.6641
943.2180, 155.7578
944.3400, 342.8398
945.4610, 419.9180
946.5820, 514.9453
947.7030, 513.0352
948.8240, 600.0820
949.9450, 521.6758
951.0650, 520.7930
952.1860, 447.6484
953.3060, 454.6562
954.4260, 386.6523
955.5460, 395.6367
956.6650, 370.6094
957.7850, 298.5781
958.9040, 336.5352
960.0230, 113.4844
961.1420, 329.0078
962.2610, 58.84375
963.3800, 32.39453
964.4990, 264.3828
965.6170, 19.27734
966.7350, 408.7305
967.8530, 325.5977
968.9710, 180.4570
970.0890, 182.3047
971.2070, 180.1445
972.3240, 162.9766
973.4410, 199.7969
974.5580, 389.5742
975.6750, 325.3828
976.7920, 507.1758
977.9090, 814.9609
979.0250, 870.7383
980.1410, 959.5078
981.2580, 1168.266
982.3740, 1814.016
983.4890, 2057.754
984.6050, 2241.480
985.7200, 2460.199
986.8360, 2384.910
987.9510, 2428.613
989.0660, 1983.305
990.1810, 1999.992
991.2950, 1586.664
992.4100, 1396.332
993.5240, 1456.988
994.6390, 1066.637
995.7530, 738.2969
996.8660, 1014.945
997.9800, 1055.590
999.0940, 745.2188
1000.207, 623.8438
1001.320, 577.5938
1002.433, 382.9961
1003.546, 331.0703
1004.659, 466.6602
1005.772, 105.9023
1006.884, 225.4922
1007.996, 439.4492
1009.108, 162.9453
1010.220, 492.4375
1011.332, 333.4023
1012.444, 152.9922
1013.555, 298.5703
1014.666, 27.52734
1015.777, 319.8984
1016.888, 325.3359
1017.999, 146.1289
1019.110, 199.9102
1020.220, 367.6016
1021.331, 234.2852
1022.441, 482.9570
1023.551, 525.9062
1024.661, 119.5547
1025.770, 303.2031
1026.880, 39.84766
1027.989, 41.48828
1029.098, 119.1133
1030.207, 499.6602
1031.316, 161.3984
1032.425, 216.5703
1033.533, 137.1055
1034.642, 61.69531
1035.750, 180.2734
1036.858, 257.8438
1037.966, 347.2031
1039.073, 263.7617
1040.181, 185.3086
1041.288, 225.6484
1042.396, 110.6055
1043.503, 174.8633
1044.610, 56.27344
1045.716, 84.27344
1046.823, 202.6367
1047.929, 204.7930
1049.036, 66.82422
1050.142, 75.50781
1051.248, 24.16797
1052.353, 28.13281
1053.459, 35.55859
1054.564, 124.1172
1055.670, 22.06250
1056.775, 91.89062
1057.880, 92.59766
1058.985, 63.87500
1060.089, 28.66797
1061.194, 161.5898
1062.298, 484.8516
1063.402, 41.74609
1064.506, 202.7109
1065.610, 22.03125
1066.713, 467.0742
1067.817, 458.0742
1068.920, 348.3711
1070.023, 274.7539
1071.126, 159.9727
1072.229, 536.1953
1073.332, 500.4102
1074.435, 631.6250
1075.537, 436.8555
1076.639, 433.0781
1077.741, 399.2930
1078.843, 386.5117
1079.945, 380.4961
1081.046, 279.9336
1082.148, 351.1406
1083.249, 471.3477
1084.350, 424.5508
1085.451, 517.7461
1086.551, 467.9414
1087.652, 514.1523
1088.752, 503.3359
1089.853, 356.5273
1090.953, 488.7031
1092.053, 567.8828
1093.152, 523.9766
1094.252, 239.1562
1095.351, 328.0234
1096.451, 198.7812
1097.550, 314.9570
1098.649, 326.6758
1099.748, 189.8477
1100.846, 553.0195
1101.945, 292.1875
1103.043, 322.3516
1104.141, 309.5117
1105.239, 270.6719
1106.337, 128.8281
1107.434, 257.9844
1108.532, 209.1406
1109.629, 120.2852
1110.726, 210.4375
1111.823, 219.5039
1112.920, 273.5898
1114.017, 361.8750
1115.113, 373.0117
1116.210, 425.1484
1117.306, 346.2852
1118.402, 358.1680
1119.498, 386.4805
1120.593, 270.6836
1121.689, 376.8086
1122.784, 276.9375
1123.879, 104.0625
1124.974, 527.1875
1126.069, 433.3125
1127.164, 178.0156
1128.259, 366.1406
1129.353, 120.2617
1130.447, 220.3789
1131.541, 80.50000
1132.635, 25.61719
1133.729, 163.7305
1134.822, 182.8477
1135.916, 267.9766
1137.009, 30.89453
1138.102, 189.0859
1139.195, 233.7930
1140.288, 212.4531
1141.380, 400.5039
1142.473, 201.5938
1143.565, 438.6367
1144.657, 204.9609
1145.749, 188.7852
1146.841, 103.8203
1147.932, 152.1211
1149.024, 89.11719
1150.115, 89.10156
1151.206, 130.1367
1152.297, 112.1641
1153.388, 249.1875
1154.479, 41.48047
1155.569, 219.5000
1156.659, 376.5078
1157.750, 374.4219
1158.839, 229.0898
1159.929, 335.7617
1161.019, 94.79688
1162.108, 13.15234
1163.198, 222.8828
1164.287, 369.9102
1165.376, 195.9648
1166.465, 337.8008
1167.553, 484.8438
1168.642, 12.88672
1169.730, 572.9375
1170.818, 659.9844
1171.906, 232.0312
1172.994, 720.0781
1174.082, 259.6836
1175.170, 201.7305
1176.257, 422.5508
1177.344, 421.8242
1178.431, 425.5391
1179.518, 360.8984
1180.605, 466.2852
1181.691, 352.1914
1182.778, 507.2656
1183.864, 321.9688
1184.950, 9.289063
1186.036, 587.7773
1187.122, 243.5430
1188.207, 52.66016
1189.292, 147.8281
1190.378, 101.9609
1191.463, 182.9414
1192.548, 294.1133
1193.632, 266.2852
1194.717, 159.3281
1195.801, 278.5000
1196.886, 377.5781
1197.970, 327.7500
1199.054, 488.9258
1200.137, 260.1211
1201.221, 335.3281
1202.305, 289.5352
1203.388, 149.7383
1204.471, 256.9414
1205.554, 269.1484
1206.637, 463.3477
1207.719, 411.5508
1208.802, 473.7539
1209.884, 588.9531
1210.966, 155.1523
1212.048, 615.3516
1213.130, 387.5469
1214.212, 153.7461
1215.293, 494.9453
1216.374, 154.1367
1217.456, 100.3320
1218.536, 441.5234
1219.617, 567.7188
1220.698, 659.3984
1221.778, 403.1055
1222.859, 750.2930
1223.939, 539.4844
1225.019, 271.6758
1226.099, 426.8672
1227.178, 325.0586
1228.258, 246.2539
1229.337, 117.4492
1230.417, 140.6406
1231.496, 147.8359
1232.574, 367.0312
1233.653, 307.2266
1234.732, 570.4180
1235.810, 447.6172
1236.888, 411.8125
1237.966, 757.0078
1239.044, 570.2031
1240.122, 407.4023
1241.199, 333.5977
1242.277, 291.6328
1243.354, 459.9883
1244.431, 258.1797
1245.508, 696.3750
1246.585, 582.5664
1247.661, 134.7656
1248.738, 433.0156
1249.814, 748.2812
1250.890, 463.5430
1251.966, 727.8281
1253.042, 416.1172
1254.117, 577.4023
1255.193, 464.6875
1256.268, 49.01953
1257.343, 552.2383
1258.418, 380.4922
1259.493, 129.7500
1260.567, 409.0039
1261.642, 455.2656
1262.716, 450.3867
1263.790, 751.6445
1264.864, 953.8984
1265.938, 461.1562
1267.011, 564.1016
1268.085, 358.3906
1269.158, 63.23047
1270.231, 109.5234
1271.304, 300.1875
1272.377, 124.0586
1273.450, 47.00000
1274.522, 215.9375
1275.594, 336.9922
1276.666, 32.24609
1277.738, 305.4961
1278.810, 413.4570
1279.882, 278.4648
1280.953, 382.2070
1282.025, 432.9609
1283.096, 71.71094
1284.167, 428.1719
1285.238, 416.9219
1286.308, 3.332031
1287.379, 713.4102
1288.449, 489.1523
1289.519, 677.9492
1290.589, 809.6367
1291.659, 861.2070
1292.729, 674.9961
1293.798, 854.7422
1294.868, 835.4883
1295.937, 479.2305
1297.006, 586.9766
1298.075, 508.3086
1299.143, 386.0938
1300.212, 490.3008
1301.280, 835.0859
1302.348, 696.8672
1303.416, 857.0039
1304.484, 1200.812
1305.552, 708.6211
1306.620, 702.6484
1307.687, 791.4766
1308.754, 533.3008
1309.821, 624.1445
1310.888, 908.9883
1311.955, 737.8320
1313.021, 726.6836
1314.088, 705.6172
1315.154, 873.4609
1316.220, 980.3047
1317.286, 1096.961
1318.352, 892.7969
1319.417, 1135.625
1320.483, 724.4453
1321.548, 455.2539
1322.613, 664.0547
1323.678, 701.8281
1324.743, 706.6094
1325.807, 557.3945
1326.872, 683.1797
1327.936, 794.9688
1329.000, 941.7578
1330.064, 844.5469
1331.128, 807.3359
1332.191, 712.1250
1333.255, 783.9102
1334.318, 746.6992
1335.381, 575.4883
1336.444, 691.2773
1337.507, 470.0664
1338.569, 753.8594
1339.632, 949.6523
1340.694, 289.4453
1341.756, 621.2422
1342.818, 670.0352
1343.880, 778.8359
1344.941, 609.6289
1346.003, 846.4062
1347.064, 975.2031
1348.125, 468.0000
1349.186, 686.7969
1350.247, 507.5977
1351.308, 706.3906
1352.368, 776.1914
1353.428, 539.9922
1354.489, 506.7930
1355.549, 645.5938
1356.608, 941.3906
1357.668, 541.1875
1358.727, 944.7383
1359.787, 740.5352
1360.846, 387.3320
1361.905, 896.1289
1362.964, 766.4141
1364.022, 564.2148
1365.081, 682.6055
1366.139, 570.3398
1367.197, 628.0820
1368.255, 649.8281
1369.313, 751.5742
1370.371, 730.7695
1371.428, 736.4961
1372.486, 703.8516
1373.543, 656.5430
1374.600, 619.5234
1375.657, 526.6680
1376.713, 512.0898
1377.770, 403.3086
1378.826, 434.0312
1379.882, 438.7227
1380.938, 373.4141
1381.994, 707.1055
1383.050, 666.6055
1384.106, 665.9531
1385.161, 790.6523
1386.216, 738.7500
1387.271, 755.8086
1388.326, 721.5195
1389.381, 695.2266
1390.435, 467.9414
1391.490, 616.6523
1392.544, 370.3711
1393.598, 333.0938
1394.652, 539.8242
1395.705, 305.5039
1396.759, 575.0547
1397.812, 639.1836
1398.866, 828.0938
1399.919, 216.2969
1400.972, 325.4375
1402.024, 361.4258
1403.077, 244.5430
1404.129, 314.0664
1405.181, 107.8906
1406.233, 157.2852
1407.285, 246.5039
1408.337, 180.2930
1409.389, 488.0820
1410.440, 325.8789
1411.491, 425.6914
1412.542, 449.1445
1413.593, 351.3477
1414.644, 581.3867
1415.695, 133.8750
1416.745, 339.6484
1417.795, 125.0859
1418.845, 181.5078
1419.895, 238.9336
1420.945, 427.3477
1421.995, 584.7656
1423.044, 678.3477
1424.093, 580.7266
1425.142, 536.1406
1426.191, 709.4766
1427.240, 102.7812
1428.289, 533.0625
1429.337, 130.3281
1430.385, 494.5703
1431.433, 335.7734
1432.481, 164.9297
1433.529, 701.0273
1434.577, 486.1133
1435.624, 692.3281
1436.672, 1022.375
1437.719, 697.0000
1438.766, 420.5664
1439.812, 697.3438
1440.859, 870.1562
1441.905, 467.8789
1442.952, 633.3516
1443.998, 773.5039
1445.044, 707.7734
1446.090, 704.4570
1447.135, 843.5000
1448.181, 803.5195
1449.226, 838.1758
1450.271, 886.7578
1451.316, 863.7500
1452.361, 947.7383
1453.405, 984.7344
1454.450, 694.7344
1455.494, 696.7305
1456.538, 610.0820
1457.582, 499.7305
1458.626, 561.7383
1459.670, 590.9570
1460.713, 735.7461
1461.757, 678.7500
1462.800, 760.7539
1463.843, 794.7656
1464.886, 490.7773
1465.928, 452.7891
1466.971, 552.8008
1468.013, 483.8047
1469.055, 479.8125
1470.097, 559.8164
1471.139, 316.8125
1472.181, 397.8164
1473.222, 520.8164
1474.263, 309.8164
1475.305, 571.7422
1476.346, 680.5703
1477.386, 701.3281
1478.427, 625.0742
1479.468, 644.8359
1480.508, 636.6133
1481.548, 344.3789
1482.588, 632.1406
1483.628, 91.90625
1484.668, 397.6641
1485.707, 287.3984
1486.747, 328.2500
1487.786, 153.3008
1488.825, 496.6562
1489.864, 132.7422
1490.902, 295.7188
1491.941, 604.0586
1492.979, 572.4141
1494.017, 475.7773
1495.055, 376.8203
1496.093, 380.7930
1497.131, 208.0039
1498.168, 312.8828
1499.206, 35.09375
1500.243, 167.8086
1501.280, 1.449219
1502.317, 134.0820
1503.354, 58.15234
1504.390, 418.9766
1505.426, 586.1289
1506.463, 361.3164
1507.499, 100.5312
1508.535, 225.7656
1509.570, 388.0430
1510.606, 189.3750
1511.641, 201.8398
1512.676, 567.3516
1513.711, 405.8750
1514.746, 588.4102
1515.781, 451.9453
1516.816, 336.4961
1517.850, 332.0508
1518.884, 584.6211
1519.918, 108.1992
1520.952, 431.7891
1521.986, 217.3867
1523.019, 265.9961
1524.053, 207.6172
1525.086, 160.3125
1526.119, 385.9141
1527.152, 150.6016
1528.185, 422.3086
1529.217, 466.9414
1530.250, 504.6562
1531.282, 608.9531
1532.314, 645.0703
1533.346, 474.1445
1534.377, 276.4258
1535.409, 452.2383
1536.440, 190.4531
1537.472, 183.0508
1538.503, 161.9961
1539.534, 235.2812
1540.564, 86.42188
1541.595, 313.5117
1542.625, 487.2852
1543.656, 582.8789
1544.686, 414.2969
1545.716, 474.5195
1546.745, 261.0938
1547.775, 631.7852
1548.804, 88.26562
1549.834, 313.9531
1550.863, 458.0391
1551.892, 113.5430
1552.920, 494.5703
1553.949, 637.2031
1554.977, 519.2969
1556.006, 348.9570
1557.034, 750.9648
1558.062, 622.3867
1559.089, 284.3555
1560.117, 499.0977
1561.144, 419.1641
1562.172, 246.5000
1563.199, 159.2617
1564.226, 16.73438
1565.252, 116.6953
1566.279, 8.742188
1567.305, 172.3320
1568.332, 106.8594
1569.358, 1.335938
1570.384, 137.1367
1571.409, 92.93359
1572.435, 0.0000000E+00
##END=



