##NAMES=Beryl
##RRUFFID=R050121
##IDEAL CHEMISTRY=Be_3_Al_2_Si_6_O_18_
##LOCALITY=Cruziero mine, San Jose, Minas Gerais, Brazil
##OWNER=RRUFF
##SOURCE=Carlos and Paulo Vasconcelos
##DESCRIPTION=Light blue fragment, variety aquamarine
##STATUS=The identification of this mineral has been confirmed by X-ray diffraction and chemical analysis
##URL=rruff.info/R050121
##MEASURED CHEMISTRY=(Be_0.96_Li_0.04_)_3_Al_2.00_Si_6.00_O_18_Î‡Na_0.09_Mg_0.03_
##PIN_ID=L00353
##ORIENTATION=Laser parallel to a* (1 0 0). Fiducial mark perpendicular to laser is parallel to c [0 0 1]
98.947, 0.000
100.340, 1.399
101.732, 60.262
103.124, 1.605
104.516, 172.121
105.908, 292.789
107.300, 133.412
108.691, 361.427
110.082, 213.297
111.473, 369.583
112.864, 515.967
114.254, 934.477
115.644, 1649.224
117.034, 1435.706
118.424, 2703.158
119.813, 1293.891
121.203, 595.948
122.592, 571.243
123.981, 597.716
125.369, 415.363
126.758, 453.146
128.146, 301.333
129.534, 297.579
130.922, 339.062
132.309, 358.501
133.696, 322.565
135.083, 506.309
136.470, 369.771
137.857, 564.994
139.243, 418.007
140.630, 407.836
142.016, 187.502
143.401, 346.024
144.787, 217.417
146.172, 232.699
147.557, 192.882
148.942, 223.979
150.327, 161.001
151.711, 140.104
153.096, 247.981
154.480, 152.817
155.863, 299.816
157.247, 297.739
158.630, 107.441
160.013, 253.823
161.396, 386.335
162.779, 287.131
164.161, 187.758
165.544, 215.673
166.926, 241.663
168.308, 202.720
169.689, 167.834
171.070, 294.999
172.452, 147.211
173.833, 103.475
175.213, 306.789
176.594, 97.151
177.974, 169.554
179.354, 195.995
180.734, 97.472
182.114, 115.976
183.493, 101.873
184.872, 156.035
186.251, 98.609
187.630, 116.214
189.008, 116.854
190.387, 253.527
191.765, 80.231
193.143, 161.969
194.520, 65.737
195.898, 35.534
197.275, 72.364
198.652, 160.223
200.029, 67.158
201.405, 41.161
202.782, 7.805
204.158, 85.253
205.534, 183.332
206.909, 133.866
208.285, 10.688
209.660, 111.922
211.035, 36.835
212.410, 27.568
213.784, 155.282
215.159, 41.952
216.533, 13.543
217.907, 16.992
219.281, 124.312
220.654, 118.609
222.027, 43.871
223.400, 93.920
224.773, 44.750
226.146, 84.566
227.518, 73.377
228.891, 13.760
230.263, 132.145
231.634, 71.938
233.006, 53.883
234.377, 146.629
235.748, 149.355
237.119, 122.254
238.490, 290.920
239.860, 232.461
241.231, 194.002
242.601, 206.533
243.970, 257.080
245.340, 246.762
246.709, 184.494
248.079, 240.113
249.448, 91.041
250.816, 249.807
252.185, 293.547
253.553, 216.260
254.921, 397.949
256.289, 218.613
257.657, 262.250
259.024, 262.861
260.391, 427.445
261.758, 246.004
263.125, 283.535
264.492, 377.730
265.858, 233.820
267.224, 327.215
268.590, 189.717
269.956, 408.322
271.321, 431.998
272.687, 230.732
274.052, 158.510
275.416, 450.328
276.781, 378.172
278.146, 412.043
279.510, 378.930
280.874, 397.830
282.237, 485.100
283.601, 465.654
284.964, 671.570
286.327, 962.488
287.690, 1045.406
289.053, 1084.324
290.416, 1440.238
291.778, 1141.150
293.140, 1058.209
294.502, 653.219
295.863, 672.078
297.225, 685.074
298.586, 617.033
299.947, 761.756
301.308, 731.445
302.668, 756.338
304.029, 781.139
305.389, 837.885
306.749, 867.762
308.108, 1169.891
309.468, 1093.594
310.827, 1395.031
312.186, 1459.711
313.545, 1984.408
314.903, 2230.377
316.262, 2613.273
317.620, 3257.043
318.978, 3768.953
320.336, 4203.510
321.693, 4164.221
323.051, 3882.014
324.408, 2769.684
325.765, 2163.141
327.121, 1352.115
328.478, 645.748
329.834, 609.027
331.190, 534.525
332.546, 347.764
333.902, 321.586
335.257, 143.496
336.612, 262.730
337.967, 303.432
339.322, 171.125
340.677, 382.477
342.031, 191.621
343.385, 201.371
344.739, 167.711
346.093, 174.457
347.446, 168.834
348.799, 281.188
350.153, 309.418
351.505, 350.729
352.858, 200.826
354.210, 339.018
355.563, 164.119
356.915, 194.090
358.267, 264.049
359.618, 158.367
360.969, 215.303
362.321, 235.725
363.672, 147.135
365.022, 332.152
366.373, 226.688
367.723, 304.557
369.073, 283.412
370.423, 310.252
371.773, 148.568
373.122, 239.787
374.471, 513.520
375.821, 414.816
377.169, 612.086
378.518, 494.602
379.866, 714.986
381.215, 1040.600
382.563, 947.732
383.910, 1350.324
385.258, 1848.525
386.605, 2707.980
387.952, 3284.342
389.299, 4685.277
390.646, 6075.953
391.992, 7868.820
393.339, 9933.055
394.685, 11349.572
396.031, 12058.098
397.376, 10723.506
398.722, 9332.967
400.067, 7323.404
401.412, 5695.824
402.757, 4702.225
404.101, 3468.605
405.446, 2649.963
406.790, 2236.303
408.134, 2003.621
409.478, 1773.916
410.821, 1616.189
412.165, 1578.143
413.508, 1656.672
414.851, 1706.881
416.193, 1855.068
417.536, 2147.230
418.878, 2355.373
420.220, 2689.496
421.562, 2299.592
422.904, 2490.670
424.245, 2048.725
425.586, 1505.758
426.927, 1365.771
428.268, 1088.766
429.609, 685.738
430.949, 797.689
432.289, 836.617
433.629, 848.525
434.969, 913.410
436.309, 971.422
437.648, 1019.627
438.987, 1138.924
440.326, 1179.717
441.665, 1300.484
443.003, 1219.779
444.342, 1108.971
445.680, 993.678
447.018, 770.357
448.355, 559.016
449.693, 614.646
451.030, 385.256
452.367, 543.836
453.704, 196.395
455.041, 204.926
456.377, 342.430
457.713, 197.908
459.049, 202.363
460.385, 53.211
461.721, 276.133
463.056, 230.451
464.391, 78.742
465.726, 323.000
467.061, 199.232
468.395, 136.439
469.730, 253.627
471.064, 98.791
472.398, 407.924
473.731, 54.969
475.065, 159.076
476.398, 66.092
477.731, 199.090
479.064, 162.070
480.397, 310.025
481.729, 157.973
483.062, 131.895
484.394, 21.789
485.725, 160.643
487.057, 90.465
488.389, 21.262
489.720, 31.008
491.051, 28.662
492.382, 71.412
493.712, 65.934
495.043, 83.371
496.373, 56.910
497.703, 106.467
499.032, 17.812
500.362, 165.115
501.691, 71.416
503.020, 50.316
504.349, 158.869
505.678, 18.969
507.007, 23.156
508.335, 147.240
509.663, 173.295
510.991, 151.332
512.319, 66.344
513.646, 173.326
514.973, 64.281
516.300, 309.160
517.627, 327.057
518.954, 19.932
520.280, 318.678
521.607, 236.490
522.933, 376.279
524.259, 183.906
525.584, 207.650
526.910, 473.371
528.235, 297.072
529.560, 277.746
530.885, 100.398
532.209, 109.871
533.534, 313.471
534.858, 318.057
536.182, 204.627
537.506, 21.215
538.829, 137.773
540.152, 39.691
541.476, 214.775
542.799, 253.746
544.121, 181.578
545.444, 65.889
546.766, 120.826
548.088, 98.658
549.410, 0.408
550.732, 246.424
552.053, 68.422
553.375, 110.607
554.696, 182.256
556.017, 53.094
557.337, 391.906
558.658, 384.695
559.978, 256.326
561.298, 397.074
562.618, 410.801
563.938, 375.506
565.257, 523.191
566.576, 283.857
567.895, 490.500
569.214, 725.127
570.533, 409.730
571.851, 558.316
573.170, 989.883
574.488, 810.428
575.805, 807.951
577.123, 661.461
578.440, 900.947
579.758, 1207.414
581.075, 1020.863
582.391, 1368.293
583.708, 992.705
585.024, 974.100
586.341, 707.475
587.657, 980.832
588.972, 784.170
590.288, 618.490
591.603, 255.793
592.918, 355.078
594.233, 283.344
595.548, 391.594
596.863, 300.252
598.177, 439.469
599.491, 388.666
600.805, 323.254
602.119, 362.488
603.432, 322.566
604.746, 287.699
606.059, 259.812
607.372, 142.912
608.685, 406.996
609.997, 263.062
611.309, 335.115
612.621, 139.992
613.933, 442.891
615.245, 388.896
616.557, 523.734
617.868, 726.576
619.179, 1002.621
620.490, 792.568
621.801, 1497.484
623.111, 1345.361
624.421, 1792.271
625.731, 1234.016
627.041, 1432.816
628.351, 1042.686
629.660, 785.795
630.970, 956.637
632.279, 597.699
633.588, 665.207
634.896, 354.135
636.205, 498.230
637.513, 336.717
638.821, 724.711
640.129, 902.520
641.437, 873.848
642.744, 638.107
644.051, 881.533
645.358, 1039.432
646.665, 1218.812
647.972, 871.299
649.278, 967.617
650.584, 980.139
651.890, 1240.107
653.196, 780.975
654.502, 856.496
655.807, 514.539
657.113, 667.576
658.418, 765.674
659.722, 532.227
661.027, 469.160
662.331, 391.523
663.636, 827.221
664.940, 556.479
666.244, 1056.740
667.547, 1107.980
668.851, 1295.256
670.154, 1559.727
671.457, 1867.090
672.760, 2683.527
674.062, 3276.076
675.365, 4381.623
676.667, 6067.795
677.969, 8213.439
679.271, 11535.973
680.572, 16322.502
681.874, 22338.902
683.175, 27921.408
684.476, 30452.928
685.777, 28649.447
687.077, 23463.963
688.378, 18278.988
689.678, 13363.094
690.978, 9944.602
692.278, 6927.111
693.577, 6185.619
694.877, 4521.977
696.176, 4065.211
697.475, 2978.996
698.774, 2726.502
700.072, 2331.879
701.371, 2014.312
702.669, 1472.012
703.967, 1543.781
705.265, 1607.961
706.562, 1231.383
707.860, 691.902
709.157, 1030.734
710.454, 499.266
711.751, 875.773
713.047, 443.383
714.344, 544.926
715.640, 17.521
716.936, 205.025
718.232, 553.580
719.527, 318.141
720.823, 199.711
722.118, 387.289
723.413, 163.873
724.708, 35.465
726.002, 423.066
727.297, 35.676
728.591, 341.295
729.885, 469.920
731.179, 162.559
732.472, 93.207
733.766, 171.863
735.059, 85.531
736.352, 229.207
737.645, 330.895
738.937, 243.594
740.230, 142.305
741.522, 195.023
742.814, 277.754
744.106, 309.496
745.397, 315.250
746.689, 335.385
747.980, 318.791
749.271, 224.580
750.562, 245.381
751.853, 10.805
753.143, 28.016
754.433, 32.850
755.723, 62.303
757.013, 28.795
758.303, 54.967
759.592, 169.250
760.881, 244.129
762.170, 387.020
763.459, 561.928
764.748, 271.846
766.036, 1010.781
767.325, 522.730
768.613, 750.693
769.901, 838.674
771.188, 382.668
772.476, 809.680
773.763, 187.705
775.050, 434.779
776.337, 231.865
777.624, 483.969
778.910, 255.094
780.196, 250.232
781.482, 65.609
782.768, 128.543
784.054, 214.713
785.339, 337.904
786.625, 130.891
787.910, 360.318
789.195, 91.457
790.479, 70.240
791.764, 137.973
793.048, 110.797
794.332, 13.588
795.616, 214.637
796.900, 94.881
798.183, 11.154
799.467, 72.449
800.750, 6.238
802.033, 168.898
803.316, 323.410
804.598, 108.238
805.880, 540.100
807.163, 80.490
808.445, 126.938
809.726, 11.434
811.008, 32.953
812.289, 148.496
813.570, 133.023
814.851, 278.570
816.132, 0.166
817.413, 171.217
818.693, 173.381
819.973, 56.006
821.253, 63.346
822.533, 172.305
823.813, 114.979
825.092, 128.676
826.371, 185.396
827.650, 159.141
828.929, 394.938
830.208, 364.750
831.486, 44.404
832.764, 255.453
834.042, 125.340
835.320, 384.254
836.598, 224.189
837.875, 257.191
839.152, 306.211
840.429, 653.258
841.706, 274.328
842.983, 384.449
844.259, 636.635
845.536, 498.846
846.812, 539.076
848.088, 423.332
849.363, 618.619
850.639, 750.955
851.914, 598.344
853.189, 599.768
854.464, 799.299
855.739, 821.559
857.013, 935.447
858.288, 1081.137
859.562, 1212.916
860.836, 1256.744
862.110, 931.600
863.383, 1077.496
864.656, 789.463
865.930, 727.477
867.203, 722.520
868.475, 766.684
869.748, 714.172
871.020, 645.229
872.292, 703.471
873.564, 434.766
874.836, 473.152
876.108, 411.568
877.379, 673.004
878.650, 751.463
879.922, 503.008
881.192, 452.574
882.463, 552.168
883.733, 412.795
885.004, 492.441
886.274, 525.109
887.544, 675.809
888.813, 414.531
890.083, 675.275
891.352, 847.041
892.621, 670.830
893.890, 956.637
895.159, 637.469
896.427, 534.318
897.695, 946.193
898.964, 780.090
900.232, 714.008
901.499, 776.947
902.767, 969.904
904.034, 634.885
905.301, 974.459
906.568, 1006.525
907.835, 1194.609
909.102, 888.309
910.368, 941.434
911.634, 1228.594
912.900, 866.771
914.166, 1100.973
915.432, 834.189
916.697, 533.428
917.962, 841.688
919.227, 639.963
920.492, 932.258
921.757, 536.574
923.021, 553.906
924.285, 947.260
925.550, 415.629
926.813, 563.020
928.077, 465.430
929.341, 541.857
930.604, 749.303
931.867, 361.764
933.130, 567.244
934.393, 620.412
935.655, 247.926
936.918, 891.457
938.180, 507.004
939.442, 281.309
940.703, 485.891
941.965, 418.109
943.226, 100.281
944.488, 490.918
945.749, 569.340
947.009, 351.648
948.270, 432.332
949.530, 522.031
950.791, 452.750
952.051, 468.480
953.311, 284.062
954.570, 495.895
955.830, 738.676
957.089, 420.512
958.348, 344.324
959.607, 407.219
960.866, 309.062
962.124, 185.922
963.383, 564.988
964.641, 153.141
965.899, 495.504
967.156, 183.422
968.414, 221.520
969.671, 440.676
970.928, 75.641
972.185, 260.617
973.442, 343.738
974.699, 454.738
975.955, 369.758
977.211, 93.961
978.468, 278.000
979.723, 206.707
980.979, 278.773
982.234, 691.855
983.490, 71.980
984.745, 665.262
986.000, 713.660
987.254, 386.785
988.509, 976.789
989.763, 738.938
991.017, 882.348
992.271, 1013.129
993.525, 1129.516
994.779, 1287.129
996.032, 1659.895
997.285, 1805.109
998.538, 1806.273
999.791, 2950.695
1001.044, 2925.617
1002.296, 3348.766
1003.548, 2804.445
1004.800, 2597.434
1006.052, 2686.367
1007.304, 2326.484
1008.555, 2609.922
1009.807, 2567.316
1011.058, 2850.133
1012.309, 2582.070
1013.559, 2495.566
1014.810, 2003.254
1016.060, 2135.875
1017.310, 1958.656
1018.560, 1679.672
1019.810, 1793.699
1021.060, 1718.660
1022.309, 1292.324
1023.558, 1483.555
1024.807, 1095.777
1026.056, 1317.238
1027.305, 1155.500
1028.553, 1270.031
1029.801, 1247.555
1031.049, 873.453
1032.297, 925.711
1033.545, 816.148
1034.793, 972.684
1036.040, 791.020
1037.287, 846.547
1038.534, 931.316
1039.781, 1206.539
1041.027, 1128.836
1042.274, 699.355
1043.520, 1072.750
1044.766, 915.945
1046.012, 831.895
1047.257, 922.555
1048.503, 1377.324
1049.748, 808.488
1050.993, 1201.801
1052.238, 1234.953
1053.483, 1126.293
1054.727, 1141.422
1055.971, 1342.141
1057.216, 1674.277
1058.459, 1874.488
1059.703, 2303.586
1060.947, 2760.133
1062.190, 2936.211
1063.433, 3622.422
1064.676, 4007.520
1065.919, 4027.605
1067.162, 4947.680
1068.404, 4401.734
1069.646, 4575.781
1070.888, 4716.809
1072.130, 4022.824
1073.372, 3655.824
1074.613, 3532.906
1075.855, 3077.215
1077.096, 2734.164
1078.337, 3037.098
1079.578, 2643.016
1080.818, 2506.918
1082.059, 2147.801
1083.299, 2225.664
1084.539, 1967.527
1085.779, 1572.363
1087.018, 1325.188
1088.258, 1371.996
1089.497, 1239.801
1090.736, 981.590
1091.975, 909.367
1093.213, 798.137
1094.452, 1066.887
1095.690, 526.629
1096.928, 778.352
1098.166, 625.055
1099.404, 493.738
1100.642, 326.391
1101.879, 721.023
1103.116, 357.633
1104.353, 561.246
1105.590, 255.840
1106.827, 600.434
1108.063, 183.000
1109.299, 624.527
1110.536, 329.039
1111.771, 162.555
1113.007, 302.059
1114.243, 105.215
1115.478, 234.723
1116.713, 171.223
1117.948, 230.711
1119.183, 318.359
1120.418, 304.723
1121.652, 490.172
1122.886, 446.613
1124.120, 513.211
1125.354, 199.570
1126.588, 348.848
1127.821, 69.895
1129.055, 275.316
1130.288, 307.480
1131.521, 219.809
1132.753, 4.910
1133.986, 33.922
1135.218, 531.902
1136.450, 114.973
1137.682, 478.559
1138.914, 43.273
1140.146, 123.457
1141.377, 53.566
1142.609, 104.156
1143.840, 144.094
1145.071, 377.352
1146.301, 82.020
1147.532, 237.629
1148.762, 41.219
1149.992, 91.879
1151.222, 4.051
1152.452, 115.973
1153.682, 39.320
1154.911, 105.102
1156.140, 61.113
1157.369, 43.660
1158.598, 1.914
1159.827, 146.781
1161.055, 11.543
1162.284, 210.145
1163.512, 44.129
1164.740, 192.383
1165.967, 320.137
1167.195, 136.207
1168.422, 54.707
1169.650, 226.984
1170.877, 66.754
1172.103, 193.578
1173.330, 92.051
1174.557, 383.094
1175.783, 262.102
1177.009, 180.879
1178.235, 174.000
1179.461, 118.840
1180.686, 31.645
1181.912, 344.406
1183.137, 317.023
1184.362, 43.227
1185.587, 213.934
1186.811, 416.527
1188.036, 252.082
1189.260, 353.062
1190.484, 300.652
1191.708, 442.484
1192.932, 167.184
1194.155, 234.777
1195.378, 208.094
1196.602, 372.742
1197.825, 314.250
1199.047, 545.328
1200.270, 305.848
1201.492, 652.156
1202.715, 97.781
1203.937, 533.598
1205.159, 333.570
1206.380, 525.477
1207.602, 20.668
1208.823, 361.465
1210.044, 328.219
1211.265, 406.711
1212.486, 407.398
1213.707, 424.047
1214.927, 463.664
1216.147, 381.242
1217.367, 424.238
1218.587, 524.309
1219.807, 414.711
1221.027, 357.062
1222.246, 301.383
1223.465, 738.656
1224.684, 826.883
1225.903, 677.066
1227.121, 551.199
1228.340, 838.277
1229.558, 869.312
1230.776, 916.273
1231.994, 876.191
1233.212, 1236.070
1234.429, 1333.898
1235.646, 1327.344
1236.864, 1912.715
1238.081, 1697.031
1239.297, 1805.281
1240.514, 2241.461
1241.730, 1998.566
1242.947, 1820.785
1244.163, 1306.730
1245.378, 1562.574
1246.594, 1280.367
1247.810, 937.371
1249.025, 1270.039
1250.240, 839.645
1251.455, 867.668
1252.670, 548.137
1253.885, 650.766
1255.099, 979.371
1256.313, 186.184
1257.527, 824.754
1258.741, 500.008
1259.955, 251.480
1261.168, 494.129
1262.382, 414.738
1263.595, 814.129
1264.808, 392.535
1266.021, 443.961
1267.233, 486.820
1268.446, 812.734
1269.658, 353.047
1270.870, 784.082
1272.082, 567.449
1273.294, 679.648
1274.505, 681.133
1275.716, 524.184
1276.928, 343.910
1278.139, 618.441
1279.349, 482.938
1280.560, 378.109
1281.770, 331.609
1282.981, 207.211
1284.191, 342.523
1285.401, 221.504
1286.610, 209.473
1287.820, 124.082
1289.029, 31.867
1290.239, 445.484
1291.448, 200.879
1292.656, 204.254
1293.865, 446.020
1295.073, 312.918
1296.282, 400.617
1297.490, 364.555
1298.698, 360.914
1299.906, 265.820
1301.113, 123.582
1302.320, 39.805
1303.528, 302.375
1304.735, 90.777
1305.942, 288.008
1307.148, 273.320
1308.355, 73.566
1309.561, 833.734
1310.767, 443.676
1311.973, 513.148
1313.179, 247.105
1314.384, 694.988
1315.590, 285.801
1316.795, 503.547
1318.000, 157.219
1319.205, 706.836
1320.410, 753.391
1321.614, 275.883
1322.819, 695.320
1324.023, 508.703
1325.227, 679.020
1326.431, 387.266
1327.634, 36.527
1328.838, 157.520
1330.041, 262.023
1331.244, 393.605
1332.447, 358.199
1333.650, 166.191
1334.852, 246.922
1336.055, 178.207
1337.257, 201.465
1338.459, 213.523
1339.661, 271.543
1340.862, 180.445
1342.064, 200.398
1343.265, 84.062
1344.466, 170.082
1345.667, 210.617
1346.868, 389.176
1348.068, 167.828
1349.269, 67.445
1350.469, 402.906
1351.669, 180.703
1352.869, 479.227
1354.069, 645.887
1355.268, 148.641
1356.468, 358.176
1357.667, 579.488
1358.866, 304.859
1360.065, 587.109
1361.263, 312.145
1362.462, 338.324
1363.660, 635.664
1364.858, 266.727
1366.056, 479.184
1367.254, 586.070
1368.451, 441.223
1369.649, 286.316
1370.846, 593.293
1372.043, 252.809
1373.240, 297.645
1374.436, 537.219
1375.633, 527.625
1376.829, 589.898
1378.025, 111.066
1379.221, 484.312
1380.417, 363.660
1381.613, 243.578
1382.808, 435.219
1384.003, 497.863
1385.199, 465.281
1386.393, 120.547
1387.588, 539.539
1388.783, 248.895
1389.977, 469.133
1391.171, 87.211
1392.365, 180.488
1393.559, 325.000
1394.753, 4.789
1395.946, 407.496
1397.140, 3.516
1398.333, 0.000
##END=



