##NAMES=Beryl
##RRUFFID=R050065
##IDEAL CHEMISTRY=Be_3_Al_2_Si_6_O_18_
##LOCALITY=Xuebaoding, Sichuan Province, China
##OWNER=RRUFF
##SOURCE=Rock Currier
##DESCRIPTION=Light blue colored tabular single crystal
##STATUS=The identification of this mineral has been confirmed by X-ray diffraction and chemical analysis
##URL=rruff.info/R050065
##MEASURED CHEMISTRY=(Be_2.78_Li_0.22_)_Σ=3_Al_2.00_Si_6.00_O_18_·Na_0.22_
##PIN_ID=L00396
##ORIENTATION=Laser parallel to a* (1 0 0). Fiducial mark perpendicular to laser is parallel to c [0 0 1]
94.768, 0.000
96.161, 15.916
97.554, 34.784
98.947, 14.133
100.340, 46.572
101.732, 144.046
103.124, 109.654
104.516, 315.099
105.908, 578.753
107.300, 528.428
108.691, 855.233
110.082, 1113.553
111.473, 1308.001
112.864, 1712.114
114.254, 2045.494
115.644, 2454.832
117.034, 2716.872
118.424, 2460.431
119.813, 2480.320
121.203, 2427.382
122.592, 2217.482
123.981, 2220.786
125.369, 2011.613
126.758, 1961.661
128.146, 1887.471
129.534, 2077.804
130.922, 1903.623
132.309, 2013.895
133.696, 1810.655
135.083, 2015.864
136.470, 1812.440
137.857, 2004.345
139.243, 1908.622
140.630, 1749.463
142.016, 1542.517
143.401, 1448.774
144.787, 1411.228
146.172, 1399.866
147.557, 1228.688
148.942, 1053.687
150.327, 1142.864
151.711, 1084.220
153.096, 1254.751
154.480, 1125.224
155.863, 1204.241
157.247, 1180.900
158.630, 1186.734
160.013, 1205.174
161.396, 1193.086
162.779, 1282.148
164.161, 1169.856
165.544, 1181.703
166.926, 1107.678
168.308, 1184.774
169.689, 955.983
171.070, 1201.303
172.452, 1110.960
173.833, 900.424
175.213, 1061.983
176.594, 827.735
177.974, 878.422
179.354, 928.037
180.734, 786.850
182.114, 693.640
183.493, 725.199
184.872, 631.525
186.251, 630.009
187.630, 506.543
189.008, 550.132
190.387, 497.779
191.765, 397.488
193.143, 525.260
194.520, 340.096
195.898, 411.996
197.275, 459.963
198.652, 428.995
200.029, 281.159
201.405, 246.438
202.782, 46.805
204.158, 118.247
205.534, 273.868
206.909, 65.557
208.285, 98.371
209.660, 145.249
211.035, 129.809
212.410, 45.825
213.784, 61.801
215.159, 50.728
216.533, 25.607
217.907, 80.585
219.281, 7.555
220.654, 97.605
222.027, 104.744
223.400, 1.590
224.773, 103.981
226.146, 36.104
227.518, 90.819
228.891, 132.732
230.263, 215.688
231.634, 250.673
233.006, 133.670
234.377, 108.684
235.748, 175.692
237.119, 24.669
238.490, 257.645
239.860, 193.603
241.231, 201.539
242.601, 265.480
243.970, 164.430
245.340, 161.390
246.709, 29.364
248.079, 190.340
249.448, 48.685
250.816, 62.291
252.185, 115.267
253.553, 16.238
254.921, 41.202
256.289, 1.156
257.657, 67.107
259.024, 47.053
260.391, 15.062
261.758, 16.902
263.125, 78.287
264.492, 66.918
265.858, 1.826
267.224, 156.751
268.590, 36.396
269.956, 81.688
271.321, 120.979
272.687, 9.453
274.052, 137.908
275.416, 182.854
276.781, 114.748
278.146, 136.762
279.510, 416.893
280.874, 129.123
282.237, 364.443
283.601, 27.846
284.964, 230.328
286.327, 444.881
287.690, 339.500
289.053, 497.217
290.416, 850.988
291.778, 811.824
293.140, 1009.727
294.502, 849.686
295.863, 789.686
297.225, 664.723
298.586, 526.793
299.947, 338.896
301.308, 243.029
302.668, 194.934
304.029, 335.633
305.389, 325.846
306.749, 232.461
308.108, 379.912
309.468, 290.189
310.827, 299.926
312.186, 368.240
313.545, 603.939
314.903, 800.465
316.262, 868.832
317.620, 1071.572
318.978, 1126.584
320.336, 1394.891
321.693, 1619.305
323.051, 1761.412
324.408, 1521.055
325.765, 1591.459
327.121, 1047.752
328.478, 739.051
329.834, 568.357
331.190, 436.934
332.546, 199.406
333.902, 89.637
335.257, 42.963
336.612, 165.332
337.967, 55.314
339.322, 16.568
340.677, 28.836
342.031, 168.365
343.385, 88.682
344.739, 6.750
346.093, 140.084
347.446, 55.004
348.799, 62.248
350.153, 1.654
351.505, 113.980
352.858, 190.080
354.210, 104.486
355.563, 2.564
356.915, 249.732
358.267, 273.311
359.618, 166.066
360.969, 294.330
362.321, 224.197
363.672, 165.350
365.022, 316.176
366.373, 325.551
367.723, 296.773
369.073, 325.924
370.423, 447.043
371.773, 344.285
373.122, 374.549
374.471, 669.727
375.821, 467.766
377.169, 964.318
378.518, 767.389
379.866, 880.090
381.215, 1178.104
382.563, 1165.051
383.910, 1491.977
385.258, 1950.277
386.605, 2530.055
387.952, 2674.059
389.299, 3674.023
390.646, 4551.834
391.992, 5612.629
393.339, 7187.648
394.685, 9008.410
396.031, 11198.158
397.376, 12487.891
398.722, 13694.605
400.067, 13362.305
401.412, 12066.988
402.757, 10367.652
404.101, 8170.301
405.446, 6277.934
406.790, 5090.549
408.134, 4145.148
409.478, 3393.730
410.821, 2893.295
412.165, 2183.311
413.508, 2448.840
414.851, 2199.352
416.193, 1995.848
417.536, 2184.324
418.878, 2076.730
420.220, 2076.170
421.562, 1822.592
422.904, 1908.020
424.245, 2009.445
425.586, 1526.873
426.927, 1472.297
428.268, 1131.594
429.609, 850.004
430.949, 891.229
432.289, 925.619
433.629, 681.000
434.969, 781.365
436.309, 688.383
437.648, 682.723
438.987, 666.154
440.326, 448.363
441.665, 524.656
443.003, 678.932
444.342, 520.191
445.680, 471.434
447.018, 568.658
448.355, 401.139
449.693, 275.422
451.030, 262.590
452.367, 190.387
453.704, 226.096
455.041, 205.674
456.377, 151.904
457.713, 220.963
459.049, 191.000
460.385, 137.014
461.721, 255.006
463.056, 44.973
464.391, 41.102
465.726, 275.748
467.061, 58.568
468.395, 65.354
469.730, 215.104
471.064, 59.834
472.398, 239.527
473.731, 66.805
475.065, 41.768
476.398, 136.293
477.731, 105.129
479.064, 22.373
480.397, 234.021
481.729, 126.391
483.062, 29.730
484.394, 114.018
485.725, 131.277
487.057, 219.508
488.389, 277.713
489.720, 155.889
491.051, 127.041
492.382, 136.162
493.712, 96.254
495.043, 164.311
496.373, 92.344
497.703, 158.350
499.032, 76.307
500.362, 88.938
501.691, 15.078
503.020, 57.781
504.349, 40.352
505.678, 26.947
507.007, 124.984
508.335, 44.697
509.663, 22.344
510.991, 134.051
512.319, 45.564
513.646, 128.836
514.973, 44.795
516.300, 173.328
517.627, 68.584
518.954, 199.201
520.280, 145.846
521.607, 28.891
522.933, 228.887
524.259, 60.857
525.584, 134.787
526.910, 154.688
528.235, 170.561
529.560, 380.404
530.885, 84.221
532.209, 146.002
533.534, 298.750
534.858, 197.488
536.182, 197.207
537.506, 82.904
538.829, 150.568
540.152, 142.207
541.476, 233.824
542.799, 233.953
544.121, 127.992
545.444, 259.539
546.766, 154.057
548.088, 156.549
549.410, 208.014
550.732, 309.451
552.053, 46.857
553.375, 199.221
554.696, 228.557
556.017, 443.865
557.337, 647.145
558.658, 340.402
559.978, 413.629
561.298, 686.832
562.618, 376.006
563.938, 515.154
565.257, 690.275
566.576, 450.371
567.895, 794.449
569.214, 901.496
570.533, 862.520
571.851, 679.525
573.170, 949.502
574.488, 755.453
575.805, 903.379
577.123, 667.279
578.440, 780.150
579.758, 836.998
581.075, 598.820
582.391, 702.613
583.708, 653.383
585.024, 465.123
586.341, 577.840
587.657, 479.529
588.972, 712.191
590.288, 310.834
591.603, 201.449
592.918, 347.039
594.233, 228.602
595.548, 334.162
596.863, 175.695
598.177, 57.203
599.491, 324.666
600.805, 277.104
602.119, 270.516
603.432, 257.900
604.746, 271.260
606.059, 146.592
607.372, 65.104
608.685, 207.105
609.997, 0.709
611.309, 19.588
612.621, 8.459
613.933, 163.453
615.245, 335.420
616.557, 294.359
617.868, 427.277
619.179, 286.168
620.490, 314.033
621.801, 737.133
623.111, 630.438
624.421, 795.230
625.731, 378.619
627.041, 733.168
628.351, 294.680
629.660, 258.936
630.970, 552.607
632.279, 265.889
633.588, 302.336
634.896, 111.938
636.205, 162.775
637.513, 279.963
638.821, 325.496
640.129, 487.885
641.437, 621.529
642.744, 299.631
644.051, 551.955
645.358, 503.381
646.665, 731.789
647.972, 521.172
649.278, 676.273
650.584, 509.463
651.890, 815.879
653.196, 732.346
654.502, 574.088
655.807, 387.750
657.113, 584.566
658.418, 785.424
659.722, 585.150
661.027, 662.611
662.331, 618.020
663.636, 994.400
664.940, 751.750
666.244, 1322.492
667.547, 1335.367
668.851, 1645.121
670.154, 1840.396
671.457, 2266.344
672.760, 3014.613
674.062, 3602.773
675.365, 4677.504
676.667, 6025.039
677.969, 8012.850
679.271, 10838.234
680.572, 14116.295
681.874, 19517.680
683.175, 25016.490
684.476, 29700.443
685.777, 32880.434
687.077, 31825.445
688.378, 28879.299
689.678, 23416.115
690.978, 18419.080
692.278, 13471.027
693.577, 11321.965
694.877, 8341.676
696.176, 7149.432
697.475, 5516.094
698.774, 4798.973
700.072, 3942.840
701.371, 3354.271
702.669, 2591.113
703.967, 2561.785
705.265, 2597.461
706.562, 2076.260
707.860, 1562.053
709.157, 1808.588
710.454, 1357.355
711.751, 1622.109
713.047, 1059.854
714.344, 1299.586
715.640, 810.307
716.936, 904.018
718.232, 1060.717
719.527, 808.404
720.823, 902.084
722.118, 865.754
723.413, 715.113
724.708, 799.762
726.002, 897.400
727.297, 623.029
728.591, 792.650
729.885, 929.262
731.179, 581.865
732.472, 475.459
733.766, 536.045
735.059, 634.619
736.352, 654.188
737.645, 395.746
738.937, 636.297
740.230, 305.840
741.522, 360.377
742.814, 478.904
744.106, 417.424
745.397, 530.938
746.689, 230.445
747.980, 484.947
749.271, 273.443
750.562, 533.932
751.853, 197.414
753.143, 424.779
754.433, 409.352
755.723, 165.812
757.013, 663.273
758.303, 217.727
759.592, 333.176
760.881, 405.617
762.170, 577.781
763.459, 341.115
764.748, 187.547
766.036, 472.941
767.325, 80.160
768.613, 333.105
769.901, 433.375
771.188, 88.791
772.476, 299.205
773.763, 51.617
775.050, 297.029
776.337, 159.438
777.624, 200.854
778.910, 168.297
780.196, 22.740
781.482, 66.188
782.768, 30.359
784.054, 98.078
785.339, 134.521
786.625, 70.967
787.910, 186.445
789.195, 192.936
790.479, 145.090
791.764, 208.551
793.048, 71.070
794.332, 157.592
795.616, 133.113
796.900, 262.652
798.183, 12.193
799.467, 10.736
800.750, 28.283
802.033, 41.084
803.316, 110.635
804.598, 66.947
805.880, 264.746
807.163, 1.688
808.445, 51.123
809.726, 99.574
811.008, 71.930
812.289, 232.557
813.570, 91.850
814.851, 95.289
816.132, 95.266
817.413, 240.828
818.693, 128.506
819.973, 51.857
821.253, 102.479
822.533, 118.488
823.813, 36.895
825.092, 52.334
826.371, 117.254
827.650, 176.736
828.929, 193.225
830.208, 195.723
831.486, 106.703
832.764, 12.176
834.042, 19.277
835.320, 214.268
836.598, 154.826
837.875, 8.391
839.152, 115.963
840.429, 455.541
841.706, 140.125
842.983, 37.723
844.259, 363.328
845.536, 178.939
846.812, 275.561
848.088, 104.189
849.363, 263.830
850.639, 296.479
851.914, 179.139
853.189, 179.809
854.464, 364.486
855.739, 574.176
857.013, 327.873
858.288, 473.584
859.562, 534.303
860.836, 400.031
862.110, 378.771
863.383, 343.363
864.656, 234.303
865.930, 305.084
867.203, 300.875
868.475, 400.711
869.748, 135.555
871.020, 361.414
872.292, 196.281
873.564, 302.168
874.836, 96.072
876.108, 46.012
877.379, 356.900
878.650, 353.824
879.922, 227.764
881.192, 13.713
882.463, 169.676
883.733, 209.654
885.004, 286.641
886.274, 294.641
887.544, 354.654
888.813, 399.834
890.083, 405.684
891.352, 453.775
892.621, 370.842
893.890, 304.924
895.159, 160.020
896.427, 378.127
897.695, 616.252
898.964, 332.387
900.232, 431.539
901.499, 406.705
902.767, 539.883
904.034, 560.418
905.301, 597.137
906.568, 643.512
907.835, 647.762
909.102, 678.023
910.368, 659.301
911.634, 526.594
912.900, 390.902
914.166, 359.215
915.432, 294.404
916.697, 279.955
917.962, 309.361
919.227, 355.801
920.492, 479.279
921.757, 217.791
923.021, 384.316
924.285, 434.857
925.550, 276.416
926.813, 324.988
928.077, 181.578
929.341, 366.186
930.604, 486.809
931.867, 99.445
933.130, 292.100
934.393, 416.770
935.655, 99.660
936.918, 524.363
938.180, 137.082
939.442, 28.814
940.703, 291.566
941.965, 294.332
943.226, 60.115
944.488, 209.918
945.749, 349.734
947.009, 340.564
948.270, 326.035
949.530, 215.279
950.791, 165.160
952.051, 178.037
953.311, 13.025
954.570, 209.904
955.830, 188.852
957.089, 188.816
958.348, 130.797
959.607, 221.633
960.866, 71.137
962.124, 156.770
963.383, 166.906
964.641, 59.350
965.899, 65.598
967.156, 30.869
968.414, 42.168
969.671, 159.385
970.928, 198.277
972.185, 228.439
973.442, 125.824
974.699, 116.479
975.955, 196.803
977.211, 97.857
978.468, 238.479
979.723, 122.834
980.979, 94.215
982.234, 434.615
983.490, 26.764
984.745, 482.676
986.000, 545.156
987.254, 274.629
988.509, 703.119
989.763, 744.625
991.017, 725.150
992.271, 955.695
993.525, 998.271
994.779, 1274.873
996.032, 1470.498
997.285, 1827.143
998.538, 1756.807
999.791, 2481.490
1001.044, 2252.195
1002.296, 2640.938
1003.548, 2251.768
1004.800, 2174.662
1006.052, 2364.578
1007.304, 2236.531
1008.555, 2131.506
1009.807, 2239.506
1011.058, 2121.531
1012.309, 2095.762
1013.559, 1857.855
1014.810, 1661.967
1016.060, 1870.098
1017.310, 1858.246
1018.560, 1305.779
1019.810, 1524.961
1021.060, 1611.166
1022.309, 1245.391
1023.558, 1457.961
1024.807, 1066.723
1026.056, 1090.004
1027.305, 947.602
1028.553, 1050.916
1029.801, 880.838
1031.049, 636.189
1032.297, 709.561
1033.545, 584.008
1034.793, 556.348
1036.040, 593.787
1037.287, 515.256
1038.534, 610.771
1039.781, 868.303
1041.027, 626.857
1042.274, 779.439
1043.520, 817.041
1044.766, 752.664
1046.012, 730.299
1047.257, 570.953
1048.503, 1153.623
1049.748, 811.307
1050.993, 1362.012
1052.238, 1386.734
1053.483, 1241.471
1054.727, 1329.221
1055.971, 1436.721
1057.216, 1745.756
1058.459, 1883.547
1059.703, 2237.350
1060.947, 2709.164
1062.190, 2840.990
1063.433, 3190.828
1064.676, 3326.680
1065.919, 3350.543
1067.162, 3845.416
1068.404, 3422.299
1069.646, 3666.195
1070.888, 4046.102
1072.130, 3499.018
1073.372, 3657.943
1074.613, 3614.877
1075.855, 3219.820
1077.096, 2939.771
1078.337, 2820.139
1079.578, 2815.693
1080.818, 2543.662
1082.059, 2323.639
1083.299, 2271.621
1084.539, 2004.609
1085.779, 1912.613
1087.018, 1627.619
1088.258, 1569.631
1089.497, 1275.648
1090.736, 1303.668
1091.975, 1248.695
1093.213, 931.723
1094.452, 1167.750
1095.690, 564.783
1096.928, 816.900
1098.166, 911.938
1099.404, 925.973
1100.642, 619.010
1101.879, 1053.217
1103.116, 661.000
1104.353, 781.645
1105.590, 616.678
1106.827, 824.713
1108.063, 552.277
1109.299, 1046.922
1110.536, 599.951
1111.771, 541.746
1113.007, 871.641
1114.243, 634.945
1115.478, 743.312
1116.713, 702.416
1117.948, 623.066
1119.183, 399.654
1120.418, 587.271
1121.652, 652.068
1122.886, 740.732
1124.120, 919.918
1125.354, 429.113
1126.588, 713.156
1127.821, 257.090
1129.055, 763.953
1130.288, 659.439
1131.521, 714.855
1132.753, 495.676
1133.986, 665.963
1135.218, 1051.113
1136.450, 418.250
1137.682, 792.379
1138.914, 486.164
1140.146, 453.137
1141.377, 504.312
1142.609, 219.480
1143.840, 572.254
1145.071, 674.816
1146.301, 526.125
1147.532, 669.770
1148.762, 515.309
1149.992, 484.254
1151.222, 322.961
1152.452, 455.871
1153.682, 191.902
1154.911, 510.691
1156.140, 218.445
1157.369, 98.574
1158.598, 162.047
1159.827, 34.949
1161.055, 167.516
1162.284, 89.848
1163.512, 97.500
1164.740, 289.613
1165.967, 136.488
1167.195, 327.051
1168.422, 106.582
1169.650, 228.078
1170.877, 30.020
1172.103, 33.641
1173.330, 181.789
1174.557, 316.852
1175.783, 511.270
1177.009, 4.480
1178.235, 297.586
1179.461, 234.293
1180.686, 137.355
1181.912, 412.727
1183.137, 366.723
1184.362, 159.613
1185.587, 547.574
1186.811, 501.867
1188.036, 253.207
1189.260, 519.297
1190.484, 522.016
1191.708, 572.012
1192.932, 348.230
1194.155, 224.762
1195.378, 524.246
1196.602, 566.668
1197.825, 319.887
1199.047, 688.051
1200.270, 322.387
1201.492, 876.227
1202.715, 255.930
1203.937, 513.613
1205.159, 452.445
1206.380, 726.082
1207.602, 616.098
1208.823, 341.312
1210.044, 486.895
1211.265, 360.184
1212.486, 437.727
1213.707, 374.266
1214.927, 615.281
1216.147, 457.746
1217.367, 639.184
1218.587, 515.754
1219.807, 562.098
1221.027, 497.582
1222.246, 470.684
1223.465, 632.633
1224.684, 766.461
1225.903, 643.262
1227.121, 474.027
1228.340, 884.754
1229.558, 655.434
1230.776, 711.078
1231.994, 412.664
1233.212, 584.191
1234.429, 631.684
1235.646, 560.141
1236.864, 641.449
1238.081, 560.812
1239.297, 572.879
1240.514, 551.859
1241.730, 506.777
1242.947, 233.703
1244.163, 370.477
1245.378, 401.184
1246.594, 482.840
1247.810, 33.418
1249.025, 380.938
1250.240, 118.379
1251.455, 390.012
1252.670, 315.316
1253.885, 141.543
1255.099, 122.699
1256.313, 89.211
1257.527, 164.344
1258.741, 84.652
1259.955, 234.547
1261.168, 40.117
1262.382, 323.699
1263.595, 54.141
1264.808, 16.590
1266.021, 118.969
1267.233, 23.555
1268.446, 265.828
1269.658, 78.406
1270.870, 342.570
1272.082, 208.676
1273.294, 108.734
1274.505, 24.863
1275.716, 212.805
1276.928, 10.543
1278.139, 312.188
1279.349, 261.746
1280.560, 351.238
1281.770, 422.633
1282.981, 314.145
1284.191, 136.398
1285.401, 105.602
1286.610, 0.098
1287.820, 19.762
1289.029, 36.406
1290.239, 194.234
1291.448, 75.441
1292.656, 185.523
1293.865, 63.414
1295.073, 20.754
1296.282, 206.973
1297.490, 129.449
1298.698, 130.215
1299.906, 18.188
1301.113, 55.352
1302.320, 37.383
1303.528, 26.156
1304.735, 61.434
1305.942, 169.273
1307.148, 285.613
1308.355, 73.906
1309.561, 449.074
1310.767, 160.168
1311.973, 239.188
1313.179, 91.156
1314.384, 255.086
1315.590, 165.980
1316.795, 286.820
1318.000, 46.633
1319.205, 382.414
1320.410, 286.164
1321.614, 59.883
1322.819, 474.574
1324.023, 223.242
1325.227, 471.875
1326.431, 308.477
1327.634, 16.941
1328.838, 45.625
1330.041, 46.340
1331.244, 334.723
1332.447, 72.254
1333.650, 45.777
1334.852, 238.297
1336.055, 96.812
1337.257, 361.340
1338.459, 289.738
1339.661, 301.285
1340.862, 316.992
1342.064, 174.578
1343.265, 183.281
1344.466, 314.691
1345.667, 430.441
1346.868, 498.316
1348.068, 400.047
1349.269, 140.441
1350.469, 628.098
1351.669, 394.949
1352.869, 571.594
1354.069, 661.488
1355.268, 205.852
1356.468, 475.219
1357.667, 632.891
1358.866, 267.586
1360.065, 510.953
1361.263, 512.090
1362.462, 347.816
1363.660, 738.785
1364.858, 231.566
1366.056, 299.023
1367.254, 503.230
1368.451, 431.742
1369.649, 393.121
1370.846, 540.723
1372.043, 334.695
1373.240, 456.797
1374.436, 610.328
1375.633, 547.320
1376.829, 597.570
1378.025, 346.859
1379.221, 554.887
1380.417, 464.742
1381.613, 214.328
1382.808, 473.441
1384.003, 617.406
1385.199, 651.020
1386.393, 221.895
1387.588, 382.996
1388.783, 311.527
1389.977, 232.152
1391.171, 480.594
1392.365, 341.539
1393.559, 526.176
1394.753, 148.746
1395.946, 426.668
1397.140, 247.305
1398.333, 507.461
1399.526, 305.754
1400.719, 314.777
1401.911, 225.273
1403.104, 294.285
1404.296, 280.961
1405.488, 234.059
1406.680, 38.938
1407.872, 237.164
1409.063, 426.902
1410.255, 100.391
1411.446, 235.855
1412.637, 71.445
1413.828, 311.254
1415.018, 351.449
1416.209, 291.953
1417.399, 118.750
1418.589, 380.086
1419.779, 252.273
1420.969, 392.180
1422.159, 269.086
1423.348, 126.000
1424.537, 283.234
1425.726, 67.164
1426.915, 167.844
1428.104, 262.781
1429.293, 1.453
1430.481, 0.000
##END=



