##NAMES=Beryl
##RRUFFID=R050120
##IDEAL CHEMISTRY=Be_3_Al_2_Si_6_O_18_
##LOCALITY=Cruziero mine, San Jose, Minas Gerais, Brazil
##OWNER=RRUFF
##SOURCE=Carlos and Paulo Vasconcelos
##DESCRIPTION=Yellow gemmy fragment
##STATUS=The identification of this mineral has been confirmed by X-ray diffraction and chemical analysis
##URL=rruff.info/R050120
##MEASURED CHEMISTRY=(Be_2.76_Li_0.24_)_Σ=3_Al_2.00_Si_6.00_O_18_·Na_0.24_
##PIN_ID=L00520
##ORIENTATION=Laser parallel to a* (1 0 0). Fiducial mark perpendicular to laser is parallel to c [0 0 1]
87.798, 0.000
89.193, 117.525
90.587, 8.195
91.981, 39.849
93.375, 4.834
94.768, 163.430
96.161, 201.434
97.554, 182.712
98.947, 274.764
100.340, 238.554
101.732, 236.350
103.124, 286.521
104.516, 427.539
105.908, 601.987
107.300, 680.539
108.691, 954.910
110.082, 1202.906
111.473, 1538.497
112.864, 1844.658
114.254, 2530.164
115.644, 2934.795
117.034, 3204.368
118.424, 2665.748
119.813, 2626.820
121.203, 2498.526
122.592, 2284.865
123.981, 2458.800
125.369, 2202.249
126.758, 2335.139
128.146, 2290.408
129.534, 2507.004
130.922, 2328.011
132.309, 2430.352
133.696, 2413.368
135.083, 2522.841
136.470, 2421.260
137.857, 2554.689
139.243, 2377.962
140.630, 2286.094
142.016, 2165.099
143.401, 2064.298
144.787, 2012.775
146.172, 1907.472
147.557, 1862.091
148.942, 1812.638
150.327, 1725.116
151.711, 1686.533
153.096, 1643.172
154.480, 1614.805
155.863, 1595.102
157.247, 1594.107
158.630, 1606.147
160.013, 1605.080
161.396, 1425.875
162.779, 1422.527
164.161, 1308.043
165.544, 1231.431
166.926, 1376.696
168.308, 1347.846
169.689, 1228.883
171.070, 1330.798
172.452, 1328.557
173.833, 1287.930
175.213, 1322.731
176.594, 1260.121
177.974, 1259.312
179.354, 1277.499
180.734, 1279.035
182.114, 1294.330
183.493, 1344.760
184.872, 1215.698
186.251, 1136.088
187.630, 865.509
189.008, 910.962
190.387, 862.447
191.765, 696.963
193.143, 798.511
194.520, 606.086
195.898, 516.689
197.275, 389.317
198.652, 591.969
200.029, 487.648
201.405, 488.354
202.782, 376.158
204.158, 367.016
205.534, 362.887
206.909, 253.769
208.285, 251.721
209.660, 184.772
211.035, 171.470
212.410, 120.385
213.784, 74.306
215.159, 149.226
216.533, 260.040
217.907, 281.924
219.281, 294.120
220.654, 353.624
222.027, 308.494
223.400, 429.790
224.773, 343.452
226.146, 348.570
227.518, 451.008
228.891, 393.905
230.263, 438.756
231.634, 451.758
233.006, 530.599
234.377, 498.438
235.748, 588.277
237.119, 617.113
238.490, 773.941
239.860, 918.762
241.231, 964.574
242.601, 1051.375
243.970, 1227.168
245.340, 1384.950
246.709, 1254.735
248.079, 1610.511
249.448, 1301.279
250.816, 1202.039
252.185, 831.791
253.553, 462.796
254.921, 443.312
256.289, 213.145
257.657, 43.640
259.024, 72.527
260.391, 34.434
261.758, 210.119
263.125, 50.658
264.492, 13.959
265.858, 81.277
267.224, 123.594
268.590, 120.422
269.956, 86.628
271.321, 68.233
272.687, 185.038
274.052, 201.823
275.416, 26.603
276.781, 4.340
278.146, 132.035
279.510, 1.271
280.874, 95.395
282.237, 92.941
283.601, 101.033
284.964, 80.686
286.327, 197.087
287.690, 170.505
289.053, 202.938
290.416, 433.381
291.778, 463.833
293.140, 634.292
294.502, 446.754
295.863, 663.218
297.225, 730.679
298.586, 667.133
299.947, 849.572
301.308, 789.994
302.668, 709.396
304.029, 840.782
305.389, 885.149
306.749, 909.501
308.108, 1053.835
309.468, 811.154
310.827, 1120.112
312.186, 1304.400
313.545, 1755.743
314.903, 2056.036
316.262, 2471.260
317.620, 3101.486
318.978, 3930.694
320.336, 4866.936
321.693, 5602.102
323.051, 6140.246
324.408, 6071.366
325.765, 5774.465
327.121, 4382.543
328.478, 3446.601
329.834, 2609.640
331.190, 1882.657
332.546, 1216.656
333.902, 1017.639
335.257, 527.603
336.612, 342.550
337.967, 360.446
339.322, 112.206
340.677, 181.927
342.031, 129.404
343.385, 205.148
344.739, 11.569
346.093, 36.142
347.446, 84.953
348.799, 62.140
350.153, 11.774
351.505, 5.711
352.858, 68.669
354.210, 83.663
355.563, 112.698
356.915, 9.216
358.267, 26.887
359.618, 32.016
360.969, 40.828
362.321, 5.341
363.672, 63.468
365.022, 7.729
366.373, 7.049
367.723, 103.810
369.073, 101.563
370.423, 177.310
371.773, 43.050
373.122, 132.778
374.471, 372.498
375.821, 305.212
377.169, 493.920
378.518, 423.619
379.866, 601.252
381.215, 649.835
382.563, 884.366
383.910, 988.852
385.258, 1234.250
386.605, 1758.574
387.952, 1845.845
389.299, 2522.087
390.646, 2997.304
391.992, 3748.504
393.339, 4874.703
394.685, 6056.891
396.031, 7768.076
397.376, 8999.263
398.722, 10101.443
400.067, 10181.623
401.412, 9293.897
402.757, 8205.071
404.101, 6395.242
405.446, 4843.410
406.790, 3762.574
408.134, 3012.936
409.478, 2367.096
410.821, 1773.253
412.165, 1514.407
413.508, 1451.560
414.851, 1187.710
416.193, 993.866
417.536, 893.027
418.878, 875.190
420.220, 868.354
421.562, 824.644
422.904, 804.624
424.245, 775.248
425.586, 635.462
426.927, 578.605
428.268, 534.036
429.609, 491.997
430.949, 488.801
432.289, 510.246
433.629, 547.230
434.969, 637.942
436.309, 736.531
437.648, 924.664
438.987, 1020.910
440.326, 1069.678
441.665, 1061.127
443.003, 1324.061
444.342, 1374.111
445.680, 1271.152
447.018, 1294.184
448.355, 1168.549
449.693, 939.982
451.030, 868.988
452.367, 726.420
453.704, 594.398
455.041, 541.381
456.377, 448.352
457.713, 423.312
459.049, 349.270
460.385, 395.219
461.721, 462.174
463.056, 386.117
464.391, 221.053
465.726, 312.979
467.061, 204.902
468.395, 151.818
469.730, 246.732
471.064, 7.346
472.398, 281.561
473.731, 41.465
475.065, 46.615
476.398, 93.729
477.731, 137.113
479.064, 74.965
480.397, 47.803
481.729, 67.633
483.062, 115.451
484.394, 158.260
485.725, 145.057
487.057, 150.672
488.389, 220.623
489.720, 132.430
491.051, 182.248
492.382, 232.057
493.712, 363.953
495.043, 162.844
496.373, 290.738
497.703, 149.637
499.032, 316.566
500.362, 372.484
501.691, 501.471
503.020, 326.580
504.349, 378.557
505.678, 487.461
507.007, 342.441
508.335, 533.348
509.663, 489.199
510.991, 504.723
512.319, 601.613
513.646, 741.537
514.973, 619.549
516.300, 911.746
517.627, 917.596
518.954, 874.188
520.280, 1219.441
521.607, 1058.697
522.933, 1143.629
524.259, 1198.594
525.584, 1108.400
526.910, 1302.113
528.235, 1345.436
529.560, 1409.766
530.885, 1282.090
532.209, 1163.402
533.534, 1320.725
534.858, 1347.039
536.182, 1310.354
537.506, 1217.664
538.829, 1185.977
540.152, 969.279
541.476, 1033.580
542.799, 636.875
544.121, 822.166
545.444, 663.451
546.766, 406.729
548.088, 434.002
549.410, 499.268
550.732, 379.525
552.053, 367.773
553.375, 122.016
554.696, 118.252
556.017, 138.477
557.337, 228.695
558.658, 140.904
559.978, 45.895
561.298, 319.309
562.618, 150.504
563.938, 43.689
565.257, 295.867
566.576, 3.965
567.895, 378.203
569.214, 352.361
570.533, 271.510
571.851, 232.896
573.170, 251.100
574.488, 237.170
575.805, 274.309
577.123, 213.570
578.440, 147.709
579.758, 412.836
581.075, 196.986
582.391, 330.135
583.708, 299.326
585.024, 114.625
586.341, 189.812
587.657, 299.008
588.972, 329.316
590.288, 73.666
591.603, 72.150
592.918, 58.639
594.233, 125.150
595.548, 175.629
596.863, 205.170
598.177, 191.512
599.491, 264.299
600.805, 140.521
602.119, 86.818
603.432, 97.621
604.746, 91.869
606.059, 4.779
607.372, 10.418
608.685, 119.773
609.997, 10.035
611.309, 179.119
612.621, 179.869
613.933, 755.186
615.245, 843.529
616.557, 510.293
617.868, 688.361
619.179, 501.145
620.490, 420.393
621.801, 863.867
623.111, 499.562
624.421, 887.162
625.731, 369.424
627.041, 734.820
628.351, 238.441
629.660, 228.463
630.970, 499.646
632.279, 273.734
633.588, 314.371
634.896, 409.107
636.205, 342.367
637.513, 260.543
638.821, 357.826
640.129, 385.852
641.437, 446.316
642.744, 612.973
644.051, 622.803
645.358, 769.684
646.665, 862.564
647.972, 792.654
649.278, 762.324
650.584, 766.934
651.890, 1028.787
653.196, 871.422
654.502, 970.787
655.807, 833.854
657.113, 923.084
658.418, 977.375
659.722, 1112.547
661.027, 1015.607
662.331, 1151.514
663.636, 1487.467
664.940, 1347.857
666.244, 1853.121
667.547, 2018.398
668.851, 2652.582
670.154, 3047.867
671.457, 3180.695
672.760, 4299.523
674.062, 4869.143
675.365, 6138.111
676.667, 7930.344
677.969, 10432.984
679.271, 13330.145
680.572, 17462.051
681.874, 23284.619
683.175, 29606.297
684.476, 34996.199
685.777, 38343.730
687.077, 36755.777
688.378, 32751.574
689.678, 26683.064
690.978, 20612.994
692.278, 15221.430
693.577, 12649.119
694.877, 9400.887
696.176, 7813.125
697.475, 6114.592
698.774, 5223.082
700.072, 4436.357
701.371, 3445.666
702.669, 2829.797
703.967, 2626.826
705.265, 2518.508
706.562, 2036.957
707.860, 1532.365
709.157, 1693.949
710.454, 1365.275
711.751, 1412.705
713.047, 1029.195
714.344, 1161.398
715.640, 800.557
716.936, 834.402
718.232, 994.865
719.527, 742.148
720.823, 661.516
722.118, 842.527
723.413, 549.463
724.708, 634.557
726.002, 796.375
727.297, 257.100
728.591, 647.205
729.885, 657.154
731.179, 377.734
732.472, 291.629
733.766, 378.123
735.059, 389.631
736.352, 328.891
737.645, 345.309
738.937, 434.682
740.230, 305.045
741.522, 383.467
742.814, 348.865
744.106, 299.195
745.397, 294.336
746.689, 258.432
747.980, 259.486
749.271, 262.221
750.562, 279.420
751.853, 259.320
753.143, 287.170
754.433, 233.971
755.723, 118.721
757.013, 412.414
758.303, 200.061
759.592, 330.656
760.881, 301.203
762.170, 293.361
763.459, 373.393
764.748, 111.795
766.036, 546.713
767.325, 182.012
768.613, 281.256
769.901, 270.453
771.188, 64.600
772.476, 395.684
773.763, 9.719
775.050, 274.674
776.337, 216.578
777.624, 158.432
778.910, 64.230
780.196, 251.971
781.482, 34.656
782.768, 8.271
784.054, 136.809
785.339, 37.295
786.625, 34.287
787.910, 124.027
789.195, 12.695
790.479, 9.516
791.764, 232.646
793.048, 179.729
794.332, 322.258
795.616, 408.738
796.900, 410.676
798.183, 275.564
799.467, 73.404
800.750, 69.812
802.033, 26.148
803.316, 288.418
804.598, 307.062
805.880, 62.215
807.163, 9.436
808.445, 3.422
809.726, 79.359
811.008, 109.580
812.289, 228.533
813.570, 107.158
814.851, 37.793
816.132, 129.629
817.413, 211.199
818.693, 23.045
819.973, 10.775
821.253, 171.678
822.533, 23.256
823.813, 19.123
825.092, 136.070
826.371, 57.408
827.650, 86.848
828.929, 20.594
830.208, 55.975
831.486, 27.520
832.764, 21.457
834.042, 130.299
835.320, 0.729
836.598, 127.686
837.875, 71.404
839.152, 19.598
840.429, 398.133
841.706, 55.822
842.983, 8.539
844.259, 262.033
845.536, 4.564
846.812, 37.035
848.088, 4.541
849.363, 115.820
850.639, 49.139
851.914, 31.408
853.189, 70.633
854.464, 48.961
855.739, 78.783
857.013, 90.035
858.288, 161.082
859.562, 209.088
860.836, 321.055
862.110, 144.986
863.383, 352.877
864.656, 155.730
865.930, 127.545
867.203, 269.324
868.475, 184.064
869.748, 73.229
871.020, 81.404
872.292, 110.996
873.564, 76.551
874.836, 149.148
876.108, 38.447
877.379, 101.980
878.650, 163.371
879.922, 11.268
881.192, 46.197
882.463, 81.062
883.733, 58.713
885.004, 48.549
886.274, 61.566
887.544, 245.484
888.813, 78.494
890.083, 224.461
891.352, 210.383
892.621, 22.723
893.890, 79.031
895.159, 68.855
896.427, 71.650
897.695, 309.287
898.964, 102.877
900.232, 295.287
901.499, 228.676
902.767, 586.049
904.034, 718.469
905.301, 294.779
906.568, 449.178
907.835, 447.332
909.102, 470.887
910.368, 357.391
911.634, 416.332
912.900, 519.793
914.166, 849.109
915.432, 328.379
916.697, 278.773
917.962, 602.129
919.227, 332.486
920.492, 576.209
921.757, 541.328
923.021, 516.381
924.285, 513.977
925.550, 417.230
926.813, 329.734
928.077, 283.736
929.341, 332.479
930.604, 557.961
931.867, 344.502
933.130, 326.346
934.393, 461.021
935.655, 101.438
936.918, 643.764
938.180, 296.551
939.442, 153.328
940.703, 448.559
941.965, 343.711
943.226, 400.326
944.488, 249.910
945.749, 405.346
947.009, 271.342
948.270, 153.326
949.530, 281.303
950.791, 309.107
952.051, 179.830
953.311, 75.521
954.570, 135.102
955.830, 280.809
957.089, 226.674
958.348, 265.264
959.607, 353.039
960.866, 153.064
962.124, 51.410
963.383, 197.559
964.641, 248.619
965.899, 441.818
967.156, 340.150
968.414, 164.609
969.671, 364.998
970.928, 141.947
972.185, 289.029
973.442, 326.084
974.699, 465.219
975.955, 452.252
977.211, 194.748
978.468, 350.246
979.723, 385.973
980.979, 284.330
982.234, 830.418
983.490, 167.100
984.745, 563.240
986.000, 801.629
987.254, 549.326
988.509, 1029.904
989.763, 1006.270
991.017, 873.990
992.271, 1086.178
993.525, 1249.598
994.779, 1701.301
996.032, 2015.572
997.285, 2198.312
998.538, 2060.795
999.791, 3259.178
1001.044, 2812.061
1002.296, 3669.693
1003.548, 3645.277
1004.800, 3719.074
1006.052, 4023.809
1007.304, 3960.703
1008.555, 4285.672
1009.807, 4391.969
1011.058, 4322.506
1012.309, 4428.074
1013.559, 4191.512
1014.810, 3941.188
1016.060, 4014.760
1017.310, 3784.250
1018.560, 3486.014
1019.810, 3347.801
1021.060, 3557.805
1022.309, 3310.270
1023.558, 3501.891
1024.807, 3159.408
1026.056, 3045.264
1027.305, 3058.980
1028.553, 3183.713
1029.801, 2862.713
1031.049, 2990.785
1032.297, 2964.457
1033.545, 3284.266
1034.793, 3070.426
1036.040, 3276.320
1037.287, 3390.598
1038.534, 3753.842
1039.781, 4097.318
1041.027, 4007.615
1042.274, 4350.945
1043.520, 4688.266
1044.766, 4953.523
1046.012, 5368.789
1047.257, 5889.141
1048.503, 6625.658
1049.748, 7068.211
1050.993, 8334.797
1052.238, 9031.430
1053.483, 9846.096
1054.727, 10932.791
1055.971, 12247.383
1057.216, 14018.289
1058.459, 15541.090
1059.703, 16947.922
1060.947, 19137.787
1062.190, 20569.682
1063.433, 22072.605
1064.676, 23325.564
1065.919, 24000.561
1067.162, 25352.580
1068.404, 24638.637
1069.646, 24556.729
1070.888, 24614.846
1072.130, 23359.998
1073.372, 22403.176
1074.613, 21476.396
1075.855, 20007.648
1077.096, 18655.941
1078.337, 17872.266
1079.578, 15849.619
1080.818, 14835.004
1082.059, 13537.430
1083.299, 12533.887
1084.539, 11417.379
1085.779, 10513.961
1087.018, 9553.531
1088.258, 8840.141
1089.497, 8118.807
1090.736, 7646.500
1091.975, 7166.246
1093.213, 6621.033
1094.452, 6599.848
1095.690, 5882.693
1096.928, 5959.562
1098.166, 5576.459
1099.404, 5535.381
1100.642, 5021.328
1101.879, 5105.309
1103.116, 4816.350
1104.353, 4894.443
1105.590, 4491.559
1106.827, 4874.797
1108.063, 4912.068
1109.299, 4949.764
1110.536, 4451.461
1111.771, 4132.873
1113.007, 4233.309
1114.243, 4242.340
1115.478, 4086.996
1116.713, 4051.588
1117.948, 4172.248
1119.183, 3717.203
1120.418, 4161.988
1121.652, 4782.115
1122.886, 4790.021
1124.120, 4649.164
1125.354, 3830.129
1126.588, 3920.160
1127.821, 3408.238
1129.055, 3657.568
1130.288, 3618.730
1131.521, 3621.988
1132.753, 3104.213
1133.986, 3320.480
1135.218, 3649.803
1136.450, 3173.074
1137.682, 3578.594
1138.914, 3137.818
1140.146, 3303.406
1141.377, 3056.398
1142.609, 3033.057
1143.840, 3305.537
1145.071, 3062.258
1146.301, 3026.416
1147.532, 3078.523
1148.762, 2609.600
1149.992, 2499.883
1151.222, 2455.783
1152.452, 2389.877
1153.682, 1981.850
1154.911, 2113.648
1156.140, 1893.105
1157.369, 1649.709
1158.598, 1609.814
1159.827, 1614.244
1161.055, 1457.395
1162.284, 1245.939
1163.512, 1256.400
1164.740, 1132.695
1165.967, 1037.258
1167.195, 936.391
1168.422, 664.857
1169.650, 749.307
1170.877, 546.096
1172.103, 449.920
1173.330, 532.504
1174.557, 802.084
1175.783, 648.707
1177.009, 229.955
1178.235, 723.643
1179.461, 410.029
1180.686, 433.797
1181.912, 578.002
1183.137, 616.865
1184.362, 375.836
1185.587, 364.760
1186.811, 463.715
1188.036, 196.717
1189.260, 463.447
1190.484, 532.678
1191.708, 636.650
1192.932, 279.527
1194.155, 250.795
1195.378, 401.375
1196.602, 449.791
1197.825, 400.439
1199.047, 518.199
1200.270, 325.049
1201.492, 617.836
1202.715, 147.184
1203.937, 403.158
1205.159, 389.688
1206.380, 387.949
1207.602, 142.164
1208.823, 379.408
1210.044, 396.623
1211.265, 236.764
1212.486, 352.955
1213.707, 217.117
1214.927, 221.365
1216.147, 246.051
1217.367, 227.543
1218.587, 247.684
1219.807, 313.836
1221.027, 201.898
1222.246, 188.051
1223.465, 428.906
1224.684, 361.750
1225.903, 379.043
1227.121, 151.820
1228.340, 300.594
1229.558, 252.332
1230.776, 407.066
1231.994, 50.203
1233.212, 431.301
1234.429, 360.168
1235.646, 327.629
1236.864, 660.027
1238.081, 173.281
1239.297, 303.484
1240.514, 453.598
1241.730, 187.648
1242.947, 60.855
1244.163, 144.777
1245.378, 359.660
1246.594, 273.465
1247.810, 343.789
1249.025, 412.516
1250.240, 269.152
1251.455, 268.770
1252.670, 139.297
1253.885, 175.828
1255.099, 43.770
1256.313, 234.430
1257.527, 133.793
1258.741, 102.949
1259.955, 232.957
1261.168, 18.336
1262.382, 94.266
1263.595, 70.324
1264.808, 32.852
1266.021, 63.895
1267.233, 57.035
1268.446, 149.594
1269.658, 73.738
1270.870, 130.785
1272.082, 134.250
1273.294, 157.691
1274.505, 26.184
1275.716, 164.480
1276.928, 45.258
1278.139, 329.941
1279.349, 143.668
1280.560, 133.309
1281.770, 37.027
1282.981, 73.379
1284.191, 65.250
1285.401, 94.934
1286.610, 55.422
1287.820, 9.766
1289.029, 88.895
1290.239, 123.629
1291.448, 77.652
1292.656, 62.078
1293.865, 85.695
1295.073, 50.793
1296.282, 163.191
1297.490, 45.688
1298.698, 301.840
1299.906, 16.387
1301.113, 81.949
1302.320, 60.520
1303.528, 78.895
1304.735, 17.371
1305.942, 219.922
1307.148, 170.543
1308.355, 56.992
1309.561, 348.445
1310.767, 15.805
1311.973, 264.156
1313.179, 45.527
1314.384, 274.770
1315.590, 170.059
1316.795, 175.344
1318.000, 61.637
1319.205, 295.922
1320.410, 274.207
1321.614, 30.500
1322.819, 346.797
1324.023, 127.113
1325.227, 575.438
1326.431, 195.781
1327.634, 174.855
1328.838, 100.961
1330.041, 325.352
1331.244, 372.773
1332.447, 401.422
1333.650, 90.727
1334.852, 292.273
1336.055, 63.875
1337.257, 102.523
1338.459, 10.762
1339.661, 264.016
1340.862, 120.258
1342.064, 113.852
1343.265, 60.230
1344.466, 94.660
1345.667, 186.984
1346.868, 129.484
1348.068, 168.844
1349.269, 123.461
1350.469, 344.812
1351.669, 447.562
1352.869, 384.457
1354.069, 538.109
1355.268, 99.895
1356.468, 528.949
1357.667, 524.656
1358.866, 196.078
1360.065, 472.305
1361.263, 268.488
1362.462, 402.055
1363.660, 497.141
1364.858, 393.523
1366.056, 260.945
1367.254, 579.902
1368.451, 505.820
1369.649, 177.629
1370.846, 471.176
1372.043, 337.262
1373.240, 379.574
1374.436, 401.828
1375.633, 419.438
1376.829, 388.141
1378.025, 175.930
1379.221, 414.859
1380.417, 484.590
1381.613, 232.648
1382.808, 382.531
1384.003, 323.188
1385.199, 547.129
1386.393, 157.352
1387.588, 403.695
1388.783, 269.523
1389.977, 425.766
1391.171, 173.426
1392.365, 59.684
1393.559, 383.262
1394.753, 164.781
1395.946, 280.270
1397.140, 146.938
1398.333, 251.492
1399.526, 183.215
1400.719, 243.980
1401.911, 227.625
1403.104, 186.988
1404.296, 63.164
1405.488, 276.160
1406.680, 84.957
1407.872, 244.500
1409.063, 384.793
1410.255, 33.629
1411.446, 290.410
1412.637, 101.355
1413.828, 494.160
1415.018, 267.852
1416.209, 118.016
1417.399, 93.461
1418.589, 448.168
1419.779, 285.094
1420.969, 349.555
1422.159, 1.801
1423.348, 0.000
##END=



