##NAMES=Beryl
##RRUFFID=R050065
##IDEAL CHEMISTRY=Be_3_Al_2_Si_6_O_18_
##LOCALITY=Xuebaoding, Sichuan Province, China
##OWNER=RRUFF
##SOURCE=Rock Currier
##DESCRIPTION=Light blue colored tabular single crystal
##STATUS=The identification of this mineral has been confirmed by X-ray diffraction and chemical analysis
##URL=rruff.info/R050065
##MEASURED CHEMISTRY=(Be_2.78_Li_0.22_)_Σ=3_Al_2.00_Si_6.00_O_18_·Na_0.22_
##PIN_ID=L00371
##ORIENTATION=Laser parallel to c* (0 0 1). Fiducial mark perpendicular to laser is parallel to a [1 0 0]
98.947, 0.000
100.340, 6.150
101.732, 1.687
103.124, 2.618
104.516, 257.100
105.908, 323.900
107.300, 508.739
108.691, 787.889
110.082, 976.377
111.473, 1159.766
112.864, 1529.963
114.254, 1852.404
115.644, 2274.633
117.034, 2396.953
118.424, 2318.847
119.813, 2566.973
121.203, 2579.056
122.592, 2384.820
123.981, 2328.026
125.369, 2169.483
126.758, 2191.035
128.146, 2077.947
129.534, 2221.453
130.922, 2088.645
132.309, 2236.227
133.696, 2030.180
135.083, 2199.491
136.470, 2002.150
137.857, 2222.207
139.243, 2065.940
140.630, 1949.273
142.016, 1810.924
143.401, 1675.003
144.787, 1666.932
146.172, 1424.151
147.557, 1263.501
148.942, 1169.977
150.327, 1248.580
151.711, 1099.309
153.096, 1296.164
154.480, 1325.151
155.863, 1355.275
157.247, 1497.638
158.630, 1379.505
160.013, 1393.542
161.396, 1467.018
162.779, 1462.898
164.161, 1459.937
165.544, 1397.138
166.926, 1379.498
168.308, 1332.021
169.689, 1253.693
171.070, 1346.505
172.452, 1290.447
173.833, 1164.645
175.213, 1183.197
176.594, 933.676
177.974, 1033.968
179.354, 1020.031
180.734, 872.555
182.114, 847.391
183.493, 919.590
184.872, 710.554
186.251, 780.679
187.630, 582.566
189.008, 645.757
190.387, 612.007
191.765, 561.326
193.143, 532.717
194.520, 465.181
195.898, 487.721
197.275, 464.337
198.652, 458.028
200.029, 299.797
201.405, 377.640
202.782, 191.573
204.158, 260.584
205.534, 325.703
206.909, 109.950
208.285, 92.306
209.660, 97.733
211.035, 160.779
212.410, 35.759
213.784, 138.658
215.159, 124.025
216.533, 81.345
217.907, 163.391
219.281, 37.026
220.654, 128.497
222.027, 25.183
223.400, 60.775
224.773, 106.291
226.146, 130.476
227.518, 180.852
228.891, 149.397
230.263, 154.145
231.634, 227.995
233.006, 125.896
234.377, 115.919
235.748, 213.016
237.119, 256.161
238.490, 300.279
239.860, 116.363
241.231, 242.385
242.601, 170.395
243.970, 177.421
245.340, 213.449
246.709, 2.476
248.079, 220.496
249.448, 2.489
250.816, 174.517
252.185, 62.517
253.553, 30.493
254.921, 104.487
256.289, 76.543
257.657, 61.587
259.024, 15.647
260.391, 54.737
261.758, 16.879
263.125, 45.945
264.492, 36.108
265.858, 74.213
267.224, 72.583
268.590, 66.491
269.956, 214.866
271.321, 161.587
272.687, 34.615
274.052, 25.096
275.416, 71.416
276.781, 74.126
278.146, 21.010
279.510, 202.048
280.874, 156.223
282.237, 389.520
283.601, 305.927
284.964, 426.433
286.327, 663.026
287.690, 705.703
289.053, 896.457
290.416, 1277.279
291.778, 1303.166
293.140, 1441.110
294.502, 1281.105
295.863, 1130.135
297.225, 930.201
298.586, 702.298
299.947, 661.501
301.308, 343.655
302.668, 276.835
304.029, 471.322
305.389, 426.544
306.749, 341.783
308.108, 577.988
309.468, 452.259
310.827, 550.368
312.186, 634.670
313.545, 783.672
314.903, 1122.832
316.262, 1248.167
317.620, 1556.175
318.978, 1839.900
320.336, 2030.268
321.693, 2256.518
323.051, 2515.730
324.408, 2259.790
325.765, 2158.861
327.121, 1536.939
328.478, 1147.212
329.834, 996.545
331.190, 529.670
332.546, 247.982
333.902, 263.166
335.257, 0.565
336.612, 91.517
337.967, 52.377
339.322, 10.939
340.677, 29.856
342.031, 111.593
343.385, 100.946
344.739, 12.730
346.093, 82.975
347.446, 74.197
348.799, 47.634
350.153, 241.711
351.505, 55.611
352.858, 150.689
354.210, 199.185
355.563, 147.308
356.915, 239.830
358.267, 265.191
359.618, 258.144
360.969, 330.045
362.321, 308.873
363.672, 251.780
365.022, 404.708
366.373, 287.617
367.723, 414.651
369.073, 439.583
370.423, 537.730
371.773, 380.249
373.122, 519.260
374.471, 834.958
375.821, 723.333
377.169, 1024.532
378.518, 912.378
379.866, 989.669
381.215, 1365.773
382.563, 1577.471
383.910, 1823.772
385.258, 2290.490
386.605, 2910.814
387.952, 3274.465
389.299, 4380.998
390.646, 5407.648
391.992, 6928.041
393.339, 8702.412
394.685, 10915.764
396.031, 13344.094
397.376, 14961.398
398.722, 16412.684
400.067, 15924.944
401.412, 14424.184
402.757, 12442.399
404.101, 9922.591
405.446, 7596.761
406.790, 6076.906
408.134, 5119.029
409.478, 4283.066
410.821, 3692.143
412.165, 3195.021
413.508, 3073.047
414.851, 3112.049
416.193, 2961.990
417.536, 3103.944
418.878, 3277.015
420.220, 3224.677
421.562, 3165.063
422.904, 3022.885
424.245, 2808.114
425.586, 2430.921
426.927, 2165.446
428.268, 1711.249
429.609, 1404.043
430.949, 1305.326
432.289, 1152.096
433.629, 1000.850
434.969, 1161.587
436.309, 1065.374
437.648, 1117.073
438.987, 975.750
440.326, 807.407
441.665, 911.040
443.003, 798.765
444.342, 658.739
445.680, 708.301
447.018, 748.910
448.355, 550.775
449.693, 548.309
451.030, 540.764
452.367, 552.904
453.704, 347.840
455.041, 290.898
456.377, 235.290
457.713, 278.926
459.049, 351.245
460.385, 170.497
461.721, 358.718
463.056, 231.188
464.391, 80.347
465.726, 259.743
467.061, 211.827
468.395, 99.255
469.730, 253.265
471.064, 3.090
472.398, 223.282
473.731, 10.151
475.065, 84.952
476.398, 263.704
477.731, 125.660
479.064, 149.341
480.397, 212.174
481.729, 218.781
483.062, 208.355
484.394, 333.895
485.725, 250.402
487.057, 291.893
488.389, 200.352
489.720, 189.775
491.051, 243.188
492.382, 201.562
493.712, 235.961
495.043, 116.324
496.373, 80.758
497.703, 264.031
499.032, 204.879
500.362, 85.604
501.691, 162.758
503.020, 73.684
504.349, 134.342
505.678, 63.775
507.007, 80.572
508.335, 36.744
509.663, 120.031
510.991, 37.457
512.319, 55.977
513.646, 30.602
514.973, 72.297
516.300, 48.902
517.627, 59.961
518.954, 164.930
520.280, 120.936
521.607, 318.791
522.933, 37.623
524.259, 71.434
525.584, 52.811
526.910, 33.842
528.235, 5.557
529.560, 189.969
530.885, 49.455
532.209, 33.883
533.534, 172.273
534.858, 94.652
536.182, 72.986
537.506, 119.289
538.829, 300.586
540.152, 119.859
541.476, 270.111
542.799, 35.633
544.121, 249.543
545.444, 148.682
546.766, 243.777
548.088, 268.834
549.410, 236.865
550.732, 530.857
552.053, 629.814
553.375, 406.770
554.696, 660.688
556.017, 692.570
557.337, 699.418
558.658, 778.229
559.978, 890.002
561.298, 1021.742
562.618, 950.453
563.938, 956.127
565.257, 1074.768
566.576, 1018.371
567.895, 1266.936
569.214, 1327.469
570.533, 1301.963
571.851, 1289.424
573.170, 1720.848
574.488, 1437.238
575.805, 1549.596
577.123, 1406.916
578.440, 1356.215
579.758, 1483.486
581.075, 1149.729
582.391, 1253.941
583.708, 1066.121
585.024, 739.268
586.341, 775.383
587.657, 837.461
588.972, 791.506
590.288, 531.523
591.603, 440.504
592.918, 425.449
594.233, 498.361
595.548, 498.238
596.863, 448.779
598.177, 350.885
599.491, 321.652
600.805, 284.385
602.119, 219.080
603.432, 341.736
604.746, 294.355
606.059, 226.938
607.372, 140.480
608.685, 371.979
609.997, 169.439
611.309, 108.859
612.621, 56.229
613.933, 299.539
615.245, 233.814
616.557, 302.051
617.868, 354.250
619.179, 343.336
620.490, 243.463
621.801, 508.553
623.111, 241.320
624.421, 368.338
625.731, 218.316
627.041, 366.312
628.351, 169.221
629.660, 190.270
630.970, 438.104
632.279, 302.814
633.588, 358.145
634.896, 239.877
636.205, 382.912
637.513, 249.207
638.821, 377.764
640.129, 540.303
641.437, 477.904
642.744, 430.434
644.051, 543.039
645.358, 550.502
646.665, 571.988
647.972, 480.158
649.278, 442.506
650.584, 609.221
651.890, 710.453
653.196, 627.568
654.502, 622.986
655.807, 583.240
657.113, 657.277
658.418, 678.578
659.722, 827.217
661.027, 901.795
662.331, 930.072
663.636, 1309.789
664.940, 1167.994
666.244, 1715.090
667.547, 1677.908
668.851, 2145.869
670.154, 2482.615
671.457, 3071.773
672.760, 3774.281
674.062, 4636.533
675.365, 5835.867
676.667, 7724.572
677.969, 10064.215
679.271, 13439.266
680.572, 17721.572
681.874, 24018.236
683.175, 30915.869
684.476, 36987.617
685.777, 40944.012
687.077, 40057.242
688.378, 35797.051
689.678, 28887.586
690.978, 22545.594
692.278, 16784.557
693.577, 14002.883
694.877, 10517.824
696.176, 8770.256
697.475, 6925.441
698.774, 5934.961
700.072, 4991.227
701.371, 4266.383
702.669, 3604.854
703.967, 3522.930
705.265, 3265.111
706.562, 2728.102
707.860, 2388.307
709.157, 2285.268
710.454, 1873.426
711.751, 1986.592
713.047, 1680.699
714.344, 1687.783
715.640, 1292.846
716.936, 1445.883
718.232, 1316.602
719.527, 1249.592
720.823, 1216.561
722.118, 1266.502
723.413, 1091.426
724.708, 1049.324
726.002, 1224.203
727.297, 935.057
728.591, 1030.887
729.885, 1129.699
731.179, 928.488
732.472, 897.256
733.766, 902.002
735.059, 894.729
736.352, 760.432
737.645, 736.115
738.937, 853.777
740.230, 626.422
741.522, 631.043
742.814, 762.643
744.106, 666.225
745.397, 726.785
746.689, 605.326
747.980, 693.850
749.271, 617.354
750.562, 774.840
751.853, 439.305
753.143, 724.750
754.433, 801.180
755.723, 487.588
757.013, 946.867
758.303, 586.854
759.592, 956.211
760.881, 925.477
762.170, 817.445
763.459, 918.697
764.748, 504.986
766.036, 940.547
767.325, 422.268
768.613, 657.820
769.901, 533.996
771.188, 400.881
772.476, 532.039
773.763, 150.219
775.050, 467.383
776.337, 210.256
777.624, 437.393
778.910, 295.240
780.196, 367.355
781.482, 220.084
782.768, 196.178
784.054, 233.650
785.339, 337.270
786.625, 143.346
787.910, 396.428
789.195, 123.506
790.479, 148.334
791.764, 202.947
793.048, 105.803
794.332, 125.838
795.616, 56.863
796.900, 145.879
798.183, 43.119
799.467, 102.836
800.750, 26.871
802.033, 57.355
803.316, 292.523
804.598, 195.605
805.880, 96.139
807.163, 103.873
808.445, 0.605
809.726, 62.326
811.008, 0.035
812.289, 79.275
813.570, 131.363
814.851, 151.996
816.132, 144.480
817.413, 170.324
818.693, 134.990
819.973, 103.689
821.253, 114.412
822.533, 4.818
823.813, 133.965
825.092, 70.225
826.371, 22.340
827.650, 28.467
828.929, 110.279
830.208, 57.125
831.486, 122.973
832.764, 33.137
834.042, 152.330
835.320, 10.404
836.598, 13.139
837.875, 54.096
839.152, 11.350
840.429, 227.406
841.706, 59.160
842.983, 120.078
844.259, 166.633
845.536, 37.658
846.812, 37.037
848.088, 99.262
849.363, 6.391
850.639, 46.043
851.914, 158.303
853.189, 77.271
854.464, 81.879
855.739, 377.482
857.013, 33.092
858.288, 44.299
859.562, 116.291
860.836, 178.885
862.110, 143.521
863.383, 159.006
864.656, 2.531
865.930, 166.059
867.203, 49.590
868.475, 173.121
869.748, 120.387
871.020, 45.805
872.292, 73.721
873.564, 49.248
874.836, 138.781
876.108, 177.520
877.379, 219.861
878.650, 201.410
879.922, 155.961
881.192, 36.521
882.463, 40.086
883.733, 70.656
885.004, 179.234
886.274, 175.818
887.544, 372.410
888.813, 338.258
890.083, 345.627
891.352, 309.232
892.621, 241.857
893.890, 165.490
895.159, 39.129
896.427, 114.781
897.695, 123.002
898.964, 195.107
900.232, 323.789
901.499, 362.477
902.767, 447.105
904.034, 385.883
905.301, 567.604
906.568, 598.332
907.835, 637.072
909.102, 392.824
910.368, 394.588
911.634, 585.361
912.900, 423.148
914.166, 580.947
915.432, 275.758
916.697, 137.588
917.962, 526.428
919.227, 219.283
920.492, 451.156
921.757, 413.057
923.021, 339.967
924.285, 569.893
925.550, 242.830
926.813, 196.781
928.077, 216.744
929.341, 164.725
930.604, 330.717
931.867, 116.725
933.130, 103.744
934.393, 361.781
935.655, 53.166
936.918, 206.889
938.180, 114.963
939.442, 107.051
940.703, 47.152
941.965, 217.270
943.226, 35.598
944.488, 218.543
945.749, 319.699
947.009, 104.869
948.270, 51.906
949.530, 106.107
950.791, 221.213
952.051, 8.553
953.311, 111.547
954.570, 162.689
955.830, 43.941
957.089, 36.631
958.348, 87.918
959.607, 132.223
960.866, 142.682
962.124, 111.703
963.383, 204.975
964.641, 90.387
965.899, 165.787
967.156, 195.207
968.414, 110.646
969.671, 30.105
970.928, 109.580
972.185, 275.076
973.442, 52.602
974.699, 309.139
975.955, 220.760
977.211, 10.467
978.468, 500.320
979.723, 297.963
980.979, 227.676
982.234, 739.412
983.490, 229.256
984.745, 524.752
986.000, 707.900
987.254, 458.652
988.509, 1122.449
989.763, 883.996
991.017, 1150.980
992.271, 1295.906
993.525, 1511.857
994.779, 2015.596
996.032, 1961.598
997.285, 2461.514
998.538, 2107.562
999.791, 2670.941
1001.044, 2167.039
1002.296, 2436.168
1003.548, 2232.162
1004.800, 2071.406
1006.052, 2024.672
1007.304, 1761.967
1008.555, 1745.338
1009.807, 1602.701
1011.058, 1396.143
1012.309, 1335.654
1013.559, 1165.410
1014.810, 886.975
1016.060, 1096.535
1017.310, 994.152
1018.560, 727.820
1019.810, 831.551
1021.060, 880.379
1022.309, 529.525
1023.558, 811.438
1024.807, 505.375
1026.056, 622.369
1027.305, 531.420
1028.553, 765.498
1029.801, 536.658
1031.049, 417.842
1032.297, 550.119
1033.545, 657.422
1034.793, 449.750
1036.040, 518.166
1037.287, 562.639
1038.534, 690.152
1039.781, 761.688
1041.027, 801.314
1042.274, 858.865
1043.520, 811.459
1044.766, 879.107
1046.012, 756.777
1047.257, 689.473
1048.503, 1091.186
1049.748, 979.920
1050.993, 1482.674
1052.238, 1631.447
1053.483, 1475.242
1054.727, 1623.057
1055.971, 1873.117
1057.216, 2138.736
1058.459, 2603.605
1059.703, 2773.498
1060.947, 3353.406
1062.190, 3636.330
1063.433, 4018.273
1064.676, 4258.238
1065.919, 4359.221
1067.162, 4550.258
1068.404, 4572.238
1069.646, 4684.270
1070.888, 4708.322
1072.130, 4688.393
1073.372, 4396.477
1074.613, 4570.578
1075.855, 4417.697
1077.096, 3782.834
1078.337, 3899.986
1079.578, 3370.156
1080.818, 3170.340
1082.059, 2998.541
1083.299, 2749.758
1084.539, 2477.988
1085.779, 2218.178
1087.018, 1895.439
1088.258, 2045.719
1089.497, 1716.012
1090.736, 1496.320
1091.975, 1146.641
1093.213, 1324.426
1094.452, 1292.777
1095.690, 1037.145
1096.928, 1026.527
1098.166, 1004.924
1099.404, 1151.336
1100.642, 803.779
1101.879, 982.148
1103.116, 945.777
1104.353, 1041.287
1105.590, 460.811
1106.827, 788.406
1108.063, 625.240
1109.299, 843.859
1110.536, 610.070
1111.771, 523.725
1113.007, 687.395
1114.243, 719.953
1115.478, 559.682
1116.713, 721.668
1117.948, 789.680
1119.183, 556.490
1120.418, 335.482
1121.652, 581.268
1122.886, 712.004
1124.120, 748.730
1125.354, 346.736
1126.588, 494.803
1127.821, 476.883
1129.055, 743.662
1130.288, 846.898
1131.521, 690.916
1132.753, 624.455
1133.986, 590.162
1135.218, 902.609
1136.450, 496.580
1137.682, 918.557
1138.914, 654.697
1140.146, 706.363
1141.377, 676.934
1142.609, 723.311
1143.840, 775.525
1145.071, 1030.771
1146.301, 732.607
1147.532, 918.916
1148.762, 658.834
1149.992, 723.016
1151.222, 517.521
1152.452, 790.830
1153.682, 304.748
1154.911, 600.014
1156.140, 283.303
1157.369, 266.064
1158.598, 233.412
1159.827, 401.824
1161.055, 191.309
1162.284, 275.660
1163.512, 182.350
1164.740, 252.307
1165.967, 254.670
1167.195, 399.139
1168.422, 258.512
1169.650, 281.314
1170.877, 196.549
1172.103, 300.320
1173.330, 235.461
1174.557, 460.377
1175.783, 415.562
1177.009, 169.494
1178.235, 466.783
1179.461, 523.736
1180.686, 499.355
1181.912, 723.846
1183.137, 674.607
1184.362, 599.889
1185.587, 633.520
1186.811, 884.990
1188.036, 705.045
1189.260, 957.293
1190.484, 750.584
1191.708, 885.629
1192.932, 700.664
1194.155, 470.559
1195.378, 745.652
1196.602, 902.377
1197.825, 843.463
1199.047, 997.580
1200.270, 652.246
1201.492, 1072.014
1202.715, 595.637
1203.937, 933.236
1205.159, 870.609
1206.380, 999.168
1207.602, 648.705
1208.823, 635.221
1210.044, 908.717
1211.265, 790.174
1212.486, 827.627
1213.707, 809.057
1214.927, 928.463
1216.147, 851.850
1217.367, 1215.514
1218.587, 902.082
1219.807, 984.416
1221.027, 1166.730
1222.246, 981.268
1223.465, 1262.535
1224.684, 1619.957
1225.903, 1303.430
1227.121, 1203.633
1228.340, 1369.832
1229.558, 1324.023
1230.776, 1282.207
1231.994, 1191.381
1233.212, 1391.553
1234.429, 1337.715
1235.646, 1098.867
1236.864, 1222.012
1238.081, 969.145
1239.297, 1183.268
1240.514, 1025.383
1241.730, 800.482
1242.947, 645.574
1244.163, 634.648
1245.378, 643.709
1246.594, 523.758
1247.810, 391.775
1249.025, 652.717
1250.240, 370.869
1251.455, 424.760
1252.670, 368.629
1253.885, 191.486
1255.099, 346.305
1256.313, 115.094
1257.527, 415.844
1258.741, 434.568
1259.955, 57.264
1261.168, 261.918
1262.382, 205.463
1263.595, 204.973
1264.808, 258.381
1266.021, 363.664
1267.233, 13.092
1268.446, 203.104
1269.658, 172.770
1270.870, 316.105
1272.082, 230.893
1273.294, 23.457
1274.505, 77.053
1275.716, 28.881
1276.928, 53.717
1278.139, 145.822
1279.349, 110.854
1280.560, 185.818
1281.770, 78.719
1282.981, 80.531
1284.191, 64.375
1285.401, 23.129
1286.610, 29.842
1287.820, 45.506
1289.029, 67.650
1290.239, 65.688
1291.448, 127.203
1292.656, 62.672
1293.865, 25.094
1295.073, 84.465
1296.282, 180.211
1297.490, 18.000
1298.698, 131.156
1299.906, 84.266
1301.113, 157.680
1302.320, 170.273
1303.528, 45.828
1304.735, 126.008
1305.942, 66.715
1307.148, 84.375
1308.355, 54.500
1309.561, 134.520
1310.767, 56.004
1311.973, 78.621
1313.179, 233.324
1314.384, 167.832
1315.590, 87.074
1316.795, 174.914
1318.000, 69.156
1319.205, 81.324
1320.410, 105.414
1321.614, 160.914
1322.819, 91.652
1324.023, 208.840
1325.227, 194.559
1326.431, 71.910
1327.634, 189.789
1328.838, 70.598
1330.041, 12.484
1331.244, 212.566
1332.447, 39.574
1333.650, 86.527
1334.852, 244.438
1336.055, 13.305
1337.257, 297.109
1338.459, 119.883
1339.661, 274.602
1340.862, 362.289
1342.064, 267.934
1343.265, 255.551
1344.466, 385.125
1345.667, 329.676
1346.868, 588.195
1348.068, 560.691
1349.269, 171.168
1350.469, 590.613
1351.669, 438.043
1352.869, 421.457
1354.069, 642.855
1355.268, 143.363
1356.468, 361.750
1357.667, 645.129
1358.866, 413.516
1360.065, 521.918
1361.263, 297.867
1362.462, 316.309
1363.660, 579.770
1364.858, 504.531
1366.056, 309.574
1367.254, 609.492
1368.451, 327.047
1369.649, 307.469
1370.846, 638.488
1372.043, 520.469
1373.240, 516.402
1374.436, 658.301
1375.633, 583.145
1376.829, 524.949
1378.025, 579.703
1379.221, 930.410
1380.417, 803.066
1381.613, 612.680
1382.808, 424.207
1384.003, 644.176
1385.199, 764.508
1386.393, 791.500
1387.588, 442.391
1388.783, 577.941
1389.977, 519.863
1391.171, 450.250
1392.365, 639.047
1393.559, 340.293
1394.753, 510.562
1395.946, 720.133
1397.140, 399.262
1398.333, 899.402
1399.526, 527.426
1400.719, 679.176
1401.911, 417.527
1403.104, 730.223
1404.296, 477.633
1405.488, 598.656
1406.680, 524.949
1407.872, 618.922
1409.063, 822.305
1410.255, 377.965
1411.446, 494.781
1412.637, 335.566
1413.828, 654.887
1415.018, 627.902
1416.209, 559.980
1417.399, 485.227
1418.589, 467.117
1419.779, 405.797
1420.969, 462.086
1422.159, 406.176
1423.348, 479.742
1424.537, 547.898
1425.726, 454.656
1426.915, 517.992
1428.104, 411.441
1429.293, 441.945
1430.481, 205.574
1431.669, 555.703
1432.857, 555.121
1434.045, 505.637
1435.233, 855.816
1436.420, 634.887
1437.608, 606.828
1438.795, 602.570
1439.982, 579.695
1441.169, 731.312
1442.355, 694.562
1443.542, 730.523
1444.728, 451.195
1445.914, 735.562
1447.100, 538.609
1448.286, 754.332
1449.472, 583.715
1450.657, 721.766
1451.842, 696.484
1453.027, 712.656
1454.212, 882.129
1455.397, 454.254
1456.581, 667.137
1457.766, 795.723
1458.950, 514.242
1460.134, 775.855
1461.318, 507.898
1462.501, 500.785
1463.685, 764.590
1464.868, 453.199
1466.051, 1023.617
1467.234, 424.027
1468.417, 556.695
1469.600, 661.441
1470.782, 791.156
1471.965, 339.824
1473.147, 821.477
1474.329, 759.113
1475.510, 383.738
1476.692, 521.387
1477.873, 776.059
1479.055, 516.789
1480.236, 844.629
1481.416, 476.648
1482.597, 606.922
1483.778, 615.520
1484.958, 576.516
1486.138, 304.996
1487.318, 340.395
1488.498, 502.512
1489.678, 305.422
1490.857, 374.656
1492.037, 537.262
1493.216, 552.312
1494.395, 596.902
1495.574, 646.137
1496.752, 114.129
1497.931, 563.996
1499.109, 169.828
1500.287, 294.703
1501.465, 171.746
1502.643, 30.805
1503.820, 256.344
1504.998, 368.008
1506.175, 168.086
1507.352, 257.816
1508.529, 187.809
1509.706, 0.164
1510.882, 0.000
##END=



