##NAMES=Beryl
##RRUFFID=R050120
##IDEAL CHEMISTRY=Be_3_Al_2_Si_6_O_18_
##LOCALITY=Cruziero mine, San Jose, Minas Gerais, Brazil
##OWNER=RRUFF
##SOURCE=Carlos and Paulo Vasconcelos
##DESCRIPTION=Yellow gemmy fragment
##STATUS=The identification of this mineral has been confirmed by X-ray diffraction and chemical analysis
##URL=rruff.info/R050120
##MEASURED CHEMISTRY=(Be_2.76_Li_0.24_)_Σ=3_Al_2.00_Si_6.00_O_18_·Na_0.24_
##PIN_ID=L00520
##ORIENTATION=Laser parallel to a* (1 0 0). Fiducial mark perpendicular to laser is parallel to c [0 0 1]
94.768, 0.000
96.161, 107.073
97.554, 7.312
98.947, 29.512
100.340, 8.987
101.732, 104.829
103.124, 96.401
104.516, 310.005
105.908, 476.403
107.300, 580.690
108.691, 963.158
110.082, 994.376
111.473, 1286.097
112.864, 1660.875
114.254, 2205.373
115.644, 3081.398
117.034, 3415.768
118.424, 2832.281
119.813, 3124.774
121.203, 2644.113
122.592, 2271.183
123.981, 2287.199
125.369, 2142.419
126.758, 2050.086
128.146, 1962.054
129.534, 1946.148
130.922, 2088.803
132.309, 2015.539
133.696, 2034.721
135.083, 2164.412
136.470, 1973.766
137.857, 2165.180
139.243, 1845.650
140.630, 1796.225
142.016, 1482.979
143.401, 1419.770
144.787, 1219.601
146.172, 1245.475
147.557, 1055.394
148.942, 1018.363
150.327, 1131.390
151.711, 991.474
153.096, 1165.949
154.480, 1269.660
155.863, 1288.651
157.247, 1278.588
158.630, 1286.820
160.013, 1307.260
161.396, 1455.725
162.779, 1375.254
164.161, 1377.836
165.544, 1457.468
166.926, 1398.145
168.308, 1418.857
169.689, 1268.606
171.070, 1413.078
172.452, 1364.039
173.833, 1308.000
175.213, 1376.043
176.594, 1178.956
177.974, 1315.350
179.354, 1214.689
180.734, 1121.007
182.114, 1092.323
183.493, 1003.652
184.872, 852.098
186.251, 805.670
187.630, 677.876
189.008, 667.250
190.387, 659.662
191.765, 513.116
193.143, 682.611
194.520, 456.155
195.898, 543.751
197.275, 425.396
198.652, 490.094
200.029, 305.853
201.405, 229.696
202.782, 191.663
204.158, 214.698
205.534, 223.786
206.909, 14.939
208.285, 60.127
209.660, 126.349
211.035, 119.391
212.410, 46.099
213.784, 198.787
215.159, 66.466
216.533, 2.114
217.907, 1.330
219.281, 102.542
220.654, 41.807
222.027, 69.051
223.400, 94.983
224.773, 122.326
226.146, 160.743
227.518, 178.252
228.891, 250.920
230.263, 190.608
231.634, 367.308
233.006, 163.012
234.377, 289.717
235.748, 175.398
237.119, 117.001
238.490, 380.535
239.860, 115.062
241.231, 147.594
242.601, 177.118
243.970, 269.629
245.340, 172.123
246.709, 8.396
248.079, 223.067
249.448, 106.485
250.816, 80.942
252.185, 2.645
253.553, 82.254
254.921, 36.097
256.289, 114.595
257.657, 8.338
259.024, 104.853
260.391, 76.602
261.758, 89.630
263.125, 113.815
264.492, 160.661
265.858, 145.789
267.224, 346.152
268.590, 77.711
269.956, 364.437
271.321, 166.307
272.687, 59.301
274.052, 14.596
275.416, 123.601
276.781, 0.118
278.146, 48.765
279.510, 102.645
280.874, 89.113
282.237, 171.634
283.601, 271.175
284.964, 112.816
286.327, 430.467
287.690, 445.150
289.053, 454.864
290.416, 801.597
291.778, 813.364
293.140, 995.303
294.502, 961.125
295.863, 919.413
297.225, 643.682
298.586, 508.533
299.947, 482.406
301.308, 303.556
302.668, 345.152
304.029, 267.495
305.389, 217.384
306.749, 194.372
308.108, 376.412
309.468, 174.031
310.827, 434.438
312.186, 373.390
313.545, 558.428
314.903, 640.684
316.262, 722.913
317.620, 894.831
318.978, 1095.407
320.336, 1231.402
321.693, 1497.239
323.051, 1551.057
324.408, 1341.080
325.765, 1432.428
327.121, 932.896
328.478, 618.734
329.834, 606.766
331.190, 271.471
332.546, 226.035
333.902, 288.635
335.257, 51.484
336.612, 87.307
337.967, 45.879
339.322, 117.967
340.677, 65.648
342.031, 65.359
343.385, 61.643
344.739, 3.586
346.093, 17.703
347.446, 56.520
348.799, 2.111
350.153, 65.025
351.505, 161.643
352.858, 166.135
354.210, 208.949
355.563, 127.961
356.915, 207.596
358.267, 193.855
359.618, 71.699
360.969, 179.385
362.321, 287.535
363.672, 208.826
365.022, 420.285
366.373, 390.252
367.723, 312.752
369.073, 442.311
370.423, 339.879
371.773, 374.137
373.122, 564.656
374.471, 664.014
375.821, 607.887
377.169, 862.346
378.518, 664.277
379.866, 898.076
381.215, 1131.344
382.563, 1298.014
383.910, 1467.439
385.258, 1914.312
386.605, 2359.457
387.952, 2881.090
389.299, 3682.611
390.646, 4559.250
391.992, 5578.746
393.339, 7189.209
394.685, 8887.650
396.031, 11591.074
397.376, 13139.469
398.722, 15032.852
400.067, 14876.207
401.412, 13692.543
402.757, 12101.861
404.101, 9562.156
405.446, 7125.432
406.790, 5711.686
408.134, 4597.918
409.478, 3643.811
410.821, 3145.000
412.165, 2641.365
413.508, 2646.516
414.851, 2478.492
416.193, 2174.994
417.536, 2130.078
418.878, 2004.334
420.220, 2205.539
421.562, 1946.562
422.904, 1980.576
424.245, 2038.584
425.586, 1643.576
426.927, 1548.555
428.268, 1100.518
429.609, 958.465
430.949, 897.393
432.289, 930.301
433.629, 638.191
434.969, 765.059
436.309, 639.305
437.648, 671.131
438.987, 525.912
440.326, 462.592
441.665, 440.703
443.003, 700.623
444.342, 500.178
445.680, 445.975
447.018, 488.990
448.355, 336.699
449.693, 320.869
451.030, 236.453
452.367, 209.004
453.704, 50.539
455.041, 197.361
456.377, 94.895
457.713, 99.588
459.049, 195.996
460.385, 61.377
461.721, 124.719
463.056, 78.031
464.391, 43.311
465.726, 191.547
467.061, 45.246
468.395, 1.883
469.730, 79.951
471.064, 13.986
472.398, 179.982
473.731, 58.938
475.065, 49.861
476.398, 18.746
477.731, 176.062
479.064, 74.885
480.397, 123.668
481.729, 161.445
483.062, 25.191
484.394, 119.891
485.725, 88.557
487.057, 80.861
488.389, 157.787
489.720, 118.354
491.051, 186.885
492.382, 249.389
493.712, 209.912
495.043, 23.408
496.373, 140.990
497.703, 191.404
499.032, 90.787
500.362, 257.979
501.691, 219.432
503.020, 75.840
504.349, 60.852
505.678, 6.533
507.007, 34.445
508.335, 76.064
509.663, 81.281
510.991, 2.721
512.319, 11.326
513.646, 74.576
514.973, 99.521
516.300, 90.273
517.627, 71.918
518.954, 113.197
520.280, 81.391
521.607, 22.986
522.933, 143.588
524.259, 34.131
525.584, 59.643
526.910, 92.119
528.235, 86.564
529.560, 83.664
530.885, 131.352
532.209, 85.699
533.534, 66.014
534.858, 153.312
536.182, 50.586
537.506, 177.861
538.829, 223.115
540.152, 93.342
541.476, 309.535
542.799, 21.703
544.121, 141.830
545.444, 146.924
546.766, 111.990
548.088, 257.027
549.410, 178.033
550.732, 208.016
552.053, 274.967
553.375, 288.895
554.696, 359.793
556.017, 484.666
557.337, 512.510
558.658, 369.328
559.978, 534.121
561.298, 491.885
562.618, 354.623
563.938, 631.336
565.257, 635.018
566.576, 470.678
567.895, 888.309
569.214, 878.914
570.533, 955.494
571.851, 737.068
573.170, 1101.615
574.488, 832.141
575.805, 889.658
577.123, 732.148
578.440, 930.635
579.758, 1036.100
581.075, 720.535
582.391, 764.947
583.708, 674.332
585.024, 489.691
586.341, 607.023
587.657, 714.330
588.972, 613.607
590.288, 428.861
591.603, 227.086
592.918, 365.283
594.233, 419.457
595.548, 315.607
596.863, 185.730
598.177, 194.828
599.491, 122.689
600.805, 161.965
602.119, 59.988
603.432, 179.979
604.746, 120.943
606.059, 187.877
607.372, 84.785
608.685, 213.662
609.997, 30.486
611.309, 2.697
612.621, 14.104
613.933, 186.578
615.245, 140.779
616.557, 249.984
617.868, 207.588
619.179, 352.254
620.490, 252.516
621.801, 551.309
623.111, 540.332
624.421, 763.785
625.731, 387.111
627.041, 651.361
628.351, 270.119
629.660, 180.951
630.970, 551.209
632.279, 251.512
633.588, 328.416
634.896, 76.090
636.205, 374.219
637.513, 185.541
638.821, 378.252
640.129, 624.236
641.437, 594.791
642.744, 448.531
644.051, 633.920
645.358, 708.154
646.665, 859.992
647.972, 687.607
649.278, 658.516
650.584, 629.260
651.890, 998.213
653.196, 743.855
654.502, 795.508
655.807, 594.348
657.113, 806.551
658.418, 982.426
659.722, 699.438
661.027, 802.650
662.331, 850.004
663.636, 1265.543
664.940, 855.484
666.244, 1426.414
667.547, 1555.775
668.851, 1912.203
670.154, 1958.227
671.457, 2501.750
672.760, 3286.691
674.062, 3988.484
675.365, 5125.113
676.667, 6613.131
677.969, 8650.359
679.271, 11333.264
680.572, 15029.736
681.874, 20596.084
683.175, 26511.848
684.476, 31718.984
685.777, 35307.051
687.077, 34067.066
688.378, 30678.373
689.678, 24895.379
690.978, 19437.119
692.278, 14538.457
693.577, 12147.904
694.877, 9214.303
696.176, 7792.814
697.475, 6174.762
698.774, 5376.236
700.072, 4430.916
701.371, 3820.070
702.669, 2992.227
703.967, 2938.221
705.265, 2901.609
706.562, 2354.846
707.860, 1905.189
709.157, 1997.525
710.454, 1518.848
711.751, 1843.152
713.047, 1322.441
714.344, 1419.715
715.640, 988.973
716.936, 1108.215
718.232, 1221.441
719.527, 1082.652
720.823, 985.848
722.118, 1016.027
723.413, 1010.193
724.708, 888.344
726.002, 1102.479
727.297, 742.602
728.591, 957.707
729.885, 1035.393
731.179, 751.473
732.472, 641.537
733.766, 813.943
735.059, 771.979
736.352, 790.002
737.645, 746.010
738.937, 792.008
740.230, 747.646
741.522, 790.957
742.814, 695.912
744.106, 752.855
745.397, 759.787
746.689, 737.016
747.980, 794.609
749.271, 656.500
750.562, 732.381
751.853, 529.250
753.143, 637.014
754.433, 687.807
755.723, 523.285
757.013, 783.920
758.303, 307.889
759.592, 504.578
760.881, 441.014
762.170, 420.719
763.459, 452.930
764.748, 250.688
766.036, 422.062
767.325, 115.180
768.613, 370.594
769.901, 357.250
771.188, 125.715
772.476, 455.426
773.763, 55.131
775.050, 423.828
776.337, 161.523
777.624, 270.211
778.910, 227.896
780.196, 295.576
781.482, 114.277
782.768, 42.982
784.054, 192.684
785.339, 175.375
786.625, 16.924
787.910, 202.754
789.195, 43.570
790.479, 95.607
791.764, 195.250
793.048, 62.111
794.332, 248.482
795.616, 8.070
796.900, 241.654
798.183, 97.234
799.467, 155.814
800.750, 149.393
802.033, 51.967
803.316, 344.539
804.598, 175.893
805.880, 317.568
807.163, 311.283
808.445, 74.748
809.726, 125.213
811.008, 110.033
812.289, 163.508
813.570, 25.861
814.851, 119.230
816.132, 152.410
817.413, 56.812
818.693, 111.459
819.973, 44.861
821.253, 24.578
822.533, 98.314
823.813, 28.383
825.092, 90.730
826.371, 52.510
827.650, 158.213
828.929, 159.973
830.208, 102.188
831.486, 169.555
832.764, 44.865
834.042, 82.285
835.320, 25.566
836.598, 234.570
837.875, 208.711
839.152, 116.854
840.429, 387.000
841.706, 173.150
842.983, 214.301
844.259, 476.457
845.536, 174.619
846.812, 273.779
848.088, 252.949
849.363, 356.121
850.639, 344.297
851.914, 439.324
853.189, 293.656
854.464, 529.848
855.739, 580.045
857.013, 418.244
858.288, 358.449
859.562, 521.660
860.836, 437.873
862.110, 168.092
863.383, 709.314
864.656, 144.541
865.930, 468.773
867.203, 190.012
868.475, 370.254
869.748, 273.500
871.020, 108.756
872.292, 228.014
873.564, 218.279
874.836, 174.551
876.108, 146.830
877.379, 177.033
878.650, 272.404
879.922, 191.703
881.192, 105.008
882.463, 12.680
883.733, 210.631
885.004, 158.951
886.274, 6.721
887.544, 351.609
888.813, 188.947
890.083, 255.295
891.352, 472.650
892.621, 303.016
893.890, 359.387
895.159, 207.768
896.427, 269.158
897.695, 270.877
898.964, 495.967
900.232, 383.383
901.499, 370.812
902.767, 533.248
904.034, 187.695
905.301, 408.150
906.568, 658.619
907.835, 400.096
909.102, 515.588
910.368, 417.090
911.634, 518.605
912.900, 444.133
914.166, 815.672
915.432, 383.223
916.697, 85.789
917.962, 543.363
919.227, 383.971
920.492, 386.600
921.757, 297.256
923.021, 392.924
924.285, 480.605
925.550, 304.301
926.813, 337.900
928.077, 320.617
929.341, 292.348
930.604, 334.758
931.867, 153.842
933.130, 321.609
934.393, 318.387
935.655, 157.062
936.918, 375.865
938.180, 174.680
939.442, 193.354
940.703, 340.193
941.965, 174.275
943.226, 29.143
944.488, 124.023
945.749, 250.064
947.009, 190.973
948.270, 302.057
949.530, 127.252
950.791, 376.203
952.051, 473.166
953.311, 454.854
954.570, 217.158
955.830, 246.174
957.089, 234.477
958.348, 54.477
959.607, 91.572
960.866, 115.639
962.124, 86.205
963.383, 181.943
964.641, 4.193
965.899, 3.393
967.156, 185.697
968.414, 22.092
969.671, 318.195
970.928, 144.408
972.185, 6.523
973.442, 128.273
974.699, 116.117
975.955, 26.975
977.211, 40.096
978.468, 226.539
979.723, 116.496
980.979, 44.984
982.234, 496.492
983.490, 40.047
984.745, 269.254
986.000, 499.840
987.254, 289.365
988.509, 645.992
989.763, 590.691
991.017, 905.412
992.271, 868.154
993.525, 1180.926
994.779, 1510.717
996.032, 1756.596
997.285, 1951.498
998.538, 1826.426
999.791, 2639.377
1001.044, 2363.350
1002.296, 2862.344
1003.548, 2449.355
1004.800, 2291.398
1006.052, 2487.459
1007.304, 2141.545
1008.555, 2161.654
1009.807, 2193.830
1011.058, 2058.025
1012.309, 1971.287
1013.559, 1720.582
1014.810, 1519.896
1016.060, 1432.463
1017.310, 1538.604
1018.560, 1280.994
1019.810, 1364.406
1021.060, 1420.879
1022.309, 1087.385
1023.558, 1160.912
1024.807, 1033.461
1026.056, 940.029
1027.305, 805.615
1028.553, 741.754
1029.801, 685.342
1031.049, 618.502
1032.297, 655.168
1033.545, 611.393
1034.793, 676.967
1036.040, 720.693
1037.287, 646.086
1038.534, 753.855
1039.781, 867.643
1041.027, 803.090
1042.274, 695.277
1043.520, 710.125
1044.766, 685.992
1046.012, 540.887
1047.257, 661.801
1048.503, 1031.736
1049.748, 800.693
1050.993, 1266.668
1052.238, 1254.664
1053.483, 1254.676
1054.727, 1395.707
1055.971, 1592.832
1057.216, 1785.049
1058.459, 2204.904
1059.703, 2354.006
1060.947, 2768.125
1062.190, 3142.258
1063.433, 3216.404
1064.676, 3448.570
1065.919, 3481.748
1067.162, 3626.281
1068.404, 3577.146
1069.646, 3695.367
1070.888, 3990.600
1072.130, 3706.848
1073.372, 3888.109
1074.613, 3917.383
1075.855, 3360.666
1077.096, 3183.961
1078.337, 3508.268
1079.578, 3054.584
1080.818, 3075.908
1082.059, 2615.244
1083.299, 2681.588
1084.539, 2228.941
1085.779, 2214.305
1087.018, 1911.678
1088.258, 1707.061
1089.497, 1558.461
1090.736, 1482.867
1091.975, 1326.301
1093.213, 1236.699
1094.452, 1135.484
1095.690, 1068.658
1096.928, 994.137
1098.166, 967.861
1099.404, 1013.355
1100.642, 791.854
1101.879, 924.799
1103.116, 813.311
1104.353, 959.824
1105.590, 538.520
1106.827, 1017.088
1108.063, 781.793
1109.299, 961.625
1110.536, 834.223
1111.771, 790.818
1113.007, 809.625
1114.243, 673.805
1115.478, 664.377
1116.713, 791.537
1117.948, 995.354
1119.183, 1217.762
1120.418, 1084.570
1121.652, 1648.068
1122.886, 1785.326
1124.120, 1603.812
1125.354, 1076.441
1126.588, 1185.109
1127.821, 827.441
1129.055, 1007.221
1130.288, 1080.637
1131.521, 867.797
1132.753, 621.133
1133.986, 847.320
1135.218, 1122.625
1136.450, 580.428
1137.682, 1169.139
1138.914, 595.598
1140.146, 701.320
1141.377, 738.826
1142.609, 657.430
1143.840, 988.789
1145.071, 876.434
1146.301, 843.801
1147.532, 825.766
1148.762, 474.762
1149.992, 421.154
1151.222, 432.578
1152.452, 792.967
1153.682, 209.207
1154.911, 599.881
1156.140, 383.752
1157.369, 415.109
1158.598, 382.057
1159.827, 470.133
1161.055, 425.820
1162.284, 306.439
1163.512, 315.521
1164.740, 215.713
1165.967, 208.701
1167.195, 418.887
1168.422, 245.846
1169.650, 241.559
1170.877, 349.459
1172.103, 217.074
1173.330, 203.713
1174.557, 593.965
1175.783, 410.225
1177.009, 1012.236
1178.235, 711.668
1179.461, 799.832
1180.686, 313.117
1181.912, 620.414
1183.137, 538.668
1184.362, 278.391
1185.587, 263.873
1186.811, 446.197
1188.036, 197.529
1189.260, 482.410
1190.484, 397.734
1191.708, 536.553
1192.932, 449.094
1194.155, 468.152
1195.378, 498.611
1196.602, 579.020
1197.825, 494.320
1199.047, 680.637
1200.270, 480.537
1201.492, 955.039
1202.715, 299.920
1203.937, 790.562
1205.159, 783.969
1206.380, 671.770
1207.602, 339.436
1208.823, 483.086
1210.044, 505.699
1211.265, 440.150
1212.486, 458.559
1213.707, 430.945
1214.927, 521.293
1216.147, 498.410
1217.367, 525.328
1218.587, 509.461
1219.807, 534.430
1221.027, 538.352
1222.246, 495.383
1223.465, 628.062
1224.684, 966.699
1225.903, 845.809
1227.121, 919.844
1228.340, 811.352
1229.558, 647.816
1230.776, 622.219
1231.994, 422.570
1233.212, 597.859
1234.429, 369.359
1235.646, 240.500
1236.864, 571.559
1238.081, 522.762
1239.297, 535.684
1240.514, 463.535
1241.730, 357.309
1242.947, 395.020
1244.163, 196.672
1245.378, 455.258
1246.594, 333.777
1247.810, 9.312
1249.025, 387.379
1250.240, 343.688
1251.455, 222.078
1252.670, 389.270
1253.885, 175.547
1255.099, 208.629
1256.313, 252.355
1257.527, 182.578
1258.741, 220.406
1259.955, 242.812
1261.168, 89.160
1262.382, 152.383
1263.595, 110.051
1264.808, 29.332
1266.021, 27.652
1267.233, 109.738
1268.446, 69.973
1269.658, 114.961
1270.870, 232.887
1272.082, 99.320
1273.294, 155.457
1274.505, 19.484
1275.716, 143.953
1276.928, 37.215
1278.139, 302.609
1279.349, 71.426
1280.560, 216.133
1281.770, 39.824
1282.981, 147.562
1284.191, 203.961
1285.401, 150.469
1286.610, 25.969
1287.820, 190.445
1289.029, 197.094
1290.239, 194.258
1291.448, 42.477
1292.656, 151.664
1293.865, 152.820
1295.073, 279.910
1296.282, 278.602
1297.490, 56.871
1298.698, 334.828
1299.906, 105.766
1301.113, 195.691
1302.320, 99.410
1303.528, 195.465
1304.735, 91.676
1305.942, 40.160
1307.148, 228.965
1308.355, 103.730
1309.561, 501.473
1310.767, 92.191
1311.973, 268.891
1313.179, 62.434
1314.384, 50.730
1315.590, 255.883
1316.795, 328.535
1318.000, 328.180
1319.205, 570.820
1320.410, 461.461
1321.614, 255.113
1322.819, 519.773
1324.023, 429.457
1325.227, 540.152
1326.431, 463.875
1327.634, 246.629
1328.838, 357.406
1330.041, 420.223
1331.244, 574.074
1332.447, 584.262
1333.650, 341.539
1334.852, 579.402
1336.055, 361.105
1337.257, 245.500
1338.459, 265.281
1339.661, 221.059
1340.862, 331.180
1342.064, 327.855
1343.265, 318.715
1344.466, 497.914
1345.667, 275.801
1346.868, 638.762
1348.068, 245.457
1349.269, 279.348
1350.469, 512.410
1351.669, 435.883
1352.869, 583.988
1354.069, 665.773
1355.268, 564.918
1356.468, 616.402
1357.667, 512.715
1358.866, 474.480
1360.065, 567.082
1361.263, 199.004
1362.462, 643.082
1363.660, 713.566
1364.858, 424.754
1366.056, 282.055
1367.254, 707.918
1368.451, 559.965
1369.649, 388.297
1370.846, 485.062
1372.043, 330.305
1373.240, 605.121
1374.436, 403.969
1375.633, 442.848
1376.829, 403.691
1378.025, 199.957
1379.221, 455.168
1380.417, 269.789
1381.613, 198.914
1382.808, 445.855
1384.003, 381.203
1385.199, 436.641
1386.393, 422.117
1387.588, 382.664
1388.783, 242.746
1389.977, 281.219
1391.171, 102.371
1392.365, 132.039
1393.559, 244.344
1394.753, 169.965
1395.946, 350.242
1397.140, 164.211
1398.333, 386.066
1399.526, 385.172
1400.719, 175.066
1401.911, 382.809
1403.104, 186.031
1404.296, 240.531
1405.488, 456.727
1406.680, 30.789
1407.872, 285.500
1409.063, 519.664
1410.255, 63.195
1411.446, 523.887
1412.637, 305.168
1413.828, 225.508
1415.018, 245.824
1416.209, 149.691
1417.399, 0.145
1418.589, 0.000
##END=



