##NAMES=Beryl
##RRUFFID=R040002
##IDEAL CHEMISTRY=Be_3_Al_2_Si_6_O_18_
##LOCALITY=Usakos, Namibia
##OWNER=RRUFF
##SOURCE=University of Arizona Mineral Museum
##DESCRIPTION=Light blue hexagonal prism, variety aquamarine
##STATUS=The identification of this mineral has been confirmed by X-ray diffraction and chemical analysis
##URL=rruff.info/R040002
##MEASURED CHEMISTRY=(Be_0.97_Li_0.03_)_3_(Al_0.97_Fe^3+^_0.03_)_2_Si_6_O_18_Î‡Na_0.01_
##PIN_ID=M00004
##ORIENTATION=Laser parallel to -c* (0 0 -1). Fiducial mark perpendicular to laser is parallel to a [1 0 0]
94.768, 0.000
96.161, 34.233
97.554, 76.776
98.947, 154.235
100.340, 36.495
101.732, 7.061
103.124, 40.505
104.516, 110.303
105.908, 140.691
107.300, 159.082
108.691, 246.943
110.082, 294.626
111.473, 297.020
112.864, 413.627
114.254, 684.490
115.644, 1040.857
117.034, 1175.308
118.424, 866.386
119.813, 702.290
121.203, 504.279
122.592, 362.712
123.981, 310.412
125.369, 233.202
126.758, 168.915
128.146, 169.338
129.534, 196.771
130.922, 260.686
132.309, 196.886
133.696, 172.749
135.083, 279.707
136.470, 155.137
137.857, 321.687
139.243, 483.824
140.630, 424.597
142.016, 346.045
143.401, 533.434
144.787, 713.580
146.172, 654.062
147.557, 431.231
148.942, 233.086
150.327, 132.310
151.711, 30.739
153.096, 62.136
154.480, 33.352
155.863, 11.147
157.247, 49.335
158.630, 83.226
160.013, 93.455
161.396, 83.955
162.779, 111.365
164.161, 61.721
165.544, 56.052
166.926, 89.849
168.308, 71.968
169.689, 6.259
171.070, 112.449
172.452, 168.674
173.833, 66.478
175.213, 151.490
176.594, 94.390
177.974, 238.335
179.354, 357.451
180.734, 499.602
182.114, 563.834
183.493, 941.148
184.872, 913.536
186.251, 726.991
187.630, 397.503
189.008, 314.065
190.387, 324.671
191.765, 230.316
193.143, 276.994
194.520, 153.693
195.898, 194.409
197.275, 155.137
198.652, 155.872
200.029, 191.622
201.405, 136.386
202.782, 132.167
204.158, 118.491
205.534, 173.771
206.909, 86.573
208.285, 90.304
209.660, 92.994
211.035, 33.340
212.410, 16.701
213.784, 37.100
215.159, 26.490
216.533, 57.353
217.907, 24.131
219.281, 34.439
220.654, 97.019
222.027, 42.512
223.400, 11.130
224.773, 48.240
226.146, 35.396
227.518, 41.961
228.891, 68.128
230.263, 22.665
231.634, 113.979
233.006, 51.387
234.377, 111.593
235.748, 120.045
237.119, 77.933
238.490, 200.039
239.860, 144.244
241.231, 197.506
242.601, 239.835
243.970, 196.281
245.340, 223.729
246.709, 103.308
248.079, 197.897
249.448, 122.456
250.816, 107.982
252.185, 142.479
253.553, 124.945
254.921, 212.379
256.289, 161.778
257.657, 186.146
259.024, 291.481
260.391, 285.098
261.758, 243.660
263.125, 227.136
264.492, 257.484
265.858, 251.781
267.224, 284.620
268.590, 286.720
269.956, 345.907
271.321, 272.943
272.687, 345.909
274.052, 291.805
275.416, 328.365
276.781, 472.354
278.146, 401.997
279.510, 550.553
280.874, 611.021
282.237, 836.412
283.601, 801.729
284.964, 931.979
286.327, 1248.163
287.690, 1456.282
289.053, 1437.307
290.416, 1468.112
291.778, 1076.822
293.140, 1000.438
294.502, 887.955
295.863, 828.380
297.225, 768.686
298.586, 861.115
299.947, 926.358
301.308, 960.426
302.668, 1114.913
304.029, 1425.890
305.389, 1381.595
306.749, 2169.633
308.108, 1572.587
309.468, 1828.811
310.827, 2228.576
312.186, 2733.018
313.545, 3432.818
314.903, 4414.948
316.262, 5427.619
317.620, 6755.957
318.978, 7630.002
320.336, 8733.132
321.693, 9030.740
323.051, 7643.540
324.408, 5167.590
325.765, 3354.365
327.121, 1824.209
328.478, 1102.303
329.834, 644.591
331.190, 550.944
332.546, 286.938
333.902, 244.724
335.257, 203.652
336.612, 185.759
337.967, 137.927
339.322, 185.611
340.677, 206.724
342.031, 117.828
343.385, 163.007
344.739, 156.857
346.093, 146.141
347.446, 151.964
348.799, 251.038
350.153, 267.835
351.505, 327.953
352.858, 280.107
354.210, 354.378
355.563, 372.608
356.915, 331.812
358.267, 338.793
359.618, 182.018
360.969, 213.533
362.321, 252.616
363.672, 162.204
365.022, 257.845
366.373, 276.136
367.723, 228.225
369.073, 311.771
370.423, 184.669
371.773, 129.169
373.122, 206.293
374.471, 266.334
375.821, 97.138
377.169, 348.622
378.518, 310.727
379.866, 508.547
381.215, 665.703
382.563, 805.363
383.910, 1238.506
385.258, 1701.653
386.605, 2700.510
387.952, 3803.990
389.299, 5703.909
390.646, 8179.861
391.992, 11088.110
393.339, 14403.993
394.685, 16967.133
396.031, 17381.820
397.376, 14794.336
398.722, 11761.836
400.067, 8453.360
401.412, 6157.377
402.757, 4646.143
404.101, 3381.112
405.446, 2631.203
406.790, 2182.131
408.134, 1853.151
409.478, 1724.647
410.821, 1675.519
412.165, 1594.052
413.508, 1980.513
414.851, 2122.096
416.193, 2553.583
417.536, 3082.416
418.878, 3799.017
420.220, 4318.696
421.562, 4309.551
422.904, 4038.371
424.245, 3417.169
425.586, 2485.905
426.927, 2017.643
428.268, 1428.348
429.609, 1099.021
430.949, 900.660
432.289, 949.266
433.629, 899.839
434.969, 1049.379
436.309, 1187.885
437.648, 1706.359
438.987, 2207.819
440.326, 2878.249
441.665, 3592.646
443.003, 3989.034
444.342, 3707.391
445.680, 2921.722
447.018, 2085.021
448.355, 1446.291
449.693, 1065.530
451.030, 822.740
452.367, 780.919
453.704, 423.068
455.041, 395.190
456.377, 382.284
457.713, 326.349
459.049, 262.387
460.385, 291.395
461.721, 332.375
463.056, 212.327
464.391, 116.250
465.726, 261.139
467.061, 150.999
468.395, 82.826
469.730, 236.619
471.064, 98.382
472.398, 168.110
473.731, 83.807
475.065, 175.475
476.398, 128.112
477.731, 241.723
479.064, 189.326
480.397, 172.916
481.729, 253.495
483.062, 207.051
484.394, 152.582
485.725, 174.087
487.057, 173.584
488.389, 221.056
489.720, 153.508
491.051, 242.939
492.382, 281.348
493.712, 174.776
495.043, 150.164
496.373, 172.352
497.703, 226.438
499.032, 250.304
500.362, 322.343
501.691, 232.452
503.020, 228.162
504.349, 311.035
505.678, 196.857
507.007, 362.627
508.335, 240.395
509.663, 303.555
510.991, 223.689
512.319, 211.797
513.646, 180.877
514.973, 169.928
516.300, 189.949
517.627, 146.951
518.954, 29.924
520.280, 253.565
521.607, 115.313
522.933, 266.192
524.259, 194.671
525.584, 270.498
526.910, 326.301
528.235, 243.980
529.560, 381.738
530.885, 162.190
532.209, 55.383
533.534, 175.864
534.858, 53.528
536.182, 56.537
537.506, 95.162
538.829, 10.239
540.152, 172.677
541.476, 0.253
542.799, 181.866
544.121, 63.595
545.444, 27.392
546.766, 126.246
548.088, 100.217
549.410, 87.276
550.732, 28.570
552.053, 58.600
553.375, 115.849
554.696, 83.208
556.017, 100.339
557.337, 105.855
558.658, 312.344
559.978, 316.811
561.298, 568.254
562.618, 636.675
563.938, 574.213
565.257, 627.588
566.576, 501.938
567.895, 538.567
569.214, 684.928
570.533, 554.209
571.851, 586.490
573.170, 913.761
574.488, 1055.978
575.805, 1240.281
577.123, 1431.641
578.440, 1564.791
579.758, 1926.632
581.075, 2107.074
582.391, 2207.512
583.708, 2104.038
585.024, 1998.495
586.341, 1876.606
587.657, 1713.630
588.972, 1534.596
590.288, 1313.539
591.603, 1236.458
592.918, 1214.356
594.233, 1191.232
595.548, 1345.085
596.863, 1241.952
598.177, 1308.994
599.491, 1139.048
600.805, 1192.370
602.119, 1155.113
603.432, 1218.169
604.746, 1096.868
606.059, 1082.616
607.372, 811.271
608.685, 1046.905
609.997, 745.518
611.309, 728.109
612.621, 599.679
613.933, 720.228
615.245, 671.755
616.557, 790.262
617.868, 926.561
619.179, 988.962
620.490, 885.406
621.801, 1251.436
623.111, 1229.043
624.421, 1379.236
625.731, 1201.950
627.041, 1236.307
628.351, 802.341
629.660, 714.776
630.970, 819.485
632.279, 487.200
633.588, 531.903
634.896, 454.661
636.205, 542.021
637.513, 506.726
638.821, 512.777
640.129, 662.715
641.437, 740.438
642.744, 654.916
644.051, 760.413
645.358, 903.968
646.665, 926.350
647.972, 784.194
649.278, 839.959
650.584, 822.527
651.890, 988.971
653.196, 791.320
654.502, 856.865
655.807, 735.473
657.113, 783.164
658.418, 864.414
659.722, 722.997
661.027, 771.546
662.331, 785.637
663.636, 1086.347
664.940, 1071.164
666.244, 1417.703
667.547, 1657.501
668.851, 2099.936
670.154, 2378.302
671.457, 2805.522
672.760, 3930.681
674.062, 4900.821
675.365, 6749.852
676.667, 9240.780
677.969, 13197.225
679.271, 18931.152
680.572, 26004.619
681.874, 35113.773
683.175, 41996.238
684.476, 42237.801
685.777, 36616.746
687.077, 27808.289
688.378, 20757.236
689.678, 14861.546
690.978, 11100.521
692.278, 8145.781
693.577, 6822.078
694.877, 5356.681
696.176, 4609.369
697.475, 3600.842
698.774, 3375.120
700.072, 2746.983
701.371, 2341.256
702.669, 2006.791
703.967, 1821.110
705.265, 1495.220
706.562, 1333.815
707.860, 1026.378
709.157, 987.931
710.454, 787.890
711.751, 792.901
713.047, 414.426
714.344, 501.973
715.640, 283.297
716.936, 325.617
718.232, 317.933
719.527, 78.243
720.823, 273.549
722.118, 157.851
723.413, 36.147
724.708, 94.438
726.002, 169.726
727.297, 28.991
728.591, 96.271
729.885, 160.528
731.179, 75.783
732.472, 56.033
733.766, 170.278
735.059, 2.479
736.352, 16.756
737.645, 38.017
738.937, 20.294
740.230, 4.374
741.522, 69.555
742.814, 83.780
744.106, 201.906
745.397, 132.078
746.689, 209.250
747.980, 211.419
749.271, 122.588
750.562, 142.755
751.853, 73.080
753.143, 28.048
754.433, 19.174
755.723, 83.703
757.013, 127.378
758.303, 21.542
759.592, 116.526
760.881, 60.593
762.170, 312.659
763.459, 475.726
764.748, 477.792
766.036, 1032.858
767.325, 1184.924
768.613, 1740.991
769.901, 2106.060
771.188, 2085.128
772.476, 2012.196
773.763, 1460.266
775.050, 1196.337
776.337, 890.409
777.624, 730.484
778.910, 381.563
780.196, 290.645
781.482, 286.729
782.768, 110.821
784.054, 228.915
785.339, 258.014
786.625, 29.883
787.910, 121.212
789.195, 1.312
790.479, 90.588
791.764, 77.477
793.048, 31.454
794.332, 62.606
795.616, 152.670
796.900, 68.833
798.183, 84.095
799.467, 44.947
800.750, 14.006
802.033, 6.938
803.316, 151.106
804.598, 182.846
805.880, 119.121
807.163, 39.094
808.445, 10.071
809.726, 55.055
811.008, 87.171
812.289, 5.838
813.570, 44.187
814.851, 157.182
816.132, 1.819
817.413, 96.818
818.693, 148.148
819.973, 26.880
821.253, 34.087
822.533, 218.057
823.813, 58.031
825.092, 112.013
826.371, 72.226
827.650, 50.781
828.929, 164.203
830.208, 215.199
831.486, 108.210
832.764, 12.229
834.042, 62.261
835.320, 193.317
836.598, 251.384
837.875, 51.489
839.152, 20.393
840.429, 287.757
841.706, 175.963
842.983, 276.224
844.259, 471.557
845.536, 232.951
846.812, 447.370
848.088, 423.845
849.363, 483.341
850.639, 598.869
851.914, 630.480
853.189, 711.127
854.464, 815.622
855.739, 869.085
857.013, 1040.498
858.288, 1026.420
859.562, 1165.416
860.836, 1264.463
862.110, 951.525
863.383, 974.633
864.656, 825.807
865.930, 671.031
867.203, 708.268
868.475, 577.549
869.748, 365.840
871.020, 379.158
872.292, 382.484
873.564, 306.693
874.836, 240.055
876.108, 287.424
877.379, 248.158
878.650, 368.828
879.922, 299.219
881.192, 188.596
882.463, 271.971
883.733, 284.383
885.004, 270.693
886.274, 207.934
887.544, 412.369
888.813, 301.100
890.083, 315.211
891.352, 401.309
892.621, 226.299
893.890, 280.344
895.159, 258.715
896.427, 321.154
897.695, 447.639
898.964, 488.129
900.232, 425.623
901.499, 580.127
902.767, 631.637
904.034, 547.150
905.301, 607.633
906.568, 738.924
907.835, 893.184
909.102, 797.160
910.368, 914.697
911.634, 903.910
912.900, 971.465
914.166, 1187.953
915.432, 835.521
916.697, 703.092
917.962, 900.664
919.227, 720.240
920.492, 746.820
921.757, 543.402
923.021, 578.984
924.285, 692.570
925.550, 601.158
926.813, 373.748
928.077, 319.338
929.341, 401.930
930.604, 299.525
931.867, 316.119
933.130, 325.715
934.393, 322.512
935.655, 303.129
936.918, 293.875
938.180, 257.104
939.442, 251.277
940.703, 260.875
941.965, 241.203
943.226, 126.383
944.488, 194.982
945.749, 268.146
947.009, 109.746
948.270, 47.342
949.530, 118.939
950.791, 93.586
952.051, 221.158
953.311, 66.080
954.570, 166.236
955.830, 150.828
957.089, 166.762
958.348, 106.354
959.607, 163.916
960.866, 97.355
962.124, 41.943
963.383, 132.527
964.641, 67.760
965.899, 288.338
967.156, 107.916
968.414, 248.254
969.671, 218.508
970.928, 119.080
972.185, 234.650
973.442, 151.203
974.699, 308.771
975.955, 249.334
977.211, 32.893
978.468, 387.447
979.723, 359.191
980.979, 261.395
982.234, 568.617
983.490, 301.248
984.745, 582.678
986.000, 547.756
987.254, 570.900
988.509, 778.545
989.763, 928.893
991.017, 902.283
992.271, 950.705
993.525, 1215.639
994.779, 1424.480
996.032, 1439.711
997.285, 2031.521
998.538, 1909.410
999.791, 2702.791
1001.044, 2948.613
1002.296, 3566.117
1003.548, 3225.932
1004.800, 2822.461
1006.052, 2616.553
1007.304, 2296.021
1008.555, 2147.445
1009.807, 2005.477
1011.058, 1743.320
1012.309, 1747.328
1013.559, 1601.176
1014.810, 1305.250
1016.060, 1327.957
1017.310, 1353.143
1018.560, 1247.600
1019.810, 1315.980
1021.060, 1344.096
1022.309, 1159.207
1023.558, 1284.719
1024.807, 1051.414
1026.056, 1123.645
1027.305, 1007.467
1028.553, 1157.266
1029.801, 971.131
1031.049, 811.875
1032.297, 934.621
1033.545, 1092.494
1034.793, 933.260
1036.040, 894.191
1037.287, 892.016
1038.534, 844.006
1039.781, 1060.648
1041.027, 721.000
1042.274, 914.229
1043.520, 1038.502
1044.766, 897.436
1046.012, 1066.920
1047.257, 908.414
1048.503, 1175.039
1049.748, 1006.479
1050.993, 1363.359
1052.238, 1298.438
1053.483, 1254.732
1054.727, 1378.434
1055.971, 1523.828
1057.216, 1788.787
1058.459, 2060.895
1059.703, 2535.480
1060.947, 2958.107
1062.190, 3434.688
1063.433, 4138.506
1064.676, 4858.137
1065.919, 5638.600
1067.162, 6641.500
1068.404, 6457.904
1069.646, 6407.438
1070.888, 6342.789
1072.130, 5384.107
1073.372, 4749.395
1074.613, 4127.652
1075.855, 3693.879
1077.096, 3259.285
1078.337, 3064.242
1079.578, 2623.381
1080.818, 2515.486
1082.059, 2298.561
1083.299, 2315.607
1084.539, 1939.619
1085.779, 1970.598
1087.018, 1717.545
1088.258, 1476.465
1089.497, 1410.355
1090.736, 1258.213
1091.975, 1046.041
1093.213, 928.855
1094.452, 820.674
1095.690, 744.389
1096.928, 697.107
1098.166, 817.695
1099.404, 850.348
1100.642, 809.549
1101.879, 667.576
1103.116, 664.117
1104.353, 727.652
1105.590, 514.152
1106.827, 563.656
1108.063, 387.125
1109.299, 445.559
1110.536, 459.955
1111.771, 490.186
1113.007, 480.510
1114.243, 581.766
1115.478, 595.363
1116.713, 556.242
1117.948, 624.432
1119.183, 611.361
1120.418, 493.734
1121.652, 671.838
1122.886, 689.900
1124.120, 649.953
1125.354, 405.965
1126.588, 497.711
1127.821, 140.645
1129.055, 250.541
1130.288, 246.389
1131.521, 149.193
1132.753, 179.949
1133.986, 16.344
1135.218, 267.281
1136.450, 72.145
1137.682, 63.316
1138.914, 61.283
1140.146, 130.986
1141.377, 122.842
1142.609, 168.842
1143.840, 142.779
1145.071, 7.895
1146.301, 105.115
1147.532, 18.348
1148.762, 38.748
1149.992, 2.959
1151.222, 8.629
1152.452, 162.416
1153.682, 155.529
1154.911, 170.545
1156.140, 33.338
1157.369, 43.061
1158.598, 112.068
1159.827, 91.477
1161.055, 109.297
1162.284, 12.170
1163.512, 122.943
1164.740, 212.361
1165.967, 82.271
1167.195, 157.014
1168.422, 13.412
1169.650, 212.764
1170.877, 4.111
1172.103, 110.949
1173.330, 170.543
1174.557, 263.504
1175.783, 264.418
1177.009, 244.559
1178.235, 267.611
1179.461, 265.213
1180.686, 229.578
1181.912, 249.250
1183.137, 205.943
1184.362, 226.725
1185.587, 182.160
1186.811, 260.990
1188.036, 327.580
1189.260, 354.439
1190.484, 342.359
1191.708, 418.404
1192.932, 282.422
1194.155, 274.271
1195.378, 238.395
1196.602, 277.146
1197.825, 167.314
1199.047, 352.852
1200.270, 295.061
1201.492, 431.330
1202.715, 191.217
1203.937, 433.490
1205.159, 321.807
1206.380, 483.002
1207.602, 74.762
1208.823, 196.041
1210.044, 370.625
1211.265, 172.242
1212.486, 442.783
1213.707, 332.217
1214.927, 525.318
1216.147, 405.654
1217.367, 694.275
1218.587, 524.555
1219.807, 714.746
1221.027, 690.975
1222.246, 626.074
1223.465, 915.131
1224.684, 1345.463
1225.903, 1277.863
1227.121, 1408.787
1228.340, 1567.672
1229.558, 1593.832
1230.776, 1656.078
1231.994, 1391.381
1233.212, 1668.207
1234.429, 1656.170
1235.646, 1642.793
1236.864, 2012.365
1238.081, 2160.885
1239.297, 2477.350
1240.514, 3154.736
1241.730, 3683.062
1242.947, 4250.324
1244.163, 4784.525
1245.378, 5098.705
1246.594, 4973.809
1247.810, 4050.838
1249.025, 3279.092
1250.240, 2583.018
1251.455, 2074.072
1252.670, 1659.008
1253.885, 1260.863
1255.099, 1047.479
1256.313, 802.156
1257.527, 690.145
1258.741, 722.447
1259.955, 554.598
1261.168, 706.049
1262.382, 693.451
1263.595, 620.855
1264.808, 568.404
1266.021, 622.666
1267.233, 507.094
1268.446, 896.264
1269.658, 476.375
1270.870, 778.443
1272.082, 669.467
1273.294, 720.451
1274.505, 607.627
1275.716, 701.799
1276.928, 588.150
1278.139, 607.730
1279.349, 502.359
1280.560, 505.961
1281.770, 606.354
1282.981, 468.080
1284.191, 433.766
1285.401, 474.068
1286.610, 411.301
1287.820, 441.980
1289.029, 112.287
1290.239, 397.572
1291.448, 253.295
1292.656, 439.807
1293.865, 351.143
1295.073, 543.613
1296.282, 230.910
1297.490, 168.041
1298.698, 494.684
1299.906, 293.424
1301.113, 254.301
1302.320, 189.898
1303.528, 200.246
1304.735, 120.973
1305.942, 248.943
1307.148, 342.926
1308.355, 149.543
1309.561, 337.818
1310.767, 395.018
1311.973, 353.273
1313.179, 220.801
1314.384, 412.197
1315.590, 341.262
1316.795, 453.217
1318.000, 157.141
1319.205, 426.432
1320.410, 300.355
1321.614, 150.840
1322.819, 313.318
1324.023, 215.963
1325.227, 259.928
1326.431, 293.023
1327.634, 60.045
1328.838, 232.992
1330.041, 80.852
1331.244, 201.631
1332.447, 47.330
1333.650, 16.951
1334.852, 8.488
1336.055, 101.943
1337.257, 96.318
1338.459, 123.615
1339.661, 64.828
1340.862, 121.961
1342.064, 46.008
1343.265, 145.971
1344.466, 212.850
1345.667, 184.645
1346.868, 413.352
1348.068, 156.957
1349.269, 1.459
1350.469, 149.861
1351.669, 240.119
1352.869, 101.242
1354.069, 354.277
1355.268, 32.236
1356.468, 234.129
1357.667, 305.031
1358.866, 72.018
1360.065, 327.188
1361.263, 158.270
1362.462, 227.334
1363.660, 378.377
1364.858, 216.869
1366.056, 295.900
1367.254, 338.629
1368.451, 156.232
1369.649, 127.656
1370.846, 230.816
1372.043, 229.445
1373.240, 153.246
1374.436, 409.824
1375.633, 326.943
1376.829, 201.486
1378.025, 157.539
1379.221, 302.947
1380.417, 483.516
1381.613, 284.830
1382.808, 317.852
1384.003, 346.098
1385.199, 367.525
1386.393, 245.387
1387.588, 311.529
1388.783, 212.547
1389.977, 374.752
1391.171, 253.215
1392.365, 151.414
1393.559, 236.041
1394.753, 171.615
1395.946, 186.545
1397.140, 266.807
1398.333, 254.180
1399.526, 215.301
1400.719, 191.213
1401.911, 237.389
1403.104, 76.768
1404.296, 39.514
1405.488, 259.852
1406.680, 38.129
1407.872, 165.395
1409.063, 362.021
1410.255, 32.918
1411.446, 258.699
1412.637, 57.014
1413.828, 288.908
1415.018, 299.418
1416.209, 324.816
1417.399, 156.377
1418.589, 269.254
1419.779, 168.891
1420.969, 258.094
1422.159, 228.412
1423.348, 151.492
1424.537, 143.605
1425.726, 124.418
1426.915, 128.186
1428.104, 15.771
1429.293, 66.004
1430.481, 0.229
1431.669, 0.000
##END=



