##NAMES=Beryl
##RRUFFID=R050121
##IDEAL CHEMISTRY=Be_3_Al_2_Si_6_O_18_
##LOCALITY=Cruziero mine, San Jose, Minas Gerais, Brazil
##OWNER=RRUFF
##SOURCE=Carlos and Paulo Vasconcelos
##DESCRIPTION=Light blue fragment, variety aquamarine
##STATUS=The identification of this mineral has been confirmed by X-ray diffraction and chemical analysis
##URL=rruff.info/R050121
##MEASURED CHEMISTRY=(Be_0.96_Li_0.04_)_3_Al_2.00_Si_6.00_O_18_Î‡Na_0.09_Mg_0.03_
##PIN_ID=L00500
##ORIENTATION=Laser parallel to -c* (0 0 -1). Fiducial mark perpendicular to laser is parallel to a [1 0 0]
114.254, 0.000
115.644, 138.742
117.034, 62.044
118.424, 73.907
119.813, 204.019
121.203, 34.953
122.592, 32.991
123.981, 295.413
125.369, 105.432
126.758, 170.003
128.146, 79.542
129.534, 229.516
130.922, 100.700
132.309, 155.789
133.696, 32.334
135.083, 269.005
136.470, 158.163
137.857, 326.917
139.243, 243.513
140.630, 222.666
142.016, 66.577
143.401, 171.411
144.787, 186.238
146.172, 141.313
147.557, 123.779
148.942, 196.233
150.327, 194.294
151.711, 105.330
153.096, 260.705
154.480, 143.347
155.863, 77.855
157.247, 117.973
158.630, 138.724
160.013, 184.451
161.396, 192.436
162.779, 275.752
164.161, 186.709
165.544, 104.048
166.926, 288.260
168.308, 178.023
169.689, 138.698
171.070, 286.217
172.452, 194.248
173.833, 104.561
175.213, 190.683
176.594, 148.418
177.974, 278.627
179.354, 352.882
180.734, 97.170
182.114, 185.595
183.493, 343.927
184.872, 221.657
186.251, 308.061
187.630, 148.498
189.008, 172.967
190.387, 252.465
191.765, 218.987
193.143, 160.531
194.520, 3.906
195.898, 299.674
197.275, 62.278
198.652, 269.942
200.029, 62.660
201.405, 14.425
202.782, 40.229
204.158, 161.066
205.534, 286.936
206.909, 101.183
208.285, 82.716
209.660, 196.656
211.035, 79.371
212.410, 38.356
213.784, 11.684
215.159, 49.742
216.533, 49.183
217.907, 64.902
219.281, 40.995
220.654, 32.895
222.027, 107.229
223.400, 165.478
224.773, 93.716
226.146, 107.963
227.518, 348.365
228.891, 162.604
230.263, 178.887
231.634, 195.945
233.006, 53.357
234.377, 196.798
235.748, 161.258
237.119, 99.703
238.490, 265.188
239.860, 168.656
241.231, 225.274
242.601, 219.704
243.970, 320.040
245.340, 310.342
246.709, 198.558
248.079, 366.737
249.448, 48.952
250.816, 213.378
252.185, 180.870
253.553, 114.426
254.921, 284.994
256.289, 179.543
257.657, 396.068
259.024, 241.568
260.391, 341.045
261.758, 171.500
263.125, 307.931
264.492, 325.337
265.858, 260.718
267.224, 454.075
268.590, 247.408
269.956, 433.720
271.321, 443.008
272.687, 462.272
274.052, 348.515
275.416, 435.733
276.781, 536.931
278.146, 437.104
279.510, 562.736
280.874, 457.380
282.237, 767.988
283.601, 619.551
284.964, 789.029
286.327, 1260.449
287.690, 1239.818
289.053, 1420.963
290.416, 1706.096
291.778, 1320.213
293.140, 1250.301
294.502, 825.367
295.863, 968.408
297.225, 875.523
298.586, 692.217
299.947, 803.756
301.308, 746.691
302.668, 765.309
304.029, 913.117
305.389, 1018.938
306.749, 984.213
308.108, 1176.361
309.468, 1361.266
310.827, 1468.746
312.186, 1702.387
313.545, 2088.496
314.903, 2615.086
316.262, 3130.266
317.620, 3630.812
318.978, 4134.695
320.336, 4722.021
321.693, 4730.463
323.051, 4370.348
324.408, 3256.926
325.765, 2678.361
327.121, 1718.062
328.478, 944.275
329.834, 779.564
331.190, 630.549
332.546, 460.627
333.902, 455.465
335.257, 299.791
336.612, 288.271
337.967, 281.246
339.322, 155.943
340.677, 202.021
342.031, 223.361
343.385, 320.076
344.739, 193.238
346.093, 162.504
347.446, 76.709
348.799, 223.012
350.153, 316.924
351.505, 373.783
352.858, 236.605
354.210, 412.814
355.563, 303.035
356.915, 224.842
358.267, 506.029
359.618, 284.148
360.969, 402.449
362.321, 305.729
363.672, 272.465
365.022, 391.727
366.373, 171.342
367.723, 299.271
369.073, 237.318
370.423, 440.889
371.773, 244.900
373.122, 384.857
374.471, 551.379
375.821, 407.395
377.169, 760.111
378.518, 619.838
379.866, 805.652
381.215, 1061.719
382.563, 1196.266
383.910, 1528.186
385.258, 2039.623
386.605, 2866.010
387.952, 3564.346
389.299, 5059.141
390.646, 6526.059
391.992, 8392.102
393.339, 10481.996
394.685, 11992.904
396.031, 12712.014
397.376, 11674.678
398.722, 10114.133
400.067, 8082.355
401.412, 6419.773
402.757, 5170.180
404.101, 3960.566
405.446, 2968.934
406.790, 2628.289
408.134, 2177.625
409.478, 2042.949
410.821, 1925.258
412.165, 1708.090
413.508, 1878.363
414.851, 2219.619
416.193, 2370.703
417.536, 2354.926
418.878, 2917.127
420.220, 3113.312
421.562, 2659.479
422.904, 2804.629
424.245, 2532.758
425.586, 1974.873
426.927, 1763.971
428.268, 1209.047
429.609, 1000.105
430.949, 1015.150
432.289, 1289.174
433.629, 912.184
434.969, 1188.172
436.309, 1067.143
437.648, 1495.098
438.987, 1583.082
440.326, 1538.000
441.665, 1481.896
443.003, 1593.266
444.342, 1313.604
445.680, 1270.428
447.018, 857.229
448.355, 593.008
449.693, 577.004
451.030, 572.736
452.367, 722.836
453.704, 571.553
455.041, 380.426
456.377, 358.070
457.713, 207.691
459.049, 103.289
460.385, 92.875
461.721, 331.432
463.056, 71.967
464.391, 48.471
465.726, 272.947
467.061, 91.402
468.395, 20.832
469.730, 182.225
471.064, 59.596
472.398, 319.314
473.731, 111.635
475.065, 333.939
476.398, 84.223
477.731, 388.771
479.064, 136.033
480.397, 246.461
481.729, 320.689
483.062, 112.896
484.394, 182.078
485.725, 30.238
487.057, 96.385
488.389, 194.508
489.720, 134.373
491.051, 274.666
492.382, 186.682
493.712, 204.736
495.043, 19.771
496.373, 92.773
497.703, 136.754
499.032, 56.723
500.362, 156.559
501.691, 119.494
503.020, 25.592
504.349, 84.266
505.678, 20.102
507.007, 144.822
508.335, 130.840
509.663, 13.150
510.991, 202.496
512.319, 27.881
513.646, 133.707
514.973, 19.299
516.300, 228.857
517.627, 16.410
518.954, 49.062
520.280, 257.396
521.607, 102.896
522.933, 116.371
524.259, 71.828
525.584, 89.264
526.910, 256.541
528.235, 27.934
529.560, 205.295
530.885, 74.668
532.209, 24.020
533.534, 158.338
534.858, 182.662
536.182, 30.977
537.506, 77.271
538.829, 79.541
540.152, 72.195
541.476, 96.990
542.799, 355.846
544.121, 4.104
545.444, 8.016
546.766, 139.113
548.088, 113.645
549.410, 49.619
550.732, 89.047
552.053, 120.691
553.375, 112.311
554.696, 192.906
556.017, 161.482
557.337, 402.037
558.658, 327.572
559.978, 440.090
561.298, 707.586
562.618, 546.061
563.938, 480.518
565.257, 660.953
566.576, 419.371
567.895, 519.766
569.214, 732.145
570.533, 678.502
571.851, 753.840
573.170, 980.158
574.488, 904.461
575.805, 1088.742
577.123, 1110.004
578.440, 1209.246
579.758, 1313.473
581.075, 1061.676
582.391, 1326.859
583.708, 1164.027
585.024, 967.172
586.341, 1029.303
587.657, 905.410
588.972, 875.502
590.288, 482.572
591.603, 297.627
592.918, 325.662
594.233, 319.678
595.548, 313.676
596.863, 169.656
598.177, 200.617
599.491, 235.559
600.805, 59.484
602.119, 60.387
603.432, 218.268
604.746, 177.129
606.059, 229.975
607.372, 7.197
608.685, 368.590
609.997, 78.361
611.309, 229.111
612.621, 112.844
613.933, 180.559
615.245, 239.254
616.557, 218.834
617.868, 399.961
619.179, 328.029
620.490, 266.660
621.801, 811.559
623.111, 523.215
624.421, 914.795
625.731, 404.777
627.041, 692.918
628.351, 310.252
629.660, 64.959
630.970, 601.459
632.279, 231.480
633.588, 255.947
634.896, 93.533
636.205, 282.971
637.513, 110.000
638.821, 275.033
640.129, 316.422
641.437, 477.309
642.744, 207.473
644.051, 460.900
645.358, 400.678
646.665, 607.578
647.972, 388.416
649.278, 480.701
650.584, 393.318
651.890, 650.479
653.196, 626.311
654.502, 575.975
655.807, 370.277
657.113, 686.676
658.418, 924.889
659.722, 726.607
661.027, 766.930
662.331, 710.473
663.636, 993.107
664.940, 655.879
666.244, 1312.959
667.547, 1065.254
668.851, 1675.232
670.154, 1811.916
671.457, 2299.342
672.760, 3172.973
674.062, 3584.812
675.365, 4760.336
676.667, 6764.004
677.969, 9040.180
679.271, 12738.648
680.572, 17555.582
681.874, 24107.898
683.175, 29927.277
684.476, 32686.189
685.777, 31260.930
687.077, 25803.756
688.378, 20324.033
689.678, 15300.645
690.978, 11442.248
692.278, 8132.945
693.577, 7257.695
694.877, 5346.928
696.176, 4785.160
697.475, 3580.148
698.774, 3413.436
700.072, 2759.596
701.371, 2423.344
702.669, 2027.303
703.967, 1961.053
705.265, 2145.377
706.562, 1711.740
707.860, 1280.955
709.157, 1442.299
710.454, 985.604
711.751, 1349.242
713.047, 782.744
714.344, 991.438
715.640, 426.125
716.936, 662.807
718.232, 805.484
719.527, 658.158
720.823, 531.826
722.118, 640.490
723.413, 406.148
724.708, 441.807
726.002, 695.455
727.297, 112.104
728.591, 349.750
729.885, 509.389
731.179, 399.029
732.472, 314.666
733.766, 442.299
735.059, 383.930
736.352, 492.559
737.645, 371.182
738.937, 636.807
740.230, 399.428
741.522, 558.049
742.814, 407.668
744.106, 491.283
745.397, 611.900
746.689, 326.516
747.980, 470.129
749.271, 270.740
750.562, 352.352
751.853, 97.965
753.143, 357.525
754.433, 396.135
755.723, 113.746
757.013, 393.859
758.303, 81.979
759.592, 161.588
760.881, 314.199
762.170, 515.811
763.459, 562.182
764.748, 534.793
766.036, 1065.018
767.325, 693.631
768.613, 1023.010
769.901, 985.627
771.188, 812.246
772.476, 775.867
773.763, 444.490
775.050, 719.119
776.337, 390.748
777.624, 464.383
778.910, 290.027
780.196, 197.330
781.482, 167.318
782.768, 122.977
784.054, 143.637
785.339, 260.928
786.625, 36.400
787.910, 292.258
789.195, 104.086
790.479, 244.262
791.764, 296.879
793.048, 49.686
794.332, 159.914
795.616, 34.520
796.900, 38.129
798.183, 81.254
799.467, 90.332
800.750, 72.074
802.033, 115.512
803.316, 304.047
804.598, 234.389
805.880, 278.062
807.163, 115.521
808.445, 79.988
809.726, 51.535
811.008, 209.922
812.289, 68.609
813.570, 245.834
814.851, 79.287
816.132, 32.762
817.413, 62.756
818.693, 422.709
819.973, 33.812
821.253, 5.297
822.533, 269.234
823.813, 78.230
825.092, 134.699
826.371, 135.779
827.650, 64.732
828.929, 146.744
830.208, 236.230
831.486, 241.252
832.764, 117.162
834.042, 12.418
835.320, 54.010
836.598, 348.447
837.875, 167.932
839.152, 78.424
840.429, 357.932
841.706, 56.447
842.983, 150.977
844.259, 458.551
845.536, 116.139
846.812, 58.734
848.088, 177.342
849.363, 354.963
850.639, 370.596
851.914, 70.271
853.189, 152.963
854.464, 389.770
855.739, 598.602
857.013, 302.455
858.288, 297.371
859.562, 323.303
860.836, 413.273
862.110, 160.258
863.383, 356.293
864.656, 205.338
865.930, 377.395
867.203, 323.471
868.475, 324.660
869.748, 187.865
871.020, 289.088
872.292, 359.322
873.564, 256.627
874.836, 288.014
876.108, 198.449
877.379, 284.898
878.650, 387.367
879.922, 141.850
881.192, 182.352
882.463, 361.869
883.733, 185.406
885.004, 35.951
886.274, 275.518
887.544, 563.098
888.813, 82.693
890.083, 282.305
891.352, 465.932
892.621, 411.574
893.890, 551.234
895.159, 401.906
896.427, 223.592
897.695, 580.295
898.964, 308.010
900.232, 664.734
901.499, 730.477
902.767, 635.225
904.034, 548.986
905.301, 740.760
906.568, 874.547
907.835, 1072.344
909.102, 750.152
910.368, 732.975
911.634, 975.811
912.900, 961.658
914.166, 1210.516
915.432, 759.387
916.697, 468.277
917.962, 1183.182
919.227, 541.098
920.492, 803.025
921.757, 664.965
923.021, 648.914
924.285, 796.875
925.550, 617.848
926.813, 658.830
928.077, 600.824
929.341, 569.828
930.604, 699.844
931.867, 634.869
933.130, 647.904
934.393, 936.951
935.655, 479.006
936.918, 845.074
938.180, 438.150
939.442, 452.205
940.703, 688.303
941.965, 687.668
943.226, 726.605
944.488, 525.914
945.749, 643.424
947.009, 535.570
948.270, 305.730
949.530, 565.898
950.791, 499.807
952.051, 464.996
953.311, 549.545
954.570, 554.504
955.830, 545.719
957.089, 406.424
958.348, 358.662
959.607, 433.908
960.866, 227.168
962.124, 402.961
963.383, 583.236
964.641, 379.203
965.899, 530.504
967.156, 492.818
968.414, 312.141
969.671, 610.566
970.928, 208.895
972.185, 327.824
973.442, 244.922
974.699, 422.305
975.955, 357.086
977.211, 56.730
978.468, 271.145
979.723, 336.695
980.979, 99.141
982.234, 642.590
983.490, 45.875
984.745, 432.684
986.000, 545.984
987.254, 313.504
988.509, 649.711
989.763, 653.254
991.017, 800.117
992.271, 987.105
993.525, 1063.969
994.779, 1518.051
996.032, 1536.898
997.285, 1903.543
998.538, 1860.195
999.791, 2446.988
1001.044, 2042.117
1002.296, 2496.613
1003.548, 2137.395
1004.800, 1928.188
1006.052, 1994.984
1007.304, 1778.082
1008.555, 1680.691
1009.807, 1353.609
1011.058, 1215.352
1012.309, 1248.273
1013.559, 1156.016
1014.810, 987.148
1016.060, 1030.973
1017.310, 880.676
1018.560, 580.434
1019.810, 800.375
1021.060, 895.023
1022.309, 478.066
1023.558, 865.059
1024.807, 569.859
1026.056, 761.023
1027.305, 493.328
1028.553, 956.422
1029.801, 757.129
1031.049, 635.906
1032.297, 781.793
1033.545, 739.680
1034.793, 822.305
1036.040, 847.934
1037.287, 984.055
1038.534, 879.602
1039.781, 1314.652
1041.027, 796.457
1042.274, 1001.918
1043.520, 1084.359
1044.766, 847.406
1046.012, 821.566
1047.257, 709.070
1048.503, 1207.746
1049.748, 851.777
1050.993, 1421.203
1052.238, 1272.227
1053.483, 1158.242
1054.727, 1212.250
1055.971, 1992.574
1057.216, 1951.562
1058.459, 2383.551
1059.703, 2656.527
1060.947, 3039.500
1062.190, 3580.461
1063.433, 4059.410
1064.676, 4827.355
1065.919, 4967.297
1067.162, 6042.480
1068.404, 5248.398
1069.646, 5464.305
1070.888, 5793.191
1072.130, 4739.074
1073.372, 4460.941
1074.613, 4366.797
1075.855, 3847.734
1077.096, 3133.566
1078.337, 3607.375
1079.578, 2884.172
1080.818, 2786.957
1082.059, 2256.723
1083.299, 2349.469
1084.539, 1967.199
1085.779, 1732.910
1087.018, 1447.605
1088.258, 1297.234
1089.497, 1316.949
1090.736, 1098.598
1091.975, 1062.254
1093.213, 1011.883
1094.452, 1184.496
1095.690, 728.098
1096.928, 762.676
1098.166, 694.234
1099.404, 963.770
1100.642, 405.301
1101.879, 746.809
1103.116, 550.305
1104.353, 763.812
1105.590, 534.289
1106.827, 679.801
1108.063, 631.289
1109.299, 641.750
1110.536, 591.184
1111.771, 505.527
1113.007, 356.988
1114.243, 354.793
1115.478, 215.148
1116.713, 241.469
1117.948, 432.773
1119.183, 3.164
1120.418, 364.246
1121.652, 983.547
1122.886, 998.746
1124.120, 787.957
1125.354, 253.113
1126.588, 424.734
1127.821, 6.480
1129.055, 480.340
1130.288, 416.734
1131.521, 338.492
1132.753, 171.652
1133.986, 196.535
1135.218, 526.176
1136.450, 132.180
1137.682, 438.879
1138.914, 186.121
1140.146, 166.070
1141.377, 202.180
1142.609, 108.617
1143.840, 226.707
1145.071, 354.230
1146.301, 348.461
1147.532, 255.324
1148.762, 178.129
1149.992, 98.449
1151.222, 47.789
1152.452, 292.570
1153.682, 10.016
1154.911, 228.215
1156.140, 118.457
1157.369, 54.355
1158.598, 2.676
1159.827, 364.609
1161.055, 83.234
1162.284, 311.910
1163.512, 161.531
1164.740, 193.898
1165.967, 347.320
1167.195, 152.793
1168.422, 52.824
1169.650, 719.809
1170.877, 171.363
1172.103, 215.469
1173.330, 75.855
1174.557, 108.527
1175.783, 147.016
1177.009, 66.348
1178.235, 228.426
1179.461, 54.355
1180.686, 100.363
1181.912, 413.211
1183.137, 84.773
1184.362, 157.324
1185.587, 294.531
1186.811, 174.359
1188.036, 72.605
1189.260, 321.250
1190.484, 116.488
1191.708, 422.789
1192.932, 159.035
1194.155, 316.098
1195.378, 276.215
1196.602, 450.773
1197.825, 337.750
1199.047, 688.523
1200.270, 526.254
1201.492, 911.375
1202.715, 363.746
1203.937, 601.074
1205.159, 631.234
1206.380, 821.484
1207.602, 745.859
1208.823, 567.230
1210.044, 524.336
1211.265, 647.379
1212.486, 505.363
1213.707, 395.293
1214.927, 670.168
1216.147, 472.965
1217.367, 659.715
1218.587, 626.359
1219.807, 754.953
1221.027, 749.484
1222.246, 445.867
1223.465, 937.199
1224.684, 1311.426
1225.903, 938.336
1227.121, 1062.141
1228.340, 1333.824
1229.558, 1317.379
1230.776, 1304.828
1231.994, 1321.211
1233.212, 1635.488
1234.429, 1871.184
1235.646, 1988.297
1236.864, 2393.344
1238.081, 2363.289
1239.297, 2518.172
1240.514, 2551.660
1241.730, 2712.633
1242.947, 2423.230
1244.163, 2249.742
1245.378, 2049.156
1246.594, 1698.484
1247.810, 1578.609
1249.025, 1327.145
1250.240, 1265.949
1251.455, 966.898
1252.670, 876.750
1253.885, 806.512
1255.099, 770.184
1256.313, 593.758
1257.527, 964.238
1258.741, 885.629
1259.955, 184.934
1261.168, 668.707
1262.382, 528.840
1263.595, 635.941
1264.808, 145.898
1266.021, 456.785
1267.233, 237.805
1268.446, 692.504
1269.658, 244.840
1270.870, 632.379
1272.082, 184.836
1273.294, 345.219
1274.505, 149.719
1275.716, 414.949
1276.928, 18.082
1278.139, 469.023
1279.349, 286.566
1280.560, 163.082
1281.770, 327.727
1282.981, 208.602
1284.191, 182.047
1285.401, 56.109
1286.610, 190.938
1287.820, 363.902
1289.029, 36.035
1290.239, 511.605
1291.448, 314.043
1292.656, 193.832
1293.865, 411.199
1295.073, 74.188
1296.282, 33.969
1297.490, 55.777
1298.698, 473.109
1299.906, 273.438
1301.113, 15.797
1302.320, 291.375
1303.528, 2.168
1304.735, 338.207
1305.942, 17.512
1307.148, 358.953
1308.355, 41.691
1309.561, 289.430
1310.767, 28.566
1311.973, 131.918
1313.179, 18.629
1314.384, 322.523
1315.590, 352.566
1316.795, 317.371
1318.000, 14.426
1319.205, 400.285
1320.410, 370.320
1321.614, 30.277
1322.819, 462.152
1324.023, 240.930
1325.227, 547.289
1326.431, 243.906
1327.634, 60.453
1328.838, 299.789
1330.041, 375.191
1331.244, 536.516
1332.447, 73.785
1333.650, 244.992
1334.852, 335.137
1336.055, 144.223
1337.257, 318.258
1338.459, 165.238
1339.661, 332.172
1340.862, 457.059
1342.064, 164.906
1343.265, 389.711
1344.466, 393.480
1345.667, 292.219
1346.868, 724.918
1348.068, 499.211
1349.269, 255.816
1350.469, 628.059
1351.669, 371.699
1352.869, 496.305
1354.069, 815.969
1355.268, 119.504
1356.468, 602.844
1357.667, 844.250
1358.866, 707.746
1360.065, 955.926
1361.263, 654.207
1362.462, 582.816
1363.660, 1025.371
1364.858, 723.309
1366.056, 778.750
1367.254, 1036.508
1368.451, 707.727
1369.649, 407.344
1370.846, 1134.723
1372.043, 503.180
1373.240, 648.449
1374.436, 780.758
1375.633, 489.965
1376.829, 531.922
1378.025, 180.324
1379.221, 307.699
1380.417, 485.363
1381.613, 501.676
1382.808, 574.461
1384.003, 648.184
1385.199, 639.602
1386.393, 594.246
1387.588, 563.273
1388.783, 402.527
1389.977, 423.434
1391.171, 301.945
1392.365, 389.863
1393.559, 628.746
1394.753, 379.109
1395.946, 396.137
1397.140, 370.629
1398.333, 672.727
1399.526, 242.383
1400.719, 448.078
1401.911, 314.645
1403.104, 542.480
1404.296, 64.941
1405.488, 467.422
1406.680, 26.719
1407.872, 282.539
1409.063, 477.734
1410.255, 126.168
1411.446, 510.652
1412.637, 30.250
1413.828, 455.996
1415.018, 522.367
1416.209, 510.090
1417.399, 132.355
1418.589, 730.133
1419.779, 371.473
1420.969, 451.215
1422.159, 249.586
1423.348, 210.434
1424.537, 511.883
1425.726, 325.742
1426.915, 258.355
1428.104, 439.258
1429.293, 5.648
1430.481, 208.398
1431.669, 191.562
1432.857, 0.000
##END=



