##NAMES=Bikitaite
##RRUFFID=R050160
##IDEAL CHEMISTRY=LiAlSi_2_O_6_&#183;H_2_O
##LOCALITY=Foote mine, Kings Mountain, Cleveland County, North Carolina, USA
##OWNER=RRUFF
##SOURCE=Jim McGlasson
##DESCRIPTION=Colorless prismatic crystals
##STATUS=The identification of this mineral has been confirmed by X-ray diffraction and chemical analysis
##URL=rruff.info/R050160
##MEASURED CHEMISTRY=Li_1.00_Si_2.00_O_6_Â·1.25H_2_O ; Li not measured but estimated by stoichiometry
##PIN_ID=M00075
##ORIENTATION=Laser parallel to (0 1 1). Fiducial mark perpendicular to laser is parallel to a [1 0 0]
93.48000, 0.0000000E+00
94.71400, 37.01953
95.94800, 764.2969
97.18200, 1736.510
98.41600, 3543.191
99.64900, 4865.391
100.8830, 6462.516
102.1160, 8305.080
103.3490, 10180.02
104.5820, 12091.79
105.8150, 14092.91
107.0470, 15433.79
108.2800, 17349.55
109.5120, 19033.48
110.7440, 20161.81
111.9760, 20752.05
113.2080, 21345.54
114.4400, 21985.04
115.6710, 22443.44
116.9030, 21630.03
118.1340, 20945.74
119.3650, 19014.84
120.5960, 17437.11
121.8270, 15388.90
123.0580, 13155.11
124.2880, 10074.41
125.5190, 7082.234
126.7490, 4877.932
127.9790, 2773.297
129.2090, 1527.529
130.4390, 781.1699
131.6680, 113.8555
132.8980, 163.9668
134.1270, 480.6270
135.3560, 233.7969
136.5850, 522.6426
137.8140, 1378.213
139.0430, 2426.432
140.2710, 3263.088
141.5000, 3917.939
142.7280, 4718.943
143.9560, 4425.344
145.1840, 4275.213
146.4120, 3941.208
147.6390, 4046.031
148.8670, 4346.646
150.0940, 4574.189
151.3210, 5176.021
152.5490, 5816.312
153.7750, 6380.123
155.0020, 7086.125
156.2290, 7488.098
157.4550, 8192.670
158.6810, 8274.972
159.9080, 8130.930
161.1340, 7935.848
162.3590, 7254.160
163.5850, 6662.979
164.8110, 6152.760
166.0360, 5581.544
167.2610, 5242.150
168.4860, 4878.783
169.7110, 4428.006
170.9360, 3963.970
172.1610, 3192.648
173.3850, 2770.997
174.6100, 2013.960
175.8340, 1547.472
177.0580, 963.4766
178.2820, 326.2100
179.5050, 140.5322
180.7290, 513.6426
181.9520, 685.9756
183.1760, 668.0566
184.3990, 772.7148
185.6220, 800.5684
186.8450, 477.3154
188.0670, 573.5742
189.2900, 402.0449
190.5120, 228.1504
191.7340, 69.71094
192.9560, 481.0596
194.1780, 787.7676
195.4000, 1416.307
196.6220, 1915.770
197.8430, 2414.886
199.0640, 2983.375
200.2860, 3860.158
201.5070, 4512.584
202.7270, 4960.850
203.9480, 4826.958
205.1690, 4635.898
206.3890, 4205.129
207.6090, 3199.254
208.8290, 2459.113
210.0490, 1582.549
211.2690, 1113.924
212.4890, 762.5430
213.7080, 698.8311
214.9280, 717.5332
216.1470, 453.1611
217.3660, 729.3154
218.5850, 718.3232
219.8030, 1066.270
221.0220, 1210.167
222.2400, 1254.016
223.4590, 1237.815
224.6770, 1217.569
225.8950, 979.2275
227.1120, 733.7090
228.3300, 594.9824
229.5480, 441.0625
230.7650, 174.0225
231.9820, 201.8887
233.1990, 78.66602
234.4160, 183.3105
235.6330, 369.7559
236.8490, 276.9229
238.0660, 492.8428
239.2820, 1027.592
240.4980, 1354.194
241.7140, 1523.498
242.9300, 1877.099
244.1460, 2481.264
245.3610, 2969.340
246.5770, 3428.889
247.7920, 4033.607
249.0070, 4501.299
250.2220, 4838.816
251.4370, 5121.938
252.6510, 5295.191
253.8660, 5553.706
255.0800, 5357.238
256.2940, 5121.173
257.5080, 4877.504
258.7220, 4201.231
259.9360, 3704.153
261.1490, 2827.488
262.3630, 2013.218
263.5760, 1448.147
264.7890, 785.1445
266.0020, 372.2178
267.2150, 160.4082
268.4270, 11.24414
269.6400, 152.7295
270.8520, 242.0518
272.0640, 338.3320
273.2760, 310.1758
274.4880, 437.9355
275.7000, 372.5000
276.9120, 362.8281
278.1230, 207.8896
279.3340, 153.9482
280.5450, 42.76660
281.7560, 103.7256
282.9670, 578.4463
284.1780, 588.8340
285.3880, 826.6797
286.5980, 1207.111
287.8090, 1396.484
289.0190, 1679.434
290.2290, 1868.869
291.4380, 1728.046
292.6480, 1748.031
293.8570, 1629.836
295.0670, 1467.459
296.2760, 1534.900
297.4850, 1435.162
298.6930, 1332.170
299.9020, 1488.845
301.1110, 1424.158
302.3190, 1411.176
303.5270, 1527.968
304.7350, 1746.555
305.9430, 1934.936
307.1510, 2052.067
308.3580, 2194.864
309.5660, 2550.268
310.7730, 2745.370
311.9800, 2841.221
313.1870, 2628.934
314.3940, 2171.543
315.6010, 2050.059
316.8070, 1526.477
318.0130, 1182.787
319.2200, 1020.983
320.4260, 873.0576
321.6310, 703.2607
322.8370, 940.5439
324.0430, 882.2734
325.2480, 808.1797
326.4540, 885.5615
327.6590, 667.8428
328.8640, 876.5781
330.0680, 937.5957
331.2730, 788.8555
332.4780, 789.7207
333.6820, 870.4561
334.8860, 1022.193
336.0900, 1240.153
337.2940, 1506.398
338.4980, 1850.859
339.7010, 2118.100
340.9050, 2272.590
342.1080, 2621.185
343.3110, 2826.423
344.5140, 3102.715
345.7170, 3241.848
346.9200, 3539.062
348.1220, 3475.254
349.3240, 3411.446
350.5270, 3547.609
351.7290, 3780.772
352.9310, 3748.867
354.1320, 4053.908
355.3340, 3979.255
356.5350, 4001.523
357.7370, 4370.893
358.9380, 4565.613
360.1390, 5065.736
361.3400, 5464.391
362.5400, 6009.982
363.7410, 6650.639
364.9410, 7498.463
366.1410, 8459.691
367.3410, 9607.241
368.5410, 10917.83
369.7410, 12576.18
370.9400, 14137.02
372.1400, 16480.75
373.3390, 18742.46
374.5380, 21192.48
375.7370, 23633.38
376.9360, 26400.40
378.1350, 29166.55
379.3330, 31416.69
380.5310, 33313.64
381.7300, 35199.33
382.9280, 36081.14
384.1260, 36932.70
385.3230, 36892.48
386.5210, 36675.82
387.7180, 36121.46
388.9160, 35272.97
390.1130, 34714.32
391.3100, 34510.49
392.5060, 34636.47
393.7030, 34421.29
394.9000, 34351.92
396.0960, 33875.38
397.2920, 32575.67
398.4880, 30245.77
399.6840, 27929.71
400.8800, 25113.48
402.0750, 22099.08
403.2710, 19651.52
404.4660, 17496.80
405.6610, 15900.93
406.8560, 14683.72
408.0510, 13801.97
409.2450, 13306.68
410.4400, 13051.05
411.6340, 12724.08
412.8280, 12605.66
414.0220, 12824.23
415.2160, 13267.09
416.4100, 13423.81
417.6030, 13870.22
418.7970, 14506.53
419.9900, 14987.90
421.1830, 15208.84
422.3760, 15522.46
423.5690, 15772.71
424.7610, 15414.75
425.9540, 14979.06
427.1460, 13978.63
428.3380, 13212.49
429.5300, 12067.07
430.7220, 10616.97
431.9140, 9628.162
433.1050, 8257.543
434.2970, 7425.486
435.4880, 6652.078
436.6790, 5689.316
437.8700, 5312.562
439.0610, 5096.183
440.2510, 4844.994
441.4420, 4968.615
442.6320, 5017.228
443.8220, 5275.879
445.0120, 5552.188
446.2020, 6308.543
447.3910, 6675.402
448.5810, 7191.195
449.7700, 7453.796
450.9600, 7710.404
452.1490, 7864.001
453.3370, 7754.584
454.5260, 7173.154
455.7150, 6334.713
456.9030, 5852.122
458.0910, 5129.662
459.2800, 4683.252
460.4670, 4365.367
461.6550, 4227.420
462.8430, 4090.477
464.0300, 4154.945
465.2180, 4440.739
466.4050, 4583.578
467.5920, 4937.639
468.7790, 5674.516
469.9650, 6339.182
471.1520, 7046.520
472.3380, 7995.419
473.5250, 9092.387
474.7110, 10100.64
475.8970, 11724.34
477.0820, 13015.56
478.2680, 14881.38
479.4540, 16513.78
480.6390, 18723.97
481.8240, 20968.71
483.0090, 23802.62
484.1940, 26600.54
485.3780, 29650.21
486.5630, 33082.07
487.7470, 35965.05
488.9320, 38117.86
490.1160, 40193.01
491.3000, 40305.27
492.4830, 39852.29
493.6670, 37981.49
494.8500, 35890.17
496.0340, 32444.99
497.2170, 29589.78
498.4000, 26705.06
499.5820, 24092.70
500.7650, 22024.98
501.9480, 20478.28
503.1300, 19116.01
504.3120, 18177.18
505.4940, 17385.70
506.6760, 16722.37
507.8580, 15960.87
509.0390, 15421.71
510.2210, 14340.50
511.4020, 13731.50
512.5830, 12594.45
513.7640, 11677.30
514.9450, 10835.46
516.1250, 10002.52
517.3060, 8917.634
518.4860, 8168.529
519.6660, 7467.257
520.8460, 6964.469
522.0260, 6497.629
523.2060, 5922.417
524.3850, 5455.289
525.5650, 5111.229
526.7440, 4825.601
527.9230, 4574.438
529.1020, 4401.496
530.2810, 4324.338
531.4590, 4184.281
532.6380, 4130.024
533.8160, 4035.869
534.9940, 3979.713
536.1720, 3907.561
537.3500, 3771.881
538.5270, 3657.263
539.7050, 3525.119
540.8820, 3366.983
542.0590, 3308.856
543.2360, 3050.734
544.4130, 2689.618
545.5900, 2412.508
546.7660, 1970.404
547.9430, 1668.309
549.1190, 1232.222
550.2950, 1079.153
551.4710, 797.1201
552.6470, 843.1396
553.8220, 745.2324
554.9980, 583.4355
556.1730, 467.7852
557.3480, 366.4062
558.5230, 184.0234
559.6980, 242.9316
560.8730, 159.0625
562.0470, 253.3984
563.2220, 183.9414
564.3960, 360.6465
565.5700, 276.4961
566.7440, 70.43945
567.9170, 110.4609
569.0910, 8.457031
570.2640, 66.66406
571.4380, 26.17773
572.6110, 138.0000
573.7840, 193.2012
574.9570, 40.57617
576.1290, 84.65234
577.3020, 77.05859
578.4740, 29.23633
579.6460, 21.55078
580.8180, 111.9297
581.9900, 7.333984
583.1620, 25.24414
584.3330, 147.1934
585.5040, 39.34961
586.6760, 127.1465
587.8470, 96.66797
589.0180, 124.2227
590.1880, 171.7891
591.3590, 159.3672
592.5290, 118.9531
593.7000, 122.6055
594.8700, 106.2305
596.0400, 237.8867
597.2090, 24.44141
598.3790, 164.2285
599.5490, 84.90430
600.7180, 223.5977
601.8870, 22.30078
603.0560, 240.0273
604.2250, 152.7773
605.3940, 257.5527
606.5620, 190.3594
607.7300, 42.19727
608.8990, 92.07617
610.0670, 105.9746
611.2350, 114.9238
612.4020, 100.8516
613.5700, 76.33984
614.7370, 35.91406
615.9050, 20.06641
617.0720, 59.05859
618.2390, 147.0723
619.4060, 136.1602
620.5720, 215.3223
621.7390, 220.2598
622.9050, 184.9980
624.0710, 247.4902
625.2370, 174.1191
626.4030, 207.8516
627.5690, 238.7051
628.7340, 216.6934
629.9000, 117.7910
631.0650, 201.9629
632.2300, 73.26172
633.3950, 274.6230
634.5600, 62.15234
635.7240, 150.7422
636.8890, 164.4121
638.0530, 169.1953
639.2170, 62.90234
640.3810, 2.025391
641.5450, 38.98828
642.7080, 164.0156
643.8720, 102.1621
645.0350, 122.4004
646.1980, 233.7422
647.3610, 10.24805
648.5240, 68.80664
649.6870, 121.5527
650.8490, 79.88867
652.0120, 9.800781
653.1740, 5.546875
654.3360, 62.34961
655.4980, 41.23828
656.6600, 38.80078
657.8210, 163.8066
658.9830, 57.78516
660.1440, 124.7383
661.3050, 152.6641
662.4660, 1.437500
663.6270, 245.3945
664.7870, 188.2012
665.9480, 190.9785
667.1080, 334.7305
668.2680, 222.4531
669.4280, 427.2715
670.5880, 689.9434
671.7480, 692.5859
672.9070, 790.2051
674.0670, 903.7949
675.2260, 971.3594
676.3850, 1131.045
677.5440, 1114.697
678.7030, 1397.178
679.8610, 1234.486
681.0200, 1465.625
682.1780, 1285.021
683.3360, 1575.408
684.4940, 1660.748
685.6520, 1566.059
686.8090, 1583.342
687.9670, 1631.594
689.1240, 1537.818
690.2810, 1493.102
691.4380, 1285.266
692.5950, 1169.396
693.7520, 1166.500
694.9080, 1066.236
696.0650, 1195.891
697.2210, 1056.000
698.3770, 1045.115
699.5330, 1131.049
700.6880, 1079.098
701.8440, 1320.689
702.9990, 1212.512
704.1550, 1111.420
705.3100, 1141.160
706.4650, 1316.859
707.6190, 1322.059
708.7740, 1283.730
709.9290, 1295.303
711.0830, 1286.234
712.2370, 1302.828
713.3910, 1288.480
714.5450, 1222.676
715.6980, 1230.688
716.8520, 1164.750
718.0050, 1031.814
719.1580, 1032.172
720.3110, 999.6113
721.4640, 877.9043
722.6170, 947.3594
723.7700, 752.7129
724.9220, 770.3906
726.0740, 741.3594
727.2260, 493.8203
728.3780, 616.6699
729.5300, 420.7773
730.6810, 570.5273
731.8330, 388.0879
732.9840, 595.1934
734.1350, 443.4727
735.2860, 575.1934
736.4370, 583.8418
737.5880, 432.2969
738.7380, 505.2832
739.8880, 582.6387
741.0390, 636.0039
742.1890, 708.6699
743.3380, 630.8730
744.4880, 560.6875
745.6380, 712.8223
746.7870, 861.3945
747.9360, 904.5273
749.0850, 1036.529
750.2340, 1202.322
751.3830, 1373.361
752.5310, 1611.518
753.6800, 1877.012
754.8280, 2185.367
755.9760, 2620.576
757.1240, 3046.182
758.2720, 3431.928
759.4190, 3849.895
760.5670, 4105.520
761.7140, 4317.262
762.8610, 4587.504
764.0080, 4567.102
765.1550, 4737.338
766.3020, 4850.750
767.4480, 4524.234
768.5950, 4562.045
769.7410, 4056.721
770.8870, 3811.594
772.0330, 3554.410
773.1780, 3310.539
774.3240, 3046.309
775.4690, 2826.836
776.6140, 2548.207
777.7590, 2305.395
778.9040, 2173.873
780.0490, 1991.447
781.1940, 1992.230
782.3380, 1710.990
783.4820, 1635.207
784.6260, 1447.223
785.7700, 1339.398
786.9140, 1207.209
788.0580, 956.0371
789.2010, 994.8281
790.3450, 1008.455
791.4880, 977.1719
792.6310, 791.5645
793.7730, 671.0391
794.9160, 767.0020
796.0590, 543.6758
797.2010, 621.6348
798.3430, 609.0527
799.4850, 500.5449
800.6270, 404.4062
801.7690, 447.1934
802.9100, 568.6934
804.0520, 458.1621
805.1930, 488.9219
806.3340, 186.4316
807.4750, 318.1211
808.6160, 217.7715
809.7560, 322.3848
810.8970, 291.9648
812.0370, 382.5078
813.1770, 174.0137
814.3170, 175.4844
815.4570, 303.9180
816.5960, 86.31836
817.7360, 91.67188
818.8750, 327.9844
820.0140, 200.2637
821.1530, 326.5078
822.2920, 328.7148
823.4310, 244.8867
824.5690, 328.0254
825.7070, 221.1289
826.8460, 176.1992
827.9840, 252.2344
829.1220, 326.2344
830.2590, 255.2031
831.3970, 125.1348
832.5340, 305.0352
833.6710, 165.8984
834.8080, 154.7305
835.9450, 288.5273
837.0820, 150.2910
838.2190, 79.02148
839.3550, 199.7129
840.4910, 152.3711
841.6270, 260.9980
842.7630, 190.5938
843.8990, 5.156250
845.0350, 105.6562
846.1700, 198.1250
847.3060, 296.5625
848.4410, 184.9727
849.5760, 121.3555
850.7100, 76.70508
851.8450, 96.97852
852.9800, 38.22852
854.1140, 73.39844
855.2480, 108.4648
856.3820, 44.55469
857.5160, 80.53516
858.6500, 209.4844
859.7830, 83.41016
860.9170, 54.69727
862.0500, 46.11914
863.1830, 8.103516
864.3160, 211.6152
865.4480, 76.30664
866.5810, 231.9688
867.7130, 16.39453
868.8460, 61.14258
869.9780, 47.31055
871.1100, 31.16016
872.2410, 140.5938
873.3730, 133.0098
874.5050, 15.40039
875.6360, 141.7520
876.7670, 18.08203
877.8980, 50.37500
879.0290, 172.6406
880.1590, 8.884766
881.2900, 1.089844
882.4200, 45.74805
883.5500, 50.35156
884.6800, 84.57227
885.8100, 32.41992
886.9400, 91.61133
888.0690, 110.2715
889.1990, 46.13867
890.3280, 121.9824
891.4570, 0.8593750
892.5860, 29.67383
893.7140, 59.49805
894.8430, 96.33789
895.9710, 39.20898
897.1000, 21.88281
898.2280, 118.0312
899.3560, 41.99023
900.4830, 138.9746
901.6110, 7.000000
902.7380, 56.94336
903.8660, 19.88086
904.9930, 146.1797
906.1200, 155.2812
907.2460, 24.39062
908.3730, 100.5605
909.5000, 95.25977
910.6260, 114.8945
911.7520, 143.0820
912.8780, 16.31055
914.0040, 32.52539
915.1290, 48.74219
916.2550, 40.96484
917.3800, 1.226563
918.5050, 27.51172
919.6300, 119.8242
920.7550, 118.2012
921.8800, 49.58203
923.0040, 135.9824
924.1290, 1.625000
925.2530, 260.7578
926.3770, 92.14648
927.5010, 223.5449
928.6250, 124.9629
929.7480, 31.59961
930.8720, 56.82031
931.9950, 42.76758
933.1180, 130.6230
934.2410, 219.0078
935.3640, 109.3867
936.4860, 119.7754
937.6090, 85.16016
938.7310, 255.5371
939.8530, 349.9082
940.9750, 448.2734
942.0970, 461.5117
943.2180, 370.8652
944.3400, 381.2109
945.4610, 559.5527
946.5820, 715.8887
947.7030, 667.2168
948.8240, 853.3906
949.9450, 1054.570
951.0650, 1302.885
952.1860, 1559.340
953.3060, 2218.934
954.4260, 2644.236
955.5460, 3544.518
956.6650, 4315.812
957.7850, 5127.104
958.9040, 6105.393
960.0230, 7128.680
961.1420, 8237.965
962.2610, 9034.156
963.3800, 9438.438
964.4990, 10318.71
965.6170, 10546.02
966.7350, 10661.05
967.8530, 10275.37
968.9710, 9384.598
970.0890, 7906.785
971.2070, 6479.115
972.3240, 5103.291
973.4410, 4319.902
974.5580, 3271.250
975.6750, 2399.480
976.7920, 2198.840
977.9090, 1593.203
979.0250, 1332.037
980.1410, 1275.117
981.2580, 1280.527
982.3740, 1186.910
983.4890, 1065.377
984.6050, 1151.596
985.7200, 1265.465
986.8360, 1209.242
987.9510, 1543.084
989.0660, 1655.967
990.1810, 2265.180
991.2950, 2395.369
992.4100, 3000.447
993.5240, 3291.912
994.6390, 3259.062
995.7530, 3214.938
996.8660, 2804.398
997.9800, 2241.322
999.0940, 2119.848
1000.207, 1537.072
1001.320, 942.6113
1002.433, 1077.307
1003.546, 934.4141
1004.659, 767.3145
1005.772, 522.7402
1006.884, 657.3398
1007.996, 395.9512
1009.108, 561.9316
1010.220, 633.5645
1011.332, 549.7969
1012.444, 761.0391
1013.555, 577.7051
1014.666, 566.7188
1015.777, 643.3711
1016.888, 715.2441
1017.999, 553.7285
1019.110, 400.3496
1020.220, 363.6055
1021.331, 366.9531
1022.441, 302.7754
1023.551, 99.38477
1024.661, 5.765625
1025.770, 227.6328
1026.880, 104.1562
1027.989, 227.9277
1029.098, 68.83398
1030.207, 49.57227
1031.316, 128.0371
1032.425, 253.9844
1033.533, 188.8184
1034.642, 253.8086
1035.750, 175.4629
1036.858, 154.2012
1037.966, 384.2461
1039.073, 300.3105
1040.181, 587.3887
1041.288, 549.3418
1042.396, 531.4551
1043.503, 803.2773
1044.610, 972.4258
1045.716, 1280.590
1046.823, 1193.627
1047.929, 1507.758
1049.036, 1793.961
1050.142, 1793.170
1051.248, 2205.170
1052.353, 2406.375
1053.459, 2333.639
1054.564, 2609.920
1055.670, 2345.215
1056.775, 2246.521
1057.880, 2317.656
1058.985, 1756.990
1060.089, 1676.336
1061.194, 1786.699
1062.298, 1487.074
1063.402, 1029.936
1064.506, 1149.336
1065.610, 1037.658
1066.713, 875.0918
1067.817, 762.5352
1068.920, 769.9941
1070.023, 649.1680
1071.126, 433.9590
1072.229, 556.4609
1073.332, 389.9785
1074.435, 396.5117
1075.537, 300.0566
1076.639, 436.6191
1077.741, 396.1934
1078.843, 459.7812
1079.945, 478.3867
1081.046, 461.0059
1082.148, 451.6387
1083.249, 449.2949
1084.350, 469.9668
1085.451, 693.6562
1086.551, 510.3633
1087.652, 735.0898
1088.752, 560.8301
1089.853, 675.5859
1090.953, 428.3574
1092.053, 494.1426
1093.152, 565.9414
1094.252, 548.7559
1095.351, 689.5859
1096.451, 599.4316
1097.550, 804.1836
1098.649, 1137.057
1099.748, 943.4844
1100.846, 1168.439
1101.945, 1030.367
1103.043, 1145.693
1104.141, 1282.656
1105.239, 1086.402
1106.337, 1405.402
1107.434, 1174.910
1108.532, 1242.945
1109.629, 1155.631
1110.726, 1204.439
1111.823, 1176.529
1112.920, 1137.408
1114.017, 1109.309
1115.113, 1173.441
1116.210, 1250.980
1117.306, 1559.750
1118.402, 1540.930
1119.498, 1848.193
1120.593, 2067.477
1121.689, 2117.781
1122.784, 2533.137
1123.879, 2452.518
1124.974, 2848.912
1126.069, 2980.320
1127.164, 3406.742
1128.259, 3819.205
1129.353, 4169.688
1130.447, 4226.473
1131.541, 4639.994
1132.635, 5000.531
1133.729, 5439.082
1134.822, 5969.662
1135.916, 6639.434
1137.009, 7238.857
1138.102, 7866.531
1139.195, 7828.252
1140.288, 8382.139
1141.380, 8232.891
1142.473, 8230.795
1143.565, 7953.701
1144.657, 7643.496
1145.749, 6534.303
1146.841, 6019.131
1147.932, 5340.785
1149.024, 4593.172
1150.115, 4456.066
1151.206, 3726.006
1152.297, 3002.957
1153.388, 3056.951
1154.479, 2671.953
1155.569, 2217.973
1156.659, 1924.953
1157.750, 1693.248
1158.839, 1545.053
1159.929, 1432.117
1161.019, 1309.191
1162.108, 1338.275
1163.198, 1054.379
1164.287, 1174.629
1165.376, 787.7500
1166.465, 969.8789
1167.553, 866.2559
1168.642, 657.4297
1169.730, 885.8027
1170.818, 896.0000
1171.906, 641.4727
1172.994, 659.6914
1174.082, 811.4922
1175.170, 769.7832
1176.257, 511.0820
1177.344, 492.4863
1178.431, 306.8008
1179.518, 521.1230
1180.605, 587.4570
1181.691, 426.7949
1182.778, 392.5000
1183.864, 354.8516
1184.950, 326.2715
1186.036, 414.6445
1187.122, 375.0273
1188.207, 331.4141
1189.292, 240.9297
1190.378, 197.3301
1191.463, 78.73242
1192.548, 248.2812
1193.632, 293.8477
1194.717, 109.2754
1195.801, 346.7070
1196.886, 364.1543
1197.970, 369.9062
1199.054, 84.35938
1200.137, 174.8633
1201.221, 174.4355
1202.305, 164.9805
1203.388, 234.5352
1204.471, 226.0801
1205.554, 128.5586
1206.637, 26.04297
1207.719, 46.38086
1208.802, 53.02344
1209.884, 79.51562
1210.966, 119.1602
1212.048, 193.6621
1213.130, 27.67188
1214.212, 81.17773
1215.293, 25.68750
1216.374, 181.7734
1217.456, 40.28711
1218.536, 108.8047
1219.617, 128.4863
1220.698, 187.0195
1221.778, 238.5508
1222.859, 262.2559
1223.939, 130.6211
1225.019, 204.1602
1226.099, 153.6973
1227.178, 133.7617
1228.258, 70.71680
1229.337, 94.80078
1230.417, 33.38672
1231.496, 8.847656
1232.574, 14.99609
1233.653, 202.4297
1234.732, 62.14453
1235.810, 242.2539
1236.888, 56.34961
1237.966, 146.4902
1239.044, 19.96875
1240.122, 58.60352
1241.199, 64.95703
1242.277, 105.7031
1243.354, 57.41406
1244.431, 32.84766
1245.508, 6.105469
1246.585, 42.36133
1247.661, 25.23047
1248.738, 46.48438
1249.814, 46.74414
1250.890, 79.30078
1251.966, 105.2168
1253.042, 138.6680
1254.117, 158.5234
1255.193, 157.7578
1256.268, 96.98438
1257.343, 44.20898
1258.418, 145.4746
1259.493, 101.1719
1260.567, 110.0020
1261.642, 124.1699
1262.716, 44.68945
1263.790, 118.0371
1264.864, 32.76953
1265.938, 7.876953
1267.011, 42.88281
1268.085, 114.1699
1269.158, 12.26562
1270.231, 78.35352
1271.304, 18.43359
1272.377, 24.61914
1273.450, 244.7344
1274.522, 184.1094
1275.594, 85.42773
1276.666, 127.6211
1277.738, 58.66016
1278.810, 178.2500
1279.882, 319.1562
1280.953, 180.0508
1282.025, 169.9395
1283.096, 195.9883
1284.167, 175.3984
1285.238, 220.2852
1286.308, 262.1367
1287.379, 282.9766
1288.449, 365.4922
1289.519, 354.6211
1290.589, 259.4336
1291.659, 245.2324
1292.729, 29.97656
1293.798, 115.7734
1294.868, 89.50977
1295.937, 30.23633
1297.006, 145.9492
1298.075, 44.34961
1299.143, 146.3047
1300.212, 2.945313
1301.280, 274.4551
1302.348, 2.357422
1303.416, 147.9336
1304.484, 242.8496
1305.552, 80.40039
1306.620, 117.1250
1307.687, 255.9023
1308.754, 199.1582
1309.821, 116.6523
1310.888, 9.130859
1311.955, 273.5859
1313.021, 102.3730
1314.088, 149.0391
1315.154, 293.4707
1316.220, 171.8770
1317.286, 90.27148
1318.352, 404.7852
1319.417, 138.1445
1320.483, 89.48828
1321.548, 86.81445
1322.613, 237.1270
1323.678, 252.4297
1324.743, 251.7324
1325.807, 57.12500
1326.872, 218.3945
1327.936, 119.6543
1329.000, 104.9023
1330.064, 114.1367
1331.128, 113.4805
1332.191, 117.5645
1333.255, 185.7578
1334.318, 153.4570
1335.381, 175.6250
1336.444, 212.5410
1337.507, 388.0430
1338.569, 106.1758
1339.632, 415.2930
1340.694, 19.39258
1341.756, 245.8926
1342.818, 297.9512
1343.880, 51.29492
1344.941, 166.3184
1346.003, 269.3262
1347.064, 115.1348
1348.125, 157.1191
1349.186, 172.0508
1350.247, 202.0137
1351.308, 246.4961
1352.368, 276.8047
1353.428, 339.9746
1354.489, 307.8359
1355.549, 348.7930
1356.608, 185.6270
1357.668, 32.88086
1358.727, 38.68164
1359.787, 13.79492
1360.846, 371.1621
1361.905, 186.8242
1362.964, 149.7012
1364.022, 375.3301
1365.081, 16.59570
1366.139, 109.1914
1367.197, 170.2441
1368.255, 95.99023
1369.313, 313.5879
1370.371, 225.3535
1371.428, 303.0938
1372.486, 341.9824
1373.543, 259.4766
1374.600, 40.95703
1375.657, 77.63867
1376.713, 130.9141
1377.770, 72.25977
1378.826, 117.2090
1379.882, 64.46680
1380.938, 164.7402
1381.994, 197.4590
1383.050, 173.6992
1384.106, 185.1055
1385.161, 139.3164
1386.216, 125.5938
1387.271, 166.9043
1388.326, 205.0703
1389.381, 69.46094
1390.435, 105.5957
1391.490, 23.25977
1392.544, 27.46680
1393.598, 40.92383
1394.652, 98.03125
1395.705, 249.9570
1396.759, 294.7754
1397.812, 252.6992
1398.866, 124.4648
1399.919, 139.2363
1400.972, 76.10938
1402.024, 87.96680
1403.077, 29.37305
1404.129, 152.3906
1405.181, 338.6855
1406.233, 142.4727
1407.285, 154.2422
1408.337, 513.5879
1409.389, 103.3125
1410.440, 51.01758
1411.491, 263.7051
1412.542, 118.3770
1413.593, 245.0352
1414.644, 164.6699
1415.695, 349.2832
1416.745, 295.7090
1417.795, 354.2148
1418.845, 336.2363
1419.895, 198.0293
1420.945, 258.4824
1421.995, 221.9160
1423.044, 245.1035
1424.093, 162.5039
1425.142, 227.7109
1426.191, 310.0410
1427.240, 17.08594
1428.289, 91.63867
1429.337, 235.0430
1430.385, 60.25195
1431.433, 168.4375
1432.481, 95.47852
1433.529, 79.59766
1434.577, 24.70117
1435.624, 222.7871
1436.672, 191.8535
1437.719, 236.5488
1438.766, 13.40820
1439.812, 87.10547
1440.859, 140.1270
1441.905, 369.1523
1442.952, 227.1895
1443.998, 109.7559
1445.044, 336.3262
1446.090, 292.7305
1447.135, 159.8887
1448.181, 296.8965
1449.226, 158.0352
1450.271, 349.8379
1451.316, 114.7656
1452.361, 275.6621
1453.405, 377.6230
1454.450, 266.6328
1455.494, 205.6172
1456.538, 268.4160
1457.582, 334.6992
1458.626, 256.9590
1459.670, 46.81641
1460.713, 187.4512
1461.757, 118.1191
1462.800, 256.9805
1463.843, 211.7051
1464.886, 216.2148
1465.928, 313.1758
1466.971, 57.88477
1468.013, 168.6211
1469.055, 72.58594
1470.097, 317.1016
1471.139, 162.5527
1472.181, 19.66797
1473.222, 360.1035
1474.263, 230.1875
1475.305, 129.3340
1476.346, 349.2773
1477.386, 169.8457
1478.427, 70.39648
1479.468, 152.6719
1480.508, 217.2031
1481.548, 212.9609
1482.588, 154.7344
1483.628, 96.66797
1484.668, 35.92578
1485.707, 203.0059
1486.747, 186.6777
1487.786, 129.1152
1488.825, 263.3984
1489.864, 91.68555
1490.902, 218.6875
1491.941, 100.2168
1492.979, 4.263672
1494.017, 116.4707
1495.055, 216.6543
1496.093, 206.8496
1497.131, 49.05664
1498.168, 280.2578
1499.206, 149.5117
1500.243, 305.4863
1501.280, 71.93945
1502.317, 262.6641
1503.354, 243.8867
1504.390, 18.90625
1505.426, 154.5273
1506.463, 26.99023
1507.499, 142.8984
1508.535, 72.53320
1509.570, 227.4512
1510.606, 53.66016
1511.641, 34.93359
1512.676, 258.7363
1513.711, 58.48828
1514.746, 356.2109
1515.781, 250.7539
1516.816, 122.1152
1517.850, 190.7012
1518.884, 158.2559
1519.918, 249.7871
1520.952, 220.2480
1521.986, 225.9727
1523.019, 171.3340
1524.053, 275.6406
1525.086, 242.2207
1526.119, 249.5195
1527.152, 15.14258
1528.185, 125.8047
1529.217, 173.4160
1530.250, 371.0391
1531.282, 323.8223
1532.314, 12.37109
1533.346, 255.6289
1534.377, 169.7129
1535.409, 143.9844
1536.440, 211.9414
1537.472, 416.5859
1538.503, 235.0898
1539.534, 383.9766
1540.564, 2.878906
1541.595, 227.6543
1542.625, 113.4902
1543.656, 252.2773
1544.686, 171.0195
1545.716, 116.7051
1546.745, 138.5137
1547.775, 160.4238
1548.804, 163.3145
1549.834, 366.0391
1550.863, 325.3867
1551.892, 263.7812
1552.920, 323.8594
1553.949, 211.8125
1554.977, 416.6094
1556.006, 400.5254
1557.034, 413.9648
1558.062, 298.3457
1559.089, 331.6191
1560.117, 264.7148
1561.144, 216.6309
1562.172, 361.0898
1563.199, 18.14844
1564.226, 202.1230
1565.252, 157.3926
1566.279, 1445.824
1567.305, 124.6953
1568.332, 134.1680
1569.358, 33.81836
1570.384, 0.0000000E+00
##END=



