##NAMES=Bikitaite
##RRUFFID=R050160
##IDEAL CHEMISTRY=LiAlSi_2_O_6_&#183;H_2_O
##LOCALITY=Foote mine, Kings Mountain, Cleveland County, North Carolina, USA
##OWNER=RRUFF
##SOURCE=Jim McGlasson
##DESCRIPTION=Colorless prismatic crystals
##STATUS=The identification of this mineral has been confirmed by X-ray diffraction and chemical analysis
##URL=rruff.info/R050160
##MEASURED CHEMISTRY=Li_1.00_Si_2.00_O_6_Â·1.25H_2_O ; Li not measured but estimated by stoichiometry
##PIN_ID=M00081
##ORIENTATION=Laser parallel to (-1 -1 0). Fiducial mark perpendicular to laser is parallel to -c [0 0 -1]
74.540, 0.000
75.937, 30.662
77.333, 12.320
78.729, 231.392
80.125, 769.821
81.521, 1733.149
82.916, 1668.321
84.311, 1789.852
85.706, 1721.025
87.101, 1608.015
88.496, 1459.537
89.890, 1643.733
91.284, 2209.953
92.678, 3010.337
94.071, 3731.179
95.465, 4963.899
96.858, 5803.014
98.251, 6942.114
99.644, 8106.815
101.036, 8695.023
102.428, 8954.075
103.820, 8948.711
105.212, 8732.696
106.604, 7935.061
107.995, 7267.912
109.387, 6736.086
110.777, 5906.442
112.168, 5254.860
113.559, 4236.237
114.949, 3524.489
116.339, 2654.549
117.729, 1934.327
119.119, 1313.756
120.508, 891.797
121.897, 288.426
123.286, 173.930
124.675, 211.738
126.063, 87.918
127.452, 155.756
128.840, 155.583
130.228, 97.826
131.615, 364.073
133.003, 919.710
134.390, 1506.516
135.777, 2168.506
137.164, 3001.084
138.550, 4050.379
139.937, 4790.310
141.323, 5894.200
142.709, 6437.072
144.094, 7130.929
145.480, 7193.769
146.865, 7244.607
148.250, 6977.466
149.635, 6562.361
151.019, 6072.305
152.403, 5517.313
153.788, 5159.396
155.171, 4898.562
156.555, 4828.822
157.939, 4671.080
159.322, 4779.103
160.705, 4737.078
162.088, 4983.106
163.470, 4708.258
164.853, 4558.572
166.235, 4400.077
167.617, 3651.786
168.998, 3093.721
170.380, 2516.856
171.761, 1981.312
173.142, 1427.420
174.523, 1046.510
175.904, 651.939
177.284, 220.902
178.664, 31.099
180.044, 165.547
181.424, 20.106
182.803, 23.482
184.183, 129.478
185.562, 3.885
186.940, 38.807
188.319, 202.164
189.698, 78.764
191.076, 250.970
192.454, 663.451
193.831, 1152.201
195.209, 1929.212
196.586, 2976.485
197.963, 4020.889
199.340, 5314.602
200.717, 6458.259
202.093, 7523.779
203.470, 8118.300
204.846, 8374.992
206.221, 8498.942
207.597, 8746.126
208.972, 9298.530
210.347, 9746.018
211.722, 11024.396
213.097, 12765.631
214.472, 14287.898
215.846, 15940.324
217.220, 17062.979
218.594, 17459.848
219.967, 16779.926
221.341, 15220.223
222.714, 13119.712
224.087, 10552.377
225.460, 8433.253
226.832, 6270.311
228.204, 4575.553
229.577, 3191.985
230.948, 2210.596
232.320, 1483.390
233.692, 1132.364
235.063, 860.515
236.434, 684.840
237.805, 922.341
239.175, 964.010
240.545, 1275.046
241.916, 1852.373
243.286, 2139.310
244.655, 2723.542
246.025, 2998.275
247.394, 3291.220
248.763, 3479.160
250.132, 3622.947
251.501, 3942.468
252.869, 3996.600
254.237, 4372.211
255.605, 4293.253
256.973, 4068.667
258.340, 3400.453
259.708, 2575.593
261.075, 1693.065
262.442, 858.855
263.808, 228.906
265.175, 77.682
266.541, 186.434
267.907, 294.318
269.273, 396.243
270.639, 403.271
272.004, 480.410
273.369, 139.674
274.734, 21.013
276.099, 227.917
277.463, 67.979
278.828, 531.113
280.192, 940.344
281.556, 1518.756
282.919, 2528.314
284.283, 3416.018
285.646, 4782.891
287.009, 5864.910
288.372, 7106.081
289.734, 8626.414
291.097, 9345.839
292.459, 9730.344
293.821, 10054.581
295.183, 9752.220
296.544, 9654.764
297.905, 9172.477
299.266, 8823.300
300.627, 7769.226
301.988, 6376.245
303.348, 4900.345
304.709, 3400.522
306.069, 2412.774
307.428, 1656.104
308.788, 1122.511
310.147, 808.994
311.507, 638.553
312.865, 418.189
314.224, 257.901
315.583, 153.688
316.941, 50.551
318.299, 0.505
319.657, 253.448
321.015, 239.315
322.372, 272.807
323.729, 182.369
325.086, 241.166
326.443, 239.617
327.800, 260.090
329.156, 37.916
330.512, 7.994
331.868, 173.141
333.224, 327.367
334.579, 819.534
335.935, 1178.365
337.290, 1725.742
338.645, 2423.735
339.999, 3602.548
341.354, 4066.419
342.708, 4550.818
344.062, 5223.799
345.416, 5894.106
346.769, 6335.261
348.123, 6481.057
349.476, 6249.576
350.829, 6385.546
352.182, 6059.827
353.534, 5806.684
354.887, 5521.623
356.239, 5160.642
357.591, 5005.734
358.942, 5132.904
360.294, 5139.150
361.645, 5639.337
362.996, 5954.329
364.347, 6742.151
365.698, 7599.791
367.048, 8534.509
368.398, 9850.300
369.748, 11290.177
371.098, 13044.114
372.448, 15018.131
373.797, 17529.217
375.146, 19924.381
376.495, 23104.625
377.844, 26402.934
379.192, 28599.311
380.540, 31649.760
381.889, 32797.289
383.236, 34014.891
384.584, 34569.812
385.932, 34945.742
387.279, 35147.027
388.626, 35173.977
389.973, 35026.621
391.319, 34705.242
392.666, 34209.387
394.012, 33534.988
395.358, 32544.162
396.704, 31101.391
398.049, 28808.682
399.394, 26421.021
400.740, 23423.428
402.084, 21258.881
403.429, 19362.436
404.774, 17770.111
406.118, 16692.541
407.462, 15224.598
408.806, 13784.543
410.150, 13257.934
411.493, 12384.468
412.836, 11857.011
414.179, 11295.862
415.522, 10300.415
416.865, 10069.965
418.207, 9127.160
419.549, 8357.689
420.891, 7719.211
422.233, 7073.718
423.575, 6569.206
424.916, 5822.872
426.257, 5749.321
427.598, 5499.236
428.939, 5358.802
430.279, 5537.305
431.619, 5205.577
432.959, 5488.744
434.299, 5705.716
435.639, 6391.030
436.978, 6345.310
438.318, 6757.779
439.657, 6796.624
440.996, 6767.378
442.334, 6496.839
443.673, 6064.260
445.011, 5829.241
446.349, 5673.711
447.687, 5388.138
449.024, 5331.612
450.361, 5235.407
451.699, 4868.968
453.036, 4864.528
454.372, 4533.132
455.709, 4605.958
457.045, 4251.600
458.381, 4374.840
459.717, 4227.058
461.053, 4155.573
462.388, 4220.748
463.724, 4756.929
465.059, 5354.118
466.394, 6049.315
467.728, 6748.518
469.063, 7874.730
470.397, 8566.945
471.731, 9475.167
473.065, 10364.386
474.398, 10744.618
475.732, 11523.856
477.065, 11510.089
478.398, 11938.622
479.731, 12288.192
481.063, 12764.716
482.396, 13581.971
483.728, 15075.234
485.060, 17085.982
486.391, 19627.510
487.723, 23091.582
489.054, 26866.834
490.385, 31684.113
491.716, 36390.340
493.047, 40216.309
494.377, 43830.336
495.708, 45964.723
497.038, 46270.000
498.368, 44258.832
499.697, 41080.445
501.027, 37710.703
502.356, 33256.402
503.685, 28861.154
505.014, 24862.834
506.342, 20958.887
507.671, 18075.146
508.999, 15464.485
510.327, 13278.013
511.655, 11408.509
512.982, 9804.671
514.310, 8795.841
515.637, 7500.729
516.964, 6795.637
518.291, 5915.552
519.617, 5452.472
520.944, 4880.395
522.270, 4259.306
523.596, 4115.209
524.921, 3670.126
526.247, 3281.033
527.572, 3105.944
528.897, 2852.842
530.222, 2978.729
531.547, 2766.606
532.871, 2878.469
534.196, 2639.316
535.520, 2703.155
536.844, 2864.978
538.167, 2910.784
539.491, 2923.577
540.814, 2835.350
542.137, 2626.105
543.460, 2360.845
544.783, 2025.564
546.105, 1487.264
547.427, 1362.942
548.749, 1140.598
550.071, 861.234
551.393, 653.847
552.714, 552.438
554.035, 483.002
555.356, 323.544
556.677, 239.060
557.998, 62.551
559.318, 154.016
560.638, 208.454
561.958, 59.863
563.278, 52.245
564.597, 25.399
565.917, 105.094
567.236, 101.899
568.555, 113.812
569.874, 17.019
571.192, 44.225
572.511, 47.268
573.829, 56.511
575.147, 47.606
576.464, 34.682
577.782, 16.672
579.099, 17.614
580.416, 7.472
581.733, 53.595
583.050, 4.744
584.366, 25.012
585.683, 7.671
586.999, 60.079
588.315, 17.162
589.630, 51.779
590.946, 55.075
592.261, 146.683
593.576, 70.342
594.891, 24.682
596.206, 12.439
597.520, 65.105
598.834, 119.994
600.148, 24.769
601.462, 10.568
602.776, 15.983
604.089, 37.744
605.402, 30.095
606.715, 4.471
608.028, 20.641
609.341, 8.941
610.653, 4.704
611.965, 37.260
613.277, 129.238
614.589, 2.907
615.901, 88.673
617.212, 7.014
618.523, 83.160
619.834, 139.253
621.145, 290.296
622.456, 530.289
623.766, 644.233
625.076, 956.126
626.386, 819.968
627.696, 974.760
629.006, 542.501
630.315, 562.190
631.624, 285.828
632.933, 201.413
634.242, 237.947
635.551, 2.430
636.859, 12.175
638.167, 7.587
639.475, 36.605
640.783, 39.358
642.090, 29.866
643.398, 295.118
644.705, 170.529
646.012, 104.858
647.318, 205.486
648.625, 208.331
649.931, 53.903
651.237, 56.350
652.543, 44.729
653.849, 115.838
655.155, 157.316
656.460, 95.475
657.765, 60.246
659.070, 103.918
660.375, 39.154
661.679, 124.629
662.984, 4.352
664.288, 53.648
665.592, 47.467
666.895, 57.877
668.199, 26.575
669.502, 239.566
670.805, 254.311
672.108, 380.524
673.411, 338.979
674.713, 367.815
676.016, 540.367
677.318, 603.388
678.620, 803.956
679.921, 922.266
681.223, 1029.191
682.524, 1275.693
683.825, 1435.368
685.126, 2029.414
686.427, 2374.395
687.727, 2564.452
689.028, 2761.299
690.328, 3072.079
691.628, 3095.443
692.927, 3312.209
694.227, 3456.790
695.526, 3205.303
696.825, 3474.749
698.124, 3153.325
699.423, 3099.638
700.721, 2864.882
702.020, 2643.061
703.318, 2544.173
704.616, 2160.215
705.913, 2012.189
707.211, 2011.099
708.508, 2048.942
709.805, 1815.716
711.102, 1674.422
712.399, 1775.062
713.695, 1487.635
714.992, 1613.141
716.288, 1396.579
717.584, 1310.948
718.879, 1238.251
720.175, 1016.829
721.470, 1100.304
722.765, 967.173
724.060, 872.157
725.355, 846.141
726.649, 744.606
727.944, 702.966
729.238, 864.001
730.532, 539.320
731.825, 716.629
733.119, 689.276
734.412, 410.558
735.705, 374.826
736.998, 267.081
738.291, 208.334
739.584, 253.391
740.876, 90.628
742.168, 142.519
743.460, 11.733
744.752, 4.314
746.043, 55.622
747.334, 137.838
748.626, 135.715
749.916, 26.766
751.207, 142.766
752.498, 195.021
753.788, 224.414
755.078, 334.970
756.368, 428.784
757.658, 549.599
758.947, 579.817
760.237, 872.506
761.526, 824.204
762.815, 940.813
764.104, 837.062
765.392, 1001.562
766.680, 917.056
767.969, 783.515
769.257, 935.761
770.544, 588.157
771.832, 645.919
773.119, 741.664
774.406, 774.076
775.693, 965.794
776.980, 856.464
778.267, 1159.087
779.553, 1278.665
780.839, 1597.198
782.125, 1613.684
783.411, 1895.124
784.697, 1765.520
785.982, 1606.869
787.267, 1602.176
788.552, 1385.438
789.837, 1014.655
791.122, 979.528
792.406, 578.998
793.690, 537.996
794.974, 509.814
796.258, 307.145
797.542, 365.048
798.825, 128.966
800.108, 203.676
801.391, 94.660
802.674, 28.405
803.957, 80.095
805.239, 34.700
806.522, 88.891
807.804, 11.945
809.085, 27.838
810.367, 87.728
811.649, 1.204
812.930, 44.701
814.211, 16.932
815.492, 78.988
816.772, 20.248
818.053, 9.731
819.333, 35.410
820.613, 8.317
821.893, 0.014
823.173, 23.606
824.452, 96.617
825.732, 9.906
827.011, 62.961
828.290, 22.903
829.568, 50.745
830.847, 32.240
832.125, 34.065
833.403, 88.336
834.681, 46.967
835.959, 2.736
837.236, 33.139
838.514, 162.933
839.791, 399.975
841.068, 32.990
842.345, 78.972
843.621, 148.927
844.898, 6.146
846.174, 30.746
847.450, 141.608
848.726, 131.444
850.001, 143.254
851.277, 4.037
852.552, 179.794
853.827, 183.524
855.102, 110.229
856.376, 302.908
857.651, 307.564
858.925, 370.195
860.199, 339.804
861.473, 211.388
862.746, 412.950
864.020, 258.489
865.293, 147.005
866.566, 198.500
867.839, 228.973
869.112, 158.427
870.384, 133.858
871.656, 139.269
872.928, 7.340
874.200, 110.027
875.472, 120.385
876.744, 10.763
878.015, 25.840
879.286, 2.429
880.557, 138.080
881.828, 128.545
883.098, 52.115
884.369, 41.854
885.639, 134.280
886.909, 64.802
888.178, 117.807
889.448, 51.777
890.717, 146.235
891.987, 125.130
893.256, 165.367
894.524, 259.145
895.793, 166.296
897.061, 133.300
898.330, 168.000
899.598, 37.019
900.865, 265.812
902.133, 140.573
903.401, 77.215
904.668, 183.225
905.935, 183.577
907.202, 25.104
908.468, 243.890
909.735, 244.727
911.001, 344.568
912.267, 186.422
913.533, 304.305
914.799, 327.247
916.064, 192.220
917.330, 335.206
918.595, 233.248
919.860, 17.325
921.124, 247.441
922.389, 112.625
923.653, 251.842
924.918, 202.109
926.182, 282.401
927.445, 322.702
928.709, 352.019
929.972, 399.369
931.236, 431.734
932.499, 431.094
933.761, 571.451
935.024, 498.839
936.286, 534.225
937.549, 814.626
938.811, 538.044
940.073, 887.469
941.334, 818.890
942.596, 911.307
943.857, 1410.750
945.118, 1483.211
946.379, 1622.706
947.640, 2121.233
948.900, 2826.791
950.161, 3585.355
951.421, 4558.793
952.681, 6363.351
953.940, 8757.650
955.200, 11708.680
956.459, 15544.938
957.719, 20918.256
958.978, 25430.588
960.236, 27938.119
961.495, 26395.221
962.753, 22472.590
964.012, 17012.279
965.270, 12614.578
966.527, 9468.359
967.785, 7342.845
969.043, 6006.519
970.300, 5055.070
971.557, 4367.124
972.814, 3663.796
974.071, 3074.146
975.327, 2450.753
976.583, 2004.724
977.840, 1594.165
979.095, 1261.303
980.351, 885.002
981.607, 878.926
982.862, 700.319
984.117, 554.107
985.372, 602.093
986.627, 309.405
987.882, 334.082
989.136, 376.527
990.390, 205.539
991.644, 393.560
992.898, 335.449
994.152, 343.489
995.405, 372.535
996.659, 273.957
997.912, 547.916
999.165, 541.021
1000.417, 611.133
1001.670, 720.263
1002.922, 970.205
1004.174, 642.351
1005.426, 523.503
1006.678, 493.665
1007.930, 415.837
1009.181, 546.016
1010.432, 666.202
1011.683, 901.398
1012.934, 1094.602
1014.185, 1249.816
1015.435, 1531.039
1016.685, 1315.269
1017.935, 1023.508
1019.185, 1081.756
1020.435, 805.013
1021.684, 501.278
1022.934, 537.552
1024.183, 267.491
1025.432, 246.782
1026.680, 258.082
1027.929, 102.390
1029.177, 78.250
1030.425, 52.523
1031.673, 91.783
1032.921, 1.903
1034.169, 3.308
1035.416, 38.606
1036.663, 14.012
1037.911, 9.691
1039.157, 8.395
1040.404, 54.092
1041.650, 64.809
1042.897, 8.449
1044.143, 36.397
1045.389, 56.454
1046.634, 47.543
1047.880, 37.332
1049.125, 12.771
1050.371, 20.939
1051.615, 16.338
1052.860, 2.745
1054.105, 125.105
1055.349, 59.376
1056.593, 109.859
1057.837, 63.144
1059.081, 227.802
1060.325, 139.100
1061.568, 267.923
1062.812, 185.228
1064.055, 368.230
1065.298, 390.767
1066.540, 389.437
1067.783, 346.688
1069.025, 488.560
1070.267, 665.410
1071.509, 511.642
1072.751, 638.282
1073.993, 846.699
1075.234, 833.544
1076.475, 923.107
1077.716, 1345.668
1078.957, 1348.879
1080.198, 1740.854
1081.438, 2037.633
1082.679, 2374.396
1083.919, 2794.032
1085.159, 2996.717
1086.398, 3373.311
1087.638, 3588.230
1088.877, 3715.405
1090.116, 3500.919
1091.355, 3330.606
1092.594, 2873.863
1093.833, 2544.316
1095.071, 2296.905
1096.309, 1969.310
1097.547, 1884.648
1098.785, 1578.079
1100.023, 1668.481
1101.260, 1684.932
1102.498, 1748.261
1103.735, 1658.587
1104.972, 1732.513
1106.208, 1516.839
1107.445, 1546.328
1108.681, 1282.933
1109.918, 1438.672
1111.154, 1018.090
1112.389, 899.791
1113.625, 1011.888
1114.860, 768.319
1116.096, 857.917
1117.331, 849.386
1118.566, 798.370
1119.800, 907.207
1121.035, 889.167
1122.269, 649.158
1123.503, 748.946
1124.737, 676.410
1125.971, 572.891
1127.205, 593.384
1128.438, 396.899
1129.671, 361.689
1130.904, 206.221
1132.137, 333.758
1133.370, 320.444
1134.602, 275.165
1135.834, 202.704
1137.066, 214.562
1138.298, 268.098
1139.530, 209.860
1140.762, 446.281
1141.993, 356.794
1143.224, 268.495
1144.455, 189.745
1145.686, 300.232
1146.917, 338.186
1148.147, 323.656
1149.377, 427.352
1150.607, 427.820
1151.837, 437.259
1153.067, 427.690
1154.296, 638.696
1155.526, 814.105
1156.755, 908.504
1157.984, 971.891
1159.213, 1148.267
1160.441, 1391.979
1161.670, 1498.440
1162.898, 1943.080
1164.126, 1739.411
1165.354, 1934.730
1166.581, 2163.038
1167.809, 2111.334
1169.036, 1837.619
1170.263, 2080.891
1171.490, 1744.152
1172.717, 1626.401
1173.943, 1522.639
1175.170, 1195.865
1176.396, 1042.077
1177.622, 1047.285
1178.848, 850.406
1180.073, 579.589
1181.299, 754.656
1182.524, 555.567
1183.749, 451.807
1184.974, 379.937
1186.199, 367.600
1187.423, 221.779
1188.648, 223.686
1189.872, 272.876
1191.096, 129.224
1192.320, 89.984
1193.543, 215.689
1194.767, 161.840
1195.990, 106.057
1197.213, 126.588
1198.436, 52.574
1199.659, 225.795
1200.881, 29.918
1202.104, 246.862
1203.326, 40.793
1204.548, 126.709
1205.770, 29.997
1206.991, 92.711
1208.213, 14.218
1209.434, 104.592
1210.655, 102.558
1211.876, 44.378
1213.096, 15.393
1214.317, 27.685
1215.537, 2.502
1216.757, 11.915
1217.977, 17.116
1219.197, 37.417
1220.417, 92.944
1221.636, 5.632
1222.855, 30.086
1224.074, 15.152
1225.293, 89.107
1226.512, 5.160
1227.731, 12.155
1228.949, 16.346
1230.167, 79.539
1231.385, 36.596
1232.603, 15.039
1233.820, 18.641
1235.038, 24.393
1236.255, 78.512
1237.472, 37.435
1238.689, 24.696
1239.906, 93.135
1241.122, 60.954
1242.338, 104.759
1243.555, 140.552
1244.771, 98.421
1245.986, 105.209
1247.202, 93.131
1248.417, 129.846
1249.633, 164.927
1250.848, 27.901
1252.063, 223.266
1253.277, 4.177
1254.492, 61.535
1255.706, 33.053
1256.920, 109.609
1258.134, 42.201
1259.348, 38.376
1260.562, 115.501
1261.775, 76.911
1262.988, 1.700
1264.201, 6.763
1265.414, 28.980
1266.627, 22.976
1267.839, 12.878
1269.052, 50.079
1270.264, 130.260
1271.476, 312.425
1272.688, 146.583
1273.899, 278.709
1275.111, 69.819
1276.322, 297.911
1277.533, 191.987
1278.744, 97.044
1279.955, 87.083
1281.165, 229.104
1282.376, 57.106
1283.586, 177.090
1284.796, 79.055
1286.006, 1.998
1287.215, 197.919
1288.425, 87.815
1289.634, 26.320
1290.843, 157.491
1292.052, 24.673
1293.261, 175.029
1294.469, 12.243
1295.678, 131.453
1296.886, 176.130
1298.094, 230.784
1299.302, 13.388
1300.509, 176.970
1301.717, 207.532
1302.924, 244.073
1304.131, 191.596
1305.338, 52.100
1306.545, 109.586
1307.752, 64.052
1308.958, 155.501
1310.164, 247.933
1311.370, 142.348
1312.576, 273.748
1313.782, 185.129
1314.987, 174.495
1316.193, 278.842
1317.398, 407.169
1318.603, 381.479
1319.807, 341.774
1321.012, 266.052
1322.216, 424.289
1323.421, 258.510
1324.625, 155.729
1325.829, 384.908
1327.032, 320.073
1328.236, 302.233
1329.439, 309.394
1330.642, 157.539
1331.845, 26.672
1333.048, 124.791
1334.251, 211.912
1335.453, 63.036
1336.656, 14.144
1337.858, 3.752
1339.060, 39.353
1340.261, 132.460
1341.463, 19.427
1342.664, 185.675
1343.866, 70.623
1345.067, 31.706
1346.267, 154.549
1347.468, 150.626
1348.669, 161.487
1349.869, 313.548
1351.069, 66.235
1352.269, 69.281
1353.469, 199.804
1354.668, 65.848
1355.868, 102.198
1357.067, 34.019
1358.266, 32.827
1359.465, 146.832
1360.664, 170.959
1361.862, 51.500
1363.061, 235.464
1364.259, 135.674
1365.457, 167.685
1366.655, 128.284
1367.852, 149.184
1369.050, 166.109
1370.247, 409.530
1371.444, 150.095
1372.641, 128.786
1373.838, 98.220
1375.035, 105.764
1376.231, 162.390
1377.427, 168.854
1378.623, 121.931
1379.819, 161.688
1381.015, 63.246
1382.211, 227.201
1383.406, 115.834
1384.601, 76.145
1385.796, 179.646
1386.991, 182.023
1388.185, 49.569
1389.380, 56.246
1390.574, 19.196
1391.768, 172.125
1392.962, 4.165
1394.156, 37.806
1395.350, 114.851
1396.543, 187.502
1397.736, 7.563
1398.929, 52.577
1400.122, 37.582
1401.315, 25.250
1402.507, 110.018
1403.700, 28.935
1404.892, 213.215
1406.084, 80.716
1407.276, 58.301
1408.467, 202.497
1409.659, 33.861
1410.850, 168.506
1412.041, 296.095
1413.232, 114.909
1414.423, 86.438
1415.614, 33.487
1416.804, 211.428
1417.994, 209.869
1419.184, 214.284
1420.374, 110.670
1421.564, 358.032
1422.753, 199.368
1423.943, 370.675
1425.132, 195.956
1426.321, 254.211
1427.510, 140.440
1428.698, 383.945
1429.887, 354.067
1431.075, 362.898
1432.263, 322.423
1433.451, 270.094
1434.639, 407.631
1435.827, 473.838
1437.014, 479.687
1438.201, 644.117
1439.388, 861.564
1440.575, 797.940
1441.762, 879.646
1442.949, 965.507
1444.135, 1038.909
1445.321, 1083.661
1446.507, 991.469
1447.693, 1072.415
1448.879, 1203.471
1450.064, 1205.578
1451.250, 1155.778
1452.435, 1179.103
1453.620, 1360.373
1454.805, 1318.730
1455.989, 1391.041
1457.174, 1534.082
1458.358, 1144.998
1459.542, 1297.328
1460.726, 1385.882
1461.910, 1280.078
1463.093, 1278.288
1464.277, 1082.156
1465.460, 911.596
1466.643, 1119.082
1467.826, 896.697
1469.009, 915.276
1470.191, 626.836
1471.373, 683.433
1472.556, 867.030
1473.738, 799.625
1474.919, 480.223
1476.101, 537.826
1477.283, 754.456
1478.464, 530.173
1479.645, 543.082
1480.826, 650.057
1482.007, 536.102
1483.187, 648.332
1484.368, 537.747
1485.548, 516.255
1486.728, 422.848
1487.908, 357.517
1489.088, 414.262
1490.268, 618.087
1491.447, 364.018
1492.626, 274.097
1493.805, 319.289
1494.984, 404.855
1496.163, 151.707
1497.341, 288.874
1498.520, 271.248
1499.698, 113.855
1500.876, 286.728
1502.054, 21.104
1503.232, 197.377
1504.409, 8.551
1505.586, 10.276
1506.763, 199.956
1507.940, 151.011
1509.117, 112.603
1510.294, 100.778
1511.470, 63.569
1512.647, 114.055
1513.823, 100.559
1514.999, 66.201
1516.174, 95.055
1517.350, 6.859
1518.526, 47.973
1519.701, 75.049
1520.876, 15.578
1522.051, 0.400
1523.226, 0.000
##END=



