##NAMES=Bikitaite
##RRUFFID=R050160
##IDEAL CHEMISTRY=LiAlSi_2_O_6_&#183;H_2_O
##LOCALITY=Foote mine, Kings Mountain, Cleveland County, North Carolina, USA
##OWNER=RRUFF
##SOURCE=Jim McGlasson
##DESCRIPTION=Colorless prismatic crystals
##STATUS=The identification of this mineral has been confirmed by X-ray diffraction and chemical analysis
##URL=rruff.info/R050160
##MEASURED CHEMISTRY=Li_1.00_Si_2.00_O_6_Â·1.25H_2_O ; Li not measured but estimated by stoichiometry
##PIN_ID=M00374
##ORIENTATION=Laser parallel to c* (0 0 1). Fiducial mark perpendicular to laser is parallel to a [1 0 0]
78.729, 0.000
80.125, 314.824
81.521, 1543.674
82.916, 2971.549
84.311, 3501.816
85.706, 2820.732
87.101, 1916.619
88.496, 1587.527
89.890, 2300.656
91.284, 3545.273
92.678, 4589.385
94.071, 6394.680
95.465, 7775.229
96.858, 9282.512
98.251, 10811.385
99.644, 11901.141
101.036, 12937.006
102.428, 13695.701
103.820, 14642.254
105.212, 15522.934
106.604, 16658.391
107.995, 18176.783
109.387, 19873.619
110.777, 22015.691
112.168, 22492.453
113.559, 21705.066
114.949, 19507.488
116.339, 16762.531
117.729, 13190.906
119.119, 10373.215
120.508, 7694.984
121.897, 6251.688
123.286, 4092.783
124.675, 2555.684
126.063, 1497.695
127.452, 764.521
128.840, 509.004
130.228, 262.494
131.615, 803.980
133.003, 1200.703
134.390, 1939.375
135.777, 2249.787
137.164, 3162.363
138.550, 3756.662
139.937, 4798.855
141.323, 5500.246
142.709, 6681.398
144.094, 7225.072
145.480, 7952.211
146.865, 8239.703
148.250, 8267.430
149.635, 8091.332
151.019, 7583.412
152.403, 7509.680
153.788, 7177.139
155.171, 6951.791
156.555, 6613.645
157.939, 6040.701
159.322, 5473.967
160.705, 4277.438
162.088, 3395.105
163.470, 2654.150
164.853, 2006.799
166.235, 1483.131
167.617, 1121.180
168.998, 934.945
170.380, 446.410
171.761, 122.543
173.142, 88.688
174.523, 118.312
175.904, 543.377
177.284, 703.512
178.664, 792.252
180.044, 679.838
181.424, 844.117
182.803, 951.988
184.183, 1008.477
185.562, 849.602
186.940, 929.422
188.319, 687.031
189.698, 565.523
191.076, 78.941
192.454, 194.719
193.831, 907.457
195.209, 1990.279
196.586, 2638.188
197.963, 3951.178
199.340, 5090.262
200.717, 6428.541
202.093, 7545.199
203.470, 8209.523
204.846, 7737.582
206.221, 7217.738
207.597, 6115.000
208.972, 4552.238
210.347, 3829.090
211.722, 3463.941
213.097, 3055.693
214.472, 3570.137
215.846, 3933.359
217.220, 4388.645
218.594, 4921.748
219.967, 5006.059
221.341, 5066.580
222.714, 4669.307
224.087, 4338.234
225.460, 3894.359
226.832, 3460.672
228.204, 2923.176
229.577, 3219.863
230.948, 2713.734
232.320, 1944.787
233.692, 1916.016
235.063, 1724.420
236.434, 1593.000
237.805, 1631.752
239.175, 1440.674
240.545, 1727.766
241.916, 1571.021
243.286, 1588.441
244.655, 1815.223
246.025, 1924.197
247.394, 2066.777
248.763, 2214.770
250.132, 2564.473
251.501, 2606.432
252.869, 3174.307
254.237, 3568.857
255.605, 4096.908
256.973, 4234.328
258.340, 4010.963
259.708, 3782.691
261.075, 3190.439
262.442, 2976.145
263.808, 2254.785
265.175, 1846.328
266.541, 1450.762
267.907, 872.066
269.273, 655.139
270.639, 189.812
272.004, 208.963
273.369, 16.604
274.734, 21.203
276.099, 300.463
277.463, 159.209
278.828, 135.371
280.192, 180.869
281.556, 354.273
282.919, 536.215
284.283, 1094.947
285.646, 1301.516
287.009, 1671.973
288.372, 2492.260
289.734, 2623.414
291.097, 2826.244
292.459, 3434.078
293.821, 3350.287
295.183, 3296.811
296.544, 2892.453
297.905, 2978.408
299.266, 2698.186
300.627, 2522.854
301.988, 2354.617
303.348, 1788.480
304.709, 1644.463
306.069, 1614.533
307.428, 1519.684
308.788, 1517.918
310.147, 1852.303
311.507, 1590.766
312.865, 1591.312
314.224, 1005.010
315.583, 846.785
316.941, 539.693
318.299, 264.676
319.657, 195.775
321.015, 75.055
322.372, 102.199
323.729, 142.531
325.086, 249.926
326.443, 85.605
327.800, 402.871
329.156, 263.416
330.512, 467.023
331.868, 878.703
333.224, 1228.475
334.579, 1446.297
335.935, 2190.504
337.290, 2655.439
338.645, 3424.791
339.999, 3695.719
341.354, 4041.270
342.708, 4297.271
344.062, 4517.857
345.416, 4566.391
346.769, 4751.412
348.123, 4877.133
349.476, 5039.057
350.829, 5166.246
352.182, 5380.863
353.534, 5315.318
354.887, 5008.523
356.239, 4697.205
357.591, 4476.266
358.942, 4334.373
360.294, 4379.527
361.645, 4235.730
362.996, 4814.977
364.347, 5250.186
365.698, 5772.414
367.048, 6722.609
368.398, 7360.848
369.748, 8950.137
371.098, 10379.465
372.448, 12254.844
373.797, 14092.270
375.146, 16808.748
376.495, 19680.275
377.844, 21532.869
379.192, 25048.527
380.540, 26189.258
381.889, 27747.062
383.236, 28644.938
384.584, 28259.885
385.932, 27364.902
387.279, 26744.980
388.626, 26671.131
389.973, 25777.346
391.319, 26426.629
392.666, 26239.975
394.012, 26652.385
395.358, 27258.857
396.704, 26826.391
398.049, 26080.984
399.394, 23506.641
400.740, 21706.357
402.084, 19420.131
403.429, 17575.963
404.774, 16348.855
406.118, 14607.799
407.462, 13494.805
408.806, 12681.840
410.150, 12004.887
411.493, 11738.936
412.836, 11351.977
414.179, 10376.004
415.522, 10644.010
416.865, 10139.992
418.207, 9589.953
419.549, 9244.891
420.891, 8729.797
422.233, 7961.930
423.575, 6658.781
424.916, 6153.510
426.257, 5385.307
427.598, 4745.072
428.939, 4210.812
430.279, 3555.527
431.619, 2929.215
432.959, 2876.871
434.299, 2839.508
435.639, 2456.379
436.978, 2731.977
438.318, 2076.811
439.657, 2193.281
440.996, 2050.443
442.334, 1676.225
443.673, 1738.389
445.011, 2074.994
446.349, 1744.227
447.687, 1900.412
449.024, 1896.744
450.361, 1726.328
451.699, 1765.881
453.036, 1704.473
454.372, 2104.918
455.709, 1845.480
457.045, 2184.689
458.381, 2419.488
459.717, 2848.449
461.053, 3367.609
462.388, 4076.338
463.724, 5146.559
465.059, 5758.188
466.394, 6817.016
467.728, 8110.186
469.063, 8857.066
470.397, 9751.961
471.731, 11141.891
473.065, 11555.502
474.398, 13256.084
475.732, 13264.086
477.065, 13809.723
478.398, 13737.051
479.731, 14266.645
481.063, 15095.189
482.396, 16744.410
483.728, 19028.209
485.060, 21012.629
486.391, 23887.000
487.723, 26103.189
489.054, 27849.129
490.385, 28479.625
491.716, 27345.055
493.047, 25683.242
494.377, 23622.018
495.708, 21352.299
497.038, 19052.783
498.368, 17074.576
499.697, 15481.203
501.027, 14332.191
502.356, 12706.137
503.685, 11799.898
505.014, 10561.936
506.342, 9713.145
507.671, 8849.648
508.999, 7901.363
510.327, 7319.162
511.655, 6723.367
512.982, 6609.834
514.310, 5775.502
515.637, 5682.254
516.964, 5106.020
518.291, 5218.797
519.617, 4581.580
520.944, 3949.367
522.270, 3993.168
523.596, 3678.008
524.921, 3607.859
526.247, 3238.723
527.572, 3334.588
528.897, 3465.455
530.222, 3416.330
531.547, 3782.205
532.871, 3821.082
534.196, 3990.965
535.520, 4631.848
536.844, 4893.727
538.167, 5038.609
539.491, 5230.496
540.814, 5155.381
542.137, 4895.262
543.460, 4621.141
544.783, 3558.021
546.105, 3266.900
547.427, 2695.773
548.749, 2318.641
550.071, 2188.508
551.393, 1634.363
552.714, 1712.215
554.035, 1393.057
555.356, 1093.896
556.677, 1005.725
557.998, 1215.545
559.318, 1012.355
560.638, 830.156
561.958, 669.945
563.278, 813.727
564.597, 678.496
565.917, 685.250
567.236, 617.994
568.555, 459.725
569.874, 589.441
571.192, 559.145
572.511, 399.834
573.829, 276.648
575.147, 340.307
576.464, 306.949
577.782, 168.922
579.099, 103.611
580.416, 52.451
581.733, 458.281
583.050, 65.906
584.366, 479.037
585.683, 725.541
586.999, 632.881
588.315, 561.941
589.630, 54.393
590.946, 346.824
592.261, 92.240
593.576, 166.105
594.891, 61.225
596.206, 147.264
597.520, 80.719
598.834, 169.816
600.148, 25.693
601.462, 184.871
602.776, 78.338
604.089, 181.980
605.402, 290.783
606.715, 34.109
608.028, 101.584
609.341, 386.037
610.653, 72.734
611.965, 217.391
613.277, 359.232
614.589, 224.832
615.901, 75.361
617.212, 8.830
618.523, 26.137
619.834, 391.682
621.145, 38.184
622.456, 72.125
623.766, 631.344
625.076, 84.445
626.386, 396.516
627.696, 243.154
629.006, 188.939
630.315, 23.775
631.624, 264.135
632.933, 306.469
634.242, 181.621
635.551, 127.816
636.859, 113.531
638.167, 83.492
639.475, 229.637
640.783, 29.779
642.090, 232.277
643.398, 30.934
644.705, 167.957
646.012, 59.418
647.318, 172.387
648.625, 1.057
649.931, 68.414
651.237, 148.342
652.543, 21.969
653.849, 412.805
655.155, 77.963
656.460, 93.361
657.765, 131.229
659.070, 110.072
660.375, 233.092
661.679, 230.520
662.984, 96.094
664.288, 64.984
665.592, 306.268
666.895, 114.871
668.199, 1467.393
669.502, 761.584
670.805, 1591.938
672.108, 925.816
673.411, 957.463
674.713, 1273.443
676.016, 1528.859
677.318, 864.758
678.620, 1308.746
679.921, 1486.316
681.223, 1707.451
682.524, 1863.451
683.825, 2227.025
685.126, 2397.145
686.427, 2252.992
687.727, 2025.994
689.028, 1756.939
690.328, 2022.279
691.628, 1586.107
692.927, 1653.873
694.227, 1602.457
695.526, 2355.105
696.825, 1972.348
698.124, 2361.877
699.423, 2215.348
700.721, 2301.604
702.020, 2438.773
703.318, 2405.059
704.616, 2127.287
705.913, 2563.754
707.211, 2885.857
708.508, 2596.900
709.805, 2083.885
711.102, 2368.637
712.399, 1656.494
713.695, 2044.570
714.992, 1312.523
716.288, 1656.193
717.584, 904.801
718.879, 943.594
720.175, 1193.502
721.470, 832.924
722.765, 840.279
724.060, 940.572
725.355, 755.354
726.649, 832.521
727.944, 949.625
729.238, 446.666
730.532, 767.639
731.825, 677.551
733.119, 404.529
734.412, 470.539
735.705, 409.256
736.998, 222.648
738.291, 432.738
739.584, 391.811
740.876, 605.252
742.168, 292.629
743.460, 356.932
744.752, 697.168
746.043, 545.455
747.334, 655.562
748.626, 87.723
749.916, 649.021
751.207, 337.898
752.498, 795.705
753.788, 277.445
755.078, 344.711
756.368, 430.234
757.658, 224.148
758.947, 581.543
760.237, 251.232
761.526, 141.896
762.815, 67.330
764.104, 315.428
765.392, 187.088
766.680, 65.352
767.969, 410.631
769.257, 21.438
770.544, 221.525
771.832, 307.977
773.119, 38.766
774.406, 355.227
775.693, 63.619
776.980, 308.480
778.267, 336.904
779.553, 738.098
780.839, 464.914
782.125, 351.986
783.411, 352.018
784.697, 448.973
785.982, 337.215
787.267, 480.447
788.552, 312.234
789.837, 377.348
791.122, 86.736
792.406, 193.820
793.690, 223.869
794.974, 13.619
796.258, 117.207
797.542, 206.580
798.825, 107.705
800.108, 37.723
801.391, 118.203
802.674, 181.117
803.957, 127.934
805.239, 357.174
806.522, 375.344
807.804, 310.537
809.085, 52.805
810.367, 139.562
811.649, 126.119
812.930, 103.465
814.211, 125.941
815.492, 50.010
816.772, 242.877
818.053, 16.189
819.333, 41.703
820.613, 129.662
821.893, 17.223
823.173, 49.271
824.452, 175.594
825.732, 35.412
827.011, 78.176
828.290, 223.961
829.568, 105.701
830.847, 216.404
832.125, 181.059
833.403, 130.340
834.681, 10.863
835.959, 136.582
837.236, 223.979
838.514, 386.326
839.791, 130.633
841.068, 361.887
842.345, 543.104
843.621, 208.275
844.898, 331.406
846.174, 602.502
847.450, 106.551
848.726, 364.549
850.001, 158.502
851.277, 460.404
852.552, 407.260
853.827, 110.072
855.102, 116.832
856.376, 361.543
857.651, 628.207
858.925, 238.830
860.199, 315.404
861.473, 380.934
862.746, 459.424
864.020, 109.867
865.293, 537.262
866.566, 240.613
867.839, 253.918
869.112, 584.178
870.384, 396.400
871.656, 246.580
872.928, 202.715
874.200, 411.805
875.472, 328.855
876.744, 315.861
878.015, 169.830
879.286, 566.756
880.557, 421.639
881.828, 477.506
883.098, 369.191
884.369, 506.990
885.639, 266.754
886.909, 242.131
888.178, 349.736
889.448, 610.043
890.717, 14.504
891.987, 182.811
893.256, 402.926
894.524, 441.438
895.793, 444.061
897.061, 414.914
898.330, 263.320
899.598, 688.695
900.865, 261.035
902.133, 302.318
903.401, 332.631
904.668, 579.225
905.935, 394.467
907.202, 608.723
908.468, 463.379
909.735, 664.361
911.001, 561.537
912.267, 999.814
913.533, 490.199
914.799, 315.986
916.064, 702.857
917.330, 132.619
918.595, 129.166
919.860, 605.395
921.124, 335.910
922.389, 540.273
923.653, 280.900
924.918, 731.457
926.182, 630.195
927.445, 513.307
928.709, 461.215
929.972, 480.090
931.236, 605.098
932.499, 863.430
933.761, 540.734
935.024, 580.723
936.286, 706.816
937.549, 475.105
938.811, 1116.117
940.073, 646.465
941.334, 638.902
942.596, 891.211
943.857, 807.730
945.118, 725.469
946.379, 1006.203
947.640, 1565.781
948.900, 1635.172
950.161, 1835.625
951.421, 2545.641
952.681, 3539.418
953.940, 4341.371
955.200, 5495.051
956.459, 7124.152
957.719, 7916.457
958.978, 7774.699
960.236, 8102.125
961.495, 7549.602
962.753, 7322.551
964.012, 7837.301
965.270, 8818.539
966.527, 9256.141
967.785, 9628.344
969.043, 8737.000
970.300, 6859.660
971.557, 5559.395
972.814, 4093.672
974.071, 3358.957
975.327, 2685.145
976.583, 2337.684
977.840, 2111.875
979.095, 1464.312
980.351, 1569.832
981.607, 1582.285
982.862, 1313.391
984.117, 2021.066
985.372, 1347.184
986.627, 2273.672
987.882, 2325.145
989.136, 2398.633
990.390, 3438.145
991.644, 4213.070
992.898, 5074.625
994.152, 7357.328
995.405, 9690.492
996.659, 13308.117
997.912, 16983.090
999.165, 19654.805
1000.417, 19431.645
1001.670, 18156.523
1002.922, 13715.031
1004.174, 11256.570
1005.426, 7980.203
1006.678, 6405.844
1007.930, 5280.578
1009.181, 3804.977
1010.432, 3453.035
1011.683, 3151.379
1012.934, 3090.688
1014.185, 2994.023
1015.435, 2806.492
1016.685, 2626.758
1017.935, 2534.402
1019.185, 2442.066
1020.435, 2350.453
1021.684, 2204.617
1022.934, 2231.504
1024.183, 1619.168
1025.432, 1692.539
1026.680, 1112.566
1027.929, 1405.629
1029.177, 956.160
1030.425, 1427.082
1031.673, 799.172
1032.921, 612.234
1034.169, 449.109
1035.416, 944.086
1036.663, 665.109
1037.911, 449.145
1039.157, 619.426
1040.404, 623.969
1041.650, 860.617
1042.897, 453.160
1044.143, 765.508
1045.389, 904.523
1046.634, 318.730
1047.880, 380.160
1049.125, 447.965
1050.371, 789.438
1051.615, 269.387
1052.860, 906.555
1054.105, 719.941
1055.349, 354.203
1056.593, 460.543
1057.837, 683.863
1059.081, 585.766
1060.325, 389.859
1061.568, 410.266
1062.812, 423.656
1064.055, 426.133
1065.298, 526.418
1066.540, 425.352
1067.783, 93.051
1069.025, 704.094
1070.267, 337.629
1071.509, 289.977
1072.751, 682.855
1073.993, 237.141
1075.234, 502.570
1076.475, 878.234
1077.716, 199.309
1078.957, 476.188
1080.198, 1013.996
1081.438, 594.633
1082.679, 916.414
1083.919, 473.730
1085.159, 736.762
1086.398, 483.871
1087.638, 394.844
1088.877, 157.969
1090.116, 289.980
1091.355, 409.887
1092.594, 291.793
1093.833, 126.949
1095.071, 15.555
1096.309, 469.406
1097.547, 61.637
1098.785, 226.219
1100.023, 0.129
1101.260, 181.566
1102.498, 119.949
1103.735, 128.379
1104.972, 43.531
1106.208, 157.902
1107.445, 202.383
1108.681, 329.629
1109.918, 53.867
1111.154, 266.273
1112.389, 17.465
1113.625, 49.461
1114.860, 166.031
1116.096, 395.867
1117.331, 8.996
1118.566, 141.742
1119.800, 250.719
1121.035, 3.164
1122.269, 84.465
1123.503, 345.344
1124.737, 204.430
1125.971, 148.121
1127.205, 270.441
1128.438, 247.531
1129.671, 45.594
1130.904, 329.152
1132.137, 392.871
1133.370, 367.645
1134.602, 92.754
1135.834, 142.320
1137.066, 460.570
1138.298, 65.605
1139.530, 647.562
1140.762, 47.922
1141.993, 245.414
1143.224, 36.961
1144.455, 32.770
1145.686, 429.352
1146.917, 526.645
1148.147, 449.129
1149.377, 703.008
1150.607, 603.406
1151.837, 503.695
1153.067, 704.219
1154.296, 963.113
1155.526, 458.738
1156.755, 1138.777
1157.984, 973.676
1159.213, 982.719
1160.441, 1031.113
1161.670, 1246.004
1162.898, 848.953
1164.126, 1044.367
1165.354, 1003.336
1166.581, 922.457
1167.809, 434.395
1169.036, 1007.672
1170.263, 774.402
1171.490, 643.508
1172.717, 494.676
1173.943, 657.234
1175.170, 315.836
1176.396, 541.285
1177.622, 636.688
1178.848, 17.281
1180.073, 306.324
1181.299, 117.059
1182.524, 311.926
1183.749, 500.930
1184.974, 477.914
1186.199, 239.176
1187.423, 407.316
1188.648, 491.312
1189.872, 282.027
1191.096, 192.422
1192.320, 265.949
1193.543, 449.426
1194.767, 389.645
1195.990, 269.141
1197.213, 366.066
1198.436, 456.211
1199.659, 188.363
1200.881, 606.730
1202.104, 389.266
1203.326, 602.629
1204.548, 226.270
1205.770, 448.090
1206.991, 156.758
1208.213, 307.672
1209.434, 117.363
1210.655, 96.574
1211.876, 307.809
1213.096, 390.176
1214.317, 289.203
1215.537, 191.965
1216.757, 75.324
1217.977, 253.340
1219.197, 359.777
1220.417, 249.711
1221.636, 201.570
1222.855, 52.297
1224.074, 4.426
1225.293, 305.875
1226.512, 310.863
1227.731, 137.996
1228.949, 114.766
1230.167, 655.461
1231.385, 207.020
1232.603, 414.469
1233.820, 73.812
1235.038, 623.000
1236.255, 653.113
1237.472, 174.223
1238.689, 632.180
1239.906, 319.566
1241.122, 461.168
1242.338, 571.781
1243.555, 322.391
1244.771, 323.828
1245.986, 355.445
1247.202, 566.906
1248.417, 602.070
1249.633, 53.379
1250.848, 711.102
1252.063, 330.340
1253.277, 232.340
1254.492, 373.906
1255.706, 241.078
1256.920, 120.578
1258.134, 168.793
1259.348, 540.848
1260.562, 398.875
1261.775, 23.352
1262.988, 223.230
1264.201, 532.969
1265.414, 461.203
1266.627, 21.219
1267.839, 346.000
1269.052, 429.961
1270.264, 606.496
1271.476, 2.266
1272.688, 483.660
1273.899, 285.840
1275.111, 290.398
1276.322, 107.398
1277.533, 280.066
1278.744, 86.891
1279.955, 279.422
1281.165, 368.824
1282.376, 306.195
1283.586, 129.707
1284.796, 29.449
1286.006, 221.859
1287.215, 166.281
1288.425, 145.391
1289.634, 286.457
1290.843, 175.652
1292.052, 364.758
1293.261, 110.422
1294.469, 185.703
1295.678, 101.156
1296.886, 288.480
1298.094, 119.355
1299.302, 131.734
1300.509, 386.723
1301.717, 94.301
1302.924, 280.094
1304.131, 9.781
1305.338, 140.359
1306.545, 167.160
1307.752, 185.168
1308.958, 531.391
1310.164, 29.469
1311.370, 319.555
1312.576, 31.484
1313.782, 238.773
1314.987, 32.492
1316.193, 476.109
1317.398, 200.633
1318.603, 323.758
1319.807, 106.090
1321.012, 543.258
1322.216, 293.270
1323.421, 143.680
1324.625, 426.066
1325.829, 143.715
1327.032, 559.430
1328.236, 253.918
1329.439, 57.895
1330.642, 63.941
1331.845, 389.871
1333.048, 398.309
1334.251, 204.012
1335.453, 255.754
1336.656, 199.043
1337.858, 183.559
1339.060, 219.758
1340.261, 2.367
1341.463, 239.906
1342.664, 162.504
1343.866, 117.410
1345.067, 106.117
1346.267, 233.504
1347.468, 250.902
1348.669, 536.133
1349.869, 389.273
1351.069, 290.738
1352.269, 443.914
1353.469, 404.684
1354.668, 354.379
1355.868, 716.891
1357.067, 24.480
1358.266, 583.426
1359.465, 737.879
1360.664, 306.895
1361.862, 587.836
1363.061, 379.949
1364.259, 451.598
1365.457, 594.773
1366.655, 405.855
1367.852, 485.582
1369.050, 506.859
1370.247, 546.305
1371.444, 191.727
1372.641, 613.121
1373.838, 238.074
1375.035, 537.105
1376.231, 808.098
1377.427, 790.934
1378.623, 520.305
1379.819, 482.082
1381.015, 350.988
1382.211, 557.277
1383.406, 681.898
1384.601, 727.930
1385.796, 578.652
1386.991, 635.535
1388.185, 525.461
1389.380, 770.668
1390.574, 535.184
1391.768, 555.516
1392.962, 211.285
1394.156, 449.586
1395.350, 759.625
1396.543, 355.848
1397.736, 682.812
1398.929, 428.863
1400.122, 635.625
1401.315, 476.008
1402.507, 721.285
1403.700, 803.793
1404.892, 440.320
1406.084, 545.859
1407.276, 783.137
1408.467, 648.316
1409.659, 563.773
1410.850, 999.043
1412.041, 311.469
1413.232, 1046.594
1414.423, 492.891
1415.614, 653.309
1416.804, 627.656
1417.994, 773.191
1419.184, 485.930
1420.374, 973.547
1421.564, 675.445
1422.753, 450.988
1423.943, 705.477
1425.132, 849.109
1426.321, 865.742
1427.510, 478.324
1428.698, 629.082
1429.887, 791.352
1431.075, 969.078
1432.263, 665.102
1433.451, 1134.168
1434.639, 1186.379
1435.827, 685.676
1437.014, 1254.844
1438.201, 1419.242
1439.388, 1112.992
1440.575, 902.957
1441.762, 1414.379
1442.949, 1392.703
1444.135, 1592.488
1445.321, 1758.855
1446.507, 1210.852
1447.693, 2067.125
1448.879, 1645.309
1450.064, 1759.461
1451.250, 1392.355
1452.435, 2068.121
1453.620, 1663.676
1454.805, 1784.055
1455.989, 2070.402
1457.174, 1709.512
1458.358, 1758.734
1459.542, 1902.988
1460.726, 1289.863
1461.910, 1952.746
1463.093, 1289.531
1464.277, 1415.371
1465.460, 1827.316
1466.643, 1256.461
1467.826, 1684.816
1469.009, 1089.383
1470.191, 1284.066
1471.373, 1263.758
1472.556, 1395.875
1473.738, 889.250
1474.919, 1288.934
1476.101, 1054.836
1477.283, 983.027
1478.464, 674.414
1479.645, 1328.902
1480.826, 881.664
1482.007, 1733.539
1483.187, 1037.527
1484.368, 1230.723
1485.548, 1111.078
1486.728, 831.629
1487.908, 687.375
1489.088, 1812.410
1490.268, 858.781
1491.447, 1015.516
1492.626, 833.641
1493.805, 1096.227
1494.984, 915.285
1496.163, 857.832
1497.341, 756.895
1498.520, 471.488
1499.698, 1058.641
1500.876, 419.410
1502.054, 374.852
1503.232, 131.945
1504.409, 176.121
1505.586, 685.176
1506.763, 812.332
1507.940, 369.707
1509.117, 487.465
1510.294, 513.801
1511.470, 567.996
1512.647, 562.145
1513.823, 544.246
1514.999, 756.285
1516.174, 11.285
1517.350, 528.801
1518.526, 0.809
1519.701, 0.000
##END=



