##NAMES=Braunite
##RRUFFID=R050385
##IDEAL CHEMISTRY=Mn^2+^Mn^3+^_6_SiO_12_
##LOCALITY=Jhabua District, Madhya Pradesh, India
##OWNER=RRUFF
##SOURCE=University of Arizona Mineral Museum
##DESCRIPTION=Black prismatic crystals
##STATUS=The identification of this mineral has been confirmed by X-ray diffraction and chemical analysis
##URL=rruff.info/R050385
##MEASURED CHEMISTRY=(Fe^2+^_0.61_Mn^2+^_0.39_)_Σ=1_(Mn^3+^_5.94_Al_0.06_)_Σ=6_Si_1.00_O_12_
##PIN_ID=M00114
##ORIENTATION=Laser parallel to c* (0 0 1). Fiducial mark perpendicular to laser is parallel to -b [0 -1 0]
178.2820, 0.0000000E+00
179.5050, 1.342773
180.7290, 169.4395
181.9520, 16.83594
183.1760, 45.33496
184.3990, 251.7549
185.6220, 461.4570
186.8450, 686.0537
188.0670, 778.4580
189.2900, 1144.752
190.5120, 1276.937
191.7340, 1440.748
192.9560, 1729.082
194.1780, 1880.718
195.4000, 2239.542
196.6220, 2644.487
197.8430, 2836.075
199.0640, 3323.987
200.2860, 3935.015
201.5070, 4872.410
202.7270, 5078.429
203.9480, 4654.939
205.1690, 3702.571
206.3890, 3268.354
207.6090, 3091.984
208.8290, 3375.515
210.0490, 3464.311
211.2690, 3819.312
212.4890, 4020.905
213.7080, 4255.216
214.9280, 4081.531
216.1470, 3829.746
217.3660, 3870.850
218.5850, 3674.371
219.8030, 3600.045
221.0220, 3467.857
222.2400, 3394.876
223.4590, 3322.294
224.6770, 3149.157
225.8950, 2883.169
227.1120, 2545.078
228.3300, 2498.306
229.5480, 2079.289
230.7650, 1972.972
231.9820, 1737.611
233.1990, 1566.126
234.4160, 1494.366
235.6330, 1396.413
236.8490, 1281.477
238.0660, 1089.927
239.2820, 1017.897
240.4980, 909.0200
241.7140, 800.5288
242.9300, 748.2554
244.1460, 761.0171
245.3610, 645.5146
246.5770, 482.5068
247.7920, 538.1738
249.0070, 479.5195
250.2220, 424.2241
251.4370, 506.7695
252.6510, 331.5718
253.8660, 362.2231
255.0800, 371.1699
256.2940, 359.5654
257.5080, 265.1733
258.7220, 278.1436
259.9360, 248.4282
261.1490, 217.3862
262.3630, 247.0093
263.5760, 167.6108
264.7890, 196.7539
266.0020, 184.0840
267.2150, 68.87891
268.4270, 31.31787
269.6400, 27.87939
270.8520, 24.35889
272.0640, 21.39014
273.2760, 56.97510
274.4880, 11.99561
275.7000, 9.755859
276.9120, 50.38770
278.1230, 9.333984
279.3340, 47.24707
280.5450, 14.06787
281.7560, 90.20020
282.9670, 108.5630
284.1780, 22.21777
285.3880, 97.43359
286.5980, 65.98291
287.8090, 40.80127
289.0190, 27.51465
290.2290, 108.2329
291.4380, 38.33350
292.6480, 204.0054
293.8570, 56.57812
295.0670, 13.80029
296.2760, 43.15186
297.4850, 67.59326
298.6930, 103.9668
299.9020, 9.533691
301.1110, 70.31494
302.3190, 104.2637
303.5270, 82.29150
304.7350, 128.4902
305.9430, 93.36963
307.1510, 114.0283
308.3580, 143.6250
309.5660, 62.98340
310.7730, 4.422363
311.9800, 33.23193
313.1870, 12.25244
314.3940, 49.26172
315.6010, 67.65381
316.8070, 84.08350
318.0130, 160.2554
319.2200, 126.2412
320.4260, 261.8398
321.6310, 437.0884
322.8370, 514.3477
324.0430, 706.3232
325.2480, 738.0913
326.4540, 759.4102
327.6590, 989.2280
328.8640, 868.6567
330.0680, 889.0698
331.2730, 822.4346
332.4780, 772.7266
333.6820, 727.9253
334.8860, 690.0171
336.0900, 627.4727
337.2940, 587.8281
338.4980, 497.5244
339.7010, 425.0713
340.9050, 340.4619
342.1080, 313.6909
343.3110, 338.7529
344.5140, 287.6484
345.7170, 254.3745
346.9200, 231.9233
348.1220, 155.2847
349.3240, 247.4521
350.5270, 239.4199
351.7290, 133.1855
352.9310, 94.75732
354.1320, 194.1382
355.3340, 107.3286
356.5350, 106.3257
357.7370, 216.1147
358.9380, 186.7036
360.1390, 107.0996
361.3400, 190.2983
362.5400, 213.3193
363.7410, 138.1548
364.9410, 277.8076
366.1410, 253.2847
367.3410, 280.5938
368.5410, 247.6709
369.7410, 241.9805
370.9400, 275.9517
372.1400, 234.1919
373.3390, 233.2476
374.5380, 278.0728
375.7370, 177.5645
376.9360, 95.79688
378.1350, 280.7925
379.3330, 224.6924
380.5310, 163.5127
381.7300, 159.2344
382.9280, 152.8315
384.1260, 69.24951
385.3230, 150.4619
386.5210, 54.46094
387.7180, 61.26074
388.9160, 158.8740
390.1130, 175.1367
391.3100, 106.6831
392.5060, 133.0635
393.7030, 171.0024
394.9000, 69.33887
396.0960, 66.04883
397.2920, 30.95020
398.4880, 39.10693
399.6840, 85.32422
400.8800, 54.51611
402.0750, 130.0483
403.2710, 84.73389
404.4660, 65.21143
405.6610, 3.467773
406.8560, 78.00439
408.0510, 157.7905
409.2450, 139.9688
410.4400, 122.0557
411.6340, 184.3398
412.8280, 106.2681
414.0220, 174.1533
415.2160, 177.1177
416.4100, 196.3911
417.6030, 145.5562
418.7970, 352.6675
419.9900, 195.2437
421.1830, 245.5020
422.3760, 348.4336
423.5690, 169.8198
424.7610, 258.1094
425.9540, 165.0366
427.1460, 110.9287
428.3380, 82.35938
429.5300, 27.19092
430.7220, 113.1196
431.9140, 85.74902
433.1050, 123.4087
434.2970, 12.50146
435.4880, 121.6411
436.6790, 184.5898
437.8700, 99.20264
439.0610, 171.9087
440.2510, 238.2642
441.4420, 186.1978
442.6320, 225.7939
443.8220, 254.8726
445.0120, 224.0669
446.2020, 232.2710
447.3910, 251.0000
448.5810, 271.9785
449.7700, 142.3145
450.9600, 208.5073
452.1490, 217.9966
453.3370, 127.7007
454.5260, 203.2344
455.7150, 239.6201
456.9030, 213.9771
458.0910, 293.6323
459.2800, 246.5078
460.4670, 284.5898
461.6550, 288.1201
462.8430, 268.5552
464.0300, 394.6055
465.2180, 439.1978
466.4050, 508.8125
467.5920, 478.4043
468.7790, 519.9795
469.9650, 581.5366
471.1520, 701.0767
472.3380, 487.5967
473.5250, 491.0957
474.7110, 570.5801
475.8970, 553.0439
477.0820, 627.4888
478.2680, 495.9150
479.4540, 481.3398
480.6390, 449.7471
481.8240, 499.1377
483.0090, 460.5112
484.1940, 383.8193
485.3780, 385.0068
486.5630, 340.2910
487.7470, 334.3550
488.9320, 379.2808
490.1160, 456.1069
491.3000, 402.6260
492.4830, 420.5356
493.6670, 484.4199
494.8500, 492.8682
496.0340, 533.1567
497.2170, 587.0488
498.4000, 632.4951
499.5820, 722.5742
500.7650, 780.4062
501.9480, 913.1450
503.1300, 1044.570
504.3120, 1174.354
505.4940, 1271.245
506.6760, 1331.957
507.8580, 1380.034
509.0390, 1403.116
510.2210, 1400.684
511.4020, 1383.516
512.5830, 1340.641
513.7640, 1278.930
514.9450, 1143.080
516.1250, 1079.250
517.3060, 987.8081
518.4860, 909.5879
519.6660, 810.3042
520.8460, 775.7822
522.0260, 673.0869
523.2060, 600.1763
524.3850, 360.2896
525.5650, 436.4102
526.7440, 430.2251
527.9230, 254.4160
529.1020, 329.2510
530.2810, 239.1685
531.4590, 273.5483
532.6380, 428.0615
533.8160, 102.3550
534.9940, 75.82764
536.1720, 73.52588
537.3500, 146.8457
538.5270, 166.2051
539.7050, 85.47021
540.8820, 79.81641
542.0590, 78.40283
543.2360, 61.90820
544.4130, 66.78467
545.5900, 87.54053
546.7660, 106.2832
547.9430, 8.826172
549.1190, 128.7402
550.2950, 45.51123
551.4710, 174.3350
552.6470, 19.39648
553.8220, 116.0112
554.9980, 130.3691
556.1730, 166.8901
557.3480, 263.4751
558.5230, 121.1245
559.6980, 260.8481
560.8730, 213.6274
562.0470, 237.4692
563.2220, 333.3623
564.3960, 306.3188
565.5700, 379.3403
566.7440, 479.4321
567.9170, 333.5957
569.0910, 393.8354
570.2640, 450.1362
571.4380, 512.5093
572.6110, 440.9443
573.7840, 563.4355
574.9570, 472.9731
576.1290, 506.5464
577.3020, 505.1582
578.4740, 580.7983
579.6460, 504.4722
580.8180, 547.1914
581.9900, 483.9629
583.1620, 389.7666
584.3330, 570.6382
585.5040, 566.5562
586.6760, 505.5322
587.8470, 590.5811
589.0180, 670.6899
590.1880, 723.8701
591.3590, 806.9009
592.5290, 845.5205
593.7000, 964.9004
594.8700, 967.3306
596.0400, 1071.806
597.2090, 1279.311
598.3790, 1352.852
599.5490, 1524.422
600.7180, 1841.021
601.8870, 1940.646
603.0560, 2255.298
604.2250, 2396.973
605.3940, 2545.325
606.5620, 2963.043
607.7300, 3879.781
608.8990, 3885.540
610.0670, 3963.706
611.2350, 3929.503
612.4020, 3980.321
613.5700, 4166.158
614.7370, 4223.084
615.9050, 4340.962
617.0720, 4241.857
618.2390, 4158.773
619.4060, 3880.719
620.5720, 3933.673
621.7390, 3727.649
622.9050, 3506.515
624.0710, 3330.659
625.2370, 3041.882
626.4030, 2896.938
627.5690, 2705.272
628.7340, 2464.769
629.9000, 2203.885
631.0650, 2062.804
632.2300, 1960.717
633.3950, 1784.219
634.5600, 1880.146
635.7240, 1853.370
636.8890, 1255.616
638.0530, 1175.896
639.2170, 1198.664
640.3810, 1137.513
641.5450, 1013.916
642.7080, 1005.686
643.8720, 1026.061
645.0350, 812.4531
646.1980, 810.8687
647.3610, 848.3442
648.5240, 764.8252
649.6870, 834.7969
650.8490, 775.6650
652.0120, 780.1875
653.1740, 844.7080
654.3360, 689.1021
655.4980, 796.7271
656.6600, 736.2979
657.8210, 881.8838
658.9830, 783.8711
660.1440, 877.2656
661.3050, 983.9033
662.4660, 1278.437
663.6270, 939.8594
664.7870, 1085.590
665.9480, 981.1729
667.1080, 968.8916
668.2680, 1028.136
669.4280, 1068.159
670.5880, 1203.892
671.7480, 1270.690
672.9070, 1400.475
674.0670, 1306.726
675.2260, 1544.626
676.3850, 1613.540
677.5440, 1737.174
678.7030, 1957.909
679.8610, 2005.777
681.0200, 2115.720
682.1780, 2247.863
683.3360, 2290.601
684.4940, 2228.945
685.6520, 2393.013
686.8090, 2337.862
687.9670, 2154.334
689.1240, 2513.259
690.2810, 2206.284
691.4380, 2714.182
692.5950, 1950.041
693.7520, 1762.006
694.9080, 1788.746
696.0650, 1666.750
697.2210, 1297.294
698.3770, 1288.996
699.5330, 1113.240
700.6880, 1005.599
701.8440, 951.3140
702.9990, 831.9595
704.1550, 638.7373
705.3100, 667.8057
706.4650, 557.8193
707.6190, 499.9282
708.7740, 482.5996
709.9290, 476.6191
711.0830, 480.6318
712.2370, 407.6436
713.3910, 365.2954
714.5450, 290.8999
715.6980, 249.9868
716.8520, 292.6084
718.0050, 215.6084
719.1580, 151.9507
720.3110, 243.9443
721.4640, 191.9341
722.6170, 179.9204
723.7700, 138.8042
724.9220, 106.7295
726.0740, 101.3169
727.2260, 43.39307
728.3780, 24.35400
729.5300, 7.549805
730.6810, 49.25391
731.8330, 41.19238
732.9840, 10.12354
734.1350, 104.1870
735.2860, 99.10205
736.4370, 120.0083
737.5880, 90.90674
738.7380, 96.18652
739.8880, 44.09521
741.0390, 94.96582
742.1890, 58.82666
743.3380, 52.32227
744.4880, 100.5039
745.6380, 113.3188
746.7870, 79.12451
747.9360, 16.08105
749.0850, 82.69873
750.2340, 40.46777
751.3830, 153.2256
752.5310, 33.02783
753.6800, 63.69727
754.8280, 4.410645
755.9760, 84.11182
757.1240, 83.19873
758.2720, 28.49219
759.4190, 67.85254
760.5670, 85.23730
761.7140, 81.84326
762.8610, 4.558105
764.0080, 16.19629
765.1550, 6.012695
766.3020, 29.99707
767.4480, 5.795898
768.5950, 68.62061
769.7410, 33.83936
770.8870, 42.69141
772.0330, 31.62354
773.1780, 24.23389
774.3240, 106.5811
775.4690, 5.912598
776.6140, 56.77100
777.7590, 5.500488
778.9040, 80.25195
780.0490, 37.06250
781.1940, 22.08936
782.3380, 99.22559
783.4820, 10.65430
784.6260, 10.56006
785.7700, 0.4921880
786.9140, 23.55371
788.0580, 30.41748
789.2010, 23.57373
790.3450, 35.54785
791.4880, 35.49512
792.6310, 16.41943
793.7730, 50.31543
794.9160, 66.19531
796.0590, 9.057129
797.2010, 62.10254
798.3430, 96.67871
799.4850, 14.55762
800.6270, 11.82910
801.7690, 33.86523
802.9100, 12.45947
804.0520, 47.18115
805.1930, 5.196777
806.3340, 32.60791
807.4750, 27.06543
808.6160, 59.14697
809.7560, 58.13428
810.8970, 64.76123
812.0370, 58.44092
813.1770, 36.78857
814.3170, 4.987793
815.4570, 11.19971
816.5960, 87.35986
817.7360, 45.50098
818.8750, 30.81494
820.0140, 14.63184
821.1530, 44.20850
822.2920, 39.19531
823.4310, 19.23828
824.5690, 24.67285
825.7070, 3.440430
826.8460, 88.40820
827.9840, 82.23633
829.1220, 70.04541
830.2590, 18.16553
831.3970, 1.783203
832.5340, 16.28467
833.6710, 5.961914
834.8080, 3.604004
835.9450, 41.21094
837.0820, 22.20459
838.2190, 11.67041
839.3550, 26.20459
840.4910, 25.25732
841.6270, 64.33203
842.7630, 78.00586
843.8990, 53.32324
845.0350, 6.619629
846.1700, 72.88037
847.3060, 105.1216
848.4410, 145.3423
849.5760, 7.542480
850.7100, 32.70752
851.8450, 29.84619
852.9800, 102.9585
854.1140, 93.05029
855.2480, 14.12207
856.3820, 86.16113
857.5160, 104.1802
858.6500, 144.1802
859.7830, 25.15918
860.9170, 89.11084
862.0500, 10.04102
863.1830, 55.93848
864.3160, 186.8140
865.4480, 158.6699
866.5810, 88.40283
867.7130, 100.2197
868.8460, 96.01660
869.9780, 0.2055660
871.1100, 242.5332
872.2410, 131.2524
873.3730, 117.9526
874.5050, 41.63428
875.6360, 65.29248
876.7670, 190.9312
877.8980, 141.5508
879.0290, 249.1514
880.1590, 116.0796
881.2900, 207.6426
882.4200, 227.1875
883.5500, 193.7134
884.6800, 218.2749
885.8100, 105.3213
886.9400, 184.7925
888.0690, 141.2446
889.1990, 126.6099
890.3280, 179.0264
891.4570, 178.4253
892.5860, 223.8062
893.7140, 186.1616
894.8430, 148.5073
895.9710, 196.8354
897.1000, 170.1470
898.2280, 149.4409
899.3560, 177.5303
900.4830, 278.7905
901.6110, 375.7739
902.7380, 239.6011
903.8660, 401.8120
904.9930, 179.2246
906.1200, 235.6509
907.2460, 280.4941
908.3730, 302.9155
909.5000, 237.0483
910.6260, 272.9814
911.7520, 317.2568
912.8780, 314.8750
914.0040, 180.4199
915.1290, 299.4165
916.2550, 197.0527
917.3800, 306.0933
918.5050, 330.1201
919.6300, 278.1299
920.7550, 257.0884
921.8800, 278.5488
923.0040, 379.5181
924.1290, 326.0962
925.2530, 392.0269
926.3770, 361.9639
927.5010, 426.0679
928.6250, 423.4351
929.7480, 512.8169
930.8720, 473.7271
931.9950, 391.2437
933.1180, 491.3584
934.2410, 455.2349
935.3640, 454.2197
936.4860, 587.3252
937.6090, 509.1299
938.7310, 673.0967
939.8530, 577.9360
940.9750, 666.2559
942.0970, 617.8037
943.2180, 654.6494
944.3400, 808.4336
945.4610, 814.2354
946.5820, 839.5771
947.7030, 686.2729
948.8240, 720.9595
949.9450, 972.9316
951.0650, 799.8086
952.1860, 856.5576
953.3060, 944.2178
954.4260, 922.5571
955.5460, 1089.627
956.6650, 972.9248
957.7850, 1069.504
958.9040, 975.3052
960.0230, 1062.490
961.1420, 1002.225
962.2610, 942.9282
963.3800, 949.9209
964.4990, 960.9180
965.6170, 947.0063
966.7350, 913.5488
967.8530, 797.8311
968.9710, 788.7480
970.0890, 736.5576
971.2070, 684.0654
972.3240, 623.5127
973.4410, 661.4785
974.5580, 678.5151
975.6750, 703.4189
976.7920, 709.0327
977.9090, 623.7012
979.0250, 589.2734
980.1410, 545.2822
981.2580, 576.9424
982.3740, 633.6079
983.4890, 590.2729
984.6050, 571.2969
985.7200, 452.3652
986.8360, 541.3320
987.9510, 523.9985
989.0660, 566.6655
990.1810, 467.9888
991.2950, 471.6577
992.4100, 536.3286
993.5240, 451.0005
994.6390, 439.7715
995.7530, 466.4463
996.8660, 461.5596
997.9800, 480.1431
999.0940, 407.8379
1000.207, 426.0059
1001.320, 387.2612
1002.433, 425.9834
1003.546, 495.7256
1004.659, 535.3325
1005.772, 389.0815
1006.884, 398.8335
1007.996, 340.5898
1009.108, 413.9590
1010.220, 361.6938
1011.332, 368.4609
1012.444, 375.2324
1013.555, 538.0088
1014.666, 460.7969
1015.777, 494.5898
1016.888, 427.3872
1017.999, 451.1899
1019.110, 447.9995
1020.220, 288.8145
1021.331, 488.6343
1022.441, 398.1270
1023.551, 294.2959
1024.661, 439.1377
1025.770, 395.9849
1026.880, 504.8379
1027.989, 443.7217
1029.098, 497.6118
1030.207, 364.5078
1031.316, 397.4111
1032.425, 360.3198
1033.533, 369.2368
1034.642, 438.1743
1035.750, 376.2158
1036.858, 439.1875
1037.966, 334.1675
1039.073, 417.1914
1040.181, 436.2305
1041.288, 404.2881
1042.396, 423.3618
1043.503, 386.4429
1044.610, 442.5317
1045.716, 345.5415
1046.823, 382.6626
1047.929, 304.7939
1049.036, 379.0703
1050.142, 439.2515
1051.248, 419.4414
1052.353, 497.6392
1053.459, 447.0532
1054.564, 367.2788
1055.670, 515.5161
1056.775, 380.7622
1057.880, 431.0283
1058.985, 520.3032
1060.089, 437.8496
1061.194, 447.1553
1062.298, 514.4712
1063.402, 534.4116
1064.506, 495.7456
1065.610, 446.0918
1066.713, 548.4678
1067.817, 514.8535
1068.920, 474.4019
1070.023, 482.8237
1071.126, 457.3975
1072.229, 458.1797
1073.332, 481.5264
1074.435, 468.0229
1075.537, 518.6621
1076.639, 486.1875
1077.741, 458.7441
1078.843, 493.3335
1079.945, 436.9561
1081.046, 494.6113
1082.148, 460.2319
1083.249, 471.5386
1084.350, 423.6626
1085.451, 449.6548
1086.551, 441.3760
1087.652, 451.8135
1088.752, 464.7949
1089.853, 509.5732
1090.953, 488.3804
1092.053, 554.4062
1093.152, 358.0552
1094.252, 557.9199
1095.351, 457.7954
1096.451, 378.6816
1097.550, 450.7373
1098.649, 377.6587
1099.748, 417.6001
1100.846, 311.5571
1101.945, 388.5322
1103.043, 406.5269
1104.141, 409.5337
1105.239, 436.5659
1106.337, 300.6235
1107.434, 411.7080
1108.532, 385.8066
1109.629, 304.9434
1110.726, 387.0908
1111.823, 235.2510
1112.920, 302.4297
1114.017, 330.8101
1115.113, 368.3867
1116.210, 384.0361
1117.306, 378.9155
1118.402, 290.8149
1119.498, 309.9014
1120.593, 286.0596
1121.689, 260.4595
1122.784, 294.6802
1123.879, 218.7295
1124.974, 252.0259
1126.069, 241.7290
1127.164, 251.4058
1128.259, 217.8794
1129.353, 200.8359
1130.447, 223.9258
1131.541, 224.4209
1132.635, 188.7969
1133.729, 199.8296
1134.822, 126.6016
1135.916, 216.6460
1137.009, 229.1216
1138.102, 142.6074
1139.195, 234.1055
1140.288, 144.6138
1141.380, 67.13574
1142.473, 51.66846
1143.565, 104.2124
1144.657, 97.91602
1145.749, 103.8511
1146.841, 184.9106
1147.932, 132.5493
1149.024, 180.1479
1150.115, 255.7578
1151.206, 63.37842
1152.297, 119.0098
1153.388, 4.652344
1154.479, 52.95117
1155.569, 45.57715
1156.659, 170.6440
1157.750, 76.32861
1158.839, 87.46143
1159.929, 127.1680
1161.019, 157.8848
1162.108, 54.61230
1163.198, 102.3496
1164.287, 70.09814
1165.376, 180.9326
1166.465, 8.298340
1167.553, 101.4443
1168.642, 121.2310
1169.730, 70.64111
1170.818, 108.4482
1171.906, 38.26514
1172.994, 7.090820
1174.082, 118.9253
1175.170, 44.76904
1176.257, 54.37744
1177.344, 101.4673
1178.431, 66.32178
1179.518, 7.815430
1180.605, 17.05518
1181.691, 27.93408
1182.778, 28.82227
1183.864, 11.28027
1184.950, 8.705078
1186.036, 10.53369
1187.122, 6.453613
1188.207, 41.38086
1189.292, 21.31689
1190.378, 75.73877
1191.463, 47.18506
1192.548, 97.11621
1193.632, 43.92676
1194.717, 34.02832
1195.801, 79.99268
1196.886, 133.9648
1197.970, 42.94385
1199.054, 33.06787
1200.137, 89.91699
1201.221, 52.07471
1202.305, 13.07861
1203.388, 2.078613
1204.471, 37.92773
1205.554, 128.9404
1206.637, 119.9614
1207.719, 133.9897
1208.802, 66.02490
1209.884, 9.067383
1210.966, 83.11572
1212.048, 10.78809
1213.130, 30.15527
1214.212, 9.301758
1215.293, 9.623047
1216.374, 81.46387
1217.456, 24.43945
1218.536, 166.6538
1219.617, 72.75293
1220.698, 74.85791
1221.778, 67.96826
1222.859, 111.0845
1223.939, 31.20557
1225.019, 86.33252
1226.099, 95.46533
1227.178, 26.39600
1228.258, 125.7373
1229.337, 44.94922
1230.417, 218.0181
1231.496, 46.16504
1232.574, 10.31738
1233.653, 88.47754
1234.732, 54.64648
1235.810, 75.81836
1236.888, 15.99609
1237.966, 102.1777
1239.044, 51.36377
1240.122, 92.55322
1241.199, 131.7549
1242.277, 84.95996
1243.354, 67.16943
1244.431, 59.38184
1245.508, 2.598633
1246.585, 102.8184
1247.661, 66.04102
1248.738, 152.2896
1249.814, 73.55176
1250.890, 105.8164
1251.966, 26.08447
1253.042, 49.35547
1254.117, 14.62939
1255.193, 6.906738
1256.268, 44.18604
1257.343, 22.97510
1258.418, 52.24707
1259.493, 19.01367
1260.567, 20.72461
1261.642, 46.46973
1262.716, 77.76270
1263.790, 66.00342
1264.864, 89.19727
1265.938, 68.39990
1267.011, 71.60449
1268.085, 151.8110
1269.158, 58.01904
1270.231, 59.22803
1271.304, 21.43896
1272.377, 39.65234
1273.450, 23.86621
1274.522, 96.08301
1275.594, 20.30322
1276.666, 8.523926
1277.738, 139.7451
1278.810, 70.96680
1279.882, 120.1895
1280.953, 92.41260
1282.025, 44.63574
1283.096, 30.85889
1284.167, 79.08301
1285.238, 27.30908
1286.308, 89.53223
1287.379, 16.24463
1288.449, 14.96777
1289.519, 73.17676
1290.589, 101.4116
1291.659, 140.6187
1292.729, 132.0210
1293.798, 40.91064
1294.868, 172.2666
1295.937, 38.65283
1297.006, 133.4961
1298.075, 64.35596
1299.143, 79.86035
1300.212, 58.97949
1301.280, 209.1084
1302.348, 113.2090
1303.416, 158.3911
1304.484, 157.6616
1305.552, 141.7163
1306.620, 136.8066
1307.687, 106.8945
1308.754, 134.8652
1309.821, 76.65771
1310.888, 127.0249
1311.955, 155.1416
1313.021, 162.2773
1314.088, 86.61719
1315.154, 118.1284
1316.220, 106.6841
1317.286, 93.47754
1318.352, 140.1567
1319.417, 73.28955
1320.483, 118.9170
1321.548, 125.0903
1322.613, 146.4761
1323.678, 125.6787
1324.743, 117.7852
1325.807, 153.1260
1326.872, 164.7891
1327.936, 137.5283
1329.000, 164.5059
1330.064, 97.23828
1331.128, 109.3232
1332.191, 155.1509
1333.255, 131.1040
1334.318, 155.2920
1335.381, 161.1382
1336.444, 83.64404
1337.507, 151.0117
1338.569, 155.7119
1339.632, 96.08545
1340.694, 158.6504
1341.756, 107.9321
1342.818, 97.57227
1343.880, 119.3545
1344.941, 108.4829
1346.003, 145.7222
1347.064, 135.8271
1348.125, 121.6353
1349.186, 126.1875
1350.247, 77.62061
1351.308, 127.7109
1352.368, 110.4043
1353.428, 126.7358
1354.489, 150.6396
1355.549, 115.1074
1356.608, 142.2061
1357.668, 73.97070
1358.727, 85.50195
1359.787, 88.48389
1360.846, 143.3213
1361.905, 76.26855
1362.964, 85.57617
1364.022, 127.9033
1365.081, 124.1353
1366.139, 139.5347
1367.197, 98.08545
1368.255, 111.8984
1369.313, 109.1279
1370.371, 157.2456
1371.428, 165.1782
1372.486, 124.9287
1373.543, 84.61377
1374.600, 136.3594
1375.657, 106.1157
1376.713, 120.0732
1377.770, 83.06055
1378.826, 87.98584
1379.882, 92.24365
1380.938, 118.0132
1381.994, 78.54541
1383.050, 123.6997
1384.106, 119.9424
1385.161, 130.5547
1386.216, 136.5518
1387.271, 79.91553
1388.326, 76.35498
1389.381, 147.6484
1390.435, 104.3491
1391.490, 80.65723
1392.544, 77.97168
1393.598, 154.8105
1394.652, 157.6416
1395.705, 72.17480
1396.759, 145.3672
1397.812, 120.9019
1398.866, 125.7295
1399.919, 119.6865
1400.972, 117.1890
1402.024, 74.85547
1403.077, 84.59961
1404.129, 137.0005
1405.181, 116.6079
1406.233, 145.6890
1407.285, 84.58789
1408.337, 76.98438
1409.389, 83.58301
1410.440, 95.35059
1411.491, 65.71143
1412.542, 118.7490
1413.593, 116.6616
1414.644, 65.48584
1415.695, 67.40820
1416.745, 60.71338
1417.795, 143.5874
1418.845, 103.3687
1419.895, 54.32080
1420.945, 99.83057
1421.995, 117.1621
1423.044, 89.13672
1424.093, 86.70752
1425.142, 36.80811
1426.191, 56.91260
1427.240, 54.50391
1428.289, 89.14209
1429.337, 43.95264
1430.385, 90.62061
1431.433, 47.53369
1432.481, 168.8081
1433.529, 197.0498
1434.577, 148.3750
1435.624, 167.3433
1436.672, 23.81201
1437.719, 117.9785
1438.766, 67.13184
1439.812, 68.27295
1440.859, 123.0908
1441.905, 163.1953
1442.952, 166.1045
1443.998, 43.41211
1445.044, 132.3486
1446.090, 83.19238
1447.135, 49.05469
1448.181, 0.9169920
1449.226, 17.88379
1450.271, 111.8457
1451.316, 67.79590
1452.361, 29.74805
1453.405, 46.69824
1454.450, 41.35645
1455.494, 106.5820
1456.538, 117.5156
1457.582, 144.4434
1458.626, 76.35547
1459.670, 43.25293
1460.713, 47.49609
1461.757, 142.0420
1462.800, 46.10645
1463.843, 61.80566
1464.886, 82.68945
1465.928, 32.56836
1466.971, 67.43652
1468.013, 64.28809
1469.055, 13.86816
1470.097, 8.969727
1471.139, 104.7812
1472.181, 92.58691
1473.222, 86.38477
1474.263, 102.1465
1475.305, 86.89160
1476.346, 57.12012
1477.386, 78.22070
1478.427, 45.89355
1479.468, 47.57715
1480.508, 191.2744
1481.548, 190.0049
1482.588, 122.7773
1483.628, 166.5439
1484.668, 80.30566
1485.707, 10.06152
1486.747, 16.80859
1487.786, 115.5439
1488.825, 53.27637
1489.864, 86.00586
1490.902, 103.7314
1491.941, 125.4521
1492.979, 6.824219
1494.017, 194.9170
1495.055, 91.62109
1496.093, 242.2734
1497.131, 52.07129
1498.168, 103.9180
1499.206, 116.6270
1500.243, 59.48438
1501.280, 13.66309
1502.317, 96.19238
1503.354, 115.1748
1504.390, 120.6338
1505.426, 162.6494
1506.463, 153.4795
1507.499, 245.7363
1508.535, 134.6318
1509.570, 118.4023
1510.606, 74.37793
1511.641, 192.2939
1512.676, 26.44531
1513.711, 228.3037
1514.746, 152.8506
1515.781, 145.4414
1516.816, 78.87207
1517.850, 72.47949
1518.884, 105.0293
1519.918, 91.39355
1520.952, 92.69043
1521.986, 167.1660
1523.019, 44.62305
1524.053, 97.74609
1525.086, 33.48535
1526.119, 31.29883
1527.152, 155.6475
1528.185, 201.8447
1529.217, 222.3008
1530.250, 223.5000
1531.282, 244.0195
1532.314, 234.7666
1533.346, 239.6982
1534.377, 216.8867
1535.409, 200.5869
1536.440, 148.7061
1537.472, 64.29785
1538.503, 34.63086
1539.534, 84.37207
1540.564, 112.1133
1541.595, 118.6924
1542.625, 40.05469
1543.656, 71.10742
1544.686, 58.15430
1545.716, 43.93848
1546.745, 89.72070
1547.775, 23.64355
1548.804, 63.17090
1549.834, 63.41309
1550.863, 83.52441
1551.892, 60.24121
1552.920, 50.12207
1553.949, 83.69043
1554.977, 92.64844
1556.006, 65.06836
1557.034, 86.05566
1558.062, 19.30859
1559.089, 29.41699
1560.117, 71.92383
1561.144, 46.50293
1562.172, 69.28027
1563.199, 73.91016
1564.226, 4.503906
1565.252, 58.88574
1566.279, 92.61230
1567.305, 33.84082
1568.332, 100.6953
1569.358, 137.6748
1570.384, 0.0000000E+00
##END=



