##NAMES=Braunite
##RRUFFID=R050385
##IDEAL CHEMISTRY=Mn^2+^Mn^3+^_6_SiO_12_
##LOCALITY=Jhabua District, Madhya Pradesh, India
##OWNER=RRUFF
##SOURCE=University of Arizona Mineral Museum
##DESCRIPTION=Black prismatic crystals
##STATUS=The identification of this mineral has been confirmed by X-ray diffraction and chemical analysis
##URL=rruff.info/R050385
##MEASURED CHEMISTRY=(Fe^2+^_0.61_Mn^2+^_0.39_)_Σ=1_(Mn^3+^_5.94_Al_0.06_)_Σ=6_Si_1.00_O_12_
##PIN_ID=L01451
##ORIENTATION=Laser parallel to a* (1 0 0). Fiducial mark perpendicular to laser is parallel to c [0 0 1]
178.2820, 0.0000000E+00
179.5050, 206.1963
180.7290, 27.43945
181.9520, 135.8828
183.1760, 257.1904
184.3990, 586.7725
185.6220, 863.5479
186.8450, 1108.153
188.0670, 1633.023
189.2900, 1686.335
190.5120, 2175.175
191.7340, 2537.780
192.9560, 3429.902
194.1780, 3731.914
195.4000, 4520.506
196.6220, 5373.750
197.8430, 5974.650
199.0640, 6736.461
200.2860, 8374.110
201.5070, 10172.09
202.7270, 11387.87
203.9480, 11386.47
205.1690, 10081.92
206.3890, 9519.837
207.6090, 10584.98
208.8290, 10248.61
210.0490, 10592.19
211.2690, 11349.66
212.4890, 11727.69
213.7080, 12390.33
214.9280, 12384.25
216.1470, 11691.99
217.3660, 11377.08
218.5850, 11478.10
219.8030, 11380.76
221.0220, 10699.35
222.2400, 10354.08
223.4590, 9883.738
224.6770, 9239.863
225.8950, 9854.007
227.1120, 8607.673
228.3300, 8578.899
229.5480, 7008.312
230.7650, 6213.167
231.9820, 5907.621
233.1990, 5237.981
234.4160, 4952.039
235.6330, 4494.854
236.8490, 4094.988
238.0660, 3868.359
239.2820, 3619.409
240.4980, 3529.410
241.7140, 3342.920
242.9300, 3233.486
244.1460, 3074.148
245.3610, 2941.788
246.5770, 2718.735
247.7920, 2528.177
249.0070, 2212.312
250.2220, 2046.492
251.4370, 1847.657
252.6510, 1497.657
253.8660, 1519.000
255.0800, 1491.309
256.2940, 1417.149
257.5080, 1155.995
258.7220, 1137.278
259.9360, 1021.939
261.1490, 903.0615
262.3630, 919.8047
263.5760, 691.4053
264.7890, 708.5088
266.0020, 629.5332
267.2150, 596.2344
268.4270, 451.7256
269.6400, 303.4531
270.8520, 218.1055
272.0640, 234.7686
273.2760, 78.00098
274.4880, 132.3311
275.7000, 259.3955
276.9120, 101.8037
278.1230, 141.8389
279.3340, 95.41016
280.5450, 131.5205
281.7560, 214.0850
282.9670, 247.3096
284.1780, 156.9434
285.3880, 187.3711
286.5980, 75.78027
287.8090, 47.81934
289.0190, 29.17773
290.2290, 104.8027
291.4380, 56.21777
292.6480, 3.514648
293.8570, 12.33105
295.0670, 159.6650
296.2760, 176.0605
297.4850, 210.6699
298.6930, 260.5342
299.9020, 226.6621
301.1110, 386.0391
302.3190, 261.7363
303.5270, 452.8164
304.7350, 275.4492
305.9430, 293.5049
307.1510, 296.8584
308.3580, 173.4297
309.5660, 265.3135
310.7730, 30.64648
311.9800, 86.47363
313.1870, 1.140625
314.3940, 47.17090
315.6010, 209.7207
316.8070, 372.8789
318.0130, 631.8037
319.2200, 845.6104
320.4260, 1134.392
321.6310, 1364.196
322.8370, 1492.036
324.0430, 1966.235
325.2480, 2226.730
326.4540, 2689.498
327.6590, 2637.361
328.8640, 2982.582
330.0680, 2862.602
331.2730, 2784.575
332.4780, 2519.164
333.6820, 2299.722
334.8860, 2046.201
336.0900, 1824.439
337.2940, 1636.767
338.4980, 1463.787
339.7010, 1215.595
340.9050, 1200.159
342.1080, 1057.462
343.3110, 855.4961
344.5140, 740.2549
345.7170, 732.7305
346.9200, 451.6084
348.1220, 547.1572
349.3240, 592.8076
350.5270, 591.1719
351.7290, 401.7754
352.9310, 454.0312
354.1320, 408.9424
355.3340, 359.4395
356.5350, 444.5791
357.7370, 280.4580
358.9380, 480.3428
360.1390, 257.4668
361.3400, 403.2500
362.5400, 484.7148
363.7410, 545.8584
364.9410, 481.6816
366.1410, 559.1797
367.3410, 679.3574
368.5410, 478.5771
369.7410, 573.6094
370.9400, 618.6426
372.1400, 616.3506
373.3390, 426.2539
374.5380, 477.6250
375.7370, 431.4326
376.9360, 380.5664
378.1350, 464.2295
379.3330, 397.0547
380.5310, 257.2490
381.7300, 331.9834
382.9280, 231.1494
384.1260, 206.7168
385.3230, 117.6162
386.5210, 76.74219
387.7180, 75.48633
388.9160, 77.68945
390.1130, 21.65039
391.3100, 10.78711
392.5060, 10.24219
393.7030, 39.01367
394.9000, 61.71289
396.0960, 81.42969
397.2920, 48.28809
398.4880, 71.82715
399.6840, 21.50488
400.8800, 141.1670
402.0750, 211.1123
403.2710, 165.0117
404.4660, 276.4570
405.6610, 241.4355
406.8560, 199.5068
408.0510, 261.6318
409.2450, 261.8398
410.4400, 416.5449
411.6340, 412.3271
412.8280, 463.4297
414.0220, 517.9287
415.2160, 451.1426
416.4100, 591.8291
417.6030, 441.1553
418.7970, 549.6807
419.9900, 552.1104
421.1830, 656.9775
422.3760, 656.2803
423.5690, 739.2812
424.7610, 523.4863
425.9540, 538.6543
427.1460, 370.9883
428.3380, 486.1924
429.5300, 319.6748
430.7220, 407.6934
431.9140, 448.0918
433.1050, 442.9600
434.2970, 257.1484
435.4880, 311.9033
436.6790, 266.6387
437.8700, 217.0635
439.0610, 253.9629
440.2510, 271.0693
441.4420, 323.1211
442.6320, 301.5225
443.8220, 334.5918
445.0120, 433.2217
446.2020, 490.3115
447.3910, 488.7441
448.5810, 311.1543
449.7700, 374.7188
450.9600, 341.3721
452.1490, 312.0625
453.3370, 412.2930
454.5260, 278.7266
455.7150, 388.6533
456.9030, 505.1406
458.0910, 575.2041
459.2800, 577.1211
460.4670, 657.3330
461.6550, 730.6748
462.8430, 842.9102
464.0300, 984.1895
465.2180, 963.5117
466.4050, 1099.876
467.5920, 1533.203
468.7790, 1452.869
469.9650, 1597.764
471.1520, 1588.990
472.3380, 1606.174
473.5250, 1729.314
474.7110, 1627.191
475.8970, 1682.464
477.0820, 1566.472
478.2680, 1381.443
479.4540, 1508.370
480.6390, 1401.258
481.8240, 1277.104
483.0090, 1284.910
484.1940, 1137.677
485.3780, 1062.407
486.5630, 1103.101
487.7470, 972.6689
488.9320, 1087.176
490.1160, 1033.479
491.3000, 1052.154
492.4830, 1088.999
493.6670, 1161.194
494.8500, 1261.319
496.0340, 1394.024
497.2170, 1557.029
498.4000, 1709.819
499.5820, 1947.318
500.7650, 2272.404
501.9480, 2537.702
503.1300, 2895.066
504.3120, 3284.059
505.4940, 3457.401
506.6760, 3859.027
507.8580, 3938.424
509.0390, 4049.181
510.2210, 4029.456
511.4020, 3895.937
512.5830, 3912.837
513.7640, 3666.959
514.9450, 3996.138
516.1250, 3135.578
517.3060, 2691.876
518.4860, 2518.144
519.6660, 2294.700
520.8460, 2000.143
522.0260, 1573.775
523.2060, 1555.875
524.3850, 1273.532
525.5650, 1011.551
526.7440, 804.7109
527.9230, 620.6035
529.1020, 480.4092
530.2810, 429.2930
531.4590, 380.2793
532.6380, 214.1436
533.8160, 144.0352
534.9940, 273.0205
536.1720, 449.0137
537.3500, 190.3926
538.5270, 210.9580
539.7050, 197.4785
540.8820, 91.21484
542.0590, 104.8330
543.2360, 96.06348
544.4130, 62.32129
545.5900, 129.2158
546.7660, 37.31934
547.9430, 86.38574
549.1190, 60.39160
550.2950, 64.75488
551.4710, 89.97852
552.6470, 49.45996
553.8220, 142.7881
554.9980, 188.2061
556.1730, 250.6592
557.3480, 263.2930
558.5230, 343.9561
559.6980, 332.7285
560.8730, 344.5957
562.0470, 534.5449
563.2220, 455.6025
564.3960, 690.7510
565.5700, 572.9961
566.7440, 747.4111
567.9170, 740.8975
569.0910, 666.5654
570.2640, 789.4014
571.4380, 964.3906
572.6110, 929.5049
573.7840, 1005.089
574.9570, 1042.085
576.1290, 1000.510
577.3020, 947.0293
578.4740, 918.6748
579.6460, 862.4248
580.8180, 901.3496
581.9900, 855.4258
583.1620, 827.6543
584.3330, 901.0459
585.5040, 934.5918
586.6760, 1071.331
587.8470, 1041.231
589.0180, 1299.344
590.1880, 1347.620
591.3590, 1577.303
592.5290, 1727.116
593.7000, 2072.419
594.8700, 2184.316
596.0400, 2433.735
597.2090, 2964.398
598.3790, 3183.569
599.5490, 3595.808
600.7180, 4137.105
601.8870, 4435.457
603.0560, 4993.857
604.2250, 5481.480
605.3940, 6082.789
606.5620, 6660.322
607.7300, 7105.896
608.8990, 7956.515
610.0670, 8467.178
611.2350, 9113.886
612.4020, 9344.635
613.5700, 9924.429
614.7370, 10191.27
615.9050, 10080.15
617.0720, 10168.07
618.2390, 9937.211
619.4060, 9704.223
620.5720, 9381.062
621.7390, 8871.883
622.9050, 8405.220
624.0710, 7764.408
625.2370, 7063.719
626.4030, 6680.995
627.5690, 6176.318
628.7340, 5588.686
629.9000, 5126.098
631.0650, 4635.559
632.2300, 4241.878
633.3950, 3897.825
634.5600, 3556.229
635.7240, 3348.886
636.8890, 3064.721
638.0530, 2896.878
639.2170, 2632.686
640.3810, 2375.541
641.5450, 2301.130
642.7080, 2108.087
643.8720, 2097.831
645.0350, 1985.725
646.1980, 2026.502
647.3610, 1809.896
648.5240, 1818.568
649.6870, 1895.401
650.8490, 1785.978
652.0120, 2098.816
653.1740, 1770.696
654.3360, 1783.142
655.4980, 1862.562
656.6600, 2242.262
657.8210, 2137.565
658.9830, 1891.971
660.1440, 2298.275
661.3050, 2059.797
662.4660, 2221.688
663.6270, 2388.688
664.7870, 2666.227
665.9480, 2839.395
667.1080, 2877.445
668.2680, 3115.906
669.4280, 3413.073
670.5880, 3389.299
671.7480, 3772.614
672.9070, 4023.695
674.0670, 4465.586
675.2260, 4866.741
676.3850, 5227.043
677.5440, 5687.620
678.7030, 6127.017
679.8610, 6594.107
681.0200, 7093.818
682.1780, 7610.509
683.3360, 8135.408
684.4940, 8691.739
685.6520, 8807.578
686.8090, 8741.074
687.9670, 8817.546
689.1240, 8564.933
690.2810, 8426.029
691.4380, 8118.474
692.5950, 7558.167
693.7520, 7235.284
694.9080, 6738.252
696.0650, 6112.889
697.2210, 5519.891
698.3770, 5214.729
699.5330, 4670.150
700.6880, 4123.505
701.8440, 3994.229
702.9990, 3812.291
704.1550, 3583.885
705.3100, 3171.977
706.4650, 2996.040
707.6190, 2725.521
708.7740, 2453.122
709.9290, 2311.234
711.0830, 1921.352
712.2370, 1778.300
713.3910, 1536.327
714.5450, 1457.628
715.6980, 1355.335
716.8520, 1199.889
718.0050, 1085.403
719.1580, 896.6025
720.3110, 741.9678
721.4640, 864.0400
722.6170, 628.0264
723.7700, 602.3018
724.9220, 683.1699
726.0740, 479.1719
727.2260, 536.9512
728.3780, 667.5771
729.5300, 459.7910
730.6810, 353.9541
731.8330, 322.7842
732.9840, 237.7607
734.1350, 420.6504
735.2860, 423.4473
736.4370, 69.23242
737.5880, 326.0039
738.7380, 219.7617
739.8880, 168.5068
741.0390, 165.2373
742.1890, 138.9531
743.3380, 162.6543
744.4880, 158.3398
745.6380, 77.01074
746.7870, 346.0938
747.9360, 178.7412
749.0850, 186.5615
750.2340, 75.52539
751.3830, 52.11133
752.5310, 101.6787
753.6800, 56.22852
754.8280, 13.75781
755.9760, 52.73242
757.1240, 56.74707
758.2720, 26.79395
759.4190, 18.63965
760.5670, 10.94922
761.7140, 93.44043
762.8610, 3.193359
764.0080, 68.15039
765.1550, 64.47168
766.3020, 28.76953
767.4480, 45.18457
768.5950, 109.2969
769.7410, 33.52344
770.8870, 19.72656
772.0330, 65.90625
773.1780, 30.05957
774.3240, 2.813477
775.4690, 12.71191
776.6140, 37.35645
777.7590, 20.39844
778.9040, 79.58594
780.0490, 69.36621
781.1940, 58.13574
782.3380, 17.83789
783.4820, 88.00586
784.6260, 111.2441
785.7700, 96.65527
786.9140, 1.974609
788.0580, 99.41602
789.2010, 12.93848
790.3450, 38.50488
791.4880, 142.1270
792.6310, 107.0850
793.7730, 12.31348
794.9160, 131.5488
796.0590, 178.2344
797.2010, 62.45117
798.3430, 3.677734
799.4850, 22.84668
800.6270, 145.4541
801.7690, 71.84766
802.9100, 95.32031
804.0520, 122.8721
805.1930, 15.50098
806.3340, 8.835938
807.4750, 22.95898
808.6160, 85.82031
809.7560, 95.21875
810.8970, 5.219727
812.0370, 3.166992
813.1770, 78.05664
814.3170, 40.09082
815.4570, 2.873047
816.5960, 86.61035
817.7360, 4.992188
818.8750, 56.46680
820.0140, 26.02051
821.1530, 41.34668
822.2920, 37.33496
823.4310, 30.10449
824.5690, 43.95801
825.7070, 51.09570
826.8460, 2.838867
827.9840, 6.718750
829.1220, 25.10840
830.2590, 46.33691
831.3970, 5.336914
832.5340, 58.93848
833.6710, 50.49023
834.8080, 11.98828
835.9450, 21.41602
837.0820, 34.77734
838.2190, 17.92383
839.3550, 44.29004
840.4910, 30.44238
841.6270, 31.47070
842.7630, 130.5225
843.8990, 38.47070
845.0350, 3.643555
846.1700, 144.1562
847.3060, 90.91602
848.4410, 86.62402
849.5760, 110.2832
850.7100, 138.8955
851.8450, 58.46387
852.9800, 17.02734
854.1140, 90.38672
855.2480, 50.25000
856.3820, 46.00098
857.5160, 132.1865
858.6500, 150.3271
859.7830, 119.4238
860.9170, 214.4746
862.0500, 146.4814
863.1830, 99.44434
864.3160, 106.3555
865.4480, 163.2178
866.5810, 78.03711
867.7130, 257.7979
868.8460, 146.5156
869.9780, 164.1895
871.1100, 295.8203
872.2410, 260.4082
873.3730, 198.2646
874.5050, 309.7344
875.6360, 371.5840
876.7670, 386.4736
877.8980, 213.8896
879.0290, 283.2949
880.1590, 255.6621
881.2900, 224.0127
882.4200, 327.3574
883.5500, 210.9707
884.6800, 235.0967
885.8100, 221.1797
886.9400, 227.5283
888.0690, 276.2246
889.1990, 240.1846
890.3280, 286.1045
891.4570, 302.9824
892.5860, 288.6504
893.7140, 319.5703
894.8430, 334.1895
895.9710, 333.4160
897.1000, 412.9014
898.2280, 405.5352
899.3560, 504.0527
900.4830, 553.6064
901.6110, 407.1230
902.7380, 576.6113
903.8660, 503.0586
904.9930, 635.4668
906.1200, 524.8369
907.2460, 544.1660
908.3730, 558.4580
909.5000, 724.7090
910.6260, 615.7910
911.7520, 721.5625
912.8780, 648.6992
914.0040, 691.7988
915.1290, 594.1787
916.2550, 598.2070
917.3800, 659.4658
918.5050, 778.5850
919.6300, 681.8457
920.7550, 793.5078
921.8800, 745.9189
923.0040, 924.3623
924.1290, 816.2520
925.2530, 797.9902
926.3770, 794.2373
927.5010, 824.9297
928.6250, 1020.653
929.7480, 1131.123
930.8720, 1069.997
931.9950, 1121.790
933.1180, 1183.701
934.2410, 1294.072
935.3640, 1332.766
936.4860, 1532.021
937.6090, 1633.751
938.7310, 1605.876
939.8530, 1592.133
940.9750, 1698.993
942.0970, 1808.174
943.2180, 1930.310
944.3400, 1969.369
945.4610, 2075.682
946.5820, 2256.197
947.7030, 2111.465
948.8240, 2316.609
949.9450, 2575.917
951.0650, 2755.803
952.1860, 2702.954
953.3060, 2721.737
954.4260, 2790.555
955.5460, 2797.164
956.6650, 2840.369
957.7850, 2889.065
958.9040, 3002.113
960.0230, 3039.189
961.1420, 2713.365
962.2610, 2891.828
963.3800, 2569.954
964.4990, 2755.835
965.6170, 2532.291
966.7350, 2290.901
967.8530, 2383.844
968.9710, 2202.422
970.0890, 2115.165
971.2070, 1927.328
972.3240, 1873.048
973.4410, 1743.717
974.5580, 1699.690
975.6750, 1614.992
976.7920, 1510.976
977.9090, 1415.245
979.0250, 1328.705
980.1410, 1219.444
981.2580, 1158.979
982.3740, 1054.559
983.4890, 1039.449
984.6050, 1044.800
985.7200, 1000.371
986.8360, 926.2207
987.9510, 1044.120
989.0660, 882.8809
990.1810, 888.6172
991.2950, 1008.811
992.4100, 807.2930
993.5240, 976.8535
994.6390, 882.1250
995.7530, 873.7949
996.8660, 805.3291
997.9800, 805.3662
999.0940, 869.9668
1000.207, 830.5488
1001.320, 798.5859
1002.433, 827.2363
1003.546, 812.7236
1004.659, 758.2852
1005.772, 721.9307
1006.884, 783.5742
1007.996, 824.2148
1009.108, 738.8535
1010.220, 655.4922
1011.332, 778.1338
1012.444, 729.7734
1013.555, 740.4131
1014.666, 727.0518
1015.777, 781.6914
1016.888, 663.3291
1017.999, 629.9746
1019.110, 667.6191
1020.220, 559.2656
1021.331, 713.9131
1022.441, 664.5615
1023.551, 717.2109
1024.661, 709.8623
1025.770, 722.5156
1026.880, 765.1768
1027.989, 754.3809
1029.098, 732.5107
1030.207, 752.1836
1031.316, 716.8604
1032.425, 690.5420
1033.533, 687.9365
1034.642, 615.3076
1035.750, 677.4248
1036.858, 643.1230
1037.966, 663.8262
1039.073, 527.5352
1040.181, 787.2480
1041.288, 640.9688
1042.396, 712.6934
1043.503, 837.4248
1044.610, 606.1641
1045.716, 680.9121
1046.823, 857.1797
1047.929, 641.0195
1049.036, 768.1709
1050.142, 740.0410
1051.248, 706.8594
1052.353, 560.4111
1053.459, 638.2471
1054.564, 699.8057
1055.670, 820.7324
1056.775, 900.0312
1057.880, 770.0039
1058.985, 849.7314
1060.089, 739.5400
1061.194, 848.5977
1062.298, 777.8594
1063.402, 819.9688
1064.506, 682.5762
1065.610, 810.3477
1066.713, 888.3457
1067.817, 918.0117
1068.920, 760.2402
1070.023, 844.5537
1071.126, 834.3906
1072.229, 817.8145
1073.332, 936.6943
1074.435, 808.3105
1075.537, 924.7070
1076.639, 942.6523
1077.741, 851.2305
1078.843, 830.8203
1079.945, 761.4326
1081.046, 786.0674
1082.148, 728.7139
1083.249, 744.3984
1084.350, 757.1045
1085.451, 715.8594
1086.551, 759.6406
1087.652, 710.4629
1088.752, 655.3203
1089.853, 738.1953
1090.953, 643.1094
1092.053, 705.0596
1093.152, 632.0498
1094.252, 654.0615
1095.351, 672.1025
1096.451, 661.1768
1097.550, 639.2881
1098.649, 659.8555
1099.748, 622.0713
1100.846, 640.8379
1101.945, 615.0664
1103.043, 515.3262
1104.141, 609.6133
1105.239, 573.9277
1106.337, 518.2793
1107.434, 458.5186
1108.532, 560.8135
1109.629, 613.5928
1110.726, 619.4707
1111.823, 437.9443
1112.920, 498.4863
1114.017, 462.0557
1115.113, 421.6660
1116.210, 516.3369
1117.306, 362.1875
1118.402, 454.7559
1119.498, 448.8799
1120.593, 488.1172
1121.689, 435.3594
1122.784, 407.2207
1123.879, 477.3662
1124.974, 492.8457
1126.069, 425.2334
1127.164, 467.5010
1128.259, 311.8564
1129.353, 329.7207
1130.447, 423.2412
1131.541, 358.8086
1132.635, 402.9658
1133.729, 405.7969
1134.822, 220.7471
1135.916, 362.5059
1137.009, 364.0215
1138.102, 219.3770
1139.195, 350.0107
1140.288, 290.7520
1141.380, 256.9043
1142.473, 291.2920
1143.565, 200.4395
1144.657, 239.6055
1145.749, 257.7881
1146.841, 430.9902
1147.932, 348.0898
1149.024, 88.00684
1150.115, 296.2646
1151.206, 99.54004
1152.297, 139.8340
1153.388, 173.1465
1154.479, 184.4795
1155.569, 115.8281
1156.659, 113.1963
1157.750, 69.58398
1158.839, 132.9893
1159.929, 71.41406
1161.019, 124.8574
1162.108, 175.3193
1163.198, 89.79883
1164.287, 28.29785
1165.376, 18.18457
1166.465, 63.65234
1167.553, 22.87695
1168.642, 18.42383
1169.730, 61.99023
1170.818, 73.74512
1171.906, 72.50879
1172.994, 75.80078
1174.082, 60.44141
1175.170, 59.10156
1176.257, 38.77930
1177.344, 19.52344
1178.431, 4.283203
1179.518, 15.08691
1180.605, 32.34473
1181.691, 2.404297
1182.778, 65.98828
1183.864, 50.90625
1184.950, 84.30469
1186.036, 29.55664
1187.122, 13.80078
1188.207, 79.96680
1189.292, 18.24414
1190.378, 101.5547
1191.463, 104.3711
1192.548, 72.79004
1193.632, 185.0381
1194.717, 39.09766
1195.801, 42.22852
1196.886, 37.35840
1197.970, 12.51562
1199.054, 56.40625
1200.137, 125.3145
1201.221, 57.76172
1202.305, 69.19727
1203.388, 11.82715
1204.471, 45.83105
1205.554, 6.163086
1206.637, 60.17480
1207.719, 51.20117
1208.802, 72.51465
1209.884, 69.69336
1210.966, 51.54004
1212.048, 49.53320
1213.130, 17.66406
1214.212, 26.25781
1215.293, 63.22754
1216.374, 98.17383
1217.456, 97.37598
1218.536, 103.7451
1219.617, 151.8281
1220.698, 89.07617
1221.778, 140.3398
1222.859, 154.6172
1223.939, 112.9092
1225.019, 122.2168
1226.099, 232.5391
1227.178, 227.2852
1228.258, 330.2568
1229.337, 259.5908
1230.417, 406.1797
1231.496, 297.3613
1232.574, 82.76660
1233.653, 248.1865
1234.732, 87.62305
1235.810, 124.0723
1236.888, 247.5342
1237.966, 195.0088
1239.044, 203.4971
1240.122, 98.99805
1241.199, 149.5107
1242.277, 290.0381
1243.354, 373.5771
1244.431, 145.1289
1245.508, 26.70703
1246.585, 50.30176
1247.661, 145.9170
1248.738, 186.5469
1249.814, 61.19043
1250.890, 106.1533
1251.966, 80.46777
1253.042, 9.899414
1254.117, 11.73828
1255.193, 34.61035
1256.268, 10.03613
1257.343, 30.30762
1258.418, 38.34668
1259.493, 4.011719
1260.567, 15.68652
1261.642, 246.3721
1262.716, 203.0674
1263.790, 77.77441
1264.864, 134.4902
1265.938, 17.78320
1267.011, 157.9424
1268.085, 44.54785
1269.158, 126.4219
1270.231, 1.174805
1271.304, 17.06445
1272.377, 114.6943
1273.450, 48.23340
1274.522, 39.24023
1275.594, 80.02637
1276.666, 69.82129
1277.738, 25.94531
1278.810, 92.36426
1279.882, 161.0898
1280.953, 182.9062
1282.025, 17.29883
1283.096, 93.73340
1284.167, 73.18262
1285.238, 48.66113
1286.308, 159.1787
1287.379, 20.87402
1288.449, 129.2656
1289.519, 139.1846
1290.589, 194.1807
1291.659, 151.5928
1292.729, 139.1611
1293.798, 224.3447
1294.868, 255.0928
1295.937, 198.8750
1297.006, 256.7666
1298.075, 115.1064
1299.143, 148.5713
1300.212, 257.6016
1301.280, 208.7256
1302.348, 268.4375
1303.416, 286.7939
1304.484, 117.2471
1305.552, 274.5029
1306.620, 289.9336
1307.687, 160.6719
1308.754, 306.3799
1309.821, 196.1318
1310.888, 178.0811
1311.955, 225.8672
1313.021, 202.9336
1314.088, 291.0049
1315.154, 273.1914
1316.220, 220.1572
1317.286, 154.1787
1318.352, 391.6650
1319.417, 265.7002
1320.483, 325.6914
1321.548, 260.5410
1322.613, 227.1367
1323.678, 267.6553
1324.743, 251.2383
1325.807, 368.8350
1326.872, 325.7246
1327.936, 314.2861
1329.000, 261.3535
1330.064, 290.4580
1331.128, 193.5400
1332.191, 342.6396
1333.255, 337.8184
1334.318, 246.9209
1335.381, 369.1719
1336.444, 414.5820
1337.507, 338.9482
1338.569, 235.6631
1339.632, 261.7998
1340.694, 302.8057
1341.756, 280.6143
1342.818, 340.8545
1343.880, 347.4795
1344.941, 317.9912
1346.003, 253.1953
1347.064, 241.7080
1348.125, 373.8936
1349.186, 292.1318
1350.247, 385.5039
1351.308, 287.9883
1352.368, 292.3281
1353.428, 330.8281
1354.489, 299.0459
1355.549, 387.6387
1356.608, 290.9102
1357.668, 344.2500
1358.727, 347.4912
1359.787, 268.9092
1360.846, 447.4600
1361.905, 364.2969
1362.964, 328.5596
1364.022, 303.0352
1365.081, 311.3750
1366.139, 348.8965
1367.197, 362.5303
1368.255, 426.6250
1369.313, 395.1689
1370.371, 419.6387
1371.428, 347.9453
1372.486, 270.5762
1373.543, 393.0518
1374.600, 367.4619
1375.657, 333.4199
1376.713, 364.3662
1377.770, 379.9014
1378.826, 349.4434
1379.882, 370.5938
1380.938, 387.3281
1381.994, 395.3994
1383.050, 407.0898
1384.106, 447.3555
1385.161, 415.3311
1386.216, 457.7891
1387.271, 451.3525
1388.326, 413.7236
1389.381, 420.1357
1390.435, 377.6602
1391.490, 392.1621
1392.544, 399.2129
1393.598, 400.3496
1394.652, 414.7324
1395.705, 387.9141
1396.759, 359.0879
1397.812, 323.5000
1398.866, 424.6016
1399.919, 289.7734
1400.972, 324.9375
1402.024, 400.0977
1403.077, 315.7432
1404.129, 332.9102
1405.181, 193.4980
1406.233, 322.6377
1407.285, 265.1699
1408.337, 388.3984
1409.389, 331.7314
1410.440, 205.1455
1411.491, 233.1621
1412.542, 285.6914
1413.593, 221.7803
1414.644, 283.8398
1415.695, 330.7764
1416.745, 219.8066
1417.795, 302.9004
1418.845, 107.7842
1419.895, 286.6523
1420.945, 208.5283
1421.995, 133.4219
1423.044, 241.1016
1424.093, 299.0771
1425.142, 309.7949
1426.191, 133.1982
1427.240, 198.4736
1428.289, 166.7178
1429.337, 131.6338
1430.385, 230.9346
1431.433, 81.33691
1432.481, 178.9990
1433.529, 177.5957
1434.577, 221.7490
1435.624, 168.4316
1436.672, 145.0420
1437.719, 219.3975
1438.766, 239.3555
1439.812, 174.4824
1440.859, 221.0703
1441.905, 68.01953
1442.952, 90.32715
1443.998, 188.4629
1445.044, 87.54297
1446.090, 10.56934
1447.135, 164.6396
1448.181, 67.69531
1449.226, 112.9805
1450.271, 24.68359
1451.316, 84.39258
1452.361, 17.04688
1453.405, 60.70117
1454.450, 104.3701
1455.494, 143.9775
1456.538, 146.6553
1457.582, 29.72363
1458.626, 247.8906
1459.670, 141.5840
1460.713, 60.11816
1461.757, 25.73340
1462.800, 57.64941
1463.843, 0.9667970
1464.886, 171.5850
1465.928, 2.795898
1466.971, 15.17480
1468.013, 87.44141
1469.055, 9.056641
1470.097, 29.67383
1471.139, 106.2900
1472.181, 35.90527
1473.222, 172.4795
1474.263, 108.0225
1475.305, 79.55566
1476.346, 56.14258
1477.386, 93.73633
1478.427, 59.34766
1479.468, 141.9766
1480.508, 43.60547
1481.548, 124.2344
1482.588, 110.9365
1483.628, 279.5166
1484.668, 99.17090
1485.707, 70.83887
1486.747, 22.52344
1487.786, 150.2119
1488.825, 99.22559
1489.864, 135.3584
1490.902, 95.36523
1491.941, 157.1006
1492.979, 120.8418
1494.017, 100.5977
1495.055, 122.3672
1496.093, 166.1553
1497.131, 30.03613
1498.168, 5.786133
1499.206, 9.371094
1500.243, 40.49707
1501.280, 44.68359
1502.317, 132.2959
1503.354, 93.23438
1504.390, 136.1904
1505.426, 208.1689
1506.463, 43.17871
1507.499, 206.2236
1508.535, 184.2920
1509.570, 139.5410
1510.606, 161.4043
1511.641, 122.0264
1512.676, 189.3613
1513.711, 143.9180
1514.746, 110.3623
1515.781, 166.9375
1516.816, 217.5107
1517.850, 201.8428
1518.884, 131.1035
1519.918, 230.1299
1520.952, 216.2686
1521.986, 65.40820
1523.019, 206.2900
1524.053, 181.0576
1525.086, 190.8389
1526.119, 201.6592
1527.152, 70.96582
1528.185, 186.2314
1529.217, 249.7480
1530.250, 268.1748
1531.282, 98.75195
1532.314, 171.7129
1533.346, 146.7070
1534.377, 107.7656
1535.409, 203.3447
1536.440, 56.41992
1537.472, 158.2158
1538.503, 162.5762
1539.534, 209.6992
1540.564, 160.5654
1541.595, 140.9893
1542.625, 220.0586
1543.656, 244.5869
1544.686, 185.5918
1545.716, 237.5273
1546.745, 88.31250
1547.775, 116.2676
1548.804, 219.6045
1549.834, 161.8760
1550.863, 215.2842
1551.892, 223.8564
1552.920, 43.75195
1553.949, 190.9141
1554.977, 198.8115
1556.006, 62.29688
1557.034, 200.1875
1558.062, 84.15723
1559.089, 54.74609
1560.117, 94.13574
1561.144, 63.50781
1562.172, 137.9189
1563.199, 111.4873
1564.226, 157.2695
1565.252, 146.8369
1566.279, 66.40234
1567.305, 21.55762
1568.332, 1.411133
1569.358, 142.5039
1570.384, 0.0000000E+00
##END=



