##NAMES=Braunite
##RRUFFID=R050388
##IDEAL CHEMISTRY=Mn^2+^Mn^3+^_6_SiO_12_
##LOCALITY=Langban, Filipstad, Varmland, Sweden
##OWNER=RRUFF
##SOURCE=University of Arizona Mineral Museum
##DESCRIPTION=Black crystals
##STATUS=The identification of this mineral has been confirmed by X-ray diffraction and chemical analysis
##URL=rruff.info/R050388
##MEASURED CHEMISTRY=(Mn^2+^_0.96_Mg_0.04_)_Î£=1_Mn^3+^_6.00_Si_1.00_O_12_
##PIN_ID=M00354
##ORIENTATION=Laser parallel to -c* (0 0 -1). Fiducial mark perpendicular to laser is parallel to a [1 0 0]
157.4550, 0.0000000E+00
158.6810, 6.976563
159.9080, 35.89062
161.1340, 30.98047
162.3590, 123.4727
163.5850, 253.9297
164.8110, 353.1016
166.0360, 560.0977
167.2610, 663.7344
168.4860, 753.5078
169.7110, 789.8008
170.9360, 878.7344
172.1610, 738.2500
173.3850, 627.4922
174.6100, 543.5430
175.8340, 826.6406
177.0580, 873.7148
178.2820, 994.9688
179.5050, 1253.625
180.7290, 1347.148
181.9520, 1614.148
183.1760, 1885.363
184.3990, 2096.598
185.6220, 2534.820
186.8450, 2748.070
188.0670, 3200.461
189.2900, 3821.223
190.5120, 4394.098
191.7340, 4885.215
192.9560, 5085.145
194.1780, 5937.430
195.4000, 6628.441
196.6220, 7695.328
197.8430, 9405.082
199.0640, 9191.926
200.2860, 10040.03
201.5070, 12951.57
202.7270, 12679.70
203.9480, 13031.53
205.1690, 13721.18
206.3890, 12643.74
207.6090, 12869.31
208.8290, 13198.97
210.0490, 13133.78
211.2690, 12971.81
212.4890, 12820.11
213.7080, 12234.04
214.9280, 11114.55
216.1470, 10194.14
217.3660, 9126.500
218.5850, 8217.953
219.8030, 7397.137
221.0220, 6489.945
222.2400, 5623.340
223.4590, 5022.336
224.6770, 4422.363
225.8950, 4077.832
227.1120, 3765.941
228.3300, 3489.547
229.5480, 3216.730
230.7650, 3023.246
231.9820, 2898.746
233.1990, 2842.375
234.4160, 2768.453
235.6330, 2818.035
236.8490, 2882.840
238.0660, 2976.863
239.2820, 3203.113
240.4980, 3805.547
241.7140, 3658.188
242.9300, 4046.012
244.1460, 4134.016
245.3610, 4060.188
246.5770, 3820.516
247.7920, 3642.992
249.0070, 3002.602
250.2220, 2879.340
251.4370, 2299.191
252.6510, 1903.145
253.8660, 1859.195
255.0800, 1828.344
256.2940, 1489.578
257.5080, 2049.891
258.7220, 1687.828
259.9360, 1529.445
261.1490, 1486.250
262.3630, 878.8203
263.5760, 884.4297
264.7890, 437.0703
266.0020, 518.7266
267.2150, 416.3867
268.4270, 191.0352
269.6400, 222.6836
270.8520, 113.4102
272.0640, 105.9492
273.2760, 8.417969
274.4880, 248.2070
275.7000, 124.8398
276.9120, 247.4766
278.1230, 66.12109
279.3340, 142.2266
280.5450, 77.43750
281.7560, 93.89062
282.9670, 30.19922
284.1780, 32.49609
285.3880, 69.77344
286.5980, 44.75000
287.8090, 58.78125
289.0190, 72.73828
290.2290, 60.77344
291.4380, 105.3125
292.6480, 115.6680
293.8570, 216.8750
295.0670, 248.7266
296.2760, 259.6992
297.4850, 371.8047
298.6930, 132.0898
299.9020, 121.6523
301.1110, 218.5234
302.3190, 270.5391
303.5270, 174.3672
304.7350, 255.0820
305.9430, 150.6641
307.1510, 308.0234
308.3580, 76.96484
309.5660, 0.6757810
310.7730, 5.804688
311.9800, 258.4375
313.1870, 151.1992
314.3940, 353.0547
315.6010, 411.9805
316.8070, 591.9609
318.0130, 596.9844
319.2200, 842.0312
320.4260, 964.0898
321.6310, 1266.145
322.8370, 1855.184
324.0430, 1942.195
325.2480, 2439.176
326.4540, 2651.117
327.6590, 2678.016
328.8640, 2909.875
330.0680, 2966.695
331.2730, 2609.473
332.4780, 2761.203
333.6820, 2409.863
334.8860, 1722.500
336.0900, 1878.039
337.2940, 1425.500
338.4980, 1293.863
339.7010, 1320.117
340.9050, 952.2539
342.1080, 626.2773
343.3110, 747.2031
344.5140, 760.0312
345.7170, 530.7734
346.9200, 678.4414
348.1220, 645.0430
349.3240, 688.5703
350.5270, 581.0469
351.7290, 384.4609
352.9310, 531.8320
354.1320, 382.1523
355.3340, 335.4375
356.5350, 435.6797
357.7370, 395.8906
358.9380, 355.0508
360.1390, 335.1211
361.3400, 403.0703
362.5400, 318.0156
363.7410, 428.6719
364.9410, 288.2031
366.1410, 448.5664
367.3410, 618.7422
368.5410, 728.7461
369.7410, 684.5703
370.9400, 730.1406
372.1400, 683.3750
373.3390, 630.3047
374.5380, 596.0273
375.7370, 598.5117
376.9360, 707.7930
378.1350, 388.8867
379.3330, 541.9961
380.5310, 370.1562
381.7300, 258.3633
382.9280, 359.6289
384.1260, 279.9453
385.3230, 219.3125
386.5210, 145.7305
387.7180, 555.1953
388.9160, 368.0156
390.1130, 369.7930
391.3100, 424.8906
392.5060, 188.5547
393.7030, 437.2656
394.9000, 458.0273
396.0960, 194.8359
397.2920, 386.6953
398.4880, 314.6055
399.6840, 494.5586
400.8800, 650.5625
402.0750, 396.6172
403.2710, 470.7148
404.4660, 612.8594
405.6610, 562.0586
406.8560, 525.3008
408.0510, 637.5938
409.2450, 560.9375
410.4400, 773.3320
411.6340, 583.7773
412.8280, 678.1172
414.0220, 686.1484
415.2160, 531.8711
416.4100, 745.5820
417.6030, 868.9805
418.7970, 575.6836
419.9900, 621.7031
421.1830, 585.5664
422.3760, 699.0586
423.5690, 662.4375
424.7610, 930.8984
425.9540, 687.8750
427.1460, 465.1250
428.3380, 531.5117
429.5300, 250.8438
430.7220, 343.0195
431.9140, 656.5977
433.1050, 638.5859
434.2970, 392.6094
435.4880, 663.1211
436.6790, 449.2773
437.8700, 431.3711
439.0610, 584.7656
440.2510, 451.7852
441.4420, 300.0742
442.6320, 326.7227
443.8220, 344.3516
445.0120, 583.2383
446.2020, 314.2070
447.3910, 436.3906
448.5810, 38.69922
449.7700, 84.48828
450.9600, 311.9492
452.1490, 105.9219
453.3370, 237.5039
454.5260, 434.6016
455.7150, 731.2109
456.9030, 751.8750
458.0910, 852.1484
459.2800, 896.3516
460.4670, 850.1680
461.6550, 784.0312
462.8430, 746.9570
464.0300, 952.9297
465.2180, 814.9531
466.4050, 1213.031
467.5920, 1351.160
468.7790, 1520.348
469.9650, 1407.586
471.1520, 1434.887
472.3380, 1564.035
473.5250, 1922.684
474.7110, 1781.184
475.8970, 1814.754
477.0820, 1877.387
478.2680, 1751.074
479.4540, 1903.836
480.6390, 1752.660
481.8240, 1718.539
483.0090, 1848.488
484.1940, 1764.496
485.3780, 1921.594
486.5630, 1998.762
487.7470, 1827.992
488.9320, 1759.285
490.1160, 1850.645
491.3000, 1569.078
492.4830, 1913.578
493.6670, 1641.188
494.8500, 1903.891
496.0340, 1677.660
497.2170, 1892.527
498.4000, 2065.461
499.5820, 2007.469
500.7650, 2532.977
501.9480, 2624.125
503.1300, 2743.352
504.3120, 3130.652
505.4940, 3077.059
506.6760, 3405.543
507.8580, 3837.102
509.0390, 3980.758
510.2210, 3673.527
511.4020, 3684.387
512.5830, 3300.363
513.7640, 3198.422
514.9450, 3293.566
516.1250, 3346.793
517.3060, 3067.109
518.4860, 2723.512
519.6660, 2279.004
520.8460, 2388.582
522.0260, 2425.258
523.2060, 2642.027
524.3850, 2125.949
525.5650, 2020.996
526.7440, 1890.184
527.9230, 1618.473
529.1020, 2006.879
530.2810, 1685.375
531.4590, 1458.965
532.6380, 1770.641
533.8160, 1736.406
534.9940, 2000.266
536.1720, 1907.238
537.3500, 1864.301
538.5270, 1964.488
539.7050, 1946.766
540.8820, 2035.574
542.0590, 2109.656
543.2360, 2170.258
544.4130, 2070.949
545.5900, 2018.734
546.7660, 2062.617
547.9430, 2031.605
549.1190, 1982.688
550.2950, 2137.863
551.4710, 1821.133
552.6470, 1858.492
553.8220, 1894.949
554.9980, 1712.523
556.1730, 1865.219
557.3480, 1933.016
558.5230, 1867.930
559.6980, 1856.977
560.8730, 1913.109
562.0470, 2028.344
563.2220, 1635.672
564.3960, 2026.109
565.5700, 1982.703
566.7440, 2143.422
567.9170, 2348.312
569.0910, 2104.344
570.2640, 2055.504
571.4380, 2420.805
572.6110, 1930.242
573.7840, 2103.828
574.9570, 1809.555
576.1290, 1793.410
577.3020, 1440.402
578.4740, 1376.660
579.6460, 1133.836
580.8180, 1088.312
581.9900, 844.9766
583.1620, 506.8438
584.3330, 196.9102
585.5040, 347.1094
586.6760, 230.4648
587.8470, 122.0273
589.0180, 28.40234
590.1880, 50.62109
591.3590, 212.3359
592.5290, 35.87891
593.7000, 192.2188
594.8700, 64.65234
596.0400, 90.18750
597.2090, 253.8047
598.3790, 369.5234
599.5490, 187.3203
600.7180, 228.2070
601.8870, 400.1836
603.0560, 631.2812
604.2250, 344.4961
605.3940, 265.8398
606.5620, 575.2812
607.7300, 666.8086
608.8990, 739.4141
610.0670, 1346.109
611.2350, 1076.895
612.4020, 1425.418
613.5700, 1324.109
614.7370, 1048.355
615.9050, 1328.980
617.0720, 1287.207
618.2390, 1129.520
619.4060, 1401.918
620.5720, 1184.395
621.7390, 1108.949
622.9050, 1165.590
624.0710, 888.1992
625.2370, 924.4141
626.4030, 513.3945
627.5690, 801.3555
628.7340, 721.3945
629.9000, 510.5156
631.0650, 717.6875
632.2300, 484.9609
633.3950, 574.6523
634.5600, 380.3867
635.7240, 449.8984
636.8890, 206.7070
638.0530, 105.3711
639.2170, 14.10938
640.3810, 121.0742
641.5450, 390.8047
642.7080, 698.7500
643.8720, 438.5078
645.0350, 170.7891
646.1980, 244.9609
647.3610, 438.2031
648.5240, 468.7539
649.6870, 383.1445
650.8490, 350.1992
652.0120, 413.9492
653.1740, 451.5469
654.3360, 461.2148
655.4980, 692.9531
656.6600, 493.7578
657.8210, 427.6328
658.9830, 657.5742
660.1440, 925.5820
661.3050, 685.6562
662.4660, 999.1133
663.6270, 1195.301
664.7870, 1044.617
665.9480, 1066.715
667.1080, 1415.754
668.2680, 1886.141
669.4280, 1787.660
670.5880, 2044.242
671.7480, 2578.883
672.9070, 2653.582
674.0670, 3102.383
675.2260, 3493.867
676.3850, 4025.746
677.5440, 4482.910
678.7030, 4900.902
679.8610, 5624.590
681.0200, 6441.434
682.1780, 7366.594
683.3360, 8153.805
684.4940, 9054.070
685.6520, 9506.117
686.8090, 10136.95
687.9670, 10350.38
689.1240, 10307.26
690.2810, 10291.78
691.4380, 9845.406
692.5950, 9363.133
693.7520, 8801.250
694.9080, 8173.535
696.0650, 7000.309
697.2210, 6365.598
698.3770, 5381.465
699.5330, 4896.418
700.6880, 4585.375
701.8440, 4373.379
702.9990, 3574.426
704.1550, 2915.520
705.3100, 2356.340
706.4650, 2339.613
707.6190, 1788.812
708.7740, 1855.906
709.9290, 1663.480
711.0830, 1465.539
712.2370, 1173.152
713.3910, 1215.867
714.5450, 1032.320
715.6980, 1040.805
716.8520, 774.3281
718.0050, 936.8789
719.1580, 515.4688
720.3110, 968.5312
721.4640, 465.1875
722.6170, 528.6094
723.7700, 488.3242
724.9220, 501.0742
726.0740, 251.6992
727.2260, 416.0195
728.3780, 357.8477
729.5300, 298.3047
730.6810, 484.1836
731.8330, 417.1758
732.9840, 576.0977
734.1350, 565.0195
735.2860, 533.2461
736.4370, 450.0312
737.5880, 459.0391
738.7380, 168.0625
739.8880, 132.3008
741.0390, 180.4219
742.1890, 794.3086
743.3380, 322.7383
744.4880, 1128.918
745.6380, 325.0469
746.7870, 247.1914
747.9360, 21.35156
749.0850, 10.52734
750.2340, 77.48438
751.3830, 78.28906
752.5310, 87.94922
753.6800, 44.80469
754.8280, 112.9805
755.9760, 25.39453
757.1240, 76.43750
758.2720, 122.7070
759.4190, 171.8633
760.5670, 90.02734
761.7140, 21.20312
762.8610, 133.6172
764.0080, 6.519531
765.1550, 205.6562
766.3020, 95.80469
767.4480, 246.9531
768.5950, 16.74219
769.7410, 177.4102
770.8870, 176.4297
772.0330, 82.34766
773.1780, 283.7031
774.3240, 114.2461
775.4690, 326.7578
776.6140, 320.6328
777.7590, 164.7695
778.9040, 446.3555
780.0490, 124.3672
781.1940, 0.6171880
782.3380, 121.6055
783.4820, 108.3398
784.6260, 144.2852
785.7700, 62.76172
786.9140, 128.8477
788.0580, 11.01172
789.2010, 129.1914
790.3450, 102.5586
791.4880, 245.3086
792.6310, 234.0547
793.7730, 193.8008
794.9160, 244.3320
796.0590, 237.6094
797.2010, 163.0234
798.3430, 202.7617
799.4850, 7.496094
800.6270, 194.7891
801.7690, 126.1875
802.9100, 153.9922
804.0520, 12.25391
805.1930, 51.86328
806.3340, 186.4727
807.4750, 73.80469
808.6160, 157.1367
809.7560, 176.4570
810.8970, 62.77344
812.0370, 39.91797
813.1770, 159.3477
814.3170, 81.39844
815.4570, 253.7812
816.5960, 18.95703
817.7360, 120.8867
818.8750, 179.1719
820.0140, 227.2227
821.1530, 87.26562
822.2920, 50.30078
823.4310, 25.67969
824.5690, 236.2930
825.7070, 67.25391
826.8460, 125.1992
827.9840, 93.13672
829.1220, 91.06641
830.2590, 37.01172
831.3970, 38.15625
832.5340, 186.6445
833.6710, 17.42969
834.8080, 244.1836
835.9450, 107.9297
837.0820, 120.6562
838.2190, 176.3750
839.3550, 264.0859
840.4910, 363.7891
841.6270, 16.51953
842.7630, 39.88281
843.8990, 14.68359
845.0350, 71.21484
846.1700, 57.72266
847.3060, 78.21094
848.4410, 22.32422
849.5760, 103.6367
850.7100, 156.4688
851.8450, 172.8438
852.9800, 433.2148
854.1140, 175.5664
855.2480, 413.9062
856.3820, 12.23828
857.5160, 390.5234
858.6500, 146.2070
859.7830, 271.9414
860.9170, 308.0781
862.0500, 44.79688
863.1830, 62.25000
864.3160, 293.2695
865.4480, 22.72266
866.5810, 8.777344
867.7130, 139.1250
868.8460, 275.0156
869.9780, 210.8906
871.1100, 150.7539
872.2410, 50.60547
873.3730, 173.4180
874.5050, 211.2227
875.6360, 131.0156
876.7670, 80.20703
877.8980, 24.52344
879.0290, 118.8984
880.1590, 50.60938
881.2900, 210.0859
882.4200, 266.5508
883.5500, 344.0039
884.6800, 375.4414
885.8100, 383.8672
886.9400, 388.6250
888.0690, 222.2852
889.1990, 478.4648
890.3280, 29.66797
891.4570, 66.64844
892.5860, 571.9492
893.7140, 272.2227
894.8430, 282.4922
895.9710, 278.7578
897.1000, 429.0078
898.2280, 508.2461
899.3560, 671.1719
900.4830, 326.2930
901.6110, 621.5000
902.7380, 412.6992
903.8660, 117.8867
904.9930, 560.0938
906.1200, 493.2578
907.2460, 372.0898
908.3730, 360.9336
909.5000, 314.2344
910.6260, 292.2812
911.7520, 311.1016
912.8780, 408.2188
914.0040, 488.3242
915.1290, 786.4297
916.2550, 558.5273
917.3800, 417.8984
918.5050, 702.8203
919.6300, 387.9141
920.7550, 536.9961
921.8800, 293.8438
923.0040, 723.9102
924.1290, 551.3867
925.2530, 580.2227
926.3770, 685.2812
927.5010, 654.3320
928.6250, 936.3828
929.7480, 639.4219
930.8720, 1029.465
931.9950, 858.5000
933.1180, 939.5312
934.2410, 1084.012
935.3640, 1173.789
936.4860, 1252.332
937.6090, 1488.324
938.7310, 1584.621
939.8530, 1607.031
940.9750, 1559.152
942.0970, 1901.207
943.2180, 1897.266
944.3400, 2263.320
945.4610, 2324.379
946.5820, 2896.406
947.7030, 3112.805
948.8240, 3665.871
949.9450, 4077.707
951.0650, 4301.781
952.1860, 4663.211
953.3060, 4851.543
954.4260, 4812.641
955.5460, 4682.754
956.6650, 4298.871
957.7850, 4220.258
958.9040, 3714.922
960.0230, 3164.047
961.1420, 2701.770
962.2610, 2653.906
963.3800, 2251.996
964.4990, 1712.043
965.6170, 1767.750
966.7350, 1344.344
967.8530, 1374.504
968.9710, 1576.223
970.0890, 1194.418
971.2070, 1120.582
972.3240, 1011.789
973.4410, 1058.008
974.5580, 908.2305
975.6750, 846.4648
976.7920, 769.0469
977.9090, 655.2305
979.0250, 783.5312
980.1410, 847.9883
981.2580, 785.0195
982.3740, 834.6133
983.4890, 673.7031
984.6050, 654.7422
985.7200, 637.0898
986.8360, 754.4492
987.9510, 717.1367
989.0660, 604.1953
990.1810, 733.6055
991.2950, 693.5859
992.4100, 688.0195
993.5240, 613.7539
994.6390, 713.2422
995.7530, 680.0234
996.8660, 573.4023
997.9800, 670.4102
999.0940, 672.9727
1000.207, 614.9492
1001.320, 364.7500
1002.433, 537.2891
1003.546, 355.9297
1004.659, 548.5898
1005.772, 643.2539
1006.884, 527.9414
1007.996, 742.6680
1009.108, 300.4102
1010.220, 489.9805
1011.332, 389.7031
1012.444, 526.7070
1013.555, 605.2148
1014.666, 524.0039
1015.777, 482.8867
1016.888, 609.7852
1017.999, 385.7422
1019.110, 555.7305
1020.220, 727.7383
1021.331, 657.7812
1022.441, 407.8555
1023.551, 691.9688
1024.661, 425.4648
1025.770, 598.3594
1026.880, 506.5430
1027.989, 507.6641
1029.098, 350.0117
1030.207, 552.2773
1031.316, 685.5664
1032.425, 701.8789
1033.533, 512.2500
1034.642, 659.6367
1035.750, 435.0508
1036.858, 405.4844
1037.966, 455.8047
1039.073, 615.2930
1040.181, 659.8047
1041.288, 450.3828
1042.396, 789.0000
1043.503, 770.6445
1044.610, 696.0391
1045.716, 1302.078
1046.823, 690.8711
1047.929, 600.6562
1049.036, 912.5273
1050.142, 1045.180
1051.248, 735.0391
1052.353, 690.9570
1053.459, 874.8984
1054.564, 809.8672
1055.670, 717.8789
1056.775, 766.9570
1057.880, 614.0625
1058.985, 552.2656
1060.089, 852.4648
1061.194, 670.6875
1062.298, 884.9336
1063.402, 1045.516
1064.506, 559.8164
1065.610, 829.1445
1066.713, 673.5000
1067.817, 1063.879
1068.920, 746.2773
1070.023, 773.7734
1071.126, 611.2539
1072.229, 1182.891
1073.332, 714.5664
1074.435, 1137.074
1075.537, 800.8281
1076.639, 898.6758
1077.741, 1270.414
1078.843, 986.1172
1079.945, 914.9805
1081.046, 815.8906
1082.148, 817.8242
1083.249, 712.8164
1084.350, 829.8438
1085.451, 858.9023
1086.551, 768.6797
1087.652, 878.9219
1088.752, 793.1016
1089.853, 993.3164
1090.953, 822.5586
1092.053, 686.8477
1093.152, 890.2695
1094.252, 835.6172
1095.351, 642.9922
1096.451, 419.3945
1097.550, 943.8320
1098.649, 769.3125
1099.748, 927.8516
1100.846, 1068.906
1101.945, 753.5117
1103.043, 715.1445
1104.141, 455.8008
1105.239, 915.4883
1106.337, 669.2070
1107.434, 773.9492
1108.532, 628.8594
1109.629, 718.6797
1110.726, 735.5547
1111.823, 765.4688
1112.920, 816.4180
1114.017, 716.3984
1115.113, 676.8242
1116.210, 477.8945
1117.306, 760.9883
1118.402, 892.1133
1119.498, 614.2617
1120.593, 467.4414
1121.689, 532.1836
1122.784, 501.3984
1123.879, 598.5000
1124.974, 740.6289
1126.069, 855.0156
1127.164, 1021.434
1128.259, 1103.770
1129.353, 553.3750
1130.447, 1081.930
1131.541, 633.7656
1132.635, 135.9844
1133.729, 471.0391
1134.822, 534.7305
1135.916, 368.4492
1137.009, 487.8477
1138.102, 338.6133
1139.195, 271.4180
1140.288, 277.2461
1141.380, 372.7773
1142.473, 120.6562
1143.565, 361.6094
1144.657, 260.6406
1145.749, 694.6562
1146.841, 208.0820
1147.932, 413.2188
1149.024, 383.5625
1150.115, 190.7695
1151.206, 321.9766
1152.297, 399.2148
1153.388, 295.4688
1154.479, 432.7500
1155.569, 404.0586
1156.659, 388.4141
1157.750, 359.8008
1158.839, 183.2109
1159.929, 132.2461
1161.019, 496.7031
1162.108, 493.4961
1163.198, 286.0039
1164.287, 119.5312
1165.376, 276.0859
1166.465, 491.6602
1167.553, 255.2578
1168.642, 407.8789
1169.730, 301.6445
1170.818, 266.7070
1171.906, 172.8789
1172.994, 228.5938
1174.082, 314.3359
1175.170, 329.1016
1176.257, 224.2734
1177.344, 2.925781
1178.431, 300.9023
1179.518, 5.257813
1180.605, 87.38672
1181.691, 284.4727
1182.778, 348.3516
1183.864, 359.2539
1184.950, 270.1719
1186.036, 20.11719
1187.122, 131.0742
1188.207, 191.0547
1189.292, 0.9453130
1190.378, 279.0742
1191.463, 151.1094
1192.548, 121.1680
1193.632, 18.76172
1194.717, 157.3320
1195.801, 146.4414
1196.886, 431.5703
1197.970, 216.7188
1199.054, 99.10938
1200.137, 328.0469
1201.221, 96.77734
1202.305, 212.3867
1203.388, 162.5664
1204.471, 31.23828
1205.554, 225.9688
1206.637, 31.18750
1207.719, 76.42578
1208.802, 54.31641
1209.884, 42.93750
1210.966, 150.2070
1212.048, 350.4922
1213.130, 235.8008
1214.212, 152.1562
1215.293, 124.5195
1216.374, 118.0938
1217.456, 33.74219
1218.536, 318.6367
1219.617, 147.0312
1220.698, 80.43359
1221.778, 75.85547
1222.859, 3.707031
1223.939, 357.7422
1225.019, 592.2031
1226.099, 260.6836
1227.178, 333.2031
1228.258, 94.74609
1229.337, 248.3008
1230.417, 90.12891
1231.496, 24.41016
1232.574, 120.9688
1233.653, 160.5352
1234.732, 403.1211
1235.810, 306.7148
1236.888, 103.3242
1237.966, 131.0547
1239.044, 189.5117
1240.122, 51.10547
1241.199, 210.7344
1242.277, 147.3750
1243.354, 168.0312
1244.431, 7.304688
1245.508, 139.4258
1246.585, 223.0234
1247.661, 311.7617
1248.738, 366.4805
1249.814, 310.2148
1250.890, 59.04688
1251.966, 223.6719
1253.042, 324.4023
1254.117, 116.8633
1255.193, 279.8281
1256.268, 256.5234
1257.343, 72.23438
1258.418, 94.94922
1259.493, 49.32031
1260.567, 53.07031
1261.642, 23.91797
1262.716, 0.2265630
1263.790, 18.46094
1264.864, 159.1641
1265.938, 57.13672
1267.011, 235.5469
1268.085, 301.2305
1269.158, 270.9336
1270.231, 21.35938
1271.304, 109.3398
1272.377, 139.0586
1273.450, 59.20703
1274.522, 201.4922
1275.594, 5.648438
1276.666, 84.91016
1277.738, 146.3750
1278.810, 23.73828
1279.882, 28.88672
1280.953, 191.5117
1282.025, 258.1484
1283.096, 193.7852
1284.167, 274.4219
1285.238, 334.0664
1286.308, 246.7109
1287.379, 229.3555
1288.449, 4.003906
1289.519, 71.83984
1290.589, 10.96094
1291.659, 257.6055
1292.729, 103.2500
1293.798, 487.8906
1294.868, 243.5352
1295.937, 276.1836
1297.006, 452.8281
1298.075, 183.4727
1299.143, 254.1680
1300.212, 137.8086
1301.280, 251.2422
1302.348, 562.8828
1303.416, 391.5273
1304.484, 20.83203
1305.552, 524.7812
1306.620, 169.3477
1307.687, 289.9531
1308.754, 370.4961
1309.821, 282.2734
1310.888, 153.8672
1311.955, 156.4609
1313.021, 209.0508
1314.088, 231.6367
1315.154, 515.2148
1316.220, 378.7930
1317.286, 435.8281
1318.352, 450.9102
1319.417, 277.4766
1320.483, 382.5039
1321.548, 495.5938
1322.613, 437.2070
1323.678, 490.9570
1324.743, 309.2148
1325.807, 428.7734
1326.872, 403.3320
1327.936, 298.1914
1329.000, 366.8242
1330.064, 411.5195
1331.128, 484.0820
1332.191, 395.6484
1333.255, 435.4336
1334.318, 229.0000
1335.381, 135.5703
1336.444, 359.3320
1337.507, 285.1484
1338.569, 374.1758
1339.632, 176.7461
1340.694, 284.4844
1341.756, 637.0078
1342.818, 283.5781
1343.880, 493.1445
1344.941, 541.0703
1346.003, 282.5117
1347.064, 285.0781
1348.125, 438.8359
1349.186, 344.6680
1350.247, 282.2383
1351.308, 382.7031
1352.368, 795.4297
1353.428, 208.9922
1354.489, 625.3984
1355.549, 354.7656
1356.608, 383.3828
1357.668, 411.1953
1358.727, 362.2734
1359.787, 309.9922
1360.846, 404.8086
1361.905, 557.1680
1362.964, 376.7305
1364.022, 369.2891
1365.081, 299.8516
1366.139, 567.2734
1367.197, 387.3828
1368.255, 350.7383
1369.313, 694.2969
1370.371, 423.9258
1371.428, 192.6172
1372.486, 449.5469
1373.543, 379.1016
1374.600, 109.6562
1375.657, 157.9453
1376.713, 282.5469
1377.770, 392.4453
1378.826, 717.6523
1379.882, 414.1914
1380.938, 565.7305
1381.994, 514.4492
1383.050, 287.9883
1384.106, 436.7578
1385.161, 457.3086
1386.216, 318.8477
1387.271, 475.5547
1388.326, 296.4844
1389.381, 390.3867
1390.435, 435.5039
1391.490, 436.0156
1392.544, 408.5234
1393.598, 478.4062
1394.652, 311.9102
1395.705, 553.9375
1396.759, 449.3594
1397.812, 592.4297
1398.866, 417.4219
1399.919, 434.3789
1400.972, 473.7539
1402.024, 306.0742
1403.077, 480.3477
1404.129, 404.5820
1405.181, 327.6133
1406.233, 272.0156
1407.285, 412.6406
1408.337, 387.6406
1409.389, 244.7891
1410.440, 489.8164
1411.491, 474.8320
1412.542, 502.8008
1413.593, 281.7539
1414.644, 208.6875
1415.695, 49.17969
1416.745, 20.91797
1417.795, 311.0273
1418.845, 94.83984
1419.895, 160.6328
1420.945, 383.3945
1421.995, 278.3047
1423.044, 390.9844
1424.093, 351.5156
1425.142, 86.10156
1426.191, 344.5586
1427.240, 8.550781
1428.289, 176.8125
1429.337, 244.1484
1430.385, 121.4531
1431.433, 358.3320
1432.481, 144.5586
1433.529, 325.7383
1434.577, 145.8711
1435.624, 237.9531
1436.672, 256.0195
1437.719, 173.1875
1438.766, 333.1602
1439.812, 317.1016
1440.859, 167.0312
1441.905, 350.9180
1442.952, 139.1914
1443.998, 166.1484
1445.044, 335.9727
1446.090, 154.9180
1447.135, 554.1367
1448.181, 55.72656
1449.226, 71.31250
1450.271, 26.88672
1451.316, 333.4688
1452.361, 315.0742
1453.405, 14.31641
1454.450, 124.2969
1455.494, 6.906250
1456.538, 163.5234
1457.582, 415.0898
1458.626, 188.6172
1459.670, 204.1758
1460.713, 448.7031
1461.757, 110.2227
1462.800, 128.7383
1463.843, 67.01172
1464.886, 310.6211
1465.928, 123.0508
1466.971, 101.5156
1468.013, 415.9062
1469.055, 408.3203
1470.097, 296.7891
1471.139, 68.82422
1472.181, 358.5430
1473.222, 132.8828
1474.263, 116.2031
1475.305, 398.5039
1476.346, 325.8281
1477.386, 147.1836
1478.427, 378.5664
1479.468, 97.07422
1480.508, 46.32812
1481.548, 180.7539
1482.588, 137.1758
1483.628, 323.6367
1484.668, 162.0703
1485.707, 141.4961
1486.747, 54.90625
1487.786, 293.3320
1488.825, 220.8242
1489.864, 338.4023
1490.902, 312.9805
1491.941, 24.43750
1492.979, 43.83984
1494.017, 343.4648
1495.055, 40.32031
1496.093, 192.9531
1497.131, 6.605469
1498.168, 246.2734
1499.206, 241.8867
1500.243, 8.488281
1501.280, 133.1914
1502.317, 290.9766
1503.354, 242.8008
1504.390, 340.6719
1505.426, 282.5938
1506.463, 753.5664
1507.499, 371.5859
1508.535, 46.65625
1509.570, 446.7930
1510.606, 358.7188
1511.641, 215.5547
1512.676, 20.89453
1513.711, 465.5820
1514.746, 282.2773
1515.781, 445.7031
1516.816, 350.3555
1517.850, 266.1133
1518.884, 276.7852
1519.918, 21.67188
1520.952, 293.3711
1521.986, 165.0898
1523.019, 39.67969
1524.053, 115.6719
1525.086, 310.5781
1526.119, 230.1484
1527.152, 165.0586
1528.185, 326.2734
1529.217, 394.7656
1530.250, 203.2422
1531.282, 154.6484
1532.314, 273.3750
1533.346, 315.3867
1534.377, 288.2109
1535.409, 298.1836
1536.440, 484.3008
1537.472, 428.7578
1538.503, 427.2617
1539.534, 195.9297
1540.564, 365.6055
1541.595, 136.7422
1542.625, 391.8906
1543.656, 539.7305
1544.686, 579.0938
1545.716, 179.6328
1546.745, 342.5859
1547.775, 256.3242
1548.804, 187.0898
1549.834, 426.7461
1550.863, 94.21875
1551.892, 327.5469
1552.920, 337.4102
1553.949, 450.7305
1554.977, 339.1797
1556.006, 295.0508
1557.034, 472.8984
1558.062, 529.3906
1559.089, 388.4258
1560.117, 507.3242
1561.144, 162.4102
1562.172, 225.7695
1563.199, 223.5234
1564.226, 205.1406
1565.252, 630.7031
1566.279, 3.644531
1567.305, 196.9258
1568.332, 473.3047
1569.358, 0.1914060
1570.384, 0.0000000E+00
##END=



