##NAMES=Braunite
##RRUFFID=R050385
##IDEAL CHEMISTRY=Mn^2+^Mn^3+^_6_SiO_12_
##LOCALITY=Jhabua District, Madhya Pradesh, India
##OWNER=RRUFF
##SOURCE=University of Arizona Mineral Museum
##DESCRIPTION=Black prismatic crystals
##STATUS=The identification of this mineral has been confirmed by X-ray diffraction and chemical analysis
##URL=rruff.info/R050385
##MEASURED CHEMISTRY=(Fe^2+^_0.61_Mn^2+^_0.39_)_Σ=1_(Mn^3+^_5.94_Al_0.06_)_Σ=6_Si_1.00_O_12_
##PIN_ID=M00114
##ORIENTATION=Laser parallel to c* (0 0 1). Fiducial mark perpendicular to laser is parallel to -b [0 -1 0]
178.2820, 0.0000000E+00
179.5050, 5.472168
180.7290, 23.77930
181.9520, 144.0186
183.1760, 10.06689
184.3990, 232.3457
185.6220, 325.1528
186.8450, 484.6528
188.0670, 499.6328
189.2900, 526.1162
190.5120, 780.5181
191.7340, 1013.596
192.9560, 1050.698
194.1780, 1210.264
195.4000, 1470.560
196.6220, 1609.179
197.8430, 1863.767
199.0640, 2194.075
200.2860, 2549.990
201.5070, 3182.627
202.7270, 3428.118
203.9480, 2856.809
205.1690, 2412.235
206.3890, 2071.918
207.6090, 2109.540
208.8290, 2424.650
210.0490, 2522.997
211.2690, 2861.456
212.4890, 3096.256
213.7080, 3482.492
214.9280, 3459.871
216.1470, 3538.102
217.3660, 3416.215
218.5850, 3573.861
219.8030, 3566.611
221.0220, 3585.272
222.2400, 3361.234
223.4590, 3346.193
224.6770, 3204.606
225.8950, 3043.694
227.1120, 2859.369
228.3300, 2600.691
229.5480, 2416.464
230.7650, 2169.477
231.9820, 1991.081
233.1990, 1784.893
234.4160, 1671.217
235.6330, 1420.069
236.8490, 1325.822
238.0660, 1179.829
239.2820, 977.9141
240.4980, 880.6504
241.7140, 835.7041
242.9300, 782.1323
244.1460, 765.9854
245.3610, 722.0146
246.5770, 687.0923
247.7920, 569.7344
249.0070, 484.9819
250.2220, 427.8901
251.4370, 418.7715
252.6510, 282.9370
253.8660, 300.9204
255.0800, 303.1592
256.2940, 290.4902
257.5080, 217.8335
258.7220, 222.9355
259.9360, 197.2480
261.1490, 171.0586
262.3630, 188.5728
263.5760, 127.5986
264.7890, 145.3320
266.0020, 132.9341
267.2150, 137.8818
268.4270, 106.9497
269.6400, 34.46973
270.8520, 47.41992
272.0640, 57.25537
273.2760, 58.40039
274.4880, 8.008301
275.7000, 72.03809
276.9120, 56.20947
278.1230, 82.27686
279.3340, 61.36328
280.5450, 8.067383
281.7560, 7.634277
282.9670, 17.34082
284.1780, 1.674316
285.3880, 46.60400
286.5980, 105.5264
287.8090, 186.2603
289.0190, 157.0361
290.2290, 83.68311
291.4380, 107.1943
292.6480, 167.7192
293.8570, 210.9570
295.0670, 158.8608
296.2760, 108.2441
297.4850, 52.76123
298.6930, 13.40869
299.9020, 38.70850
301.1110, 117.0264
302.3190, 104.4727
303.5270, 73.03516
304.7350, 261.7056
305.9430, 133.4229
307.1510, 256.1777
308.3580, 153.9751
309.5660, 161.8018
310.7730, 48.66797
311.9800, 67.63330
313.1870, 47.78857
314.3940, 18.85156
315.6010, 29.41846
316.8070, 87.24756
318.0130, 160.1807
319.2200, 215.4873
320.4260, 309.8589
321.6310, 364.6890
322.8370, 456.5259
324.0430, 530.7588
325.2480, 681.3877
326.4540, 700.8584
327.6590, 718.5322
328.8640, 789.3359
330.0680, 671.2197
331.2730, 670.1460
332.4780, 668.0859
333.6820, 618.0176
334.8860, 616.9238
336.0900, 491.7896
337.2940, 354.6025
338.4980, 389.3521
339.7010, 318.0303
340.9050, 215.6299
342.1080, 267.1436
343.3110, 125.5664
344.5140, 133.8926
345.7170, 189.1191
346.9200, 46.24414
348.1220, 117.2510
349.3240, 86.14062
350.5270, 119.9077
351.7290, 12.55713
352.9310, 49.08936
354.1320, 114.5078
355.3340, 29.19434
356.5350, 72.95459
357.7370, 156.9658
358.9380, 18.15186
360.1390, 58.59814
361.3400, 57.21729
362.5400, 137.7139
363.7410, 205.0869
364.9410, 276.3384
366.1410, 208.4683
367.3410, 147.4790
368.5410, 142.3701
369.7410, 120.7144
370.9400, 200.5254
372.1400, 113.8071
373.3390, 160.9800
374.5380, 120.0171
375.7370, 127.8828
376.9360, 157.6191
378.1350, 33.45557
379.3330, 9.369629
380.5310, 36.22559
381.7300, 47.98340
382.9280, 0.4545900
384.1260, 28.58545
385.3230, 26.26562
386.5210, 22.37354
387.7180, 61.46973
388.9160, 20.49707
390.1130, 58.51025
391.3100, 64.85596
392.5060, 85.62451
393.7030, 75.08154
394.9000, 67.85156
396.0960, 99.97607
397.2920, 6.284180
398.4880, 28.32520
399.6840, 90.07520
400.8800, 20.57031
402.0750, 48.48047
403.2710, 68.55762
404.4660, 168.4712
405.6610, 115.2261
406.8560, 155.0928
408.0510, 169.9355
409.2450, 283.9209
410.4400, 173.3262
411.6340, 166.7397
412.8280, 143.7954
414.0220, 36.00781
415.2160, 161.7627
416.4100, 162.7080
417.6030, 142.6475
418.7970, 246.8013
419.9900, 167.3936
421.1830, 87.34229
422.3760, 126.3516
423.5690, 149.0249
424.7610, 154.6016
425.9540, 100.0854
427.1460, 121.7012
428.3380, 113.2471
429.5300, 105.8013
430.7220, 142.6572
431.9140, 100.2192
433.1050, 136.7622
434.2970, 141.0464
435.4880, 160.0596
436.6790, 153.8643
437.8700, 122.6899
439.0610, 165.3076
440.2510, 203.5752
441.4420, 325.2163
442.6320, 302.9839
443.8220, 400.2446
445.0120, 329.6719
446.2020, 393.9697
447.3910, 377.3252
448.5810, 255.9248
449.7700, 320.6626
450.9600, 334.7827
452.1490, 277.4048
453.3370, 381.6235
454.5260, 425.0298
455.7150, 313.3354
456.9030, 379.9800
458.0910, 486.6919
459.2800, 392.6885
460.4670, 420.2905
461.6550, 446.2559
462.8430, 565.4824
464.0300, 631.8994
465.2180, 657.3301
466.4050, 766.7847
467.5920, 763.2261
468.7790, 913.6626
469.9650, 904.4189
471.1520, 894.8872
472.3380, 929.8818
473.5250, 834.2554
474.7110, 852.6123
475.8970, 857.9526
477.0820, 728.2749
478.2680, 768.5811
479.4540, 689.8760
480.6390, 658.1538
481.8240, 565.4160
483.0090, 487.6626
484.1940, 490.7861
485.3780, 519.0107
486.5630, 477.7275
487.7470, 569.4648
488.9320, 405.4194
490.1160, 456.6875
491.3000, 502.3169
492.4830, 541.8047
493.6670, 622.4458
494.8500, 636.4082
496.0340, 673.6807
497.2170, 751.2871
498.4000, 825.7500
499.5820, 968.5332
500.7650, 1061.304
501.9480, 1186.861
503.1300, 1362.217
504.3120, 1321.562
505.4940, 1627.245
506.6760, 1583.208
507.8580, 1606.299
509.0390, 1675.281
510.2210, 1683.011
511.4020, 1666.727
512.5830, 1613.952
513.7640, 1443.325
514.9450, 1393.938
516.1250, 1206.757
517.3060, 1000.413
518.4860, 995.1113
519.6660, 812.9492
520.8460, 806.0991
522.0260, 614.2700
523.2060, 595.7075
524.3850, 481.2100
525.5650, 413.3208
526.7440, 468.7920
527.9230, 358.2686
529.1020, 328.7393
530.2810, 210.4263
531.4590, 260.9746
532.6380, 147.7056
533.8160, 214.5146
534.9940, 213.4424
536.1720, 106.3677
537.3500, 87.52100
538.5270, 90.62500
539.7050, 86.37598
540.8820, 113.1113
542.0590, 106.3584
543.2360, 140.4736
544.4130, 82.54932
545.5900, 65.73779
546.7660, 5.657715
547.9430, 83.78418
549.1190, 62.42236
550.2950, 162.0835
551.4710, 131.7651
552.6470, 149.4873
553.8220, 154.2383
554.9980, 210.0205
556.1730, 253.4185
557.3480, 258.9741
558.5230, 274.1465
559.6980, 288.0894
560.8730, 320.0806
562.0470, 348.0942
563.2220, 360.1099
564.3960, 459.1895
565.5700, 493.2930
566.7440, 460.4526
567.9170, 577.6514
569.0910, 618.8882
570.2640, 580.1694
571.4380, 557.4751
572.6110, 591.8018
573.7840, 500.1460
574.9570, 623.5083
576.1290, 535.8916
577.3020, 632.2998
578.4740, 598.7305
579.6460, 560.1855
580.8180, 546.6567
581.9900, 577.5347
583.1620, 574.8984
584.3330, 636.2217
585.5040, 624.8154
586.6760, 572.4717
587.8470, 597.1855
589.0180, 736.9497
590.1880, 765.8130
591.3590, 985.7476
592.5290, 1055.782
593.7000, 1108.889
594.8700, 1295.066
596.0400, 1308.287
597.2090, 1538.552
598.3790, 1557.857
599.5490, 1906.185
600.7180, 2048.532
601.8870, 2206.897
603.0560, 2512.277
604.2250, 2718.673
605.3940, 2862.085
606.5620, 3214.138
607.7300, 3234.578
608.8990, 3695.077
610.0670, 3802.626
611.2350, 4023.108
612.4020, 3983.603
613.5700, 4090.941
614.7370, 4100.634
615.9050, 4167.168
617.0720, 3939.718
618.2390, 3971.280
619.4060, 3847.984
620.5720, 3866.575
621.7390, 3489.181
622.9050, 3241.799
624.0710, 3035.358
625.2370, 2788.901
626.4030, 2664.664
627.5690, 2424.338
628.7340, 2296.028
629.9000, 2145.776
631.0650, 1942.498
632.2300, 1944.298
633.3950, 1807.853
634.5600, 1612.466
635.7240, 1670.652
636.8890, 1280.645
638.0530, 1214.547
639.2170, 1220.200
640.3810, 1096.062
641.5450, 1062.355
642.7080, 1066.438
643.8720, 990.4512
645.0350, 1019.463
646.1980, 1108.472
647.3610, 945.5420
648.5240, 980.1035
649.6870, 848.1704
650.8490, 831.2231
652.0120, 900.2939
653.1740, 947.3931
654.3360, 862.4878
655.4980, 981.5542
656.6600, 928.6357
657.8210, 913.7222
658.9830, 894.7256
660.1440, 961.6416
661.3050, 1016.533
662.4660, 1006.577
663.6270, 1065.384
664.7870, 1066.674
665.9480, 1079.424
667.1080, 1245.619
668.2680, 1247.854
669.4280, 1307.656
670.5880, 1315.172
671.7480, 1428.441
672.9070, 1459.797
674.0670, 1675.674
675.2260, 1737.038
676.3850, 1822.624
677.5440, 1892.023
678.7030, 1976.491
679.8610, 2018.182
681.0200, 2146.285
682.1780, 2235.889
683.3360, 2313.221
684.4940, 2361.744
685.6520, 2357.809
686.8090, 2241.527
687.9670, 2234.912
689.1240, 2174.085
690.2810, 1968.692
691.4380, 1888.326
692.5950, 1798.876
693.7520, 1632.390
694.9080, 1506.798
696.0650, 1380.244
697.2210, 1212.470
698.3770, 1206.888
699.5330, 1131.539
700.6880, 1062.087
701.8440, 967.3936
702.9990, 828.5605
704.1550, 767.0586
705.3100, 672.0312
706.4650, 671.6069
707.6190, 568.0322
708.7740, 525.4404
709.9290, 493.9673
711.0830, 419.5879
712.2370, 402.0088
713.3910, 423.4961
714.5450, 338.9136
715.6980, 397.3579
716.8520, 235.7256
718.0050, 307.5347
719.1580, 251.9434
720.3110, 216.1387
721.4640, 299.5420
722.6170, 266.9424
723.7700, 176.3389
724.9220, 201.7324
726.0740, 161.1211
727.2260, 199.7979
728.3780, 217.3062
729.5300, 226.8828
730.6810, 143.4722
731.8330, 178.1660
732.9840, 123.6450
734.1350, 198.4507
735.2860, 74.79297
736.4370, 77.12744
737.5880, 115.4546
738.7380, 82.77344
739.8880, 14.08447
741.0390, 59.38721
742.1890, 47.68115
743.3380, 81.77393
744.4880, 67.95020
745.6380, 43.35449
746.7870, 35.41162
747.9360, 5.154297
749.0850, 57.24805
750.2340, 41.44287
751.3830, 132.7964
752.5310, 170.9722
753.6800, 31.13672
754.8280, 9.292969
755.9760, 75.43750
757.1240, 31.42773
758.2720, 69.33105
759.4190, 101.4331
760.5670, 101.5244
761.7140, 43.39453
762.8610, 39.65723
764.0080, 50.69727
765.1550, 60.72656
766.3020, 85.74463
767.4480, 3.750488
768.5950, 51.74414
769.7410, 2.725098
770.8870, 86.30615
772.0330, 15.60596
773.1780, 67.50586
774.3240, 54.60645
775.4690, 5.239746
776.6140, 13.92773
777.7590, 30.88428
778.9040, 9.316895
780.0490, 77.46191
781.1940, 16.22754
782.3380, 14.97900
783.4820, 20.71582
784.6260, 10.43848
785.7700, 4.854004
786.9140, 19.83398
788.0580, 11.49316
789.2010, 28.15479
790.3450, 26.19775
791.4880, 31.40527
792.6310, 43.00830
793.7730, 43.59668
794.9160, 47.16992
796.0590, 4.271973
797.2010, 65.73779
798.3430, 64.26123
799.4850, 97.70117
800.6270, 2.503906
801.7690, 52.17334
802.9100, 10.90234
804.0520, 156.3384
805.1930, 53.56348
806.3340, 57.22754
807.4750, 20.07471
808.6160, 57.04199
809.7560, 79.85840
810.8970, 7.827637
812.0370, 46.82861
813.1770, 17.88086
814.3170, 29.97070
815.4570, 22.77197
816.5960, 25.27930
817.7360, 23.49609
818.8750, 23.89551
820.0140, 26.04150
821.1530, 34.64600
822.2920, 143.3066
823.4310, 54.94971
824.5690, 79.75537
825.7070, 12.18311
826.8460, 30.76660
827.9840, 59.66992
829.1220, 10.16846
830.2590, 9.242676
831.3970, 112.7231
832.5340, 69.13281
833.6710, 14.52441
834.8080, 94.89160
835.9450, 25.75928
837.0820, 48.54346
838.2190, 46.17236
839.3550, 59.05469
840.4910, 62.26270
841.6270, 61.54688
842.7630, 9.577148
843.8990, 133.6729
845.0350, 4.248535
846.1700, 55.79346
847.3060, 39.81689
848.4410, 87.82080
849.5760, 64.80615
850.7100, 103.7739
851.8450, 13.72314
852.9800, 15.64551
854.1140, 6.541504
855.2480, 154.4062
856.3820, 20.25293
857.5160, 189.0747
858.6500, 82.87793
859.7830, 114.6641
860.9170, 183.4321
862.0500, 104.4971
863.1830, 37.91650
864.3160, 50.62939
865.4480, 11.32373
866.5810, 10.98877
867.7130, 36.62549
868.8460, 51.24170
869.9780, 31.83887
871.1100, 173.4146
872.2410, 252.9727
873.3730, 245.4644
874.5050, 237.1323
875.6360, 252.5439
876.7670, 95.03320
877.8980, 81.50488
879.0290, 20.95996
880.1590, 113.3906
881.2900, 61.17773
882.4200, 123.5747
883.5500, 63.90918
884.6800, 39.20264
885.8100, 167.5586
886.9400, 40.89893
888.0690, 125.2212
889.1990, 164.5269
890.3280, 98.81543
891.4570, 160.0889
892.5860, 126.3452
893.7140, 20.45752
894.8430, 98.67627
895.9710, 72.87891
897.1000, 202.0664
898.2280, 296.3110
899.3560, 270.4673
900.4830, 181.6074
901.6110, 288.7319
902.7380, 212.8413
903.8660, 172.8911
904.9930, 266.9727
906.1200, 209.9771
907.2460, 107.0029
908.3730, 288.0249
909.5000, 278.0591
910.6260, 192.9023
911.7520, 307.8359
912.8780, 258.0327
914.0040, 302.0225
915.1290, 198.3682
916.2550, 271.3296
917.3800, 199.2090
918.5050, 178.0625
919.6300, 167.9199
920.7550, 226.7163
921.8800, 277.0200
923.0040, 257.8169
924.1290, 278.6294
925.2530, 364.4297
926.3770, 404.2036
927.5010, 351.9858
928.6250, 528.7974
929.7480, 237.5938
930.8720, 373.3867
931.9950, 388.2700
933.1180, 485.2402
934.2410, 416.2495
935.3640, 435.1196
936.4860, 461.2295
937.6090, 519.8584
938.7310, 553.0391
939.8530, 696.7778
940.9750, 596.4785
942.0970, 528.6138
943.2180, 580.0371
944.3400, 682.7104
945.4610, 626.2969
946.5820, 719.3638
947.7030, 709.9443
948.8240, 820.3032
949.9450, 816.8745
951.0650, 850.8623
952.1860, 841.6587
953.3060, 862.5342
954.4260, 1005.910
955.5460, 926.5620
956.6650, 986.0244
957.7850, 962.3521
958.9040, 1084.163
960.0230, 911.7607
961.1420, 902.5674
962.2610, 942.9399
963.3800, 1026.283
964.4990, 914.7090
965.6170, 873.1680
966.7350, 847.7314
967.8530, 827.2559
968.9710, 811.9980
970.0890, 766.5469
971.2070, 728.8599
972.3240, 770.2734
973.4410, 767.2661
974.5580, 664.7134
975.6750, 677.1685
976.7920, 710.1455
977.9090, 635.8511
979.0250, 607.7700
980.1410, 601.5703
981.2580, 464.9819
982.3740, 525.2979
983.4890, 460.8096
984.6050, 380.2505
985.7200, 353.7573
986.8360, 338.2344
987.9510, 413.7852
989.0660, 344.8887
990.1810, 401.3960
991.2950, 467.1118
992.4100, 369.6162
993.5240, 493.1196
994.6390, 365.6543
995.7530, 454.1885
996.8660, 399.7275
997.9800, 371.9746
999.0940, 428.3857
1000.207, 408.7217
1001.320, 456.0400
1002.433, 354.2476
1003.546, 421.6631
1004.659, 411.7461
1005.772, 458.2856
1006.884, 461.8262
1007.996, 364.3672
1009.108, 307.9092
1010.220, 415.4526
1011.332, 262.9966
1012.444, 255.5420
1013.555, 288.2812
1014.666, 242.8301
1015.777, 269.4653
1016.888, 374.0293
1017.999, 292.2881
1019.110, 392.6636
1020.220, 373.2393
1021.331, 315.6484
1022.441, 381.2329
1023.551, 340.8193
1024.661, 244.4087
1025.770, 355.0005
1026.880, 323.5947
1027.989, 184.5522
1029.098, 289.1582
1030.207, 314.9014
1031.316, 266.4180
1032.425, 291.2554
1033.533, 298.7651
1034.642, 227.3965
1035.750, 265.4360
1036.858, 253.6641
1037.966, 282.9995
1039.073, 287.6465
1040.181, 302.2974
1041.288, 349.4414
1042.396, 340.1113
1043.503, 330.8643
1044.610, 373.5679
1045.716, 357.2769
1046.823, 364.2461
1047.929, 353.7158
1049.036, 345.4448
1050.142, 367.1792
1051.248, 323.9185
1052.353, 410.6621
1053.459, 358.5503
1054.564, 352.3057
1055.670, 308.0688
1056.775, 378.8379
1057.880, 406.1304
1058.985, 338.9155
1060.089, 453.7271
1061.194, 507.5234
1062.298, 480.4155
1063.402, 462.2783
1064.506, 410.6289
1065.610, 397.4531
1066.713, 237.3032
1067.817, 387.7803
1068.920, 361.6929
1070.023, 450.6147
1071.126, 358.4614
1072.229, 453.4204
1073.332, 545.3857
1074.435, 409.3569
1075.537, 417.3550
1076.639, 471.3691
1077.741, 344.3896
1078.843, 301.4434
1079.945, 245.5112
1081.046, 266.6035
1082.148, 441.2505
1083.249, 341.3804
1084.350, 316.5298
1085.451, 437.6978
1086.551, 346.8857
1087.652, 396.0825
1088.752, 392.2993
1089.853, 298.5239
1090.953, 316.7563
1092.053, 292.9966
1093.152, 278.2437
1094.252, 357.5024
1095.351, 389.7695
1096.451, 325.0669
1097.550, 302.3813
1098.649, 251.7139
1099.748, 250.7798
1100.846, 287.4019
1101.945, 267.7612
1103.043, 296.1294
1104.141, 319.5195
1105.239, 219.9180
1106.337, 236.3442
1107.434, 215.7788
1108.532, 253.2222
1109.629, 144.6978
1110.726, 159.2241
1111.823, 268.1523
1112.920, 218.6675
1114.017, 314.1914
1115.113, 252.7246
1116.210, 458.2656
1117.306, 406.8164
1118.402, 570.3755
1119.498, 747.9478
1120.593, 774.5337
1121.689, 789.4702
1122.784, 783.0791
1123.879, 836.7012
1124.974, 704.3315
1126.069, 646.4507
1127.164, 417.0986
1128.259, 426.9390
1129.353, 354.6030
1130.447, 230.2769
1131.541, 153.9600
1132.635, 130.6567
1133.729, 7.367188
1134.822, 117.0884
1135.916, 35.81836
1137.009, 178.5596
1138.102, 210.3086
1139.195, 187.0664
1140.288, 265.8325
1141.380, 102.6069
1142.473, 82.39062
1143.565, 19.18262
1144.657, 50.98291
1145.749, 115.7949
1146.841, 7.383301
1147.932, 95.44531
1149.024, 64.71826
1150.115, 178.1035
1151.206, 100.9351
1152.297, 46.77490
1153.388, 133.4619
1154.479, 105.3198
1155.569, 31.18604
1156.659, 115.0605
1157.750, 73.94434
1158.839, 5.835449
1159.929, 33.73877
1161.019, 6.349121
1162.108, 11.56885
1163.198, 29.49561
1164.287, 120.4312
1165.376, 70.37451
1166.465, 87.32715
1167.553, 11.28760
1168.642, 20.74316
1169.730, 22.22705
1170.818, 76.20605
1171.906, 36.80664
1172.994, 26.82471
1174.082, 66.84375
1175.170, 72.11865
1176.257, 21.08936
1177.344, 20.06787
1178.431, 96.05420
1179.518, 108.0488
1180.605, 142.0518
1181.691, 45.06299
1182.778, 136.0820
1183.864, 4.889648
1184.950, 42.14355
1186.036, 26.18555
1187.122, 23.23486
1188.207, 35.70801
1189.292, 18.34326
1190.378, 25.59814
1191.463, 64.45947
1192.548, 28.52441
1193.632, 51.59717
1194.717, 38.32275
1195.801, 46.75000
1196.886, 10.83057
1197.970, 55.08154
1199.054, 96.99072
1200.137, 127.0703
1201.221, 41.84326
1202.305, 67.23340
1203.388, 56.31738
1204.471, 134.4087
1205.554, 143.5146
1206.637, 120.7061
1207.719, 117.7515
1208.802, 59.88184
1209.884, 66.01953
1210.966, 43.18115
1212.048, 33.64844
1213.130, 76.54688
1214.212, 23.74951
1215.293, 143.9644
1216.374, 134.1870
1217.456, 97.41650
1218.536, 270.6514
1219.617, 184.8931
1220.698, 64.14111
1221.778, 69.39502
1222.859, 120.8086
1223.939, 157.2109
1225.019, 177.7148
1226.099, 183.1792
1227.178, 128.5303
1228.258, 151.5308
1229.337, 143.4243
1230.417, 134.0503
1231.496, 167.9941
1232.574, 122.1279
1233.653, 155.3955
1234.732, 118.0171
1235.810, 203.3623
1236.888, 78.71338
1237.966, 49.06885
1239.044, 111.4307
1240.122, 1.797852
1241.199, 7.825195
1242.277, 183.5610
1243.354, 36.95312
1244.431, 163.3589
1245.508, 122.7686
1246.585, 236.1885
1247.661, 237.6133
1248.738, 150.0435
1249.814, 58.47900
1250.890, 25.08154
1251.966, 117.3521
1253.042, 24.79492
1254.117, 49.24268
1255.193, 126.3042
1256.268, 11.09375
1257.343, 21.50146
1258.418, 115.8975
1259.493, 167.3008
1260.567, 143.7095
1261.642, 66.12207
1262.716, 117.5181
1263.790, 47.96094
1264.864, 79.38574
1265.938, 98.81641
1267.011, 71.77393
1268.085, 29.68701
1269.158, 68.12842
1270.231, 83.57324
1271.304, 98.02197
1272.377, 129.0854
1273.450, 107.9375
1274.522, 147.4019
1275.594, 91.86865
1276.666, 26.20605
1277.738, 105.6792
1278.810, 64.42627
1279.882, 66.90576
1280.953, 66.38916
1282.025, 14.12451
1283.096, 113.3628
1284.167, 96.85205
1285.238, 232.3438
1286.308, 171.8379
1287.379, 104.3345
1288.449, 106.8330
1289.519, 48.33350
1290.589, 92.70020
1291.659, 93.20410
1292.729, 108.7085
1293.798, 126.2148
1294.868, 164.7236
1295.937, 164.9546
1297.006, 189.7451
1298.075, 147.5698
1299.143, 135.0825
1300.212, 61.59668
1301.280, 239.6440
1302.348, 183.1709
1303.416, 144.6187
1304.484, 78.13379
1305.552, 83.64990
1306.620, 109.1655
1307.687, 106.6572
1308.754, 94.51221
1309.821, 212.7681
1310.888, 72.48193
1311.955, 218.9951
1313.021, 262.3711
1314.088, 272.8848
1315.154, 206.3975
1316.220, 174.9092
1317.286, 205.9062
1318.352, 301.4141
1319.417, 253.8994
1320.483, 114.4038
1321.548, 348.9585
1322.613, 146.4634
1323.678, 257.2900
1324.743, 211.8018
1325.807, 241.3174
1326.872, 271.2373
1327.936, 244.9424
1329.000, 262.7363
1330.064, 225.9170
1331.128, 239.4507
1332.191, 227.0415
1333.255, 192.3486
1334.318, 301.9858
1335.381, 190.3086
1336.444, 125.8574
1337.507, 285.4102
1338.569, 203.1440
1339.632, 378.2119
1340.694, 279.9297
1341.756, 220.5850
1342.818, 233.4458
1343.880, 211.3726
1344.941, 235.1001
1346.003, 224.6724
1347.064, 277.2471
1348.125, 214.8242
1349.186, 178.4033
1350.247, 111.9844
1351.308, 231.5674
1352.368, 204.1519
1353.428, 314.0166
1354.489, 322.3130
1355.549, 241.4375
1356.608, 221.0508
1357.668, 257.8032
1358.727, 286.4009
1359.787, 222.0649
1360.846, 305.6665
1361.905, 298.2700
1362.964, 246.9351
1364.022, 261.5425
1365.081, 328.1514
1366.139, 342.8784
1367.197, 267.4912
1368.255, 371.4194
1369.313, 281.7441
1370.371, 200.4277
1371.428, 341.9492
1372.486, 355.5850
1373.543, 347.6948
1374.600, 361.0122
1375.657, 337.7539
1376.713, 296.3838
1377.770, 270.0151
1378.826, 325.5962
1379.882, 394.3999
1380.938, 335.1421
1381.994, 344.8418
1383.050, 230.9878
1384.106, 175.3037
1385.161, 265.7666
1386.216, 256.5664
1387.271, 238.2202
1388.326, 211.8774
1389.381, 345.5376
1390.435, 322.2007
1391.490, 286.8491
1392.544, 177.4922
1393.598, 329.0967
1394.652, 225.6211
1395.705, 206.1729
1396.759, 310.7319
1397.812, 213.3843
1398.866, 277.7441
1399.919, 208.4282
1400.972, 116.2573
1402.024, 67.71680
1403.077, 120.2114
1404.129, 228.6650
1405.181, 315.1157
1406.233, 292.5752
1407.285, 267.2642
1408.337, 138.8330
1409.389, 145.7183
1410.440, 105.0996
1411.491, 104.4399
1412.542, 143.7925
1413.593, 163.1108
1414.644, 128.5000
1415.695, 115.7607
1416.745, 188.9976
1417.795, 223.2183
1418.845, 95.42480
1419.895, 136.6143
1420.945, 182.9170
1421.995, 241.2925
1423.044, 159.4370
1424.093, 71.54053
1425.142, 109.6226
1426.191, 74.76074
1427.240, 76.80615
1428.289, 103.8276
1429.337, 98.82275
1430.385, 88.76660
1431.433, 105.7285
1432.481, 131.6401
1433.529, 83.53027
1434.577, 209.3911
1435.624, 41.21777
1436.672, 19.01855
1437.719, 60.73145
1438.766, 95.97168
1439.812, 114.8115
1440.859, 118.5786
1441.905, 62.20068
1442.952, 83.43408
1443.998, 73.52930
1445.044, 62.24854
1446.090, 94.21338
1447.135, 46.29980
1448.181, 78.93213
1449.226, 79.99805
1450.271, 95.53516
1451.316, 79.78467
1452.361, 73.72412
1453.405, 98.97119
1454.450, 106.8716
1455.494, 87.52441
1456.538, 103.9673
1457.582, 56.34326
1458.626, 14.09082
1459.670, 48.66797
1460.713, 2.427734
1461.757, 75.18896
1462.800, 73.95117
1463.843, 51.29150
1464.886, 13.43750
1465.928, 106.8340
1466.971, 55.89307
1468.013, 4.379395
1469.055, 15.34766
1470.097, 203.0732
1471.139, 85.77637
1472.181, 105.4595
1473.222, 138.1245
1474.263, 140.7803
1475.305, 109.4331
1476.346, 101.6323
1477.386, 108.7368
1478.427, 37.45117
1479.468, 12.17432
1480.508, 21.10449
1481.548, 86.61523
1482.588, 55.33301
1483.628, 172.0518
1484.668, 78.77051
1485.707, 100.4839
1486.747, 109.1899
1487.786, 83.07275
1488.825, 133.6069
1489.864, 103.3184
1490.902, 72.77832
1491.941, 117.7402
1492.979, 1.458984
1494.017, 10.81592
1495.055, 88.91797
1496.093, 6.336426
1497.131, 103.4175
1498.168, 7.185059
1499.206, 195.9673
1500.243, 82.76660
1501.280, 117.5859
1502.317, 134.4282
1503.354, 59.29541
1504.390, 10.71484
1505.426, 90.62988
1506.463, 102.5747
1507.499, 18.55566
1508.535, 33.57861
1509.570, 172.5425
1510.606, 86.62695
1511.641, 210.7139
1512.676, 178.8047
1513.711, 236.8970
1514.746, 195.8760
1515.781, 167.8203
1516.816, 188.0845
1517.850, 144.2832
1518.884, 126.1509
1519.918, 91.85303
1520.952, 88.91211
1521.986, 67.19336
1523.019, 10.45166
1524.053, 61.68457
1525.086, 44.48096
1526.119, 204.4053
1527.152, 89.82471
1528.185, 133.4956
1529.217, 208.2974
1530.250, 148.8652
1531.282, 52.19092
1532.314, 65.49854
1533.346, 4.298340
1534.377, 75.39062
1535.409, 92.15479
1536.440, 79.34131
1537.472, 178.7344
1538.503, 56.14258
1539.534, 127.9458
1540.564, 191.7646
1541.595, 156.3223
1542.625, 240.1855
1543.656, 88.80127
1544.686, 37.40918
1545.716, 25.43896
1546.745, 65.37158
1547.775, 84.59766
1548.804, 92.10547
1549.834, 40.92236
1550.863, 67.20947
1551.892, 59.71680
1552.920, 44.32764
1553.949, 80.79150
1554.977, 36.62549
1556.006, 72.47412
1557.034, 76.57129
1558.062, 93.62061
1559.089, 77.85059
1560.117, 73.98438
1561.144, 100.1685
1562.172, 4.197754
1563.199, 40.95752
1564.226, 139.3130
1565.252, 58.87305
1566.279, 94.82812
1567.305, 3.093750
1568.332, 60.64111
1569.358, 104.3711
1570.384, 0.0000000E+00
##END=



