##NAMES=Brazilianite
##RRUFFID=R050126
##IDEAL CHEMISTRY=NaAl_3_(PO_4_)_2_(OH)_4_
##LOCALITY=Linopolis, Minas Gerais, Brazil
##OWNER=RRUFF
##SOURCE=Carlos and Paulo Vasconcelos
##DESCRIPTION=Pair of greenish yellow elongated crystals
##STATUS=The identification of this mineral has been confirmed by X-ray diffraction and chemical analysis
##URL=rruff.info/R050126
##MEASURED CHEMISTRY=Na_1.00_Al_3.00_(P_1.00_O_4_)_2_((OH)_3.80_F_0.20_)_Î£=4_
##PIN_ID=L00364
##ORIENTATION=Laser parallel to (1 0 1). Fiducial mark perpendicular to laser is parallel to b [0 1 0]
134.381, 0.000
135.776, 66.412
137.170, 176.919
138.564, 39.775
139.958, 237.964
141.351, 231.279
142.745, 589.297
144.138, 913.398
145.530, 1418.560
146.923, 1990.180
148.315, 2389.104
149.707, 2437.599
151.099, 2507.403
152.490, 2200.480
153.881, 1655.344
155.272, 1247.463
156.663, 1051.380
158.054, 1024.711
159.444, 1173.137
160.834, 1311.729
162.224, 2169.206
163.613, 3358.430
165.002, 4815.884
166.391, 6868.151
167.780, 8061.899
169.169, 8846.878
170.557, 8102.868
171.945, 7529.709
173.333, 6977.258
174.720, 5975.847
176.108, 5654.061
177.495, 3961.142
178.881, 2878.580
180.268, 1794.331
181.654, 1228.360
183.040, 785.640
184.426, 513.148
185.812, 541.949
187.197, 347.914
188.582, 582.472
189.967, 500.390
191.351, 676.755
192.736, 831.186
194.120, 862.762
195.504, 1116.556
196.887, 1245.631
198.271, 1561.046
199.654, 1535.855
201.036, 1598.106
202.419, 1487.846
203.801, 1196.110
205.184, 1179.933
206.565, 735.346
207.947, 940.376
209.328, 867.053
210.710, 1064.398
212.090, 1130.437
213.471, 1030.191
214.851, 1408.681
216.232, 1085.925
217.611, 1544.927
218.991, 1847.669
220.370, 2280.155
221.750, 2635.475
223.129, 2603.664
224.507, 2697.752
225.886, 2055.762
227.264, 1866.710
228.642, 1576.613
230.019, 1660.483
231.397, 1910.330
232.774, 2004.160
234.151, 2404.981
235.528, 2189.052
236.904, 2457.986
238.281, 2292.320
239.656, 2394.516
241.032, 2652.724
242.408, 2821.687
243.783, 3222.494
245.158, 3358.498
246.533, 3357.260
247.907, 3018.323
249.282, 2362.537
250.656, 1771.894
252.029, 1231.389
253.403, 1182.019
254.776, 1041.778
256.149, 1005.665
257.522, 924.676
258.895, 580.808
260.267, 527.062
261.639, 239.435
263.011, 452.928
264.382, 376.540
265.754, 469.270
267.125, 729.115
268.496, 657.072
269.866, 963.119
271.237, 840.236
272.607, 985.407
273.977, 1237.631
275.346, 1338.911
276.716, 2142.246
278.085, 2693.640
279.454, 3786.093
280.823, 4146.606
282.191, 4177.183
283.559, 3661.820
284.927, 2618.522
286.295, 2116.288
287.662, 1326.119
289.030, 1252.015
290.397, 842.978
291.763, 886.007
293.130, 1006.104
294.496, 924.269
295.862, 1388.502
297.228, 1311.804
298.594, 1676.176
299.959, 1724.820
301.324, 1654.714
302.689, 1746.640
304.053, 1414.007
305.418, 1518.204
306.782, 1353.896
308.146, 1418.021
309.509, 1447.523
310.873, 1307.362
312.236, 1625.500
313.599, 1568.909
314.961, 2186.562
316.324, 2560.435
317.686, 2796.508
319.048, 3067.763
320.409, 2698.183
321.771, 2732.756
323.132, 2356.474
324.493, 2212.321
325.854, 2000.292
327.214, 1589.372
328.574, 1342.547
329.934, 732.809
331.294, 634.149
332.654, 170.559
334.013, 89.966
335.372, 99.464
336.731, 534.942
338.089, 416.515
339.448, 611.152
340.806, 577.910
342.164, 581.780
343.521, 654.766
344.879, 528.888
346.236, 696.115
347.593, 453.491
348.949, 567.954
350.306, 369.546
351.662, 226.240
353.018, 285.026
354.373, 54.072
355.729, 40.134
357.084, 248.163
358.439, 530.170
359.794, 494.158
361.148, 845.131
362.503, 522.092
363.857, 650.043
365.210, 435.989
366.564, 356.930
367.917, 519.869
369.270, 501.808
370.623, 854.750
371.976, 859.697
373.328, 1195.650
374.680, 1305.611
376.032, 1205.604
377.384, 1371.605
378.735, 1178.657
380.086, 1362.730
381.437, 1217.849
382.788, 1131.048
384.138, 1130.284
385.488, 763.626
386.838, 886.998
388.188, 648.437
389.538, 682.932
390.887, 710.457
392.236, 583.062
393.585, 886.695
394.933, 718.375
396.282, 1072.119
397.630, 1305.892
398.977, 1427.610
400.325, 1851.930
401.672, 1782.764
403.020, 2453.124
404.366, 2308.010
405.713, 2433.528
407.059, 2735.840
408.406, 2556.081
409.752, 2731.388
411.097, 2289.757
412.443, 2413.229
413.788, 2020.762
415.133, 1826.355
416.478, 1777.045
417.822, 1262.796
419.167, 1251.625
420.511, 907.515
421.854, 776.464
423.198, 729.478
424.541, 459.550
425.884, 632.684
427.227, 350.876
428.570, 443.126
429.912, 354.435
431.254, 369.800
432.596, 476.223
433.938, 466.703
435.280, 807.241
436.621, 782.835
437.962, 956.488
439.303, 1333.199
440.643, 1249.966
441.983, 1748.791
443.323, 1636.673
444.663, 1761.612
446.003, 1611.608
447.342, 1226.661
448.681, 1388.771
450.020, 1062.936
451.359, 1159.159
452.697, 1315.438
454.035, 1299.772
455.373, 1942.163
456.711, 1803.610
458.048, 2311.112
459.386, 2313.669
460.723, 2482.281
462.059, 2847.957
463.396, 2604.693
464.732, 2954.489
466.068, 2698.354
467.404, 2705.273
468.740, 2594.245
470.075, 2135.270
471.410, 2208.342
472.745, 1813.462
474.080, 2002.629
475.414, 2151.842
476.748, 2367.097
478.082, 3076.397
479.416, 3427.739
480.749, 4415.123
482.083, 5001.548
483.416, 5618.014
484.749, 6444.520
486.081, 6731.064
487.413, 7487.649
488.745, 7874.272
490.077, 9210.934
491.409, 9427.631
492.740, 9514.368
494.072, 11061.144
495.402, 11421.086
496.733, 13050.499
498.064, 14233.948
499.394, 14974.814
500.724, 17193.451
502.054, 17704.172
503.383, 19384.652
504.712, 19750.553
506.041, 20134.365
507.370, 20987.703
508.699, 20516.295
510.027, 21487.729
511.355, 21061.535
512.683, 21513.771
514.011, 22302.605
515.338, 21029.896
516.666, 21506.861
517.993, 20334.455
519.319, 19702.100
520.646, 18929.799
521.972, 17327.553
523.298, 17015.357
524.624, 16003.218
525.950, 16151.134
527.275, 15919.103
528.600, 15577.130
529.925, 17025.211
531.250, 16443.465
532.574, 17461.656
533.898, 17589.896
535.222, 17662.443
536.546, 17740.791
537.869, 16527.172
539.193, 16446.967
540.516, 15121.983
541.839, 13774.965
543.161, 13207.512
544.484, 11335.928
545.806, 11236.474
547.128, 10265.572
548.449, 10021.870
549.771, 10262.227
551.092, 9804.562
552.413, 11474.269
553.734, 11588.229
555.054, 13286.576
556.374, 15306.546
557.694, 17203.936
559.014, 20493.295
560.334, 21352.732
561.653, 22526.170
562.972, 22615.793
564.291, 20938.082
565.610, 21057.908
566.928, 19347.848
568.247, 19240.609
569.565, 18410.719
570.882, 17340.566
572.200, 16890.877
573.517, 15061.273
574.834, 13679.904
576.151, 12580.481
577.468, 11095.213
578.784, 10526.009
580.100, 9376.864
581.416, 9048.837
582.732, 8539.874
584.047, 8311.299
585.362, 8642.529
586.677, 8253.812
587.992, 8875.201
589.307, 8926.642
590.621, 9578.153
591.935, 10379.772
593.249, 10701.439
594.563, 12453.192
595.876, 13534.997
597.189, 16126.848
598.502, 19908.760
599.815, 22960.717
601.127, 27752.727
602.440, 30324.787
603.752, 32456.895
605.064, 33059.043
606.375, 28881.238
607.686, 26493.480
608.998, 22285.766
610.308, 19458.092
611.619, 17400.465
612.930, 15512.877
614.240, 15375.335
615.550, 14207.835
616.860, 14430.377
618.169, 14262.961
619.478, 13115.586
620.787, 12808.249
622.096, 11050.955
623.405, 10643.702
624.713, 8896.486
626.021, 7989.309
627.329, 7802.171
628.637, 6585.074
629.945, 6808.011
631.252, 6490.987
632.559, 6274.002
633.866, 6857.053
635.172, 6530.141
636.479, 6903.263
637.785, 6746.423
639.091, 6479.618
640.396, 6392.849
641.702, 5336.114
643.007, 5059.413
644.312, 4472.746
645.617, 3706.114
646.921, 3799.516
648.226, 3238.951
649.530, 3339.418
650.834, 3077.919
652.137, 3046.452
653.441, 3272.051
654.744, 2928.719
656.047, 3301.565
657.350, 3207.559
658.652, 3428.751
659.954, 3647.132
661.256, 3441.704
662.558, 3686.484
663.860, 3561.441
665.161, 3047.617
666.462, 3145.949
667.763, 2454.466
669.064, 2378.117
670.365, 1854.864
671.665, 1575.723
672.965, 1613.611
674.265, 1054.534
675.564, 1202.482
676.864, 845.456
678.163, 820.454
679.462, 813.477
680.760, 392.523
682.059, 533.593
683.357, 399.686
684.655, 195.801
685.953, 382.938
687.250, 0.098
688.548, 187.274
689.845, 24.472
691.142, 117.312
692.438, 94.882
693.735, 185.904
695.031, 45.747
696.327, 155.588
697.623, 294.474
698.918, 102.471
700.214, 381.380
701.509, 53.558
702.804, 217.421
704.098, 164.133
705.393, 42.451
706.687, 263.428
707.981, 18.856
709.275, 109.898
710.568, 187.096
711.861, 19.629
713.155, 159.410
714.447, 63.143
715.740, 32.740
717.032, 71.141
718.325, 65.460
719.617, 38.820
720.908, 90.443
722.200, 19.844
723.491, 29.909
724.782, 227.950
726.073, 141.430
727.364, 210.729
728.654, 54.657
729.944, 103.103
731.234, 206.262
732.524, 25.596
733.814, 165.396
735.103, 171.263
736.392, 45.270
737.681, 391.127
738.969, 75.959
740.258, 320.727
741.546, 428.823
742.834, 234.303
744.122, 599.736
745.409, 368.466
746.697, 683.403
747.984, 752.451
749.270, 655.413
750.557, 947.067
751.844, 778.077
753.130, 1057.564
754.416, 1118.547
755.701, 1109.995
756.987, 1512.332
758.272, 1304.270
759.557, 1603.539
760.842, 1807.446
762.127, 1571.337
763.411, 2116.213
764.695, 1955.070
765.979, 2168.912
767.263, 2265.736
768.547, 2069.543
769.830, 2510.332
771.113, 2131.104
772.396, 2151.857
773.679, 2197.591
774.961, 1900.307
776.243, 2108.004
777.525, 1811.682
778.807, 1678.340
780.089, 1814.979
781.370, 1468.598
782.651, 1667.196
783.932, 1461.774
785.213, 1385.333
786.493, 1639.870
787.773, 1389.387
789.053, 1773.882
790.333, 1636.356
791.613, 1779.809
792.892, 2030.239
794.171, 1879.648
795.450, 2408.035
796.729, 2436.399
798.007, 2428.742
799.285, 2871.061
800.563, 2765.357
801.841, 3118.631
803.119, 2977.882
804.396, 3007.109
805.673, 3260.313
806.950, 3052.494
808.227, 3086.651
809.504, 2990.785
810.780, 2828.893
812.056, 2884.976
813.332, 2503.032
814.607, 2589.062
815.883, 2418.063
817.158, 2171.035
818.433, 2233.979
819.708, 1960.891
820.982, 1906.772
822.256, 1902.621
823.531, 1385.437
824.804, 1659.220
826.078, 1321.970
827.352, 1281.687
828.625, 1465.368
829.898, 1057.016
831.170, 1328.630
832.443, 1129.210
833.715, 995.755
834.988, 1075.267
836.259, 742.743
837.531, 973.185
838.803, 788.593
840.074, 669.967
841.345, 790.181
842.616, 387.485
843.886, 694.754
845.157, 565.742
846.427, 274.942
847.697, 646.130
848.966, 345.928
850.236, 320.522
851.505, 423.170
852.774, 75.271
854.043, 334.512
855.312, 166.636
856.580, 139.228
857.849, 268.638
859.117, 11.995
860.384, 204.383
861.652, 29.407
862.919, 28.182
864.186, 215.570
865.453, 178.646
866.720, 70.668
867.986, 46.974
869.253, 198.711
870.519, 64.502
871.784, 195.449
873.050, 0.886
874.315, 65.303
875.581, 206.615
876.846, 92.204
878.110, 215.292
879.375, 7.572
880.639, 36.311
881.903, 217.130
883.167, 100.771
884.431, 190.249
885.694, 111.458
886.957, 18.251
888.220, 193.084
889.483, 15.429
890.746, 97.107
892.008, 145.040
893.270, 132.192
894.532, 158.599
895.794, 65.476
897.056, 37.476
898.317, 169.498
899.578, 132.344
900.839, 92.836
902.099, 39.888
903.360, 108.582
904.620, 9.745
905.880, 184.878
907.140, 41.480
908.399, 46.055
909.659, 105.604
910.918, 45.133
912.177, 266.637
913.435, 127.120
914.694, 288.586
915.952, 398.032
917.210, 163.459
918.468, 530.868
919.726, 321.258
920.983, 306.631
922.240, 612.985
923.497, 434.321
924.754, 617.639
926.011, 653.938
927.267, 584.221
928.523, 903.511
929.779, 862.784
931.035, 910.059
932.290, 1236.317
933.546, 1000.560
934.801, 1411.807
936.056, 1401.038
937.310, 1558.253
938.565, 1827.469
939.819, 1622.670
941.073, 2142.855
942.327, 2238.027
943.580, 2385.184
944.833, 2846.342
946.087, 2681.486
947.340, 3216.616
948.592, 3355.770
949.845, 3451.911
951.097, 3873.051
952.349, 3728.194
953.601, 3897.325
954.853, 4275.488
956.104, 3902.638
957.355, 4383.775
958.606, 4174.935
959.857, 4181.085
961.108, 4730.233
962.358, 4539.382
963.608, 4998.519
964.858, 5377.676
966.108, 5386.825
967.357, 6275.961
968.607, 6275.124
969.856, 6994.276
971.105, 7953.425
972.353, 8112.592
973.602, 9721.753
974.850, 10060.916
976.098, 11080.074
977.346, 12539.222
978.594, 12818.376
979.841, 14657.522
981.088, 16136.670
982.335, 17595.830
983.582, 20824.986
984.828, 22664.164
986.075, 25993.328
987.321, 30272.488
988.567, 31401.682
989.812, 34980.867
991.058, 33940.059
992.303, 31699.271
993.548, 30248.482
994.793, 25837.711
996.038, 23676.955
997.282, 20976.205
998.526, 18795.525
999.770, 18354.846
1001.014, 16364.201
1002.258, 16033.620
1003.501, 16229.951
1004.744, 15349.482
1005.987, 16188.701
1007.230, 16037.735
1008.473, 16637.373
1009.715, 18430.682
1010.957, 19080.391
1012.199, 21746.742
1013.441, 23873.240
1014.682, 25993.049
1015.923, 30387.129
1017.164, 31665.855
1018.405, 34678.547
1019.646, 36281.738
1020.886, 34940.438
1022.127, 35364.039
1023.367, 32700.105
1024.606, 30452.029
1025.846, 28955.143
1027.085, 25644.639
1028.325, 24147.383
1029.564, 22483.557
1030.802, 20417.977
1032.041, 19941.098
1033.279, 18541.066
1034.517, 18216.273
1035.755, 18076.631
1036.993, 16945.113
1038.230, 17660.473
1039.468, 17338.992
1040.705, 17140.551
1041.942, 17699.186
1043.178, 16979.496
1044.415, 17287.434
1045.651, 16907.457
1046.887, 15933.187
1048.123, 16230.719
1049.358, 15701.166
1050.594, 15253.706
1051.829, 15683.561
1053.064, 14904.065
1054.299, 15622.104
1055.533, 15412.651
1056.768, 15182.741
1058.002, 16092.947
1059.236, 15883.577
1060.469, 16113.885
1061.703, 16454.553
1062.936, 15855.566
1064.169, 16266.292
1065.402, 15367.037
1066.635, 14627.932
1067.867, 14518.722
1069.100, 12999.682
1070.332, 12940.519
1071.564, 12261.376
1072.795, 11282.267
1074.027, 11253.180
1075.258, 10224.114
1076.489, 9950.461
1077.720, 9801.442
1078.950, 8756.418
1080.181, 8797.444
1081.411, 8248.493
1082.641, 7444.043
1083.871, 7455.141
1085.100, 6366.264
1086.330, 6010.665
1087.559, 5571.862
1088.788, 4663.082
1090.016, 4584.323
1091.245, 3829.586
1092.473, 3431.062
1093.701, 3294.369
1094.929, 2704.786
1096.157, 2525.243
1097.384, 2293.625
1098.612, 1884.426
1099.839, 2237.315
1101.066, 1766.760
1102.292, 1687.032
1103.519, 1893.521
1104.745, 1374.030
1105.971, 1728.171
1107.197, 1707.722
1108.423, 1660.039
1109.648, 2003.924
1110.873, 1826.537
1112.098, 2135.770
1113.323, 2599.521
1114.548, 2653.192
1115.772, 3335.779
1116.996, 3464.490
1118.220, 3510.964
1119.444, 3924.057
1120.667, 3391.823
1121.891, 3363.192
1123.114, 3539.998
1124.337, 3212.820
1125.560, 3622.749
1126.782, 3213.607
1128.004, 2904.093
1129.227, 3280.407
1130.448, 2650.320
1131.670, 2857.195
1132.892, 2823.290
1134.113, 2516.254
1135.334, 2894.757
1136.555, 2616.756
1137.776, 2599.838
1138.996, 2928.087
1140.216, 2359.135
1141.436, 2698.562
1142.656, 2638.175
1143.876, 2338.268
1145.095, 2973.371
1146.315, 2484.528
1147.534, 2617.667
1148.753, 2861.666
1149.971, 2118.833
1151.190, 2467.587
1152.408, 2127.396
1153.626, 1740.618
1154.844, 1977.964
1156.061, 1598.212
1157.279, 1588.501
1158.496, 1749.971
1159.713, 1424.298
1160.930, 1624.090
1162.146, 1606.133
1163.363, 1378.574
1164.579, 1784.719
1165.795, 1300.909
1167.010, 1535.489
1168.226, 1507.824
1169.441, 1159.498
1170.657, 1454.335
1171.871, 1246.729
1173.086, 965.555
1174.301, 1301.816
1175.515, 923.948
1176.729, 893.893
1177.943, 929.226
1179.157, 617.345
1180.370, 730.409
1181.584, 580.777
1182.797, 398.962
1184.010, 688.163
1185.222, 316.998
1186.435, 431.282
1187.647, 484.957
1188.859, 242.518
1190.071, 432.905
1191.283, 281.661
1192.494, 98.110
1193.706, 393.585
1194.917, 9.457
1196.128, 159.991
1197.338, 307.829
1198.549, 56.597
1199.759, 327.174
1200.969, 221.162
1202.179, 40.753
1203.389, 434.350
1204.598, 45.639
1205.807, 102.237
1207.016, 317.021
1208.225, 21.538
1209.434, 204.055
1210.642, 98.939
1211.850, 8.286
1213.058, 337.298
1214.266, 9.706
1215.474, 138.869
1216.681, 140.441
1217.889, 37.615
1219.096, 198.181
1220.302, 34.880
1221.509, 124.326
1222.715, 243.178
1223.922, 98.999
1225.128, 51.458
1226.334, 238.910
1227.539, 102.610
1228.745, 223.789
1229.950, 136.181
1231.155, 76.214
1232.360, 292.133
1233.564, 109.718
1234.769, 124.207
1235.973, 272.532
1237.177, 68.908
1238.381, 103.397
1239.584, 18.670
1240.787, 142.738
1241.991, 186.433
1243.194, 49.394
1244.396, 65.120
1245.599, 129.972
1246.801, 163.653
1248.004, 87.557
1249.206, 66.538
1250.407, 125.042
1251.609, 204.854
1252.810, 29.250
1254.012, 36.777
1255.212, 137.045
1256.413, 103.129
1257.614, 58.817
1258.814, 127.531
1260.014, 120.393
1261.214, 311.209
1262.414, 2.197
1263.614, 92.468
1264.813, 288.021
1266.012, 30.501
1267.211, 109.778
1268.410, 184.201
1269.609, 35.414
1270.807, 254.178
1272.005, 7.501
1273.203, 69.521
1274.401, 276.733
1275.598, 60.024
1276.796, 85.526
1277.993, 211.696
1279.190, 114.156
1280.387, 229.382
1281.583, 113.452
1282.780, 106.510
1283.976, 210.743
1285.172, 43.294
1286.368, 29.874
1287.563, 208.718
1288.759, 114.457
1289.954, 135.475
1291.149, 145.224
1292.343, 1.927
1293.538, 209.835
1294.732, 40.476
1295.927, 37.091
1297.121, 292.680
1298.314, 29.751
1299.508, 172.756
1300.701, 189.239
1301.895, 44.302
1303.087, 283.111
1304.280, 68.483
1305.473, 34.229
1306.665, 343.011
1307.857, 45.224
1309.049, 46.406
1310.241, 364.537
1311.433, 17.641
1312.624, 238.708
1313.815, 147.743
1315.006, 12.254
1316.197, 328.704
1317.388, 86.627
1318.578, 135.518
1319.768, 311.448
1320.958, 33.276
1322.148, 176.067
1323.338, 397.820
1324.527, 16.543
1325.716, 297.224
1326.906, 201.866
1328.094, 12.473
1329.283, 332.038
1330.471, 40.565
1331.660, 159.051
1332.848, 319.500
1334.035, 45.083
1335.223, 316.273
1336.411, 278.577
1337.598, 3.848
1338.785, 344.069
1339.972, 146.258
1341.158, 165.413
1342.345, 388.534
1343.531, 118.624
1344.717, 251.681
1345.903, 380.142
1347.089, 2.137
1348.274, 330.085
1349.459, 174.139
1350.644, 40.024
1351.829, 359.558
1353.014, 150.375
1354.198, 177.164
1355.383, 362.921
1356.567, 124.653
1357.751, 398.210
1358.934, 326.022
1360.118, 26.678
1361.301, 460.300
1362.484, 195.452
1363.667, 173.012
1364.850, 425.157
1366.032, 148.891
1367.215, 286.405
1368.397, 350.875
1369.579, 37.319
1370.760, 249.222
1371.942, 222.616
1373.123, 53.076
1374.304, 297.946
1375.485, 165.167
1376.666, 187.365
1377.847, 429.541
1379.027, 165.555
1380.207, 316.635
1381.387, 398.445
1382.567, 23.389
1383.747, 357.077
1384.926, 294.870
1386.105, 174.540
1387.284, 526.855
1388.463, 129.282
1389.641, 160.634
1390.820, 457.358
1391.998, 90.778
1393.176, 331.065
1394.354, 379.178
1395.532, 75.720
1396.709, 444.755
1397.886, 181.873
1399.063, 146.479
1400.240, 438.080
1401.417, 79.715
1402.593, 244.859
1403.769, 418.539
1404.945, 119.638
1406.121, 264.437
1407.297, 338.761
1408.472, 27.966
1409.648, 414.571
1410.823, 235.625
1411.998, 104.725
1413.172, 408.098
1414.347, 29.732
1415.521, 202.779
1416.695, 332.934
1417.869, 65.119
1419.043, 321.387
1420.216, 302.548
1421.390, 54.478
1422.563, 409.164
1423.736, 297.216
1424.909, 81.943
1426.081, 481.337
1427.254, 72.205
1428.426, 171.401
1429.598, 395.256
1430.770, 96.152
1431.941, 340.639
1433.113, 316.601
1434.284, 6.822
1435.455, 446.865
1436.626, 251.730
1437.796, 135.610
1438.967, 561.127
1440.137, 248.881
1441.307, 306.475
1442.477, 608.141
1443.646, 180.375
1444.816, 428.672
1445.985, 420.718
1447.154, 214.046
1448.323, 503.437
1449.492, 372.513
1450.660, 223.206
1451.829, 618.722
1452.997, 289.913
1454.165, 389.284
1455.332, 1140.726
1456.500, 264.152
1457.667, 440.125
1458.834, 403.956
1460.001, 65.420
1461.168, 541.897
1462.335, 287.985
1463.501, 193.316
1464.667, 580.754
1465.833, 180.566
1466.999, 287.116
1468.165, 514.394
1469.330, 156.629
1470.495, 336.477
1471.660, 420.780
1472.825, 98.031
1473.990, 427.277
1475.154, 292.882
1476.318, 126.919
1477.482, 423.989
1478.646, 180.979
1479.810, 213.025
1480.974, 461.000
1482.137, 88.248
1483.300, 274.700
1484.463, 389.232
1485.626, 10.158
1486.788, 329.506
1487.950, 307.213
1489.113, 27.635
1490.275, 390.426
1491.436, 122.323
1492.598, 104.306
1493.759, 376.418
1494.920, 32.682
1496.081, 161.096
1497.242, 317.772
1498.403, 33.738
1499.563, 225.909
1500.724, 368.295
1501.884, 9.960
1503.043, 405.576
1504.203, 265.944
1505.363, 23.884
1506.522, 464.538
1507.681, 125.874
1508.840, 124.316
1509.999, 464.579
1511.157, 82.070
1512.315, 261.512
1513.474, 352.598
1514.632, 0.837
1515.789, 345.528
1516.947, 0.000
##END=



