##NAMES=Brookite
##RRUFFID=R050363
##IDEAL CHEMISTRY=Ti^4+^O_2_
##LOCALITY=Magnet Cove, Arkansas, USA
##OWNER=RRUFF
##SOURCE=University of Arizona Mineral Museum
##DESCRIPTION=Black fragment of a prismatic crystal associated with quartz
##STATUS=The identification of this mineral has been confirmed by X-ray diffraction and chemical analysis
##URL=rruff.info/R050363
##MEASURED CHEMISTRY=(Ti_0.94_Nb^5+^_0.03_Fe^3+^_0.03_)_Î£=1_O_2_
##PIN_ID=L00226
##ORIENTATION=Laser parallel to -a* (-1 0 0). Fiducial mark perpendicular to laser is parallel to b [0 1 0]
51.43100, 0.0000000E+00
52.67100, 27.58167
53.91000, 86.39142
55.14900, 104.9364
56.38700, 82.03564
57.62600, 140.1082
58.86400, 181.7487
60.10300, 144.2207
61.34100, 73.23187
62.57900, 15.48224
63.81700, 16.19928
65.05400, 46.20734
66.29200, 44.78687
67.52900, 41.20166
68.76700, 83.30505
70.00400, 300.5117
71.24100, 510.2146
72.47700, 419.2253
73.71400, 367.3804
74.95100, 625.5420
76.18700, 948.5864
77.42300, 995.3959
78.65900, 1104.080
79.89500, 1290.523
81.13100, 1226.343
82.36700, 1542.184
83.60200, 1888.314
84.83700, 1993.662
86.07200, 1952.161
87.30800, 1928.750
88.54200, 2058.373
89.77700, 2307.956
91.01200, 2573.433
92.24600, 2928.771
93.48000, 3099.944
94.71400, 3290.931
95.94800, 3370.726
97.18200, 3438.315
98.41600, 3610.674
99.64900, 3795.459
100.8830, 4065.962
102.1160, 4356.918
103.3490, 4778.930
104.5820, 5274.520
105.8150, 5791.663
107.0470, 6558.330
108.2800, 7459.501
109.5120, 8396.157
110.7440, 8349.274
111.9760, 8143.840
113.2080, 8643.836
114.4400, 9728.248
115.6710, 11088.06
116.9030, 12270.26
118.1340, 13869.83
119.3650, 15920.77
120.5960, 18375.06
121.8270, 21115.70
123.0580, 23622.67
124.2880, 24108.96
125.5190, 22747.51
126.7490, 20432.08
127.9790, 18087.78
129.2090, 16581.66
130.4390, 15872.88
131.6680, 15675.48
132.8980, 15703.46
134.1270, 16357.88
135.3560, 16950.64
136.5850, 18412.80
137.8140, 19972.44
139.0430, 22129.62
140.2710, 24886.28
141.5000, 27656.34
142.7280, 30673.79
143.9560, 35425.44
145.1840, 38546.18
146.4120, 42361.99
147.6390, 46252.89
148.8670, 49461.88
150.0940, 52294.96
151.3210, 53264.14
152.5490, 52699.41
153.7750, 50203.79
155.0020, 45760.27
156.2290, 41054.84
157.4550, 35840.53
158.6810, 30785.33
159.9080, 26299.22
161.1340, 22370.23
162.3590, 19298.34
163.5850, 16596.57
164.8110, 14358.89
166.0360, 12594.33
167.2610, 10986.88
168.4860, 9696.531
169.7110, 8673.291
170.9360, 7806.158
172.1610, 6909.131
173.3850, 6217.208
174.6100, 5850.390
175.8340, 5320.674
177.0580, 4934.062
178.2820, 4780.552
179.5050, 4557.146
180.7290, 4435.839
181.9520, 4316.634
183.1760, 4309.536
184.3990, 4387.542
185.6220, 4672.651
186.8450, 5113.854
188.0670, 5774.153
189.2900, 6646.546
190.5120, 7267.038
191.7340, 7704.622
192.9560, 7356.299
194.1780, 6534.067
195.4000, 5414.925
196.6220, 4752.875
197.8430, 3940.912
199.0640, 3352.500
200.2860, 3014.843
201.5070, 2931.996
202.7270, 2891.396
203.9480, 2364.325
205.1690, 2026.903
206.3890, 1522.648
207.6090, 1415.667
208.8290, 1312.714
210.0490, 1165.279
211.2690, 1163.394
212.4890, 1004.717
213.7080, 956.8438
214.9280, 928.8806
216.1470, 773.5325
217.3660, 698.4204
218.5850, 694.1362
219.8030, 616.3499
221.0220, 628.8276
222.2400, 671.3625
223.4590, 760.5098
224.6770, 809.7666
225.8950, 861.2551
227.1120, 993.2065
228.3300, 1242.919
229.5480, 1455.097
230.7650, 1762.420
231.9820, 2177.294
233.1990, 2714.344
234.4160, 3350.337
235.6330, 4259.182
236.8490, 5372.311
238.0660, 6943.392
239.2820, 9148.612
240.4980, 11859.97
241.7140, 15216.45
242.9300, 18582.06
244.1460, 21757.79
245.3610, 23311.65
246.5770, 23090.62
247.7920, 21399.70
249.0070, 18787.89
250.2220, 15987.20
251.4370, 13687.61
252.6510, 11556.12
253.8660, 9878.726
255.0800, 8404.432
256.2940, 7417.233
257.5080, 6536.129
258.7220, 6025.115
259.9360, 5486.194
261.1490, 4897.358
262.3630, 4222.609
263.5760, 3735.943
264.7890, 3492.361
266.0020, 3259.859
267.2150, 2935.438
268.4270, 2700.094
269.6400, 2650.826
270.8520, 2407.634
272.0640, 2200.516
273.2760, 2193.472
274.4880, 2126.501
275.7000, 2021.603
276.9120, 1941.777
278.1230, 1879.021
279.3340, 1787.650
280.5450, 1737.712
281.7560, 1662.156
282.9670, 1599.664
284.1780, 1604.233
285.3880, 1583.862
286.5980, 1520.548
287.8090, 1358.290
289.0190, 1445.085
290.2290, 1362.934
291.4380, 1390.835
292.6480, 1416.789
293.8570, 1499.795
295.0670, 1394.854
296.2760, 1382.963
297.4850, 1593.125
298.6930, 1718.338
299.9020, 1558.601
301.1110, 1757.915
302.3190, 1819.278
303.5270, 2006.693
304.7350, 2024.157
305.9430, 2129.673
307.1510, 2290.234
308.3580, 2482.844
309.5660, 2492.501
310.7730, 2581.207
311.9800, 2838.161
313.1870, 2985.189
314.3940, 3036.050
315.6010, 3058.174
316.8070, 3098.113
318.0130, 2971.097
319.2200, 3076.126
320.4260, 2954.201
321.6310, 2779.319
322.8370, 2651.483
324.0430, 2504.691
325.2480, 2289.942
326.4540, 2115.284
327.6590, 1923.621
328.8640, 1724.002
330.0680, 1484.425
331.2730, 1372.891
332.4780, 1207.397
333.6820, 1133.946
334.8860, 872.5366
336.0900, 799.1680
337.2940, 674.8398
338.4980, 500.5527
339.7010, 410.3057
340.9050, 228.0991
342.1080, 176.9321
343.3110, 204.8052
344.5140, 30.75098
345.7170, 78.76904
346.9200, 51.13770
348.1220, 5.005371
349.3240, 103.8135
350.5270, 79.60352
351.7290, 168.3662
352.9310, 223.1436
354.1320, 236.9619
355.3340, 139.8174
356.5350, 256.6733
357.7370, 192.5825
358.9380, 229.5220
360.1390, 164.5122
361.3400, 144.5298
362.5400, 80.56641
363.7410, 194.5952
364.9410, 212.6694
366.1410, 208.7979
367.3410, 196.9805
368.5410, 323.2129
369.7410, 194.5527
370.9400, 290.9434
372.1400, 172.4302
373.3390, 158.9580
374.5380, 176.5234
375.7370, 220.1338
376.9360, 53.81006
378.1350, 87.47656
379.3330, 54.84961
380.5310, 45.22754
381.7300, 140.6533
382.9280, 306.1328
384.1260, 380.6646
385.3230, 415.2480
386.5210, 509.8838
387.7180, 684.5708
388.9160, 762.3091
390.1130, 1020.099
391.3100, 1051.938
392.5060, 1271.829
393.7030, 1546.769
394.9000, 1740.760
396.0960, 2110.799
397.2920, 2313.889
398.4880, 2681.028
399.6840, 2811.217
400.8800, 3091.454
402.0750, 3429.739
403.2710, 3788.073
404.4660, 4070.457
405.6610, 4208.888
406.8560, 4370.367
408.0510, 4455.895
409.2450, 4460.470
410.4400, 4444.094
411.6340, 4284.766
412.8280, 4178.485
414.0220, 4075.252
415.2160, 3629.066
416.4100, 3515.929
417.6030, 3090.839
418.7970, 3014.796
419.9900, 2483.801
421.1830, 2317.852
422.3760, 2109.952
423.5690, 1799.099
424.7610, 1725.292
425.9540, 1448.534
427.1460, 1288.822
428.3380, 1113.158
429.5300, 914.5410
430.7220, 907.9707
431.9140, 714.4482
433.1050, 647.9731
434.2970, 471.5459
435.4880, 404.1655
436.6790, 406.8325
437.8700, 334.5474
439.0610, 316.3096
440.2510, 169.1191
441.4420, 197.9771
442.6320, 181.8818
443.8220, 222.8350
445.0120, 153.8359
446.2020, 84.88477
447.3910, 118.7432
448.5810, 51.12646
449.7700, 133.3223
450.9600, 68.57178
452.1490, 56.87598
453.3370, 149.2280
454.5260, 35.62842
455.7150, 34.07275
456.9030, 46.56055
458.0910, 33.09619
459.2800, 99.67578
460.4670, 103.3037
461.6550, 91.98096
462.8430, 149.7070
464.0300, 90.48779
465.2180, 131.3218
466.4050, 104.2100
467.5920, 48.15918
468.7790, 38.15967
469.9650, 71.21240
471.1520, 56.90576
472.3380, 88.13770
473.5250, 117.6831
474.7110, 135.9434
475.8970, 226.2603
477.0820, 238.6270
478.2680, 284.0454
479.4540, 255.5146
480.6390, 289.0347
481.8240, 413.6138
483.0090, 242.2432
484.1940, 388.9302
485.3780, 275.6743
486.5630, 388.4736
487.7470, 334.3247
488.9320, 367.2275
490.1160, 416.6934
491.3000, 430.4678
492.4830, 457.1523
493.6670, 564.2466
494.8500, 455.4756
496.0340, 523.7134
497.2170, 451.2012
498.4000, 571.9692
499.5820, 511.3828
500.7650, 586.2852
501.9480, 505.1836
503.1300, 498.6274
504.3120, 493.1694
505.4940, 643.2065
506.6760, 499.0576
507.8580, 623.9458
509.0390, 491.0688
510.2210, 535.8628
511.4020, 576.8228
512.5830, 635.8188
513.7640, 695.6123
514.9450, 806.8989
516.1250, 851.9678
517.3060, 807.1338
518.4860, 976.9839
519.6660, 1065.891
520.8460, 997.0791
522.0260, 1228.637
523.2060, 1413.128
524.3850, 1478.880
525.5650, 1594.702
526.7440, 1758.595
527.9230, 1856.559
529.1020, 2064.593
530.2810, 2385.698
531.4590, 2477.873
532.6380, 2631.120
533.8160, 2798.437
534.9940, 2859.824
536.1720, 3065.283
537.3500, 3141.812
538.5270, 3092.412
539.7050, 3169.084
540.8820, 3450.827
542.0590, 3395.640
543.2360, 3439.524
544.4130, 3287.479
545.5900, 3203.506
546.7660, 3148.603
547.9430, 3089.771
549.1190, 2859.012
550.2950, 2913.322
551.4710, 2586.705
552.6470, 2386.158
553.8220, 2256.683
554.9980, 2230.279
556.1730, 2058.946
557.3480, 1785.686
558.5230, 1595.495
559.6980, 1440.377
560.8730, 1391.330
562.0470, 1229.354
563.2220, 1106.449
564.3960, 974.6162
565.5700, 806.8540
566.7440, 832.1636
567.9170, 565.5444
569.0910, 606.9966
570.2640, 545.5205
571.4380, 423.1152
572.6110, 437.7817
573.7840, 346.5190
574.9570, 378.3281
576.1290, 170.2085
577.3020, 275.1597
578.4740, 154.1826
579.6460, 169.2769
580.8180, 77.44189
581.9900, 226.6782
583.1620, 133.9858
584.3330, 144.3643
585.5040, 130.8135
586.6760, 77.33447
587.8470, 155.9258
589.0180, 224.5884
590.1880, 238.2715
591.3590, 282.2632
592.5290, 231.5459
593.7000, 310.4692
594.8700, 423.5068
596.0400, 449.3926
597.2090, 600.3203
598.3790, 725.6064
599.5490, 714.7578
600.7180, 904.1265
601.8870, 989.5649
603.0560, 1145.075
604.2250, 1244.893
605.3940, 1512.435
606.5620, 1578.184
607.7300, 1841.590
608.8990, 2025.981
610.0670, 2153.931
611.2350, 2427.634
612.4020, 2491.223
613.5700, 2727.371
614.7370, 3093.163
615.9050, 3230.794
617.0720, 3453.179
618.2390, 3895.914
619.4060, 4105.456
620.5720, 4345.162
621.7390, 4696.479
622.9050, 4914.264
624.0710, 5354.499
625.2370, 5488.757
626.4030, 5743.469
627.5690, 6085.615
628.7340, 6313.852
629.9000, 6648.170
631.0650, 6796.596
632.2300, 7048.113
633.3950, 7099.755
634.5600, 7463.559
635.7240, 7478.470
636.8890, 7558.541
638.0530, 7691.735
639.2170, 7671.783
640.3810, 7517.377
641.5450, 7497.996
642.7080, 7253.749
643.8720, 7104.625
645.0350, 7048.618
646.1980, 6837.716
647.3610, 6677.945
648.5240, 6456.312
649.6870, 6209.809
650.8490, 6049.534
652.0120, 5696.324
653.1740, 5526.267
654.3360, 5198.359
655.4980, 4997.574
656.6600, 4805.907
657.8210, 4389.364
658.9830, 4247.950
660.1440, 3965.637
661.3050, 3839.421
662.4660, 3494.269
663.6270, 3292.188
664.7870, 3065.177
665.9480, 2887.232
667.1080, 2851.351
668.2680, 2496.535
669.4280, 2529.781
670.5880, 2225.089
671.7480, 2134.462
672.9070, 2039.896
674.0670, 1819.392
675.2260, 1743.947
676.3850, 1737.562
677.5440, 1527.236
678.7030, 1454.969
679.8610, 1431.763
681.0200, 1219.614
682.1780, 1272.524
683.3360, 1152.492
684.4940, 1102.516
685.6520, 1083.600
686.8090, 962.7422
687.9670, 937.5630
689.1240, 866.1973
690.2810, 822.5093
691.4380, 755.8765
692.5950, 679.2964
693.7520, 674.7676
694.9080, 675.2930
696.0650, 456.8701
697.2210, 539.4985
698.3770, 487.1787
699.5330, 381.9092
700.6880, 494.6899
701.8440, 415.5210
702.9990, 405.4023
704.1550, 315.3345
705.3100, 334.3140
706.4650, 269.3418
707.6190, 265.4175
708.7740, 362.5391
709.9290, 167.7065
711.0830, 141.9189
712.2370, 208.1753
713.3910, 205.4766
714.5450, 159.8203
715.6980, 226.2070
716.8520, 236.6353
718.0050, 194.1060
719.1580, 164.6177
720.3110, 157.1704
721.4640, 127.1724
722.6170, 92.39746
723.7700, 73.07080
724.9220, 72.78369
726.0740, 6.537598
727.2260, 54.32959
728.3780, 51.83984
729.5300, 59.97998
730.6810, 67.09473
731.8330, 62.81543
732.9840, 32.76270
734.1350, 4.747070
735.2860, 4.769043
736.4370, 6.170898
737.5880, 7.076660
738.7380, 9.052734
739.8880, 11.21533
741.0390, 25.49609
742.1890, 57.25732
743.3380, 45.00879
744.4880, 49.25439
745.6380, 97.14893
746.7870, 29.68994
747.9360, 49.36475
749.0850, 36.00586
750.2340, 28.06299
751.3830, 35.66357
752.5310, 29.81396
753.6800, 55.50781
754.8280, 54.97412
755.9760, 15.73242
757.1240, 47.81982
758.2720, 4.701660
759.4190, 61.69922
760.5670, 15.12354
761.7140, 53.51025
762.8610, 49.84619
764.0080, 28.55518
765.1550, 46.62793
766.3020, 32.06348
767.4480, 40.38281
768.5950, 30.85352
769.7410, 14.44971
770.8870, 16.39746
772.0330, 35.19482
773.1780, 52.14062
774.3240, 59.11816
775.4690, 45.09619
776.6140, 20.88916
777.7590, 0.2607420
778.9040, 9.710449
780.0490, 54.52002
781.1940, 32.11523
782.3380, 87.44092
783.4820, 75.62817
784.6260, 80.33447
785.7700, 26.87036
786.9140, 103.9255
788.0580, 3.151367
789.2010, 52.25830
790.3450, 99.32568
791.4880, 101.7437
792.6310, 150.2185
793.7730, 167.7249
794.9160, 155.5818
796.0590, 128.1350
797.2010, 111.6091
798.3430, 118.9673
799.4850, 119.7461
800.6270, 152.1055
801.7690, 157.3508
802.9100, 200.5388
804.0520, 227.4128
805.1930, 220.6235
806.3340, 235.1353
807.4750, 204.9578
808.6160, 233.6218
809.7560, 223.9854
810.8970, 239.0034
812.0370, 261.0642
813.1770, 324.8418
814.3170, 273.2214
815.4570, 332.7053
816.5960, 297.6292
817.7360, 320.9441
818.8750, 285.6138
820.0140, 369.8276
821.1530, 384.2275
822.2920, 362.5601
823.4310, 328.2292
824.5690, 425.7617
825.7070, 377.5352
826.8460, 373.0098
827.9840, 366.3735
829.1220, 434.1387
830.2590, 481.9805
831.3970, 508.3003
832.5340, 500.5537
833.6710, 442.0828
834.8080, 436.1035
835.9450, 460.7944
837.0820, 420.7075
838.2190, 456.5840
839.3550, 473.4966
840.4910, 421.6992
841.6270, 473.1433
842.7630, 342.9004
843.8990, 420.6194
845.0350, 396.9121
846.1700, 408.3774
847.3060, 409.4658
848.4410, 456.6389
849.5760, 470.9678
850.7100, 445.9761
851.8450, 403.9563
852.9800, 416.5442
854.1140, 387.8315
855.2480, 404.7256
856.3820, 386.5959
857.5160, 362.5632
858.6500, 408.3674
859.7830, 317.1667
860.9170, 398.0449
862.0500, 328.2581
863.1830, 317.9788
864.3160, 336.8403
865.4480, 282.5020
866.5810, 242.9878
867.7130, 225.3723
868.8460, 185.1204
869.9780, 209.9258
871.1100, 153.5251
872.2410, 215.1672
873.3730, 169.5659
874.5050, 228.8289
875.6360, 176.1487
876.7670, 101.4265
877.8980, 117.6809
879.0290, 139.6743
880.1590, 89.95923
881.2900, 114.1240
882.4200, 100.6130
883.5500, 153.2380
884.6800, 131.7043
885.8100, 31.46558
886.9400, 87.88086
888.0690, 47.88989
889.1990, 24.84448
890.3280, 51.70483
891.4570, 30.60913
892.5860, 26.24707
893.7140, 7.257568
894.8430, 20.17822
895.9710, 24.14819
897.1000, 14.54077
898.2280, 55.29858
899.3560, 17.36670
900.4830, 46.88306
901.6110, 17.83643
902.7380, 1.125732
903.8660, 12.95996
904.9930, 4.154785
906.1200, 37.41162
907.2460, 27.77979
908.3730, 90.28516
909.5000, 18.13086
910.6260, 8.541504
911.7520, 52.27783
912.8780, 21.16553
914.0040, 18.83472
915.1290, 45.16870
916.2550, 25.17993
917.3800, 33.08643
918.5050, 37.90283
919.6300, 25.64258
920.7550, 7.685547
921.8800, 84.89941
923.0040, 41.42773
924.1290, 0.7880860
925.2530, 61.79224
926.3770, 38.47095
927.5010, 37.66675
928.6250, 71.86353
929.7480, 28.92847
930.8720, 71.92114
931.9950, 15.85229
933.1180, 85.70581
934.2410, 127.5000
935.3640, 76.24023
936.4860, 49.91846
937.6090, 95.52856
938.7310, 115.0796
939.8530, 88.57373
940.9750, 133.0071
942.0970, 143.3857
943.2180, 74.71094
944.3400, 158.9719
945.4610, 110.1794
946.5820, 193.3323
947.7030, 127.4292
948.8240, 159.4685
949.9450, 151.4548
951.0650, 117.4395
952.1860, 165.3120
953.3060, 137.1323
954.4260, 175.8948
955.5460, 158.6052
956.6650, 93.26050
957.7850, 136.8525
958.9040, 147.5273
960.0230, 128.0081
961.1420, 151.4470
962.2610, 159.8254
963.3800, 225.1855
964.4990, 215.0591
965.6170, 161.6494
966.7350, 220.7988
967.8530, 191.8965
968.9710, 188.9402
970.0890, 227.0793
971.2070, 199.0166
972.3240, 201.9006
973.4410, 196.0359
974.5580, 163.8135
975.6750, 248.5347
976.7920, 209.2068
977.9090, 211.8262
979.0250, 264.3926
980.1410, 238.0447
981.2580, 305.6074
982.3740, 279.1001
983.4890, 247.6223
984.6050, 367.0232
985.7200, 388.3245
986.8360, 373.5442
987.9510, 352.7161
989.0660, 355.8403
990.1810, 313.9167
991.2950, 284.9443
992.4100, 326.9233
993.5240, 312.8545
994.6390, 287.7373
995.7530, 230.5710
996.8660, 312.3530
997.9800, 272.0874
999.0940, 355.0737
1000.207, 303.7617
1001.320, 268.3701
1002.433, 272.3030
1003.546, 255.5593
1004.659, 293.3774
1005.772, 276.0039
1006.884, 309.5615
1007.996, 343.0764
1009.108, 330.3989
1010.220, 343.9097
1011.332, 330.1838
1012.444, 327.7346
1013.555, 332.9531
1014.666, 320.1616
1015.777, 332.7771
1016.888, 312.0706
1017.999, 342.1990
1019.110, 355.2317
1020.220, 337.6772
1021.331, 306.2285
1022.441, 346.0552
1023.551, 304.0867
1024.661, 282.8396
1025.770, 289.7715
1026.880, 337.4380
1027.989, 328.2146
1029.098, 291.4141
1030.207, 382.7927
1031.316, 270.0322
1032.425, 346.5415
1033.533, 345.4441
1034.642, 330.2725
1035.750, 343.7463
1036.858, 288.4727
1037.966, 361.1172
1039.073, 283.4412
1040.181, 291.7664
1041.288, 288.4514
1042.396, 289.0688
1043.503, 275.2576
1044.610, 265.9397
1045.716, 279.8438
1046.823, 246.0557
1047.929, 289.5308
1049.036, 229.6177
1050.142, 235.5879
1051.248, 239.0017
1052.353, 259.5305
1053.459, 276.9333
1054.564, 249.8987
1055.670, 281.2739
1056.775, 264.9856
1057.880, 215.9802
1058.985, 236.4954
1060.089, 215.5283
1061.194, 196.5864
1062.298, 235.4006
1063.402, 289.9148
1064.506, 220.7166
1065.610, 210.6138
1066.713, 247.6069
1067.817, 221.2083
1068.920, 241.8054
1070.023, 250.6975
1071.126, 245.5576
1072.229, 243.0835
1073.332, 203.4143
1074.435, 223.8059
1075.537, 206.3665
1076.639, 211.5061
1077.741, 211.1235
1078.843, 185.5947
1079.945, 205.1472
1081.046, 204.9961
1082.148, 199.4016
1083.249, 169.6653
1084.350, 232.3384
1085.451, 301.8025
1086.551, 257.7573
1087.652, 230.9751
1088.752, 186.9963
1089.853, 220.0583
1090.953, 139.7778
1092.053, 187.0884
1093.152, 166.5947
1094.252, 166.2468
1095.351, 155.9055
1096.451, 201.2202
1097.550, 231.3467
1098.649, 215.9746
1099.748, 199.9038
1100.846, 206.4729
1101.945, 125.5850
1103.043, 166.6038
1104.141, 165.4561
1105.239, 86.40845
1106.337, 199.2104
1107.434, 186.7180
1108.532, 183.0857
1109.629, 154.9375
1110.726, 177.6748
1111.823, 118.8074
1112.920, 126.6704
1114.017, 130.8250
1115.113, 110.8511
1116.210, 126.6772
1117.306, 137.7917
1118.402, 231.8611
1119.498, 256.9656
1120.593, 258.1255
1121.689, 260.1904
1122.784, 267.1750
1123.879, 288.0811
1124.974, 236.0388
1126.069, 198.9517
1127.164, 224.7363
1128.259, 205.2949
1129.353, 159.2083
1130.447, 63.74854
1131.541, 123.8843
1132.635, 176.6216
1133.729, 51.23315
1134.822, 108.7932
1135.916, 126.2439
1137.009, 76.90527
1138.102, 82.60425
1139.195, 80.23462
1140.288, 115.9573
1141.380, 54.63477
1142.473, 80.30151
1143.565, 34.00232
1144.657, 90.61414
1145.749, 81.22900
1146.841, 75.00818
1147.932, 69.58716
1149.024, 69.81213
1150.115, 78.46240
1151.206, 73.00708
1152.297, 93.54321
1153.388, 70.98254
1154.479, 67.58350
1155.569, 84.98938
1156.659, 81.29932
1157.750, 76.75623
1158.839, 62.25623
1159.929, 68.76013
1161.019, 61.13184
1162.108, 2.370605
1163.198, 53.92004
1164.287, 41.42932
1165.376, 77.94507
1166.465, 106.4766
1167.553, 57.01733
1168.642, 80.53479
1169.730, 27.08704
1170.818, 3.628540
1171.906, 21.22986
1172.994, 44.80957
1174.082, 43.41833
1175.170, 42.10950
1176.257, 29.72754
1177.344, 40.36475
1178.431, 16.02271
1179.518, 14.62097
1180.605, 83.19165
1181.691, 33.80005
1182.778, 31.43201
1183.864, 10.92566
1184.950, 66.71423
1186.036, 75.36511
1187.122, 67.01257
1188.207, 15.66174
1189.292, 13.32227
1190.378, 36.00391
1191.463, 8.685791
1192.548, 49.29944
1193.632, 27.98547
1194.717, 22.68481
1195.801, 9.381958
1196.886, 18.18506
1197.970, 17.92957
1199.054, 37.58032
1200.137, 27.27405
1201.221, 39.08630
1202.305, 35.14893
1203.388, 20.84143
1204.471, 8.613037
1205.554, 2.172119
1206.637, 49.50781
1207.719, 49.22559
1208.802, 52.31360
1209.884, 72.53918
1210.966, 51.21997
1212.048, 2.890015
1213.130, 1.557129
1214.212, 27.16724
1215.293, 6.170288
1216.374, 48.48608
1217.456, 3.858765
1218.536, 26.79089
1219.617, 22.43738
1220.698, 13.08508
1221.778, 17.40869
1222.859, 17.26025
1223.939, 42.94409
1225.019, 71.57556
1226.099, 32.21497
1227.178, 47.85583
1228.258, 41.53406
1229.337, 52.16956
1230.417, 74.80225
1231.496, 69.43323
1232.574, 78.91309
1233.653, 28.54065
1234.732, 2.166138
1235.810, 17.55457
1236.888, 7.181274
1237.966, 7.084961
1239.044, 8.336182
1240.122, 33.14075
1241.199, 28.75098
1242.277, 40.22461
1243.354, 57.73376
1244.431, 47.26172
1245.508, 45.70776
1246.585, 41.53430
1247.661, 52.78674
1248.738, 33.38135
1249.814, 15.09387
1250.890, 32.68127
1251.966, 57.26587
1253.042, 31.00464
1254.117, 81.58386
1255.193, 50.19800
1256.268, 83.85889
1257.343, 6.431519
1258.418, 27.06689
1259.493, 44.36487
1260.567, 6.107056
1261.642, 51.40198
1262.716, 32.04712
1263.790, 51.22253
1264.864, 70.67883
1265.938, 28.21240
1267.011, 30.39612
1268.085, 88.94824
1269.158, 35.46716
1270.231, 56.00110
1271.304, 69.23853
1272.377, 27.28296
1273.450, 58.46802
1274.522, 48.87781
1275.594, 3.719482
1276.666, 56.61877
1277.738, 20.00476
1278.810, 17.31226
1279.882, 48.91199
1280.953, 50.24963
1282.025, 28.67712
1283.096, 17.03979
1284.167, 58.36584
1285.238, 73.78992
1286.308, 9.182373
1287.379, 85.89392
1288.449, 41.34668
1289.519, 39.69751
1290.589, 57.14917
1291.659, 53.17505
1292.729, 87.48413
1293.798, 43.73792
1294.868, 79.14758
1295.937, 72.70813
1297.006, 36.03796
1298.075, 101.4672
1299.143, 34.67554
1300.212, 26.70215
1301.280, 60.90491
1302.348, 60.27136
1303.416, 14.65491
1304.484, 84.06714
1305.552, 39.40503
1306.620, 53.80603
1307.687, 92.45361
1308.754, 45.61292
1309.821, 73.08496
1310.888, 61.36938
1311.955, 57.61707
1313.021, 47.43909
1314.088, 70.83618
1315.154, 54.37085
1316.220, 59.53040
1317.286, 21.00354
1318.352, 58.22412
1319.417, 39.49634
1320.483, 39.65625
1321.548, 36.88074
1322.613, 54.44214
1323.678, 62.65930
1324.743, 9.896851
1325.807, 78.09705
1326.872, 43.30359
1327.936, 99.58313
1329.000, 6.262939
1330.064, 7.437622
1331.128, 83.91455
1332.191, 14.12610
1333.255, 11.70703
1334.318, 38.36560
1335.381, 118.9331
1336.444, 66.26392
1337.507, 72.60864
1338.569, 31.00586
1339.632, 36.61169
1340.694, 46.91187
1341.756, 35.25000
1342.818, 48.63501
1343.880, 48.72998
1344.941, 59.08008
1346.003, 53.15356
1347.064, 49.39929
1348.125, 40.62769
1349.186, 49.92419
1350.247, 25.76331
1351.308, 20.31177
1352.368, 35.86829
1353.428, 22.79285
1354.489, 33.62341
1355.549, 23.95520
1356.608, 47.26050
1357.668, 53.61096
1358.727, 74.97046
1359.787, 43.37891
1360.846, 52.77771
1361.905, 71.11096
1362.964, 17.33765
1364.022, 32.62280
1365.081, 6.814087
1366.139, 61.85205
1367.197, 48.02783
1368.255, 93.40698
1369.313, 43.04980
1370.371, 46.37219
1371.428, 71.80676
1372.486, 49.12451
1373.543, 36.56067
1374.600, 42.94263
1375.657, 46.50000
1376.713, 5.759399
1377.770, 54.96484
1378.826, 51.26929
1379.882, 21.42297
1380.938, 88.81604
1381.994, 26.13757
1383.050, 14.43481
1384.106, 51.72998
1385.161, 19.85730
1386.216, 50.05054
1387.271, 108.4231
1388.326, 94.39429
1389.381, 9.675171
1390.435, 38.88354
1391.490, 44.13562
1392.544, 58.38367
1393.598, 19.57434
1394.652, 63.62598
1395.705, 0.1390380
1396.759, 23.07202
1397.812, 63.30176
1398.866, 30.47070
1399.919, 10.77222
1400.972, 30.99988
1402.024, 24.19348
1403.077, 94.14990
1404.129, 20.65637
1405.181, 72.11755
1406.233, 1.794189
1407.285, 35.48035
1408.337, 65.65076
1409.389, 27.77136
1410.440, 45.86292
1411.491, 29.01331
1412.542, 41.15613
1413.593, 3.823853
1414.644, 2.394409
1415.695, 42.46851
1416.745, 3.591675
1417.795, 4.213501
1418.845, 33.32947
1419.895, 62.44165
1420.945, 36.55017
1421.995, 17.65417
1423.044, 34.75317
1424.093, 86.85828
1425.142, 48.94629
1426.191, 59.02197
1427.240, 30.06165
1428.289, 17.12756
1429.337, 12.18823
1430.385, 4.374390
1431.433, 10.21509
1432.481, 6.261108
1433.529, 34.28357
1434.577, 36.30273
1435.624, 33.40979
1436.672, 29.74854
1437.719, 52.80273
1438.766, 48.79541
1439.812, 37.78284
1440.859, 12.76306
1441.905, 25.72827
1442.952, 61.82996
1443.998, 26.92944
1445.044, 60.79333
1446.090, 35.51392
1447.135, 12.99158
1448.181, 35.64966
1449.226, 51.58215
1450.271, 19.91504
1451.316, 55.12805
1452.361, 36.07263
1453.405, 93.75537
1454.450, 3.924683
1455.494, 35.39270
1456.538, 18.69812
1457.582, 93.00891
1458.626, 37.31909
1459.670, 47.63000
1460.713, 0.9418950
1461.757, 75.22241
1462.800, 58.45874
1463.843, 40.69995
1464.886, 42.94556
1465.928, 3.763184
1466.971, 11.06396
1468.013, 3.727051
1469.055, 29.86621
1470.097, 37.15173
1471.139, 66.43359
1472.181, 51.15991
1473.222, 49.98438
1474.263, 16.25293
1475.305, 6.362061
1476.346, 16.88660
1477.386, 2.064941
1478.427, 12.43274
1479.468, 41.58447
1480.508, 73.84460
1481.548, 66.96521
1482.588, 80.22302
1483.628, 65.40125
1484.668, 30.34985
1485.707, 28.15820
1486.747, 19.25342
1487.786, 18.62512
1488.825, 20.55908
1489.864, 32.42664
1490.902, 33.62012
1491.941, 37.82104
1492.979, 13.52563
1494.017, 0.4592290
1495.055, 34.34692
1496.093, 16.40637
1497.131, 67.64539
1498.168, 13.85803
1499.206, 23.07495
1500.243, 4.120239
1501.280, 48.93420
1502.317, 38.73608
1503.354, 32.93799
1504.390, 51.07922
1505.426, 47.15417
1506.463, 40.32141
1507.499, 59.45203
1508.535, 53.59021
1509.570, 56.00684
1510.606, 66.46899
1511.641, 54.43445
1512.676, 52.54016
1513.711, 35.32141
1514.746, 51.69519
1515.781, 62.77344
1516.816, 68.15735
1517.850, 53.45312
1518.884, 64.14832
1519.918, 64.62439
1520.952, 91.16968
1521.986, 69.12000
1523.019, 62.77917
1524.053, 15.78284
1525.086, 31.63977
1526.119, 55.44238
1527.152, 77.22302
1528.185, 0.1662600
1529.217, 33.20251
1530.250, 78.41187
1531.282, 15.91577
1532.314, 74.18005
1533.346, 58.42773
1534.377, 33.66638
1535.409, 77.50146
1536.440, 51.10364
1537.472, 42.33813
1538.503, 55.73279
1539.534, 30.98804
1540.564, 57.29944
1541.595, 3.251587
1542.625, 93.05432
1543.656, 53.43579
1544.686, 51.78076
1545.716, 91.12988
1546.745, 75.44177
1547.775, 36.26953
1548.804, 58.50732
1549.834, 57.01685
1550.863, 78.11414
1551.892, 155.7010
1552.920, 125.7867
1553.949, 246.0566
1554.977, 285.3403
1556.006, 162.3398
1557.034, 54.11072
1558.062, 37.94556
1559.089, 14.67920
1560.117, 0.8027340
1561.144, 23.89832
1562.172, 79.54675
1563.199, 63.01550
1564.226, 43.60193
1565.252, 49.41541
1566.279, 2.556519
1567.305, 0.1048580
1568.332, 43.89587
1569.358, 8.016724
1570.384, 0.0000000E+00
##END=



