##NAMES=Brookite
##RRUFFID=R050363
##IDEAL CHEMISTRY=Ti^4+^O_2_
##LOCALITY=Magnet Cove, Arkansas, USA
##OWNER=RRUFF
##SOURCE=University of Arizona Mineral Museum
##DESCRIPTION=Black fragment of a prismatic crystal associated with quartz
##STATUS=The identification of this mineral has been confirmed by X-ray diffraction and chemical analysis
##URL=rruff.info/R050363
##MEASURED CHEMISTRY=(Ti_0.94_Nb^5+^_0.03_Fe^3+^_0.03_)_Î£=1_O_2_
##PIN_ID=L01274
##ORIENTATION=Laser parallel to c* (0 0 1). Fiducial mark perpendicular to laser is parallel to a [1 0 0]
51.43100, 0.0000000E+00
52.67100, 38.69754
53.91000, 76.00726
55.14900, 106.5262
56.38700, 139.9185
57.62600, 179.5202
58.86400, 167.7543
60.10300, 111.2874
61.34100, 40.41492
62.57900, 9.538208
63.81700, 28.60040
65.05400, 38.26898
66.29200, 51.72223
67.52900, 34.19739
68.76700, 45.08972
70.00400, 87.61926
71.24100, 126.1024
72.47700, 262.6301
73.71400, 266.1095
74.95100, 385.4771
76.18700, 590.6194
77.42300, 609.4369
78.65900, 657.8347
79.89500, 799.7240
81.13100, 993.0220
82.36700, 1264.653
83.60200, 1486.550
84.83700, 1569.652
86.07200, 1460.903
87.30800, 1544.250
88.54200, 1644.642
89.77700, 1921.007
91.01200, 2271.260
92.24600, 2473.327
93.48000, 2644.145
94.71400, 2690.671
95.94800, 2888.882
97.18200, 3074.796
98.41600, 3286.433
99.64900, 3484.802
100.8830, 3781.878
102.1160, 3973.626
103.3490, 4231.013
104.5820, 4724.010
105.8150, 5336.590
107.0470, 6099.729
108.2800, 6839.405
109.5120, 7634.598
110.7440, 7538.289
111.9760, 7791.464
113.2080, 8531.117
114.4400, 9568.249
115.6710, 10909.85
116.9030, 12173.90
118.1340, 14034.39
119.3650, 16084.31
120.5960, 19376.64
121.8270, 22561.36
123.0580, 25017.47
124.2880, 25800.96
125.5190, 24246.74
126.7490, 22663.58
127.9790, 21639.47
129.2090, 21522.39
130.4390, 21685.35
131.6680, 21829.32
132.8980, 21980.34
134.1270, 22359.45
135.3560, 22480.70
136.5850, 23368.09
137.8140, 24691.66
139.0430, 26558.59
140.2710, 28957.03
141.5000, 31909.30
142.7280, 35321.17
143.9560, 39280.74
145.1840, 43841.95
146.4120, 48956.64
147.6390, 54018.65
148.8670, 58169.85
150.0940, 60591.15
151.3210, 61441.59
152.5490, 59759.15
153.7750, 56503.85
155.0020, 51180.69
156.2290, 45197.64
157.4550, 39591.75
158.6810, 33687.98
159.9080, 28860.35
161.1340, 24612.87
162.3590, 21237.52
163.5850, 18132.30
164.8110, 15688.22
166.0360, 13573.29
167.2610, 11832.48
168.4860, 10197.82
169.7110, 9017.292
170.9360, 7969.919
172.1610, 7001.749
173.3850, 6276.914
174.6100, 5610.408
175.8340, 5053.199
177.0580, 4681.259
178.2820, 4367.471
179.5050, 3941.801
180.7290, 3734.245
181.9520, 3566.804
183.1760, 3479.477
184.3990, 3624.262
185.6220, 3637.161
186.8450, 4100.170
188.0670, 4579.291
189.2900, 5416.522
190.5120, 6110.861
191.7340, 6582.310
192.9560, 6069.866
194.1780, 5162.527
195.4000, 4332.295
196.6220, 3547.167
197.8430, 3075.144
199.0640, 2699.745
200.2860, 2579.189
201.5070, 2615.465
202.7270, 2730.553
203.9480, 2644.491
205.1690, 2518.299
206.3890, 2753.948
207.6090, 2988.712
208.8290, 3428.984
210.0490, 3393.672
211.2690, 3042.808
212.4890, 2495.868
213.7080, 1840.367
214.9280, 1326.183
216.1470, 892.9287
217.3660, 593.9622
218.5850, 422.2732
219.8030, 252.8506
221.0220, 110.6841
222.2400, 99.76587
223.4590, 88.97485
224.6770, 57.12329
225.8950, 168.8455
227.1120, 217.8806
228.3300, 430.1252
229.5480, 577.0925
230.7650, 872.0601
231.9820, 1259.848
233.1990, 1809.898
234.4160, 2338.965
235.6330, 3187.406
236.8490, 4581.630
238.0660, 6068.974
239.2820, 8297.402
240.4980, 11253.72
241.7140, 14674.10
242.9300, 17821.61
244.1460, 19988.36
245.3610, 20477.89
246.5770, 19141.56
247.7920, 17001.37
249.0070, 14162.30
250.2220, 12238.36
251.4370, 10316.54
252.6510, 8686.846
253.8660, 7433.272
255.0800, 6426.814
256.2940, 5648.471
257.5080, 5082.241
258.7220, 4757.124
259.9360, 4514.112
261.1490, 4093.208
262.3630, 3568.407
263.5760, 3353.708
264.7890, 3038.111
266.0020, 2980.613
267.2150, 2844.211
268.4270, 2719.696
269.6400, 2590.691
270.8520, 2557.571
272.0640, 2577.540
273.2760, 2483.600
274.4880, 2493.752
275.7000, 2472.994
276.9120, 2584.326
278.1230, 2546.749
279.3340, 2417.265
280.5450, 2361.870
281.7560, 2491.566
282.9670, 2339.352
284.1780, 2354.226
285.3880, 2347.188
286.5980, 2311.235
287.8090, 2252.366
289.0190, 2316.783
290.2290, 2341.138
291.4380, 2510.608
292.6480, 2647.909
293.8570, 3022.371
295.0670, 3325.312
296.2760, 3764.186
297.4850, 4337.186
298.6930, 4773.885
299.9020, 5276.927
301.1110, 5881.546
302.3190, 6641.790
303.5270, 7469.871
304.7350, 8254.959
305.9430, 9137.109
307.1510, 10087.32
308.3580, 10943.59
309.5660, 12188.93
310.7730, 13048.32
311.9800, 13855.77
313.1870, 14601.29
314.3940, 15251.86
315.6010, 14992.49
316.8070, 15085.18
318.0130, 14504.93
319.2200, 14006.74
320.4260, 13019.59
321.6310, 11898.51
322.8370, 11082.47
324.0430, 9648.486
325.2480, 8727.554
326.4540, 7528.674
327.6590, 6556.844
328.8640, 5804.067
330.0680, 4973.338
331.2730, 4438.659
332.4780, 3782.030
333.6820, 3247.451
334.8860, 2756.921
336.0900, 2344.439
337.2940, 1984.626
338.4980, 1708.622
339.7010, 1448.285
340.9050, 1170.996
342.1080, 1039.754
343.3110, 804.5596
344.5140, 682.4482
345.7170, 534.4214
346.9200, 451.4805
348.1220, 303.6250
349.3240, 271.8574
350.5270, 183.1772
351.7290, 148.5864
352.9310, 89.08447
354.1320, 135.6724
355.3340, 110.3496
356.5350, 158.1187
357.7370, 234.9761
358.9380, 286.9189
360.1390, 353.9414
361.3400, 333.0400
362.5400, 271.2129
363.7410, 204.4585
364.9410, 158.0967
366.1410, 105.1655
367.3410, 2.624512
368.5410, 70.86230
369.7410, 226.3281
370.9400, 244.8438
372.1400, 298.4199
373.3390, 288.0815
374.5380, 319.8267
375.7370, 311.6699
376.9360, 348.6099
378.1350, 307.6636
379.3330, 383.8145
380.5310, 302.2104
381.7300, 282.0859
382.9280, 187.9443
384.1260, 145.4580
385.3230, 142.9995
386.5210, 7.568359
387.7180, 36.89502
388.9160, 158.4077
390.1130, 203.9785
391.3100, 254.6064
392.5060, 397.2910
393.7030, 401.0322
394.9000, 596.8301
396.0960, 656.6836
397.2920, 855.5928
398.4880, 969.5571
399.6840, 1153.576
400.8800, 1296.650
402.0750, 1464.779
403.2710, 1702.962
404.4660, 1935.198
405.6610, 2030.488
406.8560, 2119.832
408.0510, 2223.228
409.2450, 2215.677
410.4400, 2151.180
411.6340, 2206.734
412.8280, 2241.341
414.0220, 2025.000
415.2160, 2095.711
416.4100, 1892.474
417.6030, 1631.288
418.7970, 1590.153
419.9900, 1402.070
421.1830, 1353.038
422.3760, 991.0562
423.5690, 747.1255
424.7610, 717.2456
425.9540, 554.4160
427.1460, 412.6362
428.3380, 387.9067
429.5300, 346.2271
430.7220, 167.5967
431.9140, 15.01660
433.1050, 18.45996
434.2970, 10.07129
435.4880, 176.5889
436.6790, 93.16992
437.8700, 118.7769
439.0610, 134.4199
440.2510, 80.10742
441.4420, 54.81543
442.6320, 96.53027
443.8220, 32.26611
445.0120, 78.00000
446.2020, 95.31055
447.3910, 195.9648
448.5810, 228.0806
449.7700, 339.5396
450.9600, 380.0635
452.1490, 411.6479
453.3370, 505.2852
454.5260, 415.9746
455.7150, 550.7144
456.9030, 557.5146
458.0910, 491.3647
459.2800, 583.2671
460.4670, 574.2285
461.6550, 638.2461
462.8430, 595.3203
464.0300, 573.4502
465.2180, 689.6338
466.4050, 707.8662
467.5920, 734.1494
468.7790, 821.5054
469.9650, 853.0278
471.1520, 916.3364
472.3380, 966.8477
473.5250, 931.4141
474.7110, 978.0371
475.8970, 1144.709
477.0820, 1174.431
478.2680, 1337.203
479.4540, 1380.023
480.6390, 1534.896
481.8240, 1641.820
483.0090, 1760.793
484.1940, 1995.817
485.3780, 2327.890
486.5630, 2551.012
487.7470, 2735.186
488.9320, 3045.410
490.1160, 3198.683
491.3000, 3533.006
492.4830, 3823.378
493.6670, 3905.801
494.8500, 3968.272
496.0340, 4132.792
497.2170, 4070.363
498.4000, 3998.984
499.5820, 3751.653
500.7650, 3634.371
501.9480, 3335.138
503.1300, 3117.954
504.3120, 2808.819
505.4940, 2604.732
506.6760, 2396.694
507.8580, 2125.705
509.0390, 1946.764
510.2210, 1727.983
511.4020, 1549.543
512.5830, 1433.802
513.7640, 1273.013
514.9450, 1257.273
516.1250, 1122.066
517.3060, 1047.104
518.4860, 1065.565
519.6660, 989.0015
520.8460, 1047.654
522.0260, 1110.160
523.2060, 884.1060
524.3850, 1193.153
525.5650, 1115.332
526.7440, 1158.836
527.9230, 1280.493
529.1020, 1360.224
530.2810, 1434.865
531.4590, 1543.900
532.6380, 1624.199
533.8160, 1735.435
534.9940, 1913.733
536.1720, 2026.092
537.3500, 2126.514
538.5270, 2068.997
539.7050, 2240.542
540.8820, 2173.148
542.0590, 2177.815
543.2360, 2274.546
544.4130, 2190.337
545.5900, 2081.190
546.7660, 2011.104
547.9430, 1947.080
549.1190, 1922.117
550.2950, 1674.216
551.4710, 1646.376
552.6470, 1470.598
553.8220, 1422.881
554.9980, 1231.225
556.1730, 1176.630
557.3480, 986.0957
558.5230, 857.6235
559.6980, 685.2124
560.8730, 729.8618
562.0470, 616.5728
563.2220, 514.3438
564.3960, 477.1768
565.5700, 419.0698
566.7440, 389.0239
567.9170, 339.8926
569.0910, 304.1138
570.2640, 275.2500
571.4380, 207.4468
572.6110, 225.7041
573.7840, 189.8145
574.9570, 321.1221
576.1290, 321.0601
577.3020, 294.0796
578.4740, 397.6787
579.6460, 303.9297
580.8180, 253.3774
581.9900, 272.8296
583.1620, 328.7495
584.3330, 363.9458
585.5040, 324.1660
586.6760, 515.0264
587.8470, 482.7627
589.0180, 595.8979
590.1880, 562.2026
591.3590, 614.0361
592.5290, 703.9238
593.7000, 779.2017
594.8700, 899.3267
596.0400, 1030.056
597.2090, 1059.196
598.3790, 1200.137
599.5490, 1355.512
600.7180, 1510.534
601.8870, 1600.830
603.0560, 1737.596
604.2250, 1929.039
605.3940, 2056.006
606.5620, 2246.096
607.7300, 2425.634
608.8990, 2675.742
610.0670, 2902.854
611.2350, 3186.486
612.4020, 3321.956
613.5700, 3712.812
614.7370, 3932.859
615.9050, 4217.510
617.0720, 4377.346
618.2390, 4702.155
619.4060, 5112.038
620.5720, 5326.651
621.7390, 5597.692
622.9050, 5952.822
624.0710, 6269.032
625.2370, 6493.313
626.4030, 6821.679
627.5690, 7197.120
628.7340, 7491.644
629.9000, 7830.234
631.0650, 8121.684
632.2300, 8347.644
633.3950, 8633.466
634.5600, 8880.368
635.7240, 9028.518
636.8890, 9107.405
638.0530, 9186.544
639.2170, 9102.754
640.3810, 9117.035
641.5450, 9047.384
642.7080, 8938.072
643.8720, 8897.288
645.0350, 8660.845
646.1980, 8393.460
647.3610, 8177.141
648.5240, 7801.889
649.6870, 7582.700
650.8490, 7347.589
652.0120, 6885.564
653.1740, 6700.658
654.3360, 6188.875
655.4980, 5993.230
656.6600, 5544.715
657.8210, 5296.342
658.9830, 5082.103
660.1440, 4687.006
661.3050, 4371.046
662.4660, 4094.243
663.6270, 3845.578
664.7870, 3497.046
665.9480, 3214.625
667.1080, 3008.308
668.2680, 2803.091
669.4280, 2677.727
670.5880, 2593.863
671.7480, 2391.837
672.9070, 2263.148
674.0670, 2205.951
675.2260, 1909.090
676.3850, 1780.282
677.5440, 1551.526
678.7030, 1562.822
679.8610, 1416.174
681.0200, 1254.577
682.1780, 1252.030
683.3360, 1103.534
684.4940, 1158.090
685.6520, 909.6953
686.8090, 850.3496
687.9670, 836.0522
689.1240, 775.8027
690.2810, 784.5991
691.4380, 697.4419
692.5950, 658.3330
693.7520, 594.4810
694.9080, 572.2529
696.0650, 444.2812
697.2210, 383.3535
698.3770, 309.4707
699.5330, 372.6309
700.6880, 297.8350
701.8440, 357.0830
702.9990, 251.3730
704.1550, 192.7056
705.3100, 276.0801
706.4650, 254.4956
707.6190, 172.9517
708.7740, 198.4478
709.9290, 125.9844
711.0830, 155.5601
712.2370, 114.1753
713.3910, 140.8413
714.5450, 108.5581
715.6980, 77.77197
716.8520, 21.19678
718.0050, 8.137207
719.1580, 53.15796
720.3110, 35.26196
721.4640, 0.5646970
722.6170, 58.32812
723.7700, 76.96582
724.9220, 7.682861
726.0740, 32.29785
727.2260, 97.11353
728.3780, 5.442627
729.5300, 105.9683
730.6810, 81.49487
731.8330, 36.01465
732.9840, 28.51221
734.1350, 10.41504
735.2860, 79.43481
736.4370, 13.86938
737.5880, 27.20776
738.7380, 70.59424
739.8880, 49.91016
741.0390, 60.28589
742.1890, 49.56445
743.3380, 34.16846
744.4880, 22.21436
745.6380, 15.46191
746.7870, 31.56836
747.9360, 56.67773
749.0850, 90.01807
750.2340, 35.40894
751.3830, 42.81909
752.5310, 45.60522
753.6800, 20.15967
754.8280, 2.313477
755.9760, 20.12891
757.1240, 47.59180
758.2720, 19.48413
759.4190, 54.16479
760.5670, 18.59912
761.7140, 70.31494
762.8610, 58.25610
764.0080, 39.99316
765.1550, 53.39600
766.3020, 76.16602
767.4480, 79.00659
768.5950, 45.49121
769.7410, 95.49365
770.8870, 54.41431
772.0330, 40.27319
773.1780, 88.76392
774.3240, 193.7356
775.4690, 96.88501
776.6140, 154.4866
777.7590, 203.0513
778.9040, 64.33228
780.0490, 109.2073
781.1940, 122.2910
782.3380, 94.10864
783.4820, 224.5793
784.6260, 183.5459
785.7700, 193.3550
786.9140, 133.1145
788.0580, 110.4172
789.2010, 181.5444
790.3450, 178.7361
791.4880, 194.7676
792.6310, 169.1047
793.7730, 152.2881
794.9160, 190.6362
796.0590, 228.6841
797.2010, 249.4116
798.3430, 176.7627
799.4850, 206.2393
800.6270, 234.6160
801.7690, 273.1211
802.9100, 283.3245
804.0520, 287.6494
805.1930, 320.5134
806.3340, 294.9302
807.4750, 339.6870
808.6160, 272.1436
809.7560, 352.3599
810.8970, 341.1172
812.0370, 301.0393
813.1770, 386.0559
814.3170, 354.6113
815.4570, 349.5447
816.5960, 324.2891
817.7360, 420.8496
818.8750, 413.4177
820.0140, 392.5212
821.1530, 395.3191
822.2920, 353.0605
823.4310, 402.5554
824.5690, 445.0015
825.7070, 453.3901
826.8460, 360.5208
827.9840, 470.6519
829.1220, 401.3225
830.2590, 394.5557
831.3970, 429.8650
832.5340, 423.1577
833.6710, 456.0496
834.8080, 440.2170
835.9450, 416.1421
837.0820, 485.2761
838.2190, 456.3931
839.3550, 456.3254
840.4910, 449.2476
841.6270, 455.1775
842.7630, 440.9053
843.8990, 427.0881
845.0350, 418.4392
846.1700, 391.0945
847.3060, 393.7729
848.4410, 383.5242
849.5760, 409.8643
850.7100, 370.6775
851.8450, 323.0864
852.9800, 405.5498
854.1140, 350.1108
855.2480, 336.7336
856.3820, 363.2356
857.5160, 337.4988
858.6500, 357.7183
859.7830, 255.3521
860.9170, 288.4214
862.0500, 215.3372
863.1830, 296.6116
864.3160, 255.6506
865.4480, 227.4907
866.5810, 237.8521
867.7130, 156.1025
868.8460, 198.0908
869.9780, 180.2175
871.1100, 166.8210
872.2410, 125.9983
873.3730, 112.2678
874.5050, 130.3162
875.6360, 115.6091
876.7670, 139.6941
877.8980, 43.33545
879.0290, 152.3311
880.1590, 75.77612
881.2900, 27.23340
882.4200, 108.1665
883.5500, 42.48071
884.6800, 51.71191
885.8100, 20.50513
886.9400, 14.47144
888.0690, 8.021240
889.1990, 17.39587
890.3280, 12.48584
891.4570, 26.10632
892.5860, 9.444702
893.7140, 15.75745
894.8430, 26.88818
895.9710, 54.36304
897.1000, 26.05786
898.2280, 3.175415
899.3560, 40.56104
900.4830, 2.532227
901.6110, 39.43933
902.7380, 33.58167
903.8660, 17.40784
904.9930, 7.477417
906.1200, 38.85718
907.2460, 21.28162
908.3730, 14.77893
909.5000, 21.84106
910.6260, 24.09949
911.7520, 1.094849
912.8780, 2.195068
914.0040, 32.22876
915.1290, 17.18604
916.2550, 13.10779
917.3800, 19.88904
918.5050, 67.68030
919.6300, 47.44714
920.7550, 22.03625
921.8800, 57.64404
923.0040, 5.899658
924.1290, 93.47290
925.2530, 90.81396
926.3770, 50.07227
927.5010, 84.26636
928.6250, 94.42896
929.7480, 85.50647
930.8720, 224.5248
931.9950, 132.0223
933.1180, 171.5334
934.2410, 37.39856
935.3640, 87.20374
936.4860, 80.00195
937.6090, 70.67627
938.7310, 63.28760
939.8530, 62.49536
940.9750, 86.38074
942.0970, 67.81323
943.2180, 84.18042
944.3400, 98.53259
945.4610, 67.77710
946.5820, 121.1460
947.7030, 113.5065
948.8240, 150.5680
949.9450, 119.5955
951.0650, 67.54309
952.1860, 148.5010
953.3060, 147.4778
954.4260, 104.2471
955.5460, 127.9897
956.6650, 131.8590
957.7850, 151.5364
958.9040, 156.2161
960.0230, 161.9236
961.1420, 191.4540
962.2610, 189.9639
963.3800, 132.3821
964.4990, 174.7798
965.6170, 163.9844
966.7350, 164.2048
967.8530, 210.2975
968.9710, 175.4554
970.0890, 202.4396
971.2070, 175.3699
972.3240, 175.2563
973.4410, 195.0759
974.5580, 194.0427
975.6750, 190.7594
976.7920, 212.4265
977.9090, 209.1371
979.0250, 198.8293
980.1410, 213.3551
981.2580, 207.8538
982.3740, 196.2518
983.4890, 252.6877
984.6050, 183.0227
985.7200, 228.3420
986.8360, 218.7108
987.9510, 203.8395
989.0660, 193.1716
990.1810, 204.1920
991.2950, 229.1589
992.4100, 226.1061
993.5240, 236.0662
994.6390, 250.9000
995.7530, 247.7052
996.8660, 252.5591
997.9800, 235.3130
999.0940, 250.0768
1000.207, 245.4757
1001.320, 266.2830
1002.433, 242.8569
1003.546, 253.4633
1004.659, 240.9578
1005.772, 251.5182
1006.884, 283.9553
1007.996, 239.2251
1009.108, 271.6624
1010.220, 261.8524
1011.332, 261.9988
1012.444, 258.2419
1013.555, 270.5789
1014.666, 243.3284
1015.777, 263.6628
1016.888, 280.4191
1017.999, 302.3025
1019.110, 286.2695
1020.220, 271.5558
1021.331, 319.4705
1022.441, 254.7307
1023.551, 308.5602
1024.661, 262.7474
1025.770, 264.7742
1026.880, 237.8279
1027.989, 255.4677
1029.098, 230.3257
1030.207, 253.3234
1031.316, 245.9812
1032.425, 219.2966
1033.533, 247.8198
1034.642, 211.6311
1035.750, 201.0448
1036.858, 187.4666
1037.966, 193.4164
1039.073, 226.4708
1040.181, 219.8204
1041.288, 212.1998
1042.396, 216.9509
1043.503, 212.1013
1044.610, 210.5339
1045.716, 211.5159
1046.823, 205.8744
1047.929, 206.5846
1049.036, 195.6135
1050.142, 234.4459
1051.248, 187.5066
1052.353, 177.8610
1053.459, 216.7396
1054.564, 179.6847
1055.670, 228.5405
1056.775, 208.9811
1057.880, 188.4705
1058.985, 223.8140
1060.089, 213.4237
1061.194, 183.6580
1062.298, 199.9546
1063.402, 188.0033
1064.506, 203.4226
1065.610, 157.1359
1066.713, 193.0193
1067.817, 180.8209
1068.920, 166.6672
1070.023, 189.4678
1071.126, 188.0220
1072.229, 162.4487
1073.332, 193.5669
1074.435, 172.3540
1075.537, 182.9357
1076.639, 160.4075
1077.741, 200.0419
1078.843, 123.0461
1079.945, 109.8870
1081.046, 176.5422
1082.148, 159.7861
1083.249, 169.4360
1084.350, 143.3052
1085.451, 124.2377
1086.551, 177.1637
1087.652, 149.5295
1088.752, 104.4574
1089.853, 135.1984
1090.953, 120.0518
1092.053, 99.04150
1093.152, 126.8224
1094.252, 117.8146
1095.351, 125.7784
1096.451, 115.2523
1097.550, 161.0789
1098.649, 128.7988
1099.748, 146.4291
1100.846, 115.3741
1101.945, 143.0552
1103.043, 147.8704
1104.141, 137.4930
1105.239, 150.1473
1106.337, 90.07361
1107.434, 135.7544
1108.532, 133.3246
1109.629, 90.07715
1110.726, 118.8279
1111.823, 125.4775
1112.920, 118.2567
1114.017, 128.6680
1115.113, 105.7400
1116.210, 116.6553
1117.306, 106.0509
1118.402, 80.74951
1119.498, 128.2772
1120.593, 61.65710
1121.689, 128.9445
1122.784, 158.2848
1123.879, 111.8540
1124.974, 95.32556
1126.069, 113.8394
1127.164, 107.4169
1128.259, 83.25269
1129.353, 94.87024
1130.447, 79.61060
1131.541, 98.17310
1132.635, 102.7034
1133.729, 92.51001
1134.822, 72.63245
1135.916, 87.02893
1137.009, 58.35303
1138.102, 75.70007
1139.195, 86.16333
1140.288, 50.42078
1141.380, 83.79382
1142.473, 114.1106
1143.565, 45.41016
1144.657, 32.68848
1145.749, 48.99451
1146.841, 111.2102
1147.932, 90.70386
1149.024, 53.01953
1150.115, 79.60925
1151.206, 14.93433
1152.297, 94.19470
1153.388, 90.66614
1154.479, 50.93604
1155.569, 18.87927
1156.659, 67.17737
1157.750, 48.48633
1158.839, 29.82568
1159.929, 35.13025
1161.019, 45.35217
1162.108, 51.70935
1163.198, 72.06104
1164.287, 63.33557
1165.376, 66.74390
1166.465, 66.01636
1167.553, 39.27954
1168.642, 46.49097
1169.730, 15.75134
1170.818, 13.16150
1171.906, 12.71875
1172.994, 5.990479
1174.082, 18.44531
1175.170, 18.90747
1176.257, 29.39282
1177.344, 46.89990
1178.431, 22.40149
1179.518, 34.93066
1180.605, 23.44128
1181.691, 23.98889
1182.778, 28.91479
1183.864, 15.38550
1184.950, 29.46179
1186.036, 53.92102
1187.122, 14.46814
1188.207, 36.03149
1189.292, 46.56519
1190.378, 12.12036
1191.463, 19.67395
1192.548, 32.25659
1193.632, 42.81897
1194.717, 16.36194
1195.801, 12.89563
1196.886, 52.30273
1197.970, 31.82556
1199.054, 34.88098
1200.137, 4.802246
1201.221, 10.32397
1202.305, 2.546021
1203.388, 27.22424
1204.471, 4.034546
1205.554, 37.52722
1206.637, 30.97607
1207.719, 38.43201
1208.802, 68.96985
1209.884, 37.28406
1210.966, 65.56018
1212.048, 6.063843
1213.130, 56.54297
1214.212, 28.04199
1215.293, 52.46704
1216.374, 33.81482
1217.456, 28.31165
1218.536, 10.14966
1219.617, 2.125610
1220.698, 22.53625
1221.778, 3.116577
1222.859, 52.19543
1223.939, 43.57544
1225.019, 35.91968
1226.099, 12.31287
1227.178, 20.65369
1228.258, 16.13123
1229.337, 29.53516
1230.417, 40.00989
1231.496, 23.36377
1232.574, 69.89978
1233.653, 21.36938
1234.732, 5.826294
1235.810, 6.706909
1236.888, 21.55603
1237.966, 34.01367
1239.044, 26.46521
1240.122, 12.73877
1241.199, 9.135742
1242.277, 0.5640870
1243.354, 6.967773
1244.431, 4.756714
1245.508, 5.829102
1246.585, 4.231812
1247.661, 15.89331
1248.738, 30.84778
1249.814, 30.29065
1250.890, 24.47607
1251.966, 27.91895
1253.042, 17.36182
1254.117, 28.77112
1255.193, 47.35278
1256.268, 22.77844
1257.343, 9.701416
1258.418, 3.599976
1259.493, 9.774780
1260.567, 3.606689
1261.642, 2.745117
1262.716, 12.15637
1263.790, 28.51111
1264.864, 31.81580
1265.938, 42.91760
1267.011, 43.02698
1268.085, 53.70508
1269.158, 44.05530
1270.231, 37.26111
1271.304, 47.21655
1272.377, 45.64050
1273.450, 23.86243
1274.522, 31.01270
1275.594, 15.28320
1276.666, 6.284180
1277.738, 24.12109
1278.810, 4.572144
1279.882, 66.85242
1280.953, 46.91016
1282.025, 8.328857
1283.096, 8.749634
1284.167, 15.93506
1285.238, 17.52527
1286.308, 37.87720
1287.379, 1.859375
1288.449, 21.40649
1289.519, 27.67310
1290.589, 37.95300
1291.659, 27.24377
1292.729, 15.67468
1293.798, 24.44019
1294.868, 27.25879
1295.937, 24.36841
1297.006, 28.10815
1298.075, 32.59216
1299.143, 26.82581
1300.212, 33.56323
1301.280, 33.83582
1302.348, 30.29956
1303.416, 32.13196
1304.484, 33.73999
1305.552, 26.04321
1306.620, 25.42175
1307.687, 15.65393
1308.754, 11.93213
1309.821, 46.23108
1310.888, 12.44922
1311.955, 9.805420
1313.021, 13.98877
1314.088, 28.31470
1315.154, 25.70996
1316.220, 34.88586
1317.286, 33.17822
1318.352, 40.61731
1319.417, 38.81445
1320.483, 7.045044
1321.548, 17.33386
1322.613, 48.66528
1323.678, 23.88831
1324.743, 41.30969
1325.807, 48.76880
1326.872, 26.06360
1327.936, 80.60120
1329.000, 49.78748
1330.064, 5.015259
1331.128, 14.15271
1332.191, 13.53625
1333.255, 26.74072
1334.318, 26.72876
1335.381, 20.09204
1336.444, 11.46301
1337.507, 32.85022
1338.569, 17.74988
1339.632, 22.13574
1340.694, 48.38623
1341.756, 36.81055
1342.818, 25.11243
1343.880, 42.48901
1344.941, 22.84875
1346.003, 2.170288
1347.064, 49.19360
1348.125, 19.45154
1349.186, 44.81348
1350.247, 7.966309
1351.308, 39.33838
1352.368, 30.71069
1353.428, 17.10156
1354.489, 25.35413
1355.549, 41.75073
1356.608, 44.02271
1357.668, 24.34741
1358.727, 40.71045
1359.787, 5.050903
1360.846, 40.43005
1361.905, 34.72083
1362.964, 53.94788
1364.022, 43.03760
1365.081, 46.79639
1366.139, 46.58447
1367.197, 37.00037
1368.255, 37.35486
1369.313, 35.38159
1370.371, 4.795776
1371.428, 32.85364
1372.486, 24.95825
1373.543, 20.16089
1374.600, 50.35498
1375.657, 30.58594
1376.713, 39.88037
1377.770, 55.18860
1378.826, 40.94531
1379.882, 37.98047
1380.938, 50.95325
1381.994, 2.773315
1383.050, 42.50671
1384.106, 0.7513430
1385.161, 45.69775
1386.216, 11.96387
1387.271, 5.028076
1388.326, 14.85291
1389.381, 17.28967
1390.435, 25.46924
1391.490, 14.70911
1392.544, 18.94604
1393.598, 40.17957
1394.652, 19.40833
1395.705, 28.63367
1396.759, 37.85620
1397.812, 10.92322
1398.866, 28.29224
1399.919, 16.50977
1400.972, 25.71631
1402.024, 10.93811
1403.077, 20.15479
1404.129, 44.12146
1405.181, 9.387451
1406.233, 8.393188
1407.285, 30.58655
1408.337, 44.77991
1409.389, 67.74817
1410.440, 11.94666
1411.491, 4.396729
1412.542, 19.77942
1413.593, 34.96045
1414.644, 5.013672
1415.695, 11.09253
1416.745, 19.14417
1417.795, 31.14685
1418.845, 11.11206
1419.895, 8.973389
1420.945, 14.43811
1421.995, 31.84692
1423.044, 9.746094
1424.093, 16.66382
1425.142, 9.077026
1426.191, 22.49219
1427.240, 27.88879
1428.289, 23.27063
1429.337, 21.19788
1430.385, 15.97864
1431.433, 10.37000
1432.481, 10.75269
1433.529, 22.06885
1434.577, 24.43359
1435.624, 8.817505
1436.672, 5.199585
1437.719, 40.58020
1438.766, 14.16833
1439.812, 15.17664
1440.859, 18.57361
1441.905, 29.07324
1442.952, 40.30249
1443.998, 4.691528
1445.044, 52.08008
1446.090, 43.37195
1447.135, 26.75854
1448.181, 36.08398
1449.226, 54.47546
1450.271, 1.848633
1451.316, 9.239380
1452.361, 34.63037
1453.405, 1.932129
1454.450, 42.32202
1455.494, 11.28430
1456.538, 34.10938
1457.582, 33.50342
1458.626, 9.803467
1459.670, 19.20129
1460.713, 17.60718
1461.757, 24.01453
1462.800, 69.42371
1463.843, 2.530640
1464.886, 61.69397
1465.928, 23.04468
1466.971, 19.71606
1468.013, 32.08862
1469.055, 34.42651
1470.097, 24.81592
1471.139, 29.22498
1472.181, 26.59570
1473.222, 17.95642
1474.263, 14.26123
1475.305, 65.57385
1476.346, 49.88318
1477.386, 77.29651
1478.427, 22.98254
1479.468, 38.36902
1480.508, 10.54016
1481.548, 57.93225
1482.588, 72.10376
1483.628, 56.44690
1484.668, 22.46985
1485.707, 27.70850
1486.747, 79.08081
1487.786, 46.36926
1488.825, 72.50452
1489.864, 31.86414
1490.902, 61.89819
1491.941, 56.90381
1492.979, 12.05078
1494.017, 23.51050
1495.055, 25.47925
1496.093, 47.67688
1497.131, 48.69885
1498.168, 34.27649
1499.206, 56.80591
1500.243, 50.07642
1501.280, 59.11951
1502.317, 23.75159
1503.354, 45.34314
1504.390, 39.06421
1505.426, 50.49963
1506.463, 56.26599
1507.499, 25.05469
1508.535, 43.80762
1509.570, 48.17847
1510.606, 6.975342
1511.641, 11.58435
1512.676, 21.89490
1513.711, 39.58826
1514.746, 45.09351
1515.781, 32.65088
1516.816, 49.25293
1517.850, 31.74841
1518.884, 39.83179
1519.918, 60.32910
1520.952, 46.99207
1521.986, 52.65491
1523.019, 47.42737
1524.053, 26.08569
1525.086, 32.92871
1526.119, 24.98145
1527.152, 17.01355
1528.185, 30.10278
1529.217, 14.75073
1530.250, 35.59387
1531.282, 61.47156
1532.314, 68.44043
1533.346, 5.537720
1534.377, 18.46753
1535.409, 34.40674
1536.440, 30.88452
1537.472, 49.94458
1538.503, 66.15405
1539.534, 26.41663
1540.564, 45.57922
1541.595, 30.06299
1542.625, 9.119995
1543.656, 0.0000000E+00
##END=



