##NAMES=Brookite
##RRUFFID=R050363
##IDEAL CHEMISTRY=Ti^4+^O_2_
##LOCALITY=Magnet Cove, Arkansas, USA
##OWNER=RRUFF
##SOURCE=University of Arizona Mineral Museum
##DESCRIPTION=Black fragment of a prismatic crystal associated with quartz
##STATUS=The identification of this mineral has been confirmed by X-ray diffraction and chemical analysis
##URL=rruff.info/R050363
##MEASURED CHEMISTRY=(Ti_0.94_Nb^5+^_0.03_Fe^3+^_0.03_)_Î£=1_O_2_
##PIN_ID=L01274
##ORIENTATION=Laser parallel to c* (0 0 1). Fiducial mark perpendicular to laser is parallel to a [1 0 0]
51.43100, 0.0000000E+00
52.67100, 26.04962
53.91000, 104.8483
55.14900, 151.4263
56.38700, 152.5071
57.62600, 228.7891
58.86400, 213.4901
60.10300, 163.9348
61.34100, 53.26508
62.57900, 8.894775
63.81700, 104.9687
65.05400, 53.37964
66.29200, 13.52185
67.52900, 49.25476
68.76700, 258.6448
70.00400, 353.4181
71.24100, 444.9446
72.47700, 712.9626
73.71400, 752.3655
74.95100, 1005.237
76.18700, 1477.400
77.42300, 1377.694
78.65900, 1350.980
79.89500, 1573.134
81.13100, 1975.052
82.36700, 2658.651
83.60200, 3244.854
84.83700, 3044.590
86.07200, 2672.791
87.30800, 2774.394
88.54200, 2986.348
89.77700, 3341.603
91.01200, 3606.845
92.24600, 4420.643
93.48000, 4380.237
94.71400, 4451.791
95.94800, 4921.250
97.18200, 4846.920
98.41600, 4876.507
99.64900, 5002.630
100.8830, 4808.312
102.1160, 4802.726
103.3490, 5035.845
104.5820, 5457.651
105.8150, 6425.121
107.0470, 7466.244
108.2800, 8994.020
109.5120, 10019.47
110.7440, 8670.606
111.9760, 7582.433
113.2080, 7816.932
114.4400, 8648.079
115.6710, 9723.855
116.9030, 10238.24
118.1340, 10922.21
119.3650, 12015.76
120.5960, 13389.87
121.8270, 15462.51
123.0580, 17920.69
124.2880, 18534.43
125.5190, 17539.94
126.7490, 16146.81
127.9790, 15176.03
129.2090, 14766.33
130.4390, 15290.68
131.6680, 15627.02
132.8980, 16276.39
134.1270, 18085.91
135.3560, 19040.60
136.5850, 20801.46
137.8140, 23034.53
139.0430, 26050.81
140.2710, 28856.30
141.5000, 31702.02
142.7280, 35842.98
143.9560, 39656.17
145.1840, 44554.60
146.4120, 49695.29
147.6390, 54560.23
148.8670, 58289.41
150.0940, 60696.86
151.3210, 61214.55
152.5490, 59753.50
153.7750, 56193.71
155.0020, 50584.18
156.2290, 44063.91
157.4550, 37851.89
158.6810, 31948.13
159.9080, 26807.62
161.1340, 22526.42
162.3590, 19110.63
163.5850, 16540.40
164.8110, 14116.78
166.0360, 13628.85
167.2610, 10529.57
168.4860, 9372.889
169.7110, 9319.754
170.9360, 7307.027
172.1610, 5937.597
173.3850, 5023.375
174.6100, 4433.339
175.8340, 3823.486
177.0580, 3412.817
178.2820, 3122.331
179.5050, 2808.028
180.7290, 2579.905
181.9520, 2306.965
183.1760, 2179.205
184.3990, 2067.624
185.6220, 2035.221
186.8450, 2062.994
188.0670, 1952.942
189.2900, 2010.065
190.5120, 2010.360
191.7340, 1954.826
192.9560, 2043.462
194.1780, 1960.267
195.4000, 1944.427
196.6220, 1940.782
197.8430, 2003.570
199.0640, 2090.805
200.2860, 2364.079
201.5070, 2801.177
202.7270, 2940.615
203.9480, 2252.456
205.1690, 1577.152
206.3890, 999.4102
207.6090, 1066.510
208.8290, 1259.021
210.0490, 1250.866
211.2690, 1436.124
212.4890, 1463.282
213.7080, 1549.589
214.9280, 1472.491
216.1470, 1357.785
217.3660, 1299.456
218.5850, 1322.489
219.8030, 1243.871
221.0220, 1362.589
222.2400, 1428.631
223.4590, 1595.986
224.6770, 1678.645
225.8950, 1922.599
227.1120, 2362.837
228.3300, 2547.354
229.5480, 3017.139
230.7650, 3339.188
231.9820, 3922.491
233.1990, 4753.041
234.4160, 5750.835
235.6330, 6880.864
236.8490, 8409.125
238.0660, 10281.61
239.2820, 12703.32
240.4980, 15612.23
241.7140, 18671.36
242.9300, 21530.70
244.1460, 22752.24
245.3610, 21729.97
246.5770, 18668.91
247.7920, 15044.04
249.0070, 11539.35
250.2220, 8964.855
251.4370, 6737.542
252.6510, 5092.409
253.8660, 4024.454
255.0800, 3182.674
256.2940, 2446.066
257.5080, 2103.628
258.7220, 2178.356
259.9360, 1623.618
261.1490, 1679.301
262.3630, 1155.513
263.5760, 917.8794
264.7890, 953.3994
266.0020, 1005.071
267.2150, 947.4678
268.4270, 1096.088
269.6400, 1074.759
270.8520, 1143.371
272.0640, 1361.882
273.2760, 1514.710
274.4880, 1740.191
275.7000, 2009.700
276.9120, 2131.263
278.1230, 2179.812
279.3340, 2188.951
280.5450, 2337.887
281.7560, 2300.517
282.9670, 2265.623
284.1780, 2191.457
285.3880, 2000.288
286.5980, 1745.683
287.8090, 1801.681
289.0190, 1624.810
290.2290, 1516.400
291.4380, 1697.021
292.6480, 1419.490
293.8570, 1138.182
295.0670, 1099.991
296.2760, 1121.917
297.4850, 950.9585
298.6930, 992.1147
299.9020, 900.3848
301.1110, 938.7671
302.3190, 858.2617
303.5270, 748.8672
304.7350, 864.5825
305.9430, 794.4067
307.1510, 760.3389
308.3580, 749.3770
309.5660, 855.5186
310.7730, 881.7622
311.9800, 955.1030
313.1870, 1020.540
314.3940, 1130.693
315.6010, 1178.692
316.8070, 1395.403
318.0130, 1441.202
319.2200, 1587.088
320.4260, 1663.061
321.6310, 1695.120
322.8370, 1819.265
324.0430, 1684.494
325.2480, 1700.808
326.4540, 1610.206
327.6590, 1303.687
328.8640, 1254.249
330.0680, 791.8945
331.2730, 811.6206
332.4780, 619.4272
333.6820, 277.3145
334.8860, 288.2812
336.0900, 205.3267
337.2940, 8.549316
338.4980, 45.34912
339.7010, 129.0776
340.9050, 195.7495
342.1080, 218.3984
343.3110, 184.0732
344.5140, 276.6802
345.7170, 164.2573
346.9200, 283.7588
348.1220, 138.2324
349.3240, 51.62109
350.5270, 8.108887
351.7290, 112.9673
352.9310, 341.9531
354.1320, 509.5068
355.3340, 695.3174
356.5350, 1033.715
357.7370, 1327.240
358.9380, 1703.883
360.1390, 1947.641
361.3400, 2316.512
362.5400, 2468.495
363.7410, 2342.588
364.9410, 2199.789
366.1410, 1891.098
367.3410, 1485.513
368.5410, 1154.033
369.7410, 1042.655
370.9400, 722.3804
372.1400, 507.2070
373.3390, 496.1338
374.5380, 325.1592
375.7370, 301.2832
376.9360, 254.5039
378.1350, 343.8203
379.3330, 308.2319
380.5310, 291.7373
381.7300, 239.3369
382.9280, 235.0288
384.1260, 309.8120
385.3230, 337.6865
386.5210, 271.6509
387.7180, 397.7046
388.9160, 348.8462
390.1130, 289.0771
391.3100, 292.3940
392.5060, 243.1338
393.7030, 321.2866
394.9000, 218.8618
396.0960, 273.5273
397.2920, 337.2852
398.4880, 206.1353
399.6840, 372.0708
400.8800, 292.0938
402.0750, 215.2046
403.2710, 234.3975
404.4660, 334.6694
405.6610, 350.0293
406.8560, 242.4834
408.0510, 223.0225
409.2450, 138.6587
410.4400, 53.38721
411.6340, 85.20264
412.8280, 62.87451
414.0220, 36.91504
415.2160, 167.9033
416.4100, 260.8989
417.6030, 157.9478
418.7970, 209.0142
419.9900, 426.1235
421.1830, 274.3711
422.3760, 317.6802
423.5690, 328.0903
424.7610, 281.6060
425.9540, 231.1860
427.1460, 295.8301
428.3380, 273.5732
429.5300, 96.40381
430.7220, 122.2446
431.9140, 121.1069
433.1050, 10.00928
434.2970, 62.15869
435.4880, 72.36279
436.6790, 187.6216
437.8700, 279.9492
439.0610, 395.3447
440.2510, 470.3779
441.4420, 592.1948
442.6320, 655.9336
443.8220, 817.5967
445.0120, 999.3262
446.2020, 1106.122
447.3910, 1134.983
448.5810, 1196.910
449.7700, 1379.901
450.9600, 1582.958
452.1490, 1621.079
453.3370, 1717.263
454.5260, 1831.513
455.7150, 1941.826
456.9030, 1975.202
458.0910, 2124.643
459.2800, 2092.146
460.4670, 2251.712
461.6550, 2243.340
462.8430, 2191.032
464.0300, 2396.786
465.2180, 2447.603
466.4050, 2392.480
467.5920, 2470.420
468.7790, 2454.421
469.9650, 2477.484
471.1520, 2662.608
472.3380, 2758.794
473.5250, 2756.040
474.7110, 2883.346
475.8970, 3043.714
477.0820, 3178.143
478.2680, 3491.631
479.4540, 3420.181
480.6390, 3606.602
481.8240, 3542.471
483.0090, 3723.815
484.1940, 3618.409
485.3780, 3602.928
486.5630, 3347.997
487.7470, 3207.728
488.9320, 3171.613
490.1160, 3158.899
491.3000, 2948.860
492.4830, 2775.944
493.6670, 2933.174
494.8500, 2822.515
496.0340, 2733.916
497.2170, 2653.379
498.4000, 2751.903
499.5820, 2774.486
500.7650, 2910.130
501.9480, 2955.832
503.1300, 3108.593
504.3120, 3162.414
505.4940, 3244.292
506.6760, 3277.229
507.8580, 3482.224
509.0390, 3692.275
510.2210, 3780.385
511.4020, 4071.552
512.5830, 4241.774
513.7640, 4524.055
514.9450, 4714.390
516.1250, 4965.783
517.3060, 5342.230
518.4860, 5510.734
519.6660, 6088.292
520.8460, 6447.906
522.0260, 6824.573
523.2060, 7272.298
524.3850, 7963.074
525.5650, 8501.904
526.7440, 9011.790
527.9230, 9636.729
529.1020, 10190.72
530.2810, 10887.77
531.4590, 11746.86
532.6380, 12443.02
533.8160, 13044.96
534.9940, 13654.48
536.1720, 14319.80
537.3500, 15119.33
538.5270, 15613.16
539.7050, 16112.36
540.8820, 16624.27
542.0590, 16905.62
543.2360, 17244.54
544.4130, 17429.23
545.5900, 17272.95
546.7660, 17235.14
547.9430, 17044.17
549.1190, 16800.17
550.2950, 16317.13
551.4710, 15958.37
552.6470, 15408.56
553.8220, 15021.77
554.9980, 14385.53
556.1730, 13748.01
557.3480, 13510.35
558.5230, 12676.19
559.6980, 12065.21
560.8730, 11806.13
562.0470, 11301.50
563.2220, 10677.88
564.3960, 10121.67
565.5700, 9728.178
566.7440, 9283.157
567.9170, 9041.612
569.0910, 8608.181
570.2640, 8381.932
571.4380, 8188.301
572.6110, 7923.243
573.7840, 7685.235
574.9570, 7482.940
576.1290, 7187.793
577.3020, 7125.973
578.4740, 6776.104
579.6460, 6535.289
580.8180, 6322.532
581.9900, 6248.829
583.1620, 6159.181
584.3330, 5826.587
585.5040, 5671.049
586.6760, 5308.565
587.8470, 5127.136
589.0180, 4949.760
590.1880, 4782.439
591.3590, 4693.171
592.5290, 4358.957
593.7000, 4225.796
594.8700, 4119.688
596.0400, 3856.632
597.2090, 3852.629
598.3790, 3657.680
599.5490, 3490.783
600.7180, 3411.938
601.8870, 3227.144
603.0560, 3109.402
604.2250, 2953.712
605.3940, 2853.148
606.5620, 2745.298
607.7300, 2680.948
608.8990, 2581.461
610.0670, 2511.606
611.2350, 2483.645
612.4020, 2391.314
613.5700, 2382.033
614.7370, 2277.805
615.9050, 2235.629
617.0720, 2163.514
618.2390, 2147.431
619.4060, 2014.410
620.5720, 2071.440
621.7390, 2017.527
622.9050, 1909.686
624.0710, 1915.923
625.2370, 1862.264
626.4030, 1872.714
627.5690, 1763.259
628.7340, 1686.914
629.9000, 1751.656
631.0650, 1604.508
632.2300, 1589.468
633.3950, 1566.503
634.5600, 1523.594
635.7240, 1478.766
636.8890, 1478.004
638.0530, 1410.300
639.2170, 1334.659
640.3810, 1309.070
641.5450, 1168.540
642.7080, 1105.060
643.8720, 1100.634
645.0350, 981.2588
646.1980, 916.9390
647.3610, 772.6714
648.5240, 735.4585
649.6870, 704.2930
650.8490, 593.1807
652.0120, 654.1240
653.1740, 580.1152
654.3360, 514.0596
655.4980, 391.2510
656.6600, 363.3940
657.8210, 350.5894
658.9830, 277.8330
660.1440, 321.1235
661.3050, 223.4561
662.4660, 150.8320
663.6270, 239.2642
664.7870, 133.7437
665.9480, 117.2715
667.1080, 142.8477
668.2680, 117.4678
669.4280, 114.1313
670.5880, 96.83740
671.7480, 78.49268
672.9070, 60.02002
674.0670, 36.20508
675.2260, 20.07812
676.3850, 14.13184
677.5440, 19.22119
678.7030, 24.97998
679.8610, 0.8759770
681.0200, 7.106934
682.1780, 17.06006
683.3360, 18.01611
684.4940, 71.13037
685.6520, 19.71777
686.8090, 52.54004
687.9670, 14.35303
689.1240, 68.20605
690.2810, 53.92578
691.4380, 56.70996
692.5950, 125.4839
693.7520, 53.28516
694.9080, 80.46729
696.0650, 72.80420
697.2210, 66.50977
698.3770, 23.14160
699.5330, 18.70801
700.6880, 43.19092
701.8440, 76.55713
702.9990, 1.145508
704.1550, 3.038574
705.3100, 100.1064
706.4650, 1.114746
707.6190, 28.97168
708.7740, 39.17236
709.9290, 88.48145
711.0830, 67.85986
712.2370, 76.31201
713.3910, 50.83887
714.5450, 113.4121
715.6980, 138.0186
716.8520, 71.66064
718.0050, 255.3286
719.1580, 155.0225
720.3110, 132.7417
721.4640, 177.4863
722.6170, 136.2568
723.7700, 185.2773
724.9220, 234.8687
726.0740, 248.7104
727.2260, 265.5776
728.3780, 259.4668
729.5300, 328.3794
730.6810, 363.3140
731.8330, 338.2705
732.9840, 393.7520
734.1350, 359.2480
735.2860, 430.2686
736.4370, 393.3091
737.5880, 379.3696
738.7380, 359.4492
739.8880, 353.5483
741.0390, 462.6665
742.1890, 446.8032
743.3380, 491.9580
744.4880, 494.1309
745.6380, 573.3208
746.7870, 567.8545
747.9360, 573.7612
749.0850, 614.5435
750.2340, 558.3813
751.3830, 641.7432
752.5310, 646.2686
753.6800, 676.4121
754.8280, 605.1992
755.9760, 749.0503
757.1240, 780.0488
758.2720, 716.2607
759.4190, 645.8110
760.5670, 712.3491
761.7140, 718.3198
762.8610, 688.6851
764.0080, 748.0566
765.1550, 732.8037
766.3020, 763.6221
767.4480, 767.3521
768.5950, 799.6587
769.7410, 800.2944
770.8870, 829.1074
772.0330, 851.3320
773.1780, 857.9121
774.3240, 913.2124
775.4690, 888.4180
776.6140, 917.9829
777.7590, 962.3545
778.9040, 1037.007
780.0490, 1044.987
781.1940, 895.5723
782.3380, 843.8794
783.4820, 984.9268
784.6260, 882.5151
785.7700, 927.6816
786.9140, 957.2427
788.0580, 986.1655
789.2010, 1024.723
790.3450, 1036.626
791.4880, 1076.337
792.6310, 1124.928
793.7730, 1041.352
794.9160, 972.6670
796.0590, 1067.958
797.2010, 1111.749
798.3430, 1048.705
799.4850, 1143.171
800.6270, 1132.317
801.7690, 1188.794
802.9100, 1159.361
804.0520, 1127.948
805.1930, 1147.711
806.3340, 1112.384
807.4750, 1128.826
808.6160, 1248.878
809.7560, 1311.700
810.8970, 1278.421
812.0370, 1140.662
813.1770, 1240.992
814.3170, 1162.015
815.4570, 1212.648
816.5960, 1275.039
817.7360, 1119.090
818.8750, 1164.755
820.0140, 1293.847
821.1530, 1271.139
822.2920, 1184.189
823.4310, 1313.762
824.5690, 1187.104
825.7070, 1287.056
826.8460, 1193.750
827.9840, 1277.772
829.1220, 1241.087
830.2590, 1210.159
831.3970, 1106.030
832.5340, 1161.507
833.6710, 1129.846
834.8080, 1120.400
835.9450, 1110.233
837.0820, 1066.162
838.2190, 1056.635
839.3550, 1054.376
840.4910, 1015.319
841.6270, 1033.608
842.7630, 1020.083
843.8990, 958.2109
845.0350, 944.5664
846.1700, 1049.455
847.3060, 916.7388
848.4410, 934.7817
849.5760, 852.8088
850.7100, 820.1047
851.8450, 844.8296
852.9800, 775.1860
854.1140, 799.0476
855.2480, 795.8999
856.3820, 733.5513
857.5160, 656.3757
858.6500, 688.2668
859.7830, 720.8499
860.9170, 671.4941
862.0500, 602.1528
863.1830, 698.1782
864.3160, 603.6445
865.4480, 522.3372
866.5810, 477.7483
867.7130, 423.9175
868.8460, 474.7627
869.9780, 369.0920
871.1100, 464.5884
872.2410, 469.8928
873.3730, 264.1768
874.5050, 278.4231
875.6360, 260.6238
876.7670, 307.8906
877.8980, 268.0520
879.0290, 176.1919
880.1590, 277.2673
881.2900, 183.3171
882.4200, 248.4912
883.5500, 120.8020
884.6800, 98.96729
885.8100, 72.94287
886.9400, 149.9497
888.0690, 115.8357
889.1990, 50.79688
890.3280, 89.57422
891.4570, 84.33862
892.5860, 69.06641
893.7140, 51.92358
894.8430, 32.61548
895.9710, 30.63965
897.1000, 5.100586
898.2280, 58.62646
899.3560, 58.21997
900.4830, 31.85034
901.6110, 16.60449
902.7380, 16.27856
903.8660, 6.089111
904.9930, 108.0659
906.1200, 43.12183
907.2460, 10.70947
908.3730, 91.51196
909.5000, 37.83960
910.6260, 4.245117
911.7520, 25.71143
912.8780, 13.75244
914.0040, 10.83618
915.1290, 32.51147
916.2550, 7.856201
917.3800, 18.10034
918.5050, 0.7055660
919.6300, 8.459473
920.7550, 2.458984
921.8800, 62.56250
923.0040, 1.536621
924.1290, 8.548828
925.2530, 42.30176
926.3770, 5.638184
927.5010, 9.195068
928.6250, 15.53662
929.7480, 4.759033
930.8720, 21.81445
931.9950, 50.33521
933.1180, 117.8086
934.2410, 75.23901
935.3640, 18.37622
936.4860, 12.93750
937.6090, 9.195313
938.7310, 8.300781
939.8530, 51.55078
940.9750, 58.65796
942.0970, 76.71704
943.2180, 107.7317
944.3400, 46.70190
945.4610, 53.62061
946.5820, 91.48779
947.7030, 82.43091
948.8240, 94.83984
949.9450, 104.9385
951.0650, 98.63452
952.1860, 72.29297
953.3060, 70.90552
954.4260, 10.50342
955.5460, 80.12305
956.6650, 101.5942
957.7850, 29.01855
958.9040, 59.39526
960.0230, 22.73584
961.1420, 133.0264
962.2610, 186.2930
963.3800, 41.53247
964.4990, 98.76660
965.6170, 73.95459
966.7350, 84.19214
967.8530, 144.3677
968.9710, 58.46802
970.0890, 168.6206
971.2070, 75.66138
972.3240, 232.7507
973.4410, 177.4807
974.5580, 186.0063
975.6750, 119.6064
976.7920, 182.4597
977.9090, 147.2964
979.0250, 159.1812
980.1410, 228.9956
981.2580, 163.7722
982.3740, 190.4380
983.4890, 190.1934
984.6050, 159.7737
985.7200, 239.3115
986.8360, 143.8096
987.9510, 205.2617
989.0660, 202.6724
990.1810, 266.0405
991.2950, 199.3687
992.4100, 186.6548
993.5240, 246.8984
994.6390, 227.1038
995.7530, 218.2690
996.8660, 159.3931
997.9800, 280.4724
999.0940, 193.5212
1000.207, 266.5867
1001.320, 203.7915
1002.433, 243.8586
1003.546, 282.0027
1004.659, 212.3376
1005.772, 252.6152
1006.884, 251.9111
1007.996, 255.1086
1009.108, 260.2485
1010.220, 238.1477
1011.332, 257.0432
1012.444, 255.7944
1013.555, 275.5857
1014.666, 264.2495
1015.777, 228.0981
1016.888, 188.9839
1017.999, 216.4326
1019.110, 253.5708
1020.220, 237.6191
1021.331, 259.0303
1022.441, 233.2129
1023.551, 283.7673
1024.661, 261.6592
1025.770, 261.3953
1026.880, 211.0889
1027.989, 248.5850
1029.098, 238.6824
1030.207, 255.8909
1031.316, 255.8000
1032.425, 246.4897
1033.533, 229.6975
1034.642, 238.3926
1035.750, 201.0776
1036.858, 215.7122
1037.966, 262.7075
1039.073, 222.5349
1040.181, 231.3835
1041.288, 250.0901
1042.396, 235.6609
1043.503, 258.4395
1044.610, 269.2817
1045.716, 255.5317
1046.823, 277.0796
1047.929, 246.6182
1049.036, 191.7676
1050.142, 213.3325
1051.248, 202.0095
1052.353, 192.4531
1053.459, 231.4709
1054.564, 202.2581
1055.670, 220.4487
1056.775, 252.2471
1057.880, 278.5559
1058.985, 222.6545
1060.089, 281.7258
1061.194, 202.8774
1062.298, 167.3352
1063.402, 201.9312
1064.506, 262.4666
1065.610, 244.6646
1066.713, 233.3054
1067.817, 205.4580
1068.920, 232.8162
1070.023, 208.6924
1071.126, 246.7771
1072.229, 248.5225
1073.332, 213.0601
1074.435, 284.9175
1075.537, 203.5830
1076.639, 246.6995
1077.741, 187.9902
1078.843, 250.1685
1079.945, 136.7261
1081.046, 265.8477
1082.148, 212.9775
1083.249, 261.4038
1084.350, 170.1948
1085.451, 202.5981
1086.551, 153.9568
1087.652, 135.9065
1088.752, 168.0889
1089.853, 243.5564
1090.953, 206.0737
1092.053, 212.0991
1093.152, 191.5310
1094.252, 152.0637
1095.351, 170.4114
1096.451, 143.0347
1097.550, 161.8770
1098.649, 128.9092
1099.748, 136.0286
1100.846, 156.5430
1101.945, 125.2832
1103.043, 142.9365
1104.141, 119.7502
1105.239, 128.7222
1106.337, 196.3503
1107.434, 169.0842
1108.532, 166.1074
1109.629, 150.8689
1110.726, 118.2158
1111.823, 123.4814
1112.920, 122.4443
1114.017, 214.7839
1115.113, 105.2488
1116.210, 221.7354
1117.306, 198.3845
1118.402, 251.2092
1119.498, 218.2769
1120.593, 251.7151
1121.689, 299.0991
1122.784, 289.7236
1123.879, 346.0842
1124.974, 382.4424
1126.069, 278.4697
1127.164, 229.0498
1128.259, 174.4229
1129.353, 142.2756
1130.447, 124.8635
1131.541, 109.9529
1132.635, 66.41968
1133.729, 88.69409
1134.822, 59.92578
1135.916, 22.19775
1137.009, 23.23267
1138.102, 15.41895
1139.195, 21.55151
1140.288, 23.68164
1141.380, 53.80640
1142.473, 45.81396
1143.565, 69.87598
1144.657, 49.90967
1145.749, 69.95728
1146.841, 23.97925
1147.932, 13.82495
1149.024, 43.67725
1150.115, 68.67285
1151.206, 27.74268
1152.297, 46.57715
1153.388, 55.53857
1154.479, 51.34009
1155.569, 49.08203
1156.659, 64.10791
1157.750, 31.92065
1158.839, 22.50708
1159.929, 28.23584
1161.019, 9.912109
1162.108, 60.67212
1163.198, 21.54199
1164.287, 40.29175
1165.376, 40.99976
1166.465, 18.85913
1167.553, 21.47095
1168.642, 74.22412
1169.730, 11.03662
1170.818, 10.84985
1171.906, 78.65405
1172.994, 38.70972
1174.082, 65.47900
1175.170, 60.42676
1176.257, 9.758301
1177.344, 37.05103
1178.431, 9.322998
1179.518, 12.68188
1180.605, 5.450684
1181.691, 11.66504
1182.778, 20.21680
1183.864, 70.85400
1184.950, 12.59912
1186.036, 52.33984
1187.122, 51.10596
1188.207, 7.956543
1189.292, 4.197510
1190.378, 10.51318
1191.463, 11.21704
1192.548, 3.956055
1193.632, 6.134033
1194.717, 4.697510
1195.801, 10.47217
1196.886, 2.905029
1197.970, 1.447998
1199.054, 5.254639
1200.137, 31.92896
1201.221, 30.29150
1202.305, 18.38257
1203.388, 44.99683
1204.471, 6.406738
1205.554, 21.82837
1206.637, 19.90503
1207.719, 23.45312
1208.802, 65.10327
1209.884, 81.64038
1210.966, 11.01562
1212.048, 40.61914
1213.130, 24.24243
1214.212, 13.79956
1215.293, 19.28638
1216.374, 17.76733
1217.456, 13.79272
1218.536, 71.69458
1219.617, 20.27515
1220.698, 72.77808
1221.778, 29.41724
1222.859, 38.87256
1223.939, 116.3035
1225.019, 3.205078
1226.099, 37.35864
1227.178, 11.13696
1228.258, 22.25610
1229.337, 24.77026
1230.417, 55.25171
1231.496, 23.62451
1232.574, 54.90405
1233.653, 43.80518
1234.732, 49.15405
1235.810, 56.53467
1236.888, 40.92407
1237.966, 96.69971
1239.044, 13.04443
1240.122, 34.40747
1241.199, 86.61035
1242.277, 3.968506
1243.354, 47.17480
1244.431, 63.52637
1245.508, 50.64819
1246.585, 7.037598
1247.661, 11.26050
1248.738, 37.62646
1249.814, 56.00952
1250.890, 59.62891
1251.966, 38.83130
1253.042, 49.61475
1254.117, 22.93652
1255.193, 8.813965
1256.268, 5.333496
1257.343, 39.63818
1258.418, 77.34570
1259.493, 13.62085
1260.567, 71.95288
1261.642, 31.98560
1262.716, 19.85400
1263.790, 63.78198
1264.864, 61.58325
1265.938, 125.1438
1267.011, 81.74829
1268.085, 94.06885
1269.158, 69.92456
1270.231, 72.63550
1271.304, 82.47803
1272.377, 77.36255
1273.450, 93.34717
1274.522, 83.66357
1275.594, 82.42773
1276.666, 68.13672
1277.738, 16.29883
1278.810, 4.093994
1279.882, 19.14136
1280.953, 54.79736
1282.025, 40.53467
1283.096, 36.23413
1284.167, 58.55518
1285.238, 60.77173
1286.308, 74.61572
1287.379, 94.33350
1288.449, 76.96558
1289.519, 75.59839
1290.589, 75.10767
1291.659, 34.79077
1292.729, 90.35913
1293.798, 79.01465
1294.868, 36.77783
1295.937, 106.3105
1297.006, 42.86255
1298.075, 52.61035
1299.143, 49.02173
1300.212, 81.44189
1301.280, 10.14697
1302.348, 57.70532
1303.416, 28.34180
1304.484, 58.96362
1305.552, 77.07812
1306.620, 58.62134
1307.687, 51.16455
1308.754, 51.54175
1309.821, 33.05908
1310.888, 82.96875
1311.955, 49.74219
1313.021, 70.42920
1314.088, 88.90088
1315.154, 48.67139
1316.220, 27.28125
1317.286, 27.60962
1318.352, 56.92285
1319.417, 91.21484
1320.483, 25.62915
1321.548, 7.781494
1322.613, 50.08398
1323.678, 69.29150
1324.743, 66.22290
1325.807, 56.03955
1326.872, 43.07446
1327.936, 51.06738
1329.000, 24.39429
1330.064, 44.47095
1331.128, 55.78589
1332.191, 104.0979
1333.255, 58.17944
1334.318, 12.52490
1335.381, 99.76440
1336.444, 27.69556
1337.507, 144.6204
1338.569, 15.35767
1339.632, 26.50073
1340.694, 26.87402
1341.756, 40.24414
1342.818, 91.51172
1343.880, 53.72241
1344.941, 95.10034
1346.003, 23.70093
1347.064, 25.14771
1348.125, 41.46460
1349.186, 7.905029
1350.247, 50.09277
1351.308, 100.3103
1352.368, 38.09131
1353.428, 18.04541
1354.489, 23.75439
1355.549, 72.57690
1356.608, 3.684814
1357.668, 17.79761
1358.727, 102.3542
1359.787, 67.44971
1360.846, 6.110596
1361.905, 32.51929
1362.964, 31.75708
1364.022, 42.13916
1365.081, 3.531738
1366.139, 48.71533
1367.197, 41.71289
1368.255, 85.79248
1369.313, 23.16943
1370.371, 93.16968
1371.428, 35.31860
1372.486, 84.56152
1373.543, 39.67773
1374.600, 40.34253
1375.657, 21.28247
1376.713, 15.32690
1377.770, 5.756104
1378.826, 4.789551
1379.882, 6.409180
1380.938, 20.65186
1381.994, 35.59229
1383.050, 67.11523
1384.106, 15.96875
1385.161, 24.92725
1386.216, 19.21094
1387.271, 3.059570
1388.326, 56.10059
1389.381, 49.98999
1390.435, 70.82227
1391.490, 72.15845
1392.544, 80.82764
1393.598, 47.82007
1394.652, 58.27051
1395.705, 27.50977
1396.759, 24.53613
1397.812, 35.81763
1398.866, 17.13916
1399.919, 16.07471
1400.972, 24.91357
1402.024, 41.90527
1403.077, 37.80542
1404.129, 34.91626
1405.181, 29.09937
1406.233, 2.199463
1407.285, 41.97998
1408.337, 41.78638
1409.389, 59.51416
1410.440, 38.21436
1411.491, 30.99927
1412.542, 28.78516
1413.593, 25.54883
1414.644, 34.44800
1415.695, 40.20850
1416.745, 37.95874
1417.795, 59.75977
1418.845, 45.43188
1419.895, 42.15527
1420.945, 15.86401
1421.995, 47.44800
1423.044, 44.09082
1424.093, 48.64087
1425.142, 60.21924
1426.191, 55.12378
1427.240, 62.02344
1428.289, 51.70337
1429.337, 58.24683
1430.385, 54.65405
1431.433, 34.17212
1432.481, 46.67871
1433.529, 14.16479
1434.577, 67.60840
1435.624, 10.28809
1436.672, 61.62256
1437.719, 7.052734
1438.766, 35.44019
1439.812, 26.84546
1440.859, 3.328369
1441.905, 28.64795
1442.952, 51.26587
1443.998, 11.46460
1445.044, 114.8040
1446.090, 27.93359
1447.135, 45.70850
1448.181, 3.583252
1449.226, 25.68701
1450.271, 42.71362
1451.316, 3.391602
1452.361, 24.37549
1453.405, 6.287842
1454.450, 72.62085
1455.494, 37.29248
1456.538, 44.50952
1457.582, 42.36816
1458.626, 32.40796
1459.670, 76.30762
1460.713, 71.13159
1461.757, 28.90381
1462.800, 10.16992
1463.843, 1.500977
1464.886, 35.24146
1465.928, 41.03833
1466.971, 23.34351
1468.013, 36.04907
1469.055, 53.36182
1470.097, 12.17114
1471.139, 70.91455
1472.181, 9.288086
1473.222, 24.52271
1474.263, 46.14990
1475.305, 64.54688
1476.346, 75.35913
1477.386, 1.910156
1478.427, 65.54761
1479.468, 0.9421390
1480.508, 16.56152
1481.548, 85.34082
1482.588, 65.15259
1483.628, 13.09619
1484.668, 74.31274
1485.707, 12.69214
1486.747, 0.9790040
1487.786, 47.48901
1488.825, 18.88647
1489.864, 16.08667
1490.902, 73.69434
1491.941, 66.09424
1492.979, 72.38354
1494.017, 25.79272
1495.055, 48.33911
1496.093, 54.81689
1497.131, 47.11719
1498.168, 119.6162
1499.206, 734.2629
1500.243, 145.8872
1501.280, 107.5347
1502.317, 667.9451
1503.354, 82.28906
1504.390, 98.59497
1505.426, 66.69019
1506.463, 94.59644
1507.499, 113.9666
1508.535, 112.2522
1509.570, 38.57642
1510.606, 53.41138
1511.641, 83.66724
1512.676, 61.65332
1513.711, 94.94775
1514.746, 89.15332
1515.781, 72.36841
1516.816, 80.51978
1517.850, 67.20679
1518.884, 2.098633
1519.918, 10.03345
1520.952, 7.503662
1521.986, 5.078369
1523.019, 3.694580
1524.053, 66.84741
1525.086, 75.86353
1526.119, 146.0569
1527.152, 60.12109
1528.185, 9.346436
1529.217, 108.2378
1530.250, 51.35449
1531.282, 24.52466
1532.314, 52.25977
1533.346, 74.25220
1534.377, 95.53955
1535.409, 57.10449
1536.440, 102.6011
1537.472, 90.46167
1538.503, 26.41064
1539.534, 89.73779
1540.564, 52.53027
1541.595, 37.50562
1542.625, 39.82690
1543.656, 51.07471
1544.686, 56.17944
1545.716, 69.02515
1546.745, 82.08252
1547.775, 87.84814
1548.804, 121.4998
1549.834, 166.7869
1550.863, 199.3799
1551.892, 490.1133
1552.920, 473.6270
1553.949, 562.8997
1554.977, 516.2056
1556.006, 299.1594
1557.034, 95.93262
1558.062, 38.35938
1559.089, 1.142090
1560.117, 56.25244
1561.144, 74.38037
1562.172, 69.48950
1563.199, 72.57764
1564.226, 17.82129
1565.252, 46.65771
1566.279, 0.8669430
1567.305, 89.08984
1568.332, 24.63892
1569.358, 17.03101
1570.384, 0.0000000E+00
##END=



