##NAMES=Brookite
##RRUFFID=R050591
##IDEAL CHEMISTRY=Ti^4+^O_2_
##LOCALITY=Taftan, near Dalbandi, Baluchistan, Pakistan
##OWNER=RRUFF
##SOURCE=Wayne Thompson
##DESCRIPTION=Yellowish-brown to reddish-brown thin tabular crystal
##STATUS=The identification of this mineral has been confirmed by X-ray diffraction and chemical analysis
##URL=rruff.info/R050591
##MEASURED CHEMISTRY=Ti_1.00_O_2_
##PIN_ID=L01445
##ORIENTATION=Laser parallel to a* (1 0 0). Fiducial mark perpendicular to laser is parallel to b [0 1 0]
51.43100, 0.0000000E+00
52.67100, 20.75046
53.91000, 13.40750
55.14900, 46.88458
56.38700, 45.46490
57.62600, 53.07697
58.86400, 72.99283
60.10300, 79.25314
61.34100, 61.25595
62.57900, 24.45331
63.81700, 1.804382
65.05400, 8.751282
66.29200, 8.284607
67.52900, 23.86792
68.76700, 15.57043
70.00400, 12.54340
71.24100, 25.41425
72.47700, 15.98987
73.71400, 62.24640
74.95100, 65.15363
76.18700, 119.6628
77.42300, 172.7322
78.65900, 150.3236
79.89500, 223.4022
81.13100, 261.9364
82.36700, 305.8979
83.60200, 312.2612
84.83700, 352.0028
86.07200, 409.1022
87.30800, 403.5402
88.54200, 491.2998
89.77700, 524.3601
91.01200, 560.7091
92.24600, 627.3485
93.48000, 680.2686
94.71400, 751.6266
95.94800, 739.3854
97.18200, 806.3473
98.41600, 866.5163
99.64900, 913.8953
100.8830, 987.4758
102.1160, 1089.247
103.3490, 1135.200
104.5820, 1223.325
105.8150, 1385.616
107.0470, 1552.064
108.2800, 1725.664
109.5120, 1942.410
110.7440, 2054.296
111.9760, 2399.317
113.2080, 2994.469
114.4400, 3718.749
115.6710, 4762.150
116.9030, 6126.673
118.1340, 7799.316
119.3650, 9045.071
120.5960, 8623.939
121.8270, 8279.914
123.0580, 8889.997
124.2880, 10108.19
125.5190, 11784.47
126.7490, 13838.78
127.9790, 17031.15
129.2090, 19619.70
130.4390, 20813.45
131.6680, 18937.45
132.8980, 15261.61
134.1270, 11652.84
135.3560, 10014.11
136.5850, 10150.40
137.8140, 11371.26
139.0430, 13294.45
140.2710, 16067.67
141.5000, 19597.93
142.7280, 23190.34
143.9560, 27020.98
145.1840, 30181.80
146.4120, 33084.80
147.6390, 36118.84
148.8670, 39374.93
150.0940, 43520.04
151.3210, 48470.20
152.5490, 53772.38
153.7750, 58979.59
155.0020, 62000.84
156.2290, 62013.12
157.4550, 59403.45
158.6810, 52415.81
159.9080, 43794.20
161.1340, 35016.63
162.3590, 27480.10
163.5850, 21712.61
164.8110, 17136.16
166.0360, 13680.74
167.2610, 11214.36
168.4860, 9104.019
169.7110, 7601.713
170.9360, 6236.444
172.1610, 5375.213
173.3850, 4606.017
174.6100, 3854.857
175.8340, 3372.735
177.0580, 2953.648
178.2820, 2680.609
179.5050, 2401.807
180.7290, 2198.714
181.9520, 2131.832
183.1760, 2073.984
184.3990, 2168.171
185.6220, 2323.392
186.8450, 2433.648
188.0670, 2202.937
189.2900, 2138.261
190.5120, 2119.620
191.7340, 2365.033
192.9560, 2774.511
194.1780, 3254.064
195.4000, 3975.704
196.6220, 4433.451
197.8430, 4384.256
199.0640, 3666.222
200.2860, 2699.028
201.5070, 1652.672
202.7270, 1045.222
203.9480, 777.5100
205.1690, 615.2308
206.3890, 470.1980
207.6090, 402.4246
208.8290, 313.8936
210.0490, 265.0322
211.2690, 218.7429
212.4890, 202.8783
213.7080, 106.8857
214.9280, 119.5901
216.1470, 90.98901
217.3660, 59.51038
218.5850, 85.66406
219.8030, 28.12793
221.0220, 33.32825
222.2400, 51.47205
223.4590, 111.0262
224.6770, 32.28796
225.8950, 0.4843750
227.1120, 58.38538
228.3300, 196.3195
229.5480, 345.3158
230.7650, 616.7109
231.9820, 1121.010
233.1990, 1757.439
234.4160, 2687.042
235.6330, 4026.819
236.8490, 5505.456
238.0660, 7164.611
239.2820, 8116.997
240.4980, 8757.449
241.7140, 9649.971
242.9300, 11166.54
244.1460, 13346.15
245.3610, 16299.80
246.5770, 19879.49
247.7920, 23516.22
249.0070, 25350.98
250.2220, 24596.79
251.4370, 21070.64
252.6510, 16661.52
253.8660, 12411.43
255.0800, 9337.384
256.2940, 7088.370
257.5080, 5690.391
258.7220, 4641.445
259.9360, 3878.533
261.1490, 3411.652
262.3630, 2863.804
263.5760, 2566.988
264.7890, 2252.202
266.0020, 1998.448
267.2150, 1807.724
268.4270, 1568.029
269.6400, 1479.364
270.8520, 1339.728
272.0640, 1214.121
273.2760, 1188.542
274.4880, 1036.992
275.7000, 1019.470
276.9120, 874.9751
278.1230, 831.5063
279.3340, 815.0627
280.5450, 708.6443
281.7560, 690.2512
282.9670, 726.8774
284.1780, 657.4883
285.3880, 629.1187
286.5980, 557.7749
287.8090, 565.4568
289.0190, 568.1641
290.2290, 551.8955
291.4380, 619.6504
292.6480, 500.4282
293.8570, 508.2290
295.0670, 477.0518
296.2760, 545.8977
297.4850, 553.7661
298.6930, 645.6570
299.9020, 702.5706
301.1110, 686.5063
302.3190, 790.2344
303.5270, 838.2148
304.7350, 975.8484
305.9430, 1149.225
307.1510, 1318.271
308.3580, 1384.343
309.5660, 1660.433
310.7730, 1783.545
311.9800, 2008.679
313.1870, 2266.834
314.3940, 2397.011
315.6010, 2561.209
316.8070, 2726.429
318.0130, 2782.669
319.2200, 2997.932
320.4260, 3101.216
321.6310, 3203.521
322.8370, 3207.879
324.0430, 3195.194
325.2480, 3053.562
326.4540, 2896.951
327.6590, 2676.360
328.8640, 2415.255
330.0680, 2296.523
331.2730, 1950.630
332.4780, 1685.704
333.6820, 1496.019
334.8860, 1250.838
336.0900, 1006.219
337.2940, 828.0020
338.4980, 656.7986
339.7010, 533.7732
340.9050, 399.8582
342.1080, 291.2559
343.3110, 202.4326
344.5140, 133.8621
345.7170, 66.58276
346.9200, 9.226563
348.1220, 26.02686
349.3240, 73.12695
350.5270, 78.37280
351.7290, 83.63770
352.9310, 103.9243
354.1320, 138.2424
355.3340, 100.6064
356.5350, 91.99756
357.7370, 24.41138
358.9380, 27.81885
360.1390, 24.21973
361.3400, 56.38452
362.5400, 88.01611
363.7410, 172.6753
364.9410, 264.3618
366.1410, 227.4937
367.3410, 375.0793
368.5410, 370.9456
369.7410, 306.1785
370.9400, 248.9675
372.1400, 175.8142
373.3390, 43.68726
374.5380, 18.58643
375.7370, 76.49341
376.9360, 59.59448
378.1350, 98.70874
379.3330, 137.8540
380.5310, 61.04858
381.7300, 88.25708
382.9280, 73.49170
384.1260, 55.74561
385.3230, 44.98877
386.5210, 80.74927
387.7180, 119.5349
388.9160, 152.3464
390.1130, 315.1836
391.3100, 447.0466
392.5060, 577.9351
393.7030, 615.8496
394.9000, 756.7898
396.0960, 963.7554
397.2920, 1182.747
398.4880, 1474.765
399.6840, 1820.808
400.8800, 2131.877
402.0750, 2490.972
403.2710, 2853.093
404.4660, 3239.240
405.6610, 3690.414
406.8560, 4203.613
408.0510, 4688.839
409.2450, 5120.090
410.4400, 5484.368
411.6340, 5744.673
412.8280, 5975.004
414.0220, 6043.361
415.2160, 5805.746
416.4100, 5519.157
417.6030, 5007.594
418.7970, 4662.058
419.9900, 4082.549
421.1830, 3435.067
422.3760, 3046.612
423.5690, 2609.184
424.7610, 2118.784
425.9540, 1855.411
427.1460, 1530.065
428.3380, 1381.747
429.5300, 1172.457
430.7220, 982.1943
431.9140, 782.9597
433.1050, 658.7534
434.2970, 511.5752
435.4880, 444.4250
436.6790, 382.3032
437.8700, 297.2095
439.0610, 214.1443
440.2510, 211.1077
441.4420, 112.0996
442.6320, 70.12012
443.8220, 60.16943
445.0120, 10.75244
446.2020, 23.34521
447.3910, 29.52832
448.5810, 24.38940
449.7700, 17.23608
450.9600, 5.935303
452.1490, 67.13354
453.3370, 37.36108
454.5260, 87.61841
455.7150, 115.9050
456.9030, 122.2217
458.0910, 169.5679
459.2800, 132.9438
460.4670, 78.35010
461.6550, 170.7861
462.8430, 136.2527
464.0300, 176.7493
465.2180, 146.2764
466.4050, 121.8337
467.5920, 139.4219
468.7790, 96.04077
469.9650, 61.10132
471.1520, 34.62915
472.3380, 20.93286
473.5250, 39.21533
474.7110, 38.48364
475.8970, 43.73682
477.0820, 73.97681
478.2680, 45.21606
479.4540, 93.44214
480.6390, 105.6753
481.8240, 65.92017
483.0090, 39.15967
484.1940, 28.61768
485.3780, 50.42725
486.5630, 72.26904
487.7470, 143.1431
488.9320, 153.0496
490.1160, 191.0864
491.3000, 248.3545
492.4830, 319.0857
493.6670, 294.5579
494.8500, 415.7715
496.0340, 479.9114
497.2170, 477.2163
498.4000, 578.6028
499.5820, 592.4934
500.7650, 710.0986
501.9480, 787.5571
503.1300, 698.2515
504.3120, 849.6055
505.4940, 779.9961
506.6760, 888.4229
507.8580, 799.8865
509.0390, 817.3899
510.2210, 819.9370
511.4020, 737.5391
512.5830, 696.1807
513.7640, 686.8677
514.9450, 729.5989
516.1250, 776.3789
517.3060, 870.8579
518.4860, 921.5344
519.6660, 981.1750
520.8460, 1189.734
522.0260, 1172.224
523.2060, 1358.944
524.3850, 1536.243
525.5650, 1660.403
526.7440, 1910.589
527.9230, 2051.802
529.1020, 2526.057
530.2810, 2694.361
531.4590, 2894.712
532.6380, 3299.116
533.8160, 3499.561
534.9940, 3786.052
536.1720, 4325.588
537.3500, 4627.165
538.5270, 4914.788
539.7050, 5104.455
540.8820, 5348.169
542.0590, 5655.929
543.2360, 5702.728
544.4130, 5774.577
545.5900, 5600.474
546.7660, 5760.414
547.9430, 5521.401
549.1190, 5291.432
550.2950, 5206.514
551.4710, 4791.637
552.6470, 4525.806
553.8220, 4106.018
554.9980, 3743.268
556.1730, 3416.576
557.3480, 3025.929
558.5230, 2751.323
559.6980, 2477.774
560.8730, 2111.277
562.0470, 1935.820
563.2220, 1748.403
564.3960, 1508.043
565.5700, 1297.729
566.7440, 1172.462
567.9170, 1058.237
569.0910, 856.0535
570.2640, 803.9111
571.4380, 730.8096
572.6110, 568.7515
573.7840, 607.7332
574.9570, 559.7559
576.1290, 519.8188
577.3020, 478.9221
578.4740, 420.0737
579.6460, 405.2708
580.8180, 451.5078
581.9900, 428.7852
583.1620, 359.1018
584.3330, 402.4587
585.5040, 376.8557
586.6760, 397.5298
587.8470, 390.0166
589.0180, 402.9138
590.1880, 403.1309
591.3590, 426.7405
592.5290, 439.3877
593.7000, 409.0796
594.8700, 500.8110
596.0400, 577.5820
597.2090, 524.4045
598.3790, 602.2676
599.5490, 616.1758
600.7180, 850.1277
601.8870, 915.1228
603.0560, 973.1609
604.2250, 989.2383
605.3940, 1162.361
606.5620, 1373.534
607.7300, 1513.749
608.8990, 1665.008
610.0670, 1883.308
611.2350, 2058.656
612.4020, 2249.581
613.5700, 2453.194
614.7370, 2793.033
615.9050, 3054.979
617.0720, 3384.095
618.2390, 3689.067
619.4060, 4073.887
620.5720, 4461.367
621.7390, 4812.305
622.9050, 5332.314
624.0710, 5883.681
625.2370, 6402.547
626.4030, 6911.056
627.5690, 7430.276
628.7340, 7942.393
629.9000, 8428.425
631.0650, 9008.508
632.2300, 9492.433
633.3950, 10115.84
634.5600, 10411.10
635.7240, 10715.43
636.8890, 11166.82
638.0530, 11212.30
639.2170, 11399.84
640.3810, 11321.46
641.5450, 11434.12
642.7080, 10973.83
643.8720, 11115.59
645.0350, 10554.40
646.1980, 10303.23
647.3610, 9896.106
648.5240, 9551.019
649.6870, 8876.124
650.8490, 8561.106
652.0120, 7963.125
653.1740, 7453.803
654.3360, 6890.531
655.4980, 6676.311
656.6600, 6117.471
657.8210, 5775.959
658.9830, 5350.216
660.1440, 4969.524
661.3050, 4685.343
662.4660, 4367.394
663.6270, 4031.095
664.7870, 3803.196
665.9480, 3571.176
667.1080, 3356.816
668.2680, 3132.878
669.4280, 2993.371
670.5880, 2819.809
671.7480, 2691.483
672.9070, 2465.416
674.0670, 2314.363
675.2260, 2189.390
676.3850, 2185.285
677.5440, 1884.703
678.7030, 1916.970
679.8610, 1852.952
681.0200, 1715.715
682.1780, 1658.752
683.3360, 1556.823
684.4940, 1410.723
685.6520, 1466.055
686.8090, 1345.987
687.9670, 1317.879
689.1240, 1242.608
690.2810, 1223.846
691.4380, 1198.612
692.5950, 1133.917
693.7520, 1096.547
694.9080, 1048.481
696.0650, 992.8140
697.2210, 938.3831
698.3770, 892.5164
699.5330, 864.4590
700.6880, 819.0186
701.8440, 851.5486
702.9990, 818.8489
704.1550, 769.4509
705.3100, 691.6753
706.4650, 751.6982
707.6190, 668.4473
708.7740, 690.3018
709.9290, 571.1335
711.0830, 511.4890
712.2370, 539.1277
713.3910, 533.1033
714.5450, 474.9417
715.6980, 498.7034
716.8520, 476.4233
718.0050, 536.3784
719.1580, 443.2664
720.3110, 464.1577
721.4640, 462.9907
722.6170, 394.9458
723.7700, 383.0239
724.9220, 380.5002
726.0740, 371.0437
727.2260, 397.3877
728.3780, 372.6189
729.5300, 365.3022
730.6810, 336.2549
731.8330, 328.5557
732.9840, 297.5659
734.1350, 276.6636
735.2860, 263.4104
736.4370, 214.7917
737.5880, 236.2163
738.7380, 254.3318
739.8880, 244.3113
741.0390, 196.3120
742.1890, 219.6648
743.3380, 198.0830
744.4880, 195.9722
745.6380, 203.9954
746.7870, 207.0081
747.9360, 209.2539
749.0850, 214.7053
750.2340, 215.8230
751.3830, 210.3682
752.5310, 207.7607
753.6800, 186.6887
754.8280, 156.4758
755.9760, 222.8354
757.1240, 130.4878
758.2720, 142.1064
759.4190, 166.5505
760.5670, 124.5972
761.7140, 124.4536
762.8610, 142.9287
764.0080, 169.3677
765.1550, 105.0002
766.3020, 169.9026
767.4480, 160.3086
768.5950, 81.00171
769.7410, 102.9688
770.8870, 143.9912
772.0330, 113.5077
773.1780, 134.8442
774.3240, 71.82971
775.4690, 85.92102
776.6140, 55.77393
777.7590, 105.5552
778.9040, 80.15125
780.0490, 68.85266
781.1940, 84.50745
782.3380, 103.0472
783.4820, 59.74561
784.6260, 67.37451
785.7700, 16.95544
786.9140, 9.578247
788.0580, 31.00525
789.2010, 68.52356
790.3450, 45.75317
791.4880, 45.19763
792.6310, 62.53516
793.7730, 13.85718
794.9160, 36.53125
796.0590, 7.974609
797.2010, 35.19348
798.3430, 54.60364
799.4850, 20.41553
800.6270, 31.20312
801.7690, 17.98730
802.9100, 32.79175
804.0520, 59.43420
805.1930, 12.30615
806.3340, 37.13391
807.4750, 34.83752
808.6160, 54.60107
809.7560, 3.509399
810.8970, 22.55310
812.0370, 22.61792
813.1770, 19.29529
814.3170, 26.80237
815.4570, 5.834473
816.5960, 33.96484
817.7360, 11.90503
818.8750, 30.37793
820.0140, 31.82068
821.1530, 27.71521
822.2920, 0.2270510
823.4310, 25.91345
824.5690, 7.032349
825.7070, 37.26709
826.8460, 13.70105
827.9840, 18.60632
829.1220, 15.00085
830.2590, 41.58484
831.3970, 57.47388
832.5340, 6.924072
833.6710, 8.572021
834.8080, 51.79980
835.9450, 31.36816
837.0820, 17.12646
838.2190, 23.58203
839.3550, 49.99170
840.4910, 4.642212
841.6270, 14.35144
842.7630, 7.901245
843.8990, 20.20032
845.0350, 16.42810
846.1700, 19.95532
847.3060, 5.197388
848.4410, 91.37903
849.5760, 18.62439
850.7100, 30.15320
851.8450, 42.30334
852.9800, 12.62231
854.1140, 0.5102540
855.2480, 37.65247
856.3820, 40.64026
857.5160, 51.62097
858.6500, 39.56921
859.7830, 31.57666
860.9170, 2.381348
862.0500, 16.60791
863.1830, 24.45300
864.3160, 36.30432
865.4480, 39.34595
866.5810, 22.15491
867.7130, 35.01709
868.8460, 66.75732
869.9780, 56.06726
871.1100, 14.78040
872.2410, 38.85706
873.3730, 8.469971
874.5050, 16.04944
875.6360, 20.59912
876.7670, 21.14685
877.8980, 50.63489
879.0290, 13.09839
880.1590, 11.32434
881.2900, 25.08875
882.4200, 26.50830
883.5500, 20.92908
884.6800, 7.219360
885.8100, 22.61951
886.9400, 33.86108
888.0690, 21.13074
889.1990, 22.65491
890.3280, 45.55908
891.4570, 77.63135
892.5860, 57.68115
893.7140, 20.70105
894.8430, 26.68530
895.9710, 13.26477
897.1000, 54.54639
898.2280, 29.42822
899.3560, 31.27539
900.4830, 75.14368
901.6110, 56.96326
902.7380, 34.75378
903.8660, 26.54285
904.9930, 56.23035
906.1200, 53.88721
907.2460, 94.51318
908.3730, 121.1124
909.5000, 58.76794
910.6260, 53.31494
911.7520, 68.84460
912.8780, 75.39905
914.0040, 91.85693
915.1290, 83.28735
916.2550, 87.69397
917.3800, 101.0723
918.5050, 85.53076
919.6300, 91.91455
920.7550, 98.24902
921.8800, 112.5151
923.0040, 98.64526
924.1290, 106.8563
925.2530, 86.18420
926.3770, 99.78333
927.5010, 86.02356
928.6250, 110.9006
929.7480, 86.14209
930.8720, 95.01465
931.9950, 135.1693
933.1180, 150.2686
934.2410, 133.7793
935.3640, 125.1089
936.4860, 120.4050
937.6090, 121.4346
938.7310, 98.65637
939.8530, 121.5073
940.9750, 113.0576
942.0970, 94.06543
943.2180, 97.13281
944.3400, 107.9745
945.4610, 171.5614
946.5820, 168.1880
947.7030, 182.7029
948.8240, 177.3264
949.9450, 111.4917
951.0650, 131.7676
952.1860, 93.43811
953.3060, 66.26099
954.4260, 142.9268
955.5460, 79.48792
956.6650, 94.27161
957.7850, 102.4930
958.9040, 95.11694
960.0230, 108.8020
961.1420, 75.62964
962.2610, 112.9501
963.3800, 125.7416
964.4990, 136.1244
965.6170, 70.38806
966.7350, 118.6792
967.8530, 130.9738
968.9710, 93.16357
970.0890, 124.6821
971.2070, 96.30786
972.3240, 101.9833
973.4410, 105.3879
974.5580, 108.7135
975.6750, 115.7327
976.7920, 126.1366
977.9090, 99.84180
979.0250, 112.8793
980.1410, 60.57275
981.2580, 100.3970
982.3740, 108.5831
983.4890, 89.50403
984.6050, 50.06958
985.7200, 102.7858
986.8360, 147.5497
987.9510, 92.35168
989.0660, 81.91431
990.1810, 114.5387
991.2950, 111.1555
992.4100, 166.8262
993.5240, 95.37012
994.6390, 81.78564
995.7530, 84.79724
996.8660, 116.7407
997.9800, 104.8781
999.0940, 111.2117
1000.207, 61.54895
1001.320, 84.47681
1002.433, 107.7074
1003.546, 93.29810
1004.659, 112.6954
1005.772, 113.4967
1006.884, 121.6069
1007.996, 126.7985
1009.108, 106.1622
1010.220, 98.60889
1011.332, 123.1161
1012.444, 108.2435
1013.555, 68.25244
1014.666, 93.84595
1015.777, 84.31384
1016.888, 75.93420
1017.999, 101.9630
1019.110, 61.60449
1020.220, 90.75183
1021.331, 76.21753
1022.441, 80.28564
1023.551, 63.69604
1024.661, 110.2849
1025.770, 89.33496
1026.880, 113.0216
1027.989, 90.86096
1029.098, 87.84253
1030.207, 111.1516
1031.316, 98.74475
1032.425, 98.64612
1033.533, 69.65662
1034.642, 74.45496
1035.750, 73.76990
1036.858, 64.90564
1037.966, 84.81543
1039.073, 91.12537
1040.181, 100.4124
1041.288, 93.19800
1042.396, 58.10535
1043.503, 108.1581
1044.610, 73.54858
1045.716, 59.91089
1046.823, 77.50977
1047.929, 93.16052
1049.036, 77.75012
1050.142, 118.3021
1051.248, 48.96326
1052.353, 59.36145
1053.459, 63.92590
1054.564, 100.4076
1055.670, 61.00891
1056.775, 72.55249
1057.880, 37.04395
1058.985, 54.34204
1060.089, 53.80981
1061.194, 42.53467
1062.298, 31.60498
1063.402, 39.00854
1064.506, 34.37000
1065.610, 40.99768
1066.713, 67.66687
1067.817, 101.5623
1068.920, 90.12415
1070.023, 64.18933
1071.126, 78.71912
1072.229, 99.05981
1073.332, 38.59766
1074.435, 87.06628
1075.537, 72.43481
1076.639, 91.20007
1077.741, 84.65735
1078.843, 53.55029
1079.945, 62.23645
1081.046, 63.86133
1082.148, 57.46143
1083.249, 80.27893
1084.350, 37.80762
1085.451, 54.11401
1086.551, 26.17102
1087.652, 42.75244
1088.752, 30.03430
1089.853, 67.35046
1090.953, 98.71997
1092.053, 55.10193
1093.152, 71.50732
1094.252, 116.7819
1095.351, 71.20508
1096.451, 27.69604
1097.550, 77.34448
1098.649, 75.53503
1099.748, 40.99524
1100.846, 16.43298
1101.945, 35.74585
1103.043, 55.21436
1104.141, 46.58435
1105.239, 54.05688
1106.337, 39.44897
1107.434, 39.89197
1108.532, 37.38794
1109.629, 15.84521
1110.726, 8.270630
1111.823, 55.69788
1112.920, 26.79932
1114.017, 84.23315
1115.113, 47.62488
1116.210, 50.94482
1117.306, 45.96997
1118.402, 55.31470
1119.498, 61.70972
1120.593, 66.01196
1121.689, 74.97400
1122.784, 73.66174
1123.879, 86.11633
1124.974, 100.5302
1126.069, 97.31006
1127.164, 79.13013
1128.259, 67.40381
1129.353, 75.76550
1130.447, 60.60583
1131.541, 61.48242
1132.635, 43.57910
1133.729, 33.80969
1134.822, 15.21802
1135.916, 38.47449
1137.009, 23.80493
1138.102, 35.18225
1139.195, 6.510010
1140.288, 33.83691
1141.380, 50.16138
1142.473, 22.45605
1143.565, 26.77893
1144.657, 39.20288
1145.749, 23.37427
1146.841, 18.84949
1147.932, 47.97546
1149.024, 6.199585
1150.115, 1.520752
1151.206, 29.69556
1152.297, 26.99609
1153.388, 13.23694
1154.479, 52.49915
1155.569, 31.71802
1156.659, 23.04761
1157.750, 41.45459
1158.839, 11.77734
1159.929, 21.17981
1161.019, 42.50342
1162.108, 17.83069
1163.198, 34.17908
1164.287, 13.50476
1165.376, 14.77563
1166.465, 10.06482
1167.553, 34.35120
1168.642, 5.394409
1169.730, 48.99451
1170.818, 27.31384
1171.906, 25.63232
1172.994, 35.96497
1174.082, 16.80469
1175.170, 4.483887
1176.257, 31.80371
1177.344, 1.964355
1178.431, 16.33289
1179.518, 22.37268
1180.605, 17.91272
1181.691, 15.19568
1182.778, 45.36865
1183.864, 8.585938
1184.950, 36.82190
1186.036, 30.09863
1187.122, 11.32446
1188.207, 35.59998
1189.292, 27.72876
1190.378, 20.93164
1191.463, 47.13269
1192.548, 36.52563
1193.632, 4.384644
1194.717, 33.52612
1195.801, 36.64941
1196.886, 22.79980
1197.970, 24.93811
1199.054, 37.34253
1200.137, 11.41077
1201.221, 39.81470
1202.305, 48.05249
1203.388, 32.28918
1204.471, 44.40796
1205.554, 19.64062
1206.637, 27.12830
1207.719, 38.08936
1208.802, 6.651245
1209.884, 2.549072
1210.966, 15.86719
1212.048, 19.14319
1213.130, 7.679199
1214.212, 31.52112
1215.293, 65.61182
1216.374, 51.77161
1217.456, 14.83557
1218.536, 5.949341
1219.617, 29.01086
1220.698, 34.20276
1221.778, 14.41565
1222.859, 36.58350
1223.939, 5.336304
1225.019, 51.55945
1226.099, 26.75269
1227.178, 2.183594
1228.258, 7.005737
1229.337, 26.19385
1230.417, 19.68774
1231.496, 71.29236
1232.574, 47.37720
1233.653, 64.54321
1234.732, 7.673218
1235.810, 27.83704
1236.888, 23.94849
1237.966, 18.04944
1239.044, 37.13940
1240.122, 18.12598
1241.199, 31.05029
1242.277, 31.20862
1243.354, 10.31824
1244.431, 32.47424
1245.508, 23.60693
1246.585, 19.77625
1247.661, 28.90381
1248.738, 43.15381
1249.814, 45.30408
1250.890, 61.45276
1251.966, 44.62854
1253.042, 6.774780
1254.117, 17.91858
1255.193, 36.06030
1256.268, 7.201294
1257.343, 20.34033
1258.418, 38.47827
1259.493, 16.61438
1260.567, 46.77637
1261.642, 20.90918
1262.716, 52.02698
1263.790, 6.104126
1264.864, 47.10278
1265.938, 25.26270
1267.011, 15.29736
1268.085, 71.37903
1269.158, 27.32727
1270.231, 38.40356
1271.304, 27.53943
1272.377, 35.56787
1273.450, 21.33142
1274.522, 38.75452
1275.594, 74.84631
1276.666, 13.84534
1277.738, 60.94690
1278.810, 46.88611
1279.882, 66.78699
1280.953, 57.83130
1282.025, 59.21472
1283.096, 36.83838
1284.167, 48.97620
1285.238, 32.02820
1286.308, 5.046387
1287.379, 79.13477
1288.449, 6.100220
1289.519, 52.10364
1290.589, 54.18579
1291.659, 19.17334
1292.729, 53.29553
1293.798, 44.32703
1294.868, 59.32202
1295.937, 38.27356
1297.006, 54.35889
1298.075, 8.117188
1299.143, 58.18542
1300.212, 35.29578
1301.280, 20.30884
1302.348, 32.36475
1303.416, 19.78516
1304.484, 25.39526
1305.552, 28.48645
1306.620, 29.41296
1307.687, 47.38171
1308.754, 49.87939
1309.821, 53.85278
1310.888, 77.81372
1311.955, 59.86047
1313.021, 66.36011
1314.088, 53.37158
1315.154, 56.40259
1316.220, 59.15479
1317.286, 51.19360
1318.352, 33.20093
1319.417, 39.82983
1320.483, 31.35718
1321.548, 41.43994
1322.613, 35.34436
1323.678, 32.42542
1324.743, 34.45288
1325.807, 37.90625
1326.872, 15.68054
1327.936, 32.70508
1329.000, 34.23279
1330.064, 52.25513
1331.128, 37.27563
1332.191, 45.29382
1333.255, 34.31299
1334.318, 41.29797
1335.381, 28.89612
1336.444, 12.52332
1337.507, 13.59778
1338.569, 0.7679440
1339.632, 5.176514
1340.694, 22.13403
1341.756, 24.86267
1342.818, 22.69849
1343.880, 28.54492
1344.941, 16.93909
1346.003, 24.87878
1347.064, 36.78088
1348.125, 29.86414
1349.186, 16.86670
1350.247, 50.88550
1351.308, 11.09766
1352.368, 16.37439
1353.428, 67.89001
1354.489, 26.21167
1355.549, 73.06714
1356.608, 78.96655
1357.668, 44.94556
1358.727, 33.97095
1359.787, 46.99048
1360.846, 59.01038
1361.905, 39.00110
1362.964, 22.92004
1364.022, 20.90491
1365.081, 37.96460
1366.139, 55.90857
1367.197, 45.99951
1368.255, 55.94397
1369.313, 32.93420
1370.371, 8.920898
1371.428, 25.88416
1372.486, 53.87952
1373.543, 18.84595
1374.600, 45.79529
1375.657, 0.8929440
1376.713, 24.87354
1377.770, 26.85278
1378.826, 17.84607
1379.882, 66.81909
1380.938, 59.70642
1381.994, 36.63562
1383.050, 54.66760
1384.106, 39.56116
1385.161, 51.49976
1386.216, 44.45520
1387.271, 18.36401
1388.326, 47.31323
1389.381, 29.23828
1390.435, 58.18579
1391.490, 31.04785
1392.544, 9.988281
1393.598, 48.95801
1394.652, 40.86621
1395.705, 47.80200
1396.759, 61.84375
1397.812, 21.77795
1398.866, 67.72961
1399.919, 12.66028
1400.972, 24.46045
1402.024, 7.360107
1403.077, 36.25806
1404.129, 38.16870
1405.181, 41.18958
1406.233, 46.38220
1407.285, 52.01746
1408.337, 35.90442
1409.389, 29.78943
1410.440, 14.77527
1411.491, 29.69324
1412.542, 24.56848
1413.593, 45.35742
1414.644, 52.35327
1415.695, 53.01978
1416.745, 52.87842
1417.795, 57.73950
1418.845, 9.574219
1419.895, 10.46875
1420.945, 20.32080
1421.995, 53.16968
1423.044, 18.04285
1424.093, 34.15979
1425.142, 36.92993
1426.191, 4.879761
1427.240, 37.70837
1428.289, 32.64368
1429.337, 53.46289
1430.385, 52.26440
1431.433, 13.13599
1432.481, 8.949341
1433.529, 58.78906
1434.577, 8.404785
1435.624, 46.39917
1436.672, 41.18652
1437.719, 39.96326
1438.766, 26.00696
1439.812, 7.164917
1440.859, 24.70190
1441.905, 11.55066
1442.952, 36.16528
1443.998, 39.82019
1445.044, 15.41675
1446.090, 4.064575
1447.135, 14.43457
1448.181, 48.41577
1449.226, 14.39563
1450.271, 32.34338
1451.316, 5.669556
1452.361, 19.31848
1453.405, 28.30566
1454.450, 19.29883
1455.494, 28.21045
1456.538, 40.99963
1457.582, 41.99353
1458.626, 94.98865
1459.670, 23.95898
1460.713, 91.95312
1461.757, 7.079102
1462.800, 6.224487
1463.843, 20.18774
1464.886, 57.15015
1465.928, 44.11707
1466.971, 9.087402
1468.013, 28.05298
1469.055, 32.00708
1470.097, 16.97424
1471.139, 40.94031
1472.181, 34.82593
1473.222, 9.760864
1474.263, 48.59729
1475.305, 10.55603
1476.346, 26.47705
1477.386, 21.56567
1478.427, 4.609131
1479.468, 1.652832
1480.508, 23.26550
1481.548, 48.22107
1482.588, 38.08765
1483.628, 85.04224
1484.668, 24.99585
1485.707, 24.92554
1486.747, 31.80237
1487.786, 27.65955
1488.825, 57.62439
1489.864, 10.58899
1490.902, 85.55444
1491.941, 8.451172
1492.979, 81.41199
1494.017, 32.38110
1495.055, 43.35254
1496.093, 21.11047
1497.131, 31.04553
1498.168, 63.96301
1499.206, 55.78296
1500.243, 8.755371
1501.280, 44.73047
1502.317, 51.47668
1503.354, 29.37781
1504.390, 51.34375
1505.426, 54.30457
1506.463, 49.24194
1507.499, 15.62439
1508.535, 37.46716
1509.570, 27.11450
1510.606, 54.95117
1511.641, 59.91541
1512.676, 57.76489
1513.711, 67.48645
1514.746, 56.39087
1515.781, 62.39734
1516.816, 39.91736
1517.850, 24.51111
1518.884, 29.39465
1519.918, 50.05920
1520.952, 9.799316
1521.986, 46.66113
1523.019, 29.30298
1524.053, 35.89429
1525.086, 50.09888
1526.119, 62.78003
1527.152, 50.44495
1528.185, 14.01636
1529.217, 3.564941
1530.250, 32.12537
1531.282, 18.43640
1532.314, 33.67065
1533.346, 66.19336
1534.377, 6.494019
1535.409, 19.97449
1536.440, 41.01184
1537.472, 38.36670
1538.503, 64.77234
1539.534, 74.91724
1540.564, 78.22925
1541.595, 32.62866
1542.625, 33.00940
1543.656, 19.34839
1544.686, 38.53613
1545.716, 38.77002
1546.745, 21.49426
1547.775, 1.406494
1548.804, 45.02661
1549.834, 5.090942
1550.863, 28.71228
1551.892, 3.775879
1552.920, 42.39709
1553.949, 45.40051
1554.977, 15.65796
1556.006, 60.90991
1557.034, 22.13672
1558.062, 55.96765
1559.089, 43.84827
1560.117, 54.85693
1561.144, 29.25146
1562.172, 0.8890380
1563.199, 10.54773
1564.226, 4.951904
1565.252, 23.22876
1566.279, 33.68005
1567.305, 23.15161
1568.332, 38.07019
1569.358, 1.5259000E-02
1570.384, 0.0000000E+00
##END=



