##NAMES=Brookite
##RRUFFID=R050591
##IDEAL CHEMISTRY=Ti^4+^O_2_
##LOCALITY=Taftan, near Dalbandi, Baluchistan, Pakistan
##OWNER=RRUFF
##SOURCE=Wayne Thompson
##DESCRIPTION=Yellowish-brown to reddish-brown thin tabular crystal
##STATUS=The identification of this mineral has been confirmed by X-ray diffraction and chemical analysis
##URL=rruff.info/R050591
##MEASURED CHEMISTRY=Ti_1.00_O_2_
##PIN_ID=M00065
##ORIENTATION=Laser parallel to c* (0 0 1). Fiducial mark perpendicular to laser is parallel to a [1 0 0]
51.43100, 0.0000000E+00
52.67100, 23.81720
53.91000, 18.45886
55.14900, 20.31848
56.38700, 32.91037
57.62600, 36.71201
58.86400, 48.37347
60.10300, 51.76355
61.34100, 23.83746
62.57900, 9.866302
63.81700, 1.268372
65.05400, 6.669983
66.29200, 8.226501
67.52900, 9.764404
68.76700, 2.5299000E-02
70.00400, 1.173767
71.24100, 16.79095
72.47700, 1.207672
73.71400, 0.7773130
74.95100, 8.121887
76.18700, 10.42609
77.42300, 32.08301
78.65900, 60.05035
79.89500, 66.29364
81.13100, 95.49097
82.36700, 95.49829
83.60200, 130.4159
84.83700, 131.5200
86.07200, 121.7958
87.30800, 168.2314
88.54200, 168.8154
89.77700, 191.5374
91.01200, 226.3952
92.24600, 305.3972
93.48000, 363.5350
94.71400, 380.3640
95.94800, 393.1133
97.18200, 412.9531
98.41600, 445.7885
99.64900, 513.6303
100.8830, 564.4839
102.1160, 618.3517
103.3490, 687.2358
104.5820, 763.1375
105.8150, 853.0588
107.0470, 960.0010
108.2800, 1096.966
109.5120, 1199.955
110.7440, 1365.968
111.9760, 1473.006
113.2080, 1690.071
114.4400, 1989.162
115.6710, 2399.280
116.9030, 2736.426
118.1340, 3342.599
119.3650, 4111.802
120.5960, 4726.033
121.8270, 5280.294
123.0580, 6119.584
124.2880, 7249.905
125.5190, 8682.254
126.7490, 10693.61
127.9790, 14253.00
129.2090, 17782.50
130.4390, 19315.20
131.6680, 17682.06
132.8980, 13559.97
134.1270, 9409.870
135.3560, 7074.766
136.5850, 6373.435
137.8140, 6570.938
139.0430, 7390.801
140.2710, 8654.218
141.5000, 10194.47
142.7280, 12187.76
143.9560, 14510.07
145.1840, 17010.51
146.4120, 20465.02
147.6390, 24039.61
148.8670, 28161.23
150.0940, 33253.88
151.3210, 39240.56
152.5490, 45445.25
153.7750, 51673.97
155.0020, 56352.73
156.2290, 58511.51
157.4550, 56647.32
158.6810, 51244.16
159.9080, 43972.02
161.1340, 35433.91
162.3590, 28145.83
163.5850, 22476.77
164.8110, 17765.74
166.0360, 14263.74
167.2610, 11545.77
168.4860, 9494.820
169.7110, 7732.897
170.9360, 6447.993
172.1610, 5456.113
173.3850, 4566.255
174.6100, 4007.421
175.8340, 3471.609
177.0580, 2965.820
178.2820, 2571.053
179.5050, 2304.312
180.7290, 1993.592
181.9520, 1844.897
183.1760, 1764.225
184.3990, 1555.578
185.6220, 1607.954
186.8450, 1599.355
188.0670, 1535.779
189.2900, 1640.228
190.5120, 1644.701
191.7340, 1848.199
192.9560, 2228.721
194.1780, 2777.268
195.4000, 3621.841
196.6220, 4435.466
197.8430, 4486.186
199.0640, 3835.250
200.2860, 2776.300
201.5070, 1760.156
202.7270, 1138.747
203.9480, 790.8738
205.1690, 540.1436
206.3890, 453.8070
207.6090, 314.6604
208.8290, 262.4252
210.0490, 185.3528
211.2690, 137.1936
212.4890, 131.4944
213.7080, 124.1790
214.9280, 96.05872
216.1470, 69.41528
217.3660, 51.82605
218.5850, 17.28442
219.8030, 16.22461
221.0220, 77.69202
222.2400, 105.1290
223.4590, 75.55310
224.6770, 111.9587
225.8950, 66.35645
227.1120, 52.73633
228.3300, 3.096436
229.5480, 79.57336
230.7650, 208.2754
231.9820, 348.0090
233.1990, 574.7733
234.4160, 872.6787
235.6330, 1286.503
236.8490, 1924.555
238.0660, 2693.726
239.2820, 3525.966
240.4980, 4538.039
241.7140, 5755.787
242.9300, 7309.795
244.1460, 9551.791
245.3610, 12439.80
246.5770, 16282.84
247.7920, 20285.90
249.0070, 23259.96
250.2220, 23596.05
251.4370, 21047.17
252.6510, 16597.29
253.8660, 12481.44
255.0800, 9183.610
256.2940, 7076.797
257.5080, 5523.003
258.7220, 4497.226
259.9360, 3776.468
261.1490, 3151.730
262.3630, 2719.010
263.5760, 2360.309
264.7890, 2061.626
266.0020, 1897.962
267.2150, 1662.317
268.4270, 1503.690
269.6400, 1292.081
270.8520, 1160.491
272.0640, 1100.920
273.2760, 981.3667
274.4880, 942.8318
275.7000, 832.3151
276.9120, 786.8158
278.1230, 688.3329
279.3340, 643.8667
280.5450, 589.4169
281.7560, 557.9840
282.9670, 528.5227
284.1780, 496.1525
285.3880, 480.4969
286.5980, 448.8297
287.8090, 437.2598
289.0190, 416.7098
290.2290, 391.7703
291.4380, 350.6705
292.6480, 344.1801
293.8570, 328.7087
295.0670, 303.2566
296.2760, 345.8237
297.4850, 313.4102
298.6930, 372.0155
299.9020, 344.6400
301.1110, 330.2838
302.3190, 429.9468
303.5270, 371.6287
304.7350, 439.3300
305.9430, 466.0500
307.1510, 593.7896
308.3580, 617.5480
309.5660, 697.3254
310.7730, 684.1221
311.9800, 839.9380
313.1870, 909.7726
314.3940, 1117.626
315.6010, 1147.500
316.8070, 1294.392
318.0130, 1422.303
319.2200, 1562.233
320.4260, 1733.183
321.6310, 1867.151
322.8370, 1919.139
324.0430, 1972.146
325.2480, 2037.173
326.4540, 1987.218
327.6590, 1938.283
328.8640, 1774.368
330.0680, 1720.471
331.2730, 1574.594
332.4780, 1450.736
333.6820, 1283.898
334.8860, 1024.079
336.0900, 931.2826
337.2940, 769.5024
338.4980, 570.1659
339.7010, 508.5391
340.9050, 362.8660
342.1080, 212.4092
343.3110, 187.4424
344.5140, 104.8079
345.7170, 10.08069
346.9200, 17.16748
348.1220, 36.02148
349.3240, 35.56323
350.5270, 80.20374
351.7290, 81.39282
352.9310, 97.49365
354.1320, 101.8066
355.3340, 28.53918
356.5350, 4.169067
357.7370, 54.10107
358.9380, 45.39551
360.1390, 165.7128
361.3400, 229.0519
362.5400, 342.4126
363.7410, 464.7948
364.9410, 617.0316
366.1410, 811.9429
367.3410, 888.3330
368.5410, 886.3964
369.7410, 845.4286
370.9400, 724.0297
372.1400, 642.3909
373.3390, 468.4188
374.5380, 287.9984
375.7370, 138.6005
376.9360, 112.2249
378.1350, 16.87183
379.3330, 39.53894
380.5310, 48.77148
381.7300, 69.08899
382.9280, 12.42261
384.1260, 28.74744
385.3230, 22.07007
386.5210, 18.61267
387.7180, 113.3167
388.9160, 142.0435
390.1130, 278.7932
391.3100, 281.5662
392.5060, 372.3623
393.7030, 508.1816
394.9000, 595.0247
396.0960, 777.8909
397.2920, 851.7805
398.4880, 948.6938
399.6840, 1228.631
400.8800, 1408.592
402.0750, 1460.577
403.2710, 1763.586
404.4660, 2127.619
405.6610, 2599.676
406.8560, 2941.758
408.0510, 3337.864
409.2450, 3814.995
410.4400, 4288.150
411.6340, 4627.332
412.8280, 4900.537
414.0220, 4905.764
415.2160, 4888.021
416.4100, 4615.301
417.6030, 4379.606
418.7970, 3972.938
419.9900, 3485.293
421.1830, 3016.674
422.3760, 2610.081
423.5690, 2269.513
424.7610, 1922.971
425.9540, 1692.454
427.1460, 1424.276
428.3380, 1183.500
429.5300, 1011.063
430.7220, 833.6531
431.9140, 676.2699
433.1050, 583.9141
434.2970, 435.5856
435.4880, 410.2842
436.6790, 348.0105
437.8700, 282.7642
439.0610, 205.5453
440.2510, 159.3542
441.4420, 134.1907
442.6320, 69.05493
443.8220, 48.94690
445.0120, 43.86694
446.2020, 10.81482
447.3910, 60.79089
448.5810, 29.79492
449.7700, 57.82715
450.9600, 24.88770
452.1490, 95.97656
453.3370, 138.0939
454.5260, 125.2396
455.7150, 239.4138
456.9030, 353.6166
458.0910, 325.8484
459.2800, 344.1085
460.4670, 467.3976
461.6550, 564.7156
462.8430, 488.0623
464.0300, 609.4384
465.2180, 583.8433
466.4050, 527.2773
467.5920, 482.7405
468.7790, 460.2333
469.9650, 346.7552
471.1520, 324.3066
472.3380, 195.8877
473.5250, 125.4980
474.7110, 93.13818
475.8970, 29.80811
477.0820, 17.50781
478.2680, 4.237305
479.4540, 13.99597
480.6390, 13.21545
481.8240, 113.4021
483.0090, 72.60425
484.1940, 96.80420
485.3780, 22.01221
486.5630, 93.19788
487.7470, 71.38940
488.9320, 46.40454
490.1160, 63.17883
491.3000, 3.511841
492.4830, 30.95483
493.6670, 66.85767
494.8500, 71.88953
496.0340, 18.86523
497.2170, 10.94629
498.4000, 7.212769
499.5820, 11.99219
500.7650, 35.01721
501.9480, 51.09009
503.1300, 150.1112
504.3120, 112.2354
505.4940, 185.3929
506.6760, 229.5837
507.8580, 169.8138
509.0390, 214.0973
510.2210, 226.4409
511.4020, 246.8376
512.5830, 286.6890
513.7640, 323.0857
514.9450, 369.3680
516.1250, 416.9668
517.3060, 483.6013
518.4860, 526.2720
519.6660, 620.9802
520.8460, 645.6128
522.0260, 778.3921
523.2060, 832.0073
524.3850, 1003.567
525.5650, 1146.121
526.7440, 1268.903
527.9230, 1519.071
529.1020, 1723.041
530.2810, 1857.081
531.4590, 2104.169
532.6380, 2363.299
533.8160, 2587.478
534.9940, 2866.475
536.1720, 3120.958
537.3500, 3399.261
538.5270, 3642.599
539.7050, 3879.980
540.8820, 4156.402
542.0590, 4265.866
543.2360, 4512.371
544.4130, 4656.918
545.5900, 4750.513
546.7660, 4709.151
547.9430, 4733.834
549.1190, 4682.560
550.2950, 4447.329
551.4710, 4171.140
552.6470, 3946.991
553.8220, 3597.882
554.9980, 3284.808
556.1730, 2959.770
557.3480, 2712.767
558.5230, 2444.264
559.6980, 2175.865
560.8730, 1981.965
562.0470, 1788.102
563.2220, 1583.274
564.3960, 1424.710
565.5700, 1319.720
566.7440, 1133.996
567.9170, 1070.307
569.0910, 987.6536
570.2640, 899.0344
571.4380, 821.4509
572.6110, 795.9016
573.7840, 751.3918
574.9570, 713.9194
576.1290, 711.4812
577.3020, 770.0798
578.4740, 764.7124
579.6460, 755.3826
580.8180, 829.0869
581.9900, 849.8259
583.1620, 809.6000
584.3330, 835.4073
585.5040, 834.5803
586.6760, 824.1299
587.8470, 842.0446
589.0180, 846.9932
590.1880, 830.9794
591.3590, 774.0013
592.5290, 706.0559
593.7000, 678.1487
594.8700, 649.2764
596.0400, 598.4380
597.2090, 695.6335
598.3790, 707.8643
599.5490, 697.1277
600.7180, 725.4263
601.8870, 726.7581
603.0560, 841.1250
604.2250, 894.5261
605.3940, 1019.965
606.5620, 1005.439
607.7300, 1189.947
608.8990, 1229.491
610.0670, 1435.069
611.2350, 1565.681
612.4020, 1692.331
613.5700, 1903.017
614.7370, 2071.737
615.9050, 2250.493
617.0720, 2470.281
618.2390, 2770.102
619.4060, 3028.952
620.5720, 3298.844
621.7390, 3699.355
622.9050, 3963.211
624.0710, 4444.162
625.2370, 4658.950
626.4030, 5116.301
627.5690, 5603.373
628.7340, 5954.595
629.9000, 6392.055
631.0650, 6769.802
632.2300, 7166.041
633.3950, 7529.135
634.5600, 7917.291
635.7240, 8237.144
636.8890, 8525.233
638.0530, 8911.771
639.2170, 8960.246
640.3810, 9071.869
641.5450, 9055.524
642.7080, 8958.211
643.8720, 8756.931
645.0350, 8648.675
646.1980, 8293.449
647.3610, 7970.254
648.5240, 7756.089
649.6870, 7393.954
650.8490, 7059.845
652.0120, 6532.843
653.1740, 6211.838
654.3360, 5854.182
655.4980, 5475.402
656.6600, 5202.856
657.8210, 4758.433
658.9830, 4505.226
660.1440, 4321.744
661.3050, 3935.285
662.4660, 3666.802
663.6270, 3400.101
664.7870, 3105.567
665.9480, 3029.150
667.1080, 2772.713
668.2680, 2577.724
669.4280, 2505.355
670.5880, 2361.839
671.7480, 2234.954
672.9070, 2118.254
674.0670, 1986.286
675.2260, 1876.332
676.3850, 1726.359
677.5440, 1654.084
678.7030, 1534.320
679.8610, 1549.368
681.0200, 1390.926
682.1780, 1337.651
683.3360, 1363.877
684.4940, 1178.681
685.6520, 1175.482
686.8090, 1108.091
687.9670, 1058.159
689.1240, 1078.709
690.2810, 1027.940
691.4380, 963.3983
692.5950, 907.9165
693.7520, 873.3145
694.9080, 856.3054
696.0650, 865.1646
697.2210, 804.1581
698.3770, 795.1113
699.5330, 729.1984
700.6880, 682.4487
701.8440, 655.3788
702.9990, 667.3462
704.1550, 640.8890
705.3100, 621.4026
706.4650, 601.2816
707.6190, 562.4650
708.7740, 510.6846
709.9290, 458.1069
711.0830, 439.2560
712.2370, 488.6831
713.3910, 453.5579
714.5450, 433.8042
715.6980, 411.5577
716.8520, 391.8929
718.0050, 386.8899
719.1580, 371.6705
720.3110, 425.7958
721.4640, 337.3562
722.6170, 314.5736
723.7700, 258.3385
724.9220, 300.4189
726.0740, 269.1414
727.2260, 301.5908
728.3780, 294.9490
729.5300, 221.8816
730.6810, 270.1990
731.8330, 255.7510
732.9840, 246.6084
734.1350, 167.3020
735.2860, 260.9449
736.4370, 195.0153
737.5880, 178.5255
738.7380, 177.4683
739.8880, 156.1681
741.0390, 160.4348
742.1890, 157.2605
743.3380, 165.1235
744.4880, 166.1825
745.6380, 166.3590
746.7870, 174.5497
747.9360, 127.9126
749.0850, 132.9075
750.2340, 140.8782
751.3830, 184.5812
752.5310, 142.7383
753.6800, 162.2561
754.8280, 128.2167
755.9760, 108.1833
757.1240, 148.1023
758.2720, 115.6260
759.4190, 127.0769
760.5670, 90.70386
761.7140, 92.37134
762.8610, 119.7386
764.0080, 163.4659
765.1550, 101.0856
766.3020, 76.37903
767.4480, 120.9723
768.5950, 99.57861
769.7410, 129.7531
770.8870, 72.85071
772.0330, 119.8234
773.1780, 86.80322
774.3240, 82.82300
775.4690, 81.86316
776.6140, 12.12683
777.7590, 76.34241
778.9040, 78.21008
780.0490, 90.14526
781.1940, 40.84619
782.3380, 42.59216
783.4820, 58.34961
784.6260, 26.09302
785.7700, 47.80542
786.9140, 2.590454
788.0580, 21.10779
789.2010, 4.012939
790.3450, 2.105835
791.4880, 13.32629
792.6310, 8.813599
793.7730, 14.07349
794.9160, 15.83777
796.0590, 19.10876
797.2010, 12.61353
798.3430, 12.10559
799.4850, 10.61279
800.6270, 3.181519
801.7690, 6.631958
802.9100, 8.295532
804.0520, 6.710938
805.1930, 31.17993
806.3340, 23.66443
807.4750, 54.24475
808.6160, 29.85229
809.7560, 56.56885
810.8970, 19.00378
812.0370, 25.74377
813.1770, 24.47766
814.3170, 1.327515
815.4570, 26.19019
816.5960, 22.07837
817.7360, 29.89087
818.8750, 14.77673
820.0140, 22.46259
821.1530, 48.56323
822.2920, 30.58936
823.4310, 26.48389
824.5690, 33.52600
825.7070, 23.90594
826.8460, 17.66681
827.9840, 20.81287
829.1220, 4.012939
830.2590, 1.232666
831.3970, 8.626099
832.5340, 22.37512
833.6710, 12.19537
834.8080, 17.61383
835.9450, 10.72278
837.0820, 6.423767
838.2190, 41.14661
839.3550, 28.89050
840.4910, 2.650879
841.6270, 39.48853
842.7630, 7.117249
843.8990, 17.81244
845.0350, 17.40503
846.1700, 9.964050
847.3060, 27.56622
848.4410, 6.829224
849.5760, 2.766357
850.7100, 25.34283
851.8450, 6.799011
852.9800, 22.27557
854.1140, 3.719177
855.2480, 25.11078
856.3820, 16.56232
857.5160, 17.91522
858.6500, 47.24768
859.7830, 13.56317
860.9170, 6.856445
862.0500, 17.22754
863.1830, 31.53339
864.3160, 3.763611
865.4480, 13.96503
866.5810, 49.14081
867.7130, 2.322205
868.8460, 19.50238
869.9780, 27.60834
871.1100, 31.69507
872.2410, 15.75854
873.3730, 43.79700
874.5050, 21.81555
875.6360, 31.81940
876.7670, 17.79254
877.8980, 25.78406
879.0290, 2.708008
880.1590, 22.65875
881.2900, 19.61285
882.4200, 19.98126
883.5500, 15.78278
884.6800, 29.06567
885.8100, 3.830139
886.9400, 9.561401
888.0690, 25.26190
889.1990, 15.00549
890.3280, 35.65668
891.4570, 36.27753
892.5860, 39.98279
893.7140, 2.407410
894.8430, 16.83118
895.9710, 15.65948
897.1000, 64.12012
898.2280, 25.55896
899.3560, 64.00476
900.4830, 19.39319
901.6110, 31.75128
902.7380, 22.08185
903.8660, 22.39960
904.9930, 40.69153
906.1200, 45.93585
907.2460, 55.15442
908.3730, 56.16205
909.5000, 54.55841
910.6260, 53.70282
911.7520, 40.82141
912.8780, 43.91443
914.0040, 68.99939
915.1290, 64.04077
916.2550, 88.19458
917.3800, 83.18909
918.5050, 82.16040
919.6300, 84.11261
920.7550, 88.13312
921.8800, 79.65192
923.0040, 117.9357
924.1290, 70.79095
925.2530, 68.54468
926.3770, 80.30518
927.5010, 115.7220
928.6250, 93.26538
929.7480, 110.5798
930.8720, 106.7764
931.9950, 110.7624
933.1180, 106.0272
934.2410, 121.2727
935.3640, 105.5543
936.4860, 98.09680
937.6090, 110.5092
938.7310, 105.7671
939.8530, 97.11023
940.9750, 94.96722
942.0970, 103.2175
943.2180, 99.63312
944.3400, 116.3917
945.4610, 67.56427
946.5820, 104.8520
947.7030, 96.68396
948.8240, 124.6641
949.9450, 127.8915
951.0650, 122.6387
952.1860, 92.47382
953.3060, 101.8115
954.4260, 94.16376
955.5460, 94.83429
956.6650, 111.9799
957.7850, 77.07092
958.9040, 97.37427
960.0230, 90.21765
961.1420, 90.54590
962.2610, 97.19336
963.3800, 102.6267
964.4990, 102.0280
965.6170, 78.59546
966.7350, 101.5677
967.8530, 84.66583
968.9710, 80.61920
970.0890, 97.58929
971.2070, 100.4154
972.3240, 91.06317
973.4410, 83.01562
974.5580, 76.01202
975.6750, 63.34216
976.7920, 99.28021
977.9090, 78.81909
979.0250, 99.52374
980.1410, 109.2009
981.2580, 88.67188
982.3740, 84.41595
983.4890, 78.80774
984.6050, 77.31982
985.7200, 108.3506
986.8360, 91.40002
987.9510, 94.86255
989.0660, 111.6575
990.1810, 82.09741
991.2950, 102.3185
992.4100, 120.5330
993.5240, 117.0840
994.6390, 111.0810
995.7530, 74.75598
996.8660, 84.81116
997.9800, 98.11621
999.0940, 97.49219
1000.207, 111.3264
1001.320, 91.81543
1002.433, 84.02545
1003.546, 97.92719
1004.659, 95.03601
1005.772, 96.10876
1006.884, 94.74677
1007.996, 103.9832
1009.108, 91.88062
1010.220, 93.83997
1011.332, 82.45630
1012.444, 100.1667
1013.555, 76.98981
1014.666, 69.60010
1015.777, 88.38635
1016.888, 108.8100
1017.999, 98.15948
1019.110, 96.94373
1020.220, 86.54822
1021.331, 101.4611
1022.441, 67.93152
1023.551, 81.97729
1024.661, 87.64581
1025.770, 56.21063
1026.880, 73.01233
1027.989, 70.18451
1029.098, 77.54333
1030.207, 85.53967
1031.316, 87.48340
1032.425, 66.69403
1033.533, 102.5435
1034.642, 87.46423
1035.750, 95.70184
1036.858, 67.67084
1037.966, 65.65332
1039.073, 83.05090
1040.181, 78.48877
1041.288, 59.04913
1042.396, 78.62225
1043.503, 74.23303
1044.610, 78.64136
1045.716, 79.25995
1046.823, 61.46991
1047.929, 72.03955
1049.036, 34.75610
1050.142, 75.46130
1051.248, 70.16205
1052.353, 62.80408
1053.459, 40.46698
1054.564, 57.10663
1055.670, 65.66339
1056.775, 66.46112
1057.880, 62.94080
1058.985, 65.31903
1060.089, 64.83893
1061.194, 71.60461
1062.298, 61.19525
1063.402, 62.89526
1064.506, 60.81586
1065.610, 58.17047
1066.713, 65.15363
1067.817, 55.86090
1068.920, 49.53198
1070.023, 45.43378
1071.126, 57.74249
1072.229, 43.39697
1073.332, 54.99152
1074.435, 51.47424
1075.537, 47.94965
1076.639, 57.99402
1077.741, 45.63184
1078.843, 52.29395
1079.945, 57.88885
1081.046, 23.43683
1082.148, 35.12250
1083.249, 27.77734
1084.350, 51.44513
1085.451, 47.96698
1086.551, 13.53394
1087.652, 47.08344
1088.752, 33.62164
1089.853, 47.24237
1090.953, 41.72583
1092.053, 41.35553
1093.152, 62.10583
1094.252, 63.71436
1095.351, 44.32239
1096.451, 32.94568
1097.550, 29.56427
1098.649, 25.08069
1099.748, 25.59198
1100.846, 27.31403
1101.945, 31.83374
1103.043, 33.49756
1104.141, 36.12042
1105.239, 38.74841
1106.337, 18.15472
1107.434, 38.64087
1108.532, 26.98181
1109.629, 16.54608
1110.726, 31.00171
1111.823, 27.51801
1112.920, 27.04517
1114.017, 25.50549
1115.113, 46.94122
1116.210, 31.35815
1117.306, 66.76843
1118.402, 65.27661
1119.498, 89.76086
1120.593, 89.23376
1121.689, 109.7711
1122.784, 113.2235
1123.879, 110.7612
1124.974, 111.2480
1126.069, 72.72937
1127.164, 73.20801
1128.259, 30.58240
1129.353, 34.01459
1130.447, 41.48138
1131.541, 26.94940
1132.635, 15.41742
1133.729, 23.85687
1134.822, 22.28625
1135.916, 9.746887
1137.009, 28.20801
1138.102, 27.66162
1139.195, 16.14197
1140.288, 0.3790280
1141.380, 22.05725
1142.473, 10.49945
1143.565, 37.89630
1144.657, 18.33545
1145.749, 19.74146
1146.841, 6.906189
1147.932, 27.55750
1149.024, 2.992981
1150.115, 2.572083
1151.206, 28.85999
1152.297, 16.29510
1153.388, 10.74268
1154.479, 23.10931
1155.569, 4.540100
1156.659, 24.97540
1157.750, 3.699707
1158.839, 3.305573
1159.929, 6.911377
1161.019, 1.469391
1162.108, 0.3347780
1163.198, 5.061951
1164.287, 6.999054
1165.376, 13.46350
1166.465, 16.90198
1167.553, 9.340790
1168.642, 1.763611
1169.730, 5.183258
1170.818, 10.65759
1171.906, 9.097015
1172.994, 3.494171
1174.082, 2.873016
1175.170, 25.56174
1176.257, 10.00336
1177.344, 23.42819
1178.431, 16.84097
1179.518, 5.728180
1180.605, 16.59604
1181.691, 3.023590
1182.778, 10.45807
1183.864, 4.879242
1184.950, 14.64114
1186.036, 13.04080
1187.122, 15.46460
1188.207, 0.8875730
1189.292, 14.30951
1190.378, 6.731415
1191.463, 7.152100
1192.548, 9.570496
1193.632, 11.98737
1194.717, 6.597443
1195.801, 21.81375
1196.886, 1.221985
1197.970, 11.62979
1199.054, 1.027985
1200.137, 6.399414
1201.221, 8.754303
1202.305, 0.8449400
1203.388, 1.933258
1204.471, 14.89542
1205.554, 7.723755
1206.637, 2.360687
1207.719, 13.02908
1208.802, 8.617859
1209.884, 14.76099
1210.966, 18.14453
1212.048, 6.398102
1213.130, 11.70566
1214.212, 7.982422
1215.293, 20.35800
1216.374, 22.71964
1217.456, 13.89920
1218.536, 18.87646
1219.617, 24.56039
1220.698, 11.92004
1221.778, 5.257263
1222.859, 4.407135
1223.939, 6.969482
1225.019, 14.33340
1226.099, 22.71439
1227.178, 24.01340
1228.258, 33.29822
1229.337, 8.564850
1230.417, 0.1666870
1231.496, 11.10913
1232.574, 1.595703
1233.653, 2.227295
1234.732, 29.01926
1235.810, 7.342896
1236.888, 4.580719
1237.966, 14.90466
1239.044, 6.191315
1240.122, 10.42426
1241.199, 15.71835
1242.277, 16.01407
1243.354, 18.97214
1244.431, 16.60098
1245.508, 21.98187
1246.585, 18.28247
1247.661, 20.66446
1248.738, 9.036072
1249.814, 22.37622
1250.890, 4.715424
1251.966, 5.053375
1253.042, 2.390167
1254.117, 30.72543
1255.193, 17.05954
1256.268, 25.40942
1257.343, 17.74142
1258.418, 9.043732
1259.493, 21.36078
1260.567, 35.69006
1261.642, 31.06000
1262.716, 32.67944
1263.790, 8.596191
1264.864, 23.87292
1265.938, 11.09045
1267.011, 14.38998
1268.085, 5.693542
1269.158, 4.964081
1270.231, 16.11832
1271.304, 28.42126
1272.377, 15.64441
1273.450, 11.96170
1274.522, 6.218567
1275.594, 26.48169
1276.666, 3.440948
1277.738, 35.73743
1278.810, 14.95685
1279.882, 12.06677
1280.953, 23.37085
1282.025, 8.621185
1283.096, 19.84857
1284.167, 20.14026
1285.238, 25.42197
1286.308, 35.70953
1287.379, 26.83560
1288.449, 16.93463
1289.519, 18.90723
1290.589, 5.081726
1291.659, 12.29041
1292.729, 3.504547
1293.798, 3.718872
1294.868, 14.96866
1295.937, 17.25742
1297.006, 27.47766
1298.075, 19.66605
1299.143, 1.924072
1300.212, 21.14883
1301.280, 11.41025
1302.348, 4.395508
1303.416, 17.76620
1304.484, 20.20923
1305.552, 17.05893
1306.620, 33.35443
1307.687, 19.64688
1308.754, 1.896912
1309.821, 23.28003
1310.888, 7.644989
1311.955, 22.13474
1313.021, 9.625336
1314.088, 28.08533
1315.154, 20.49799
1316.220, 24.09250
1317.286, 12.31311
1318.352, 32.65588
1319.417, 17.87881
1320.483, 31.09079
1321.548, 34.31604
1322.613, 37.58008
1323.678, 36.95190
1324.743, 35.29944
1325.807, 28.08679
1326.872, 33.34683
1327.936, 28.51483
1329.000, 39.07410
1330.064, 50.95688
1331.128, 39.10678
1332.191, 34.23300
1333.255, 14.49545
1334.318, 27.46777
1335.381, 31.60480
1336.444, 32.87479
1337.507, 35.76236
1338.569, 17.03036
1339.632, 32.29111
1340.694, 24.49857
1341.756, 41.73676
1342.818, 13.94846
1343.880, 16.21378
1344.941, 19.46548
1346.003, 17.69534
1347.064, 9.941467
1348.125, 29.18311
1349.186, 20.42456
1350.247, 24.67123
1351.308, 6.875946
1352.368, 30.11221
1353.428, 1.357880
1354.489, 14.62674
1355.549, 9.893829
1356.608, 34.18951
1357.668, 18.42245
1358.727, 16.70746
1359.787, 21.98016
1360.846, 25.15787
1361.905, 9.388824
1362.964, 23.66074
1364.022, 17.90414
1365.081, 25.11093
1366.139, 7.381561
1367.197, 16.60693
1368.255, 12.86026
1369.313, 6.117950
1370.371, 26.54019
1371.428, 1.821686
1372.486, 1.357056
1373.543, 25.58478
1374.600, 0.8917850
1375.657, 3.161285
1376.713, 45.36349
1377.770, 14.60522
1378.826, 10.83142
1379.882, 30.01163
1380.938, 11.17798
1381.994, 23.38553
1383.050, 6.636810
1384.106, 10.83826
1385.161, 22.06195
1386.216, 17.24368
1387.271, 19.44144
1388.326, 0.3619690
1389.381, 6.833252
1390.435, 10.02795
1391.490, 9.203766
1392.544, 11.39578
1393.598, 9.932953
1394.652, 8.660004
1395.705, 5.136810
1396.759, 8.293701
1397.812, 3.525421
1398.866, 11.71179
1399.919, 11.92859
1400.972, 19.11917
1402.024, 16.28955
1403.077, 17.46768
1404.129, 15.62704
1405.181, 3.819733
1406.233, 15.99515
1407.285, 11.17044
1408.337, 23.34903
1409.389, 21.56464
1410.440, 8.753632
1411.491, 9.2193998E-02
1412.542, 12.05948
1413.593, 2.286255
1414.644, 17.43396
1415.695, 12.61514
1416.745, 5.788666
1417.795, 2.910126
1418.845, 17.05249
1419.895, 9.034393
1420.945, 9.145142
1421.995, 3.277985
1423.044, 16.41431
1424.093, 26.54102
1425.142, 0.6650390
1426.191, 17.75214
1427.240, 1.870300
1428.289, 14.98547
1429.337, 0.8996580
1430.385, 1.991943
1431.433, 8.110718
1432.481, 7.210358
1433.529, 1.335602
1434.577, 3.551910
1435.624, 1.450134
1436.672, 2.282104
1437.719, 4.279510
1438.766, 2.029724
1439.812, 8.278992
1440.859, 2.691864
1441.905, 6.121033
1442.952, 0.9493710
1443.998, 1.034882
1445.044, 5.969727
1446.090, 9.127228
1447.135, 7.830261
1448.181, 1.053680
1449.226, 4.278320
1450.271, 2.502350
1451.316, 4.726349
1452.361, 1.950500
1453.405, 18.17548
1454.450, 1.402802
1455.494, 25.63150
1456.538, 14.86099
1457.582, 14.09018
1458.626, 5.318970
1459.670, 1.547089
1460.713, 8.774628
1461.757, 2.001526
1462.800, 12.21542
1463.843, 4.401581
1464.886, 9.625641
1465.928, 10.84857
1466.971, 8.990814
1468.013, 11.79910
1469.055, 9.511536
1470.097, 12.71915
1471.139, 13.91864
1472.181, 14.09125
1473.222, 21.25485
1474.263, 9.373962
1475.305, 1.580719
1476.346, 1.213135
1477.386, 5.993195
1478.427, 11.17630
1479.468, 8.214661
1480.508, 8.473938
1481.548, 1.649292
1482.588, 8.842316
1483.628, 0.3144530
1484.668, 2.171997
1485.707, 5.325134
1486.747, 3.523254
1487.786, 7.356110
1488.825, 5.872070
1489.864, 12.06772
1490.902, 7.265320
1491.941, 9.319366
1492.979, 7.011688
1494.017, 10.64725
1495.055, 1.260376
1496.093, 4.915833
1497.131, 3.125671
1498.168, 19.23224
1499.206, 1.337372
1500.243, 7.462799
1501.280, 20.29599
1502.317, 13.42743
1503.354, 7.117371
1504.390, 26.72943
1505.426, 20.32294
1506.463, 21.23123
1507.499, 4.603302
1508.535, 34.47824
1509.570, 10.56253
1510.606, 21.54498
1511.641, 25.53241
1512.676, 22.58047
1513.711, 30.41794
1514.746, 26.57675
1515.781, 30.69122
1516.816, 20.65182
1517.850, 5.655243
1518.884, 0.3159180
1519.918, 2.703796
1520.952, 19.72537
1521.986, 6.795624
1523.019, 18.81940
1524.053, 9.336945
1525.086, 15.24127
1526.119, 14.12277
1527.152, 19.91309
1528.185, 13.42105
1529.217, 13.13406
1530.250, 16.87183
1531.282, 16.65869
1532.314, 15.38254
1533.346, 2.603455
1534.377, 9.302368
1535.409, 21.88232
1536.440, 29.56345
1537.472, 0.1533810
1538.503, 16.98282
1539.534, 8.667023
1540.564, 10.44205
1541.595, 19.29657
1542.625, 26.13684
1543.656, 17.95880
1544.686, 21.54651
1545.716, 19.55530
1546.745, 16.05557
1547.775, 18.57513
1548.804, 27.12296
1549.834, 19.68579
1550.863, 28.20468
1551.892, 23.74161
1552.920, 33.77411
1553.949, 30.44800
1554.977, 36.51694
1556.006, 33.60962
1557.034, 12.15338
1558.062, 14.65775
1559.089, 9.129974
1560.117, 2.909241
1561.144, 5.778656
1562.172, 1.744293
1563.199, 9.337555
1564.226, 16.51544
1565.252, 20.82611
1566.279, 15.48505
1567.305, 21.74664
1568.332, 19.06873
1569.358, 9.1826998E-02
1570.384, 0.0000000E+00
##END=



