##NAMES=Brucite
##RRUFFID=R050455
##IDEAL CHEMISTRY=Mg(OH)_2_
##LOCALITY=Texas, Lancaster County, Pennsylvania, USA
##OWNER=RRUFF
##SOURCE=University of Arizona Mineral Museum
##DESCRIPTION=Group of green tabular crystals
##STATUS=The identification of this mineral has been confirmed by X-ray diffraction and chemical analysis
##URL=rruff.info/R050455
##MEASURED CHEMISTRY=(Mg_0.99_Mn_0.01_)(OH)_2_
##PIN_ID=M00147
##ORIENTATION=Laser parallel to c* (0 0 1). Fiducial mark perpendicular to laser is parallel to a [1 0 0]
158.6810, 0.0000000E+00
159.9080, 1.552734
161.1340, 75.75586
162.3590, 20.16211
163.5850, 87.00781
164.8110, 261.3145
166.0360, 77.28320
167.2610, 86.24609
168.4860, 8.173828
169.7110, 93.87305
170.9360, 9.630859
172.1610, 19.24219
173.3850, 152.8047
174.6100, 176.3750
175.8340, 450.0000
177.0580, 237.8711
178.2820, 306.4355
179.5050, 114.2344
180.7290, 278.2480
181.9520, 135.4668
183.1760, 199.8711
184.3990, 224.4473
185.6220, 156.1875
186.8450, 29.08203
188.0670, 269.1367
189.2900, 278.3398
190.5120, 48.68359
191.7340, 288.1562
192.9560, 223.7500
194.1780, 52.54688
195.4000, 139.2656
196.6220, 336.1777
197.8430, 271.1816
199.0640, 203.2676
200.2860, 156.4336
201.5070, 212.6719
202.7270, 322.9961
203.9480, 295.4004
205.1690, 204.8613
206.3890, 129.3809
207.6090, 238.9551
208.8290, 150.5898
210.0490, 278.2969
211.2690, 248.1035
212.4890, 314.9590
213.7080, 265.8613
214.9280, 283.8125
216.1470, 176.0391
217.3660, 211.3027
218.5850, 203.6016
219.8030, 291.9238
221.0220, 209.2812
222.2400, 233.6699
223.4590, 247.0879
224.6770, 331.5430
225.8950, 295.0254
227.1120, 341.5449
228.3300, 325.0898
229.5480, 137.6719
230.7650, 345.2852
231.9820, 267.9297
233.1990, 431.5859
234.4160, 147.2520
235.6330, 442.9277
236.8490, 290.6016
238.0660, 381.2812
239.2820, 170.9707
240.4980, 374.6758
241.7140, 355.3945
242.9300, 245.1289
244.1460, 237.8789
245.3610, 295.7422
246.5770, 358.3848
247.7920, 315.8828
249.0070, 298.9805
250.2220, 326.7715
251.4370, 387.5801
252.6510, 561.4160
253.8660, 598.2715
255.0800, 608.1602
256.2940, 599.0801
257.5080, 670.4434
258.7220, 722.4727
259.9360, 815.7695
261.1490, 937.9668
262.3630, 1056.131
263.5760, 936.7812
264.7890, 1282.871
266.0020, 1327.994
267.2150, 1574.141
268.4270, 1818.312
269.6400, 2102.984
270.8520, 2543.742
272.0640, 2840.805
273.2760, 3324.953
274.4880, 3732.432
275.7000, 3951.625
276.9120, 3865.840
278.1230, 3735.078
279.3340, 3441.340
280.5450, 2880.629
281.7560, 2614.941
282.9670, 2138.281
284.1780, 1799.668
285.3880, 1528.082
286.5980, 1248.516
287.8090, 1097.975
289.0190, 919.4492
290.2290, 863.9453
291.4380, 628.4609
292.6480, 423.9922
293.8570, 491.5469
295.0670, 258.1191
296.2760, 315.7402
297.4850, 373.3828
298.6930, 403.0449
299.9020, 384.7266
301.1110, 192.4258
302.3190, 354.1875
303.5270, 167.9863
304.7350, 289.4805
305.9430, 102.7148
307.1510, 380.9961
308.3580, 255.2188
309.5660, 180.3633
310.7730, 291.5312
311.9800, 177.7305
313.1870, 174.9688
314.3940, 158.1465
315.6010, 190.4316
316.8070, 282.6289
318.0130, 232.9492
319.2200, 319.3105
320.4260, 114.6973
321.6310, 409.1074
322.8370, 303.4590
324.0430, 114.8477
325.2480, 247.2656
326.4540, 124.7129
327.6590, 229.1875
328.8640, 174.6875
330.0680, 4.785156
331.2730, 185.7656
332.4780, 214.3418
333.6820, 25.06250
334.8860, 65.55469
336.0900, 151.1934
337.2940, 28.85547
338.4980, 263.5391
339.7010, 116.6250
340.9050, 105.3516
342.1080, 85.09180
343.3110, 59.88086
344.5140, 78.37695
345.7170, 99.33203
346.9200, 122.3926
348.1220, 179.2891
349.3240, 219.2031
350.5270, 254.4434
351.7290, 259.3945
352.9310, 395.3594
354.1320, 86.59375
355.3340, 207.5938
356.5350, 16.39062
357.7370, 297.6387
358.9380, 12.30859
360.1390, 37.80078
361.3400, 8.076172
362.5400, 23.06250
363.7410, 32.78711
364.9410, 18.62695
366.1410, 4.453125
367.3410, 362.7324
368.5410, 325.9531
369.7410, 235.8262
370.9400, 91.07422
372.1400, 40.33398
373.3390, 244.6055
374.5380, 232.8926
375.7370, 189.1895
376.9360, 199.5000
378.1350, 173.8730
379.3330, 0.1582030
380.5310, 137.6777
381.7300, 188.0352
382.9280, 157.4102
384.1260, 178.2070
385.3230, 93.15625
386.5210, 47.52734
387.7180, 13.08594
388.9160, 213.3105
390.1130, 172.7188
391.3100, 182.1328
392.5060, 229.5625
393.7030, 220.0020
394.9000, 246.4551
396.0960, 296.9219
397.2920, 192.3965
398.4880, 108.8867
399.6840, 210.3848
400.8800, 56.57617
402.0750, 241.0996
403.2710, 174.6328
404.4660, 162.1758
405.6610, 267.7285
406.8560, 49.73438
408.0510, 222.3008
409.2450, 204.5508
410.4400, 202.1387
411.6340, 208.7383
412.8280, 303.3496
414.0220, 340.9688
415.2160, 235.6035
416.4100, 465.1973
417.6030, 488.8047
418.7970, 579.4199
419.9900, 379.0469
421.1830, 370.6836
422.3760, 626.3340
423.5690, 696.9902
424.7610, 755.6582
425.9540, 766.3379
427.1460, 967.0293
428.3380, 1300.727
429.5300, 1634.436
430.7220, 1837.576
431.9140, 2240.307
433.1050, 2929.047
434.2970, 3558.793
435.4880, 4482.879
436.6790, 5468.646
437.8700, 6360.422
439.0610, 7361.209
440.2510, 7971.004
441.4420, 8420.809
442.6320, 7922.395
443.8220, 7053.594
445.0120, 6474.424
446.2020, 5151.266
447.3910, 4170.111
448.5810, 3352.969
449.7700, 2658.840
450.9600, 2281.494
452.1490, 1704.383
453.3370, 1473.287
454.5260, 1004.201
455.7150, 1053.518
456.9030, 757.4531
458.0910, 873.4023
459.2800, 725.3652
460.4670, 628.3379
461.6550, 456.3223
462.8430, 530.3184
464.0300, 417.3223
465.2180, 495.3398
466.4050, 417.4805
467.5920, 479.5176
468.7790, 348.5664
469.9650, 326.6230
471.1520, 222.6914
472.3380, 198.7676
473.5250, 192.9961
474.7110, 321.8945
475.8970, 235.0020
477.0820, 204.5977
478.2680, 273.7266
479.4540, 172.8613
480.6390, 188.4570
481.8240, 225.1660
483.0090, 161.3418
484.1940, 206.5293
485.3780, 236.3164
486.5630, 180.5215
487.7470, 269.7344
488.9320, 128.4492
490.1160, 214.6797
491.3000, 169.9180
492.4830, 23.83008
493.6670, 239.4121
494.8500, 113.6621
496.0340, 42.07617
497.2170, 280.1738
498.4000, 219.4297
499.5820, 219.3984
500.7650, 127.0508
501.9480, 274.4277
503.1300, 242.7129
504.3120, 83.89258
505.4940, 112.1953
506.6760, 257.7051
507.8580, 365.6641
509.0390, 275.9297
510.2210, 51.22461
511.4020, 23.43750
512.5830, 144.8906
513.7640, 233.2305
514.9450, 252.5762
516.1250, 308.9238
517.3060, 317.2832
518.4860, 229.6465
519.6660, 312.0176
520.8460, 161.3965
522.0260, 7.769531
523.2060, 131.1582
524.3850, 181.5547
525.5650, 144.9570
526.7440, 133.8984
527.9230, 224.3125
529.1020, 101.7363
530.2810, 219.9219
531.4590, 90.35547
532.6380, 308.7988
533.8160, 46.25000
534.9940, 75.70898
536.1720, 256.1738
537.3500, 150.6426
538.5270, 214.1230
539.7050, 283.6074
540.8820, 136.0977
542.0590, 6.404297
543.2360, 104.0957
544.4130, 211.6016
545.5900, 42.11133
546.7660, 209.6309
547.9430, 39.84570
549.1190, 193.6641
550.2950, 5.818359
551.4710, 335.6953
552.6470, 105.2168
553.8220, 88.74805
554.9980, 158.2812
556.1730, 192.8242
557.3480, 146.3730
558.5230, 106.9277
559.6980, 248.4883
560.8730, 131.0566
562.0470, 261.6328
563.2220, 295.2129
564.3960, 249.8027
565.5700, 101.3984
566.7440, 182.0000
567.9170, 52.60938
569.0910, 209.2246
570.2640, 92.84570
571.4380, 56.52734
572.6110, 144.0781
573.7840, 195.6895
574.9570, 48.30469
576.1290, 1.927734
577.3020, 100.5547
578.4740, 252.1855
579.6460, 16.82422
580.8180, 91.46875
581.9900, 275.1191
583.1620, 44.22266
584.3330, 72.58594
585.5040, 228.0215
586.6760, 167.6328
587.8470, 174.2520
589.0180, 33.87695
590.1880, 162.5059
591.3590, 25.85547
592.5290, 80.77148
593.7000, 16.40234
594.8700, 214.0508
596.0400, 0.7070310
597.2090, 212.3633
598.3790, 332.0254
599.5490, 123.6934
600.7180, 125.3672
601.8870, 41.04492
603.0560, 263.7324
604.2250, 53.42188
605.3940, 419.1191
606.5620, 32.17969
607.7300, 109.5098
608.8990, 203.2051
610.0670, 60.90430
611.2350, 67.62500
612.4020, 48.35156
613.5700, 19.10742
614.7370, 365.8711
615.9050, 200.6367
617.0720, 191.4102
618.2390, 236.1934
619.4060, 45.98242
620.5720, 341.7773
621.7390, 84.57617
622.9050, 35.37695
624.0710, 139.1895
625.2370, 92.99023
626.4030, 309.8047
627.5690, 242.6094
628.7340, 139.5820
629.9000, 186.1602
631.0650, 175.9062
632.2300, 41.65625
633.3950, 51.12305
634.5600, 233.9062
635.7240, 53.69141
636.8890, 160.2461
638.0530, 123.0566
639.2170, 174.8750
640.3810, 21.30273
641.5450, 170.4883
642.7080, 105.2441
643.8720, 439.9883
645.0350, 148.7383
646.1980, 336.4941
647.3610, 66.25977
648.5240, 227.0312
649.6870, 85.18945
650.8490, 220.5527
652.0120, 180.6582
653.1740, 196.4062
654.3360, 251.1621
655.4980, 114.9199
656.6600, 174.6855
657.8210, 210.4922
658.9830, 256.3086
660.1440, 265.2988
661.3050, 184.9551
662.4660, 271.6172
663.6270, 195.4551
664.7870, 200.4766
665.9480, 234.1504
667.1080, 158.0410
668.2680, 105.9375
669.4280, 182.8379
670.5880, 215.7676
671.7480, 85.70312
672.9070, 140.6562
674.0670, 274.6152
675.2260, 104.5840
676.3850, 310.5566
677.5440, 117.5391
678.7030, 236.5254
679.8610, 395.5215
681.0200, 162.5234
682.1780, 539.8496
683.3360, 305.8594
684.4940, 125.8730
685.6520, 119.8926
686.8090, 157.9160
687.9670, 157.4980
689.1240, 231.5312
690.2810, 363.8965
691.4380, 386.9375
692.5950, 368.9863
693.7520, 357.0352
694.9080, 395.0918
696.0650, 287.1582
697.2210, 435.2598
698.3770, 182.3672
699.5330, 453.4785
700.6880, 531.5938
701.8440, 555.7129
702.9990, 173.8359
704.1550, 342.9648
705.3100, 417.0957
706.4650, 381.2305
707.6190, 667.3672
708.7740, 656.5137
709.9290, 452.6582
711.0830, 614.3867
712.2370, 457.5430
713.3910, 725.7012
714.5450, 757.8652
715.6980, 817.7012
716.8520, 709.8750
718.0050, 712.0488
719.1580, 990.2266
720.3110, 776.4102
721.4640, 937.5957
722.6170, 811.0137
723.7700, 706.8281
724.9220, 801.0234
726.0740, 674.2246
727.2260, 724.7988
728.3780, 702.5879
729.5300, 788.8516
730.6810, 717.2910
731.8330, 758.5117
732.9840, 882.0195
734.1350, 946.3145
735.2860, 540.1543
736.4370, 660.3906
737.5880, 642.6309
738.7380, 1007.873
739.8880, 798.1172
741.0390, 859.3652
742.1890, 757.6172
743.3380, 715.8730
744.4880, 744.7227
745.6380, 563.2793
746.7870, 722.5449
747.9360, 641.8105
749.0850, 527.7949
750.2340, 663.0684
751.3830, 628.7402
752.5310, 586.3008
753.6800, 590.5840
754.8280, 558.8711
755.9760, 530.1113
757.1240, 609.7754
758.2720, 489.0762
759.4190, 439.3770
760.5670, 460.6777
761.7140, 578.6289
762.8610, 383.9355
764.0080, 430.3496
765.1550, 409.6602
766.3020, 356.9785
767.4480, 344.9492
768.5950, 363.2695
769.7410, 309.5938
770.8870, 303.2695
772.0330, 269.8379
773.1780, 357.1738
774.3240, 405.8125
775.4690, 280.3730
776.6140, 406.9766
777.7590, 403.3242
778.9040, 468.2949
780.0490, 574.3535
781.1940, 421.0469
782.3380, 545.4023
783.4820, 498.0918
784.6260, 487.7715
785.7700, 88.16406
786.9140, 370.5898
788.0580, 267.0332
789.2010, 383.4434
790.3450, 463.8594
791.4880, 326.2793
792.6310, 276.7012
793.7730, 422.1230
794.9160, 501.0605
796.0590, 312.3262
797.2010, 377.7500
798.3430, 457.1758
799.4850, 575.4180
800.6270, 248.8438
801.7690, 477.2695
802.9100, 511.3555
804.0520, 403.9141
805.1930, 538.3398
806.3340, 465.7930
807.4750, 518.2266
808.6160, 284.6523
809.7560, 387.6680
810.8970, 564.1562
812.0370, 688.9336
813.1770, 288.3555
814.3170, 447.3594
815.4570, 492.7891
816.5960, 400.5195
817.7360, 490.0469
818.8750, 505.7383
820.0140, 411.1797
821.1530, 303.6211
822.2920, 236.0586
823.4310, 208.8594
824.5690, 551.1406
825.7070, 181.6016
826.8460, 386.2188
827.9840, 359.6836
829.1220, 246.1445
830.2590, 391.6016
831.3970, 417.0586
832.5340, 323.7305
833.6710, 252.0156
834.8080, 289.4648
835.9450, 70.91016
837.0820, 445.3594
838.2190, 390.8008
839.3550, 323.2422
840.4910, 195.6797
841.6270, 383.1133
842.7630, 401.5820
843.8990, 419.0469
845.0350, 337.5117
846.1700, 357.9766
847.3060, 318.0898
848.4410, 312.9102
849.5760, 264.3828
850.7100, 240.8438
851.8450, 227.3047
852.9800, 247.7578
854.1140, 351.2148
855.2480, 551.6680
856.3820, 236.1133
857.5160, 493.5586
858.6500, 348.9961
859.7830, 500.4453
860.9170, 270.9062
862.0500, 258.3672
863.1830, 120.8203
864.3160, 483.2656
865.4480, 402.7109
866.5810, 608.1484
867.7130, 165.6875
868.8460, 33.87500
869.9780, 33.53906
871.1100, 340.9453
872.2410, 168.3477
873.3730, 107.7461
874.5050, 219.1367
875.6360, 230.5273
876.7670, 169.9219
877.8980, 186.2969
879.0290, 157.8477
880.1590, 299.0312
881.2900, 125.3906
882.4200, 175.7578
883.5500, 181.1172
884.6800, 53.53516
885.8100, 158.7773
886.9400, 79.91406
888.0690, 7.335938
889.1990, 302.5781
890.3280, 149.8164
891.4570, 29.04688
892.5860, 31.34375
893.7140, 105.1250
894.8430, 408.3320
895.9710, 232.5273
897.1000, 2.285156
898.2280, 230.2266
899.3560, 82.36719
900.4830, 129.7656
901.6110, 80.26172
902.7380, 45.48047
903.8660, 82.92188
904.9930, 168.0664
906.1200, 59.80469
907.2460, 27.28125
908.3730, 226.3633
909.5000, 42.56641
910.6260, 35.46484
911.7520, 26.48047
912.8780, 107.4922
914.0040, 186.4961
915.1290, 272.7578
916.2550, 10.20703
917.3800, 303.8086
918.5050, 20.81641
919.6300, 32.41406
920.7550, 129.7695
921.8800, 99.32031
923.0040, 138.2812
924.1290, 235.4297
925.2530, 204.3984
926.3770, 198.5508
927.5010, 115.5508
928.6250, 109.7031
929.7480, 118.3672
930.8720, 4.480469
931.9950, 135.3125
933.1180, 343.1328
934.2410, 5.937500
935.3640, 144.7266
936.4860, 207.5078
937.6090, 13.27344
938.7310, 85.02734
939.8530, 311.8320
940.9750, 111.5625
942.0970, 60.72266
943.2180, 180.0078
944.3400, 37.86328
945.4610, 107.5469
946.5820, 1.820313
947.7030, 184.9688
948.8240, 21.63281
949.9450, 194.6719
951.0650, 0.2421880
952.1860, 105.8789
953.3060, 67.41406
954.4260, 150.3359
955.5460, 236.8477
956.6650, 148.4609
957.7850, 255.4570
958.9040, 95.92969
960.0230, 165.4688
961.1420, 101.3633
962.2610, 191.8398
963.3800, 286.3203
964.4990, 298.8047
965.6170, 210.2852
966.7350, 5.406250
967.8530, 100.1484
968.9710, 164.2188
970.0890, 478.7422
971.2070, 162.1094
972.3240, 216.4648
973.4410, 160.8047
974.5580, 210.1367
975.6750, 264.4492
976.7920, 297.9609
977.9090, 227.3320
979.0250, 292.8750
980.1410, 271.1367
981.2580, 265.0781
982.3740, 288.6406
983.4890, 278.8633
984.6050, 349.0664
985.7200, 399.2539
986.8360, 292.4297
987.9510, 429.0391
989.0660, 172.1875
990.1810, 342.3203
991.2950, 332.4375
992.4100, 361.5430
993.5240, 351.0859
994.6390, 369.6094
995.7530, 316.7148
996.8660, 393.6523
997.9800, 224.6797
999.0940, 205.7656
1000.207, 225.1445
1001.320, 145.9062
1002.433, 193.1055
1003.546, 184.9688
1004.659, 227.8477
1005.772, 439.7734
1006.884, 269.6875
1007.996, 323.5859
1009.108, 445.4688
1010.220, 167.3359
1011.332, 305.5898
1012.444, 172.4336
1013.555, 398.6641
1014.666, 243.7969
1015.777, 365.5977
1016.888, 446.3867
1017.999, 315.1562
1019.110, 420.1523
1020.220, 564.9414
1021.331, 458.2734
1022.441, 299.7031
1023.551, 313.4023
1024.661, 389.0820
1025.770, 150.5781
1026.880, 4.062500
1027.989, 331.6836
1029.098, 321.2891
1030.207, 230.8828
1031.316, 90.84375
1032.425, 114.7305
1033.533, 359.3633
1034.642, 78.89062
1035.750, 143.3984
1036.858, 97.74609
1037.966, 521.4062
1039.073, 342.8672
1040.181, 419.1602
1041.288, 287.3516
1042.396, 417.7695
1043.503, 273.8672
1044.610, 393.0391
1045.716, 260.3398
1046.823, 183.9336
1047.929, 103.4102
1049.036, 205.9727
1050.142, 356.9453
1051.248, 259.2383
1052.353, 96.81250
1053.459, 75.10156
1054.564, 16.71875
1055.670, 225.4609
1056.775, 125.7227
1057.880, 317.2070
1058.985, 119.4609
1060.089, 153.9297
1061.194, 115.0000
1062.298, 177.3477
1063.402, 199.8672
1064.506, 187.4492
1065.610, 230.0625
1066.713, 191.0547
1067.817, 168.2109
1068.920, 170.1758
1070.023, 302.1211
1071.126, 182.3984
1072.229, 144.1836
1073.332, 340.3320
1074.435, 265.1953
1075.537, 140.6602
1076.639, 54.22266
1077.741, 16.03906
1078.843, 214.8242
1079.945, 114.3008
1081.046, 142.1172
1082.148, 19.45703
1083.249, 458.3047
1084.350, 2.046875
1085.451, 314.6758
1086.551, 2.875000
1087.652, 434.8125
1088.752, 1.507813
1089.853, 36.65625
1090.953, 363.1250
1092.053, 145.1719
1093.152, 57.80078
1094.252, 242.5312
1095.351, 218.1289
1096.451, 165.8242
1097.550, 358.2734
1098.649, 39.87500
1099.748, 243.1328
1100.846, 267.7617
1101.945, 126.2031
1103.043, 237.5898
1104.141, 196.1094
1105.239, 194.7539
1106.337, 334.1406
1107.434, 290.5078
1108.532, 121.1406
1109.629, 152.1211
1110.726, 5.695313
1111.823, 317.1875
1112.920, 165.3906
1114.017, 259.5820
1115.113, 337.7539
1116.210, 405.9141
1117.306, 233.0625
1118.402, 291.1914
1119.498, 62.30859
1120.593, 387.4102
1121.689, 399.4961
1122.784, 401.6953
1123.879, 359.7969
1124.974, 60.85547
1126.069, 447.9492
1127.164, 320.9727
1128.259, 75.98438
1129.353, 354.9766
1130.447, 153.0586
1131.541, 80.02344
1132.635, 531.9688
1133.729, 171.8047
1134.822, 123.7617
1135.916, 226.7109
1137.009, 604.6484
1138.102, 362.5703
1139.195, 323.6992
1140.288, 298.5898
1141.380, 222.4727
1142.473, 71.32422
1143.565, 218.1719
1144.657, 68.01172
1145.749, 89.82812
1146.841, 387.0898
1147.932, 208.8789
1149.024, 347.6914
1150.115, 269.4922
1151.206, 205.2969
1152.297, 275.1523
1153.388, 354.8828
1154.479, 308.6680
1155.569, 297.4414
1156.659, 291.1992
1157.750, 281.8711
1158.839, 183.0312
1159.929, 176.5195
1161.019, 287.4609
1162.108, 157.1758
1163.198, 137.5508
1164.287, 258.0117
1165.376, 305.7148
1166.465, 219.0430
1167.553, 306.6211
1168.642, 120.9961
1169.730, 448.6484
1170.818, 116.2852
1171.906, 376.9297
1172.994, 254.6367
1174.082, 224.2617
1175.170, 299.8945
1176.257, 118.5156
1177.344, 108.1172
1178.431, 131.7031
1179.518, 105.0273
1180.605, 219.5898
1181.691, 169.2148
1182.778, 187.2734
1183.864, 209.6914
1184.950, 158.8359
1186.036, 141.7695
1187.122, 122.2656
1188.207, 63.57812
1189.292, 116.0469
1190.378, 61.03906
1191.463, 302.8906
1192.548, 82.22266
1193.632, 300.6367
1194.717, 491.3203
1195.801, 365.7500
1196.886, 427.7305
1197.970, 185.6719
1199.054, 294.0781
1200.137, 210.4648
1201.221, 201.8477
1202.305, 173.2188
1203.388, 92.91797
1204.471, 289.8672
1205.554, 21.20703
1206.637, 89.50781
1207.719, 24.31641
1208.802, 198.4883
1209.884, 188.7539
1210.966, 174.1445
1212.048, 105.3281
1213.130, 334.1641
1214.212, 82.39062
1215.293, 317.5273
1216.374, 170.7344
1217.456, 304.5430
1218.536, 142.7305
1219.617, 103.7969
1220.698, 102.4570
1221.778, 41.38672
1222.859, 131.6680
1223.939, 68.65234
1225.019, 64.33594
1226.099, 104.4258
1227.178, 78.58594
1228.258, 119.3516
1229.337, 314.1680
1230.417, 264.0938
1231.496, 289.0391
1232.574, 79.18750
1233.653, 118.6875
1234.732, 84.55859
1235.810, 148.4180
1236.888, 233.2656
1237.966, 251.1016
1239.044, 458.7188
1240.122, 56.45703
1241.199, 66.99609
1242.277, 172.7930
1243.354, 459.5547
1244.431, 163.3359
1245.508, 368.1055
1246.585, 308.2383
1247.661, 236.9883
1248.738, 220.8008
1249.814, 144.9453
1250.890, 419.8164
1251.966, 104.8008
1253.042, 124.6602
1254.117, 270.3594
1255.193, 118.8320
1256.268, 450.5156
1257.343, 403.1914
1258.418, 365.4688
1259.493, 6.871094
1260.567, 266.6992
1261.642, 139.9609
1262.716, 195.5859
1263.790, 333.0352
1264.864, 388.5781
1265.938, 239.1758
1267.011, 154.7695
1268.085, 84.35156
1269.158, 213.9219
1270.231, 354.4883
1271.304, 334.0469
1272.377, 363.1953
1273.450, 558.7383
1274.522, 228.8594
1275.594, 25.93750
1276.666, 427.5586
1277.738, 215.3984
1278.810, 286.8789
1279.882, 333.6172
1280.953, 148.0820
1282.025, 435.5391
1283.096, 346.9922
1284.167, 142.4336
1285.238, 376.8711
1286.308, 318.2930
1287.379, 291.7109
1288.449, 474.1328
1289.519, 430.4102
1290.589, 289.5352
1291.659, 482.8984
1292.729, 322.2812
1293.798, 248.6641
1294.868, 249.1094
1295.937, 307.4805
1297.006, 288.8477
1298.075, 370.0195
1299.143, 529.3750
1300.212, 229.5156
1301.280, 121.8516
1302.348, 191.8633
1303.416, 366.1836
1304.484, 336.5391
1305.552, 313.6641
1306.620, 310.7383
1307.687, 163.9023
1308.754, 527.9492
1309.821, 120.2344
1310.888, 270.5156
1311.955, 447.7852
1313.021, 137.0898
1314.088, 243.4492
1315.154, 266.7070
1316.220, 489.8828
1317.286, 146.8086
1318.352, 89.94531
1319.417, 175.8516
1320.483, 107.1406
1321.548, 291.1211
1322.613, 76.39453
1323.678, 404.6602
1324.743, 302.0508
1325.807, 113.3008
1326.872, 343.5469
1327.936, 175.9766
1329.000, 346.2109
1330.064, 229.4219
1331.128, 428.6289
1332.191, 365.5781
1333.255, 299.7734
1334.318, 147.3711
1335.381, 435.8555
1336.444, 61.52734
1337.507, 550.6367
1338.569, 49.79297
1339.632, 340.1758
1340.694, 112.1211
1341.756, 225.2773
1342.818, 322.1328
1343.880, 241.2852
1344.941, 226.4375
1346.003, 187.5859
1347.064, 270.7031
1348.125, 335.6641
1349.186, 174.6406
1350.247, 330.1758
1351.308, 431.2539
1352.368, 301.1289
1353.428, 362.2070
1354.489, 377.4219
1355.549, 437.6094
1356.608, 0.5781250
1357.668, 229.6523
1358.727, 147.7188
1359.787, 365.7930
1360.846, 529.8984
1361.905, 434.7578
1362.964, 336.6758
1364.022, 307.6758
1365.081, 284.7500
1366.139, 176.7461
1367.197, 380.7773
1368.255, 207.4844
1369.313, 181.2422
1370.371, 310.2344
1371.428, 229.4219
1372.486, 196.4062
1373.543, 10.39062
1374.600, 242.3750
1375.657, 81.33984
1376.713, 122.3047
1377.770, 118.2656
1378.826, 51.77344
1379.882, 61.05469
1380.938, 363.9648
1381.994, 39.89844
1383.050, 277.7812
1384.106, 435.7148
1385.161, 213.6484
1386.216, 153.5781
1387.271, 309.3984
1388.326, 324.3203
1389.381, 143.2461
1390.435, 141.8320
1391.490, 65.05078
1392.544, 422.9336
1393.598, 147.8086
1394.652, 203.6875
1395.705, 125.3477
1396.759, 159.2148
1397.812, 177.0820
1398.866, 136.7422
1399.919, 295.8203
1400.972, 91.64844
1402.024, 150.4727
1403.077, 113.8398
1404.129, 152.3359
1405.181, 121.5820
1406.233, 24.36328
1407.285, 182.1406
1408.337, 184.9219
1409.389, 245.7031
1410.440, 177.4844
1411.491, 301.2695
1412.542, 105.0469
1413.593, 134.8320
1414.644, 312.6328
1415.695, 404.4258
1416.745, 93.77734
1417.795, 316.9922
1418.845, 58.76953
1419.895, 225.5508
1420.945, 68.33594
1421.995, 195.1250
1423.044, 189.3242
1424.093, 211.7148
1425.142, 205.5234
1426.191, 192.3438
1427.240, 188.1680
1428.289, 32.07422
1429.337, 205.7617
1430.385, 73.61719
1431.433, 220.4805
1432.481, 240.3555
1433.529, 281.2461
1434.577, 319.1328
1435.624, 302.1836
1436.672, 280.3633
1437.719, 148.5273
1438.766, 190.3203
1439.812, 72.04297
1440.859, 234.1133
1441.905, 214.2148
1442.952, 291.3320
1443.998, 269.4258
1445.044, 470.2695
1446.090, 639.9414
1447.135, 140.1836
1448.181, 341.0117
1449.226, 267.0820
1450.271, 56.05469
1451.316, 387.1094
1452.361, 380.1562
1453.405, 42.20703
1454.450, 407.2930
1455.494, 133.4180
1456.538, 442.1484
1457.582, 437.1602
1458.626, 199.2266
1459.670, 264.2852
1460.713, 399.3477
1461.757, 363.4297
1462.800, 228.5352
1463.843, 363.7031
1464.886, 27.31250
1465.928, 423.5391
1466.971, 317.7969
1468.013, 240.0898
1469.055, 437.3867
1470.097, 229.6953
1471.139, 195.0078
1472.181, 331.3281
1473.222, 531.1914
1474.263, 268.4219
1475.305, 302.7539
1476.346, 333.6289
1477.386, 55.38672
1478.427, 689.9141
1479.468, 22.22656
1480.508, 465.5547
1481.548, 215.6875
1482.588, 355.7227
1483.628, 307.9297
1484.668, 187.1406
1485.707, 219.3672
1486.747, 313.5938
1487.786, 485.8477
1488.825, 347.0664
1489.864, 45.76953
1490.902, 463.8789
1491.941, 246.9922
1492.979, 214.1133
1494.017, 432.2383
1495.055, 699.2852
1496.093, 10.11719
1497.131, 459.0156
1498.168, 340.0352
1499.206, 77.05469
1500.243, 238.1484
1501.280, 90.05469
1502.317, 398.0352
1503.354, 254.0156
1504.390, 367.9883
1505.426, 197.9531
1506.463, 191.7812
1507.499, 178.6953
1508.535, 151.0977
1509.570, 192.5000
1510.606, 199.4102
1511.641, 406.0547
1512.676, 455.5508
1513.711, 110.4766
1514.746, 418.4414
1515.781, 197.4023
1516.816, 209.3516
1517.850, 663.2852
1518.884, 212.6680
1519.918, 179.5703
1520.952, 298.4531
1521.986, 205.3125
1523.019, 564.1562
1524.053, 260.0234
1525.086, 200.6758
1526.119, 470.6562
1527.152, 389.5859
1528.185, 287.4961
1529.217, 23.38281
1530.250, 86.60938
1531.282, 128.4219
1532.314, 110.6328
1533.346, 229.9727
1534.377, 227.7891
1535.409, 193.8789
1536.440, 381.8633
1537.472, 212.4883
1538.503, 60.14844
1539.534, 324.8359
1540.564, 491.5703
1541.595, 218.3516
1542.625, 289.1992
1543.656, 176.0977
1544.686, 364.0586
1545.716, 176.1055
1546.745, 93.23047
1547.775, 172.4453
1548.804, 112.1836
1549.834, 190.1016
1550.863, 302.3750
1551.892, 297.4766
1552.920, 203.0547
1553.949, 356.7031
1554.977, 471.4844
1556.006, 446.5938
1557.034, 151.0000
1558.062, 330.7383
1559.089, 92.86719
1560.117, 46.44141
1561.144, 80.50391
1562.172, 303.1406
1563.199, 11.59375
1564.226, 382.4219
1565.252, 376.5156
1566.279, 155.3164
1567.305, 99.96875
1568.332, 0.3750000
1569.358, 194.4453
1570.384, 0.0000000E+00
##END=



