##NAMES=Brucite
##RRUFFID=R050455
##IDEAL CHEMISTRY=Mg(OH)_2_
##LOCALITY=Texas, Lancaster County, Pennsylvania, USA
##OWNER=RRUFF
##SOURCE=University of Arizona Mineral Museum
##DESCRIPTION=Group of green tabular crystals
##STATUS=The identification of this mineral has been confirmed by X-ray diffraction and chemical analysis
##URL=rruff.info/R050455
##MEASURED CHEMISTRY=(Mg_0.99_Mn_0.01_)(OH)_2_
##PIN_ID=M00147
##ORIENTATION=Laser parallel to c* (0 0 1). Fiducial mark perpendicular to laser is parallel to a [1 0 0]
158.6810, 0.0000000E+00
159.9080, 85.24414
161.1340, 234.3887
162.3590, 83.67188
163.5850, 2.412109
164.8110, 159.2344
166.0360, 11.01562
167.2610, 235.2871
168.4860, 222.0781
169.7110, 288.3770
170.9360, 156.9434
172.1610, 136.6406
173.3850, 239.8145
174.6100, 266.4160
175.8340, 281.4082
177.0580, 158.7578
178.2820, 161.4316
179.5050, 146.4023
180.7290, 19.74609
181.9520, 21.77148
183.1760, 109.9395
184.3990, 201.8594
185.6220, 54.97656
186.8450, 104.2812
188.0670, 257.7715
189.2900, 42.43945
190.5120, 83.27930
191.7340, 43.27734
192.9560, 246.4180
194.1780, 104.6992
195.4000, 257.1074
196.6220, 217.6367
197.8430, 147.2715
199.0640, 225.0098
200.2860, 69.83789
201.5070, 216.7578
202.7270, 2.242188
203.9480, 222.8379
205.1690, 76.99219
206.3890, 104.2207
207.6090, 239.5176
208.8290, 54.88086
210.0490, 53.31250
211.2690, 59.82227
212.4890, 191.3906
213.7080, 201.0605
214.9280, 196.8223
216.1470, 319.7227
217.3660, 231.8164
218.5850, 219.9453
219.8030, 110.1211
221.0220, 116.3438
222.2400, 64.96094
223.4590, 95.19922
224.6770, 36.23242
225.8950, 180.6035
227.1120, 264.0156
228.3300, 275.4668
229.5480, 157.9590
230.7650, 375.4863
231.9820, 64.04297
233.1990, 214.5996
234.4160, 192.1562
235.6330, 146.7109
236.8490, 204.2754
238.0660, 315.8516
239.2820, 219.4395
240.4980, 224.0449
241.7140, 101.6660
242.9300, 307.3066
244.1460, 319.9590
245.3610, 283.6328
246.5770, 276.3340
247.7920, 251.0566
249.0070, 313.8027
250.2220, 410.5742
251.4370, 453.3711
252.6510, 459.2539
253.8660, 507.0430
255.0800, 454.9180
256.2940, 350.8184
257.5080, 392.7480
258.7220, 409.7012
259.9360, 441.6816
261.1490, 513.6895
262.3630, 609.2070
263.5760, 717.3027
264.7890, 971.4121
266.0020, 973.5488
267.2150, 1023.709
268.4270, 1099.930
269.6400, 1483.119
270.8520, 1575.324
272.0640, 1843.553
273.2760, 2124.939
274.4880, 2334.717
275.7000, 2649.908
276.9120, 2427.127
278.1230, 2281.371
279.3340, 2250.643
280.5450, 1782.586
281.7560, 1729.906
282.9670, 1415.254
284.1780, 1328.629
285.3880, 1165.029
286.5980, 918.4551
287.8090, 479.9004
289.0190, 630.3711
290.2290, 489.8906
291.4380, 369.4902
292.6480, 537.1133
293.8570, 544.7520
295.0670, 409.4141
296.2760, 288.0938
297.4850, 348.7969
298.6930, 417.5156
299.9020, 85.25781
301.1110, 156.0176
302.3190, 361.8262
303.5270, 199.6543
304.7350, 216.5098
305.9430, 316.3223
307.1510, 232.0664
308.3580, 170.8965
309.5660, 131.3672
310.7730, 84.32227
311.9800, 146.3301
313.1870, 254.3887
314.3940, 132.4941
315.6010, 366.6445
316.8070, 47.81641
318.0130, 108.0312
319.2200, 85.28516
320.4260, 145.5781
321.6310, 272.9121
322.8370, 203.2832
324.0430, 17.68555
325.2480, 204.1230
326.4540, 10.59961
327.6590, 190.6172
328.8640, 131.1816
330.0680, 296.8008
331.2730, 257.4473
332.4780, 49.12305
333.6820, 1.826172
334.8860, 64.55273
336.0900, 152.3066
337.2940, 32.08398
338.4980, 256.8828
339.7010, 250.7109
340.9050, 167.5566
342.1080, 121.4277
343.3110, 107.3184
344.5140, 235.2344
345.7170, 58.17578
346.9200, 129.1504
348.1220, 174.1309
349.3240, 106.1445
350.5270, 155.1797
351.7290, 125.2344
352.9310, 91.30664
354.1320, 123.3984
355.3340, 202.5078
356.5350, 93.63477
357.7370, 219.7832
358.9380, 30.94531
360.1390, 23.12695
361.3400, 26.32422
362.5400, 126.5352
363.7410, 19.23828
364.9410, 141.5371
366.1410, 0.7949220
367.3410, 203.0645
368.5410, 53.34961
369.7410, 260.6543
370.9400, 286.9746
372.1400, 274.3105
373.3390, 53.66016
374.5380, 225.0215
375.7370, 106.3965
376.9360, 71.21289
378.1350, 105.1797
379.3330, 0.5859380
380.5310, 147.0059
381.7300, 72.44141
382.9280, 193.8887
384.1260, 66.36133
385.3230, 151.1543
386.5210, 246.3164
387.7180, 337.8008
388.9160, 64.70117
390.1130, 188.8008
391.3100, 156.3184
392.5060, 253.8457
393.7030, 197.3867
394.9000, 241.9414
396.0960, 91.51172
397.2920, 221.0938
398.4880, 222.6875
399.6840, 264.2949
400.8800, 24.08398
402.0750, 53.54492
403.2710, 127.1309
404.4660, 158.7871
405.6610, 415.4531
406.8560, 220.1289
408.0510, 118.8184
409.2450, 200.5156
410.4400, 422.2266
411.6340, 288.9512
412.8280, 528.6738
414.0220, 300.4062
415.2160, 252.1504
416.4100, 352.9082
417.6030, 432.6387
418.7970, 651.3691
419.9900, 528.7441
421.1830, 581.6855
422.3760, 692.4531
423.5690, 671.2305
424.7610, 674.0137
425.9540, 1092.811
427.1460, 1376.615
428.3380, 1525.432
429.5300, 1698.262
430.7220, 2279.098
431.9140, 2993.947
433.1050, 3576.805
434.2970, 4392.672
435.4880, 5464.553
436.6790, 6492.438
437.8700, 7460.336
439.0610, 8333.244
440.2510, 9132.162
441.4420, 9298.090
442.6320, 8474.242
443.8220, 7740.186
445.0120, 6416.141
446.2020, 5614.104
447.3910, 4507.426
448.5810, 3638.332
449.7700, 2740.330
450.9600, 2354.650
452.1490, 2129.674
453.3370, 1551.713
454.5260, 1369.766
455.7150, 1190.828
456.9030, 1165.906
458.0910, 1018.994
459.2800, 798.0938
460.4670, 692.2051
461.6550, 890.3281
462.8430, 568.4629
464.0300, 661.6094
465.2180, 519.7637
466.4050, 488.9316
467.5920, 481.1074
468.7790, 416.2695
469.9650, 416.8496
471.1520, 278.2285
472.3380, 362.3750
473.5250, 301.4453
474.7110, 307.8457
475.8970, 320.0938
477.0820, 286.3496
478.2680, 401.6172
479.4540, 251.8926
480.6390, 157.1777
481.8240, 251.4746
483.0090, 264.7773
484.1940, 487.0879
485.3780, 133.4082
486.5630, 262.1602
487.7470, 369.5000
488.9320, 73.39453
490.1160, 214.7480
491.3000, 218.1113
492.4830, 168.4824
493.6670, 250.8594
494.8500, 207.2461
496.0340, 239.6387
497.2170, 289.0410
498.4000, 426.4492
499.5820, 317.8652
500.7650, 304.2910
501.9480, 451.7246
503.1300, 200.1641
504.3120, 179.6094
505.4940, 170.0645
506.6760, 41.80859
507.8580, 274.6367
509.0390, 126.0840
510.2210, 72.56836
511.4020, 177.3438
512.5830, 20.84375
513.7640, 249.3496
514.9450, 15.86328
516.1250, 150.3828
517.3060, 137.9082
518.4860, 318.4434
519.6660, 78.68555
520.8460, 250.2324
522.0260, 131.7754
523.2060, 225.3379
524.3850, 103.9043
525.5650, 209.5078
526.7440, 237.0879
527.9230, 159.2402
529.1020, 180.8320
530.2810, 13.43164
531.4590, 281.9707
532.6380, 206.5840
533.8160, 217.1992
534.9940, 487.8574
536.1720, 418.4883
537.3500, 194.1230
538.5270, 84.76562
539.7050, 218.4160
540.8820, 68.07031
542.0590, 48.73047
543.2360, 235.8535
544.4130, 11.47461
545.5900, 150.1953
546.7660, 122.8691
547.9430, 81.55273
549.1190, 191.2402
550.2950, 370.9316
551.4710, 76.63086
552.6470, 72.33594
553.8220, 115.0449
554.9980, 316.7617
556.1730, 250.4844
557.3480, 226.2090
558.5230, 132.9414
559.6980, 52.67773
560.8730, 93.57812
562.0470, 51.27930
563.2220, 257.7969
564.3960, 142.4805
565.5700, 19.16992
566.7440, 355.8652
567.9170, 225.5664
569.0910, 26.27344
570.2640, 77.98438
571.4380, 354.7012
572.6110, 93.42383
573.7840, 71.14844
574.9570, 393.8828
576.1290, 225.6172
577.3020, 322.3594
578.4740, 195.1055
579.6460, 86.85742
580.8180, 394.6152
581.9900, 270.3770
583.1620, 49.85742
584.3330, 313.8848
585.5040, 155.6328
586.6760, 140.3828
587.8470, 102.8613
589.0180, 44.15430
590.1880, 234.5293
591.3590, 32.78320
592.5290, 288.8887
593.7000, 255.5664
594.8700, 315.2480
596.0400, 264.9336
597.2090, 268.6211
598.3790, 110.3145
599.5490, 23.00977
600.7180, 25.71289
601.8870, 147.4180
603.0560, 168.1289
604.2250, 263.8418
605.3940, 132.5566
606.5620, 112.2793
607.7300, 80.00195
608.8990, 26.23828
610.0670, 51.06836
611.2350, 29.79883
612.4020, 94.07617
613.5700, 105.6289
614.7370, 250.3398
615.9050, 433.0547
617.0720, 233.7715
618.2390, 161.5254
619.4060, 51.27930
620.5720, 52.03906
621.7390, 161.8008
622.9050, 383.5703
624.0710, 369.3398
625.2370, 55.11328
626.4030, 16.10547
627.5690, 198.6621
628.7340, 53.56445
629.9000, 226.1934
631.0650, 360.9551
632.2300, 208.7188
633.3950, 356.4883
634.5600, 309.2656
635.7240, 52.04102
636.8890, 231.8438
638.0530, 180.6543
639.2170, 293.4668
640.3810, 218.2793
641.5450, 247.0977
642.7080, 185.9160
643.8720, 150.7383
645.0350, 235.5645
646.1980, 199.3945
647.3610, 104.6914
648.5240, 157.5273
649.6870, 96.10938
650.8490, 13.05078
652.0120, 188.8066
653.1740, 180.6641
654.3360, 56.52539
655.4980, 61.39062
656.6600, 73.25781
657.8210, 156.1270
658.9830, 195.0000
660.1440, 253.8867
661.3050, 242.7715
662.4660, 364.6621
663.6270, 213.5527
664.7870, 26.55273
665.9480, 123.3262
667.1080, 94.20703
668.2680, 284.1172
669.4280, 322.0273
670.5880, 207.9434
671.7480, 265.8672
672.9070, 57.80664
674.0670, 15.75195
675.2260, 168.6992
676.3850, 254.6504
677.5440, 230.6035
678.7030, 400.5586
679.8610, 76.51758
681.0200, 229.4746
682.1780, 77.43359
683.3360, 27.39648
684.4940, 154.4160
685.6520, 151.3809
686.8090, 166.3477
687.9670, 295.3164
689.1240, 283.2852
690.2810, 78.25586
691.4380, 406.2266
692.5950, 352.1992
693.7520, 261.1699
694.9080, 406.1465
696.0650, 243.1211
697.2210, 160.0957
698.3770, 428.0742
699.5330, 484.0488
700.6880, 103.3965
701.8440, 365.1875
702.9990, 189.1680
704.1550, 501.5645
705.3100, 390.5430
706.4650, 243.5742
707.6190, 306.5566
708.7740, 204.2891
709.9290, 494.5254
711.0830, 250.5098
712.2370, 417.5000
713.3910, 688.4941
714.5450, 291.4863
715.6980, 621.4805
716.8520, 217.4746
718.0050, 413.4688
719.1580, 531.4629
720.3110, 367.4570
721.4640, 511.4551
722.6170, 407.2305
723.7700, 401.3203
724.9220, 475.3184
726.0740, 573.3145
727.2260, 517.9629
728.3780, 543.0430
729.5300, 574.0430
730.6810, 601.7383
731.8330, 282.7402
732.9840, 280.7422
734.1350, 290.7461
735.2860, 478.7520
736.4370, 323.7578
737.5880, 361.7676
738.7380, 586.7754
739.8880, 315.7891
741.0390, 535.8008
742.1890, 94.81445
743.3380, 487.8262
744.4880, 360.8398
745.6380, 634.8535
746.7870, 260.7422
747.9360, 359.7832
749.0850, 552.4160
750.2340, 353.7285
751.3830, 257.7539
752.5310, 133.0820
753.6800, 277.1504
754.8280, 476.2051
755.9760, 299.5078
757.1240, 232.5215
758.2720, 56.57617
759.4190, 72.58594
760.5670, 431.1230
761.7140, 227.1309
762.8610, 46.33789
764.0080, 361.5898
765.1550, 251.4961
766.3020, 276.5020
767.4480, 375.2168
768.5950, 218.2207
769.7410, 201.6055
770.8870, 240.6055
772.0330, 224.1855
773.1780, 352.3477
774.3240, 298.3574
775.4690, 199.3223
776.6140, 301.3633
777.7590, 248.9512
778.9040, 128.5820
780.0490, 282.5898
781.1940, 287.5957
782.3380, 313.6016
783.4820, 413.9375
784.6260, 106.9375
785.7700, 372.3320
786.9140, 89.66016
788.0580, 401.2969
789.2010, 349.7305
790.3450, 360.7266
791.4880, 280.8906
792.6310, 219.0156
793.7730, 105.3281
794.9160, 229.2930
796.0590, 243.3633
797.2010, 186.3906
798.3430, 355.5117
799.4850, 363.6367
800.6270, 395.7578
801.7690, 274.9648
802.9100, 340.9844
804.0520, 302.1172
805.1930, 142.1289
806.3340, 338.1055
807.4750, 344.2812
808.6160, 365.2539
809.7560, 518.9336
810.8970, 451.5430
812.0370, 361.4883
813.1770, 346.4648
814.3170, 254.0352
815.4570, 344.0039
816.5960, 330.9648
817.7360, 393.9297
818.8750, 134.8828
820.0140, 245.8281
821.1530, 118.7773
822.2920, 123.7422
823.4310, 329.6680
824.5690, 195.6328
825.7070, 340.5664
826.8460, 425.5547
827.9840, 115.4805
829.1220, 389.4023
830.2590, 71.31250
831.3970, 171.2227
832.5340, 441.1250
833.6710, 134.0273
834.8080, 154.9219
835.9450, 218.8086
837.0820, 140.6953
838.2190, 122.9570
839.3550, 285.5117
840.4910, 2.421875
841.6270, 72.32031
842.7630, 49.21094
843.8990, 320.0938
845.0350, 253.9727
846.1700, 361.1367
847.3060, 136.0078
848.4410, 241.0664
849.5760, 137.9336
850.7100, 430.7969
851.8450, 314.6562
852.9800, 341.2266
854.1140, 76.36719
855.2480, 189.2109
856.3820, 376.0664
857.5160, 105.9180
858.6500, 325.7578
859.7830, 51.61328
860.9170, 166.4531
862.0500, 287.4219
863.1830, 335.8867
864.3160, 203.7383
865.4480, 200.6055
866.5810, 96.46484
867.7130, 142.3281
868.8460, 262.1797
869.9780, 239.0312
871.1100, 263.8750
872.2410, 112.7109
873.3730, 245.8594
874.5050, 141.9648
875.6360, 283.8281
876.7670, 224.9180
877.8980, 181.7148
879.0290, 131.5195
880.1590, 179.3164
881.2900, 397.1094
882.4200, 97.01953
883.5500, 98.69922
884.6800, 404.4219
885.8100, 14.14844
886.9400, 177.1289
888.0690, 27.51562
889.1990, 83.14844
890.3280, 87.76562
891.4570, 102.6211
892.5860, 228.9258
893.7140, 89.48438
894.8430, 287.0547
895.9710, 13.60547
897.1000, 122.1406
898.2280, 55.67188
899.3560, 45.19141
900.4830, 31.69922
901.6110, 258.1992
902.7380, 37.29297
903.8660, 258.1914
904.9930, 26.67188
906.1200, 140.1328
907.2460, 13.59375
908.3730, 70.03906
909.5000, 64.53125
910.6260, 3.9059999E-03
911.7520, 100.4023
912.8780, 59.71875
914.0040, 304.8320
915.1290, 292.2188
916.2550, 206.5938
917.3800, 205.1562
918.5050, 42.51562
919.6300, 124.8633
920.7550, 37.37891
921.8800, 174.6992
923.0040, 203.2734
924.1290, 76.00781
925.2530, 109.2422
926.3770, 77.86719
927.5010, 87.09375
928.6250, 44.30859
929.7480, 139.5117
930.8720, 101.1797
931.9950, 111.3594
933.1180, 88.56250
934.2410, 87.71875
935.3640, 88.96875
936.4860, 82.66797
937.6090, 118.9219
938.7310, 101.7500
939.8530, 128.8945
940.9750, 214.7656
942.0970, 90.88672
943.2180, 309.2422
944.3400, 18.88281
945.4610, 1.742188
946.5820, 221.8438
947.7030, 177.8633
948.8240, 33.87109
949.9450, 207.8633
951.0650, 210.8398
952.1860, 222.8047
953.3060, 415.7578
954.4260, 462.7852
955.5460, 287.7109
956.6650, 249.6289
957.7850, 158.8008
958.9040, 144.7227
960.0230, 162.6016
961.1420, 137.4648
962.2610, 207.3125
963.3800, 219.0820
964.4990, 253.9766
965.6170, 306.7930
966.7350, 340.6211
967.8530, 412.4375
968.9710, 243.2422
970.0890, 324.0273
971.2070, 234.8086
972.3240, 302.5742
973.4410, 353.3320
974.5580, 303.0898
975.6750, 267.3828
976.7920, 276.0938
977.9090, 173.7422
979.0250, 178.4297
980.1410, 93.10547
981.2580, 186.3516
982.3740, 11.03906
983.4890, 343.2617
984.6050, 320.5977
985.7200, 263.2578
986.8360, 489.5781
987.9510, 454.1367
989.0660, 491.6797
990.1810, 230.3672
991.2950, 288.8828
992.4100, 241.3828
993.5240, 174.8711
994.6390, 264.2422
995.7530, 141.9531
996.8660, 46.72656
997.9800, 240.6172
999.0940, 389.4844
1000.207, 405.1016
1001.320, 216.6758
1002.433, 333.0391
1003.546, 226.6562
1004.659, 294.0703
1005.772, 400.4297
1006.884, 99.72656
1007.996, 109.2383
1009.108, 165.5039
1010.220, 110.8281
1011.332, 511.0547
1012.444, 334.2695
1013.555, 250.4688
1014.666, 449.1133
1015.777, 160.3242
1016.888, 302.6055
1017.999, 266.4766
1019.110, 318.5938
1020.220, 313.2305
1021.331, 333.4492
1022.441, 336.2148
1023.551, 425.3672
1024.661, 268.7383
1025.770, 324.4727
1026.880, 155.4883
1027.989, 164.9375
1029.098, 173.8008
1030.207, 220.6445
1031.316, 231.6016
1032.425, 229.3359
1033.533, 307.0078
1034.642, 317.5859
1035.750, 317.6367
1036.858, 341.6172
1037.966, 341.1016
1039.073, 287.9297
1040.181, 395.6250
1041.288, 292.8555
1042.396, 399.4883
1043.503, 134.2852
1044.610, 244.0781
1045.716, 275.0742
1046.823, 46.60547
1047.929, 206.0977
1049.036, 211.7812
1050.142, 131.4531
1051.248, 200.7852
1052.353, 398.0938
1053.459, 136.7109
1054.564, 213.9297
1055.670, 387.5195
1056.775, 80.41016
1057.880, 518.2188
1058.985, 59.26172
1060.089, 196.0430
1061.194, 183.3672
1062.298, 392.4844
1063.402, 60.93359
1064.506, 486.2617
1065.610, 166.6133
1066.713, 271.8555
1067.817, 150.5664
1068.920, 98.44141
1070.023, 392.7969
1071.126, 64.64062
1072.229, 241.7383
1073.332, 37.34766
1074.435, 183.5820
1075.537, 125.5781
1076.639, 30.23828
1077.741, 163.1992
1078.843, 55.05859
1079.945, 312.1523
1081.046, 358.2305
1082.148, 365.6875
1083.249, 218.7344
1084.350, 317.7656
1085.451, 219.7773
1086.551, 160.7734
1087.652, 238.7539
1088.752, 326.7422
1089.853, 115.7148
1090.953, 172.6641
1092.053, 213.5781
1093.152, 353.4961
1094.252, 284.3398
1095.351, 292.2344
1096.451, 321.8750
1097.550, 263.6211
1098.649, 243.9531
1099.748, 229.7812
1100.846, 265.1875
1101.945, 303.8477
1103.043, 333.6094
1104.141, 383.9023
1105.239, 312.6445
1106.337, 219.3672
1107.434, 319.0820
1108.532, 249.7773
1109.629, 295.4570
1110.726, 262.7617
1111.823, 345.7656
1112.920, 200.1211
1114.017, 44.73828
1115.113, 48.37891
1116.210, 2.203125
1117.306, 164.2617
1118.402, 31.79297
1119.498, 202.2969
1120.593, 191.7891
1121.689, 36.73828
1122.784, 312.6797
1123.879, 410.1172
1124.974, 325.5234
1126.069, 228.9258
1127.164, 120.3086
1128.259, 100.1289
1129.353, 67.77734
1130.447, 68.59375
1131.541, 125.9531
1132.635, 131.2891
1133.729, 255.6094
1134.822, 112.9180
1135.916, 158.2070
1137.009, 168.4805
1138.102, 266.7344
1139.195, 122.6562
1140.288, 551.5977
1141.380, 159.7578
1142.473, 468.6680
1143.565, 20.16016
1144.657, 481.9727
1145.749, 66.08984
1146.841, 165.1914
1147.932, 187.2578
1149.024, 24.35156
1150.115, 278.4297
1151.206, 432.5703
1152.297, 217.6172
1153.388, 371.8164
1154.479, 119.8867
1155.569, 85.94141
1156.659, 211.9805
1157.750, 185.0352
1158.839, 92.95312
1159.929, 156.9961
1161.019, 117.9375
1162.108, 283.8711
1163.198, 273.7891
1164.287, 279.6914
1165.376, 179.5781
1166.465, 24.54297
1167.553, 81.28906
1168.642, 257.1211
1169.730, 372.9336
1170.818, 13.74219
1171.906, 252.9609
1172.994, 290.7344
1174.082, 9.488281
1175.170, 271.1016
1176.257, 96.85156
1177.344, 163.4219
1178.431, 319.2422
1179.518, 187.8477
1180.605, 180.4375
1181.691, 22.81250
1182.778, 257.3672
1183.864, 228.9102
1184.950, 465.2617
1186.036, 596.7812
1187.122, 95.28516
1188.207, 245.4336
1189.292, 217.9336
1190.378, 430.0391
1191.463, 404.5586
1192.548, 419.1719
1193.632, 361.4258
1194.717, 397.3867
1195.801, 260.8945
1196.886, 277.2734
1197.970, 39.67578
1199.054, 9.960938
1200.137, 32.52734
1201.221, 72.05859
1202.305, 236.5742
1203.388, 53.14844
1204.471, 144.6562
1205.554, 361.8828
1206.637, 162.8594
1207.719, 158.2852
1208.802, 55.42188
1209.884, 311.0742
1210.966, 253.3320
1212.048, 348.5195
1213.130, 282.6914
1214.212, 277.8555
1215.293, 197.0078
1216.374, 186.1484
1217.456, 203.1953
1218.536, 472.9375
1219.617, 300.0430
1220.698, 536.8750
1221.778, 286.1328
1222.859, 407.2109
1223.939, 262.2812
1225.019, 239.9336
1226.099, 46.98047
1227.178, 152.0117
1228.258, 91.96484
1229.337, 284.9883
1230.417, 195.9375
1231.496, 338.8711
1232.574, 28.79297
1233.653, 10.69922
1234.732, 222.5938
1235.810, 271.4805
1236.888, 145.3555
1237.966, 369.2227
1239.044, 233.0781
1240.122, 139.9258
1241.199, 275.7617
1242.277, 162.1406
1243.354, 277.9609
1244.431, 152.1367
1245.508, 165.3359
1246.585, 231.4023
1247.661, 243.3203
1248.738, 348.3477
1249.814, 432.1211
1250.890, 265.8867
1251.966, 363.4336
1253.042, 197.1211
1254.117, 382.8594
1255.193, 217.5898
1256.268, 221.3125
1257.343, 342.7773
1258.418, 205.1484
1259.493, 176.3750
1260.567, 434.3750
1261.642, 277.8320
1262.716, 348.3125
1263.790, 411.9805
1264.864, 444.3672
1265.938, 505.9727
1267.011, 405.5781
1268.085, 409.8945
1269.158, 438.3203
1270.231, 274.2461
1271.304, 474.7969
1272.377, 366.4102
1273.450, 321.0117
1274.522, 540.6719
1275.594, 364.8086
1276.666, 104.3516
1277.738, 312.9375
1278.810, 369.8672
1279.882, 101.4375
1280.953, 144.0039
1282.025, 91.72656
1283.096, 443.2812
1284.167, 138.6016
1285.238, 358.7773
1286.308, 493.3164
1287.379, 190.8438
1288.449, 422.8750
1289.519, 295.3242
1290.589, 133.6211
1291.659, 314.1328
1292.729, 358.6484
1293.798, 200.2070
1294.868, 323.7109
1295.937, 466.0508
1297.006, 219.1719
1298.075, 145.6680
1299.143, 317.1562
1300.212, 4.765625
1301.280, 461.2461
1302.348, 267.7617
1303.416, 439.2031
1304.484, 441.6758
1305.552, 264.8477
1306.620, 113.4844
1307.687, 247.9414
1308.754, 160.3711
1309.821, 333.8008
1310.888, 201.5508
1311.955, 229.9844
1313.021, 211.4141
1314.088, 284.8477
1315.154, 285.2969
1316.220, 62.45703
1317.286, 259.9180
1318.352, 454.3750
1319.417, 188.8594
1320.483, 283.3398
1321.548, 481.8086
1322.613, 156.2773
1323.678, 19.26172
1324.743, 90.19531
1325.807, 469.6484
1326.872, 372.6016
1327.936, 209.2539
1329.000, 310.5508
1330.064, 308.3789
1331.128, 50.14453
1332.191, 230.9180
1333.255, 146.3633
1334.318, 301.8047
1335.381, 100.2500
1336.444, 85.70312
1337.507, 231.7852
1338.569, 48.24219
1339.632, 291.6953
1340.694, 250.1523
1341.756, 370.6133
1342.818, 85.06641
1343.880, 140.5273
1344.941, 346.9844
1346.003, 107.5586
1347.064, 280.8711
1348.125, 161.3047
1349.186, 11.73828
1350.247, 241.1680
1351.308, 156.5703
1352.368, 12.03125
1353.428, 100.3711
1354.489, 134.3867
1355.549, 289.7227
1356.608, 588.3047
1357.668, 140.6484
1358.727, 278.9883
1359.787, 116.3320
1360.846, 293.2266
1361.905, 284.2109
1362.964, 106.5547
1364.022, 55.90625
1365.081, 313.2578
1366.139, 143.6133
1367.197, 279.9727
1368.255, 251.3359
1369.313, 42.29688
1370.371, 426.0625
1371.428, 357.4219
1372.486, 186.7930
1373.543, 348.1641
1374.600, 0.5507810
1375.657, 198.9414
1376.713, 511.3359
1377.770, 59.73438
1378.826, 228.1328
1379.882, 122.4453
1380.938, 250.9648
1381.994, 113.3750
1383.050, 121.7891
1384.106, 311.2070
1385.161, 319.6289
1386.216, 48.05469
1387.271, 217.5117
1388.326, 114.8828
1389.381, 247.2812
1390.435, 136.6836
1391.490, 134.0898
1392.544, 32.50781
1393.598, 62.71094
1394.652, 320.3594
1395.705, 190.7930
1396.759, 220.2344
1397.812, 413.6875
1398.866, 157.3633
1399.919, 162.8281
1400.972, 26.59766
1402.024, 201.0938
1403.077, 148.6055
1404.129, 244.0547
1405.181, 18.58594
1406.233, 159.1250
1407.285, 207.6055
1408.337, 2.175781
1409.389, 126.6484
1410.440, 462.2422
1411.491, 125.8516
1412.542, 148.4727
1413.593, 253.1172
1414.644, 122.7695
1415.695, 340.4766
1416.745, 184.1250
1417.795, 67.85938
1418.845, 78.61328
1419.895, 29.34375
1420.945, 144.1914
1421.995, 146.0117
1423.044, 117.8633
1424.093, 336.9883
1425.142, 128.8828
1426.191, 269.8047
1427.240, 442.3164
1428.289, 35.29297
1429.337, 203.3008
1430.385, 64.35156
1431.433, 256.4297
1432.481, 143.5117
1433.529, 270.9141
1434.577, 143.4180
1435.624, 305.6641
1436.672, 139.9375
1437.719, 142.4102
1438.766, 211.7852
1439.812, 285.2070
1440.859, 287.2148
1441.905, 390.7344
1442.952, 231.2383
1443.998, 311.6250
1445.044, 476.5781
1446.090, 321.3516
1447.135, 369.8320
1448.181, 333.7188
1449.226, 376.5078
1450.271, 316.7383
1451.316, 457.3242
1452.361, 206.9102
1453.405, 143.9062
1454.450, 125.9062
1455.494, 305.9219
1456.538, 391.8750
1457.582, 370.9141
1458.626, 323.9609
1459.670, 309.7734
1460.713, 179.7891
1461.757, 185.5859
1462.800, 190.9414
1463.843, 204.9844
1464.886, 93.07422
1465.928, 110.2188
1466.971, 316.3750
1468.013, 425.5664
1469.055, 243.7617
1470.097, 560.9805
1471.139, 505.2969
1472.181, 606.5352
1473.222, 377.7891
1474.263, 457.8008
1475.305, 251.0898
1476.346, 400.6992
1477.386, 115.9492
1478.427, 538.2031
1479.468, 431.4844
1480.508, 242.7148
1481.548, 363.8555
1482.588, 204.9492
1483.628, 348.1172
1484.668, 496.2969
1485.707, 228.4961
1486.747, 6.625000
1487.786, 461.8555
1488.825, 389.9688
1489.864, 429.2266
1490.902, 127.2578
1491.941, 513.5508
1492.979, 284.8633
1494.017, 388.1875
1495.055, 385.5195
1496.093, 522.7695
1497.131, 350.1289
1498.168, 561.4922
1499.206, 271.8633
1500.243, 503.1875
1501.280, 371.5820
1502.317, 330.9805
1503.354, 447.4961
1504.390, 237.0078
1505.426, 387.5195
1506.463, 483.9961
1507.499, 590.4219
1508.535, 607.9805
1509.570, 602.0195
1510.606, 576.7539
1511.641, 493.2695
1512.676, 432.8477
1513.711, 357.4414
1514.746, 652.0547
1515.781, 137.7461
1516.816, 397.5273
1517.850, 511.3477
1518.884, 190.1992
1519.918, 250.0742
1520.952, 418.9727
1521.986, 342.9297
1523.019, 32.92188
1524.053, 464.0312
1525.086, 20.26172
1526.119, 319.7188
1527.152, 316.4219
1528.185, 453.1914
1529.217, 475.5508
1530.250, 457.4609
1531.282, 389.4609
1532.314, 365.5430
1533.346, 106.7109
1534.377, 296.9766
1535.409, 341.3398
1536.440, 579.8164
1537.472, 531.4023
1538.503, 596.1133
1539.534, 508.9531
1540.564, 19.05469
1541.595, 456.0977
1542.625, 194.4219
1543.656, 428.9336
1544.686, 465.6445
1545.716, 325.5664
1546.745, 391.7227
1547.775, 101.9727
1548.804, 291.0000
1549.834, 448.7930
1550.863, 617.8828
1551.892, 484.2617
1552.920, 600.9141
1553.949, 502.9609
1554.977, 340.3945
1556.006, 329.5898
1557.034, 291.7070
1558.062, 154.5312
1559.089, 256.1719
1560.117, 371.6641
1561.144, 220.3242
1562.172, 306.5625
1563.199, 699.3906
1564.226, 18.90234
1565.252, 447.4844
1566.279, 761.1055
1567.305, 385.0859
1568.332, 61.33984
1569.358, 40.05859
1570.384, 0.0000000E+00
##END=



