##NAMES=Bustamite
##RRUFFID=R040014
##IDEAL CHEMISTRY=CaMn^2+^Si_2_O_6_
##LOCALITY=Broken Hill, New South Wales, Australia
##OWNER=RRUFF
##SOURCE=University of Arizona Mineral Museum
##DESCRIPTION=Orange fragment
##STATUS=The identification of this mineral has been confirmed by X-ray diffraction and chemical analysis
##URL=rruff.info/R040014
##MEASURED CHEMISTRY=(Ca_0.90_Mn_0.10_)_Σ=1_(Mn^2+^_0.78_Fe^2+^_0.19_Fe^3+^_0.02_Mg_0.01_)_Σ=1_(Si_1.98_Fe^3+^_0.02_)_Σ=2_O_6_
##PIN_ID=M00370
##ORIENTATION=Laser parallel to b* (0 1 0). Fiducial mark perpendicular to laser is parallel to c [0 0 1]
92.678, 0.000
94.071, 8.275
95.465, 29.750
96.858, 47.160
98.251, 9.926
99.644, 173.371
101.036, 189.280
102.428, 203.407
103.820, 265.232
105.212, 434.299
106.604, 479.333
107.995, 584.382
109.387, 873.662
110.777, 1049.663
112.168, 1033.219
113.559, 1375.945
114.949, 1002.141
116.339, 641.387
117.729, 687.864
119.119, 625.387
120.508, 676.272
121.897, 756.310
123.286, 824.501
124.675, 932.261
126.063, 1074.638
127.452, 1186.896
128.840, 1333.260
130.228, 1510.719
131.615, 1651.361
133.003, 2068.270
134.390, 2204.547
135.777, 2309.322
137.164, 2461.646
138.550, 2423.519
139.937, 2335.277
141.323, 1989.856
142.709, 1692.535
144.094, 1524.487
145.480, 1279.856
146.865, 1220.128
148.250, 1081.632
149.635, 972.104
151.019, 1002.067
152.403, 997.036
153.788, 997.348
155.171, 968.008
156.555, 941.373
157.939, 968.074
159.322, 902.000
160.705, 826.029
162.088, 716.040
163.470, 731.624
164.853, 672.887
166.235, 698.954
167.617, 645.006
168.998, 739.039
170.380, 816.054
171.761, 830.052
173.142, 778.034
174.523, 720.291
175.904, 618.668
177.284, 561.855
178.664, 466.138
180.044, 327.552
181.424, 284.886
182.803, 206.432
184.183, 138.652
185.562, 202.927
186.940, 111.250
188.319, 147.616
189.698, 36.023
191.076, 133.489
192.454, 68.018
193.831, 138.589
195.209, 118.204
196.586, 67.894
197.963, 54.656
199.340, 36.833
200.717, 25.794
202.093, 15.328
203.470, 17.263
204.846, 4.193
206.221, 18.892
207.597, 26.995
208.972, 53.123
210.347, 49.524
211.722, 4.452
213.097, 45.654
214.472, 64.879
215.846, 71.128
217.220, 14.399
218.594, 54.693
219.967, 7.991
221.341, 1.652
222.714, 76.712
224.087, 43.108
225.460, 27.207
226.832, 39.976
228.204, 50.391
229.577, 65.452
230.948, 62.865
232.320, 90.488
233.692, 130.920
235.063, 168.138
236.434, 224.471
237.805, 259.529
239.175, 288.357
240.545, 321.080
241.916, 323.713
243.286, 410.323
244.655, 373.922
246.025, 432.514
247.394, 365.100
248.763, 373.681
250.132, 337.256
251.501, 245.828
252.869, 196.394
254.237, 149.952
255.605, 166.510
256.973, 92.060
258.340, 86.215
259.708, 125.158
261.075, 79.070
262.442, 42.059
263.808, 63.583
265.175, 54.670
266.541, 140.878
267.907, 82.700
269.273, 113.990
270.639, 156.583
272.004, 149.697
273.369, 221.904
274.734, 285.237
276.099, 296.215
277.463, 426.160
278.828, 563.195
280.192, 586.069
281.556, 839.907
282.919, 869.708
284.283, 821.471
285.646, 1064.299
287.009, 1055.206
288.372, 1158.407
289.734, 1163.296
291.097, 1169.121
292.459, 1147.936
293.821, 1167.833
295.183, 1156.263
296.544, 1196.757
297.905, 1211.896
299.266, 1233.438
300.627, 1451.819
301.988, 1541.540
303.348, 1778.986
304.709, 2117.522
306.069, 2460.762
307.428, 2885.845
308.788, 3323.096
310.147, 3900.160
311.507, 4237.276
312.865, 4588.004
314.224, 4807.729
315.583, 4725.232
316.941, 4600.627
318.299, 4199.876
319.657, 3749.006
321.015, 3177.047
322.372, 2803.984
323.729, 2379.826
325.086, 2068.646
326.443, 1822.446
327.800, 1735.237
329.156, 1585.022
330.512, 1451.801
331.868, 1328.575
333.224, 1289.344
334.579, 1303.108
335.935, 1183.868
337.290, 1075.622
338.645, 992.370
339.999, 916.106
341.354, 840.834
342.708, 754.546
344.062, 603.247
345.416, 518.937
346.769, 458.617
348.123, 327.012
349.476, 358.672
350.829, 311.946
352.182, 284.368
353.534, 290.871
354.887, 180.227
356.239, 133.159
357.591, 115.524
358.942, 133.798
360.294, 152.719
361.645, 55.498
362.996, 85.030
364.347, 162.362
365.698, 79.442
367.048, 80.574
368.398, 46.232
369.748, 68.454
371.098, 38.168
372.448, 95.243
373.797, 36.588
375.146, 58.854
376.495, 85.523
377.844, 153.007
379.192, 127.104
380.540, 122.717
381.889, 129.815
383.236, 227.788
384.584, 286.434
385.932, 374.084
387.279, 359.133
388.626, 560.389
389.973, 666.096
391.319, 661.741
392.666, 780.631
394.012, 828.079
395.358, 940.156
396.704, 975.334
398.049, 1016.563
399.394, 1119.869
400.740, 1127.168
402.084, 1277.463
403.429, 1424.752
404.774, 1529.038
406.118, 1506.320
407.462, 1506.598
408.806, 1369.872
410.150, 1172.141
411.493, 1117.406
412.836, 914.667
414.179, 753.924
415.522, 662.177
416.865, 491.315
418.207, 414.523
419.549, 299.419
420.891, 235.564
422.233, 200.278
423.575, 153.075
424.916, 127.581
426.257, 103.258
427.598, 77.844
428.939, 7.160
430.279, 57.568
431.619, 0.590
432.959, 92.413
434.299, 65.371
435.639, 28.434
436.978, 115.480
438.318, 134.528
439.657, 74.573
440.996, 117.604
442.334, 133.638
443.673, 129.673
445.011, 121.697
446.349, 77.723
447.687, 47.736
449.024, 39.266
450.361, 24.696
451.699, 19.357
453.036, 12.563
454.372, 27.469
455.709, 29.384
457.045, 33.715
458.381, 28.847
459.717, 36.048
461.053, 34.183
462.388, 24.390
463.724, 52.621
465.059, 38.892
466.394, 19.188
467.728, 17.507
469.063, 36.843
470.397, 42.810
471.731, 16.449
473.065, 94.078
474.398, 71.704
475.732, 189.329
477.065, 349.952
478.398, 465.587
479.731, 666.214
481.063, 761.832
482.396, 971.441
483.728, 945.059
485.060, 909.669
486.391, 815.275
487.723, 647.885
489.054, 489.495
490.385, 448.110
491.716, 329.717
493.047, 283.323
494.377, 275.921
495.708, 222.515
497.038, 185.109
498.368, 288.703
499.697, 276.292
501.027, 309.874
502.356, 454.449
503.685, 474.016
505.014, 661.576
506.342, 779.128
507.671, 897.673
508.999, 1032.211
510.327, 1156.743
511.655, 1173.268
512.982, 1199.788
514.310, 1233.304
515.637, 1222.777
516.964, 1044.056
518.291, 851.255
519.617, 783.528
520.944, 525.878
522.270, 518.752
523.596, 373.817
524.921, 295.212
526.247, 244.264
527.572, 183.324
528.897, 166.159
530.222, 137.197
531.547, 88.030
532.871, 64.241
534.196, 42.166
535.520, 45.268
536.844, 40.683
538.167, 40.115
539.491, 51.577
540.814, 49.077
542.137, 43.641
543.460, 48.240
544.783, 67.840
546.105, 1.460
547.427, 24.911
548.749, 21.713
550.071, 66.331
551.393, 36.945
552.714, 11.448
554.035, 34.146
555.356, 47.733
556.677, 90.312
557.998, 105.884
559.318, 83.448
560.638, 132.004
561.958, 179.553
563.278, 157.093
564.597, 220.625
565.917, 256.150
567.236, 379.666
568.555, 459.175
569.874, 539.675
571.192, 638.167
572.511, 756.651
573.829, 875.127
575.147, 905.595
576.464, 950.055
577.782, 969.587
579.099, 803.032
580.416, 798.584
581.733, 780.107
583.050, 628.571
584.366, 575.096
585.683, 469.627
586.999, 516.033
588.315, 443.927
589.630, 432.321
590.946, 412.312
592.261, 412.066
593.576, 400.500
594.891, 405.257
596.206, 428.771
597.520, 443.991
598.834, 466.356
600.148, 487.322
601.462, 514.199
602.776, 535.808
604.089, 589.001
605.402, 632.466
606.715, 713.849
608.028, 741.365
609.341, 742.823
610.653, 830.908
611.965, 882.942
613.277, 956.904
614.589, 1060.046
615.901, 1105.065
617.212, 1248.809
618.523, 1418.442
619.834, 1543.660
621.145, 1599.229
622.456, 1933.147
623.766, 2114.904
625.076, 2306.809
626.386, 2733.252
627.696, 3164.921
629.006, 3685.951
630.315, 4463.308
631.624, 5318.135
632.933, 6403.362
634.242, 7728.346
635.551, 9866.516
636.859, 11949.603
638.167, 14822.681
639.475, 18605.836
640.783, 23192.320
642.090, 26765.367
643.398, 31229.043
644.705, 32614.490
646.012, 32769.359
647.318, 30194.828
648.625, 26467.844
649.931, 22272.123
651.237, 18095.170
652.543, 15008.580
653.849, 11813.085
655.155, 9837.715
656.460, 7991.062
657.765, 6544.246
659.070, 5577.174
660.375, 4600.091
661.679, 3828.999
662.984, 3283.897
664.288, 2710.786
665.592, 2422.664
666.895, 2069.688
668.199, 1765.548
669.502, 1627.396
670.805, 1323.235
672.108, 1197.064
673.411, 1073.509
674.713, 1103.319
676.016, 917.122
677.318, 757.915
678.620, 791.700
679.921, 691.477
681.223, 685.937
682.524, 652.697
683.825, 666.449
685.126, 715.193
686.427, 671.469
687.727, 776.198
689.028, 793.919
690.328, 791.591
691.628, 721.163
692.927, 703.742
694.227, 638.294
695.526, 577.205
696.825, 527.414
698.124, 441.973
699.423, 377.501
700.721, 306.039
702.020, 293.648
703.318, 247.963
704.616, 266.063
705.913, 193.450
707.211, 154.015
708.508, 173.446
709.805, 151.866
711.102, 223.680
712.399, 167.128
713.695, 227.663
714.992, 211.188
716.288, 260.703
717.584, 155.208
718.879, 193.703
720.175, 119.188
721.470, 188.664
722.765, 169.130
724.060, 175.585
725.355, 182.032
726.649, 186.469
727.944, 199.897
729.238, 139.315
730.532, 109.724
731.825, 146.124
733.119, 52.514
734.412, 70.892
735.705, 43.266
736.998, 47.627
738.291, 59.979
739.584, 43.321
740.876, 33.655
742.168, 36.978
743.460, 17.803
744.752, 18.787
746.043, 2.104
747.334, 10.176
748.626, 16.443
749.916, 8.701
751.207, 39.053
752.498, 30.845
753.788, 25.330
755.078, 58.505
756.368, 39.386
757.658, 5.694
758.947, 48.238
760.237, 11.787
761.526, 9.802
762.815, 25.807
764.104, 13.815
765.392, 20.815
766.680, 17.812
767.969, 84.197
769.257, 11.735
770.544, 102.660
771.832, 4.588
773.119, 49.488
774.406, 8.407
775.693, 5.698
776.980, 22.188
778.267, 23.918
779.553, 57.961
780.839, 14.161
782.125, 69.297
783.411, 17.529
784.697, 0.651
785.982, 19.843
787.267, 28.057
788.552, 23.296
789.837, 74.558
791.122, 38.129
792.406, 38.811
793.690, 15.487
794.974, 49.844
796.258, 50.790
797.542, 5.582
798.825, 34.966
800.108, 26.377
801.391, 36.500
802.674, 25.729
803.957, 18.737
805.239, 12.781
806.522, 4.707
807.804, 24.206
809.085, 26.722
810.367, 5.260
811.649, 2.577
812.930, 41.640
814.211, 26.081
815.492, 71.519
816.772, 72.953
818.053, 98.383
819.333, 52.810
820.613, 2.768
821.893, 49.649
823.173, 71.062
824.452, 60.473
825.732, 100.880
827.011, 14.715
828.290, 58.679
829.568, 5.071
830.847, 80.460
832.125, 11.846
833.403, 36.230
834.681, 18.389
835.959, 124.983
837.236, 39.353
838.514, 20.721
839.791, 16.914
841.068, 124.443
842.345, 72.799
843.621, 77.153
844.898, 106.506
846.174, 111.858
847.450, 119.214
848.726, 121.568
850.001, 133.066
851.277, 121.841
852.552, 152.638
853.827, 116.995
855.102, 118.352
856.376, 154.708
857.651, 48.065
858.925, 88.428
860.199, 229.792
861.473, 273.156
862.746, 191.521
864.020, 160.888
865.293, 309.281
866.566, 169.674
867.839, 303.086
869.112, 269.499
870.384, 372.912
871.656, 433.327
872.928, 466.743
874.200, 517.160
875.472, 488.579
876.744, 706.997
878.015, 691.421
879.286, 815.848
880.557, 946.282
881.828, 1020.721
883.098, 1218.162
884.369, 1335.619
885.639, 1466.079
886.909, 1664.460
888.178, 1758.940
889.448, 1932.310
890.717, 2035.709
891.987, 2020.178
893.256, 2127.582
894.524, 1959.950
895.793, 1841.370
897.061, 1786.690
898.330, 1656.056
899.598, 1600.511
900.865, 1420.661
902.133, 1346.017
903.401, 1221.135
904.668, 1107.334
905.935, 1085.066
907.202, 933.521
908.468, 880.557
909.735, 954.813
911.001, 811.898
912.267, 810.640
913.533, 836.001
914.799, 717.317
916.064, 825.834
917.330, 777.289
918.595, 815.803
919.860, 857.314
921.124, 811.958
922.389, 970.430
923.653, 903.111
924.918, 1029.374
926.182, 1038.297
927.445, 1093.754
928.709, 1102.479
929.972, 1166.421
931.236, 1222.716
932.499, 1319.442
933.761, 1384.740
935.024, 1522.606
936.286, 1485.246
937.549, 1596.452
938.811, 1579.507
940.073, 1580.077
941.334, 1626.976
942.596, 1478.691
943.857, 1469.488
945.118, 1639.293
946.379, 1639.028
947.640, 1825.431
948.900, 1818.270
950.161, 2046.484
951.421, 2119.928
952.681, 2479.967
953.940, 2689.406
955.200, 3041.300
956.459, 3461.928
957.719, 4103.796
958.978, 4805.295
960.236, 5745.698
961.495, 6935.982
962.753, 8547.544
964.012, 10289.272
965.270, 13361.255
966.527, 16743.266
967.785, 21725.279
969.043, 28417.314
970.300, 35089.352
971.557, 43671.402
972.814, 49123.320
974.071, 50815.402
975.327, 48357.496
976.583, 42389.594
977.840, 35821.715
979.095, 28813.215
980.351, 22895.357
981.607, 18307.502
982.862, 14819.687
984.117, 11961.882
985.372, 10384.087
986.627, 8655.611
987.882, 7677.838
989.136, 6850.078
990.390, 6172.328
991.644, 5844.051
992.898, 5316.324
994.152, 5238.613
995.405, 4980.913
996.659, 4843.226
997.912, 4866.459
999.165, 4748.794
1000.417, 4681.139
1001.670, 4664.401
1002.922, 4426.766
1004.174, 4169.145
1005.426, 3711.529
1006.678, 3393.928
1007.930, 3166.336
1009.181, 2758.756
1010.432, 2651.186
1011.683, 2463.625
1012.934, 2256.076
1014.185, 2298.541
1015.435, 2106.658
1016.685, 2199.145
1017.935, 2145.697
1019.185, 2278.211
1020.435, 2480.742
1021.684, 2603.615
1022.934, 2936.178
1024.183, 3168.740
1025.432, 3451.385
1026.680, 3653.968
1027.929, 3547.283
1029.177, 3590.342
1030.425, 3283.930
1031.673, 3167.227
1032.921, 3299.866
1034.169, 3346.041
1035.416, 3488.710
1036.663, 4051.389
1037.911, 4167.945
1039.157, 4400.803
1040.404, 4384.885
1041.650, 4210.557
1042.897, 3723.311
1044.143, 3236.169
1045.389, 2726.437
1046.634, 2249.779
1047.880, 1897.469
1049.125, 1571.575
1050.371, 1413.866
1051.615, 1136.812
1052.860, 1072.035
1054.105, 1008.941
1055.349, 790.885
1056.593, 753.801
1057.837, 619.825
1059.081, 630.776
1060.325, 634.778
1061.568, 482.762
1062.812, 531.770
1064.055, 510.784
1065.298, 446.807
1066.540, 498.837
1067.783, 414.923
1069.025, 433.059
1070.267, 368.109
1071.509, 322.236
1072.751, 292.327
1073.993, 268.421
1075.234, 324.522
1076.475, 281.645
1077.716, 203.778
1078.957, 396.920
1080.198, 258.071
1081.438, 219.485
1082.679, 351.657
1083.919, 248.143
1085.159, 311.371
1086.398, 287.587
1087.638, 222.912
1088.877, 346.408
1090.116, 240.765
1091.355, 241.280
1092.594, 262.841
1093.833, 185.458
1095.071, 165.466
1096.309, 119.772
1097.547, 164.975
1098.785, 241.445
1100.023, 89.779
1101.260, 144.711
1102.498, 234.071
1103.735, 53.667
1104.972, 241.231
1106.208, 121.616
1107.445, 122.431
1108.681, 150.924
1109.918, 120.326
1111.154, 180.842
1112.389, 153.259
1113.625, 146.730
1114.860, 137.351
1116.096, 97.793
1117.331, 130.234
1118.566, 186.076
1119.800, 156.521
1121.035, 221.730
1122.269, 185.424
1123.503, 148.878
1124.737, 169.633
1125.971, 141.087
1127.205, 55.658
1128.438, 124.604
1129.671, 60.061
1130.904, 62.112
1132.137, 188.569
1133.370, 38.184
1134.602, 168.893
1135.834, 144.349
1137.066, 141.292
1138.298, 159.931
1139.530, 101.455
1140.762, 152.396
1141.993, 115.765
1143.224, 46.253
1144.455, 161.481
1145.686, 29.076
1146.917, 133.352
1148.147, 154.776
1149.377, 27.803
1150.607, 206.605
1151.837, 129.062
1153.067, 41.461
1154.296, 156.095
1155.526, 61.486
1156.755, 79.124
1157.984, 61.506
1159.213, 80.883
1160.441, 46.581
1161.670, 43.614
1162.898, 102.023
1164.126, 131.979
1165.354, 75.349
1166.581, 67.910
1167.809, 55.092
1169.036, 7.639
1170.263, 18.827
1171.490, 37.479
1172.717, 7.154
1173.943, 55.516
1175.170, 14.926
1176.396, 8.593
1177.622, 18.788
1178.848, 12.401
1180.073, 158.094
1181.299, 59.200
1182.524, 56.018
1183.749, 109.330
1184.974, 63.190
1186.199, 3.903
1187.423, 22.485
1188.648, 44.424
1189.872, 50.686
1191.096, 32.986
1192.320, 115.062
1193.543, 3.046
1194.767, 72.879
1195.990, 6.071
1197.213, 110.577
1198.436, 43.665
1199.659, 4.432
1200.881, 61.631
1202.104, 59.598
1203.326, 133.344
1204.548, 6.588
1205.770, 86.461
1206.991, 68.558
1208.213, 98.414
1209.434, 106.133
1210.655, 96.856
1211.876, 92.731
1213.096, 83.511
1214.317, 70.538
1215.537, 61.131
1216.757, 86.777
1217.977, 74.495
1219.197, 85.726
1220.417, 97.445
1221.636, 96.188
1222.855, 115.705
1224.074, 115.012
1225.293, 115.504
1226.512, 93.780
1227.731, 35.758
1228.949, 135.206
1230.167, 24.642
1231.385, 93.502
1232.603, 145.068
1233.820, 77.943
1235.038, 41.319
1236.255, 78.678
1237.472, 45.320
1238.689, 41.645
1239.906, 29.956
1241.122, 12.820
1242.338, 157.668
1243.555, 9.915
1244.771, 76.451
1245.986, 126.672
1247.202, 49.121
1248.417, 147.147
1249.633, 61.312
1250.848, 70.842
1252.063, 203.964
1253.277, 27.060
1254.492, 94.542
1255.706, 134.607
1256.920, 95.801
1258.134, 139.809
1259.348, 109.804
1260.562, 21.692
1261.775, 259.279
1262.988, 137.212
1264.201, 40.487
1265.414, 213.378
1266.627, 13.745
1267.839, 75.638
1269.052, 142.471
1270.264, 62.288
1271.476, 217.166
1272.688, 107.948
1273.899, 37.879
1275.111, 197.785
1276.322, 56.509
1277.533, 169.559
1278.744, 102.203
1279.955, 79.828
1281.165, 170.425
1282.376, 42.002
1283.586, 98.543
1284.796, 126.235
1286.006, 43.734
1287.215, 25.319
1288.425, 135.724
1289.634, 30.137
1290.843, 171.541
1292.052, 181.939
1293.261, 193.219
1294.469, 154.478
1295.678, 154.848
1296.886, 136.024
1298.094, 167.221
1299.302, 92.396
1300.509, 199.553
1301.717, 90.690
1302.924, 151.810
1304.131, 202.904
1305.338, 73.972
1306.545, 37.018
1307.752, 176.036
1308.958, 31.382
1310.164, 12.347
1311.370, 199.234
1312.576, 0.151
1313.782, 141.041
1314.987, 91.575
1316.193, 52.410
1317.398, 103.231
1318.603, 53.961
1319.807, 64.738
1321.012, 114.768
1322.216, 5.001
1323.421, 94.693
1324.625, 64.660
1325.829, 5.256
1327.032, 12.304
1328.236, 92.842
1329.439, 53.354
1330.642, 129.969
1331.845, 30.271
1333.048, 70.666
1334.251, 106.793
1335.453, 12.846
1336.656, 167.397
1337.858, 100.221
1339.060, 59.956
1340.261, 175.332
1341.463, 75.168
1342.664, 55.039
1343.866, 165.131
1345.067, 5.066
1346.267, 75.041
1347.468, 125.116
1348.669, 45.218
1349.869, 44.200
1351.069, 34.261
1352.269, 84.272
1353.469, 114.295
1354.668, 114.301
1355.868, 34.290
1357.067, 144.412
1358.266, 34.371
1359.465, 154.267
1360.664, 114.402
1361.862, 94.319
1363.061, 194.180
1364.259, 144.139
1365.457, 114.024
1366.655, 153.901
1367.852, 4.279
1369.050, 194.140
1370.247, 4.310
1371.444, 24.152
1372.641, 143.729
1373.838, 173.548
1375.035, 33.063
1376.231, 92.819
1377.427, 7.118
1378.623, 162.499
1379.819, 221.972
1381.015, 62.716
1382.211, 170.672
1383.406, 241.070
1384.601, 101.311
1385.796, 151.188
1386.991, 197.332
1388.185, 57.919
1389.380, 328.510
1390.574, 148.708
1391.768, 109.320
1392.962, 179.958
1394.156, 37.109
1395.350, 247.231
1396.543, 164.687
1397.736, 34.872
1398.929, 134.952
1400.122, 94.646
1401.315, 178.535
1402.507, 238.603
1403.700, 61.478
1404.892, 117.905
1406.084, 147.377
1407.276, 36.318
1408.467, 165.423
1409.659, 125.462
1410.850, 14.523
1412.041, 175.402
1413.232, 135.059
1414.423, 104.665
1415.614, 234.135
1416.804, 83.120
1417.994, 80.248
1419.184, 177.524
1420.374, 27.005
1421.564, 225.967
1422.753, 124.663
1423.943, 121.907
1425.132, 330.797
1426.321, 146.610
1427.510, 75.355
1428.698, 224.081
1429.887, 74.445
1431.075, 170.436
1432.263, 99.337
1433.451, 79.821
1434.639, 208.835
1435.827, 155.631
1437.014, 124.455
1438.201, 262.602
1439.388, 201.561
1440.575, 240.095
1441.762, 288.689
1442.949, 287.857
1444.135, 176.849
1445.321, 455.953
1446.507, 193.686
1447.693, 381.350
1448.879, 279.477
1450.064, 217.685
1451.250, 283.496
1452.435, 312.426
1453.620, 200.730
1454.805, 349.308
1455.989, 288.148
1457.174, 286.320
1458.358, 334.858
1459.542, 152.688
1460.726, 381.367
1461.910, 299.097
1463.093, 157.402
1464.277, 385.326
1465.460, 333.642
1466.643, 211.084
1467.826, 395.482
1469.009, 273.581
1470.191, 341.402
1471.373, 328.479
1472.556, 205.358
1473.738, 323.261
1474.919, 331.156
1476.101, 278.577
1477.283, 376.122
1478.464, 84.142
1479.645, 212.178
1480.826, 190.476
1482.007, 208.753
1483.187, 227.002
1484.368, 355.200
1485.548, 203.361
1486.728, 211.546
1487.908, 249.767
1489.088, 107.999
1490.268, 316.199
1491.447, 284.375
1492.626, 122.541
1493.805, 310.704
1494.984, 99.279
1496.163, 187.995
1497.341, 316.849
1498.520, 35.847
1499.698, 154.967
1500.876, 264.233
1502.054, 3.633
1503.232, 233.150
1504.409, 212.805
1505.586, 62.630
1506.763, 322.656
1507.940, 192.924
1509.117, 6.503
1510.294, 264.391
1511.470, 13.924
1512.647, 125.361
1513.823, 253.039
1514.999, 143.746
1516.174, 175.760
1517.350, 227.073
1518.526, 39.138
1519.701, 277.525
1520.876, 124.769
1522.051, 0.627
1523.226, 0.000
##END=



