##NAMES=Bustamite
##RRUFFID=R040014
##IDEAL CHEMISTRY=CaMn^2+^Si_2_O_6_
##LOCALITY=Broken Hill, New South Wales, Australia
##OWNER=RRUFF
##SOURCE=University of Arizona Mineral Museum
##DESCRIPTION=Orange fragment
##STATUS=The identification of this mineral has been confirmed by X-ray diffraction and chemical analysis
##URL=rruff.info/R040014
##MEASURED CHEMISTRY=(Ca_0.90_Mn_0.10_)_Σ=1_(Mn^2+^_0.78_Fe^2+^_0.19_Fe^3+^_0.02_Mg_0.01_)_Σ=1_(Si_1.98_Fe^3+^_0.02_)_Σ=2_O_6_
##PIN_ID=L00268
##ORIENTATION=Laser parallel to -a* (-1 0 0). Fiducial mark perpendicular to laser is parallel to b [0 1 0]
51.904, 0.000
53.306, 34.538
54.708, 0.080
56.110, 181.322
57.511, 90.779
58.913, 82.142
60.314, 37.488
61.715, 158.905
63.116, 240.347
64.516, 161.494
65.916, 155.260
67.316, 249.845
68.716, 211.105
70.116, 177.523
71.515, 211.466
72.914, 171.473
74.313, 167.781
75.712, 131.379
77.110, 90.623
78.508, 66.384
79.906, 2.242
81.304, 3.361
82.701, 42.869
84.099, 41.381
85.496, 0.420
86.892, 12.175
88.289, 71.412
89.685, 127.175
91.081, 214.108
92.477, 322.132
93.873, 390.467
95.268, 554.887
96.663, 737.460
98.058, 857.180
99.453, 1127.036
100.848, 1328.017
102.242, 1427.110
103.636, 1581.302
105.030, 1638.589
106.423, 1759.969
107.817, 1806.438
109.210, 1758.994
110.603, 1727.636
111.996, 1638.362
113.388, 1632.169
114.780, 1456.057
116.172, 1458.024
117.564, 1415.073
118.956, 1567.206
120.347, 1745.198
121.738, 1917.725
123.129, 2341.108
124.519, 2860.575
125.910, 3329.128
127.300, 3961.765
128.690, 4384.482
130.080, 5022.280
131.469, 5688.154
132.858, 6311.101
134.248, 6867.123
135.636, 7135.237
137.025, 7089.466
138.413, 6862.777
139.801, 6181.152
141.189, 5468.578
142.577, 4851.043
143.964, 4246.532
145.352, 3809.024
146.739, 3438.525
148.125, 3244.032
149.512, 3061.524
150.898, 3002.963
152.284, 3004.326
153.670, 3040.676
155.056, 2975.054
156.441, 3000.469
157.827, 2750.920
159.212, 2604.408
160.596, 2247.935
161.981, 1783.498
163.365, 1469.100
164.749, 1198.739
166.133, 1046.416
167.517, 886.130
168.900, 773.883
170.283, 785.673
171.666, 804.500
173.049, 885.365
174.431, 903.267
175.813, 922.206
177.195, 885.181
178.577, 814.193
179.959, 640.243
181.340, 591.405
182.721, 507.678
184.102, 393.031
185.483, 362.460
186.863, 299.931
188.244, 280.433
189.624, 272.964
191.003, 264.528
192.383, 259.143
193.762, 205.823
195.141, 176.580
196.520, 171.136
197.899, 173.372
199.277, 163.335
200.656, 144.322
202.034, 150.331
203.411, 120.362
204.789, 143.416
206.166, 119.491
207.543, 132.588
208.920, 130.707
210.297, 177.847
211.673, 164.014
213.049, 173.215
214.425, 195.477
215.801, 193.786
217.176, 262.127
218.552, 238.924
219.927, 332.738
221.302, 362.856
222.676, 469.115
224.051, 571.103
225.425, 636.787
226.799, 749.857
228.173, 901.250
229.546, 961.490
230.919, 1155.510
232.292, 1256.198
233.665, 1432.775
235.038, 1533.822
236.410, 1644.651
237.782, 1731.695
239.154, 1880.654
240.526, 2034.676
241.898, 2137.622
243.269, 2341.346
244.640, 2589.964
246.011, 2563.066
247.381, 2764.738
248.752, 2655.749
250.122, 2649.072
251.492, 2486.231
252.861, 2347.806
254.231, 1996.090
255.600, 1805.670
256.969, 1622.536
258.338, 1429.433
259.707, 1283.361
261.075, 1172.319
262.443, 963.307
263.811, 833.323
265.179, 796.367
266.546, 734.439
267.914, 681.539
269.281, 647.664
270.647, 574.815
272.014, 614.992
273.380, 551.195
274.747, 588.422
276.113, 607.674
277.478, 576.950
278.844, 621.250
280.209, 668.573
281.574, 679.919
282.939, 749.288
284.304, 760.679
285.668, 832.092
287.032, 822.526
288.396, 868.982
289.760, 877.458
291.123, 918.954
292.487, 970.470
293.850, 954.005
295.212, 1078.561
296.575, 1146.134
297.937, 1226.727
299.300, 1396.337
300.662, 1563.965
302.023, 1847.610
303.385, 2058.273
304.746, 2535.049
306.107, 2917.827
307.468, 3455.881
308.829, 4236.515
310.189, 5073.096
311.549, 6020.013
312.909, 6807.250
314.269, 7661.254
315.629, 8100.090
316.988, 8198.396
318.347, 7615.436
319.706, 6769.347
321.065, 5541.342
322.423, 4567.295
323.781, 3829.192
325.139, 3054.269
326.497, 2658.372
327.855, 2396.313
329.212, 2290.479
330.569, 2183.425
331.926, 2139.628
333.283, 2214.049
334.639, 2189.932
335.995, 2159.396
337.351, 2092.340
338.707, 1870.485
340.063, 1706.651
341.418, 1541.344
342.773, 1408.752
344.128, 1197.928
345.483, 1127.035
346.837, 963.149
348.192, 846.272
349.546, 747.405
350.899, 667.547
352.253, 579.128
353.606, 515.856
354.960, 444.024
356.313, 380.200
357.665, 341.383
359.018, 278.574
360.370, 198.772
361.722, 180.976
363.074, 185.186
364.426, 112.403
365.777, 117.862
367.128, 73.404
368.479, 77.735
369.830, 91.317
371.181, 71.814
372.531, 103.221
373.881, 25.729
375.231, 58.948
376.581, 40.263
377.930, 80.762
379.280, 81.476
380.629, 142.091
381.977, 88.031
383.326, 177.761
384.674, 178.225
386.023, 258.208
387.370, 302.434
388.718, 338.004
390.066, 488.446
391.413, 502.016
392.760, 622.422
394.107, 851.750
395.454, 1096.057
396.800, 1343.354
398.146, 1768.660
399.492, 2268.974
400.838, 2902.298
402.184, 3508.629
403.529, 4126.969
404.874, 4554.317
406.219, 4774.673
407.564, 4644.041
408.908, 4135.425
410.252, 3551.823
411.596, 2926.247
412.940, 2377.694
414.284, 1957.153
415.627, 1480.626
416.970, 1158.107
418.313, 918.594
419.656, 726.083
420.999, 608.580
422.341, 462.079
423.683, 386.419
425.025, 332.089
426.367, 300.609
427.708, 244.135
429.049, 257.673
430.390, 169.225
431.731, 216.779
433.072, 182.338
434.412, 160.903
435.752, 211.470
437.092, 137.049
438.432, 195.635
439.772, 214.228
441.111, 185.826
442.450, 260.427
443.789, 212.031
445.127, 157.640
446.466, 120.252
447.804, 114.864
449.142, 104.484
450.480, 119.112
451.817, 103.318
453.155, 109.279
454.492, 96.025
455.829, 108.668
457.166, 129.313
458.502, 120.973
459.838, 138.632
461.175, 163.289
462.510, 81.970
463.846, 79.647
465.181, 10.334
466.517, 15.019
467.852, 77.292
469.186, 85.643
470.521, 68.036
471.855, 23.467
473.190, 44.913
474.523, 40.383
475.857, 36.879
477.191, 27.395
478.524, 1.076
479.857, 32.548
481.190, 17.025
482.523, 31.509
483.855, 80.987
485.187, 11.471
486.519, 9.949
487.851, 65.419
489.183, 3.884
490.514, 61.660
491.845, 3.756
493.176, 35.838
494.507, 42.458
495.837, 19.110
497.168, 89.782
498.498, 44.505
499.828, 12.251
501.157, 20.006
502.487, 3.217
503.816, 45.427
505.145, 65.630
506.474, 103.338
507.802, 145.104
509.131, 183.229
510.459, 235.413
511.787, 262.854
513.115, 349.769
514.442, 314.934
515.770, 314.090
517.097, 320.237
518.424, 256.375
519.750, 165.503
521.077, 193.622
522.403, 95.731
523.729, 107.830
525.055, 23.920
526.381, 12.997
527.706, 59.061
529.031, 13.113
530.356, 19.849
531.681, 33.842
533.006, 25.126
534.330, 13.919
535.654, 14.993
536.978, 32.903
538.302, 13.786
539.625, 34.347
540.949, 9.479
542.272, 3.714
543.595, 45.067
544.917, 9.951
546.240, 5.700
547.562, 23.428
548.884, 55.170
550.206, 25.869
551.527, 66.581
552.849, 87.335
554.170, 94.173
555.491, 122.638
556.812, 128.270
558.132, 142.889
559.453, 153.495
560.773, 240.088
562.093, 184.668
563.412, 295.235
564.732, 364.806
566.051, 489.458
567.370, 558.084
568.689, 737.664
570.008, 888.286
571.326, 1180.919
572.644, 1301.686
573.963, 1543.140
575.280, 1692.792
576.598, 1789.389
577.915, 1661.799
579.233, 1560.929
580.550, 1473.346
581.866, 1117.812
583.183, 994.446
584.499, 889.294
585.815, 730.403
587.131, 630.801
588.447, 541.980
589.763, 444.534
591.078, 426.437
592.393, 419.657
593.708, 346.070
595.022, 341.904
596.337, 385.456
597.651, 394.043
598.965, 417.355
600.279, 410.055
601.593, 410.672
602.906, 454.164
604.219, 456.752
605.532, 472.233
606.845, 469.229
608.158, 501.834
609.470, 513.777
610.782, 570.656
612.094, 603.525
613.406, 651.739
614.718, 680.704
616.029, 779.481
617.340, 869.647
618.651, 921.851
619.962, 952.672
621.272, 1157.705
622.582, 1236.126
623.892, 1444.376
625.202, 1559.018
626.512, 1712.737
627.821, 1985.423
629.131, 2349.611
630.440, 2794.356
631.749, 3433.897
633.057, 3980.464
634.366, 4910.471
635.674, 5918.024
636.982, 7678.360
638.290, 9456.162
639.597, 11634.537
640.905, 14670.286
642.212, 17908.420
643.519, 20233.980
644.825, 22309.303
646.132, 21984.967
647.438, 19980.264
648.744, 17201.896
650.050, 14047.156
651.356, 11310.568
652.662, 8993.311
653.967, 7537.383
655.272, 5885.527
656.577, 4961.377
657.882, 4080.854
659.186, 3388.488
660.490, 2858.554
661.794, 2391.776
663.098, 1985.992
664.402, 1776.376
665.705, 1508.532
667.009, 1346.668
668.312, 1177.649
669.614, 997.775
670.917, 960.852
672.219, 802.036
673.522, 758.072
674.824, 656.259
676.125, 635.256
677.427, 539.338
678.728, 549.295
680.030, 467.363
681.331, 453.281
682.631, 413.983
683.932, 423.546
685.232, 385.812
686.532, 346.802
687.832, 346.451
689.132, 311.092
690.432, 331.617
691.731, 307.417
693.030, 281.105
694.329, 282.595
695.628, 175.855
696.926, 222.197
698.224, 164.190
699.522, 177.371
700.820, 97.807
702.118, 143.699
703.415, 136.330
704.713, 116.600
706.010, 180.986
707.307, 116.229
708.603, 102.620
709.900, 144.076
711.196, 177.540
712.492, 217.002
713.788, 236.447
715.083, 206.874
716.379, 177.282
717.674, 153.674
718.969, 126.047
720.264, 114.751
721.558, 91.741
722.853, 94.061
724.147, 101.363
725.441, 87.646
726.735, 80.912
728.028, 45.159
729.322, 143.387
730.615, 64.598
731.908, 73.789
733.201, 164.963
734.493, 15.120
735.785, 104.253
737.078, 88.370
738.370, 44.469
739.661, 17.450
740.953, 11.592
742.244, 11.390
743.535, 24.406
744.826, 41.536
746.117, 13.460
747.407, 5.363
748.698, 61.240
749.988, 21.899
751.278, 2.078
752.567, 3.284
753.857, 0.481
755.146, 12.221
756.435, 13.779
757.724, 4.361
759.013, 12.311
760.301, 14.962
761.590, 14.404
762.878, 12.802
764.165, 10.990
765.453, 1.310
766.741, 15.172
768.028, 33.315
769.315, 2.214
770.602, 47.766
771.888, 28.634
773.175, 14.019
774.461, 82.613
775.747, 43.691
777.033, 30.021
778.319, 2.232
779.604, 20.534
780.889, 13.670
782.174, 4.122
783.459, 10.086
784.744, 34.297
786.028, 4.499
787.312, 51.696
788.596, 0.891
789.880, 15.921
791.164, 24.751
792.447, 30.610
793.730, 41.641
795.013, 8.571
796.296, 37.371
797.579, 18.654
798.861, 67.665
800.143, 21.666
801.425, 54.529
802.707, 22.633
803.989, 48.617
805.270, 5.410
806.551, 3.560
807.832, 23.530
809.113, 28.506
810.394, 43.541
811.674, 38.597
812.954, 64.322
814.234, 23.240
815.514, 38.148
816.794, 51.953
818.073, 7.909
819.352, 56.760
820.631, 65.603
821.910, 35.564
823.189, 46.243
824.467, 68.041
825.745, 20.831
827.023, 97.611
828.301, 8.382
829.578, 81.144
830.856, 21.898
832.133, 109.644
833.410, 13.381
834.687, 66.109
835.963, 32.830
837.240, 61.543
838.516, 56.252
839.792, 75.954
841.068, 18.650
842.343, 106.349
843.618, 107.055
844.894, 41.755
846.169, 74.458
847.443, 57.595
848.718, 55.870
849.992, 74.573
851.266, 30.283
852.540, 55.992
853.814, 26.702
855.088, 96.292
856.361, 158.996
857.634, 138.699
858.907, 126.370
860.180, 127.065
861.453, 148.729
862.725, 208.333
863.997, 144.016
865.269, 179.695
866.541, 104.369
867.812, 151.039
869.084, 192.719
870.355, 211.393
871.626, 177.066
872.897, 217.751
874.167, 131.413
875.438, 257.992
876.708, 204.580
877.978, 365.199
879.248, 397.763
880.517, 324.302
881.787, 530.691
883.056, 455.379
884.325, 617.854
885.594, 711.374
886.862, 740.075
888.130, 848.042
889.399, 897.736
890.667, 982.365
891.934, 992.811
893.202, 948.035
894.469, 958.982
895.737, 906.843
897.004, 842.488
898.270, 782.964
899.537, 746.092
900.803, 693.869
902.070, 577.476
903.336, 609.626
904.601, 524.048
905.867, 479.417
907.132, 503.062
908.398, 455.300
909.663, 450.620
910.928, 522.047
912.192, 435.362
913.457, 425.783
914.721, 517.672
915.985, 489.697
917.249, 522.862
918.512, 533.705
919.776, 488.788
921.039, 539.385
922.302, 529.218
923.565, 549.222
924.827, 556.819
926.090, 560.363
927.352, 613.272
928.614, 660.954
929.876, 627.231
931.138, 766.566
932.399, 721.519
933.660, 805.117
934.922, 794.167
936.182, 761.767
937.443, 857.475
938.704, 873.066
939.964, 906.863
941.224, 854.388
942.484, 912.898
943.744, 936.888
945.003, 918.544
946.262, 1048.544
947.521, 1046.212
948.780, 1131.552
950.039, 1261.280
951.298, 1397.223
952.556, 1520.982
953.814, 1799.888
955.072, 2011.670
956.330, 2390.571
957.587, 2644.100
958.845, 3303.832
960.102, 3902.658
961.359, 4723.928
962.615, 5782.290
963.872, 7332.997
965.128, 9086.021
966.384, 11928.892
967.640, 15171.837
968.896, 20151.852
970.152, 26284.695
971.407, 31627.742
972.662, 37480.793
973.917, 38951.992
975.172, 36945.035
976.427, 32448.105
977.681, 26241.057
978.935, 21224.145
980.189, 16867.064
981.443, 13250.160
982.697, 10853.158
983.950, 9166.267
985.203, 7609.250
986.456, 6982.371
987.709, 5925.458
988.962, 5568.590
990.214, 5161.731
991.467, 4694.879
992.719, 4627.951
993.971, 4346.111
995.222, 4257.276
996.474, 4179.451
997.725, 4092.629
998.976, 4150.953
1000.227, 4057.144
1001.478, 4196.342
1002.728, 4397.758
1003.978, 4442.967
1005.229, 4461.252
1006.479, 4390.577
1007.728, 4209.802
1008.978, 4201.257
1010.227, 3736.494
1011.476, 3658.756
1012.725, 3425.003
1013.974, 3227.346
1015.223, 3335.760
1016.471, 3132.115
1017.719, 3230.392
1018.967, 3181.693
1020.215, 3272.979
1021.462, 3444.761
1022.710, 3570.551
1023.957, 3961.851
1025.204, 4074.469
1026.451, 4172.232
1027.697, 4242.789
1028.944, 4106.107
1030.190, 4097.287
1031.436, 4385.945
1032.682, 4658.119
1033.928, 5421.985
1035.173, 6386.620
1036.418, 7262.922
1037.663, 8256.774
1038.908, 8548.064
1040.153, 8371.810
1041.398, 7855.419
1042.642, 6821.253
1043.886, 5724.887
1045.130, 4768.485
1046.374, 3864.639
1047.617, 3143.500
1048.860, 2606.448
1050.104, 2281.242
1051.347, 1935.451
1052.589, 1663.295
1053.832, 1563.840
1055.074, 1327.738
1056.316, 1181.094
1057.558, 1028.583
1058.800, 964.547
1060.042, 875.375
1061.283, 816.262
1062.524, 743.404
1063.765, 731.277
1065.006, 632.812
1066.247, 634.783
1067.487, 610.511
1068.728, 459.340
1069.968, 570.317
1071.208, 515.450
1072.447, 543.234
1073.687, 489.000
1074.926, 477.765
1076.165, 536.506
1077.404, 558.360
1078.643, 455.618
1079.881, 501.639
1081.120, 524.173
1082.358, 519.454
1083.596, 415.905
1084.834, 440.068
1086.071, 413.149
1087.309, 384.027
1088.546, 426.064
1089.783, 336.891
1091.020, 377.816
1092.256, 367.104
1093.493, 310.519
1094.729, 334.705
1095.965, 315.753
1097.201, 298.457
1098.436, 280.455
1099.672, 327.378
1100.907, 140.081
1102.142, 246.778
1103.377, 250.729
1104.612, 109.748
1105.846, 246.664
1107.081, 290.707
1108.315, 237.873
1109.549, 222.793
1110.782, 173.575
1112.016, 158.267
1113.249, 152.963
1114.483, 167.816
1115.716, 151.475
1116.948, 124.588
1118.181, 157.336
1119.413, 214.359
1120.646, 267.040
1121.878, 255.569
1123.110, 264.210
1124.341, 215.447
1125.573, 211.319
1126.804, 165.990
1128.035, 118.827
1129.266, 225.485
1130.497, 106.136
1131.727, 147.382
1132.957, 143.017
1134.188, 64.853
1135.418, 227.688
1136.647, 137.298
1137.877, 55.807
1139.106, 149.729
1140.335, 58.449
1141.564, 130.138
1142.793, 99.870
1144.022, 58.884
1145.250, 141.871
1146.479, 26.466
1147.707, 135.051
1148.934, 87.146
1150.162, 11.753
1151.390, 124.651
1152.617, 47.121
1153.844, 41.611
1155.071, 137.235
1156.298, 15.669
1157.524, 160.556
1158.751, 67.049
1159.977, 90.443
1161.203, 55.630
1162.428, 41.452
1163.654, 57.804
1164.879, 84.705
1166.105, 49.733
1167.330, 122.549
1168.555, 3.926
1169.779, 55.677
1171.004, 129.673
1172.228, 51.726
1173.452, 1.554
1174.676, 31.669
1175.900, 13.102
1177.123, 10.020
1178.346, 14.073
1179.570, 8.888
1180.793, 1.874
1182.015, 15.536
1183.238, 41.573
1184.460, 0.280
1185.683, 119.857
1186.905, 9.021
1188.126, 43.726
1189.348, 31.363
1190.569, 44.568
1191.791, 57.887
1193.012, 82.138
1194.233, 6.140
1195.453, 61.764
1196.674, 23.779
1197.894, 0.764
1199.114, 19.017
1200.334, 5.070
1201.554, 18.474
1202.774, 47.731
1203.993, 131.180
1205.212, 40.454
1206.431, 45.102
1207.650, 33.649
1208.869, 42.026
1210.087, 39.315
1211.305, 15.468
1212.524, 23.663
1213.741, 84.866
1214.959, 62.283
1216.177, 29.341
1217.394, 11.707
1218.611, 78.389
1219.828, 87.630
1221.045, 89.135
1222.261, 95.295
1223.478, 82.454
1224.694, 17.023
1225.910, 133.970
1227.126, 18.032
1228.342, 124.848
1229.557, 198.367
1230.772, 101.134
1231.987, 102.203
1233.202, 127.150
1234.417, 122.386
1235.631, 186.224
1236.846, 119.187
1238.060, 75.976
1239.274, 198.537
1240.488, 50.596
1241.701, 82.258
1242.915, 207.887
1244.128, 96.547
1245.341, 114.265
1246.554, 194.701
1247.767, 202.145
1248.979, 106.669
1250.191, 90.875
1251.403, 118.030
1252.615, 87.504
1253.827, 60.743
1255.039, 116.641
1256.250, 150.904
1257.461, 187.697
1258.672, 336.917
1259.883, 137.112
1261.094, 81.376
1262.304, 238.661
1263.514, 165.508
1264.724, 98.806
1265.934, 246.989
1267.144, 95.029
1268.354, 294.792
1269.563, 218.787
1270.772, 138.589
1271.981, 289.763
1273.190, 144.673
1274.398, 229.406
1275.607, 290.263
1276.815, 61.215
1278.023, 260.285
1279.231, 139.064
1280.439, 137.961
1281.646, 391.982
1282.853, 40.686
1284.060, 112.898
1285.267, 159.544
1286.474, 165.158
1287.681, 155.064
1288.887, 85.613
1290.093, 90.133
1291.299, 165.613
1292.505, 197.907
1293.711, 70.309
1294.916, 168.676
1296.121, 96.804
1297.327, 268.112
1298.531, 189.312
1299.736, 154.458
1300.941, 216.677
1302.145, 87.643
1303.349, 177.772
1304.553, 291.843
1305.757, 17.868
1306.961, 90.753
1308.164, 262.533
1309.367, 78.345
1310.570, 143.167
1311.773, 285.938
1312.976, 136.701
1314.178, 201.941
1315.381, 160.150
1316.583, 96.817
1317.785, 186.125
1318.987, 169.256
1320.188, 163.564
1321.390, 199.085
1322.591, 183.708
1323.792, 233.817
1324.993, 237.372
1326.193, 109.180
1327.394, 265.177
1328.594, 99.469
1329.794, 73.181
1330.994, 165.425
1332.194, 33.179
1333.394, 148.029
1334.593, 131.624
1335.792, 9.381
1336.991, 111.144
1338.190, 45.328
1339.389, 63.783
1340.587, 235.118
1341.786, 1.425
1342.984, 100.587
1344.182, 65.930
1345.379, 20.449
1346.577, 77.792
1347.774, 49.549
1348.972, 16.145
1350.169, 98.234
1351.365, 94.429
1352.562, 141.537
1353.759, 123.298
1354.955, 11.358
1356.151, 169.733
1357.347, 8.650
1358.543, 75.787
1359.738, 163.796
1360.934, 75.636
1362.129, 29.292
1363.324, 92.272
1364.519, 41.262
1365.713, 99.227
1366.908, 43.810
1368.102, 3.002
1369.296, 130.391
1370.490, 42.653
1371.684, 6.645
1372.877, 20.473
1374.071, 9.625
1375.264, 1.038
1376.457, 84.680
1377.650, 33.877
1378.843, 98.586
1380.035, 62.282
1381.227, 60.310
1382.419, 169.947
1383.611, 40.677
1384.803, 112.910
1385.995, 116.172
1387.186, 104.350
1388.377, 85.163
1389.568, 206.619
1390.759, 140.549
1391.950, 116.791
1393.140, 17.373
1394.331, 5.546
1395.521, 175.177
1396.711, 129.803
1397.900, 32.551
1399.090, 194.271
1400.279, 38.138
1401.469, 166.257
1402.658, 163.526
1403.847, 7.169
1405.035, 112.272
1406.224, 23.544
1407.412, 97.004
1408.600, 118.355
1409.788, 9.947
1410.976, 21.160
1412.164, 191.941
1413.351, 16.663
1414.538, 88.829
1415.725, 169.082
1416.912, 14.496
1418.099, 177.310
1419.285, 112.071
1420.472, 76.415
1421.658, 325.352
1422.844, 105.264
1424.030, 69.282
1425.215, 226.833
1426.401, 34.339
1427.586, 162.553
1428.771, 188.081
1429.956, 0.568
1431.141, 276.066
1432.325, 209.406
1433.510, 154.009
1434.694, 300.396
1435.878, 179.912
1437.062, 159.823
1438.245, 385.241
1439.429, 238.263
1440.612, 223.413
1441.795, 504.834
1442.978, 301.045
1444.161, 415.562
1445.343, 440.337
1446.526, 255.862
1447.708, 458.741
1448.890, 295.044
1450.072, 411.435
1451.253, 480.370
1452.435, 389.644
1453.616, 369.794
1454.797, 502.349
1455.978, 385.454
1457.159, 515.349
1458.340, 460.117
1459.520, 386.849
1460.700, 528.889
1461.880, 317.094
1463.060, 329.475
1464.240, 486.807
1465.420, 265.699
1466.599, 444.964
1467.778, 339.822
1468.957, 294.696
1470.136, 376.971
1471.315, 268.046
1472.493, 177.583
1473.671, 421.465
1474.849, 297.849
1476.027, 264.670
1477.205, 335.309
1478.383, 130.863
1479.560, 363.450
1480.737, 276.928
1481.914, 199.290
1483.091, 351.500
1484.268, 166.672
1485.444, 171.006
1486.621, 238.520
1487.797, 224.125
1488.973, 121.783
1490.149, 183.306
1491.324, 102.807
1492.500, 117.303
1493.675, 296.726
1494.850, 18.785
1496.025, 175.021
1497.200, 211.933
1498.374, 99.874
1499.548, 166.917
1500.723, 212.221
1501.897, 90.599
1503.071, 250.092
1504.244, 53.736
1505.418, 133.522
1506.591, 271.463
1507.764, 35.611
1508.937, 102.269
1510.110, 313.034
1511.282, 76.925
1512.455, 96.906
1513.627, 190.936
1514.799, 30.931
1515.971, 149.656
1517.143, 92.670
1518.314, 2.458
1519.486, 276.024
1520.657, 55.812
1521.828, 0.000
##END=



