##NAMES=Bustamite
##RRUFFID=R040014
##IDEAL CHEMISTRY=CaMn^2+^Si_2_O_6_
##LOCALITY=Broken Hill, New South Wales, Australia
##OWNER=RRUFF
##SOURCE=University of Arizona Mineral Museum
##DESCRIPTION=Orange fragment
##STATUS=The identification of this mineral has been confirmed by X-ray diffraction and chemical analysis
##URL=rruff.info/R040014
##MEASURED CHEMISTRY=(Ca_0.90_Mn_0.10_)_Σ=1_(Mn^2+^_0.78_Fe^2+^_0.19_Fe^3+^_0.02_Mg_0.01_)_Σ=1_(Si_1.98_Fe^3+^_0.02_)_Σ=2_O_6_
##PIN_ID=M00115
##ORIENTATION=Laser parallel to (-1 -1 0). Fiducial mark perpendicular to laser is parallel to c [0 0 1]
116.339, 0.000
117.729, 4.065
119.119, 110.704
120.508, 594.631
121.897, 1441.242
123.286, 2366.242
124.675, 2857.361
126.063, 3083.983
127.452, 2674.448
128.840, 1997.410
130.228, 1419.905
131.615, 922.330
133.003, 784.367
134.390, 535.864
135.777, 390.183
137.164, 299.996
138.550, 231.519
139.937, 149.031
141.323, 128.124
142.709, 76.896
144.094, 91.835
145.480, 138.668
146.865, 158.107
148.250, 271.771
149.635, 390.886
151.019, 412.711
152.403, 585.506
153.788, 539.810
155.171, 524.892
156.555, 418.241
157.939, 327.913
159.322, 287.775
160.705, 221.594
162.088, 215.021
163.470, 192.479
164.853, 228.040
166.235, 268.154
167.617, 308.820
168.998, 347.468
170.380, 430.554
171.761, 451.735
173.142, 433.637
174.523, 353.831
175.904, 330.340
177.284, 266.403
178.664, 159.868
180.044, 101.239
181.424, 56.604
182.803, 26.743
184.183, 51.077
185.562, 22.631
186.940, 96.190
188.319, 145.673
189.698, 152.563
191.076, 175.538
192.454, 194.619
193.831, 226.150
195.209, 173.934
196.586, 161.475
197.963, 131.008
199.340, 77.601
200.717, 41.456
202.093, 15.435
203.470, 4.090
204.846, 59.529
206.221, 42.775
207.597, 58.849
208.972, 100.773
210.347, 32.565
211.722, 82.247
213.097, 69.841
214.472, 40.362
215.846, 81.826
217.220, 62.253
218.594, 35.653
219.967, 18.036
221.341, 8.582
222.714, 3.173
224.087, 5.714
225.460, 44.197
226.832, 111.631
228.204, 91.019
229.577, 139.353
230.948, 196.612
232.320, 172.759
233.692, 276.780
235.063, 286.702
236.434, 358.553
237.805, 400.342
239.175, 442.073
240.545, 455.740
241.916, 478.311
243.286, 515.047
244.655, 479.317
246.025, 484.422
247.394, 429.366
248.763, 369.149
250.132, 313.783
251.501, 251.371
252.869, 224.422
254.237, 192.497
255.605, 183.025
256.973, 203.538
258.340, 202.038
259.708, 162.533
261.075, 135.029
262.442, 166.524
263.808, 182.016
265.175, 178.504
266.541, 207.980
267.907, 224.438
269.273, 268.876
270.639, 315.295
272.004, 371.693
273.369, 425.072
274.734, 525.435
276.099, 593.788
277.463, 585.137
278.828, 690.486
280.192, 623.835
281.556, 631.661
282.919, 636.448
284.283, 596.395
285.646, 592.293
287.009, 552.090
288.372, 591.749
289.734, 536.244
291.097, 523.558
292.459, 528.680
293.821, 460.595
295.183, 479.281
296.544, 523.747
297.905, 575.984
299.266, 619.986
300.627, 665.761
301.988, 717.320
303.348, 825.641
304.709, 971.687
306.069, 1164.446
307.428, 1368.853
308.788, 1579.996
310.147, 1876.017
311.507, 2155.813
312.865, 2413.343
314.224, 2681.562
315.583, 2848.491
316.941, 2918.219
318.299, 2846.777
319.657, 2587.191
321.015, 2393.458
322.372, 2119.571
323.729, 1926.352
325.086, 1797.428
326.443, 1755.010
327.800, 1703.011
329.156, 1754.673
330.512, 1905.095
331.868, 1944.347
333.224, 2021.578
334.579, 2010.197
335.935, 1935.938
337.290, 1864.509
338.645, 1712.917
339.999, 1612.207
341.354, 1418.249
342.708, 1276.455
344.062, 1134.000
345.416, 959.704
346.769, 956.208
348.123, 790.651
349.476, 768.964
350.829, 651.054
352.182, 573.763
353.534, 526.519
354.887, 491.492
356.239, 473.609
357.591, 452.184
358.942, 409.213
360.294, 431.349
361.645, 392.411
362.996, 350.693
364.347, 362.558
365.698, 332.932
367.048, 289.037
368.398, 298.891
369.748, 344.418
371.098, 308.843
372.448, 347.220
373.797, 361.940
375.146, 363.968
376.495, 409.466
377.844, 409.831
379.192, 476.493
380.540, 469.570
381.889, 543.418
383.236, 609.057
384.584, 716.473
385.932, 844.745
387.279, 920.680
388.626, 1068.319
389.973, 1253.795
391.319, 1584.964
392.666, 1872.522
394.012, 2300.304
395.358, 2941.718
396.704, 3642.801
398.049, 4629.667
399.394, 5901.847
400.740, 7141.283
402.084, 8517.964
403.429, 9917.440
404.774, 10806.781
406.118, 11206.119
407.462, 10725.446
408.806, 9944.770
410.150, 8664.046
411.493, 7353.075
412.836, 6033.882
414.179, 4901.433
415.522, 4060.877
416.865, 3156.193
418.207, 2610.478
419.549, 2145.854
420.891, 1806.230
422.233, 1492.447
423.575, 1230.514
424.916, 1035.761
426.257, 839.077
427.598, 773.386
428.939, 602.823
430.279, 589.335
431.619, 499.040
432.959, 411.945
434.299, 417.092
435.639, 341.351
436.978, 368.609
438.318, 321.871
439.657, 280.136
440.996, 307.404
442.334, 289.670
443.673, 279.897
445.011, 258.091
446.349, 230.259
447.687, 249.388
449.024, 249.483
450.361, 261.540
451.699, 250.572
453.036, 266.575
454.372, 302.543
455.709, 260.481
457.045, 393.385
458.381, 418.257
459.717, 427.104
461.053, 418.927
462.388, 381.721
463.724, 364.496
465.059, 265.247
466.394, 270.979
467.728, 238.692
469.063, 231.390
470.397, 236.072
471.731, 168.730
473.065, 249.373
474.398, 297.996
475.732, 352.608
477.065, 483.201
478.398, 614.775
479.731, 848.333
481.063, 1002.875
482.396, 1121.401
483.728, 1127.917
485.060, 959.422
486.391, 844.921
487.723, 611.413
489.054, 488.898
490.385, 352.377
491.716, 280.866
493.047, 198.353
494.377, 103.846
495.708, 79.339
497.038, 90.826
498.368, 44.308
499.697, 45.787
501.027, 40.266
502.356, 31.746
503.685, 18.223
505.014, 23.701
506.342, 104.184
507.671, 72.677
508.999, 154.176
510.327, 145.688
511.655, 131.203
512.982, 143.721
514.310, 126.240
515.637, 137.760
516.964, 86.279
518.291, 115.795
519.617, 69.311
520.944, 29.825
522.270, 67.339
523.596, 16.854
524.921, 15.372
526.247, 23.904
527.572, 2.709
528.897, 19.226
530.222, 53.646
531.547, 28.065
532.871, 28.459
534.196, 35.846
535.520, 4.218
536.844, 3.566
538.167, 5.103
539.491, 4.198
540.814, 47.479
542.137, 41.762
543.460, 76.052
544.783, 61.380
546.105, 16.713
547.427, 32.056
548.749, 10.411
550.071, 6.773
551.393, 6.141
552.714, 0.485
554.035, 50.103
555.356, 1.718
556.677, 61.325
557.998, 56.926
559.318, 36.521
560.638, 19.106
561.958, 74.682
563.278, 107.250
564.597, 136.812
565.917, 156.366
567.236, 226.913
568.555, 227.453
569.874, 274.987
571.192, 302.514
572.511, 291.036
573.829, 363.555
575.147, 417.071
576.464, 384.583
577.782, 413.092
579.099, 327.598
580.416, 316.107
581.733, 248.606
583.050, 263.112
584.366, 264.607
585.683, 155.098
586.999, 208.675
588.315, 183.189
589.630, 236.669
590.946, 213.230
592.261, 200.797
593.576, 228.292
594.891, 253.388
596.206, 257.148
597.520, 315.972
598.834, 274.575
600.148, 335.231
601.462, 334.689
602.776, 351.926
604.089, 360.388
605.402, 402.781
606.715, 483.242
608.028, 461.662
609.341, 559.758
610.653, 570.996
611.965, 633.485
613.277, 721.157
614.589, 787.665
615.901, 823.097
617.212, 939.318
618.523, 1017.192
619.834, 1190.986
621.145, 1285.719
622.456, 1499.137
623.766, 1622.358
625.076, 1871.354
626.386, 2171.006
627.696, 2532.938
629.006, 3104.389
630.315, 3678.085
631.624, 4407.695
632.933, 5434.994
634.242, 6541.313
635.551, 8328.590
636.859, 10366.858
638.167, 12975.631
639.475, 16233.902
640.783, 20123.195
642.090, 23472.266
643.398, 26841.686
644.705, 28220.223
646.012, 27728.447
647.318, 25176.611
648.625, 21808.184
649.931, 18196.854
651.237, 14576.934
652.543, 12106.642
653.849, 9704.521
655.155, 8052.608
656.460, 6600.365
657.765, 5389.226
659.070, 4652.104
660.375, 3834.738
661.679, 3269.312
662.984, 2873.906
664.288, 2423.833
665.592, 2224.624
666.895, 1927.673
668.199, 1709.714
669.502, 1532.739
670.805, 1386.764
672.108, 1216.760
673.411, 1194.770
674.713, 1132.590
676.016, 1029.531
677.318, 1002.272
678.620, 1007.845
679.921, 976.570
681.223, 1047.080
682.524, 1119.579
683.825, 1165.109
685.126, 1233.455
686.427, 1312.223
687.727, 1320.123
689.028, 1288.395
690.328, 1228.801
691.628, 1127.732
692.927, 982.001
694.227, 842.281
695.526, 707.689
696.825, 603.936
698.124, 483.104
699.423, 418.611
700.721, 353.953
702.020, 281.202
703.318, 196.939
704.616, 228.944
705.913, 150.919
707.211, 230.020
708.508, 157.135
709.805, 122.436
711.102, 173.967
712.399, 178.281
713.695, 147.849
714.992, 134.393
716.288, 143.075
717.584, 137.428
718.879, 160.827
720.175, 159.549
721.470, 170.263
722.765, 187.970
724.060, 200.670
725.355, 156.363
726.649, 117.048
727.944, 134.726
729.238, 98.398
730.532, 88.062
731.825, 120.719
733.119, 114.369
734.412, 119.012
735.705, 54.649
736.998, 69.279
738.291, 52.901
739.584, 58.518
740.876, 57.748
742.168, 31.729
743.460, 45.325
744.752, 57.913
746.043, 30.495
747.334, 27.070
748.626, 5.363
749.916, 1.189
751.207, 10.385
752.498, 11.752
753.788, 8.250
755.078, 10.234
756.368, 35.710
757.658, 2.820
758.947, 39.364
760.237, 59.060
761.526, 7.522
762.815, 31.880
764.104, 34.724
765.392, 21.357
766.680, 11.987
767.969, 12.676
769.257, 9.645
770.544, 13.957
771.832, 22.736
773.119, 17.451
774.406, 0.814
775.693, 31.930
776.980, 10.701
778.267, 24.487
779.553, 21.296
780.839, 32.124
782.125, 20.979
783.411, 5.147
784.697, 17.733
785.982, 0.775
787.267, 28.539
788.552, 7.531
789.837, 12.597
791.122, 11.658
792.406, 4.285
793.690, 6.761
794.974, 14.196
796.258, 10.891
797.542, 17.152
798.825, 2.150
800.108, 4.843
801.391, 30.833
802.674, 54.181
803.957, 6.228
805.239, 31.284
806.522, 28.360
807.804, 3.546
809.085, 1.551
810.367, 17.652
811.649, 19.764
812.930, 20.888
814.211, 6.975
815.492, 26.838
816.772, 19.701
818.053, 31.564
819.333, 6.425
820.613, 15.975
821.893, 7.144
823.173, 19.000
824.452, 8.854
825.732, 7.707
827.011, 40.558
828.290, 57.407
829.568, 40.256
830.847, 25.104
832.125, 55.951
833.403, 45.799
834.681, 27.647
835.959, 9.496
837.236, 31.345
838.514, 47.195
839.791, 60.048
841.068, 75.905
842.345, 81.008
843.621, 57.651
844.898, 75.534
846.174, 97.427
847.450, 66.321
848.726, 68.218
850.001, 73.117
851.277, 73.845
852.552, 74.933
853.827, 85.858
855.102, 105.803
856.376, 83.764
857.651, 168.730
858.925, 171.706
860.199, 191.685
861.473, 158.669
862.746, 157.656
864.020, 244.647
865.293, 269.640
866.566, 295.636
867.839, 353.633
869.112, 475.633
870.384, 523.635
871.656, 547.640
872.928, 737.648
874.200, 808.659
875.472, 957.672
876.744, 1129.688
878.015, 1195.710
879.286, 1362.734
880.557, 1670.760
881.828, 1799.803
883.098, 2052.848
884.369, 2290.899
885.639, 2501.952
886.909, 2714.007
888.178, 2797.072
889.448, 2908.142
890.717, 2864.227
891.987, 2811.306
893.256, 2673.397
894.524, 2419.491
895.793, 2122.500
897.061, 1966.574
898.330, 1649.690
899.598, 1500.729
900.865, 1330.767
902.133, 1202.883
903.401, 1036.399
904.668, 968.257
905.935, 921.052
907.202, 893.065
908.468, 824.023
909.735, 853.176
911.001, 765.545
912.267, 772.698
913.533, 763.916
914.799, 756.063
916.064, 766.255
917.330, 720.771
918.595, 738.147
919.860, 814.269
921.124, 801.213
922.389, 883.319
923.653, 890.722
924.918, 887.889
926.182, 915.629
927.445, 934.448
928.709, 941.329
929.972, 988.525
931.236, 999.917
932.499, 1048.533
933.761, 1075.493
935.024, 1075.172
936.286, 1135.334
937.549, 1196.252
938.811, 1164.258
940.073, 1230.596
941.334, 1274.913
942.596, 1281.274
943.857, 1289.644
945.118, 1418.509
946.379, 1419.878
947.640, 1589.230
948.900, 1598.803
950.161, 1832.042
951.421, 2000.156
952.681, 2189.589
953.940, 2520.086
955.200, 2879.172
956.459, 3246.166
957.719, 3839.745
958.978, 4498.523
960.236, 5385.032
961.495, 6477.384
962.753, 7950.880
964.012, 9877.283
965.270, 12663.650
966.527, 15821.235
967.785, 20908.822
969.043, 27106.430
970.300, 33604.035
971.557, 41761.656
972.814, 45809.289
974.071, 47526.926
975.327, 44644.578
976.583, 38602.242
977.840, 32259.900
979.095, 25467.574
980.351, 20105.264
981.607, 16042.960
982.862, 12900.667
984.117, 10318.388
985.372, 8786.111
986.627, 7253.852
987.882, 6295.597
989.136, 5503.353
990.390, 4863.116
991.644, 4434.892
992.898, 3979.676
994.152, 3706.470
995.405, 3438.273
996.659, 3263.085
997.912, 3112.906
999.165, 2987.736
1000.417, 2920.576
1001.670, 2947.424
1002.922, 2912.283
1004.174, 2726.150
1005.426, 2617.026
1006.678, 2491.914
1007.930, 2299.810
1009.181, 2087.715
1010.432, 2033.628
1011.683, 1738.550
1012.934, 1584.481
1014.185, 1471.421
1015.435, 1316.369
1016.685, 1305.327
1017.935, 1222.292
1019.185, 1109.267
1020.435, 1155.250
1021.684, 1042.241
1022.934, 1080.528
1024.183, 1057.536
1025.432, 1121.039
1026.680, 1075.064
1027.929, 976.063
1029.177, 1103.122
1030.425, 1127.172
1031.673, 1128.766
1032.921, 1248.833
1034.169, 1399.643
1035.416, 1549.728
1036.663, 1711.822
1037.911, 1846.520
1039.157, 1975.521
1040.404, 1865.202
1041.650, 1754.327
1042.897, 1514.460
1044.143, 1318.742
1045.389, 1109.891
1046.634, 954.006
1047.880, 836.120
1049.125, 741.535
1050.371, 639.625
1051.615, 558.785
1052.860, 489.501
1054.105, 444.746
1055.349, 374.292
1056.593, 389.578
1057.837, 346.243
1059.081, 326.522
1060.325, 353.830
1061.568, 277.753
1062.812, 252.089
1064.055, 270.410
1065.298, 311.419
1066.540, 232.362
1067.783, 240.379
1069.025, 242.937
1070.267, 289.598
1071.509, 244.069
1072.751, 227.565
1073.993, 241.011
1075.234, 291.440
1076.475, 282.900
1077.716, 306.018
1078.957, 295.470
1080.198, 319.933
1081.438, 296.477
1082.679, 335.976
1083.919, 321.677
1085.159, 340.596
1086.398, 298.156
1087.638, 278.685
1088.877, 245.492
1090.116, 244.110
1091.355, 236.963
1092.594, 178.535
1093.833, 227.154
1095.071, 171.770
1096.309, 189.643
1097.547, 243.415
1098.785, 203.412
1100.023, 116.108
1101.260, 96.824
1102.498, 121.757
1103.735, 110.472
1104.972, 134.164
1106.208, 117.831
1107.445, 85.517
1108.681, 153.187
1109.918, 123.902
1111.154, 115.586
1112.389, 94.270
1113.625, 103.960
1114.860, 127.780
1116.096, 118.897
1117.331, 86.276
1118.566, 123.145
1119.800, 85.975
1121.035, 74.737
1122.269, 107.478
1123.503, 76.191
1124.737, 133.928
1125.971, 78.645
1127.205, 103.488
1128.438, 89.420
1129.671, 57.140
1130.904, 112.783
1132.137, 82.504
1133.370, 82.227
1134.602, 85.014
1135.834, 103.738
1137.066, 91.414
1138.298, 98.258
1139.530, 84.983
1140.762, 84.083
1141.993, 98.808
1143.224, 43.533
1144.455, 50.258
1145.686, 42.002
1146.917, 75.726
1148.147, 52.509
1149.377, 68.232
1150.607, 100.086
1151.837, 63.929
1153.067, 35.650
1154.296, 80.821
1155.526, 30.583
1156.755, 94.351
1157.984, 74.067
1159.213, 16.782
1160.441, 80.496
1161.670, 46.291
1162.898, 52.001
1164.126, 77.827
1165.354, 11.533
1166.581, 27.237
1167.809, 41.939
1169.036, 25.638
1170.263, 10.665
1171.490, 2.058
1172.717, 14.253
1173.943, 23.428
1175.170, 21.893
1176.396, 0.148
1177.622, 40.515
1178.848, 61.649
1180.073, 31.072
1181.299, 16.025
1182.524, 47.895
1183.749, 35.564
1184.974, 28.734
1186.199, 33.045
1187.423, 27.439
1188.648, 13.236
1189.872, 19.815
1191.096, 2.382
1192.320, 21.161
1193.543, 14.885
1194.767, 30.301
1195.990, 18.704
1197.213, 28.956
1198.436, 28.497
1199.659, 21.601
1200.881, 31.467
1202.104, 17.802
1203.326, 13.421
1204.548, 2.083
1205.770, 46.450
1206.991, 18.899
1208.213, 36.725
1209.434, 20.630
1210.655, 39.992
1211.876, 20.692
1213.096, 3.310
1214.317, 3.919
1215.537, 4.351
1216.757, 13.298
1217.977, 10.962
1219.197, 9.199
1220.417, 22.023
1221.636, 7.737
1222.855, 26.750
1224.074, 1.901
1225.293, 55.287
1226.512, 54.163
1227.731, 25.256
1228.949, 78.424
1230.167, 11.765
1231.385, 6.088
1232.603, 35.228
1233.820, 3.569
1235.038, 55.453
1236.255, 30.620
1237.472, 10.709
1238.689, 56.764
1239.906, 34.863
1241.122, 37.921
1242.338, 3.054
1243.555, 8.958
1244.771, 8.040
1245.986, 27.949
1247.202, 25.218
1248.417, 13.193
1249.633, 28.161
1250.848, 38.150
1252.063, 46.102
1253.277, 44.780
1254.492, 57.719
1255.706, 41.936
1256.920, 50.874
1258.134, 66.801
1259.348, 61.456
1260.562, 27.657
1261.775, 65.540
1262.988, 33.413
1264.201, 25.507
1265.414, 29.362
1266.627, 44.208
1267.839, 50.142
1269.052, 90.008
1270.264, 52.907
1271.476, 156.715
1272.688, 31.531
1273.899, 25.320
1275.111, 80.097
1276.322, 4.866
1277.533, 83.650
1278.744, 66.396
1279.955, 46.145
1281.165, 147.871
1282.376, 59.587
1283.586, 48.289
1284.796, 84.980
1286.006, 20.662
1287.215, 111.331
1288.425, 75.990
1289.634, 86.622
1290.843, 60.242
1292.052, 109.853
1293.261, 51.444
1294.469, 95.012
1295.678, 37.568
1296.886, 39.114
1298.094, 129.649
1299.302, 20.174
1300.509, 56.686
1301.717, 55.188
1302.924, 96.677
1304.131, 81.151
1305.338, 80.616
1306.545, 48.051
1307.752, 73.472
1308.958, 41.883
1310.164, 80.283
1311.370, 101.674
1312.576, 81.053
1313.782, 111.423
1314.987, 103.783
1316.193, 61.843
1317.398, 119.180
1318.603, 123.020
1319.807, 82.336
1321.012, 49.675
1322.216, 85.953
1323.421, 36.237
1324.625, 42.971
1325.829, 26.230
1327.032, 24.286
1328.236, 50.974
1329.439, 42.196
1330.642, 39.811
1331.845, 53.119
1333.048, 33.744
1334.251, 52.921
1335.453, 23.087
1336.656, 59.103
1337.858, 20.753
1339.060, 44.423
1340.261, 34.599
1341.463, 19.470
1342.664, 81.664
1343.866, 72.856
1345.067, 21.451
1346.267, 7.603
1347.468, 1.384
1348.669, 5.850
1349.869, 18.784
1351.069, 27.804
1352.269, 43.792
1353.469, 40.804
1354.668, 37.779
1355.868, 70.768
1357.067, 25.073
1358.266, 21.444
1359.465, 63.752
1360.664, 23.526
1361.862, 40.199
1363.061, 49.068
1364.259, 0.085
1365.457, 39.812
1366.655, 6.737
1367.852, 14.640
1369.050, 46.861
1370.247, 33.759
1371.444, 32.347
1372.641, 58.474
1373.838, 11.349
1375.035, 12.033
1376.231, 70.510
1377.427, 24.351
1378.623, 42.239
1379.819, 59.863
1381.015, 30.833
1382.211, 40.336
1383.406, 24.579
1384.601, 30.742
1385.796, 82.136
1386.991, 57.158
1388.185, 96.930
1389.380, 127.027
1390.574, 1.152
1391.768, 70.234
1392.962, 62.354
1394.156, 27.325
1395.350, 56.126
1396.543, 27.994
1397.736, 41.001
1398.929, 114.999
1400.122, 29.614
1401.315, 28.532
1402.507, 87.486
1403.700, 17.346
1404.892, 44.177
1406.084, 87.624
1407.276, 1.498
1408.467, 45.330
1409.659, 42.094
1410.850, 10.747
1412.041, 22.391
1413.232, 11.700
1414.423, 74.223
1415.614, 25.955
1416.804, 52.558
1417.994, 96.095
1419.184, 71.769
1420.374, 22.424
1421.564, 79.022
1422.753, 25.651
1423.943, 64.164
1425.132, 35.403
1426.321, 81.184
1427.510, 82.562
1428.698, 55.977
1429.887, 69.747
1431.075, 73.581
1432.263, 57.349
1433.451, 48.356
1434.639, 68.965
1435.827, 54.291
1437.014, 73.726
1438.201, 93.880
1439.388, 81.371
1440.575, 70.878
1441.762, 111.134
1442.949, 17.572
1444.135, 116.146
1445.321, 153.640
1446.507, 100.438
1447.693, 118.939
1448.879, 32.637
1450.064, 130.424
1451.250, 97.733
1452.435, 81.213
1453.620, 80.668
1454.805, 95.014
1455.989, 68.519
1457.174, 85.006
1458.358, 83.852
1459.542, 77.212
1460.726, 124.558
1461.910, 132.936
1463.093, 63.219
1464.277, 146.419
1465.460, 132.752
1466.643, 69.497
1467.826, 113.533
1469.009, 108.482
1470.191, 119.671
1471.373, 135.888
1472.556, 97.004
1473.738, 82.139
1474.919, 89.292
1476.101, 68.449
1477.283, 133.590
1478.464, 64.769
1479.645, 70.991
1480.826, 138.300
1482.007, 67.651
1483.187, 96.993
1484.368, 114.327
1485.548, 41.690
1486.728, 41.131
1487.908, 61.671
1489.088, 97.214
1490.268, 64.762
1491.447, 57.323
1492.626, 44.906
1493.805, 121.502
1494.984, 15.877
1496.163, 12.797
1497.341, 99.523
1498.520, 33.295
1499.698, 32.123
1500.876, 65.015
1502.054, 18.977
1503.232, 55.008
1504.409, 37.113
1505.586, 19.303
1506.763, 87.574
1507.940, 53.938
1509.117, 46.413
1510.294, 84.414
1511.470, 23.535
1512.647, 21.691
1513.823, 72.859
1514.999, 14.999
1516.174, 45.043
1517.350, 53.480
1518.526, 29.668
1519.701, 120.297
1520.876, 31.839
1522.051, 0.338
1523.226, 0.000
##END=



