##NAMES=Calcite
##RRUFFID=R040170
##IDEAL CHEMISTRY=CaCO_3_
##LOCALITY=Peramea, Lerida Province, Catalonia, Spain
##OWNER=RRUFF
##SOURCE=University of Arizona Mineral Museum
##DESCRIPTION=Pink fragment
##STATUS=The identification of this mineral has been confirmed by X-ray diffraction and chemical analysis
##URL=rruff.info/R040170
##MEASURED CHEMISTRY=(Ca_0.99_Mg_0.01_)CO_3_; trace amounts of Co
##PIN_ID=L00956
##ORIENTATION=Laser parallel to -a* (-1 0 0). Fiducial mark perpendicular to laser is parallel to c [0 0 1]
102.1160, 0.0000000E+00
103.3490, 1.315430
104.5820, 124.2207
105.8150, 381.1172
107.0470, 316.3311
108.2800, 276.0205
109.5120, 37.46191
110.7440, 21.54297
111.9760, 281.1553
113.2080, 73.92969
114.4400, 122.2998
115.6710, 117.8945
116.9030, 115.4141
118.1340, 128.6162
119.3650, 306.3027
120.5960, 293.3115
121.8270, 355.5078
123.0580, 310.7695
124.2880, 294.9980
125.5190, 338.1035
126.7490, 437.0059
127.9790, 542.6387
129.2090, 630.9404
130.4390, 719.8604
131.6680, 808.3516
132.8980, 952.3721
134.1270, 1110.886
135.3560, 1290.861
136.5850, 1576.272
137.8140, 2027.094
139.0430, 2305.309
140.2710, 2738.888
141.5000, 3333.809
142.7280, 3815.049
143.9560, 4506.586
145.1840, 4902.398
146.4120, 5350.474
147.6390, 5560.795
148.8670, 5857.349
150.0940, 5734.123
151.3210, 5508.104
152.5490, 4999.281
153.7750, 4420.653
155.0020, 3992.205
156.2290, 3454.936
157.4550, 3150.832
158.6810, 2491.891
159.9080, 2038.103
161.1340, 1638.461
162.3590, 1347.961
163.5850, 1088.596
164.8110, 906.3604
166.0360, 851.2900
167.2610, 773.3389
168.4860, 601.5117
169.7110, 548.8086
170.9360, 419.2822
172.1610, 428.8545
173.3850, 375.6045
174.6100, 366.5000
175.8340, 318.4736
177.0580, 349.4092
178.2820, 226.5039
179.5050, 291.7480
180.7290, 304.0029
181.9520, 255.3242
183.1760, 325.6621
184.3990, 202.0576
185.6220, 193.4746
186.8450, 370.9141
188.0670, 270.4590
189.2900, 220.0361
190.5120, 264.6582
191.7340, 179.3584
192.9560, 397.0908
194.1780, 271.8594
195.4000, 259.6611
196.6220, 386.5000
197.8430, 278.3740
199.0640, 345.2939
200.2860, 268.2598
201.5070, 282.3379
202.7270, 220.4502
203.9480, 223.5967
205.1690, 202.7793
206.3890, 260.0215
207.6090, 295.3564
208.8290, 396.7305
210.0490, 234.1357
211.2690, 256.5723
212.4890, 204.0391
213.7080, 240.5352
214.9280, 282.0596
216.1470, 343.6123
217.3660, 405.2109
218.5850, 428.0225
219.8030, 431.5205
221.0220, 429.2139
222.2400, 405.9316
223.4590, 410.1250
224.6770, 354.4492
225.8950, 418.2520
227.1120, 466.0752
228.3300, 513.8916
229.5480, 396.7402
230.7650, 498.6191
231.9820, 604.5244
233.1990, 590.0039
234.4160, 713.9453
235.6330, 656.9160
236.8490, 742.4424
238.0660, 756.4834
239.2820, 835.1670
240.4980, 916.7529
241.7140, 1025.683
242.9300, 1113.607
244.1460, 1229.227
245.3610, 1323.412
246.5770, 1460.415
247.7920, 1570.667
249.0070, 1695.394
250.2220, 1812.018
251.4370, 1957.999
252.6510, 2071.241
253.8660, 2276.431
255.0800, 2536.854
256.2940, 2917.749
257.5080, 3226.523
258.7220, 3527.525
259.9360, 3880.674
261.1490, 4427.152
262.3630, 5058.762
263.5760, 5825.479
264.7890, 6674.354
266.0020, 7640.737
267.2150, 8631.736
268.4270, 9762.817
269.6400, 10869.97
270.8520, 12085.21
272.0640, 12927.60
273.2760, 13771.98
274.4880, 14270.41
275.7000, 14356.36
276.9120, 14015.91
278.1230, 13440.81
279.3340, 12477.78
280.5450, 11437.49
281.7560, 10221.24
282.9670, 9225.035
284.1780, 8086.874
285.3880, 6865.746
286.5980, 5958.658
287.8090, 5066.603
289.0190, 4236.584
290.2290, 3769.598
291.4380, 3274.642
292.6480, 2758.730
293.8570, 2535.848
295.0670, 2144.121
296.2760, 2077.288
297.4850, 1716.479
298.6930, 1647.670
299.9020, 1447.907
301.1110, 1368.166
302.3190, 1205.447
303.5270, 1201.748
304.7350, 1058.068
305.9430, 747.4199
307.1510, 783.7891
308.3580, 641.1738
309.5660, 756.9561
310.7730, 678.4102
311.9800, 655.8584
313.1870, 528.3115
314.3940, 527.7803
315.6010, 467.2607
316.8070, 466.7510
318.0130, 394.2520
319.2200, 428.7627
320.4260, 449.2832
321.6310, 412.8105
322.8370, 355.3477
324.0430, 332.8916
325.2480, 253.4424
326.4540, 246.0010
327.6590, 325.5654
328.8640, 261.1367
330.0680, 167.7139
331.2730, 273.3066
332.4780, 214.8965
333.6820, 72.49121
334.8860, 205.0898
336.0900, 132.6963
337.2940, 273.3057
338.4980, 114.9180
339.7010, 204.5371
340.9050, 85.16016
342.1080, 68.78711
343.3110, 47.41797
344.5140, 196.8652
345.7170, 199.5000
346.9200, 110.3838
348.1220, 96.02441
349.3240, 89.66504
350.5270, 96.30664
351.7290, 49.04883
352.9310, 114.5869
354.1320, 92.22266
355.3340, 15.85938
356.5350, 122.5010
357.7370, 70.92480
358.9380, 40.56348
360.1390, 46.21875
361.3400, 129.8730
362.5400, 15.47461
363.7410, 197.1738
364.9410, 63.82031
366.1410, 96.46582
367.3410, 44.60059
368.5410, 75.24219
369.7410, 33.65137
370.9400, 102.9795
372.1400, 60.30273
373.3390, 70.30078
374.5380, 140.0420
375.7370, 90.63965
376.9360, 89.23340
378.1350, 0.1806640
379.3330, 55.40430
380.5310, 21.36426
381.7300, 13.81152
382.9280, 58.91016
384.1260, 28.38770
385.3230, 97.12402
386.5210, 65.62891
387.7180, 10.12012
388.9160, 34.41602
390.1130, 83.03516
391.3100, 49.48828
392.5060, 29.07910
393.7030, 60.34766
394.9000, 16.15723
396.0960, 83.39551
397.2920, 205.9834
398.4880, 60.67285
399.6840, 88.77344
400.8800, 60.06055
402.0750, 42.64746
403.2710, 24.37793
404.4660, 9.122070
405.6610, 30.12500
406.8560, 29.50391
408.0510, 35.37695
409.2450, 40.84766
410.4400, 19.07324
411.6340, 24.29688
412.8280, 60.51855
414.0220, 149.2109
415.2160, 72.57129
416.4100, 118.5977
417.6030, 61.76367
418.7970, 7.809570
419.9900, 74.37012
421.1830, 5.820313
422.3760, 22.69043
423.5690, 52.41406
424.7610, 154.5137
425.9540, 132.8164
427.1460, 148.6338
428.3380, 122.7129
429.5300, 77.04102
430.7220, 99.93750
431.9140, 189.8818
433.1050, 99.18555
434.2970, 80.22949
435.4880, 43.05957
436.6790, 141.2480
437.8700, 5.268555
439.0610, 181.2695
440.2510, 187.3418
441.4420, 70.56445
442.6320, 130.3564
443.8220, 102.2695
445.0120, 172.9111
446.2020, 250.8037
447.3910, 50.68750
448.5810, 76.13184
449.7700, 103.9941
450.9600, 133.8477
452.1490, 39.26074
453.3370, 1.467773
454.5260, 17.79883
455.7150, 199.5039
456.9030, 101.7988
458.0910, 122.5225
459.2800, 102.2354
460.4670, 70.93750
461.6550, 118.6279
462.8430, 124.3086
464.0300, 160.9775
465.2180, 193.6348
466.4050, 122.2803
467.5920, 178.0547
468.7790, 243.6309
469.9650, 219.2539
471.1520, 87.86719
472.3380, 103.4697
473.5250, 8.940430
474.7110, 218.6094
475.8970, 231.3809
477.0820, 162.9209
478.2680, 93.46484
479.4540, 200.0000
480.6390, 156.5215
481.8240, 261.4980
483.0090, 185.9941
484.1940, 222.5625
485.3780, 80.03418
486.5630, 41.49414
487.7470, 172.9316
488.9320, 65.35645
490.1160, 309.7715
491.3000, 108.1738
492.4830, 102.5625
493.6670, 265.9365
494.8500, 152.5908
496.0340, 138.9385
497.2170, 206.2861
498.4000, 181.5771
499.5820, 19.90820
500.7650, 262.2109
501.9480, 229.9756
503.1300, 139.3691
504.3120, 365.6279
505.4940, 143.3838
506.6760, 127.6221
507.8580, 184.8457
509.0390, 9.231445
510.2210, 214.4824
511.4020, 68.64062
512.5830, 150.7998
513.7640, 92.92285
514.9450, 118.2061
516.1250, 40.30273
517.3060, 234.3750
518.4860, 219.4316
519.6660, 207.4736
520.8460, 223.1084
522.0260, 165.1211
523.2060, 193.1514
524.3850, 175.7119
525.5650, 203.1562
526.7440, 160.6055
527.9230, 137.5586
529.1020, 123.4854
530.2810, 204.3984
531.4590, 206.4033
532.6380, 111.2871
533.8160, 215.1562
534.9940, 142.2500
536.1720, 72.09180
537.3500, 139.9160
538.5270, 122.7520
539.7050, 222.8359
540.8820, 69.89551
542.0590, 120.6621
543.2360, 151.4150
544.4130, 117.5908
545.5900, 151.1982
546.7660, 154.2139
547.9430, 144.9492
549.1190, 184.6523
550.2950, 143.8115
551.4710, 166.4863
552.6470, 116.1465
553.8220, 187.7930
554.9980, 24.57520
556.1730, 292.0127
557.3480, 221.5059
558.5230, 221.0654
559.6980, 23.61133
560.8730, 46.67285
562.0470, 29.82227
563.2220, 105.3525
564.3960, 209.4961
565.5700, 150.9287
566.7440, 60.34961
567.9170, 27.75391
569.0910, 169.1367
570.2640, 57.50781
571.4380, 185.8623
572.6110, 29.20215
573.7840, 58.52344
574.9570, 252.8281
576.1290, 35.88086
577.3020, 217.3623
578.4740, 165.5908
579.6460, 116.6729
580.8180, 85.87402
581.9900, 79.05957
583.1620, 134.2549
584.3330, 167.4131
585.5040, 23.55664
586.6760, 188.6816
587.8470, 226.8145
589.0180, 33.08789
590.1880, 184.0586
591.3590, 224.1934
592.5290, 92.25488
593.7000, 212.9209
594.8700, 123.7139
596.0400, 18.28418
597.2090, 27.70117
598.3790, 254.6680
599.5490, 209.6221
600.7180, 222.5635
601.8870, 201.7520
603.0560, 227.9082
604.2250, 172.8096
605.3940, 103.6982
606.5620, 212.0127
607.7300, 81.87598
608.8990, 273.6797
610.0670, 327.7500
611.2350, 243.0410
612.4020, 202.1348
613.5700, 232.9355
614.7370, 184.7148
615.9050, 58.98047
617.0720, 105.7402
618.2390, 109.5977
619.4060, 237.0742
620.5720, 139.7949
621.7390, 38.50000
622.9050, 231.3164
624.0710, 89.99414
625.2370, 120.4492
626.4030, 344.1660
627.5690, 110.9863
628.7340, 199.6074
629.9000, 338.8184
631.0650, 185.4414
632.2300, 244.0508
633.3950, 257.6230
634.5600, 222.3379
635.7240, 184.8906
636.8890, 171.7051
638.0530, 15.20703
639.2170, 232.7148
640.3810, 159.4258
641.5450, 33.09180
642.7080, 87.53516
643.8720, 159.9590
645.0350, 160.3809
646.1980, 208.7812
647.3610, 198.1387
648.5240, 75.54297
649.6870, 96.41992
650.8490, 215.7793
652.0120, 41.66016
653.1740, 300.9980
654.3360, 301.3613
655.4980, 167.7129
656.6600, 231.8848
657.8210, 219.1816
658.9830, 133.4668
660.1440, 19.74023
661.3050, 147.0117
662.4660, 393.2617
663.6270, 263.7402
664.7870, 252.0957
665.9480, 303.8418
667.1080, 111.0723
668.2680, 265.4688
669.4280, 209.9180
670.5880, 100.1641
671.7480, 193.4902
672.9070, 216.6914
674.0670, 148.2910
675.2260, 239.4961
676.3850, 241.3867
677.5440, 237.0352
678.7030, 212.0801
679.8610, 207.3125
681.0200, 285.3828
682.1780, 197.6055
683.3360, 61.81641
684.4940, 214.0254
685.6520, 121.2305
686.8090, 287.4277
687.9670, 177.0840
689.1240, 223.2578
690.2810, 282.5215
691.4380, 262.1113
692.5950, 300.3691
693.7520, 318.9668
694.9080, 307.6191
696.0650, 327.7305
697.2210, 311.8516
698.3770, 353.9629
699.5330, 713.1777
700.6880, 768.8574
701.8440, 1076.275
702.9990, 1230.500
704.1550, 1651.668
705.3100, 1850.736
706.4650, 2266.584
707.6190, 2356.898
708.7740, 2072.936
709.9290, 1956.705
711.0830, 1720.717
712.2370, 1358.275
713.3910, 1246.014
714.5450, 969.9922
715.6980, 471.0059
716.8520, 471.9609
718.0050, 366.9062
719.1580, 211.8457
720.3110, 237.6953
721.4640, 223.5039
722.6170, 152.6719
723.7700, 122.5938
724.9220, 142.4277
726.0740, 97.66992
727.2260, 195.8379
728.3780, 77.14648
729.5300, 92.08594
730.6810, 207.9434
731.8330, 145.7422
732.9840, 5.597656
734.1350, 219.4434
735.2860, 187.8301
736.4370, 106.0996
737.5880, 189.9219
738.7380, 203.7305
739.8880, 43.53320
741.0390, 45.38086
742.1890, 198.1543
743.3380, 322.9219
744.4880, 23.67578
745.6380, 180.4180
746.7870, 32.93164
747.9360, 48.24023
749.0850, 22.03906
750.2340, 40.70703
751.3830, 174.3652
752.5310, 103.1133
753.6800, 41.23633
754.8280, 212.1523
755.9760, 51.24609
757.1240, 4.306641
758.2720, 135.8457
759.4190, 176.5508
760.5670, 69.60156
761.7140, 142.1113
762.8610, 1.525391
764.0080, 83.16602
765.1550, 200.6484
766.3020, 323.1250
767.4480, 15.79883
768.5950, 92.66406
769.7410, 92.11914
770.8870, 142.6660
772.0330, 60.12891
773.1780, 170.5605
774.3240, 39.01562
775.4690, 34.02930
776.6140, 243.3789
777.7590, 243.7305
778.9040, 127.0723
780.0490, 46.92773
781.1940, 258.1328
782.3380, 20.55273
783.4820, 117.7363
784.6260, 300.0156
785.7700, 202.3496
786.9140, 253.9707
788.0580, 202.4512
789.2010, 94.21680
790.3450, 151.0391
791.4880, 5.718750
792.6310, 83.50781
793.7730, 98.72461
794.9160, 211.9395
796.0590, 172.3750
797.2010, 192.3418
798.3430, 87.68164
799.4850, 105.8633
800.6270, 33.03711
801.7690, 59.19922
802.9100, 7.353516
804.0520, 107.4961
805.1930, 46.76367
806.3340, 30.88867
807.4750, 76.00000
808.6160, 55.05078
809.7560, 143.2773
810.8970, 21.36719
812.0370, 107.6816
813.1770, 77.74805
814.3170, 26.81055
815.4570, 90.96094
816.5960, 119.9043
817.7360, 159.9355
818.8750, 197.9648
820.0140, 253.9805
821.1530, 161.7754
822.2920, 148.7773
823.4310, 211.7695
824.5690, 56.21094
825.7070, 122.7266
826.8460, 66.65625
827.9840, 128.5762
829.1220, 125.4883
830.2590, 201.3906
831.3970, 182.2891
832.5340, 249.1895
833.6710, 198.6367
834.8080, 212.4219
835.9450, 97.85156
837.0820, 164.7266
838.2190, 141.5957
839.3550, 49.63477
840.4910, 63.50586
841.6270, 229.3633
842.7630, 109.2148
843.8990, 144.0605
845.0350, 242.9004
846.1700, 119.7363
847.3060, 135.5625
848.4410, 20.38086
849.5760, 179.1953
850.7100, 138.0000
851.8450, 176.8008
852.9800, 142.6074
854.1140, 312.4082
855.2480, 293.2051
856.3820, 301.9902
857.5160, 291.7695
858.6500, 20.54492
859.7830, 119.3086
860.9170, 119.0645
862.0500, 236.8184
863.1830, 13.54688
864.3160, 85.28320
865.4480, 117.0625
866.5810, 76.54883
867.7130, 183.2109
868.8460, 306.8691
869.9780, 297.7207
871.1100, 224.3652
872.2410, 157.0117
873.3730, 125.0273
874.5050, 88.63672
875.6360, 69.92773
876.7670, 51.29297
877.8980, 105.6699
879.0290, 88.28320
880.1590, 145.8887
881.2900, 293.0508
882.4200, 105.6465
883.5500, 15.72070
884.6800, 31.62109
885.8100, 163.7227
886.9400, 180.0078
888.0690, 32.56055
889.1990, 74.10938
890.3280, 59.18359
891.4570, 242.7461
892.5860, 122.1914
893.7140, 91.04102
894.8430, 4.625000
895.9710, 187.2246
897.1000, 178.6914
898.2280, 191.2832
899.3560, 6.076172
900.4830, 200.5449
901.6110, 199.1230
902.7380, 6.300781
903.8660, 180.1797
904.9930, 106.7148
906.1200, 24.78125
907.2460, 42.33008
908.3730, 62.72070
909.5000, 142.2617
910.6260, 5.472656
911.7520, 184.0859
912.8780, 36.61523
914.0040, 95.14062
915.1290, 169.6641
916.2550, 213.0098
917.3800, 146.5430
918.5050, 80.05664
919.6300, 86.58203
920.7550, 18.62695
921.8800, 39.37305
923.0040, 1.876953
924.1290, 6.388672
925.2530, 120.0918
926.3770, 126.5215
927.5010, 262.9258
928.6250, 193.3711
929.7480, 116.8438
930.8720, 105.3125
931.9950, 116.7812
933.1180, 30.75391
934.2410, 73.68750
935.3640, 139.1348
936.4860, 168.3477
937.6090, 101.6660
938.7310, 81.59570
939.8530, 19.96289
940.9750, 219.2910
942.0970, 287.4746
943.2180, 69.84961
944.3400, 147.8613
945.4610, 113.4805
946.5820, 2.570313
947.7030, 78.76562
948.8240, 21.03320
949.9450, 173.0469
951.0650, 151.3711
952.1860, 211.6992
953.3060, 120.0293
954.4260, 219.3574
955.5460, 143.6855
956.6650, 223.0137
957.7850, 270.3379
958.9040, 3.664063
960.0230, 257.5176
961.1420, 85.83984
962.2610, 162.0762
963.3800, 137.3984
964.4990, 85.72070
965.6170, 102.4531
966.7350, 76.07617
967.8530, 97.68750
968.9710, 65.00977
970.0890, 144.3320
971.2070, 151.6523
972.3240, 58.97656
973.4410, 43.70117
974.5580, 135.4570
975.6750, 86.67383
976.7920, 246.9766
977.9090, 171.2832
979.0250, 224.7168
980.1410, 69.88867
981.2580, 273.1953
982.3740, 231.5020
983.4890, 258.5352
984.6050, 102.8438
985.7200, 394.1543
986.8360, 324.4629
987.9510, 276.7754
989.0660, 375.0879
990.1810, 436.3984
991.2950, 409.7109
992.4100, 581.0234
993.5240, 397.1074
994.6390, 358.4336
995.7530, 601.7617
996.8660, 583.0879
997.9800, 509.1445
999.0940, 780.4746
1000.207, 702.7383
1001.320, 680.0762
1002.433, 750.4141
1003.546, 784.7539
1004.659, 987.1016
1005.772, 1119.449
1006.884, 1047.826
1007.996, 1253.207
1009.108, 1343.590
1010.220, 1496.994
1011.332, 1514.336
1012.444, 1913.744
1013.555, 1664.154
1014.666, 1589.602
1015.777, 1487.053
1016.888, 1068.508
1017.999, 668.5078
1019.110, 782.8730
1020.220, 471.3574
1021.331, 463.8613
1022.441, 562.2617
1023.551, 61.33594
1024.661, 426.8613
1025.770, 9.388672
1026.880, 152.2070
1027.989, 237.7598
1029.098, 323.7676
1030.207, 338.3262
1031.316, 280.8867
1032.425, 248.4512
1033.533, 43.14062
1034.642, 56.41211
1035.750, 356.9707
1036.858, 89.08008
1037.966, 91.44531
1039.073, 36.00781
1040.181, 165.4336
1041.288, 122.9512
1042.396, 114.4902
1043.503, 260.0332
1044.610, 27.99414
1045.716, 176.5684
1046.823, 161.1406
1047.929, 316.7246
1049.036, 388.3184
1050.142, 273.9102
1051.248, 289.5098
1052.353, 314.1191
1053.459, 394.7324
1054.564, 343.2852
1055.670, 225.3730
1056.775, 215.6992
1057.880, 385.8164
1058.985, 384.4453
1060.089, 505.0762
1061.194, 761.7148
1062.298, 726.3574
1063.402, 628.0020
1064.506, 823.6523
1065.610, 677.3066
1066.713, 774.0820
1067.817, 1090.742
1068.920, 1122.406
1070.023, 1420.074
1071.126, 2006.748
1072.229, 2417.426
1073.332, 3349.961
1074.435, 4883.648
1075.537, 6572.340
1076.639, 9685.035
1077.741, 13808.60
1078.843, 20218.31
1079.945, 26874.79
1081.046, 32125.49
1082.148, 35655.21
1083.249, 34450.95
1084.350, 29567.67
1085.451, 24469.40
1086.551, 19485.14
1087.652, 13846.88
1088.752, 8956.633
1089.853, 5693.385
1090.953, 3472.148
1092.053, 2556.881
1093.152, 1740.670
1094.252, 1214.469
1095.351, 967.2695
1096.451, 788.0762
1097.550, 472.8887
1098.649, 371.7051
1099.748, 341.5293
1100.846, 273.3555
1101.945, 280.1973
1103.043, 76.03516
1104.141, 278.8750
1105.239, 190.7207
1106.337, 393.4102
1107.434, 285.2656
1108.532, 260.2188
1109.629, 244.1230
1110.726, 317.0293
1111.823, 301.9395
1112.920, 240.8555
1114.017, 240.7773
1115.113, 240.7031
1116.210, 476.6348
1117.306, 292.5723
1118.402, 402.5176
1119.498, 479.4648
1120.593, 330.4180
1121.689, 351.3770
1122.784, 323.3398
1123.879, 445.3301
1124.974, 322.3672
1126.069, 379.2559
1127.164, 315.3613
1128.259, 136.3496
1129.353, 216.3457
1130.447, 136.3457
1131.541, 278.3516
1132.635, 273.3965
1133.729, 145.4492
1134.822, 181.5020
1135.916, 217.5703
1137.009, 182.6406
1138.102, 295.1816
1139.195, 111.2617
1140.288, 8.476563
1141.380, 463.0859
1142.473, 253.3281
1143.565, 212.4277
1144.657, 181.5352
1145.749, 71.33789
1146.841, 108.4395
1147.932, 164.6484
1149.024, 163.4336
1150.115, 259.5664
1151.206, 334.7012
1152.297, 165.3027
1153.388, 217.4453
1154.479, 83.40820
1155.569, 391.7012
1156.659, 240.8164
1157.750, 158.0684
1158.839, 480.9727
1159.929, 67.98438
1161.019, 37.02734
1162.108, 110.0449
1163.198, 265.0664
1164.287, 272.0898
1165.376, 298.1621
1166.465, 298.1914
1167.553, 72.22656
1168.642, 187.5020
1169.730, 170.9941
1170.818, 102.5078
1171.906, 241.5586
1172.994, 52.61133
1174.082, 364.6680
1175.170, 327.9023
1176.257, 308.9688
1177.344, 282.2949
1178.431, 275.6152
1179.518, 271.2070
1180.605, 284.5938
1181.691, 277.6738
1182.778, 306.9980
1183.864, 317.5156
1184.950, 314.9336
1186.036, 279.0273
1187.122, 278.1328
1188.207, 191.2441
1189.292, 215.3574
1190.378, 64.47656
1191.463, 209.5977
1192.548, 158.7207
1193.632, 240.8457
1194.717, 202.9746
1195.801, 259.1055
1196.886, 371.2402
1197.970, 195.3848
1199.054, 67.53320
1200.137, 96.68164
1201.221, 78.83203
1202.305, 28.98633
1203.388, 154.1953
1204.471, 142.3613
1205.554, 289.5312
1206.637, 153.7031
1207.719, 136.8750
1208.802, 310.0898
1209.884, 190.3066
1210.966, 160.5273
1212.048, 222.7500
1213.130, 252.9766
1214.212, 153.2031
1215.293, 170.4336
1216.374, 30.67578
1217.456, 173.9219
1218.536, 141.1719
1219.617, 75.42578
1220.698, 171.0957
1221.778, 177.3594
1222.859, 265.6289
1223.939, 125.8965
1225.019, 74.16797
1226.099, 198.4375
1227.178, 236.7109
1228.258, 193.3887
1229.337, 440.6660
1230.417, 221.9434
1231.496, 12.22266
1232.574, 99.50195
1233.653, 229.7832
1234.732, 82.06445
1235.810, 286.3457
1236.888, 323.6582
1237.966, 10.90820
1239.044, 245.3965
1240.122, 370.7090
1241.199, 148.0215
1242.277, 188.3379
1243.354, 267.6680
1244.431, 209.0039
1245.508, 339.3398
1246.585, 314.8359
1247.661, 265.0137
1248.738, 302.3516
1249.814, 133.6934
1250.890, 70.03516
1251.966, 91.37891
1253.042, 29.72070
1254.117, 20.16992
1255.193, 27.48633
1256.268, 7.837891
1257.343, 53.16211
1258.418, 123.4844
1259.493, 259.8105
1260.567, 276.2656
1261.642, 205.4609
1262.716, 338.0352
1263.790, 208.3594
1264.864, 175.6133
1265.938, 237.9375
1267.011, 97.74023
1268.085, 160.5293
1269.158, 13.79688
1270.231, 50.20312
1271.304, 12.28711
1272.377, 119.5176
1273.450, 202.7461
1274.522, 116.0234
1275.594, 227.1406
1276.666, 30.30273
1277.738, 19.53711
1278.810, 113.8574
1279.882, 224.0020
1280.953, 31.85742
1282.025, 232.2656
1283.096, 342.3848
1284.167, 152.9414
1285.238, 141.0605
1286.308, 112.1777
1287.379, 61.91602
1288.449, 101.1445
1289.519, 71.63477
1290.589, 168.7754
1291.659, 182.9141
1292.729, 212.1543
1293.798, 129.1934
1294.868, 211.3379
1295.937, 240.4824
1297.006, 105.6270
1298.075, 54.21094
1299.143, 212.9238
1300.212, 52.06445
1301.280, 79.20117
1302.348, 269.3398
1303.416, 6.474609
1304.484, 162.6074
1305.552, 0.2617190
1306.620, 144.8633
1307.687, 15.01367
1308.754, 94.09570
1309.821, 252.2012
1310.888, 219.3027
1311.955, 282.1250
1313.021, 108.5000
1314.088, 224.5898
1315.154, 253.6777
1316.220, 119.7656
1317.286, 299.8477
1318.352, 116.9277
1319.417, 481.0000
1320.483, 259.0723
1321.548, 262.1289
1322.613, 62.41797
1323.678, 110.4766
1324.743, 222.5352
1325.807, 373.5918
1326.872, 317.6523
1327.936, 192.7109
1329.000, 71.76953
1330.064, 103.8281
1331.128, 51.32617
1332.191, 404.1406
1333.255, 69.56055
1334.318, 295.6211
1335.381, 299.6738
1336.444, 218.7207
1337.507, 140.7715
1338.569, 98.34570
1339.632, 146.3926
1340.694, 217.4375
1341.756, 142.4824
1342.818, 290.5273
1343.880, 88.52930
1344.941, 480.5293
1346.003, 207.8398
1347.064, 237.0742
1348.125, 12.68945
1349.186, 208.2969
1350.247, 456.6035
1351.308, 327.5840
1352.368, 117.5625
1353.428, 370.5410
1354.489, 299.5176
1355.549, 5.488281
1356.608, 470.4570
1357.668, 317.4160
1358.727, 231.3730
1359.787, 213.3164
1360.846, 318.2637
1361.905, 302.2109
1362.964, 141.1523
1364.022, 199.2051
1365.081, 112.8555
1366.139, 49.99023
1367.197, 172.8926
1368.255, 143.8906
1369.313, 344.7891
1370.371, 403.4121
1371.428, 219.3105
1372.486, 341.4844
1373.543, 257.5977
1374.600, 302.4883
1375.657, 340.3809
1376.713, 271.1660
1377.770, 272.0527
1378.826, 208.9375
1379.882, 420.8223
1380.938, 79.68555
1381.994, 155.5039
1383.050, 107.4746
1384.106, 323.5352
1385.161, 240.4121
1386.216, 151.2871
1387.271, 196.1641
1388.326, 120.0371
1389.381, 48.91211
1390.435, 381.7812
1391.490, 3.648438
1392.544, 358.5098
1393.598, 167.3633
1394.652, 125.7539
1395.705, 191.6055
1396.759, 5.296875
1397.812, 43.59180
1398.866, 242.2871
1399.919, 118.1621
1400.972, 127.9434
1402.024, 449.0273
1403.077, 381.8086
1404.129, 224.5059
1405.181, 40.62500
1406.233, 293.3770
1407.285, 326.0996
1408.337, 303.4199
1409.389, 235.0742
1410.440, 233.2012
1411.491, 113.8613
1412.542, 313.5039
1413.593, 274.6289
1414.644, 460.3047
1415.695, 265.9727
1416.745, 318.0469
1417.795, 263.3750
1418.845, 230.0391
1419.895, 272.6914
1420.945, 431.3398
1421.995, 382.9805
1423.044, 319.6133
1424.093, 279.2344
1425.142, 573.8926
1426.191, 521.5488
1427.240, 543.1641
1428.289, 460.8184
1429.337, 805.3613
1430.385, 936.7227
1431.433, 850.2363
1432.481, 1098.297
1433.529, 747.7461
1434.577, 694.9160
1435.624, 699.1309
1436.672, 617.2910
1437.719, 510.4023
1438.766, 435.4648
1439.812, 442.6953
1440.859, 294.6484
1441.905, 463.3184
1442.952, 358.3242
1443.998, 286.1113
1445.044, 287.1426
1446.090, 119.5195
1447.135, 329.2402
1448.181, 66.32227
1449.226, 231.4062
1450.271, 334.4844
1451.316, 270.5625
1452.361, 434.5820
1453.405, 378.7520
1454.450, 198.7188
1455.494, 322.7852
1456.538, 132.8418
1457.582, 82.90039
1458.626, 47.94336
1459.670, 165.9668
1460.713, 138.3926
1461.757, 444.3711
1462.800, 279.3477
1463.843, 31.31836
1464.886, 182.8184
1465.928, 433.7793
1466.971, 262.7402
1468.013, 212.7012
1469.055, 30.01953
1470.097, 352.5742
1471.139, 55.38086
1472.181, 74.13477
1473.222, 17.12500
1474.263, 331.6094
1475.305, 55.32812
1476.346, 265.0430
1477.386, 242.6094
1478.427, 283.3281
1479.468, 171.0469
1480.508, 241.7539
1481.548, 265.1055
1482.588, 223.4961
1483.628, 140.2031
1484.668, 185.8906
1485.707, 183.2891
1486.747, 145.0547
1487.786, 218.9102
1488.825, 43.60156
1489.864, 209.2695
1490.902, 368.1680
1491.941, 275.0586
1492.979, 121.9531
1494.017, 258.8438
1495.055, 51.34375
1496.093, 332.4648
1497.131, 48.27344
1498.168, 274.0859
1499.206, 405.9414
1500.243, 241.8008
1501.280, 20.66797
1502.317, 320.5430
1503.354, 303.4492
1504.390, 264.3750
1505.426, 211.3242
1506.463, 306.2930
1507.499, 344.2773
1508.535, 87.28906
1509.570, 261.3398
1510.606, 481.9453
1511.641, 253.0078
1512.676, 217.0664
1513.711, 299.1211
1514.746, 286.7383
1515.781, 405.9570
1516.816, 273.0078
1517.850, 275.8242
1518.884, 367.8555
1519.918, 241.8750
1520.952, 244.7070
1521.986, 298.4102
1523.019, 152.7070
1524.053, 144.8047
1525.086, 284.7305
1526.119, 260.6719
1527.152, 310.6328
1528.185, 232.6367
1529.217, 368.6680
1530.250, 158.2695
1531.282, 322.9883
1532.314, 24.37891
1533.346, 431.5820
1534.377, 58.11328
1535.409, 205.2383
1536.440, 621.1016
1537.472, 59.01172
1538.503, 353.8398
1539.534, 443.5859
1540.564, 56.99219
1541.595, 43.51172
1542.625, 414.8867
1543.656, 451.1562
1544.686, 307.3086
1545.716, 168.3203
1546.745, 328.4883
1547.775, 341.0000
1548.804, 63.10156
1549.834, 149.0078
1550.863, 156.8281
1551.892, 136.0977
1552.920, 593.2812
1553.949, 278.6016
1554.977, 346.1719
1556.006, 279.6875
1557.034, 78.47656
1558.062, 176.0273
1559.089, 277.7344
1560.117, 117.7891
1561.144, 166.6133
1562.172, 107.8164
1563.199, 42.27344
1564.226, 245.8047
1565.252, 1.464844
1566.279, 53.19141
1567.305, 147.5000
1568.332, 6.6405997E-02
1569.358, 79.09375
1570.384, 0.0000000E+00
##END=



