##NAMES=Calcite
##RRUFFID=R040170
##IDEAL CHEMISTRY=CaCO_3_
##LOCALITY=Peramea, Lerida Province, Catalonia, Spain
##OWNER=RRUFF
##SOURCE=University of Arizona Mineral Museum
##DESCRIPTION=Pink fragment
##STATUS=The identification of this mineral has been confirmed by X-ray diffraction and chemical analysis
##URL=rruff.info/R040170
##MEASURED CHEMISTRY=(Ca_0.99_Mg_0.01_)CO_3_; trace amounts of Co
##PIN_ID=L00956
##ORIENTATION=Laser parallel to -a* (-1 0 0). Fiducial mark perpendicular to laser is parallel to c [0 0 1]
102.1160, 0.0000000E+00
103.3490, 6.818115
104.5820, 5.073486
105.8150, 40.10498
107.0470, 12.58838
108.2800, 1.337891
109.5120, 0.1098630
110.7440, 72.58057
111.9760, 35.15820
113.2080, 37.97900
114.4400, 93.83936
115.6710, 16.58398
116.9030, 170.0884
118.1340, 87.25391
119.3650, 1.001465
120.5960, 76.26611
121.8270, 48.99316
123.0580, 66.13428
124.2880, 42.64941
125.5190, 135.5010
126.7490, 110.6597
127.9790, 118.0977
129.2090, 158.7920
130.4390, 126.7222
131.6680, 242.8696
132.8980, 294.2188
134.1270, 278.7573
135.3560, 350.4761
136.5850, 453.3647
137.8140, 465.4141
139.0430, 736.6162
140.2710, 793.9590
141.5000, 1038.427
142.7280, 1097.012
143.9560, 1236.705
145.1840, 1360.502
146.4120, 1618.395
147.6390, 1772.379
148.8670, 1960.451
150.0940, 1942.606
151.3210, 1837.840
152.5490, 1772.149
153.7750, 1591.530
155.0020, 1382.979
156.2290, 1182.490
157.4550, 1008.065
158.6810, 871.6992
159.9080, 636.3906
161.1340, 506.1362
162.3590, 533.9341
163.5850, 380.8003
164.8110, 342.7329
166.0360, 362.7090
167.2610, 341.7627
168.4860, 170.9185
169.7110, 224.1089
170.9360, 160.3320
172.1610, 180.6143
173.3850, 169.9761
174.6100, 170.3833
175.8340, 153.4312
177.0580, 97.24902
178.2820, 102.6543
179.5050, 80.05420
180.7290, 49.06396
181.9520, 75.92236
183.1760, 44.34863
184.3990, 97.82373
185.6220, 146.3271
186.8450, 117.8462
188.0670, 151.2114
189.2900, 74.95459
190.5120, 159.5308
191.7340, 104.1187
192.9560, 115.7393
194.1780, 128.4053
195.4000, 133.0889
196.6220, 142.2461
197.8430, 144.5068
199.0640, 143.2476
200.2860, 123.4907
201.5070, 97.76562
202.7270, 93.54395
203.9480, 78.33398
205.1690, 79.13721
206.3890, 101.9521
207.6090, 99.02344
208.8290, 36.61914
210.0490, 108.4844
211.2690, 84.37500
212.4890, 63.27686
213.7080, 113.1890
214.9280, 58.12061
216.1470, 101.0620
217.3660, 35.01367
218.5850, 106.9746
219.8030, 59.94385
221.0220, 60.92383
222.2400, 123.9238
223.4590, 47.94287
224.6770, 71.72607
225.8950, 169.7520
227.1120, 211.7856
228.3300, 213.8267
229.5480, 114.8740
230.7650, 108.2451
231.9820, 111.0522
233.1990, 80.61279
234.4160, 131.0117
235.6330, 99.04834
236.8490, 103.0913
238.0660, 162.1411
239.2820, 124.1958
240.4980, 165.6099
241.7140, 270.9429
242.9300, 198.4419
244.1460, 216.8325
245.3610, 290.8726
246.5770, 229.9175
247.7920, 381.6089
249.0070, 461.1455
250.2220, 387.9092
251.4370, 370.8301
252.6510, 433.8740
253.8660, 458.0205
255.0800, 545.2524
256.2940, 588.5586
257.5080, 697.9321
258.7220, 678.9507
259.9360, 769.5659
261.1490, 907.1030
262.3630, 929.5015
263.5760, 1098.126
264.7890, 1259.108
266.0020, 1419.805
267.2150, 1687.803
268.4270, 1805.573
269.6400, 2154.372
270.8520, 2421.029
272.0640, 2548.878
273.2760, 2772.767
274.4880, 2971.681
275.7000, 3041.601
276.9120, 3021.550
278.1230, 2891.519
279.3340, 2657.503
280.5450, 2583.506
281.7560, 2254.562
282.9670, 1953.119
284.1780, 1891.860
285.3880, 1473.620
286.5980, 1371.695
287.8090, 1095.781
289.0190, 1024.879
290.2290, 869.9888
291.4380, 687.5098
292.6480, 630.6055
293.8570, 570.7456
295.0670, 529.8955
296.2760, 454.0547
297.4850, 425.2217
298.6930, 316.3965
299.9020, 400.5908
301.1110, 349.7920
302.3190, 331.0010
303.5270, 405.2163
304.7350, 213.4399
305.9430, 199.6694
307.1510, 138.9062
308.3580, 212.1484
309.5660, 129.3989
310.7730, 166.6533
311.9800, 254.9131
313.1870, 217.1772
314.3940, 216.4453
315.6010, 86.71680
316.8070, 148.4390
318.0130, 26.71729
319.2200, 50.99902
320.4260, 142.2832
321.6310, 123.5693
322.8370, 109.8584
324.0430, 31.14990
325.2480, 43.17432
326.4540, 68.53027
327.6590, 32.82861
328.8640, 77.12988
330.0680, 88.43359
331.2730, 47.73828
332.4780, 101.0459
333.6820, 57.35449
334.8860, 5.665039
336.0900, 55.97705
337.2940, 69.31201
338.4980, 5.629395
339.7010, 87.94824
340.9050, 16.44385
342.1080, 67.76465
343.3110, 3.101074
344.5140, 33.57666
345.7170, 89.43457
346.9200, 38.75098
348.1220, 63.06787
349.3240, 15.38428
350.5270, 25.15967
351.7290, 17.01807
352.9310, 38.33496
354.1320, 14.65137
355.3340, 19.96826
356.5350, 5.715820
357.7370, 109.5981
358.9380, 48.08887
360.1390, 122.2134
361.3400, 20.48486
362.5400, 14.17725
363.7410, 73.17969
364.9410, 29.48389
366.1410, 48.81885
367.3410, 60.12158
368.5410, 53.42285
369.7410, 59.71484
370.9400, 17.00635
372.1400, 9.294922
373.3390, 21.58301
374.5380, 30.87012
375.7370, 99.15381
376.9360, 22.57666
378.1350, 95.67725
379.3330, 2.068848
380.5310, 23.81885
381.7300, 44.42432
382.9280, 41.68018
384.1260, 38.56885
385.3230, 62.75293
386.5210, 176.1128
387.7180, 7.325684
388.9160, 57.52588
390.1130, 117.7256
391.3100, 26.07764
392.5060, 90.10596
393.7030, 50.60205
394.9000, 58.79541
396.0960, 15.99170
397.2920, 92.19189
398.4880, 135.3936
399.6840, 98.59766
400.8800, 44.80322
402.0750, 4.990234
403.2710, 14.78760
404.4660, 10.69824
405.6610, 26.10840
406.8560, 87.74268
408.0510, 0.9204100
409.2450, 36.09375
410.4400, 15.73242
411.6340, 49.88525
412.8280, 64.04541
414.0220, 6.794922
415.2160, 16.35547
416.4100, 9.495605
417.6030, 12.67334
418.7970, 154.4868
419.9900, 26.83350
421.1830, 133.9668
422.3760, 42.09814
423.5690, 68.22705
424.7610, 14.35303
425.9540, 31.52344
427.1460, 1.424316
428.3380, 1.333984
429.5300, 104.7471
430.7220, 100.8262
431.9140, 49.90186
433.1050, 93.97461
434.2970, 5.044434
435.4880, 4.892578
436.6790, 60.17383
437.8700, 104.2217
439.0610, 28.34082
440.2510, 82.27051
441.4420, 23.42041
442.6320, 80.95947
443.8220, 87.99658
445.0120, 62.02881
446.2020, 89.05273
447.3910, 99.39697
448.5810, 78.41309
449.7700, 91.57129
450.9600, 72.65576
452.1490, 75.07422
453.3370, 102.0752
454.5260, 46.07129
455.7150, 96.06299
456.9030, 169.0508
458.0910, 116.0347
459.2800, 23.98633
460.4670, 146.9683
461.6550, 33.91895
462.8430, 59.86475
464.0300, 63.80615
465.2180, 98.74414
466.4050, 51.67725
467.5920, 3.612305
468.7790, 68.53516
469.9650, 113.4546
471.1520, 85.36865
472.3380, 153.2783
473.5250, 79.18311
474.7110, 32.08350
475.8970, 79.99219
477.0820, 112.8838
478.2680, 97.70117
479.4540, 29.19873
480.6390, 76.07617
481.8240, 56.10205
483.0090, 17.02930
484.1940, 175.8159
485.3780, 30.65625
486.5630, 135.4917
487.7470, 6.848633
488.9320, 197.6670
490.1160, 113.4824
491.3000, 51.29346
492.4830, 87.10010
493.6670, 76.90137
494.8500, 92.69775
496.0340, 96.48975
497.2170, 111.2773
498.4000, 81.07275
499.5820, 100.5840
500.7650, 128.3701
501.9480, 54.70361
503.1300, 108.5566
504.3120, 77.66895
505.4940, 27.80078
506.6760, 152.0034
507.8580, 29.80566
509.0390, 42.55615
510.2210, 86.30176
511.4020, 172.0425
512.5830, 162.1802
513.7640, 178.2114
514.9450, 150.2334
516.1250, 156.9531
517.3060, 85.69824
518.4860, 85.40820
519.6660, 98.82715
520.8460, 116.7451
522.0260, 128.1724
523.2060, 72.46826
524.3850, 32.16846
525.5650, 10.01562
526.7440, 24.42920
527.9230, 22.25830
529.1020, 60.08105
530.2810, 63.77637
531.4590, 95.46680
532.6380, 118.1523
533.8160, 53.71680
534.9940, 14.39258
536.1720, 38.06055
537.3500, 172.7231
538.5270, 102.3813
539.7050, 128.0337
540.8820, 131.6816
542.0590, 60.32422
543.2360, 59.96240
544.4130, 119.0103
545.5900, 14.50928
546.7660, 41.12891
547.9430, 1.926270
549.1190, 81.52930
550.2950, 79.80762
551.4710, 101.4009
552.6470, 27.27832
553.8220, 64.28369
554.9980, 61.84082
556.1730, 61.58008
557.3480, 117.1509
558.5230, 28.70410
559.6980, 0.2475590
560.8730, 24.20166
562.0470, 70.32471
563.2220, 74.84668
564.3960, 114.3643
565.5700, 140.8760
566.7440, 160.3442
567.9170, 117.3242
569.0910, 120.3730
570.2640, 98.92188
571.4380, 63.40918
572.6110, 93.89209
573.7840, 47.36963
574.9570, 92.84277
576.1290, 48.90967
577.3020, 31.40820
578.4740, 42.86621
579.6460, 21.31982
580.8180, 59.76807
581.9900, 40.21143
583.1620, 31.35010
584.3330, 35.06201
585.5040, 35.46924
586.6760, 74.87158
587.8470, 6.268555
589.0180, 80.65820
590.1880, 16.04297
591.3590, 22.42188
592.5290, 2.795410
593.7000, 70.16016
594.8700, 79.51953
596.0400, 80.87402
597.2090, 67.22412
598.3790, 102.5693
599.5490, 67.90967
600.7180, 166.0273
601.8870, 136.3584
603.0560, 40.68408
604.2250, 92.09717
605.3940, 123.4136
606.5620, 151.7256
607.7300, 119.5137
608.8990, 46.02686
610.0670, 177.3765
611.2350, 162.6694
612.4020, 39.95752
613.5700, 156.2407
614.7370, 83.51953
615.9050, 35.79346
617.0720, 188.3188
618.2390, 92.58984
619.4060, 2.144043
620.5720, 46.17139
621.7390, 14.43213
622.9050, 138.0488
624.0710, 157.1265
625.2370, 137.3745
626.4030, 170.6025
627.5690, 122.8560
628.7340, 128.4155
629.9000, 139.0684
631.0650, 89.45947
632.2300, 134.7007
633.3950, 111.9399
634.5600, 51.21875
635.7240, 40.44873
636.8890, 139.9731
638.0530, 116.0547
639.2170, 105.2710
640.3810, 41.59473
641.5450, 40.80273
642.7080, 23.33887
643.8720, 31.50830
645.0350, 26.67969
646.1980, 0.9716800
647.3610, 31.20654
648.5240, 93.34766
649.6870, 47.53711
650.8490, 156.7612
652.0120, 76.94141
653.1740, 124.1162
654.3360, 60.28711
655.4980, 93.45264
656.6600, 35.61377
657.8210, 48.82324
658.9830, 92.97363
660.1440, 9.206055
661.3050, 108.3516
662.4660, 88.49365
663.6270, 39.63770
664.7870, 20.45947
665.9480, 60.08154
667.1080, 10.19482
668.2680, 64.44385
669.4280, 161.6636
670.5880, 156.7969
671.7480, 111.9253
672.9070, 1.048828
674.0670, 167.1694
675.2260, 142.9771
676.3850, 190.0859
677.5440, 134.1914
678.7030, 86.36914
679.8610, 92.46387
681.0200, 52.55273
682.1780, 120.8008
683.3360, 191.8789
684.4940, 177.2520
685.6520, 186.7373
686.8090, 188.8086
687.9670, 191.2080
689.1240, 170.2783
690.2810, 187.3447
691.4380, 229.4062
692.5950, 214.0771
693.7520, 328.1514
694.9080, 196.6035
696.0650, 272.8242
697.2210, 367.1396
698.3770, 467.1729
699.5330, 599.5547
700.6880, 711.3965
701.8440, 713.5938
702.9990, 1095.643
704.1550, 1375.687
705.3100, 1561.726
706.4650, 2028.761
707.6190, 2203.801
708.7740, 2144.838
709.9290, 2037.875
711.0830, 1801.906
712.2370, 1447.934
713.3910, 1351.954
714.5450, 915.9707
715.6980, 695.9844
716.8520, 565.9814
718.0050, 423.9893
719.1580, 289.9170
720.3110, 191.9150
721.4640, 324.9082
722.6170, 108.3916
723.7700, 294.3760
724.9220, 243.3496
726.0740, 176.3223
727.2260, 72.96680
728.3780, 86.92969
729.5300, 103.7422
730.6810, 164.6211
731.8330, 129.1553
732.9840, 78.09961
734.1350, 95.04004
735.2860, 95.97461
736.4370, 95.90527
737.5880, 83.83105
738.7380, 12.75098
739.8880, 141.6768
741.0390, 248.5957
742.1890, 29.51172
743.3380, 56.42285
744.4880, 168.3281
745.6380, 15.77246
746.7870, 75.11133
747.9360, 38.99316
749.0850, 215.8896
750.2340, 167.6699
751.3830, 172.6299
752.5310, 131.4932
753.6800, 54.42969
754.8280, 11.76758
755.9760, 130.6152
757.1240, 136.4570
758.2720, 33.74902
759.4190, 119.5879
760.5670, 6.262695
761.7140, 119.6943
762.8610, 118.5195
764.0080, 194.3398
765.1550, 165.4121
766.3020, 110.3066
767.4480, 12.11621
768.5950, 15.91797
769.7410, 182.7129
770.8870, 109.0791
772.0330, 46.86426
773.1780, 151.6445
774.3240, 12.41992
775.4690, 34.81250
776.6140, 113.9258
777.7590, 30.66016
778.9040, 69.38672
780.0490, 45.10645
781.1940, 17.74609
782.3380, 63.17285
783.4820, 15.81543
784.6260, 61.21484
785.7700, 75.86328
786.9140, 112.5547
788.0580, 49.24023
789.2010, 170.9199
790.3450, 109.5967
791.4880, 58.26758
792.6310, 121.9336
793.7730, 107.5957
794.9160, 45.22168
796.0590, 70.87305
797.2010, 38.51953
798.3430, 67.94238
799.4850, 165.5791
800.6270, 149.2109
801.7690, 79.17676
802.9100, 207.2529
804.0520, 38.82617
805.1930, 54.65723
806.3340, 39.86914
807.4750, 91.39062
808.6160, 82.90625
809.7560, 94.41797
810.8970, 113.7588
812.0370, 91.90137
813.1770, 110.3994
814.3170, 95.89551
815.4570, 38.38477
816.5960, 224.8701
817.7360, 123.3506
818.8750, 22.82617
820.0140, 246.2969
821.1530, 121.7617
822.2920, 219.2246
823.4310, 76.68359
824.5690, 110.1377
825.7070, 163.7441
826.8460, 182.3076
827.9840, 130.7520
829.1220, 39.19238
830.2590, 56.79590
831.3970, 56.76270
832.5340, 5.363281
833.6710, 16.64551
834.8080, 240.3555
835.9450, 72.72852
837.0820, 119.0996
838.2190, 24.47754
839.3550, 191.0928
840.4910, 71.46094
841.6270, 168.8232
842.7630, 187.1816
843.8990, 127.5361
845.0350, 154.8867
846.1700, 103.2314
847.3060, 96.57422
848.4410, 216.9111
849.5760, 140.2441
850.7100, 136.5732
851.8450, 86.89746
852.9800, 190.2178
854.1140, 161.5342
855.2480, 135.8477
856.3820, 192.1562
857.5160, 89.46094
858.6500, 136.7617
859.7830, 50.06836
860.9170, 64.37109
862.0500, 98.66992
863.1830, 93.96484
864.3160, 53.25879
865.4480, 53.54688
866.5810, 132.8330
867.7130, 196.1162
868.8460, 154.3965
869.9780, 170.6748
871.1100, 143.9502
872.2410, 108.2217
873.3730, 161.4902
874.5050, 106.7549
875.6360, 112.7900
876.7670, 122.0518
877.8980, 157.3105
879.0290, 149.5205
880.1590, 112.7207
881.2900, 142.9678
882.4200, 152.7285
883.5500, 132.9688
884.6800, 39.15234
885.8100, 87.39160
886.9400, 95.62793
888.0690, 218.8604
889.1990, 24.09082
890.3280, 14.68359
891.4570, 80.27637
892.5860, 82.48145
893.7140, 168.6846
894.8430, 23.18945
895.9710, 82.99219
897.1000, 1.190430
898.2280, 79.98145
899.3560, 126.1494
900.4830, 43.68457
901.6110, 18.45020
902.7380, 80.58105
903.8660, 99.40625
904.9930, 126.2871
906.1200, 1.588867
907.2460, 104.5254
908.3730, 162.5938
909.5000, 54.70410
910.6260, 192.5127
911.7520, 116.7568
912.8780, 111.8594
914.0040, 68.85059
915.1290, 89.94922
916.2550, 50.99609
917.3800, 15.87500
918.5050, 164.9775
919.6300, 2.861328
920.7550, 155.9609
921.8800, 74.94043
923.0040, 105.1133
924.1290, 195.1279
925.2530, 91.17871
926.3770, 94.22852
927.5010, 148.2764
928.6250, 101.3242
929.7480, 148.3691
930.8720, 120.3594
931.9950, 168.4014
933.1180, 35.36133
934.2410, 132.4014
935.3640, 217.4404
936.4860, 50.47852
937.6090, 65.81543
938.7310, 104.8506
939.8530, 51.18164
940.9750, 130.5918
942.0970, 154.5332
943.2180, 113.5811
944.3400, 33.62598
945.4610, 47.44043
946.5820, 72.71875
947.7030, 18.76465
948.8240, 27.81152
949.9450, 19.85840
951.0650, 72.82422
952.1860, 56.86914
953.3060, 158.9150
954.4260, 112.7949
955.5460, 154.6191
956.6650, 176.8838
957.7850, 152.9277
958.9040, 87.97168
960.0230, 3.985352
961.1420, 2.931641
962.2610, 17.12012
963.3800, 101.1729
964.4990, 54.83887
965.6170, 60.18359
966.7350, 89.82227
967.8530, 22.30664
968.9710, 3.458984
970.0890, 66.47656
971.2070, 62.50781
972.3240, 17.53906
973.4410, 27.57715
974.5580, 5.293945
975.6750, 2.996094
976.7920, 75.48828
977.9090, 58.51172
979.0250, 115.5352
980.1410, 127.5596
981.2580, 216.5859
982.3740, 151.6113
983.4890, 158.6387
984.6050, 130.6670
985.7200, 214.6963
986.8360, 225.7256
987.9510, 220.7559
989.0660, 251.7871
990.1810, 250.2891
991.2950, 154.8545
992.4100, 263.8877
993.5240, 256.9238
994.6390, 261.9531
995.7530, 400.9893
996.8660, 264.0293
997.9800, 235.0693
999.0940, 308.1094
1000.207, 462.1533
1001.320, 487.1973
1002.433, 557.2422
1003.546, 504.7012
1004.659, 557.7480
1005.772, 636.7979
1006.884, 563.8477
1007.996, 732.9004
1009.108, 709.8301
1010.220, 734.8867
1011.332, 818.9443
1012.444, 863.0029
1013.555, 850.2734
1014.666, 834.6475
1015.777, 791.1934
1016.888, 688.2686
1017.999, 611.3438
1019.110, 470.8164
1020.220, 316.8984
1021.331, 399.9805
1022.441, 157.0664
1023.551, 230.0771
1024.661, 329.6699
1025.770, 200.7793
1026.880, 161.8984
1027.989, 175.0166
1029.098, 114.1328
1030.207, 178.2568
1031.316, 94.78320
1032.425, 280.9219
1033.533, 206.0625
1034.642, 294.9492
1035.750, 112.0127
1036.858, 108.1602
1037.966, 213.3115
1039.073, 132.4688
1040.181, 57.04980
1041.288, 302.2109
1042.396, 256.3867
1043.503, 117.5645
1044.610, 224.7461
1045.716, 193.9434
1046.823, 140.1436
1047.929, 134.3477
1049.036, 146.5527
1050.142, 147.7607
1051.248, 270.9131
1052.353, 283.1279
1053.459, 143.2051
1054.564, 228.4268
1055.670, 325.0352
1056.775, 334.2617
1057.880, 435.4971
1058.985, 362.7363
1060.089, 419.9775
1061.194, 611.2227
1062.298, 646.4707
1063.402, 792.7217
1064.506, 797.9766
1065.610, 802.2344
1066.713, 948.4980
1067.817, 971.7627
1068.920, 1252.031
1070.023, 1565.302
1071.126, 1913.601
1072.229, 2654.799
1073.332, 3678.556
1074.435, 5140.965
1075.537, 7256.851
1076.639, 10522.18
1077.741, 15470.52
1078.843, 22427.86
1079.945, 30865.20
1081.046, 39469.54
1082.148, 46269.89
1083.249, 47282.24
1084.350, 41560.59
1085.451, 33820.95
1086.551, 25703.31
1087.652, 18118.68
1088.752, 11912.04
1089.853, 7600.408
1090.953, 5086.779
1092.053, 3019.154
1093.152, 2153.168
1094.252, 1624.432
1095.351, 1083.815
1096.451, 736.3359
1097.550, 690.5684
1098.649, 582.9590
1099.748, 529.3740
1100.846, 443.8379
1101.945, 349.2656
1103.043, 315.6650
1104.141, 262.0977
1105.239, 230.5322
1106.337, 159.7314
1107.434, 296.1768
1108.532, 164.6270
1109.629, 210.0791
1110.726, 269.5332
1111.823, 186.9922
1112.920, 242.4678
1114.017, 239.9453
1115.113, 143.4131
1116.210, 148.8828
1117.306, 280.3564
1118.402, 141.8311
1119.498, 270.3105
1120.593, 376.7930
1121.689, 234.2783
1122.784, 223.7656
1123.879, 235.2568
1124.974, 311.7520
1126.069, 67.24805
1127.164, 162.7480
1128.259, 74.28906
1129.353, 220.7949
1130.447, 203.3047
1131.541, 125.8154
1132.635, 41.33008
1133.729, 101.8477
1134.822, 14.63184
1135.916, 38.88867
1137.009, 74.41113
1138.102, 196.9736
1139.195, 60.50195
1140.288, 24.96680
1141.380, 18.55859
1142.473, 159.0879
1143.565, 67.62012
1144.657, 33.15430
1145.749, 152.1162
1146.841, 124.6670
1147.932, 72.22168
1149.024, 95.77734
1150.115, 34.16016
1151.206, 139.4326
1152.297, 170.9844
1153.388, 103.5400
1154.479, 69.13477
1155.569, 88.69531
1156.659, 128.5996
1157.750, 112.6621
1158.839, 206.9072
1159.929, 133.4844
1161.019, 76.07324
1162.108, 118.8154
1163.198, 32.41113
1164.287, 178.0791
1165.376, 78.70703
1166.465, 50.33203
1167.553, 213.9512
1168.642, 91.57227
1169.730, 66.23926
1170.818, 26.86426
1171.906, 39.49512
1172.994, 105.8223
1174.082, 216.4551
1175.170, 110.0908
1176.257, 104.8154
1177.344, 213.4551
1178.431, 140.0957
1179.518, 154.7383
1180.605, 71.38379
1181.691, 140.0293
1182.778, 51.67871
1183.864, 30.32812
1184.950, 197.9805
1186.036, 8.365234
1187.122, 9.308594
1188.207, 197.4131
1189.292, 34.08984
1190.378, 57.76855
1191.463, 81.44824
1192.548, 99.13086
1193.632, 110.2236
1194.717, 126.5801
1195.801, 114.2666
1196.886, 115.0713
1197.970, 93.76074
1199.054, 197.4512
1200.137, 106.1416
1201.221, 151.8350
1202.305, 32.47070
1203.388, 11.79199
1204.471, 19.10547
1205.554, 90.42773
1206.637, 116.3203
1207.719, 212.9531
1208.802, 120.5859
1209.884, 84.23047
1210.966, 124.8730
1212.048, 86.51758
1213.130, 21.16406
1214.212, 205.8105
1215.293, 244.4580
1216.374, 29.10645
1217.456, 140.7559
1218.536, 24.40625
1219.617, 113.0566
1220.698, 141.7080
1221.778, 31.37012
1222.859, 44.96680
1223.939, 137.6807
1225.019, 17.32910
1226.099, 2.1484001E-02
1227.178, 82.62695
1228.258, 51.29102
1229.337, 211.9551
1230.417, 46.61914
1231.496, 199.2891
1232.574, 47.04102
1233.653, 222.6035
1234.732, 67.24805
1235.810, 147.3643
1236.888, 201.2676
1237.966, 248.1104
1239.044, 197.7646
1240.122, 154.4199
1241.199, 30.07520
1242.277, 6.730469
1243.354, 7.385742
1244.431, 121.0420
1245.508, 52.69824
1246.585, 103.3564
1247.661, 146.0137
1248.738, 79.67188
1249.814, 114.3301
1250.890, 109.6582
1251.966, 84.54688
1253.042, 111.3057
1254.117, 83.02051
1255.193, 66.67969
1256.268, 120.3398
1257.343, 5.999023
1258.418, 83.66211
1259.493, 173.3252
1260.567, 77.98926
1261.642, 35.65332
1262.716, 176.3193
1263.790, 45.98633
1264.864, 115.2402
1265.938, 36.90723
1267.011, 8.574219
1268.085, 74.24121
1269.158, 152.9072
1270.231, 128.5879
1271.304, 110.3643
1272.377, 64.03027
1273.450, 163.6973
1274.522, 2.149414
1275.594, 186.5146
1276.666, 31.17773
1277.738, 62.84180
1278.810, 3.495117
1279.882, 11.75000
1280.953, 87.40723
1282.025, 89.06348
1283.096, 13.71875
1284.167, 104.3945
1285.238, 64.94922
1286.308, 14.32812
1287.379, 186.2803
1288.449, 37.88672
1289.519, 35.49512
1290.589, 29.89746
1291.659, 36.69141
1292.729, 9.279297
1293.798, 19.86621
1294.868, 24.45508
1295.937, 70.04395
1297.006, 85.63184
1298.075, 17.22070
1299.143, 144.8066
1300.212, 111.3916
1301.280, 38.02344
1302.348, 192.5391
1303.416, 152.0986
1304.484, 8.662109
1305.552, 215.2227
1306.620, 146.7822
1307.687, 58.35059
1308.754, 170.9180
1309.821, 111.4854
1310.888, 86.05176
1311.955, 74.61816
1313.021, 45.18164
1314.088, 131.7451
1315.154, 192.9229
1316.220, 17.51758
1317.286, 83.02637
1318.352, 150.5703
1319.417, 69.11133
1320.483, 160.8311
1321.548, 140.3633
1322.613, 14.89453
1323.678, 94.42383
1324.743, 6.952148
1325.807, 180.4814
1326.872, 99.00879
1327.936, 181.5361
1329.000, 158.0615
1330.064, 169.5869
1331.128, 105.2148
1332.191, 91.07520
1333.255, 196.5166
1334.318, 1.485352
1335.381, 139.0098
1336.444, 235.5332
1337.507, 113.9766
1338.569, 148.5000
1339.632, 109.0234
1340.694, 72.54688
1341.756, 95.66016
1342.818, 85.86816
1343.880, 112.1553
1344.941, 97.67383
1346.003, 107.1914
1347.064, 66.70996
1348.125, 85.74219
1349.186, 257.8867
1350.247, 148.4053
1351.308, 149.8291
1352.368, 268.3457
1353.428, 94.86426
1354.489, 224.2461
1355.549, 92.76367
1356.608, 116.2822
1357.668, 192.7988
1358.727, 110.3154
1359.787, 168.8340
1360.846, 129.3906
1361.905, 152.8926
1362.964, 12.60742
1364.022, 31.88965
1365.081, 148.3857
1366.139, 90.30859
1367.197, 256.8037
1368.255, 86.32129
1369.313, 118.8174
1370.371, 94.29883
1371.428, 156.9033
1372.486, 90.47070
1373.543, 143.9678
1374.600, 132.4658
1375.657, 180.9648
1376.713, 157.1025
1377.770, 133.9629
1378.826, 77.46289
1379.882, 126.9629
1380.938, 29.46387
1381.994, 67.24512
1383.050, 69.06641
1384.106, 128.9902
1385.161, 127.2344
1386.216, 214.7549
1387.271, 306.4854
1388.326, 216.0195
1389.381, 221.9131
1390.435, 133.4209
1391.490, 145.9297
1392.544, 131.4414
1393.598, 197.9365
1394.652, 114.3926
1395.705, 234.8887
1396.759, 252.3867
1397.812, 118.8877
1398.866, 51.50391
1399.919, 161.9658
1400.972, 36.40918
1402.024, 127.8174
1403.077, 96.32715
1404.129, 238.7773
1405.181, 188.2285
1406.233, 255.1768
1407.285, 209.5889
1408.337, 230.0439
1409.389, 145.4990
1410.440, 47.91309
1411.491, 239.7666
1412.542, 184.8887
1413.593, 229.1816
1414.644, 121.6377
1415.695, 121.0947
1416.745, 215.6924
1417.795, 103.9775
1418.845, 111.4092
1419.895, 143.7686
1420.945, 157.9004
1421.995, 225.3701
1423.044, 231.8008
1424.093, 194.2285
1425.142, 314.6055
1426.191, 369.0254
1427.240, 300.5293
1428.289, 406.2578
1429.337, 563.6797
1430.385, 590.7217
1431.433, 600.0488
1432.481, 780.4561
1433.529, 699.1436
1434.577, 698.5420
1435.624, 365.9209
1436.672, 281.3096
1437.719, 249.6836
1438.766, 388.0547
1439.812, 252.3828
1440.859, 287.5264
1441.905, 226.6318
1442.952, 161.2529
1443.998, 121.9219
1445.044, 183.8330
1446.090, 14.45020
1447.135, 90.77930
1448.181, 218.2227
1449.226, 138.6289
1450.271, 107.1514
1451.316, 156.6729
1452.361, 172.2031
1453.405, 62.75293
1454.450, 143.2354
1455.494, 212.8301
1456.538, 81.41797
1457.582, 114.0049
1458.626, 110.5938
1459.670, 149.1807
1460.713, 69.76855
1461.757, 228.3359
1462.800, 28.08496
1463.843, 80.49414
1464.886, 217.0752
1465.928, 99.65625
1466.971, 318.2539
1468.013, 54.79883
1469.055, 180.3750
1470.097, 201.9746
1471.139, 154.5752
1472.181, 101.1758
1473.222, 36.77734
1474.263, 28.62109
1475.305, 124.9824
1476.346, 23.41406
1477.386, 119.1172
1478.427, 80.72168
1479.468, 190.3193
1480.508, 156.9141
1481.548, 118.5049
1482.588, 138.0977
1483.628, 113.6904
1484.668, 88.28418
1485.707, 72.87891
1486.747, 144.8262
1487.786, 105.3789
1488.825, 80.93262
1489.864, 80.49512
1490.902, 5.9570000E-02
1491.941, 183.5908
1492.979, 71.21875
1494.017, 156.8584
1495.055, 81.51465
1496.093, 49.19238
1497.131, 61.86426
1498.168, 130.5400
1499.206, 192.2217
1500.243, 130.9287
1501.280, 88.65625
1502.317, 126.6699
1503.354, 104.5254
1504.390, 184.8086
1505.426, 120.5283
1506.463, 196.2588
1507.499, 173.0195
1508.535, 81.80469
1509.570, 4.741211
1510.606, 84.09180
1511.641, 34.93457
1512.676, 82.78613
1513.711, 16.64648
1514.746, 180.5146
1515.781, 148.3916
1516.816, 186.2764
1517.850, 140.7168
1518.884, 147.5723
1519.918, 115.2490
1520.952, 108.0977
1521.986, 150.9541
1523.019, 57.96875
1524.053, 116.6162
1525.086, 49.27148
1526.119, 44.39453
1527.152, 76.23730
1528.185, 105.2275
1529.217, 103.8926
1530.250, 102.5977
1531.282, 299.0654
1532.314, 106.7197
1533.346, 125.4346
1534.377, 216.5029
1535.409, 20.19336
1536.440, 229.8770
1537.472, 140.5508
1538.503, 231.2148
1539.534, 204.8672
1540.564, 62.26660
1541.595, 275.7588
1542.625, 152.3955
1543.656, 125.7275
1544.686, 1.097656
1545.716, 91.51465
1546.745, 122.8867
1547.775, 112.8340
1548.804, 250.6016
1549.834, 244.8945
1550.863, 89.49023
1551.892, 130.1318
1552.920, 335.7666
1553.949, 16.49121
1554.977, 150.9043
1556.006, 169.1006
1557.034, 17.27930
1558.062, 113.4531
1559.089, 263.0605
1560.117, 119.1582
1561.144, 270.1855
1562.172, 266.9443
1563.199, 210.7617
1564.226, 130.1094
1565.252, 145.7090
1566.279, 141.2744
1567.305, 9.7655997E-02
1568.332, 90.22363
1569.358, 39.26660
1570.384, 0.0000000E+00
##END=



