##NAMES=Calcite
##RRUFFID=R040170
##IDEAL CHEMISTRY=CaCO_3_
##LOCALITY=Peramea, Lerida Province, Catalonia, Spain
##OWNER=RRUFF
##SOURCE=University of Arizona Mineral Museum
##DESCRIPTION=Pink fragment
##STATUS=The identification of this mineral has been confirmed by X-ray diffraction and chemical analysis
##URL=rruff.info/R040170
##MEASURED CHEMISTRY=(Ca_0.99_Mg_0.01_)CO_3_; trace amounts of Co
##PIN_ID=L00956
##ORIENTATION=Laser parallel to -a* (-1 0 0). Fiducial mark perpendicular to laser is parallel to c [0 0 1]
102.1160, 0.0000000E+00
103.3490, 53.99658
104.5820, 127.5688
105.8150, 197.7817
107.0470, 215.5435
108.2800, 217.6299
109.5120, 34.22412
110.7440, 80.81885
111.9760, 70.80420
113.2080, 41.41406
114.4400, 45.35596
115.6710, 127.8350
116.9030, 118.6772
118.1340, 232.0146
119.3650, 253.6655
120.5960, 200.4824
121.8270, 217.3433
123.0580, 219.1416
124.2880, 283.0933
125.5190, 431.1914
126.7490, 465.2930
127.9790, 600.0278
129.2090, 710.3418
130.4390, 611.1880
131.6680, 796.5220
132.8980, 941.3071
134.1270, 1180.511
135.3560, 1352.108
136.5850, 1521.080
137.8140, 2063.400
139.0430, 2257.062
140.2710, 2728.039
141.5000, 3378.311
142.7280, 3765.851
143.9560, 4276.644
145.1840, 5133.669
146.4120, 5620.912
147.6390, 6092.359
148.8670, 6399.003
150.0940, 6435.833
151.3210, 6203.839
152.5490, 5667.011
153.7750, 5089.340
155.0020, 4388.813
156.2290, 3780.426
157.4550, 3123.170
158.6810, 2639.257
159.9080, 2108.023
161.1340, 1785.120
162.3590, 1418.323
163.5850, 1120.628
164.8110, 965.0391
166.0360, 673.5752
167.2610, 571.2202
168.4860, 571.0762
169.7110, 485.0010
170.9360, 438.0312
172.1610, 385.1343
173.3850, 310.4009
174.6100, 323.9019
175.8340, 204.4644
177.0580, 172.0537
178.2820, 156.7231
179.5050, 216.4033
180.7290, 101.0684
181.9520, 100.8008
183.1760, 260.5967
184.3990, 237.4258
185.6220, 139.2598
186.8450, 185.1035
188.0670, 259.9727
189.2900, 182.8662
190.5120, 193.7852
191.7340, 176.7656
192.9560, 126.8154
194.1780, 140.3584
195.4000, 207.1240
196.6220, 132.3340
197.8430, 163.5801
199.0640, 162.8457
200.2860, 140.1260
201.5070, 158.5020
202.7270, 212.7344
203.9480, 153.0635
205.1690, 182.4092
206.3890, 161.7705
207.6090, 147.1465
208.8290, 207.5381
210.0490, 139.9434
211.2690, 215.3643
212.4890, 108.7979
213.7080, 165.2461
214.9280, 277.7188
216.1470, 222.2041
217.3660, 295.7031
218.5850, 275.2119
219.8030, 258.7324
221.0220, 276.2705
222.2400, 446.8281
223.4590, 292.3955
224.6770, 238.9727
225.8950, 437.8711
227.1120, 404.4629
228.3300, 552.5176
229.5480, 469.1055
230.7650, 469.7500
231.9820, 600.4404
233.1990, 668.7891
234.4160, 689.3262
235.6330, 637.8682
236.8490, 755.4160
238.0660, 837.9443
239.2820, 955.5029
240.4980, 941.0684
241.7140, 938.7900
242.9300, 1057.286
244.1460, 1204.935
245.3610, 1237.791
246.5770, 1437.689
247.7920, 1605.174
249.0070, 1653.221
250.2220, 1841.119
251.4370, 2028.662
252.6510, 2427.171
253.8660, 2675.521
255.0800, 2960.881
256.2940, 3266.347
257.5080, 3571.488
258.7220, 3890.760
259.9360, 4285.426
261.1490, 4806.682
262.3630, 5514.917
263.5760, 6373.611
264.7890, 7288.412
266.0020, 8435.238
267.2150, 9632.130
268.4270, 11085.08
269.6400, 12425.10
270.8520, 13682.27
272.0640, 15056.39
273.2760, 16124.90
274.4880, 16840.11
275.7000, 17036.12
276.9120, 16868.65
278.1230, 16325.22
279.3340, 15263.59
280.5450, 13938.95
281.7560, 12457.42
282.9670, 10968.92
284.1780, 9336.154
285.3880, 8246.757
286.5980, 6916.708
287.8090, 5915.914
289.0190, 5014.470
290.2290, 4362.092
291.4380, 3773.023
292.6480, 3362.938
293.8570, 2860.563
295.0670, 2606.203
296.2760, 2291.877
297.4850, 2050.562
298.6930, 1866.259
299.9020, 1667.967
301.1110, 1567.684
302.3190, 1377.409
303.5270, 1249.143
304.7350, 1215.969
305.9430, 1041.717
307.1510, 917.4707
308.3580, 771.2295
309.5660, 730.9229
310.7730, 853.7617
311.9800, 712.5332
313.1870, 653.3096
314.3940, 692.0898
315.6010, 610.8711
316.8070, 655.6523
318.0130, 557.4355
319.2200, 457.2188
320.4260, 396.0010
321.6310, 662.7803
322.8370, 514.6484
324.0430, 512.0049
325.2480, 467.1875
326.4540, 346.9580
327.6590, 316.7266
328.8640, 229.6787
330.0680, 210.9365
331.2730, 236.1992
332.4780, 205.9551
333.6820, 209.7041
334.8860, 233.5098
336.0900, 231.2539
337.2940, 176.0693
338.4980, 138.2871
339.7010, 232.1348
340.9050, 170.8594
342.1080, 166.7061
343.3110, 185.4189
344.5140, 122.1270
345.7170, 89.05469
346.9200, 197.8018
348.1220, 6.483398
349.3240, 162.1973
350.5270, 19.87012
351.7290, 6.463867
352.9310, 20.80762
354.1320, 98.83789
355.3340, 15.47461
356.5350, 11.10449
357.7370, 1.726563
358.9380, 35.65918
360.1390, 100.9385
361.3400, 43.59961
362.5400, 88.70215
363.7410, 98.85254
364.9410, 76.39941
366.1410, 58.93750
367.3410, 69.46875
368.5410, 23.14453
369.7410, 91.65625
370.9400, 23.84277
372.1400, 0.6210940
373.3390, 69.84375
374.5380, 106.2793
375.7370, 86.72461
376.9360, 38.34277
378.1350, 13.20801
379.3330, 28.16895
380.5310, 23.46387
381.7300, 10.96094
382.9280, 166.3623
384.1260, 57.06934
385.3230, 107.7822
386.5210, 39.45898
387.7180, 4.674805
388.9160, 24.13867
390.1130, 120.8281
391.3100, 6.059570
392.5060, 3.614258
393.7030, 34.04688
394.9000, 38.97949
396.0960, 34.42773
397.2920, 60.15820
398.4880, 72.49414
399.6840, 201.0488
400.8800, 79.25488
402.0750, 29.26465
403.2710, 33.78418
404.4660, 58.32812
405.6610, 82.08496
406.8560, 40.04785
408.0510, 27.86133
409.2450, 92.56738
410.4400, 83.37695
411.6340, 62.23340
412.8280, 48.02539
414.0220, 29.17773
415.2160, 54.71875
416.4100, 0.5517580
417.6030, 44.56055
418.7970, 60.23242
419.9900, 109.1494
421.1830, 3.853516
422.3760, 48.01660
423.5690, 54.63184
424.7610, 41.98242
425.9540, 7.415039
427.1460, 18.39746
428.3380, 41.13672
429.5300, 28.34375
430.7220, 21.17090
431.9140, 107.6289
433.1050, 53.33105
434.2970, 6.761719
435.4880, 36.16797
436.6790, 77.75195
437.8700, 165.2422
439.0610, 142.6738
440.2510, 225.0449
441.4420, 103.3770
442.6320, 214.0098
443.8220, 103.3125
445.0120, 116.6025
446.2020, 103.8760
447.3910, 63.21875
448.5810, 87.46289
449.7700, 183.6914
450.9600, 125.9062
452.1490, 169.1045
453.3370, 173.4600
454.5260, 170.6777
455.7150, 164.1143
456.9030, 182.3623
458.0910, 165.5195
459.2800, 146.6260
460.4670, 145.8174
461.6550, 113.8955
462.8430, 119.6865
464.0300, 101.0098
465.2180, 103.0566
466.4050, 80.08691
467.5920, 29.13184
468.7790, 127.1348
469.9650, 217.1240
471.1520, 69.09766
472.3380, 140.0537
473.5250, 115.9922
474.7110, 108.9160
475.8970, 127.8232
477.0820, 97.11523
478.2680, 176.7764
479.4540, 94.89062
480.6390, 18.73242
481.8240, 86.75781
483.0090, 146.5557
484.1940, 86.33984
485.3780, 150.2285
486.5630, 172.9775
487.7470, 74.74707
488.9320, 107.4971
490.1160, 114.2324
491.3000, 185.8828
492.4830, 203.7119
493.6670, 168.3984
494.8500, 157.7676
496.0340, 129.4619
497.2170, 148.0996
498.4000, 177.7295
499.5820, 151.8682
500.7650, 135.1133
501.9480, 127.0225
503.1300, 110.3896
504.3120, 100.9502
505.4940, 152.6113
506.6760, 143.3975
507.8580, 135.9004
509.0390, 200.5791
510.2210, 89.06543
511.4020, 210.5371
512.5830, 156.1504
513.7640, 10.10547
514.9450, 214.2197
516.1250, 32.78613
517.3060, 183.1826
518.4860, 84.56250
519.6660, 115.9229
520.8460, 132.1611
522.0260, 232.6621
523.2060, 92.20312
524.3850, 143.4443
525.5650, 75.73047
526.7440, 292.1797
527.9230, 173.1992
529.1020, 243.4355
530.2810, 159.3105
531.4590, 0.5781250
532.6380, 235.5967
533.8160, 38.70703
534.9940, 65.35938
536.1720, 188.8516
537.3500, 37.74219
538.5270, 56.86426
539.7050, 36.67676
540.8820, 27.45117
542.0590, 55.46094
543.2360, 96.51172
544.4130, 126.7910
545.5900, 89.30859
546.7660, 144.4902
547.9430, 120.4727
549.1190, 80.71777
550.2950, 5.573242
551.4710, 115.4570
552.6470, 88.32715
553.8220, 130.1826
554.9980, 129.2842
556.1730, 68.73633
557.3480, 85.54883
558.5230, 44.00000
559.6980, 2.782227
560.8730, 54.54199
562.0470, 137.2930
563.2220, 112.7744
564.3960, 63.48828
565.5700, 164.2305
566.7440, 102.8740
567.9170, 21.50586
569.0910, 166.4062
570.2640, 119.9521
571.4380, 83.15918
572.6110, 146.1191
573.7840, 34.73242
574.9570, 179.2871
576.1290, 147.5342
577.3020, 44.80176
578.4740, 64.35938
579.6460, 71.09668
580.8180, 86.39062
581.9900, 101.8652
583.1620, 27.32715
584.3330, 202.7734
585.5040, 165.2080
586.6760, 108.6299
587.8470, 73.03906
589.0180, 160.3506
590.1880, 126.1025
591.3590, 148.1045
592.5290, 165.4619
593.7000, 92.80762
594.8700, 110.1416
596.0400, 10.46289
597.2090, 66.76660
598.3790, 85.05762
599.5490, 120.6641
600.7180, 69.93164
601.8870, 117.9424
603.0560, 194.6758
604.2250, 135.0615
605.3940, 159.9199
606.5620, 100.3164
607.7300, 95.73047
608.8990, 187.1816
610.0670, 168.3506
611.2350, 242.7822
612.4020, 131.8750
613.5700, 203.0059
614.7370, 249.2568
615.9050, 106.4043
617.0720, 72.50000
618.2390, 80.81055
619.4060, 37.58203
620.5720, 202.9893
621.7390, 48.43945
622.9050, 160.3525
624.0710, 167.3721
625.2370, 68.25195
626.4030, 200.2461
627.5690, 167.1045
628.7340, 108.8457
629.9000, 210.0371
631.0650, 58.38086
632.2300, 75.71484
633.3950, 128.6348
634.5600, 227.5967
635.7240, 122.6152
636.8890, 141.5586
638.0530, 113.1943
639.2170, 88.17188
640.3810, 72.02734
641.5450, 62.66699
642.7080, 0.5048830
643.8720, 36.44727
645.0350, 201.1396
646.1980, 42.96680
647.3610, 192.9092
648.5240, 60.71094
649.6870, 172.1494
650.8490, 152.0244
652.0120, 83.42285
653.1740, 139.1943
654.3360, 196.3389
655.4980, 79.39844
656.6600, 190.1387
657.8210, 141.8486
658.9830, 204.3574
660.1440, 135.0000
661.3050, 71.69434
662.4660, 198.9609
663.6270, 120.7842
664.7870, 142.5547
665.9480, 67.95898
667.1080, 254.6445
668.2680, 128.3252
669.4280, 203.0254
670.5880, 222.9561
671.7480, 139.1748
672.9070, 170.1006
674.0670, 144.4258
675.2260, 53.23145
676.3850, 133.0605
677.5440, 146.3877
678.7030, 162.8213
679.8610, 84.96973
681.0200, 146.1309
682.1780, 94.67188
683.3360, 96.29395
684.4940, 111.9561
685.6520, 181.5479
686.8090, 97.39746
687.9670, 204.0723
689.1240, 215.6699
690.2810, 195.4658
691.4380, 277.1377
692.5950, 326.7471
693.7520, 291.4121
694.9080, 268.0645
696.0650, 526.5654
697.2210, 277.2607
698.3770, 382.6172
699.5330, 596.2881
700.6880, 821.8867
701.8440, 1191.590
702.9990, 1583.356
704.1550, 1759.913
705.3100, 2250.502
706.4650, 2594.078
707.6190, 2946.208
708.7740, 2926.784
709.9290, 2676.352
711.0830, 2158.886
712.2370, 1778.447
713.3910, 1377.743
714.5450, 1127.285
715.6980, 761.8213
716.8520, 689.1533
718.0050, 416.5557
719.1580, 286.9922
720.3110, 302.4639
721.4640, 369.9492
722.6170, 361.1768
723.7700, 266.6406
724.9220, 261.0938
726.0740, 207.5371
727.2260, 197.8867
728.3780, 113.3096
729.5300, 262.7207
730.6810, 185.1221
731.8330, 246.5127
732.9840, 224.6123
734.1350, 163.2617
735.2860, 126.1191
736.4370, 120.3574
737.5880, 31.66211
738.7380, 163.5176
739.8880, 47.73535
741.0390, 240.0400
742.1890, 22.66602
743.3380, 14.40137
744.4880, 60.83789
745.6380, 40.93457
746.7870, 44.40527
747.9360, 192.5859
749.0850, 40.75781
750.2340, 73.91699
751.3830, 133.0654
752.5310, 75.20410
753.6800, 96.57324
754.8280, 159.8232
755.9760, 38.06934
757.1240, 209.0889
758.2720, 75.94922
759.4190, 1.860352
760.5670, 305.9951
761.7140, 241.0488
762.8610, 189.0918
764.0080, 359.0039
765.1550, 128.9707
766.3020, 142.9785
767.4480, 36.91016
768.5950, 18.83887
769.7410, 21.74414
770.8870, 106.5479
772.0330, 93.10547
773.1780, 76.97949
774.3240, 92.84277
775.4690, 15.30469
776.6140, 78.61133
777.7590, 221.3535
778.9040, 15.98340
780.0490, 135.6123
781.1940, 57.58789
782.3380, 128.0312
783.4820, 194.4980
784.6260, 74.16211
785.7700, 122.8945
786.9140, 44.52051
788.0580, 6.358398
789.2010, 76.17871
790.3450, 2.708008
791.4880, 70.87500
792.6310, 29.45508
793.7730, 112.8789
794.9160, 125.0938
796.0590, 144.8750
797.2010, 206.8770
798.3430, 107.4131
799.4850, 10.23145
800.6270, 34.27148
801.7690, 80.76367
802.9100, 135.2461
804.0520, 98.52832
805.1930, 133.0674
806.3340, 103.3223
807.4750, 64.44043
808.6160, 40.73438
809.7560, 63.16211
810.8970, 33.57812
812.0370, 70.98438
813.1770, 81.13379
814.3170, 78.58789
815.4570, 152.8926
816.5960, 82.25684
817.7360, 98.52832
818.8750, 90.68750
820.0140, 189.0488
821.1530, 131.3105
822.2920, 162.6729
823.4310, 76.67773
824.5690, 205.9414
825.7070, 207.2402
826.8460, 125.9521
827.9840, 244.2344
829.1220, 158.2363
830.2590, 287.8330
831.3970, 120.0859
832.5340, 248.4209
833.6710, 85.65234
834.8080, 226.8711
835.9450, 159.0820
837.0820, 6.287109
838.2190, 90.46973
839.3550, 73.64160
840.4910, 81.80176
841.6270, 231.9512
842.7630, 281.0898
843.8990, 193.2178
845.0350, 204.3389
846.1700, 204.4482
847.3060, 131.5576
848.4410, 210.6475
849.5760, 219.7266
850.7100, 113.7969
851.8450, 182.8574
852.9800, 233.9072
854.1140, 283.9473
855.2480, 338.9785
856.3820, 280.0195
857.5160, 125.0527
858.6500, 93.07520
859.7830, 192.0889
860.9170, 239.0938
862.0500, 272.0869
863.1830, 318.0713
864.3160, 145.0469
865.4480, 170.0127
866.5810, 148.9688
867.7130, 351.9170
868.8460, 301.8545
869.9780, 131.7832
871.1100, 218.7012
872.2410, 115.6143
873.3730, 319.5186
874.5050, 18.08594
875.6360, 253.9668
876.7670, 200.5928
877.8980, 170.4561
879.0290, 112.1553
880.1590, 137.3613
881.2900, 181.0078
882.4200, 54.52539
883.5500, 160.0840
884.6800, 110.8945
885.8100, 152.4219
886.9400, 269.0820
888.0690, 200.8691
889.1990, 33.51562
890.3280, 59.24414
891.4570, 31.00586
892.5860, 107.4707
893.7140, 82.21484
894.8430, 60.82617
895.9710, 198.6660
897.1000, 98.38867
898.2280, 152.1016
899.3560, 154.0020
900.4830, 185.7012
901.6110, 75.51562
902.7380, 101.2012
903.8660, 74.59570
904.9930, 29.28906
906.1200, 67.10352
907.2460, 1.761719
908.3730, 74.35742
909.5000, 142.8789
910.6260, 191.4609
911.7520, 50.33203
912.8780, 149.8438
914.0040, 92.45703
915.1290, 166.2676
916.2550, 119.8730
917.3800, 131.2812
918.5050, 33.12109
919.6300, 21.44531
920.7550, 160.8750
921.8800, 52.43164
923.0040, 140.3340
924.1290, 108.6289
925.2530, 199.5391
926.3770, 177.0566
927.5010, 120.4551
928.6250, 135.6602
929.7480, 5.812500
930.8720, 2.720703
931.9950, 50.75586
933.1180, 78.73438
934.2410, 90.22070
935.3640, 179.1172
936.4860, 155.2949
937.6090, 151.6699
938.7310, 256.1387
939.8530, 28.58203
940.9750, 55.95508
942.0970, 153.5449
943.2180, 11.41602
944.3400, 170.5840
945.4610, 113.6914
946.5820, 195.6289
947.7030, 110.7656
948.8240, 291.9434
949.9450, 244.1074
951.0650, 109.4219
952.1860, 185.5977
953.3060, 28.16016
954.4260, 22.02734
955.5460, 161.3086
956.6650, 146.5879
957.7850, 43.13672
958.9040, 117.9512
960.0230, 228.1973
961.1420, 55.55859
962.2610, 34.65039
963.3800, 12.13867
964.4990, 38.94141
965.6170, 199.2324
966.7350, 7.404297
967.8530, 179.5723
968.9710, 100.6016
970.0890, 171.7637
971.2070, 119.9258
972.3240, 44.88867
973.4410, 54.93750
974.5580, 70.91406
975.6750, 180.9258
976.7920, 227.0762
977.9090, 76.22461
979.0250, 159.3750
980.1410, 321.5215
981.2580, 17.66602
982.3740, 189.8887
983.4890, 345.0312
984.6050, 331.1699
985.7200, 358.3105
986.8360, 303.4492
987.9510, 329.5840
989.0660, 436.7383
990.1810, 313.8906
991.2950, 378.0508
992.4100, 522.2109
993.5240, 432.3281
994.6390, 496.5195
995.7530, 609.7109
996.8660, 644.9043
997.9800, 615.0977
999.0940, 829.2891
1000.207, 772.4805
1001.320, 794.6719
1002.433, 982.8633
1003.546, 870.0566
1004.659, 1101.246
1005.772, 1116.439
1006.884, 1195.629
1007.996, 1395.820
1009.108, 1394.482
1010.220, 1502.674
1011.332, 1646.867
1012.444, 1764.064
1013.555, 1852.283
1014.666, 1646.508
1015.777, 1636.736
1016.888, 1271.812
1017.999, 1099.055
1019.110, 752.3008
1020.220, 527.5664
1021.331, 609.8398
1022.441, 297.1211
1023.551, 282.1602
1024.661, 253.3105
1025.770, 396.3418
1026.880, 107.6289
1027.989, 219.8848
1029.098, 335.0527
1030.207, 27.34570
1031.316, 132.6387
1032.425, 8.066406
1033.533, 176.2266
1034.642, 157.5215
1035.750, 112.8457
1036.858, 185.1777
1037.966, 187.5059
1039.073, 229.6504
1040.181, 164.9570
1041.288, 219.6270
1042.396, 271.9727
1043.503, 290.3203
1044.610, 127.6680
1045.716, 343.9355
1046.823, 170.3008
1047.929, 220.6641
1049.036, 228.0391
1050.142, 237.4141
1051.248, 274.7949
1052.353, 196.4609
1053.459, 115.6543
1054.564, 385.3184
1055.670, 254.4629
1056.775, 140.8652
1057.880, 485.2793
1058.985, 467.7188
1060.089, 602.1621
1061.194, 745.6113
1062.298, 679.0703
1063.402, 703.5039
1064.506, 756.7383
1065.610, 828.7500
1066.713, 929.2207
1067.817, 1053.691
1068.920, 1410.172
1070.023, 1581.656
1071.126, 1998.143
1072.229, 2692.633
1073.332, 3642.047
1074.435, 4876.863
1075.537, 7336.553
1076.639, 10323.19
1077.741, 14936.70
1078.843, 22001.21
1079.945, 29343.73
1081.046, 36617.27
1082.148, 42239.79
1083.249, 43092.34
1084.350, 37413.88
1085.451, 29215.42
1086.551, 21564.17
1087.652, 14896.66
1088.752, 10030.22
1089.853, 6379.783
1090.953, 4200.664
1092.053, 2730.232
1093.152, 1909.803
1094.252, 1356.955
1095.351, 891.5332
1096.451, 853.3887
1097.550, 641.6387
1098.649, 405.2285
1099.748, 537.7285
1100.846, 491.3262
1101.945, 296.9336
1103.043, 341.5410
1104.141, 378.1523
1105.239, 167.7734
1106.337, 276.3984
1107.434, 366.0312
1108.532, 281.6660
1109.629, 245.3066
1110.726, 271.2461
1111.823, 19.89453
1112.920, 234.5488
1114.017, 6.806641
1115.113, 242.8535
1116.210, 200.5195
1117.306, 257.1875
1118.402, 142.8613
1119.498, 165.5664
1120.593, 366.7754
1121.689, 342.4941
1122.784, 330.4023
1123.879, 140.7969
1124.974, 198.9980
1126.069, 307.8906
1127.164, 184.6621
1128.259, 265.9941
1129.353, 195.7480
1130.447, 198.5039
1131.541, 41.36133
1132.635, 116.1250
1133.729, 25.89062
1134.822, 49.84766
1135.916, 81.61133
1137.009, 112.4004
1138.102, 95.18359
1139.195, 227.9668
1140.288, 124.7559
1141.380, 84.55078
1142.473, 257.3477
1143.565, 213.8711
1144.657, 153.5449
1145.749, 72.34961
1146.841, 311.1602
1147.932, 162.9746
1149.024, 297.7930
1150.115, 46.06055
1151.206, 62.15234
1152.297, 429.1875
1153.388, 238.6152
1154.479, 215.4453
1155.569, 13.27734
1156.659, 162.1172
1157.750, 187.9590
1158.839, 190.8027
1159.929, 68.65039
1161.019, 222.4980
1162.108, 123.3945
1163.198, 161.2480
1164.287, 98.03711
1165.376, 118.8965
1166.465, 247.7598
1167.553, 4.623047
1168.642, 89.49023
1169.730, 218.3594
1170.818, 113.2324
1171.906, 237.1133
1172.994, 378.9941
1174.082, 79.87695
1175.170, 364.7637
1176.257, 2.650391
1177.344, 122.3613
1178.431, 156.2520
1179.518, 174.1484
1180.605, 10.04492
1181.691, 113.9453
1182.778, 21.12891
1183.864, 211.9355
1184.950, 10.14648
1186.036, 22.23047
1187.122, 92.68555
1188.207, 50.59961
1189.292, 4.513672
1190.378, 233.4336
1191.463, 180.3555
1192.548, 41.29492
1193.632, 68.78320
1194.717, 48.11328
1195.801, 124.0117
1196.886, 66.92773
1197.970, 253.8457
1199.054, 121.7656
1200.137, 260.6875
1201.221, 129.6074
1202.305, 268.5332
1203.388, 184.4570
1204.471, 195.4395
1205.554, 23.61523
1206.637, 187.3613
1207.719, 25.34375
1208.802, 155.3281
1209.884, 79.22266
1210.966, 149.2109
1212.048, 215.1973
1213.130, 83.24609
1214.212, 166.2383
1215.293, 210.2832
1216.374, 325.2773
1217.456, 81.28125
1218.536, 184.2871
1219.617, 2.294922
1220.698, 113.3027
1221.778, 201.3242
1222.859, 66.34766
1223.939, 51.37109
1225.019, 222.4258
1226.099, 300.4648
1227.178, 186.5078
1228.258, 386.5625
1229.337, 324.6191
1230.417, 186.6738
1231.496, 164.7324
1232.574, 209.7910
1233.653, 299.8516
1234.732, 215.9082
1235.810, 242.9688
1236.888, 94.02734
1237.966, 29.08789
1239.044, 148.1504
1240.122, 4.789063
1241.199, 125.2676
1242.277, 149.3242
1243.354, 154.3867
1244.431, 109.3672
1245.508, 98.42773
1246.585, 224.5840
1247.661, 33.80664
1248.738, 22.92188
1249.814, 70.09766
1250.890, 43.92383
1251.966, 17.05469
1253.042, 8.044922
1254.117, 85.04297
1255.193, 32.08789
1256.268, 19.84961
1257.343, 6.214844
1258.418, 83.97461
1259.493, 116.3926
1260.567, 6.830078
1261.642, 169.7637
1262.716, 112.6992
1263.790, 2.679688
1264.864, 99.61328
1265.938, 31.54688
1267.011, 200.4785
1268.085, 130.4121
1269.158, 36.34375
1270.231, 146.2734
1271.304, 128.2031
1272.377, 6.867188
1273.450, 40.94531
1274.522, 51.95117
1275.594, 196.8438
1276.666, 78.74023
1277.738, 119.6328
1278.810, 1.474609
1279.882, 62.58594
1280.953, 13.73633
1282.025, 19.89648
1283.096, 97.92578
1284.167, 87.52930
1285.238, 100.5723
1286.308, 117.4355
1287.379, 65.25586
1288.449, 67.08008
1289.519, 64.12500
1290.589, 32.12891
1291.659, 93.55078
1292.729, 13.37500
1293.798, 83.19531
1294.868, 127.0156
1295.937, 134.8594
1297.006, 112.7227
1298.075, 116.5840
1299.143, 269.4453
1300.212, 44.30664
1301.280, 236.1660
1302.348, 100.0273
1303.416, 352.8848
1304.484, 76.74609
1305.552, 5.394531
1306.620, 161.4570
1307.687, 145.3086
1308.754, 223.1582
1309.821, 291.0059
1310.888, 8.853516
1311.955, 88.69531
1313.021, 239.5352
1314.088, 54.09375
1315.154, 157.1172
1316.220, 82.94922
1317.286, 386.7734
1318.352, 333.5996
1319.417, 240.4199
1320.483, 23.76562
1321.548, 410.0254
1322.613, 105.1934
1323.678, 102.9844
1324.743, 256.7734
1325.807, 218.5625
1326.872, 244.3496
1327.936, 168.1367
1329.000, 271.9219
1330.064, 152.6973
1331.128, 181.4688
1332.191, 41.24023
1333.255, 95.01172
1334.318, 81.79297
1335.381, 201.5605
1336.444, 89.32812
1337.507, 38.90430
1338.569, 60.84766
1339.632, 78.59961
1340.694, 43.59180
1341.756, 67.50391
1342.818, 46.25391
1343.880, 190.0020
1344.941, 238.1250
1346.003, 105.9570
1347.064, 283.8750
1348.125, 181.6133
1349.186, 119.3223
1350.247, 73.01758
1351.308, 252.7148
1352.368, 58.41016
1353.428, 381.1016
1354.489, 360.7852
1355.549, 378.5859
1356.608, 307.2676
1357.668, 237.9492
1358.727, 231.7793
1359.787, 162.8594
1360.846, 253.1367
1361.905, 108.9453
1362.964, 220.6230
1364.022, 283.2969
1365.081, 273.9727
1366.139, 359.6484
1367.197, 236.3223
1368.255, 310.7012
1369.313, 194.3750
1370.371, 273.3691
1371.428, 196.4902
1372.486, 205.7129
1373.543, 47.38477
1374.600, 32.05469
1375.657, 86.27344
1376.713, 20.37109
1377.770, 89.51367
1378.826, 153.1445
1379.882, 91.59766
1380.938, 181.6953
1381.994, 195.8594
1383.050, 78.33984
1384.106, 395.9395
1385.161, 16.01367
1386.216, 84.61523
1387.271, 259.2461
1388.326, 278.7637
1389.381, 265.3945
1390.435, 55.02734
1391.490, 123.7559
1392.544, 118.3906
1393.598, 169.0215
1394.652, 107.6543
1395.705, 139.2910
1396.759, 160.9238
1397.812, 238.5527
1398.866, 360.1836
1399.919, 300.0977
1400.972, 322.0879
1402.024, 415.5078
1403.077, 306.1523
1404.129, 346.0566
1405.181, 147.4434
1406.233, 272.6484
1407.285, 224.0332
1408.337, 109.4844
1409.389, 177.5430
1410.440, 235.2090
1411.491, 235.8770
1412.542, 56.54883
1413.593, 151.4238
1414.644, 73.38672
1415.695, 163.4590
1416.745, 290.1523
1417.795, 275.8105
1418.845, 280.4785
1419.895, 240.0254
1420.945, 358.7012
1421.995, 374.6992
1423.044, 500.0254
1424.093, 472.7188
1425.142, 557.4199
1426.191, 473.1289
1427.240, 560.8359
1428.289, 733.6406
1429.337, 789.3730
1430.385, 918.1133
1431.433, 1113.939
1432.481, 1113.850
1433.529, 1239.590
1434.577, 1082.340
1435.624, 916.6641
1436.672, 719.0859
1437.719, 684.1699
1438.766, 602.3730
1439.812, 488.5078
1440.859, 315.5938
1441.905, 307.5684
1442.952, 277.4688
1443.998, 114.7617
1445.044, 295.5293
1446.090, 347.0879
1447.135, 248.4355
1448.181, 258.1953
1449.226, 90.96680
1450.271, 132.7363
1451.316, 91.50391
1452.361, 307.2734
1453.405, 172.9805
1454.450, 252.7578
1455.494, 223.4160
1456.538, 211.1621
1457.582, 247.8438
1458.626, 176.5293
1459.670, 395.2656
1460.713, 343.1992
1461.757, 185.7344
1462.800, 347.4473
1463.843, 255.1797
1464.886, 163.9121
1465.928, 42.64258
1466.971, 53.37500
1468.013, 129.1035
1469.055, 98.83398
1470.097, 26.56445
1471.139, 78.30078
1472.181, 58.03320
1473.222, 177.6426
1474.263, 140.9805
1475.305, 217.6191
1476.346, 162.2969
1477.386, 115.0195
1478.427, 182.8008
1479.468, 329.8926
1480.508, 66.65625
1481.548, 204.3496
1482.588, 142.1016
1483.628, 60.86133
1484.668, 259.6191
1485.707, 444.3789
1486.747, 68.16797
1487.786, 174.9805
1488.825, 406.7930
1489.864, 132.6445
1490.902, 159.5586
1491.941, 273.4883
1492.979, 193.3574
1494.017, 230.2871
1495.055, 40.21875
1496.093, 135.1562
1497.131, 133.0625
1498.168, 240.8672
1499.206, 350.6719
1500.243, 318.4785
1501.280, 156.2832
1502.317, 213.0918
1503.354, 120.9082
1504.390, 229.7324
1505.426, 83.57422
1506.463, 228.4336
1507.499, 237.3184
1508.535, 176.2246
1509.570, 465.1895
1510.606, 156.1895
1511.641, 335.1934
1512.676, 13.79688
1513.711, 145.2480
1514.746, 143.3359
1515.781, 62.43359
1516.816, 153.5430
1517.850, 220.6621
1518.884, 196.2676
1519.918, 257.9688
1520.952, 231.1855
1521.986, 207.4805
1523.019, 336.8867
1524.053, 150.2793
1525.086, 179.6973
1526.119, 194.8594
1527.152, 353.3711
1528.185, 327.4395
1529.217, 390.5508
1530.250, 381.2500
1531.282, 404.8711
1532.314, 473.2520
1533.346, 380.1621
1534.377, 484.8516
1535.409, 302.5859
1536.440, 210.3672
1537.472, 108.1992
1538.503, 94.66992
1539.534, 84.49219
1540.564, 177.5195
1541.595, 190.5664
1542.625, 300.0469
1543.656, 452.6465
1544.686, 261.4961
1545.716, 45.58008
1546.745, 33.54102
1547.775, 262.5645
1548.804, 527.7246
1549.834, 351.9453
1550.863, 331.2363
1551.892, 163.5781
1552.920, 265.0234
1553.949, 351.5234
1554.977, 170.3984
1556.006, 260.6094
1557.034, 396.0820
1558.062, 349.0547
1559.089, 374.5410
1560.117, 87.03320
1561.144, 364.4277
1562.172, 405.9980
1563.199, 96.54883
1564.226, 73.56445
1565.252, 239.5781
1566.279, 260.2188
1567.305, 0.8808590
1568.332, 162.9883
1569.358, 40.86523
1570.384, 0.0000000E+00
##END=



