##NAMES=Calcite
##RRUFFID=R050127
##IDEAL CHEMISTRY=CaCO_3_
##LOCALITY=Rodeo, Durango, Mexico
##OWNER=RRUFF
##SOURCE=Dave Bunk Minerals
##DESCRIPTION=Group of colorless crystals
##STATUS=The identification of this mineral has been confirmed by X-ray diffraction and chemical analysis
##URL=rruff.info/R050127
##MEASURED CHEMISTRY=Ca_1.00_CO_3_
##PIN_ID=M00388
##ORIENTATION=Laser parallel to a* (1 0 0). Fiducial mark perpendicular to laser is parallel to -c [0 0 -1]
109.5120, 0.0000000E+00
110.7440, 5.0659001E-02
111.9760, 68.59705
113.2080, 82.89966
114.4400, 38.62915
115.6710, 5.447510
116.9030, 50.43396
118.1340, 111.0968
119.3650, 40.40698
120.5960, 37.26306
121.8270, 28.58923
123.0580, 80.31982
124.2880, 54.40027
125.5190, 64.78955
126.7490, 61.45239
127.9790, 95.35962
129.2090, 147.4861
130.4390, 114.8092
131.6680, 196.3259
132.8980, 170.0156
134.1270, 286.8580
135.3560, 286.8292
136.5850, 422.9194
137.8140, 553.1194
139.0430, 663.4219
140.2710, 825.8406
141.5000, 924.3491
142.7280, 994.9427
143.9560, 1040.620
145.1840, 1033.375
146.4120, 1009.203
147.6390, 1101.097
148.8670, 1123.050
150.0940, 1319.057
151.3210, 1420.116
152.5490, 1578.224
153.7750, 1568.903
155.0020, 1485.086
156.2290, 1370.312
157.4550, 1172.755
158.6810, 894.0566
159.9080, 633.3959
161.1340, 586.7708
162.3590, 420.1812
163.5850, 321.6251
164.8110, 273.1014
166.0360, 251.6084
167.2610, 199.1447
168.4860, 185.7158
169.7110, 176.7512
170.9360, 159.3962
172.1610, 75.07166
173.3850, 125.7686
174.6100, 98.49121
175.8340, 144.2715
177.0580, 32.10352
178.2820, 16.96313
179.5050, 71.83582
180.7290, 50.72156
181.9520, 45.61987
183.1760, 80.52771
184.3990, 45.42664
185.6220, 32.31958
186.8450, 62.20813
188.0670, 89.10095
189.2900, 50.00354
190.5120, 59.91687
191.7340, 30.83423
192.9560, 61.75635
194.1780, 62.72192
195.4000, 97.69250
196.6220, 12.33093
197.8430, 35.65198
199.0640, 43.64136
200.2860, 76.64709
201.5070, 106.6737
202.7270, 29.71460
203.9480, 21.76868
205.1690, 6.167969
206.3890, 38.90186
207.6090, 67.98254
208.8290, 55.07410
210.0490, 51.17175
211.2690, 19.27588
212.4890, 89.39233
213.7080, 62.53125
214.9280, 78.68848
216.1470, 74.85107
217.3660, 49.01929
218.5850, 6.192871
219.8030, 10.37183
221.0220, 38.55664
222.2400, 25.74756
223.4590, 67.94434
224.6770, 30.14624
225.8950, 64.35327
227.1120, 34.16724
228.3300, 11.69458
229.5480, 100.5132
230.7650, 69.72559
231.9820, 37.31958
233.1990, 34.65747
234.4160, 65.87939
235.6330, 95.10571
236.8490, 41.33667
238.0660, 20.57349
239.2820, 68.28760
240.4980, 88.36621
241.7140, 65.31641
242.9300, 120.7896
244.1460, 60.42651
245.3610, 100.6428
246.5770, 143.8633
247.7920, 144.0872
249.0070, 149.3142
250.2220, 175.5447
251.4370, 186.7815
252.6510, 224.0242
253.8660, 217.2695
255.0800, 246.5178
256.2940, 282.5298
257.5080, 288.0386
258.7220, 320.8184
259.9360, 351.5718
261.1490, 417.3721
262.3630, 497.8354
263.5760, 473.2588
264.7890, 586.1692
266.0020, 674.1089
267.2150, 777.0752
268.4270, 934.0464
269.6400, 1129.060
270.8520, 1305.094
272.0640, 1626.147
273.2760, 1835.219
274.4880, 2209.307
275.7000, 2423.410
276.9120, 2685.073
278.1230, 2941.207
279.3340, 3023.353
280.5450, 3053.511
281.7560, 2835.682
282.9670, 2565.862
284.1780, 2243.053
285.3880, 1860.254
286.5980, 1490.464
287.8090, 1216.684
289.0190, 1024.911
290.2290, 815.5098
291.4380, 604.7532
292.6480, 500.6086
293.8570, 319.8660
295.0670, 368.6152
296.2760, 330.8857
297.4850, 283.5537
298.6930, 250.8359
299.9020, 251.1216
301.1110, 154.4126
302.3190, 134.7090
303.5270, 136.0093
304.7350, 150.9902
305.9430, 96.30054
307.1510, 90.61499
308.3580, 76.93433
309.5660, 133.2573
310.7730, 73.58594
311.9800, 104.9236
313.1870, 15.39355
314.3940, 111.3474
315.6010, 82.70044
316.8070, 1.104492
318.0130, 104.4634
319.2200, 41.82495
320.4260, 79.18945
321.6310, 71.55640
322.8370, 28.92505
324.0430, 13.29614
325.2480, 45.66919
326.4540, 88.04419
327.6590, 51.42065
328.8640, 33.81274
330.0680, 41.19653
331.2730, 37.58203
332.4780, 23.01025
333.6820, 34.44263
334.8860, 25.55566
336.0900, 27.64917
337.2940, 23.65015
338.4980, 34.04785
339.7010, 39.44727
340.9050, 47.84766
342.1080, 21.08936
343.3110, 12.50464
344.5140, 3.773682
345.7170, 15.11865
346.9200, 2.030273
348.1220, 6.432617
349.3240, 52.83545
350.5270, 93.18164
351.7290, 60.58667
352.9310, 8.007324
354.1320, 2.507080
355.3340, 38.89844
356.5350, 42.30420
357.7370, 56.71021
358.9380, 33.11694
360.1390, 41.52417
361.3400, 13.93164
362.5400, 42.33984
363.7410, 29.74780
364.9410, 42.48633
366.1410, 9.105225
367.3410, 47.30176
368.5410, 15.29126
369.7410, 30.11230
370.9400, 18.51611
372.1400, 28.08301
373.3390, 98.13672
374.5380, 4.473633
375.7370, 85.91504
376.9360, 23.69800
378.1350, 81.68213
379.3330, 51.06226
380.5310, 51.44214
381.7300, 77.83057
382.9280, 53.21826
384.1260, 19.60376
385.3230, 76.98535
386.5210, 60.35913
387.7180, 81.73193
388.9160, 72.09814
390.1130, 102.4646
391.3100, 118.5225
392.5060, 85.88867
393.7030, 54.25439
394.9000, 79.62109
396.0960, 109.9875
397.2920, 11.35352
398.4880, 47.71948
399.6840, 95.32959
400.8800, 42.69653
402.0750, 67.60278
403.2710, 69.71558
404.4660, 33.08960
405.6610, 32.46533
406.8560, 8.155273
408.0510, 37.22021
409.2450, 68.59741
410.4400, 20.97559
411.6340, 14.64502
412.8280, 29.72656
414.0220, 4.098633
415.2160, 51.47168
416.4100, 67.84473
417.6030, 78.21875
418.7970, 34.59277
419.9900, 38.68018
421.1830, 21.67261
422.3760, 26.02539
423.5690, 31.37866
424.7610, 77.73145
425.9540, 57.08447
427.1460, 27.43726
428.3380, 35.78979
429.5300, 12.14209
430.7220, 48.49390
431.9140, 40.84595
433.1050, 18.79370
434.2970, 8.545166
435.4880, 6.527588
436.6790, 33.22510
437.8700, 4.443359
439.0610, 13.88330
440.2510, 2.790771
441.4420, 61.53052
442.6320, 38.85132
443.8220, 28.17114
445.0120, 50.49023
446.2020, 34.83838
447.3910, 6.844238
448.5810, 70.46631
449.7700, 27.78442
450.9600, 22.09302
452.1490, 46.40063
453.3370, 31.91040
454.5260, 28.60449
455.7150, 4.343018
456.9030, 3.856201
458.0910, 19.94189
459.2800, 26.76318
460.4670, 16.51270
461.6550, 16.78735
462.8430, 40.06079
464.0300, 50.33252
465.2180, 53.60327
466.4050, 52.69458
467.5920, 57.14648
468.7790, 29.41919
469.9650, 30.02515
471.1520, 8.959961
472.3380, 18.00366
473.5250, 21.29419
474.7110, 8.561035
475.8970, 8.564209
477.0820, 12.13940
478.2680, 9.400879
479.4540, 31.89136
480.6390, 71.14893
481.8240, 72.40479
483.0090, 38.65918
484.1940, 75.91211
485.3780, 12.16382
486.5630, 1.926270
487.7470, 36.04297
488.9320, 35.65991
490.1160, 26.90210
491.3000, 50.14282
492.4830, 55.38159
493.6670, 19.61890
494.8500, 19.85425
496.0340, 6.770996
497.2170, 47.90137
498.4000, 75.13086
499.5820, 66.19995
500.7650, 44.58472
501.9480, 85.80933
503.1300, 82.03247
504.3120, 144.2539
505.4940, 103.4739
506.6760, 1.691895
507.8580, 46.90479
509.0390, 27.69556
510.2210, 33.90479
511.4020, 91.36108
512.5830, 109.5676
513.7640, 48.77271
514.9450, 61.42163
516.1250, 81.62402
517.3060, 76.59692
518.4860, 93.79639
519.6660, 38.69971
520.8460, 78.90845
522.0260, 59.11572
523.2060, 98.16016
524.3850, 76.36401
525.5650, 56.56641
526.7440, 51.76733
527.9230, 73.96631
529.1020, 124.1633
530.2810, 58.35889
531.4590, 55.57324
532.6380, 5.234375
533.8160, 46.99585
534.9940, 36.19092
536.1720, 52.50317
537.3500, 29.69458
538.5270, 25.88428
539.7050, 84.07227
540.8820, 2.258301
542.0590, 55.44043
543.2360, 1.620605
544.4130, 41.79614
545.5900, 55.96973
546.7660, 28.18408
547.9430, 79.35815
549.1190, 84.98462
550.2950, 32.23267
551.4710, 53.40112
552.6470, 17.56787
553.8220, 33.75220
554.9980, 35.91992
556.1730, 54.08545
557.3480, 104.2495
558.5230, 76.41211
559.6980, 81.32666
560.8730, 0.2685550
562.0470, 46.34131
563.2220, 20.49316
564.3960, 15.64307
565.5700, 83.79297
566.7440, 53.94116
567.9170, 61.08765
569.0910, 29.23242
570.2640, 32.37573
571.4380, 45.51709
572.6110, 34.65674
573.7840, 13.79492
574.9570, 63.56738
576.1290, 46.70190
577.3020, 12.22974
578.4740, 35.36060
579.6460, 22.07983
580.8180, 17.13281
581.9900, 49.86719
583.1620, 35.99170
584.3330, 86.11450
585.5040, 78.23608
586.6760, 7.355713
587.8470, 61.47339
589.0180, 43.91406
590.1880, 12.02856
591.3590, 57.14160
592.5290, 88.25293
593.7000, 0.6374510
594.8700, 19.52368
596.0400, 20.22705
597.2090, 20.72974
598.3790, 46.20459
599.5490, 63.27954
600.7180, 39.33716
601.8870, 48.40942
603.0560, 45.47998
604.2250, 74.54907
605.3940, 78.62622
606.5620, 108.7021
607.7300, 64.17383
608.8990, 18.24658
610.0670, 82.31787
611.2350, 24.38745
612.4020, 10.55762
613.5700, 9.323730
614.7370, 120.0068
615.9050, 4.042969
617.0720, 65.05420
618.2390, 69.10620
619.4060, 1.869873
620.5720, 27.17651
621.7390, 68.22144
622.9050, 102.2722
624.0710, 91.31665
625.2370, 35.35962
626.4030, 110.3982
627.5690, 74.11157
628.7340, 67.20361
629.9000, 105.2461
631.0650, 115.2864
632.2300, 34.32544
633.3950, 77.36279
634.5600, 195.3982
635.7240, 103.5134
636.8890, 81.45190
638.0530, 131.4849
639.2170, 59.51611
640.3810, 51.54907
641.5450, 134.6492
642.7080, 111.6792
643.8720, 105.7979
645.0350, 71.82544
646.1980, 152.8516
647.3610, 76.54565
648.5240, 137.5684
649.6870, 42.59155
650.8490, 98.80762
652.0120, 30.83374
653.1740, 44.85815
654.3360, 56.94482
655.4980, 74.97363
656.6600, 89.00098
657.8210, 96.02808
658.9830, 30.61621
660.1440, 94.01343
661.3050, 77.04224
662.4660, 26.93066
663.6270, 44.07837
664.7870, 43.23584
665.9480, 98.24121
667.1080, 72.24536
668.2680, 60.24731
669.4280, 56.24707
670.5880, 14.27759
671.7480, 102.3108
672.9070, 7.613525
674.0670, 43.51733
675.2260, 3.507080
676.3850, 59.49414
677.5440, 103.4792
678.7030, 74.46216
679.8610, 31.44312
681.0200, 86.17773
682.1780, 106.1550
683.3360, 73.85400
684.4940, 92.82910
685.6520, 12.72534
686.8090, 46.70288
687.9670, 139.6780
689.1240, 6.654053
690.2810, 106.6272
691.4380, 85.63306
692.5950, 72.60254
693.7520, 146.6912
694.9080, 117.6606
696.0650, 84.63501
697.2210, 83.62402
698.3770, 98.61328
699.5330, 171.6006
700.6880, 221.2327
701.8440, 240.2266
702.9990, 333.2437
704.1550, 688.4851
705.3100, 934.5327
706.4650, 1303.571
707.6190, 1523.560
708.7740, 1974.545
709.9290, 2504.529
711.0830, 2729.511
712.2370, 2416.491
713.3910, 1824.459
714.5450, 1346.440
715.6980, 963.4199
716.8520, 593.4062
718.0050, 376.3838
719.1580, 330.3918
720.3110, 171.3738
721.4640, 126.3496
722.6170, 123.3230
723.7700, 102.2939
724.9220, 72.26318
726.0740, 90.24536
727.2260, 78.20996
728.3780, 67.17578
729.5300, 88.13037
730.6810, 79.09155
731.8330, 62.05078
732.9840, 22.80444
734.1350, 0.4685060
735.2860, 86.01514
736.4370, 31.96436
737.5880, 80.91431
738.7380, 14.86255
739.8880, 75.81689
741.0390, 73.76953
742.1890, 90.71973
743.3380, 58.93213
744.4880, 74.87817
745.6380, 18.17749
746.7870, 59.75220
747.9360, 48.71411
749.0850, 30.63965
750.2340, 81.56323
751.3830, 3.291016
752.5310, 43.60205
753.6800, 19.55566
754.8280, 41.41626
755.9760, 65.32544
757.1240, 96.23267
758.2720, 65.90698
759.4190, 79.15796
760.5670, 22.71143
761.7140, 71.26099
762.8610, 26.15771
764.0080, 40.06250
765.1550, 117.9551
766.3020, 12.86401
767.4480, 130.7676
768.5950, 90.65771
769.7410, 70.54272
770.8870, 40.42578
772.0330, 49.32178
773.1780, 8.185791
774.3240, 69.07104
775.4690, 63.94971
776.6140, 47.82593
777.7590, 45.44165
778.9040, 10.31348
780.0490, 66.18262
781.1940, 8.049561
782.3380, 55.14917
783.4820, 82.01050
784.6260, 117.8701
785.7700, 92.72900
786.9140, 73.58569
788.0580, 2.440186
789.2010, 55.88550
790.3450, 39.73389
791.4880, 11.78979
792.6310, 119.6328
793.7730, 76.47754
794.9160, 27.36304
796.0590, 35.80078
797.2010, 0.7285160
798.3430, 50.09326
799.4850, 80.89697
800.6270, 28.85889
801.7690, 3.657959
802.9100, 67.45361
804.0520, 70.24683
805.1930, 76.04541
806.3340, 86.83423
807.4750, 17.62109
808.6160, 16.39282
809.7560, 60.17432
810.8970, 42.08887
812.0370, 52.66650
813.1770, 69.30078
814.3170, 95.05200
815.4570, 26.80078
816.5960, 87.54761
817.7360, 39.29199
818.8750, 95.03564
820.0140, 50.12646
821.1530, 109.8672
822.2920, 10.39453
823.4310, 85.83667
824.5690, 38.56250
825.7070, 55.31787
826.8460, 27.96167
827.9840, 17.68066
829.1220, 37.39722
830.2590, 12.88843
831.3970, 65.81396
832.5340, 115.0935
833.6710, 112.7241
834.8080, 85.86987
835.9450, 69.56250
837.0820, 56.25269
838.2190, 50.94214
839.3550, 26.71069
840.4910, 5.395020
841.6270, 18.15820
842.7630, 19.75049
843.8990, 37.42407
845.0350, 60.09497
846.1700, 58.76294
847.3060, 33.42896
848.4410, 93.09204
849.5760, 88.75244
850.7100, 122.4109
851.8450, 78.06665
852.9800, 26.71973
854.1140, 38.37036
855.2480, 23.01855
856.3820, 28.66357
857.5160, 58.30640
858.6500, 58.94678
859.7830, 55.58496
860.9170, 103.2202
862.0500, 18.85303
863.1830, 96.48315
864.3160, 119.1108
865.4480, 55.73633
866.5810, 93.35889
867.7130, 48.97998
868.8460, 39.59863
869.9780, 10.20776
871.1100, 21.62402
872.2410, 77.24756
873.3730, 141.8691
874.5050, 46.48804
875.6360, 123.0728
876.7670, 95.68726
877.8980, 80.29907
879.0290, 29.09131
880.1590, 71.49658
881.2900, 45.08228
882.4200, 89.26807
883.5500, 17.85327
884.6800, 95.43628
885.8100, 99.01685
886.9400, 35.59546
888.0690, 34.73022
889.1990, 15.31104
890.3280, 78.86914
891.4570, 114.4458
892.5860, 104.0205
893.7140, 38.59351
894.8430, 47.16553
895.9710, 51.73511
897.1000, 4.703857
898.2280, 63.85645
899.3560, 21.41455
900.4830, 35.97095
901.6110, 19.52515
902.7380, 20.02588
903.8660, 22.57617
904.9930, 24.46948
906.1200, 23.71606
907.2460, 34.21558
908.3730, 31.75854
909.5000, 20.21851
910.6260, 44.67432
911.7520, 89.21167
912.8780, 6.253418
914.0040, 65.27417
915.1290, 29.73071
916.2550, 24.25464
917.3800, 1.687500
918.5050, 38.20850
919.6300, 97.72778
920.7550, 131.2454
921.8800, 81.76147
923.0040, 43.27661
924.1290, 4.404785
925.2530, 30.10156
926.3770, 1.698486
927.5010, 60.04395
928.6250, 19.54297
929.7480, 9.040771
930.8720, 49.53662
931.9950, 0.5317380
933.1180, 13.59229
934.2410, 25.56616
935.3640, 105.5686
936.4860, 46.06299
937.6090, 53.40649
938.7310, 50.89844
939.8530, 14.38892
940.9750, 60.87842
942.0970, 86.36646
943.2180, 13.82178
944.3400, 41.27075
945.4610, 100.7556
946.5820, 121.3281
947.7030, 26.81079
948.8240, 87.29346
949.9450, 46.77515
951.0650, 58.25586
952.1860, 86.73584
953.3060, 23.21460
954.4260, 4.307129
955.5460, 40.16650
956.6650, 82.63940
957.7850, 23.81177
958.9040, 136.6462
960.0230, 2.103516
961.1420, 36.56030
962.2610, 38.01636
963.3800, 36.43750
964.4990, 26.89209
965.6170, 24.23340
966.7350, 25.30908
967.8530, 62.86597
968.9710, 7.456787
970.0890, 58.95288
971.2070, 51.36206
972.3240, 56.77100
973.4410, 17.82056
974.5580, 77.55737
975.6750, 42.70898
976.7920, 108.0513
977.9090, 102.4004
979.0250, 105.7976
980.1410, 54.19507
981.2580, 81.59180
982.3740, 85.98853
983.4890, 32.38525
984.6050, 63.78149
985.7200, 78.17798
986.8360, 109.5742
987.9510, 120.9551
989.0660, 79.35205
990.1810, 148.7188
991.2950, 76.10962
992.4100, 54.50659
993.5240, 133.9036
994.6390, 141.3008
995.7530, 168.6975
996.8660, 198.0500
997.9800, 197.4473
999.0940, 77.84448
1000.207, 98.24243
1001.320, 63.70923
1002.433, 54.10767
1003.546, 109.5120
1004.659, 139.8191
1005.772, 105.1956
1006.884, 138.6016
1007.996, 162.0078
1009.108, 138.4143
1010.220, 120.8213
1011.332, 170.2285
1012.444, 185.6357
1013.555, 98.78027
1014.666, 130.1885
1015.777, 81.59668
1016.888, 62.96143
1017.999, 145.3438
1019.110, 176.7593
1020.220, 150.1763
1021.331, 116.2451
1022.441, 69.67188
1023.551, 80.05859
1024.661, 85.51172
1025.770, 152.9312
1026.880, 151.3657
1027.989, 135.8008
1029.098, 181.2393
1030.207, 177.6777
1031.316, 158.4673
1032.425, 149.9077
1033.533, 97.33838
1034.642, 143.7803
1035.750, 89.20557
1036.858, 108.6353
1037.966, 172.0767
1039.073, 31.52197
1040.181, 197.9673
1041.288, 131.4136
1042.396, 84.86133
1043.503, 19.69971
1044.610, 101.7412
1045.716, 115.1831
1046.823, 146.9888
1047.929, 167.4321
1049.036, 128.9092
1050.142, 82.64697
1051.248, 89.15332
1052.353, 158.6108
1053.459, 201.0918
1054.564, 191.5620
1055.670, 216.0942
1056.775, 171.5664
1057.880, 144.4453
1058.985, 186.9204
1060.089, 227.1870
1061.194, 248.6641
1062.298, 343.5522
1063.402, 481.5703
1064.506, 527.0513
1065.610, 616.2832
1066.713, 697.7632
1067.817, 589.2598
1068.920, 579.7573
1070.023, 454.2563
1071.126, 573.7573
1072.229, 663.2588
1073.332, 760.7549
1074.435, 909.2588
1075.537, 1164.764
1076.639, 1675.263
1077.741, 2606.771
1078.843, 4266.282
1079.945, 8255.803
1081.046, 16411.33
1082.148, 25423.85
1083.249, 33799.38
1084.350, 47900.90
1085.451, 58247.43
1086.551, 51496.96
1087.652, 35804.15
1088.752, 23036.68
1089.853, 13592.22
1090.953, 7077.229
1092.053, 3579.777
1093.152, 2007.296
1094.252, 1220.847
1095.351, 920.3989
1096.451, 794.9531
1097.550, 553.3462
1098.649, 531.9082
1099.748, 463.8931
1100.846, 354.5269
1101.945, 329.8369
1103.043, 359.4165
1104.141, 268.9985
1105.239, 300.5820
1106.337, 196.0859
1107.434, 173.6772
1108.532, 235.2715
1109.629, 140.8677
1110.726, 68.46582
1111.823, 174.0664
1112.920, 204.6685
1114.017, 122.2720
1115.113, 126.8774
1116.210, 145.4849
1117.306, 154.0938
1118.402, 219.7090
1119.498, 183.4580
1120.593, 215.1074
1121.689, 167.7280
1122.784, 166.3511
1123.879, 170.8335
1124.974, 101.6025
1126.069, 152.2305
1127.164, 132.8604
1128.259, 74.49268
1129.353, 106.1255
1130.447, 15.76074
1131.541, 111.4551
1132.635, 3.906250
1133.729, 95.76416
1134.822, 33.68311
1135.916, 111.3330
1137.009, 68.98486
1138.102, 59.63916
1139.195, 90.29492
1140.288, 72.95264
1141.380, 95.61182
1142.473, 113.2729
1143.565, 52.93555
1144.657, 146.6001
1145.749, 66.27588
1146.841, 35.95312
1147.932, 23.36816
1149.024, 103.3037
1150.115, 24.97754
1151.206, 113.6543
1152.297, 17.03223
1153.388, 50.64062
1154.479, 25.34326
1155.569, 0.1630860
1156.659, 34.84082
1157.750, 4.519531
1158.839, 49.20020
1159.929, 30.47656
1161.019, 9.160156
1162.108, 36.88672
1163.198, 3.575684
1164.287, 56.26562
1165.376, 53.70898
1166.465, 5.687500
1167.553, 92.38232
1168.642, 40.07764
1169.730, 81.77539
1170.818, 95.49756
1171.906, 58.21387
1172.994, 106.9155
1174.082, 43.61816
1175.170, 21.40527
1176.257, 26.11035
1177.344, 4.183105
1178.431, 5.526855
1179.518, 1.479492
1180.605, 9.049316
1181.691, 8.205078
1182.778, 16.50537
1183.864, 0.7827150
1184.950, 57.57129
1186.036, 1.715332
1187.122, 35.99805
1188.207, 75.71338
1189.292, 36.43164
1190.378, 121.1514
1191.463, 48.87256
1192.548, 137.5957
1193.632, 82.31934
1194.717, 53.04443
1195.801, 27.77051
1196.886, 7.498535
1197.970, 30.22754
1199.054, 50.95801
1200.137, 88.68896
1201.221, 100.4209
1202.305, 97.15430
1203.388, 88.48438
1204.471, 9.624023
1205.554, 40.36035
1206.637, 36.09766
1207.719, 19.83594
1208.802, 37.57520
1209.884, 87.31494
1210.966, 7.055664
1212.048, 125.7974
1213.130, 29.53955
1214.212, 41.28223
1215.293, 34.02539
1216.374, 66.88525
1217.456, 41.63037
1218.536, 13.37695
1219.617, 9.722168
1220.698, 24.47070
1221.778, 32.22656
1222.859, 26.98242
1223.939, 57.73926
1225.019, 53.49756
1226.099, 70.25635
1227.178, 14.98389
1228.258, 46.76807
1229.337, 7.780762
1230.417, 44.64111
1231.496, 19.14062
1232.574, 107.6289
1233.653, 77.39746
1234.732, 76.16797
1235.810, 80.93750
1236.888, 37.68359
1237.966, 44.66699
1239.044, 63.28760
1240.122, 34.06299
1241.199, 83.83838
1242.277, 98.61328
1243.354, 48.38916
1244.431, 99.16504
1245.508, 48.94043
1246.585, 48.71582
1247.661, 83.60645
1248.738, 0.3818360
1249.814, 5.157715
1250.890, 50.93359
1251.966, 43.70898
1253.042, 45.48486
1254.117, 103.2900
1255.193, 22.06543
1256.268, 49.84131
1257.343, 42.61621
1258.418, 112.3916
1259.493, 86.16650
1260.567, 2.941895
1261.642, 50.71533
1262.716, 10.96680
1263.790, 17.26025
1264.864, 43.50146
1265.938, 71.26367
1267.011, 39.14111
1268.085, 72.92871
1269.158, 72.68994
1270.231, 32.53271
1271.304, 22.29248
1272.377, 62.05273
1273.450, 43.81201
1274.522, 57.57129
1275.594, 57.33057
1276.666, 112.0889
1277.738, 64.89795
1278.810, 55.77832
1279.882, 40.54395
1280.953, 22.68896
1282.025, 53.41895
1283.096, 13.17041
1284.167, 15.07812
1285.238, 63.65771
1286.308, 87.39893
1287.379, 113.1406
1288.449, 6.118652
1289.519, 34.61621
1290.589, 11.35107
1291.659, 69.08545
1292.729, 88.81934
1293.798, 19.55273
1294.868, 16.28516
1295.937, 71.01758
1297.006, 68.75000
1298.075, 52.48193
1299.143, 68.40137
1300.212, 13.94385
1301.280, 58.67432
1302.348, 63.40430
1303.416, 64.13330
1304.484, 108.8662
1305.552, 56.59814
1306.620, 71.22510
1307.687, 62.96143
1308.754, 75.66553
1309.821, 29.89209
1310.888, 102.5391
1311.955, 121.2554
1313.021, 38.05225
1314.088, 42.64160
1315.154, 53.27393
1316.220, 32.96631
1317.286, 72.65723
1318.352, 70.34717
1319.417, 88.03564
1320.483, 83.72266
1321.548, 121.4053
1322.613, 110.2256
1323.678, 106.7168
1324.743, 117.4512
1325.807, 68.13330
1326.872, 99.81445
1327.936, 56.49561
1329.000, 110.1768
1330.064, 76.85791
1331.128, 86.68164
1332.191, 77.36230
1333.255, 67.09814
1334.318, 113.7773
1335.381, 54.44873
1336.444, 95.16504
1337.507, 64.83545
1338.569, 51.50537
1339.632, 119.1743
1340.694, 91.82910
1341.756, 105.4839
1342.818, 84.13770
1343.880, 5.786621
1344.941, 55.48389
1346.003, 89.13086
1347.064, 20.22314
1348.125, 120.4160
1349.186, 55.04785
1350.247, 109.6797
1351.308, 123.3101
1352.368, 110.2363
1353.428, 36.86572
1354.489, 74.49414
1355.549, 106.2842
1356.608, 0.9023440
1357.668, 10.58057
1358.727, 33.80566
1359.787, 88.61475
1360.846, 77.21631
1361.905, 99.92627
1362.964, 52.52588
1364.022, 10.87549
1365.081, 69.71826
1366.139, 22.31055
1367.197, 100.9019
1368.255, 106.4922
1369.313, 116.0820
1370.371, 129.9238
1371.428, 73.25928
1372.486, 81.84619
1373.543, 79.43311
1374.600, 12.98096
1375.657, 75.59912
1376.713, 50.37842
1377.770, 40.03271
1378.826, 98.60986
1379.882, 75.24023
1380.938, 30.81641
1381.994, 87.39160
1383.050, 82.96582
1384.106, 126.5405
1385.161, 118.6846
1386.216, 51.68701
1387.271, 75.25977
1388.326, 49.77490
1389.381, 19.65283
1390.435, 91.88672
1391.490, 73.17773
1392.544, 47.73975
1393.598, 11.30127
1394.652, 32.86133
1395.705, 40.42188
1396.759, 19.98193
1397.812, 73.54199
1398.866, 66.10205
1399.919, 105.6616
1400.972, 60.21875
1402.024, 117.7759
1403.077, 86.33350
1404.129, 41.89062
1405.181, 15.35645
1406.233, 73.91748
1407.285, 98.76172
1408.337, 128.6875
1409.389, 143.2549
1410.440, 120.7939
1411.491, 159.5010
1412.542, 136.0659
1413.593, 127.6895
1414.644, 144.2539
1415.695, 94.22510
1416.745, 82.79248
1417.795, 106.3188
1418.845, 119.8896
1419.895, 123.4619
1420.945, 151.0244
1421.995, 112.5752
1423.044, 152.1533
1424.093, 175.7344
1425.142, 194.3179
1426.191, 160.9043
1427.240, 273.4033
1428.289, 269.9355
1429.337, 229.4692
1430.385, 358.9927
1431.433, 437.5146
1432.481, 625.0356
1433.529, 916.9253
1434.577, 991.4438
1435.624, 875.9600
1436.672, 604.3398
1437.719, 513.9463
1438.766, 324.4590
1439.812, 259.8691
1440.859, 199.2783
1441.905, 147.6709
1442.952, 136.0293
1443.998, 130.3696
1445.044, 242.8032
1446.090, 185.9375
1447.135, 189.5933
1448.181, 109.2461
1449.226, 182.8979
1450.271, 163.5483
1451.316, 222.1982
1452.361, 187.5488
1453.405, 169.4927
1454.450, 98.13818
1455.494, 82.78174
1456.538, 14.42480
1457.582, 137.0674
1458.626, 35.58203
1459.670, 127.2217
1460.713, 106.0693
1461.757, 37.69092
1462.800, 78.31055
1463.843, 142.9282
1464.886, 100.2510
1465.928, 95.87988
1466.971, 96.48438
1468.013, 106.0874
1469.055, 67.51123
1470.097, 35.03613
1471.139, 142.6255
1472.181, 167.2134
1473.222, 129.8013
1474.263, 118.9648
1475.305, 87.53467
1476.346, 56.10303
1477.386, 1.368652
1478.427, 55.19678
1479.468, 118.7617
1480.508, 73.32617
1481.548, 100.7544
1482.588, 32.30908
1483.628, 152.6616
1484.668, 151.0947
1485.707, 74.64307
1486.747, 22.18945
1487.786, 140.7354
1488.825, 107.0962
1489.864, 105.6108
1490.902, 124.1431
1491.941, 50.68018
1492.979, 113.2212
1494.017, 52.76514
1495.055, 81.31201
1496.093, 79.85693
1497.131, 91.40137
1498.168, 83.94287
1499.206, 54.48193
1500.243, 96.02051
1501.280, 1.442383
1502.317, 26.95068
1503.354, 84.60742
1504.390, 40.13721
1505.426, 88.68066
1506.463, 132.2593
1507.499, 142.8418
1508.535, 107.4297
1509.570, 88.03223
1510.606, 74.63965
1511.641, 119.2441
1512.676, 113.8452
1513.711, 115.4438
1514.746, 116.7251
1515.781, 125.1865
1516.816, 138.1455
1517.850, 86.31689
1518.884, 148.9668
1519.918, 146.6475
1520.952, 100.2329
1521.986, 167.9429
1523.019, 90.67236
1524.053, 187.4229
1525.086, 197.3853
1526.119, 111.1309
1527.152, 202.7603
1528.185, 117.5762
1529.217, 23.91699
1530.250, 210.9170
1531.282, 10.76660
1532.314, 104.6294
1533.346, 89.50635
1534.377, 137.3984
1535.409, 13.30811
1536.440, 143.0527
1537.472, 53.57324
1538.503, 97.29053
1539.534, 155.2212
1540.564, 134.1709
1541.595, 166.1392
1542.625, 107.1299
1543.656, 88.15967
1544.686, 153.2227
1545.716, 104.3130
1546.745, 127.4351
1547.775, 120.5830
1548.804, 154.8003
1549.834, 203.0576
1550.863, 93.69141
1551.892, 150.5825
1552.920, 197.1611
1553.949, 117.6792
1554.977, 188.6621
1556.006, 115.9941
1557.034, 9.789063
1558.062, 88.27539
1559.089, 93.13330
1560.117, 190.7119
1561.144, 54.52490
1562.172, 150.9712
1563.199, 9.645020
1564.226, 146.2202
1565.252, 149.5537
1566.279, 62.78223
1567.305, 19.99756
1568.332, 7.4707001E-02
1569.358, 15.36328
1570.384, 0.0000000E+00
##END=



