##NAMES=Calcite
##RRUFFID=R050307
##IDEAL CHEMISTRY=CaCO_3_
##LOCALITY=Zaire
##OWNER=RRUFF
##SOURCE=Eugene Schlepp
##DESCRIPTION=Group of pink prismatic crystals
##STATUS=The identification of this mineral has been confirmed by X-ray diffraction and chemical analysis
##URL=rruff.info/R050307
##MEASURED CHEMISTRY=Ca_1.00_CO_3_
##PIN_ID=L01569
##ORIENTATION=Laser parallel to -c* (0 0 -1). Fiducial mark perpendicular to laser is parallel to a [1 0 0]
116.9030, 0.0000000E+00
118.1340, 52.82471
119.3650, 83.98633
120.5960, 4.214844
121.8270, 64.85840
123.0580, 93.79150
124.2880, 109.0654
125.5190, 0.8027340
126.7490, 40.84717
127.9790, 80.76367
129.2090, 140.7510
130.4390, 168.5938
131.6680, 89.36523
132.8980, 210.7725
134.1270, 126.8018
135.3560, 87.38867
136.5850, 258.4766
137.8140, 195.0176
139.0430, 260.9668
140.2710, 277.2881
141.5000, 269.9482
142.7280, 339.9170
143.9560, 416.1719
145.1840, 556.6914
146.4120, 546.4551
147.6390, 561.4531
148.8670, 555.6709
150.0940, 801.0957
151.3210, 862.7148
152.5490, 967.5176
153.7750, 1043.499
155.0020, 927.6436
156.2290, 927.9336
157.4550, 695.3613
158.6810, 585.9199
159.9080, 528.5977
161.1340, 375.3877
162.3590, 393.2842
163.5850, 390.2803
164.8110, 349.3711
166.0360, 340.9990
167.2610, 227.8213
168.4860, 268.1855
169.7110, 216.6299
170.9360, 151.1523
172.1610, 242.7471
173.3850, 193.4131
174.6100, 292.1475
175.8340, 208.9473
177.0580, 222.9375
178.2820, 180.9863
179.5050, 220.0889
180.7290, 152.2432
181.9520, 190.4482
183.1760, 147.7451
184.3990, 148.1152
185.6220, 52.53027
186.8450, 292.0254
188.0670, 102.5674
189.2900, 126.2266
190.5120, 297.9082
191.7340, 171.5684
192.9560, 224.2129
194.1780, 321.8584
195.4000, 185.5352
196.6220, 184.2881
197.8430, 140.0488
199.0640, 201.8203
200.2860, 111.6045
201.5070, 194.4033
202.7270, 125.2188
203.9480, 159.0508
205.1690, 205.9033
206.3890, 192.7754
207.6090, 208.6689
208.8290, 236.0166
210.0490, 130.5205
211.2690, 245.4814
212.4890, 167.4629
213.7080, 84.46582
214.9280, 212.4932
216.1470, 90.54297
217.3660, 250.6162
218.5850, 193.2480
219.8030, 108.3848
221.0220, 37.54590
222.2400, 217.7275
223.4590, 155.9316
224.6770, 136.1572
225.8950, 203.4053
227.1120, 90.67480
228.3300, 106.9658
229.5480, 167.2773
230.7650, 81.61035
231.9820, 29.96387
233.1990, 228.3389
234.4160, 142.7344
235.6330, 175.2100
236.8490, 107.5820
238.0660, 310.2041
239.2820, 255.6152
240.4980, 171.0479
241.7140, 226.5039
242.9300, 143.9795
244.1460, 139.4756
245.3610, 215.9932
246.5770, 169.5352
247.7920, 133.9668
249.0070, 244.2744
250.2220, 169.8584
251.4370, 154.4805
252.6510, 234.1211
253.8660, 328.7793
255.0800, 277.4727
256.2940, 237.1553
257.5080, 414.1064
258.7220, 295.8203
259.9360, 263.9395
261.1490, 306.6475
262.3630, 329.4922
263.5760, 324.5889
264.7890, 364.8223
266.0020, 549.1445
267.2150, 494.4043
268.4270, 519.9678
269.6400, 790.6289
270.8520, 860.6953
272.0640, 1033.516
273.2760, 1184.653
274.4880, 1137.446
275.7000, 1387.467
276.9120, 1475.543
278.1230, 1550.670
279.3340, 1380.850
280.5450, 1524.074
281.7560, 1343.342
282.9670, 1267.649
284.1780, 1185.995
285.3880, 930.3779
286.5980, 746.7949
287.8090, 633.2451
289.0190, 569.7266
290.2290, 484.2393
291.4380, 491.7812
292.6480, 347.3496
293.8570, 343.9463
295.0670, 248.5684
296.2760, 180.2139
297.4850, 291.8857
298.6930, 167.6582
299.9020, 226.3750
301.1110, 157.1133
302.3190, 220.8721
303.5270, 91.66406
304.7350, 100.4746
305.9430, 206.3047
307.1510, 88.15332
308.3580, 122.0205
309.5660, 57.90527
310.7730, 14.80859
311.9800, 45.72852
313.1870, 257.6650
314.3940, 140.6240
315.6010, 159.6006
316.8070, 199.5908
318.0130, 19.40332
319.2200, 61.61621
320.4260, 108.6270
321.6310, 28.67480
322.8370, 146.7373
324.0430, 164.8115
325.2480, 42.89941
326.4540, 147.0010
327.6590, 229.1133
328.8640, 51.23828
330.0680, 163.3760
331.2730, 74.52344
332.4780, 132.6826
333.6820, 130.8535
334.8860, 92.03418
336.0900, 117.2246
337.2940, 20.42676
338.4980, 98.63965
339.7010, 124.8623
340.9050, 49.09570
342.1080, 66.33887
343.3110, 36.59277
344.5140, 138.8555
345.7170, 67.12988
346.9200, 210.4131
348.1220, 110.7080
349.3240, 196.0107
350.5270, 228.3232
351.7290, 112.3545
352.9310, 68.95703
354.1320, 176.2773
355.3340, 6.607422
356.5350, 211.9473
357.7370, 8.703125
358.9380, 160.6543
360.1390, 208.0195
361.3400, 203.4160
362.5400, 8.003906
363.7410, 194.4355
364.9410, 99.87695
366.1410, 67.32520
367.3410, 243.7832
368.5410, 141.2480
369.7410, 53.72168
370.9400, 34.20410
372.1400, 135.8701
373.3390, 66.63086
374.5380, 150.2480
375.7370, 23.17090
376.9360, 131.3477
378.1350, 59.12695
379.3330, 127.3945
380.5310, 67.89746
381.7300, 60.17480
382.9280, 36.69629
384.1260, 31.40332
385.3230, 46.09961
386.5210, 28.49902
387.7180, 107.0586
388.9160, 74.62598
390.1130, 135.2002
391.3100, 43.55566
392.5060, 27.01855
393.7030, 100.5879
394.9000, 5.835938
396.0960, 121.7441
397.2920, 128.3320
398.4880, 34.92480
399.6840, 87.48535
400.8800, 109.0928
402.0750, 107.6748
403.2710, 133.2627
404.4660, 153.2236
405.6610, 1.195313
406.8560, 82.38965
408.0510, 16.98926
409.2450, 136.6240
410.4400, 229.2734
411.6340, 36.93457
412.8280, 133.6074
414.0220, 5.709961
415.2160, 45.98145
416.4100, 64.31738
417.6030, 56.52637
418.7970, 123.1406
419.9900, 5.818359
421.1830, 163.5020
422.3760, 6.039063
423.5690, 8.742188
424.7610, 93.45312
425.9540, 56.17188
427.1460, 38.89844
428.3380, 44.33301
429.5300, 53.37500
430.7220, 65.92383
431.9140, 87.87988
433.1050, 109.6426
434.2970, 120.4141
435.4880, 139.1904
436.6790, 11.97363
437.8700, 53.76367
439.0610, 15.54980
440.2510, 78.36230
441.4420, 3.169922
442.6320, 68.00195
443.8220, 97.82129
445.0120, 39.64648
446.2020, 139.0811
447.3910, 142.9170
448.5810, 73.75879
449.7700, 98.60547
450.9600, 88.45801
452.1490, 156.3145
453.3370, 34.17676
454.5260, 160.0439
455.7150, 157.9170
456.9030, 25.46289
458.0910, 58.34473
459.2800, 75.23145
460.4670, 211.1221
461.6550, 17.64258
462.8430, 31.45801
464.0300, 110.4277
465.2180, 109.3184
466.4050, 106.2148
467.5920, 250.2061
468.7790, 109.1104
469.9650, 103.0195
471.1520, 231.9316
472.3380, 117.8477
473.5250, 177.7686
474.7110, 52.69824
475.8970, 172.6309
477.0820, 17.56934
478.2680, 272.5117
479.4540, 99.45703
480.6390, 90.40625
481.8240, 26.35938
483.0090, 94.31445
484.1940, 33.27344
485.3780, 139.2354
486.5630, 45.20020
487.7470, 134.0176
488.9320, 83.16797
490.1160, 221.1416
491.3000, 245.1191
492.4830, 179.0977
493.6670, 54.09668
494.8500, 215.1543
496.0340, 32.16016
497.2170, 138.1680
498.4000, 167.1787
499.5820, 70.19043
500.7650, 42.01855
501.9480, 145.0361
503.1300, 60.44043
504.3120, 8.462891
505.4940, 23.94922
506.6760, 59.97461
507.8580, 30.00293
509.0390, 54.83301
510.2210, 65.06445
511.4020, 64.09961
512.5830, 23.13379
513.7640, 12.16895
514.9450, 9.414063
516.1250, 15.20898
517.3060, 17.55469
518.4860, 48.73730
519.6660, 55.77539
520.8460, 53.33105
522.0260, 117.3721
523.2060, 55.58691
524.3850, 163.2373
525.5650, 241.2480
526.7440, 149.8652
527.9230, 12.88184
529.1020, 28.91016
530.2810, 40.08594
531.4590, 55.11719
532.6380, 1.151367
533.8160, 93.26465
534.9940, 92.29395
536.1720, 271.3242
537.3500, 106.1113
538.5270, 211.1436
539.7050, 83.17578
540.8820, 96.20996
542.0590, 32.92676
543.2360, 109.9629
544.4130, 110.0000
545.5900, 4.037109
546.7660, 52.07129
547.9430, 93.01660
549.1190, 150.0791
550.2950, 226.8330
551.4710, 173.8975
552.6470, 157.9629
553.8220, 71.02832
554.9980, 134.0938
556.1730, 79.84082
557.3480, 143.9082
558.5230, 14.73340
559.6980, 162.9678
560.8730, 32.03418
562.0470, 84.10059
563.2220, 4.832031
564.3960, 86.22754
565.5700, 92.28711
566.7440, 139.3477
567.9170, 118.4062
569.0910, 166.4668
570.2640, 115.5283
571.4380, 67.58984
572.6110, 100.6514
573.7840, 41.71289
574.9570, 107.7754
576.1290, 143.8389
577.3020, 77.90137
578.4740, 263.9648
579.6460, 322.0283
580.8180, 94.09180
581.9900, 161.1553
583.1620, 22.13867
584.3330, 129.2002
585.5040, 83.26074
586.6760, 33.67969
587.8470, 81.40137
589.0180, 64.43652
590.1880, 254.4727
591.3590, 72.50586
592.5290, 202.5400
593.7000, 184.5703
594.8700, 238.6016
596.0400, 115.6309
597.2090, 17.14746
598.3790, 195.8652
599.5490, 127.8750
600.7180, 226.8887
601.8870, 362.9004
603.0560, 141.9131
604.2250, 162.9473
605.3940, 113.9580
606.5620, 277.4248
607.7300, 17.43262
608.8990, 95.43848
610.0670, 68.44336
611.2350, 256.4463
612.4020, 71.44727
613.5700, 74.44922
614.7370, 186.7393
615.9050, 205.7363
617.0720, 132.2803
618.2390, 169.2734
619.4060, 131.2666
620.5720, 131.2559
621.7390, 216.2451
622.9050, 153.2305
624.0710, 128.2158
625.2370, 205.1982
626.4030, 132.1826
627.5690, 24.16504
628.7340, 209.1748
629.9000, 116.1514
631.0650, 273.1357
632.2300, 150.1172
633.3950, 126.0820
634.5600, 163.1074
635.7240, 236.1016
636.8890, 239.0938
638.0530, 149.0850
639.2170, 168.0732
640.3810, 52.05859
641.5450, 235.0420
642.7080, 72.97754
643.8720, 132.9531
645.0350, 58.29785
646.1980, 98.58984
647.3610, 33.84668
648.5240, 220.7285
649.6870, 95.60742
650.8490, 82.48438
652.0120, 143.3574
653.1740, 64.22852
654.3360, 15.98926
655.4980, 105.5908
656.6600, 159.3389
657.8210, 150.1904
658.9830, 153.4141
660.1440, 220.9541
661.3050, 72.84375
662.4660, 48.72754
663.6270, 1.715820
664.7870, 186.9619
665.9480, 30.17090
667.1080, 104.1348
668.2680, 131.8955
669.4280, 17.90234
670.5880, 214.7480
671.7480, 141.7500
672.9070, 148.9268
674.0670, 247.7695
675.2260, 138.6406
676.3850, 51.47656
677.5440, 151.3096
678.7030, 77.13672
679.8610, 102.9619
681.0200, 231.7822
682.1780, 76.77441
683.3360, 222.6055
684.4940, 240.4326
685.6520, 210.9033
686.8090, 125.8643
687.9670, 243.6973
689.1240, 75.47266
690.2810, 81.31543
691.4380, 66.46289
692.5950, 172.2773
693.7520, 337.0879
694.9080, 288.9326
696.0650, 137.7412
697.2210, 315.5449
698.3770, 320.2490
699.5330, 309.0713
700.6880, 437.8877
701.8440, 644.6982
702.9990, 690.6621
704.1550, 798.4639
705.3100, 1171.261
706.4650, 1323.049
707.6190, 1675.088
708.7740, 2088.867
709.9290, 2229.906
711.0830, 2238.678
712.2370, 1979.445
713.3910, 1624.535
714.5450, 1078.586
715.6980, 769.3398
716.8520, 429.3828
718.0050, 255.2461
719.1580, 215.9824
720.3110, 261.7129
721.4640, 277.4375
722.6170, 98.13867
723.7700, 198.8535
724.9220, 162.6191
726.0740, 36.71875
727.2260, 75.41406
728.3780, 178.3418
729.5300, 131.0273
730.6810, 148.8672
731.8330, 310.3789
732.9840, 90.04883
734.1350, 63.70898
735.2860, 24.36523
736.4370, 99.34570
737.5880, 54.98633
738.7380, 109.3984
739.8880, 158.0312
741.0390, 282.6543
742.1890, 293.4746
743.3380, 142.0977
744.4880, 10.93164
745.6380, 198.5410
746.7870, 158.0508
747.9360, 226.8301
749.0850, 76.41992
750.2340, 59.06055
751.3830, 134.9609
752.5310, 6.466797
753.6800, 271.0879
754.8280, 7.861328
755.9760, 161.3984
757.1240, 104.9277
758.2720, 99.45312
759.4190, 164.9746
760.5670, 249.5742
761.7140, 156.4805
762.8610, 177.1953
764.0080, 112.2383
765.1550, 104.7266
766.3020, 56.25977
767.4480, 161.7363
768.5950, 239.3613
769.7410, 242.8242
770.8870, 48.72070
772.0330, 55.69531
773.1780, 83.21875
774.3240, 92.73828
775.4690, 175.3066
776.6140, 309.8867
777.7590, 131.3906
778.9040, 244.7637
780.0490, 107.1328
781.1940, 198.1133
782.3380, 187.9199
783.4820, 61.80859
784.6260, 9.154297
785.7700, 159.5879
786.9140, 130.9141
788.0580, 225.6523
789.2010, 211.9668
790.3450, 173.3496
791.4880, 47.65430
792.6310, 143.0352
793.7730, 175.5605
794.9160, 62.02344
796.0590, 244.5098
797.2010, 76.78320
798.3430, 143.0527
799.4850, 78.31250
800.6270, 47.56445
801.7690, 36.41797
802.9100, 89.51953
804.0520, 6.232422
805.1930, 36.52148
806.3340, 36.76367
807.4750, 127.9512
808.6160, 36.13867
809.7560, 386.4746
810.8970, 114.6523
812.0370, 67.87500
813.1770, 255.0391
814.3170, 76.19531
815.4570, 144.3457
816.5960, 170.4883
817.7360, 118.8262
818.8750, 39.95117
820.0140, 78.07227
821.1530, 184.3809
822.2920, 70.48633
823.4310, 85.70312
824.5690, 421.8281
825.7070, 243.8574
826.8460, 167.9727
827.9840, 13.99023
829.1220, 173.4336
830.2590, 136.4297
831.3970, 79.10547
832.5340, 138.9238
833.6710, 96.89844
834.8080, 194.1660
835.9450, 240.1777
837.0820, 210.2793
838.2190, 98.07227
839.3550, 177.0098
840.4910, 200.9375
841.6270, 195.8672
842.7630, 300.7832
843.8990, 32.83008
845.0350, 230.8418
846.1700, 32.01562
847.3060, 113.9414
848.4410, 218.1621
849.5760, 24.17969
850.7100, 28.03320
851.8450, 228.8750
852.9800, 27.71094
854.1140, 63.53320
855.2480, 238.3477
856.3820, 192.1523
857.5160, 109.9512
858.6500, 220.7383
859.7830, 168.5879
860.9170, 80.36133
862.0500, 223.1289
863.1830, 214.8535
864.3160, 37.61914
865.4480, 187.3711
866.5810, 168.1172
867.7130, 104.8555
868.8460, 198.5840
869.9780, 106.3066
871.1100, 101.0195
872.2410, 268.5371
873.3730, 156.2480
874.5050, 0.9511720
875.6360, 148.6406
876.7670, 213.4297
877.8980, 48.40039
879.0290, 163.0781
880.1590, 45.06836
881.2900, 214.2734
882.4200, 191.9297
883.5500, 53.66211
884.6800, 193.2969
885.8100, 83.91992
886.9400, 24.69531
888.0690, 127.3008
889.1990, 115.6055
890.3280, 43.19727
891.4570, 171.2285
892.5860, 134.8008
893.7140, 184.3652
894.8430, 96.14844
895.9710, 76.69531
897.1000, 14.23438
898.2280, 45.75977
899.3560, 3.277344
900.4830, 304.9727
901.6110, 78.46875
902.7380, 147.3066
903.8660, 23.19922
904.9930, 163.2656
906.1200, 142.7598
907.2460, 106.2832
908.3730, 67.72461
909.5000, 67.20508
910.6260, 53.67578
911.7520, 50.14062
912.8780, 66.59375
914.0040, 276.0508
915.1290, 234.6250
916.2550, 267.9258
917.3800, 5.564453
918.5050, 217.3867
919.6300, 138.8711
920.7550, 73.97461
921.8800, 216.4414
923.0040, 9.898438
924.1290, 129.3477
925.2530, 80.79883
926.3770, 131.2422
927.5010, 28.61133
928.6250, 43.47656
929.7480, 89.54102
930.8720, 50.78320
931.9950, 110.1328
933.1180, 192.4746
934.2410, 137.8086
935.3640, 142.1348
936.4860, 97.36523
937.6090, 43.54297
938.7310, 83.86523
939.8530, 55.28320
940.9750, 78.91602
942.0970, 66.03125
943.2180, 214.2969
944.3400, 62.39453
945.4610, 172.6465
946.5820, 85.88672
947.7030, 197.0879
948.8240, 119.3145
949.9450, 119.5312
951.0650, 263.7422
952.1860, 50.94531
953.3060, 268.1406
954.4260, 113.1680
955.5460, 53.34766
956.6650, 156.5156
957.7850, 4.355469
958.9040, 51.34961
960.0230, 185.7617
961.1420, 40.13672
962.2610, 130.9570
963.3800, 130.3203
964.4990, 119.6875
965.6170, 6.310547
966.7350, 9.361328
967.8530, 106.6582
968.9710, 24.62109
970.0890, 83.57422
971.2070, 120.5195
972.3240, 176.4570
973.4410, 158.4980
974.5580, 138.3105
975.6750, 95.22852
976.7920, 118.2852
977.9090, 63.21094
979.0250, 69.50195
980.1410, 28.73438
981.2580, 85.34961
982.3740, 13.22852
983.4890, 60.45898
984.6050, 102.1426
985.7200, 305.6914
986.8360, 276.1113
987.9510, 103.0527
989.0660, 281.7461
990.1810, 207.5547
991.2950, 131.3574
992.4100, 181.1523
993.5240, 81.93945
994.6390, 137.1055
995.7530, 147.2324
996.8660, 290.0117
997.9800, 155.2051
999.0940, 212.7305
1000.207, 284.4863
1001.320, 129.2383
1002.433, 239.0117
1003.546, 184.9316
1004.659, 155.0293
1005.772, 244.9473
1006.884, 155.7539
1007.996, 168.8281
1009.108, 198.7520
1010.220, 80.07812
1011.332, 34.75977
1012.444, 228.3086
1013.555, 25.97461
1014.666, 253.4160
1015.777, 101.0703
1016.888, 81.71484
1017.999, 179.1738
1019.110, 122.8047
1020.220, 65.37500
1021.331, 135.6641
1022.441, 139.4062
1023.551, 257.3105
1024.661, 237.8555
1025.770, 326.4473
1026.880, 217.0645
1027.989, 49.64258
1029.098, 183.2051
1030.207, 135.6797
1031.316, 209.8281
1032.425, 193.2871
1033.533, 58.75977
1034.642, 212.2832
1035.750, 13.72266
1036.858, 172.0566
1037.966, 450.4004
1039.073, 158.2148
1040.181, 109.3848
1041.288, 252.3945
1042.396, 219.8047
1043.503, 140.4336
1044.610, 172.8672
1045.716, 263.3320
1046.823, 285.2305
1047.929, 87.71484
1049.036, 326.1719
1050.142, 256.6426
1051.248, 36.65039
1052.353, 169.5801
1053.459, 231.0195
1054.564, 146.3672
1055.670, 245.8027
1056.775, 445.0645
1057.880, 436.4141
1058.985, 369.0215
1060.089, 159.4199
1061.194, 529.6797
1062.298, 381.2090
1063.402, 652.4023
1064.506, 340.5859
1065.610, 580.0176
1066.713, 613.5820
1067.817, 439.9180
1068.920, 600.5918
1070.023, 442.8984
1071.126, 576.9688
1072.229, 574.1973
1073.332, 702.0605
1074.435, 1094.715
1075.537, 1444.158
1076.639, 2517.434
1077.741, 4312.551
1078.843, 7258.092
1079.945, 12725.01
1081.046, 15760.57
1082.148, 21756.05
1083.249, 28600.32
1084.350, 33644.70
1085.451, 33823.86
1086.551, 28057.04
1087.652, 18520.32
1088.752, 9287.305
1089.853, 4407.469
1090.953, 2028.916
1092.053, 1328.168
1093.152, 809.3340
1094.252, 796.7109
1095.351, 674.3379
1096.451, 493.0430
1097.550, 196.3594
1098.649, 323.7988
1099.748, 103.0781
1100.846, 317.1816
1101.945, 184.0000
1103.043, 320.0566
1104.141, 398.1582
1105.239, 237.6758
1106.337, 367.7598
1107.434, 186.0176
1108.532, 81.14453
1109.629, 111.2031
1110.726, 355.1230
1111.823, 307.0508
1112.920, 310.7988
1114.017, 114.7715
1115.113, 28.43555
1116.210, 79.73438
1117.306, 145.7266
1118.402, 403.9004
1119.498, 276.8770
1120.593, 318.8438
1121.689, 436.8008
1122.784, 338.7969
1123.879, 256.7344
1124.974, 256.8379
1126.069, 28.69141
1127.164, 23.04492
1128.259, 276.6426
1129.353, 22.57422
1130.447, 246.7461
1131.541, 203.8223
1132.635, 168.7227
1133.729, 117.8633
1134.822, 81.00391
1135.916, 36.61523
1137.009, 13.90039
1138.102, 104.9375
1139.195, 38.76172
1140.288, 253.6172
1141.380, 52.45703
1142.473, 240.2188
1143.565, 110.9082
1144.657, 275.8027
1145.749, 158.6113
1146.841, 249.6035
1147.932, 146.6152
1149.024, 168.6250
1150.115, 208.4961
1151.206, 242.0371
1152.297, 264.5684
1153.388, 98.71094
1154.479, 60.37891
1155.569, 90.03320
1156.659, 160.6777
1157.750, 124.3125
1158.839, 206.9473
1159.929, 213.3418
1161.019, 161.9531
1162.108, 136.5898
1163.198, 102.2148
1164.287, 17.82422
1165.376, 222.2324
1166.465, 254.2539
1167.553, 37.31836
1168.642, 193.2246
1169.730, 137.6191
1170.818, 3.828125
1171.906, 12.24414
1172.994, 156.1641
1174.082, 89.30664
1175.170, 120.7422
1176.257, 107.6113
1177.344, 28.64258
1178.431, 256.6797
1179.518, 67.63672
1180.605, 165.0430
1181.691, 195.2871
1182.778, 11.72070
1183.864, 230.4902
1184.950, 296.4590
1186.036, 306.8613
1187.122, 89.03320
1188.207, 33.78711
1189.292, 84.65039
1190.378, 199.7637
1191.463, 110.8672
1192.548, 58.95508
1193.632, 190.0312
1194.717, 144.4375
1195.801, 131.5156
1196.886, 97.57812
1197.970, 174.9785
1199.054, 39.98438
1200.137, 244.0137
1201.221, 270.9961
1202.305, 210.9688
1203.388, 21.92578
1204.471, 46.88672
1205.554, 81.89258
1206.637, 195.8223
1207.719, 154.0156
1208.802, 237.9199
1209.884, 352.8789
1210.966, 74.75781
1212.048, 94.62305
1213.130, 142.4766
1214.212, 110.6504
1215.293, 119.6328
1216.374, 253.8477
1217.456, 131.6680
1218.536, 259.4785
1219.617, 205.4941
1220.698, 163.2773
1221.778, 26.29102
1222.859, 188.0645
1223.939, 258.8242
1225.019, 40.81250
1226.099, 338.5547
1227.178, 111.3223
1228.258, 187.3906
1229.337, 222.1328
1230.417, 229.9062
1231.496, 351.8027
1232.574, 184.5117
1233.653, 271.9180
1234.732, 60.60156
1235.810, 384.6875
1236.888, 119.5977
1237.966, 147.2324
1239.044, 336.1582
1240.122, 160.7402
1241.199, 193.3359
1242.277, 186.9180
1243.354, 213.4863
1244.431, 340.2402
1245.508, 57.43555
1246.585, 278.7988
1247.661, 120.3066
1248.738, 260.8027
1249.814, 207.2832
1250.890, 183.7500
1251.966, 155.2051
1253.042, 248.6426
1254.117, 125.3086
1255.193, 247.7559
1256.268, 67.78711
1257.343, 21.92578
1258.418, 167.7754
1259.493, 107.6758
1260.567, 137.6895
1261.642, 265.9883
1262.716, 117.3809
1263.790, 197.6191
1264.864, 470.7500
1265.938, 40.61523
1267.011, 260.6367
1268.085, 234.2109
1269.158, 167.2891
1270.231, 149.8984
1271.304, 198.4199
1272.377, 123.9004
1273.450, 140.7461
1274.522, 82.07031
1275.594, 116.8164
1276.666, 108.8945
1277.738, 86.95508
1278.810, 299.0645
1279.882, 199.3340
1280.953, 191.3477
1282.025, 68.34570
1283.096, 195.1895
1284.167, 263.8594
1285.238, 252.7129
1286.308, 297.6484
1287.379, 233.0391
1288.449, 243.9434
1289.519, 186.8379
1290.589, 172.7129
1291.659, 264.6719
1292.729, 236.3828
1293.798, 292.7285
1294.868, 84.78906
1295.937, 132.5859
1297.006, 371.5410
1298.075, 77.69531
1299.143, 239.7031
1300.212, 16.27734
1301.280, 268.8848
1302.348, 240.5117
1303.416, 136.8906
1304.484, 146.3848
1305.552, 85.19141
1306.620, 186.8438
1307.687, 57.39062
1308.754, 70.93750
1309.821, 175.4570
1310.888, 143.9590
1311.955, 173.9688
1313.021, 23.55469
1314.088, 119.8828
1315.154, 352.3066
1316.220, 166.4648
1317.286, 93.92188
1318.352, 443.7344
1319.417, 364.0957
1320.483, 298.2793
1321.548, 534.3457
1322.613, 94.66211
1323.678, 386.9453
1324.743, 391.1621
1325.807, 87.22266
1326.872, 252.4941
1327.936, 183.4062
1329.000, 224.7402
1330.064, 192.9902
1331.128, 183.2207
1332.191, 178.8574
1333.255, 153.4844
1334.318, 238.5273
1335.381, 101.7090
1336.444, 203.8789
1337.507, 152.0371
1338.569, 293.1855
1339.632, 313.9922
1340.694, 186.1738
1341.756, 87.29883
1342.818, 130.1895
1343.880, 78.87305
1344.941, 413.4551
1346.003, 206.9922
1347.064, 120.0117
1348.125, 272.0215
1349.186, 115.0195
1350.247, 235.4355
1351.308, 176.4121
1352.368, 117.4082
1353.428, 320.8516
1354.489, 202.2246
1355.549, 95.89648
1356.608, 192.8555
1357.668, 150.6914
1358.727, 60.19141
1359.787, 402.5996
1360.846, 29.36914
1361.905, 447.1230
1362.964, 70.45117
1364.022, 109.1641
1365.081, 188.6816
1366.139, 62.30078
1367.197, 324.9727
1368.255, 188.6055
1369.313, 307.2812
1370.371, 472.0586
1371.428, 118.6172
1372.486, 163.1602
1373.543, 293.2480
1374.600, 306.7676
1375.657, 255.0898
1376.713, 287.0312
1377.770, 185.1484
1378.826, 188.6230
1379.882, 240.0391
1380.938, 110.4902
1381.994, 158.7520
1383.050, 41.82422
1384.106, 90.13086
1385.161, 16.18164
1386.216, 251.1484
1387.271, 52.79297
1388.326, 219.3516
1389.381, 139.6445
1390.435, 303.6758
1391.490, 149.9473
1392.544, 216.2031
1393.598, 196.0723
1394.652, 56.30859
1395.705, 102.5312
1396.759, 60.52344
1397.812, 195.6582
1398.866, 82.79492
1399.919, 221.7012
1400.972, 295.6621
1402.024, 20.63867
1403.077, 323.1699
1404.129, 189.9355
1405.181, 145.7676
1406.233, 103.7871
1407.285, 196.7930
1408.337, 240.7852
1409.389, 210.3027
1410.440, 434.2715
1411.491, 141.2285
1412.542, 235.3633
1413.593, 18.70312
1414.644, 336.3320
1415.695, 218.2344
1416.745, 220.1230
1417.795, 92.07227
1418.845, 277.7246
1419.895, 237.5117
1420.945, 97.28125
1421.995, 186.6055
1423.044, 319.1172
1424.093, 273.8633
1425.142, 300.9863
1426.191, 221.7520
1427.240, 296.9961
1428.289, 157.7480
1429.337, 354.4902
1430.385, 726.3242
1431.433, 887.9102
1432.481, 792.2285
1433.529, 1088.129
1434.577, 870.3359
1435.624, 850.3535
1436.672, 661.0723
1437.719, 544.6680
1438.766, 341.3887
1439.812, 404.3164
1440.859, 149.9043
1441.905, 369.4297
1442.952, 141.8984
1443.998, 9.968750
1445.044, 391.7598
1446.090, 391.0469
1447.135, 111.8887
1448.181, 310.0859
1449.226, 306.5859
1450.271, 422.7168
1451.316, 346.2168
1452.361, 330.7031
1453.405, 169.1211
1454.450, 120.2969
1455.494, 138.0625
1456.538, 190.1230
1457.582, 227.1836
1458.626, 245.5605
1459.670, 243.1934
1460.713, 282.4082
1461.757, 199.4531
1462.800, 199.4922
1463.843, 168.7695
1464.886, 222.6797
1465.928, 57.74023
1466.971, 115.0703
1468.013, 146.7246
1469.055, 42.44531
1470.097, 6.869141
1471.139, 22.79297
1472.181, 235.0703
1473.222, 174.1250
1474.263, 207.2031
1475.305, 318.2734
1476.346, 254.3340
1477.386, 127.0137
1478.427, 295.2461
1479.468, 32.05469
1480.508, 136.5723
1481.548, 97.27344
1482.588, 295.0215
1483.628, 52.20508
1484.668, 121.0293
1485.707, 408.3320
1486.747, 163.1133
1487.786, 112.9551
1488.825, 188.5840
1489.864, 426.9336
1490.902, 256.6406
1491.941, 283.2207
1492.979, 389.9492
1494.017, 105.5703
1495.055, 55.64844
1496.093, 234.0957
1497.131, 119.1230
1498.168, 103.5527
1499.206, 186.0684
1500.243, 251.6113
1501.280, 85.14648
1502.317, 276.6738
1503.354, 493.1953
1504.390, 203.6914
1505.426, 116.1777
1506.463, 394.6992
1507.499, 298.2207
1508.535, 205.3711
1509.570, 211.5957
1510.606, 288.0391
1511.641, 23.55273
1512.676, 368.8125
1513.711, 314.9355
1514.746, 106.2188
1515.781, 173.4727
1516.816, 98.10547
1517.850, 37.85938
1518.884, 135.2812
1519.918, 169.2969
1520.952, 294.4082
1521.986, 336.7852
1523.019, 345.3496
1524.053, 343.4961
1525.086, 297.9668
1526.119, 236.5742
1527.152, 141.1699
1528.185, 80.16211
1529.217, 38.98633
1530.250, 144.7734
1531.282, 162.6055
1532.314, 134.4395
1533.346, 112.6133
1534.377, 374.7285
1535.409, 340.8027
1536.440, 34.57617
1537.472, 259.5879
1538.503, 49.55859
1539.534, 78.48242
1540.564, 106.4824
1541.595, 370.0957
1542.625, 264.7168
1543.656, 337.2773
1544.686, 258.6094
1545.716, 243.0273
1546.745, 229.0371
1547.775, 286.9805
1548.804, 167.0078
1549.834, 140.0527
1550.863, 117.0820
1551.892, 191.1562
1552.920, 76.26562
1553.949, 17.99609
1554.977, 109.0391
1556.006, 312.9277
1557.034, 31.44336
1558.062, 145.1191
1559.089, 16.00781
1560.117, 402.9766
1561.144, 110.1465
1562.172, 144.5488
1563.199, 175.0742
1564.226, 61.38477
1565.252, 229.3691
1566.279, 92.29883
1567.305, 133.6152
1568.332, 1.9531000E-02
1569.358, 166.7129
1570.384, 0.0000000E+00
##END=



