##NAMES=Calcite
##RRUFFID=R050307
##IDEAL CHEMISTRY=CaCO_3_
##LOCALITY=Zaire
##OWNER=RRUFF
##SOURCE=Eugene Schlepp
##DESCRIPTION=Group of pink prismatic crystals
##STATUS=The identification of this mineral has been confirmed by X-ray diffraction and chemical analysis
##URL=rruff.info/R050307
##MEASURED CHEMISTRY=Ca_1.00_CO_3_
##PIN_ID=L01775
##ORIENTATION=Laser parallel to -a* (-1 0 0). Fiducial mark perpendicular to laser is parallel to -c [0 0 -1]
116.9030, 0.0000000E+00
118.1340, 37.02979
119.3650, 0.8640140
120.5960, 25.18164
121.8270, 39.63904
123.0580, 83.14478
124.2880, 45.45239
125.5190, 35.40161
126.7490, 41.87378
127.9790, 67.77246
129.2090, 66.02612
130.4390, 75.58496
131.6680, 33.40820
132.8980, 69.47852
134.1270, 70.78784
135.3560, 124.2585
136.5850, 145.7246
137.8140, 178.6284
139.0430, 196.5122
140.2710, 260.4951
141.5000, 261.5693
142.7280, 352.7764
143.9560, 411.0889
145.1840, 479.4666
146.4120, 576.9116
147.6390, 575.5439
148.8670, 726.2583
150.0940, 875.3674
151.3210, 885.0061
152.5490, 885.6887
153.7750, 806.4131
155.0020, 715.1760
156.2290, 554.9731
157.4550, 464.8030
158.6810, 332.1790
159.9080, 264.0562
161.1340, 213.9670
162.3590, 172.9097
163.5850, 129.8821
164.8110, 101.2456
166.0360, 73.17676
167.2610, 60.23853
168.4860, 59.72144
169.7110, 58.78760
170.9360, 61.89478
172.1610, 46.03809
173.3850, 32.20166
174.6100, 16.38721
175.8340, 30.86572
177.0580, 10.09058
178.2820, 2.427246
179.5050, 7.823486
180.7290, 3.015381
181.9520, 52.36719
183.1760, 7.341309
184.3990, 43.96240
185.6220, 34.28198
186.8450, 19.61255
188.0670, 19.95361
189.2900, 11.68652
190.5120, 16.67065
191.7340, 5.034180
192.9560, 21.39331
194.1780, 20.75171
195.4000, 34.11133
196.6220, 30.48364
197.8430, 14.86938
199.0640, 8.741211
200.2860, 9.667725
201.5070, 25.10596
202.7270, 16.59229
203.9480, 26.11646
205.1690, 25.69116
206.3890, 47.17212
207.6090, 20.70337
208.8290, 26.23706
210.0490, 16.78003
211.2690, 40.32568
212.4890, 30.31836
213.7080, 31.45068
214.9280, 15.04541
216.1470, 21.65381
217.3660, 5.744873
218.5850, 48.85864
219.8030, 19.53638
221.0220, 73.07056
222.2400, 50.67871
223.4590, 31.34448
224.6770, 3.203613
225.8950, 39.80762
227.1120, 31.42334
228.3300, 13.04443
229.5480, 29.66748
230.7650, 22.38354
231.9820, 71.00635
233.1990, 6.369141
234.4160, 56.25659
235.6330, 34.31836
236.8490, 56.94238
238.0660, 22.56738
239.2820, 5.803711
240.4980, 32.82788
241.7140, 56.45728
242.9300, 61.08521
244.1460, 82.82764
245.3610, 28.34473
246.5770, 86.97559
247.7920, 87.60913
249.0070, 57.24316
250.2220, 104.8782
251.4370, 88.51318
252.6510, 179.3257
253.8660, 148.9597
255.0800, 185.5942
256.2940, 262.2292
257.5080, 219.8650
258.7220, 207.5020
259.9360, 277.1394
261.1490, 299.8638
262.3630, 339.5024
263.5760, 353.4194
264.7890, 447.6365
266.0020, 514.4709
267.2150, 651.0735
268.4270, 738.4182
269.6400, 907.7925
270.8520, 1098.192
272.0640, 1255.615
273.2760, 1459.057
274.4880, 1651.519
275.7000, 1803.322
276.9120, 1915.814
278.1230, 1871.320
279.3340, 1912.837
280.5450, 1827.365
281.7560, 1592.904
282.9670, 1353.514
284.1780, 1120.071
285.3880, 902.9395
286.5980, 750.5127
287.8090, 592.9697
289.0190, 469.5566
290.2290, 406.2144
291.4380, 326.8132
292.6480, 249.4177
293.8570, 230.0264
295.0670, 185.6389
296.2760, 197.2534
297.4850, 161.8728
298.6930, 63.49585
299.9020, 171.1233
301.1110, 122.2024
302.3190, 94.83838
303.5270, 151.4780
304.7350, 130.1182
305.9430, 91.76147
307.1510, 87.00073
308.3580, 99.52588
309.5660, 28.52173
310.7730, 79.18164
311.9800, 91.37329
313.1870, 1.031006
314.3940, 51.68457
315.6010, 41.35010
316.8070, 49.01733
318.0130, 83.68652
319.2200, 83.35718
320.4260, 86.02930
321.6310, 42.70166
322.8370, 95.39795
324.0430, 49.04663
325.2480, 9.721436
326.4540, 31.36475
327.6590, 4.1747998E-02
328.8640, 29.60474
330.0680, 17.71680
331.2730, 58.95874
332.4780, 43.72876
333.6820, 53.37183
334.8860, 66.04932
336.0900, 27.38672
337.2940, 16.06519
338.4980, 69.76685
339.7010, 30.44653
340.9050, 70.12671
342.1080, 0.1926270
343.3110, 35.48804
344.5140, 33.02026
345.7170, 34.70142
346.9200, 38.38281
348.1220, 31.07666
349.3240, 63.75757
350.5270, 47.43823
351.7290, 5.881104
352.9310, 2.797363
354.1320, 46.47534
355.3340, 7.153076
356.5350, 33.83008
357.7370, 54.50708
358.9380, 15.18335
360.1390, 12.24829
361.3400, 45.92334
362.5400, 68.51172
363.7410, 26.19092
364.9410, 11.35938
366.1410, 22.03735
367.3410, 64.71411
368.5410, 37.38989
369.7410, 48.05908
370.9400, 45.72729
372.1400, 55.39478
373.3390, 33.06152
374.5380, 58.72729
375.7370, 30.39160
376.9360, 27.33887
378.1350, 62.88989
379.3330, 68.55127
380.5310, 12.20947
381.7300, 107.8674
382.9280, 51.52466
384.1260, 80.07910
385.3230, 100.7388
386.5210, 0.6025390
387.7180, 62.05420
388.9160, 32.71021
390.1130, 74.36572
391.3100, 21.01978
392.5060, 26.67334
393.7030, 52.32544
394.9000, 19.97656
396.0960, 51.63086
397.2920, 28.35864
398.4880, 28.01831
399.6840, 39.67676
400.8800, 57.33398
402.0750, 2.020996
403.2710, 104.6753
404.4660, 81.42017
405.6610, 41.07153
406.8560, 6.274170
408.0510, 28.37500
409.2450, 42.02466
410.4400, 59.67578
411.6340, 48.32739
412.8280, 9.979004
414.0220, 64.63086
415.2160, 117.2827
416.4100, 96.93408
417.6030, 30.58521
418.7970, 16.76416
419.9900, 25.87427
421.1830, 50.51221
422.3760, 23.14941
423.5690, 23.78589
424.7610, 56.42139
425.9540, 27.94360
427.1460, 65.67236
428.3380, 15.71265
429.5300, 14.88989
430.7220, 72.50635
431.9140, 74.05249
433.1050, 5.610596
434.2970, 84.16650
435.4880, 76.72119
436.6790, 97.29419
437.8700, 30.84644
439.0610, 80.39697
440.2510, 97.94629
441.4420, 37.49414
442.6320, 70.04053
443.8220, 1.414307
445.0120, 55.38306
446.2020, 49.92090
447.3910, 99.45728
448.5810, 73.99219
449.7700, 3.474609
450.9600, 7.948730
452.1490, 0.5683590
453.3370, 9.931152
454.5260, 2.410645
455.7150, 26.08423
456.9030, 30.60229
458.0910, 50.35498
459.2800, 74.85010
460.4670, 63.34277
461.6550, 56.83398
462.8430, 29.32300
464.0300, 31.81055
465.2180, 15.29590
466.4050, 24.92114
467.5920, 27.26050
468.7790, 69.73999
469.9650, 70.21777
471.1520, 129.6523
472.3380, 58.12695
473.5250, 94.67358
474.7110, 8.150635
475.8970, 8.374756
477.0820, 88.09155
478.2680, 3.444336
479.4540, 95.01147
480.6390, 16.46582
481.8240, 40.91772
483.0090, 48.36743
484.1940, 61.81519
485.3780, 41.18945
486.5630, 80.63330
487.7470, 111.0762
488.9320, 64.51660
490.1160, 19.95532
491.3000, 79.39185
492.4830, 70.82617
493.6670, 91.25854
494.8500, 88.33398
496.0340, 78.89990
497.2170, 37.19189
498.4000, 71.61743
499.5820, 36.04077
500.7650, 66.46240
501.9480, 0.8815920
503.1300, 61.29541
504.3120, 37.70728
505.4940, 29.48657
506.6760, 95.89819
507.8580, 52.30591
509.0390, 37.71191
510.2210, 78.11548
511.4020, 112.5183
512.5830, 64.91870
513.7640, 156.3171
514.9450, 89.71313
516.1250, 73.13037
517.3060, 134.5220
518.4860, 3.911377
519.6660, 110.3018
520.8460, 58.69043
522.0260, 83.08228
523.2060, 34.57910
524.3850, 105.0400
525.5650, 68.43262
526.7440, 48.83325
527.9230, 88.22144
529.1020, 96.44189
530.2810, 47.84326
531.4590, 99.33496
532.6380, 87.71387
533.8160, 105.0908
534.9940, 47.46509
536.1720, 94.83716
537.3500, 28.20728
538.5270, 16.56299
539.7050, 89.92749
540.8820, 123.2893
542.0590, 59.64893
543.2360, 25.00586
544.4130, 112.2747
545.5900, 14.63062
546.7660, 90.98315
547.9430, 55.23120
549.1190, 77.97314
550.2950, 79.31787
551.4710, 108.7314
552.6470, 36.07129
553.8220, 70.41748
554.9980, 74.76123
556.1730, 35.10229
557.3480, 54.44092
558.5230, 85.77734
559.6980, 59.11108
560.8730, 55.11523
562.0470, 75.44409
563.2220, 97.77051
564.3960, 33.09448
565.5700, 65.41577
566.7440, 44.73511
567.9170, 58.99121
569.0910, 61.30566
570.2640, 92.31494
571.4380, 29.62500
572.6110, 91.05664
573.7840, 48.36230
574.9570, 98.60181
576.1290, 57.90356
577.3020, 21.20337
578.4740, 65.50098
579.6460, 65.79663
580.8180, 73.09033
581.9900, 54.38208
583.1620, 45.67163
584.3330, 46.95947
585.5040, 0.7973630
586.6760, 92.07837
587.8470, 77.35791
589.0180, 80.63501
590.1880, 29.91040
591.3590, 101.5911
592.5290, 69.98657
593.7000, 22.91235
594.8700, 72.24951
596.0400, 68.98047
597.2090, 16.26416
598.3790, 32.47314
599.5490, 35.92188
600.7180, 25.16113
601.8870, 66.39868
603.0560, 36.63428
604.2250, 39.69312
605.3940, 62.10034
606.5620, 28.30811
607.7300, 45.53662
608.8990, 63.76343
610.0670, 127.9885
611.2350, 115.2117
612.4020, 125.9336
613.5700, 133.6736
614.7370, 114.3726
615.9050, 106.6436
617.0720, 111.3005
618.2390, 93.51709
619.4060, 78.07251
620.5720, 158.2852
621.7390, 167.4736
622.9050, 52.68286
624.0710, 142.8904
625.2370, 71.18799
626.4030, 100.3962
627.5690, 73.59863
628.7340, 81.79956
629.9000, 89.99854
631.0650, 71.22461
632.2300, 123.4197
633.3950, 125.6130
634.5600, 55.80493
635.7240, 44.37134
636.8890, 88.56152
638.0530, 69.75366
639.2170, 85.94385
640.3810, 68.13281
641.5450, 130.3196
642.7080, 69.20557
643.8720, 67.38892
645.0350, 18.42993
646.1980, 24.73755
647.3610, 114.9033
648.5240, 92.12549
649.6870, 69.28809
650.8490, 85.71387
652.0120, 91.87231
653.1740, 72.02905
654.3360, 52.18408
655.4980, 20.33740
656.6600, 80.48877
657.8210, 63.69751
658.9830, 34.77930
660.1440, 78.00977
661.3050, 71.37646
662.4660, 7.182861
663.6270, 13.32202
664.7870, 83.45874
665.9480, 11.40674
667.1080, 66.72241
668.2680, 91.84961
669.4280, 24.97583
670.5880, 6.099854
671.7480, 83.22070
672.9070, 117.3398
674.0670, 34.45703
675.2260, 74.57251
676.3850, 38.71558
677.5440, 43.17700
678.7030, 58.87183
679.8610, 165.9539
681.0200, 92.03394
682.1780, 29.12476
683.3360, 80.17041
684.4940, 74.16431
685.6520, 116.1460
686.8090, 9.783203
687.9670, 28.27759
689.1240, 118.3396
690.2810, 12.40601
691.4380, 73.46997
692.5950, 70.60449
693.7520, 153.6965
694.9080, 66.75488
696.0650, 108.8489
697.2210, 116.9177
698.3770, 121.9851
699.5330, 204.0500
700.6880, 334.1218
701.8440, 540.2002
702.9990, 677.3076
704.1550, 941.3818
705.3100, 1161.457
706.4650, 1655.530
707.6190, 2210.610
708.7740, 2675.688
709.9290, 2698.849
711.0830, 2250.928
712.2370, 1661.028
713.3910, 1080.126
714.5450, 701.2227
715.6980, 455.3176
716.8520, 314.3955
718.0050, 182.4907
719.1580, 120.5842
720.3110, 72.75049
721.4640, 148.7688
722.6170, 65.85815
723.7700, 66.94800
724.9220, 84.78027
726.0740, 64.86841
727.2260, 94.95459
728.3780, 54.03882
729.5300, 91.15308
730.6810, 42.23608
731.8330, 84.32129
732.9840, 13.39844
734.1350, 93.48535
735.2860, 26.57300
736.4370, 68.62744
737.5880, 14.55005
738.7380, 102.5215
739.8880, 70.59131
741.0390, 116.6592
742.1890, 96.72534
743.3380, 53.79004
744.4880, 133.8528
745.6380, 73.98071
746.7870, 72.04028
747.9360, 77.09766
749.0850, 32.15356
750.2340, 24.65283
751.3830, 118.2598
752.5310, 19.68970
753.6800, 2.345947
754.8280, 2.620850
755.9760, 110.4106
757.1240, 34.44067
758.2720, 121.4719
759.4190, 67.50146
760.5670, 38.52930
761.7140, 39.55518
762.8610, 7.579590
764.0080, 28.60132
765.1550, 64.62134
766.3020, 97.64014
767.4480, 47.68579
768.5950, 19.70068
769.7410, 113.7139
770.8870, 29.72534
772.0330, 69.80078
773.1780, 2.191162
774.3240, 52.82520
775.4690, 33.70093
776.6140, 89.70044
777.7590, 61.69824
778.9040, 47.69409
780.0490, 8.688232
781.1940, 68.68188
782.3380, 112.6736
783.4820, 89.29419
784.6260, 79.34204
785.7700, 15.32910
786.9140, 127.3140
788.0580, 0.7026370
789.2010, 93.27612
790.3450, 36.25366
791.4880, 134.2292
792.6310, 61.20337
793.7730, 83.15283
794.9160, 15.12378
796.0590, 15.90723
797.2010, 9.050781
798.3430, 15.98779
799.4850, 23.04419
800.6270, 89.78394
801.7690, 59.64380
802.9100, 60.56860
804.0520, 94.74878
805.1930, 44.67090
806.3340, 77.59106
807.4750, 34.49268
808.6160, 51.30005
809.7560, 72.21582
810.8970, 48.13086
812.0370, 69.13013
813.1770, 22.04199
814.3170, 65.95239
815.4570, 18.87280
816.5960, 38.78027
817.7360, 65.68677
818.8750, 23.43970
820.0140, 64.49561
821.1530, 12.60132
822.2920, 55.29199
823.4310, 80.18433
824.5690, 67.17798
825.7070, 112.0627
826.8460, 93.47974
827.9840, 48.29614
829.1220, 30.73901
830.2590, 19.16309
831.3970, 43.02954
832.5340, 24.32666
833.6710, 43.19043
834.8080, 121.0530
835.9450, 80.00439
837.0820, 113.4106
838.2190, 51.14990
839.3550, 24.01270
840.4910, 81.86841
841.6270, 102.3369
842.7630, 79.18970
843.8990, 83.04077
845.0350, 79.90625
846.1700, 12.75464
847.3060, 77.94238
848.4410, 134.7866
849.5760, 78.62964
850.7100, 75.53931
851.8450, 49.37915
852.9800, 92.20044
854.1140, 111.0369
855.2480, 90.87183
856.3820, 204.0640
857.5160, 134.8955
858.6500, 164.7251
859.7830, 137.0825
860.9170, 40.90942
862.0500, 34.73584
863.1830, 57.56079
864.3160, 97.38403
865.4480, 25.20557
866.5810, 112.0249
867.7130, 80.84277
868.8460, 66.65894
869.9780, 90.39917
871.1100, 57.21191
872.2410, 52.00342
873.3730, 72.81299
874.5050, 69.47656
875.6360, 93.29248
876.7670, 54.11011
877.8980, 140.9270
879.0290, 75.74268
880.1590, 94.55664
881.2900, 15.36890
882.4200, 98.17920
883.5500, 77.98755
884.6800, 79.79639
885.8100, 129.6033
886.9400, 86.38867
888.0690, 65.19263
889.1990, 40.51807
890.3280, 62.17358
891.4570, 33.56885
892.5860, 91.36694
893.7140, 144.1672
894.8430, 37.96631
895.9710, 39.76367
897.1000, 82.55981
898.2280, 67.35889
899.3560, 77.06445
900.4830, 64.85645
901.6110, 65.06714
902.7380, 22.44458
903.8660, 59.23608
904.9930, 66.98462
906.1200, 55.77881
907.2460, 13.57153
908.3730, 38.36230
909.5000, 25.77661
910.6260, 10.43530
911.7520, 64.34448
912.8780, 47.12329
914.0040, 84.90039
915.1290, 55.67627
916.2550, 64.35986
917.3800, 45.92114
918.5050, 29.90503
919.6300, 13.68164
920.7550, 40.45972
921.8800, 68.17773
923.0040, 38.95312
924.1290, 45.46167
925.2530, 46.23462
926.3770, 74.01270
927.5010, 36.78955
928.6250, 83.56494
929.7480, 75.34473
930.8720, 52.06738
931.9950, 85.23242
933.1180, 26.33325
934.2410, 113.8984
935.3640, 30.02002
936.4860, 32.80566
937.6090, 68.59082
938.7310, 18.62427
939.8530, 50.15259
940.9750, 30.92871
942.0970, 67.70337
943.2180, 64.47754
944.3400, 79.25122
945.4610, 45.02368
946.5820, 4.795166
947.7030, 103.5652
948.8240, 96.30444
949.9450, 57.07251
951.0650, 70.82104
952.1860, 41.60083
953.3060, 56.37939
954.4260, 79.14478
955.5460, 53.92114
956.6650, 43.77734
957.7850, 102.5518
958.9040, 41.32788
960.0230, 35.11328
961.1420, 23.10034
962.2610, 58.68066
963.3800, 6.460938
964.4990, 15.17017
965.6170, 25.92041
966.7350, 54.29834
967.8530, 30.42993
968.9710, 67.18042
970.0890, 1.929932
971.2070, 8.322266
972.3240, 29.58081
973.4410, 22.14355
974.5580, 108.8357
975.6750, 9.442383
976.7920, 52.27344
977.9090, 51.98779
979.0250, 19.70166
980.1410, 62.41455
981.2580, 4.953125
982.3740, 33.75488
983.4890, 91.46143
984.6050, 7.166992
985.7200, 93.87109
986.8360, 15.42480
987.9510, 76.26904
989.0660, 100.9629
990.1810, 5.343750
991.2950, 26.34473
992.4100, 103.0322
993.5240, 8.280762
994.6390, 98.49658
995.7530, 114.1768
996.8660, 81.85596
997.9800, 135.5342
999.0940, 131.2119
1000.207, 197.8564
1001.320, 231.5317
1002.433, 132.2061
1003.546, 108.8794
1004.659, 112.5522
1005.772, 113.2241
1006.884, 101.8960
1007.996, 69.56641
1009.108, 69.24072
1010.220, 141.6533
1011.332, 128.5571
1012.444, 173.2290
1013.555, 160.9180
1014.666, 117.5879
1015.777, 149.1895
1016.888, 111.8569
1017.999, 74.84912
1019.110, 151.5146
1020.220, 136.1787
1021.331, 149.8418
1022.441, 161.5039
1023.551, 136.1719
1024.661, 164.9834
1025.770, 80.65186
1026.880, 108.0679
1027.989, 96.73877
1029.098, 146.4043
1030.207, 138.0688
1031.316, 172.7930
1032.425, 51.45557
1033.533, 120.1167
1034.642, 43.77734
1035.750, 98.43652
1036.858, 94.06494
1037.966, 76.72168
1039.073, 129.6123
1040.181, 86.26611
1041.288, 58.85352
1042.396, 146.5049
1043.503, 97.24756
1044.610, 139.2114
1045.716, 112.9253
1046.823, 97.57275
1047.929, 112.2192
1049.036, 82.86426
1050.142, 112.5088
1051.248, 145.2803
1052.353, 175.9219
1053.459, 201.1997
1054.564, 158.8384
1055.670, 96.47559
1056.775, 239.1792
1057.880, 214.8149
1058.985, 252.0312
1060.089, 314.6636
1061.194, 446.2949
1062.298, 578.1851
1063.402, 586.5483
1064.506, 633.1748
1065.610, 632.0024
1066.713, 550.6997
1067.817, 542.3325
1068.920, 577.0088
1070.023, 637.7837
1071.126, 733.5508
1072.229, 780.9165
1073.332, 1172.547
1074.435, 1577.189
1075.537, 2356.958
1076.639, 3746.583
1077.741, 6778.207
1078.843, 12609.83
1079.945, 20184.52
1081.046, 27397.18
1082.148, 40031.90
1083.249, 53303.57
1084.350, 56689.36
1085.451, 45846.97
1086.551, 30053.62
1087.652, 17066.24
1088.752, 8771.897
1089.853, 4403.515
1090.953, 2450.767
1092.053, 1497.755
1093.152, 1036.775
1094.252, 792.0405
1095.351, 615.6465
1096.451, 509.7842
1097.550, 486.7705
1098.649, 513.3784
1099.748, 351.5679
1100.846, 343.3130
1101.945, 364.9307
1103.043, 226.4561
1104.141, 227.5229
1105.239, 190.2539
1106.337, 160.8750
1107.434, 138.4824
1108.532, 228.4741
1109.629, 148.0786
1110.726, 176.6821
1111.823, 236.3481
1112.920, 222.9487
1114.017, 157.2061
1115.113, 124.8042
1116.210, 131.4004
1117.306, 179.9253
1118.402, 161.6514
1119.498, 140.2583
1120.593, 186.0708
1121.689, 159.6572
1122.784, 96.88232
1123.879, 84.46533
1124.974, 50.04541
1126.069, 10.21289
1127.164, 111.7891
1128.259, 142.3628
1129.353, 37.93457
1130.447, 175.5054
1131.541, 107.0742
1132.635, 66.64160
1133.729, 122.2080
1134.822, 53.79102
1135.916, 107.3535
1137.009, 148.0161
1138.102, 37.57568
1139.195, 87.13428
1140.288, 84.69385
1141.380, 9.748535
1142.473, 1.200195
1143.565, 96.36768
1144.657, 30.91016
1145.749, 104.5078
1146.841, 169.0464
1147.932, 107.5835
1149.024, 2.881348
1150.115, 61.64795
1151.206, 55.17676
1152.297, 51.71680
1153.388, 73.24316
1154.479, 70.93359
1155.569, 2.453125
1156.659, 50.00928
1157.750, 9.475586
1158.839, 36.02979
1159.929, 112.6235
1161.019, 67.15234
1162.108, 14.34912
1163.198, 44.13770
1164.287, 61.62158
1165.376, 158.1250
1166.465, 73.60449
1167.553, 50.08154
1168.642, 121.5562
1169.730, 16.97168
1170.818, 38.48682
1171.906, 69.94336
1172.994, 43.39746
1174.082, 13.84912
1175.170, 0.2978520
1176.257, 23.74561
1177.344, 97.18994
1178.431, 102.6323
1179.518, 75.07129
1180.605, 65.50879
1181.691, 8.943359
1182.778, 72.37354
1183.864, 8.198730
1184.950, 49.22070
1186.036, 90.63721
1187.122, 24.05078
1188.207, 67.46143
1189.292, 22.13037
1190.378, 61.26123
1191.463, 106.6499
1192.548, 16.96436
1193.632, 8.591797
1194.717, 50.77100
1195.801, 31.86328
1196.886, 23.47510
1197.970, 101.8398
1199.054, 32.17188
1200.137, 8.500977
1201.221, 9.825195
1202.305, 49.21826
1203.388, 61.70703
1204.471, 39.02734
1205.554, 8.345215
1206.637, 90.65918
1207.719, 75.96973
1208.802, 60.40186
1209.884, 5.706543
1210.966, 33.08057
1212.048, 15.77881
1213.130, 28.73438
1214.212, 4.024414
1215.293, 79.31055
1216.374, 35.36865
1217.456, 139.7876
1218.536, 33.06348
1219.617, 45.33594
1220.698, 6.250977
1221.778, 17.99023
1222.859, 2.594238
1223.939, 30.89697
1225.019, 92.93994
1226.099, 5.839844
1227.178, 2.628418
1228.258, 94.57666
1229.337, 70.42432
1230.417, 18.65820
1231.496, 54.00732
1232.574, 63.24512
1233.653, 68.45703
1234.732, 63.74805
1235.810, 44.97803
1236.888, 68.20752
1237.966, 131.5732
1239.044, 53.94434
1240.122, 184.4414
1241.199, 30.75342
1242.277, 66.08887
1243.354, 171.3022
1244.431, 54.71240
1245.508, 91.92090
1246.585, 107.1304
1247.661, 18.37354
1248.738, 51.68994
1249.814, 2.894531
1250.890, 69.16846
1251.966, 75.36426
1253.042, 93.56006
1254.117, 176.7524
1255.193, 22.94141
1256.268, 80.10986
1257.343, 103.2998
1258.418, 130.4897
1259.493, 121.7993
1260.567, 53.14111
1261.642, 92.32520
1262.716, 52.70605
1263.790, 47.88379
1264.864, 96.22266
1265.938, 28.60449
1267.011, 121.8730
1268.085, 90.14355
1269.158, 100.0249
1270.231, 90.18115
1271.304, 114.5942
1272.377, 47.51318
1273.450, 110.7759
1274.522, 40.13965
1275.594, 130.2788
1276.666, 57.41406
1277.738, 144.5474
1278.810, 134.4229
1279.882, 144.8071
1280.953, 50.92920
1282.025, 54.04785
1283.096, 14.16309
1284.167, 152.2725
1285.238, 45.42432
1286.308, 82.52588
1287.379, 114.8750
1288.449, 32.96387
1289.519, 48.05322
1290.589, 84.13818
1291.659, 127.1582
1292.729, 130.2354
1293.798, 49.30811
1294.868, 132.3770
1295.937, 119.4429
1297.006, 86.50537
1298.075, 127.5645
1299.143, 169.3838
1300.212, 101.4346
1301.280, 152.4810
1302.348, 95.52295
1303.416, 120.4556
1304.484, 74.29980
1305.552, 142.2642
1306.620, 100.2876
1307.687, 124.3062
1308.754, 78.32129
1309.821, 205.3311
1310.888, 61.20752
1311.955, 200.2065
1313.021, 170.5005
1314.088, 141.4907
1315.154, 141.4775
1316.220, 124.8491
1317.286, 143.3672
1318.352, 114.7563
1319.417, 127.7222
1320.483, 124.9160
1321.548, 104.3745
1322.613, 90.58936
1323.678, 52.53809
1324.743, 66.28711
1325.807, 45.15576
1326.872, 94.09668
1327.936, 114.9961
1329.000, 102.7944
1330.064, 35.59521
1331.128, 13.52734
1332.191, 60.45557
1333.255, 71.36084
1334.318, 103.1348
1335.381, 91.23975
1336.444, 23.95752
1337.507, 80.86426
1338.569, 36.61572
1339.632, 88.46094
1340.694, 39.23096
1341.756, 73.05225
1342.818, 67.76758
1343.880, 24.35840
1344.941, 21.46631
1346.003, 101.3252
1347.064, 85.13135
1348.125, 21.00293
1349.186, 76.21338
1350.247, 17.68457
1351.308, 107.1191
1352.368, 34.77490
1353.428, 60.61328
1354.489, 65.83740
1355.549, 101.2778
1356.608, 55.89307
1357.668, 46.91553
1358.727, 18.59521
1359.787, 44.43994
1360.846, 75.52539
1361.905, 41.67822
1362.964, 79.46533
1364.022, 110.8472
1365.081, 24.62744
1366.139, 23.40381
1367.197, 3.189941
1368.255, 36.00879
1369.313, 29.79346
1370.371, 61.70410
1371.428, 12.67383
1372.486, 120.4463
1373.543, 127.2559
1374.600, 51.00635
1375.657, 32.88037
1376.713, 95.75684
1377.770, 42.36133
1378.826, 94.17285
1379.882, 99.04785
1380.938, 104.9082
1381.994, 137.0103
1383.050, 42.41162
1384.106, 139.4482
1385.161, 121.2041
1386.216, 34.39404
1387.271, 26.43457
1388.326, 167.2139
1389.381, 16.92871
1390.435, 136.6963
1391.490, 24.38672
1392.544, 16.09375
1393.598, 39.69678
1394.652, 38.52148
1395.705, 4.779785
1396.759, 135.9146
1397.812, 114.7520
1398.866, 99.49854
1399.919, 37.16748
1400.972, 13.85938
1402.024, 82.49121
1403.077, 119.1777
1404.129, 79.13135
1405.181, 48.74463
1406.233, 12.34766
1407.285, 121.0957
1408.337, 89.67725
1409.389, 162.2642
1410.440, 177.6768
1411.491, 21.23926
1412.542, 180.7524
1413.593, 69.29736
1414.644, 162.8374
1415.695, 122.3740
1416.745, 208.8325
1417.795, 165.2979
1418.845, 120.8931
1419.895, 71.34473
1420.945, 106.7661
1421.995, 120.5562
1423.044, 123.1494
1424.093, 222.8389
1425.142, 219.2319
1426.191, 151.6616
1427.240, 250.0288
1428.289, 265.3813
1429.337, 377.7271
1430.385, 491.0542
1431.433, 627.3696
1432.481, 864.6699
1433.529, 926.9536
1434.577, 745.3276
1435.624, 647.5635
1436.672, 486.7720
1437.719, 381.9624
1438.766, 333.1582
1439.812, 286.3179
1440.859, 246.2471
1441.905, 209.2622
1442.952, 219.1709
1443.998, 155.2451
1445.044, 166.3525
1446.090, 167.5547
1447.135, 140.8750
1448.181, 211.6704
1449.226, 194.4692
1450.271, 184.2515
1451.316, 191.0625
1452.361, 117.6250
1453.405, 255.4297
1454.450, 113.2339
1455.494, 177.9033
1456.538, 100.6245
1457.582, 132.3555
1458.626, 206.1992
1459.670, 162.8232
1460.713, 160.4395
1461.757, 106.0542
1462.800, 162.7769
1463.843, 162.5942
1464.886, 90.16699
1465.928, 121.7593
1466.971, 82.48877
1468.013, 177.1313
1469.055, 70.67432
1470.097, 128.8682
1471.139, 125.3047
1472.181, 99.74951
1473.222, 64.43066
1474.263, 142.9111
1475.305, 132.4819
1476.346, 162.1445
1477.386, 139.8037
1478.427, 90.34912
1479.468, 116.8091
1480.508, 66.20947
1481.548, 100.5361
1482.588, 129.6074
1483.628, 157.8984
1484.668, 59.44629
1485.707, 26.99072
1486.747, 43.95605
1487.786, 132.5923
1488.825, 2.5390999E-02
1489.864, 142.1675
1490.902, 122.6948
1491.941, 68.92676
1492.979, 60.44873
1494.017, 48.97021
1495.055, 37.49072
1496.093, 27.01025
1497.131, 69.52832
1498.168, 5.958496
1499.206, 120.5537
1500.243, 22.06885
1501.280, 43.04053
1502.317, 54.11084
1503.354, 57.63916
1504.390, 42.17383
1505.426, 45.30029
1506.463, 76.26855
1507.499, 37.82666
1508.535, 8.601074
1509.570, 4.008301
1510.606, 9.088867
1511.641, 19.17334
1512.676, 62.75439
1513.711, 82.32666
1514.746, 64.89258
1515.781, 100.4878
1516.816, 103.0811
1517.850, 130.6660
1518.884, 50.32861
1519.918, 196.9878
1520.952, 137.6519
1521.986, 46.32617
1523.019, 68.95410
1524.053, 171.6309
1525.086, 120.3071
1526.119, 125.9404
1527.152, 100.6392
1528.185, 31.22949
1529.217, 107.2993
1530.250, 85.77979
1531.282, 34.07129
1532.314, 140.1499
1533.346, 125.6001
1534.377, 198.0566
1535.409, 113.5728
1536.440, 80.21777
1537.472, 197.6011
1538.503, 116.5039
1539.534, 44.70361
1540.564, 158.9717
1541.595, 175.0215
1542.625, 26.88916
1543.656, 236.6509
1544.686, 65.52441
1545.716, 2.645996
1546.745, 18.43115
1547.775, 6.446289
1548.804, 108.4990
1549.834, 40.72314
1550.863, 104.0493
1551.892, 102.2485
1552.920, 49.17871
1553.949, 93.12256
1554.977, 56.90674
1556.006, 113.0273
1557.034, 71.07520
1558.062, 23.09766
1559.089, 52.51904
1560.117, 67.70508
1561.144, 47.17871
1562.172, 37.96533
1563.199, 62.52490
1564.226, 2.177246
1565.252, 98.81299
1566.279, 76.29883
1567.305, 43.81934
1568.332, 3.842285
1569.358, 6.110840
1570.384, 0.0000000E+00
##END=



