##NAMES=Cancrinite
##RRUFFID=R050352
##IDEAL CHEMISTRY=(Na,Ca,[box])_8_(Al_6_Si_6_)O_24_(CO_3_,S^6+^O_4_)_2_&#183;2H_2_O
##LOCALITY=York River, quarry #2, Dungannon Township, Ontario, Canada
##OWNER=RRUFF
##SOURCE=California Institute of Technology
##DESCRIPTION=Pink fragment
##STATUS=The identification of this mineral has been confirmed by X-ray diffraction and chemical analysis
##URL=rruff.info/R050352
##MEASURED CHEMISTRY=(Na_6.07_Ca_1.62_[box]_0.31_)_Σ=8_(Al_0.99_Si_1.01_O_4_)_6_((CO_3_)_0.84_[box]_0.16_)_Σ=2_·2H_2_O
##PIN_ID=M00367
##ORIENTATION=Laser parallel to a* (1 0 0). Fiducial mark perpendicular to laser is parallel to c [0 0 1]
170.9360, 0.0000000E+00
172.1610, 85.74414
173.3850, 103.0381
174.6100, 98.46387
175.8340, 21.89648
177.0580, 24.90625
178.2820, 12.95020
179.5050, 8.087891
180.7290, 74.62402
181.9520, 236.4580
183.1760, 230.4258
184.3990, 386.4639
185.6220, 525.1426
186.8450, 519.0156
188.0670, 750.6035
189.2900, 937.4512
190.5120, 886.1465
191.7340, 827.3281
192.9560, 1045.686
194.1780, 1164.953
195.4000, 1194.918
196.6220, 1377.680
197.8430, 1418.707
199.0640, 1596.955
200.2860, 1729.121
201.5070, 1918.707
202.7270, 2010.643
203.9480, 2155.652
205.1690, 2270.572
206.3890, 2426.256
207.6090, 2699.582
208.8290, 3040.453
210.0490, 3327.777
211.2690, 3696.494
212.4890, 4053.484
213.7080, 4331.764
214.9280, 4765.561
216.1470, 4896.445
217.3660, 5137.551
218.5850, 5384.855
219.8030, 5353.617
221.0220, 5382.814
222.2400, 5400.355
223.4590, 5511.967
224.6770, 5459.879
225.8950, 5259.855
227.1120, 5233.145
228.3300, 5027.732
229.5480, 5039.668
230.7650, 4513.994
231.9820, 4476.752
233.1990, 4071.980
234.4160, 3892.707
235.6330, 3503.961
236.8490, 3367.768
238.0660, 3102.146
239.2820, 2822.122
240.4980, 2869.711
241.7140, 2641.938
242.9300, 2597.821
244.1460, 2635.386
245.3610, 2713.639
246.5770, 2793.586
247.7920, 2906.270
249.0070, 3119.759
250.2220, 3355.081
251.4370, 3651.261
252.6510, 3851.313
253.8660, 4205.263
255.0800, 4686.113
256.2940, 5267.879
257.5080, 5914.564
258.7220, 6745.812
259.9360, 7659.161
261.1490, 8668.226
262.3630, 9753.660
263.5760, 10903.04
264.7890, 12003.37
266.0020, 13473.65
267.2150, 14652.93
268.4270, 16140.98
269.6400, 17337.57
270.8520, 18458.30
272.0640, 19400.08
273.2760, 20062.94
274.4880, 20045.41
275.7000, 19221.11
276.9120, 18263.38
278.1230, 16577.24
279.3340, 14891.18
280.5450, 13060.44
281.7560, 11318.18
282.9670, 9960.089
284.1780, 8798.028
285.3880, 7768.996
286.5980, 7056.992
287.8090, 6801.015
289.0190, 6798.064
290.2290, 6707.150
291.4380, 6920.273
292.6480, 7140.425
293.8570, 7439.598
295.0670, 7323.771
296.2760, 7789.945
297.4850, 7997.097
298.6930, 7877.229
299.9020, 7420.334
301.1110, 7074.398
302.3190, 6745.421
303.5270, 6071.407
304.7350, 5585.361
305.9430, 4963.275
307.1510, 4354.156
308.3580, 3862.010
309.5660, 3195.857
310.7730, 2650.720
311.9800, 2348.559
313.1870, 1909.386
314.3940, 1759.201
315.6010, 1673.030
316.8070, 1304.124
318.0130, 1131.848
319.2200, 1111.963
320.4260, 1148.186
321.6310, 1102.000
322.8370, 1156.502
324.0430, 1258.049
325.2480, 1467.903
326.4540, 1618.053
327.6590, 1889.453
328.8640, 2296.076
330.0680, 2572.898
331.2730, 2984.896
332.4780, 3192.049
333.6820, 3669.337
334.8860, 3929.741
336.0900, 4131.251
337.2940, 4346.854
338.4980, 4646.533
339.7010, 4997.520
340.9050, 5595.104
342.1080, 5827.989
343.3110, 6270.916
344.5140, 6737.875
345.7170, 7003.854
346.9200, 7192.867
348.1220, 7116.912
349.3240, 6738.971
350.5270, 6265.026
351.7290, 5800.072
352.9310, 5141.127
354.1320, 4348.166
355.3340, 3658.201
356.5350, 2857.215
357.7370, 2366.205
358.9380, 1702.171
360.1390, 1209.107
361.3400, 802.0156
362.5400, 481.9033
363.7410, 370.7539
364.9410, 44.43652
366.1410, 62.72168
367.3410, 137.1299
368.5410, 252.6895
369.7410, 303.4189
370.9400, 359.9229
372.1400, 386.5391
373.3390, 415.4414
374.5380, 416.3135
375.7370, 406.7617
376.9360, 382.5664
378.1350, 339.9043
379.3330, 297.4600
380.5310, 222.2227
381.7300, 180.1719
382.9280, 159.2988
384.1260, 35.59180
385.3230, 80.36914
386.5210, 311.4463
387.7180, 377.8232
388.9160, 548.1123
390.1130, 653.5381
391.3100, 742.4434
392.5060, 953.4902
393.7030, 1112.460
394.9000, 1233.353
396.0960, 1392.169
397.2920, 1592.969
398.4880, 1662.631
399.6840, 1965.254
400.8800, 2157.763
402.0750, 2529.725
403.2710, 2640.169
404.4660, 3117.120
405.6610, 3397.210
406.8560, 3662.493
408.0510, 4294.794
409.2450, 4871.100
410.4400, 5669.158
411.6340, 6242.172
412.8280, 7122.896
414.0220, 7736.348
415.2160, 8283.892
416.4100, 8894.419
417.6030, 9301.099
418.7970, 9255.727
419.9900, 9114.465
421.1830, 8496.041
422.3760, 7943.492
423.5690, 7196.342
424.7610, 6529.846
425.9540, 5915.812
427.1460, 5425.805
428.3380, 4747.167
429.5300, 4518.098
430.7220, 4339.137
431.9140, 3929.086
433.1050, 3515.295
434.2970, 3481.836
435.4880, 3125.614
436.6790, 3074.778
437.8700, 2851.997
439.0610, 2673.317
440.2510, 2499.778
441.4420, 2385.338
442.6320, 2343.140
443.8220, 2376.188
445.0120, 2407.529
446.2020, 2451.920
447.3910, 2475.954
448.5810, 2695.187
449.7700, 2901.914
450.9600, 3347.381
452.1490, 3579.465
453.3370, 4023.584
454.5260, 4777.340
455.7150, 5577.164
456.9030, 6100.668
458.0910, 6736.665
459.2800, 7457.143
460.4670, 7356.641
461.6550, 7522.381
462.8430, 7175.769
464.0300, 6559.303
465.2180, 6126.881
466.4050, 5298.379
467.5920, 5005.345
468.7790, 4291.447
469.9650, 4271.110
471.1520, 3975.950
472.3380, 3953.160
473.5250, 3931.882
474.7110, 3894.567
475.8970, 4135.852
477.0820, 4185.115
478.2680, 4326.590
479.4540, 4719.787
480.6390, 5191.941
481.8240, 5359.143
483.0090, 5838.201
484.1940, 6366.756
485.3780, 7046.652
486.5630, 7469.392
487.7470, 8371.896
488.9320, 9004.863
490.1160, 9933.943
491.3000, 10564.93
492.4830, 11303.16
493.6670, 11805.24
494.8500, 12109.85
496.0340, 12290.76
497.2170, 12146.40
498.4000, 12046.16
499.5820, 11737.85
500.7650, 11448.09
501.9480, 10865.57
503.1300, 10139.96
504.3120, 9706.071
505.4940, 9064.100
506.6760, 8359.789
507.8580, 7870.194
509.0390, 7171.746
510.2210, 6534.369
511.4020, 5967.697
512.5830, 5507.918
513.7640, 5139.840
514.9450, 4526.695
516.1250, 4228.088
517.3060, 3974.965
518.4860, 3285.867
519.6660, 3066.592
520.8460, 2817.164
522.0260, 2385.473
523.2060, 2254.791
524.3850, 1848.998
525.5650, 1907.041
526.7440, 1607.385
527.9230, 1476.846
529.1020, 1333.430
530.2810, 1134.246
531.4590, 1044.853
532.6380, 953.3232
533.8160, 835.8633
534.9940, 849.7598
536.1720, 771.5693
537.3500, 735.2939
538.5270, 580.9336
539.7050, 663.4854
540.8820, 584.9531
542.0590, 622.3359
543.2360, 465.6318
544.4130, 569.8408
545.5900, 428.9609
546.7660, 376.9912
547.9430, 310.9287
549.1190, 287.3457
550.2950, 266.5098
551.4710, 306.1631
552.6470, 295.7354
553.8220, 325.2109
554.9980, 324.5947
556.1730, 204.8857
557.3480, 333.0850
558.5230, 177.1934
559.6980, 88.20898
560.8730, 187.1309
562.0470, 146.9570
563.2220, 116.6992
564.3960, 46.36133
565.5700, 78.75781
566.7440, 175.4023
567.9170, 155.7852
569.0910, 292.0781
570.2640, 381.2852
571.4380, 341.7031
572.6110, 109.5605
573.7840, 272.5625
574.9570, 178.4863
576.1290, 107.3418
577.3020, 239.1016
578.4740, 211.8047
579.6460, 172.4414
580.8180, 124.0176
581.9900, 85.52930
583.1620, 44.96484
584.3330, 10.60938
585.5040, 92.84766
586.6760, 50.00781
587.8470, 29.71680
589.0180, 73.53125
590.1880, 178.7891
591.3590, 40.54492
592.5290, 65.59961
593.7000, 5.750000
594.8700, 17.24805
596.0400, 80.77344
597.2090, 79.69531
598.3790, 34.56641
599.5490, 114.5137
600.7180, 91.84961
601.8870, 57.32227
603.0560, 21.23828
604.2250, 44.69531
605.3940, 31.16992
606.5620, 31.13477
607.7300, 117.6270
608.8990, 65.37695
610.0670, 150.4863
611.2350, 87.48438
612.4020, 12.39062
613.5700, 73.19141
614.7370, 59.89062
615.9050, 133.4902
617.0720, 116.3281
618.2390, 43.41016
619.4060, 86.73242
620.5720, 73.95508
621.7390, 39.07812
622.9050, 50.12109
624.0710, 54.97461
625.2370, 40.81250
626.4030, 54.49805
627.5690, 87.08398
628.7340, 69.43164
629.9000, 89.08789
631.0650, 41.90039
632.2300, 54.15820
633.3950, 62.11523
634.5600, 74.03320
635.7240, 52.67383
636.8890, 46.72070
638.0530, 34.75000
639.2170, 28.11914
640.3810, 107.3848
641.5450, 25.54883
642.7080, 19.60742
643.8720, 35.43750
645.0350, 126.3926
646.1980, 62.12891
647.3610, 4.228516
648.5240, 52.35352
649.6870, 38.11133
650.8490, 121.6211
652.0120, 8.191406
653.1740, 42.49609
654.3360, 80.81250
655.4980, 47.16797
656.6600, 59.54688
657.8210, 82.65820
658.9830, 198.5098
660.1440, 108.6895
661.3050, 282.9668
662.4660, 167.1992
663.6270, 302.0508
664.7870, 132.1641
665.9480, 199.3965
667.1080, 186.8359
668.2680, 375.5684
669.4280, 417.5488
670.5880, 486.7148
671.7480, 473.7461
672.9070, 659.9473
674.0670, 640.1641
675.2260, 745.5879
676.3850, 894.1133
677.5440, 1034.648
678.7030, 1013.875
679.8610, 1055.494
681.0200, 1086.645
682.1780, 1044.963
683.3360, 1093.760
684.4940, 1085.852
685.6520, 1054.971
686.8090, 1065.070
687.9670, 1043.184
689.1240, 963.6934
690.2810, 856.6035
691.4380, 795.9395
692.5950, 690.0957
693.7520, 810.9355
694.9080, 759.1895
696.0650, 911.0996
697.2210, 851.1797
698.3770, 728.5918
699.5330, 917.5781
700.6880, 929.7539
701.8440, 894.3828
702.9990, 617.3047
704.1550, 733.9980
705.3100, 581.0352
706.4650, 647.8184
707.6190, 485.4453
708.7740, 661.4746
709.9290, 461.6875
711.0830, 532.4531
712.2370, 617.4883
713.3910, 836.3438
714.5450, 714.0977
715.6980, 754.0371
716.8520, 1086.051
718.0050, 920.6289
719.1580, 900.1172
720.3110, 761.7852
721.4640, 561.9043
722.6170, 443.3730
723.7700, 656.1465
724.9220, 641.5137
726.0740, 445.1445
727.2260, 428.8066
728.3780, 403.2656
729.5300, 283.1426
730.6810, 377.1074
731.8330, 245.3145
732.9840, 252.0293
734.1350, 337.0215
735.2860, 430.9551
736.4370, 456.7383
737.5880, 526.1523
738.7380, 404.3945
739.8880, 531.4219
741.0390, 422.8320
742.1890, 431.8926
743.3380, 518.0664
744.4880, 375.9375
745.6380, 463.7852
746.7870, 379.2148
747.9360, 507.4609
749.0850, 569.3242
750.2340, 588.6855
751.3830, 549.3789
752.5310, 722.5488
753.6800, 744.7227
754.8280, 655.8809
755.9760, 776.3477
757.1240, 781.5469
758.2720, 937.0195
759.4190, 1137.701
760.5670, 1138.396
761.7140, 1351.379
762.8610, 1640.600
764.0080, 1925.227
765.1550, 2196.408
766.3020, 2490.516
767.4480, 2817.781
768.5950, 3219.018
769.7410, 3624.402
770.8870, 3985.373
772.0330, 4281.684
773.1780, 3959.902
774.3240, 4202.645
775.4690, 3811.479
776.6140, 3240.000
777.7590, 2935.418
778.9040, 2472.799
780.0490, 2093.365
781.1940, 1700.535
782.3380, 1401.805
783.4820, 1134.277
784.6260, 875.4141
785.7700, 817.9941
786.9140, 878.9492
788.0580, 729.8320
789.2010, 613.2480
790.3450, 422.6289
791.4880, 279.2578
792.6310, 360.9707
793.7730, 221.0215
794.9160, 322.2266
796.0590, 179.7109
797.2010, 112.5918
798.3430, 336.0098
799.4850, 115.0742
800.6270, 207.5645
801.7690, 144.5332
802.9100, 113.7012
804.0520, 54.05664
805.1930, 6.531250
806.3340, 128.1582
807.4750, 47.86719
808.6160, 75.19922
809.7560, 253.1719
810.8970, 228.0566
812.0370, 157.8555
813.1770, 112.5645
814.3170, 88.62305
815.4570, 126.7109
816.5960, 26.15039
817.7360, 108.4941
818.8750, 54.75000
820.0140, 32.91406
821.1530, 90.99023
822.2920, 71.97461
823.4310, 48.87305
824.5690, 198.6836
825.7070, 60.41211
826.8460, 9.943359
827.9840, 31.39844
829.1220, 92.03516
830.2590, 7.386719
831.3970, 56.64453
832.5340, 5.181641
833.6710, 65.89648
834.8080, 48.89258
835.9450, 27.98438
837.0820, 74.64062
838.2190, 4.396484
839.3550, 19.93359
840.4910, 6.636719
841.6270, 140.1250
842.7630, 55.53711
843.8990, 52.87305
845.0350, 73.13086
846.1700, 31.69141
847.3060, 28.69141
848.4410, 97.72266
849.5760, 5.892578
850.7100, 59.89258
851.8450, 25.47070
852.9800, 94.98047
854.1140, 75.57227
855.2480, 94.29102
856.3820, 86.14453
857.5160, 65.75781
858.6500, 155.7734
859.7830, 8.294922
860.9170, 7.048828
862.0500, 104.7266
863.1830, 31.92969
864.3160, 110.2715
865.4480, 94.29688
866.5810, 20.24805
867.7130, 84.46680
868.8460, 164.6270
869.9780, 146.6934
871.1100, 107.0684
872.2410, 16.23047
873.3730, 115.5449
874.5050, 92.53125
875.6360, 156.1660
876.7670, 302.4980
877.8980, 17.26953
879.0290, 92.93750
880.1590, 118.4434
881.2900, 103.2969
882.4200, 51.45898
883.5500, 260.2031
884.6800, 52.52930
885.8100, 18.31250
886.9400, 243.8594
888.0690, 204.0000
889.1990, 170.1016
890.3280, 227.1484
891.4570, 58.86133
892.5860, 87.03516
893.7140, 44.86914
894.8430, 200.6387
895.9710, 142.3594
897.1000, 65.02148
898.2280, 323.6426
899.3560, 101.2324
900.4830, 329.7656
901.6110, 103.2773
902.7380, 276.7344
903.8660, 214.1621
904.9930, 426.5605
906.1200, 436.9297
907.2460, 301.2539
908.3730, 523.5391
909.5000, 598.7969
910.6260, 574.0098
911.7520, 658.1895
912.8780, 613.3359
914.0040, 738.4414
915.1290, 1045.586
916.2550, 1415.686
917.3800, 1414.609
918.5050, 1585.488
919.6300, 1597.730
920.7550, 1725.660
921.8800, 2028.545
923.0040, 2296.383
924.1290, 2404.188
925.2530, 2864.979
926.3770, 3141.486
927.5010, 3287.355
928.6250, 3440.566
929.7480, 3396.168
930.8720, 3636.182
931.9950, 3696.553
933.1180, 3657.598
934.2410, 3357.537
935.3640, 3202.508
936.4860, 3113.824
937.6090, 3099.840
938.7310, 2811.688
939.8530, 2804.246
940.9750, 2523.395
942.0970, 2904.172
943.2180, 2557.633
944.3400, 2804.098
945.4610, 3281.262
946.5820, 3316.281
947.7030, 3538.961
948.8240, 4253.404
949.9450, 4292.705
951.0650, 4732.121
952.1860, 5057.076
953.3060, 5184.334
954.4260, 5285.324
955.5460, 5607.182
956.6650, 5361.246
957.7850, 4906.186
958.9040, 5010.990
960.0230, 4848.383
961.1420, 4583.152
962.2610, 4434.303
963.3800, 4263.066
964.4990, 4240.844
965.6170, 4244.930
966.7350, 3875.479
967.8530, 4066.750
968.9710, 4033.264
970.0890, 4291.668
971.2070, 4128.498
972.3240, 4047.939
973.4410, 4192.295
974.5580, 4231.633
975.6750, 4502.398
976.7920, 4450.955
977.9090, 3959.867
979.0250, 4492.043
980.1410, 4343.961
981.2580, 4674.211
982.3740, 4427.775
983.4890, 4466.826
984.6050, 4290.336
985.7200, 4540.367
986.8360, 4652.139
987.9510, 4729.270
989.0660, 4725.547
990.1810, 4621.734
991.2950, 4515.371
992.4100, 4510.301
993.5240, 4294.492
994.6390, 4387.043
995.7530, 4327.455
996.8660, 4257.975
997.9800, 4037.229
999.0940, 4105.832
1000.207, 3883.451
1001.320, 4039.809
1002.433, 4034.564
1003.546, 3854.184
1004.659, 4015.012
1005.772, 3827.639
1006.884, 3789.820
1007.996, 3615.607
1009.108, 3567.881
1010.220, 3349.160
1011.332, 3458.768
1012.444, 2886.732
1013.555, 2983.379
1014.666, 2959.645
1015.777, 2627.240
1016.888, 2813.920
1017.999, 2503.869
1019.110, 2423.178
1020.220, 2487.451
1021.331, 2419.711
1022.441, 2363.908
1023.551, 2509.008
1024.661, 2408.854
1025.770, 2239.463
1026.880, 2303.102
1027.989, 2243.215
1029.098, 2245.029
1030.207, 2309.818
1031.316, 2502.805
1032.425, 2711.223
1033.533, 3026.793
1034.642, 3527.889
1035.750, 3922.396
1036.858, 4626.957
1037.966, 5713.725
1039.073, 7118.490
1040.181, 8590.859
1041.288, 9898.068
1042.396, 10468.46
1043.503, 9532.789
1044.610, 9216.465
1045.716, 9445.102
1046.823, 10466.36
1047.929, 13229.09
1049.036, 16632.57
1050.142, 20764.73
1051.248, 24343.69
1052.353, 28175.46
1053.459, 30694.83
1054.564, 32772.05
1055.670, 32645.03
1056.775, 32354.98
1057.880, 30222.29
1058.985, 26487.81
1060.089, 21768.16
1061.194, 16450.01
1062.298, 11636.63
1063.402, 7817.619
1064.506, 5489.260
1065.610, 3859.852
1066.713, 2867.711
1067.817, 2078.875
1068.920, 1815.467
1070.023, 1399.580
1071.126, 1197.098
1072.229, 1074.168
1073.332, 693.7383
1074.435, 614.0254
1075.537, 721.8223
1076.639, 908.7246
1077.741, 783.8789
1078.843, 866.1270
1079.945, 771.2422
1081.046, 628.2500
1082.148, 559.0957
1083.249, 803.2246
1084.350, 575.5137
1085.451, 572.4297
1086.551, 942.0000
1087.652, 894.8828
1088.752, 819.9805
1089.853, 758.6465
1090.953, 692.3613
1092.053, 671.1367
1093.152, 645.4180
1094.252, 630.8867
1095.351, 625.3633
1096.451, 579.3672
1097.550, 549.5137
1098.649, 694.0840
1099.748, 618.6465
1100.846, 418.6367
1101.945, 511.3750
1103.043, 171.8867
1104.141, 465.3223
1105.239, 146.9141
1106.337, 260.4668
1107.434, 302.1230
1108.532, 331.1250
1109.629, 128.0273
1110.726, 298.8926
1111.823, 134.0176
1112.920, 320.8984
1114.017, 34.42383
1115.113, 334.9980
1116.210, 139.3457
1117.306, 155.7832
1118.402, 557.4492
1119.498, 392.7812
1120.593, 635.1230
1121.689, 371.1680
1122.784, 500.8594
1123.879, 366.4883
1124.974, 450.5547
1126.069, 310.2676
1127.164, 550.2441
1128.259, 188.6270
1129.353, 48.99219
1130.447, 161.9902
1131.541, 139.2578
1132.635, 198.0215
1133.729, 95.41992
1134.822, 193.1289
1135.916, 121.7227
1137.009, 125.5098
1138.102, 62.20312
1139.195, 84.78125
1140.288, 57.21875
1141.380, 98.44922
1142.473, 68.51562
1143.565, 12.32812
1144.657, 103.2227
1145.749, 214.3477
1146.841, 115.1367
1147.932, 38.14453
1149.024, 137.6328
1150.115, 37.30078
1151.206, 113.9453
1152.297, 63.94922
1153.388, 65.62109
1154.479, 26.83594
1155.569, 138.5391
1156.659, 78.71484
1157.750, 275.9297
1158.839, 114.9805
1159.929, 97.05859
1161.019, 39.37109
1162.108, 56.01562
1163.198, 57.07422
1164.287, 31.64062
1165.376, 88.08984
1166.465, 35.10547
1167.553, 190.3633
1168.642, 71.97656
1169.730, 6.621094
1170.818, 94.33594
1171.906, 12.75781
1172.994, 312.6406
1174.082, 81.73047
1175.170, 228.6562
1176.257, 30.08203
1177.344, 74.87500
1178.431, 302.8164
1179.518, 245.7422
1180.605, 73.71875
1181.691, 351.9688
1182.778, 153.0273
1183.864, 237.8125
1184.950, 267.4023
1186.036, 311.6914
1187.122, 313.9844
1188.207, 219.6367
1189.292, 160.8984
1190.378, 191.2656
1191.463, 148.4375
1192.548, 352.0195
1193.632, 255.6445
1194.717, 332.0469
1195.801, 96.85547
1196.886, 264.3242
1197.970, 185.0352
1199.054, 74.60547
1200.137, 4.800781
1201.221, 76.55859
1202.305, 176.3516
1203.388, 287.5469
1204.471, 350.1797
1205.554, 219.6719
1206.637, 191.7812
1207.719, 123.6680
1208.802, 93.04297
1209.884, 354.8555
1210.966, 133.6758
1212.048, 163.6992
1213.130, 327.1602
1214.212, 41.07031
1215.293, 121.8750
1216.374, 196.7734
1217.456, 112.6680
1218.536, 54.24609
1219.617, 148.9258
1220.698, 129.8555
1221.778, 154.6172
1222.859, 230.1641
1223.939, 340.4297
1225.019, 398.0625
1226.099, 267.5039
1227.178, 223.8008
1228.258, 116.5742
1229.337, 109.7109
1230.417, 239.6875
1231.496, 51.61328
1232.574, 98.06250
1233.653, 106.1016
1234.732, 299.6758
1235.810, 299.7266
1236.888, 278.8164
1237.966, 467.0117
1239.044, 202.1445
1240.122, 14.54297
1241.199, 129.3633
1242.277, 176.4922
1243.354, 255.2773
1244.431, 234.8320
1245.508, 286.4648
1246.585, 255.2930
1247.661, 195.1172
1248.738, 264.5117
1249.814, 259.8320
1250.890, 88.07422
1251.966, 169.2266
1253.042, 60.70312
1254.117, 83.76562
1255.193, 1.019531
1256.268, 13.62500
1257.343, 29.22266
1258.418, 195.1172
1259.493, 274.3477
1260.567, 28.96094
1261.642, 304.3828
1262.716, 142.9688
1263.790, 300.0391
1264.864, 53.43359
1265.938, 71.43750
1267.011, 265.3633
1268.085, 250.9375
1269.158, 197.5195
1270.231, 39.84375
1271.304, 131.5977
1272.377, 144.1836
1273.450, 8.066406
1274.522, 313.0898
1275.594, 140.0977
1276.666, 313.4297
1277.738, 10.42578
1278.810, 180.4062
1279.882, 177.5742
1280.953, 127.8242
1282.025, 160.0977
1283.096, 52.18359
1284.167, 206.0938
1285.238, 78.37891
1286.308, 60.99609
1287.379, 84.08594
1288.449, 301.0078
1289.519, 229.8125
1290.589, 381.2578
1291.659, 239.4336
1292.729, 111.5469
1293.798, 164.6602
1294.868, 388.0625
1295.937, 119.0039
1297.006, 257.5820
1298.075, 232.4609
1299.143, 199.2734
1300.212, 137.0117
1301.280, 237.6406
1302.348, 59.45312
1303.416, 353.9375
1304.484, 260.0039
1305.552, 90.53906
1306.620, 230.3945
1307.687, 333.3516
1308.754, 218.9648
1309.821, 375.2500
1310.888, 166.6328
1311.955, 215.9219
1313.021, 247.1289
1314.088, 302.3672
1315.154, 215.1641
1316.220, 257.0156
1317.286, 260.6797
1318.352, 218.4961
1319.417, 217.7188
1320.483, 131.9844
1321.548, 75.34766
1322.613, 111.2305
1323.678, 235.3633
1324.743, 299.4336
1325.807, 26.14062
1326.872, 240.4414
1327.936, 71.20703
1329.000, 394.3594
1330.064, 366.6680
1331.128, 255.5586
1332.191, 131.4727
1333.255, 389.0625
1334.318, 225.8711
1335.381, 260.1523
1336.444, 211.9258
1337.507, 454.0938
1338.569, 230.3438
1339.632, 432.2422
1340.694, 280.5625
1341.756, 393.7891
1342.818, 470.9023
1343.880, 359.1016
1344.941, 343.4219
1346.003, 453.0391
1347.064, 118.6289
1348.125, 220.2227
1349.186, 376.8477
1350.247, 342.8242
1351.308, 150.7422
1352.368, 4.058594
1353.428, 77.82812
1354.489, 330.6797
1355.549, 197.3086
1356.608, 330.4258
1357.668, 350.3906
1358.727, 342.9023
1359.787, 197.5664
1360.846, 383.3672
1361.905, 127.1992
1362.964, 315.9492
1364.022, 51.59375
1365.081, 462.4062
1366.139, 161.2617
1367.197, 638.6211
1368.255, 434.3906
1369.313, 774.8086
1370.371, 586.0938
1371.428, 659.9258
1372.486, 1182.613
1373.543, 931.4609
1374.600, 1136.469
1375.657, 1175.199
1376.713, 812.6250
1377.770, 841.8711
1378.826, 718.8203
1379.882, 800.5508
1380.938, 778.2695
1381.994, 797.9102
1383.050, 836.7461
1384.106, 631.8594
1385.161, 881.9531
1386.216, 673.4414
1387.271, 650.2070
1388.326, 728.6055
1389.381, 413.3945
1390.435, 693.4492
1391.490, 499.0938
1392.544, 899.5508
1393.598, 580.0508
1394.652, 719.3398
1395.705, 681.5039
1396.759, 340.9922
1397.812, 485.9805
1398.866, 550.4609
1399.919, 478.7070
1400.972, 534.6133
1402.024, 212.6758
1403.077, 253.9492
1404.129, 235.8945
1405.181, 504.5195
1406.233, 468.8672
1407.285, 535.1875
1408.337, 682.2773
1409.389, 345.4688
1410.440, 647.1484
1411.491, 365.4648
1412.542, 190.2305
1413.593, 251.1914
1414.644, 349.8281
1415.695, 338.2852
1416.745, 367.3984
1417.795, 258.0898
1418.845, 165.2148
1419.895, 199.6992
1420.945, 282.5391
1421.995, 123.1406
1423.044, 398.4180
1424.093, 134.2305
1425.142, 301.8711
1426.191, 148.3711
1427.240, 331.5117
1428.289, 68.00781
1429.337, 288.3164
1430.385, 121.3945
1431.433, 170.3555
1432.481, 21.42188
1433.529, 287.3203
1434.577, 164.1875
1435.624, 59.07031
1436.672, 56.55469
1437.719, 89.92188
1438.766, 173.6641
1439.812, 175.4492
1440.859, 67.39453
1441.905, 151.4766
1442.952, 403.2266
1443.998, 349.0078
1445.044, 246.2656
1446.090, 655.0625
1447.135, 456.1406
1448.181, 916.7695
1449.226, 508.7852
1450.271, 669.3906
1451.316, 678.9492
1452.361, 456.1133
1453.405, 813.7500
1454.450, 453.1328
1455.494, 166.9766
1456.538, 111.7852
1457.582, 202.7227
1458.626, 325.9805
1459.670, 1.101563
1460.713, 209.2109
1461.757, 244.9961
1462.800, 48.92578
1463.843, 356.1719
1464.886, 171.7891
1465.928, 576.1445
1466.971, 252.8867
1468.013, 29.87891
1469.055, 250.3203
1470.097, 58.67188
1471.139, 110.2227
1472.181, 281.7227
1473.222, 63.82422
1474.263, 608.5625
1475.305, 242.9062
1476.346, 362.2148
1477.386, 580.5938
1478.427, 254.0000
1479.468, 661.4023
1480.508, 437.7734
1481.548, 524.1250
1482.588, 92.44922
1483.628, 420.7695
1484.668, 433.8828
1485.707, 324.1367
1486.747, 303.5430
1487.786, 260.9570
1488.825, 543.0508
1489.864, 143.4336
1490.902, 311.7695
1491.941, 194.1523
1492.979, 616.8438
1494.017, 497.1562
1495.055, 145.9219
1496.093, 429.0273
1497.131, 411.3750
1498.168, 328.2070
1499.206, 235.8359
1500.243, 228.0859
1501.280, 321.6172
1502.317, 391.3125
1503.354, 156.0352
1504.390, 294.9766
1505.426, 505.1133
1506.463, 160.0000
1507.499, 1.246094
1508.535, 314.2383
1509.570, 144.4453
1510.606, 359.6602
1511.641, 413.8320
1512.676, 568.9375
1513.711, 280.5352
1514.746, 417.3672
1515.781, 415.0703
1516.816, 369.8477
1517.850, 695.0156
1518.884, 276.8633
1519.918, 538.9297
1520.952, 108.6133
1521.986, 82.85938
1523.019, 236.1016
1524.053, 597.7695
1525.086, 202.3906
1526.119, 453.5508
1527.152, 387.9219
1528.185, 549.6953
1529.217, 268.1211
1530.250, 452.8477
1531.282, 22.72656
1532.314, 307.0117
1533.346, 543.3125
1534.377, 283.7305
1535.409, 277.7305
1536.440, 217.8555
1537.472, 137.6484
1538.503, 270.1719
1539.534, 359.2500
1540.564, 236.2539
1541.595, 295.0508
1542.625, 16.62500
1543.656, 360.1484
1544.686, 184.8008
1545.716, 462.5977
1546.745, 260.7852
1547.775, 399.5391
1548.804, 318.3359
1549.834, 192.8828
1550.863, 313.2227
1551.892, 215.9609
1552.920, 390.8672
1553.949, 499.3125
1554.977, 279.9297
1556.006, 111.4648
1557.034, 533.4570
1558.062, 91.82422
1559.089, 313.4922
1560.117, 310.3008
1561.144, 34.41797
1562.172, 196.4688
1563.199, 407.6836
1564.226, 437.0664
1565.252, 81.21875
1566.279, 170.9688
1567.305, 158.5586
1568.332, 2.269531
1569.358, 456.6992
1570.384, 0.0000000E+00
##END=



