##NAMES=Cancrinite
##RRUFFID=R050352
##IDEAL CHEMISTRY=(Na,Ca,[box])_8_(Al_6_Si_6_)O_24_(CO_3_,S^6+^O_4_)_2_&#183;2H_2_O
##LOCALITY=York River, quarry #2, Dungannon Township, Ontario, Canada
##OWNER=RRUFF
##SOURCE=California Institute of Technology
##DESCRIPTION=Pink fragment
##STATUS=The identification of this mineral has been confirmed by X-ray diffraction and chemical analysis
##URL=rruff.info/R050352
##MEASURED CHEMISTRY=(Na_6.07_Ca_1.62_[box]_0.31_)_Σ=8_(Al_0.99_Si_1.01_O_4_)_6_((CO_3_)_0.84_[box]_0.16_)_Σ=2_·2H_2_O
##PIN_ID=M00367
##ORIENTATION=Laser parallel to a* (1 0 0). Fiducial mark perpendicular to laser is parallel to c [0 0 1]
170.9360, 0.0000000E+00
172.1610, 17.10156
173.3850, 6.067383
174.6100, 28.76465
175.8340, 4.890625
177.0580, 9.565430
178.2820, 84.28027
179.5050, 194.3711
180.7290, 257.4717
181.9520, 389.5215
183.1760, 410.6895
184.3990, 426.3955
185.6220, 537.2666
186.8450, 539.9355
188.0670, 700.0439
189.2900, 862.2725
190.5120, 950.3389
191.7340, 1103.001
192.9560, 1093.057
194.1780, 1158.333
195.4000, 1139.730
196.6220, 1205.438
197.8430, 1116.581
199.0640, 921.0039
200.2860, 963.4932
201.5070, 713.8760
202.7270, 604.0068
203.9480, 437.7695
205.1690, 356.0674
206.3890, 266.8164
207.6090, 327.9502
208.8290, 287.4072
210.0490, 407.1406
211.2690, 514.1133
212.4890, 654.2988
213.7080, 748.2549
214.9280, 829.2217
216.1470, 954.9238
217.3660, 1063.766
218.5850, 1180.914
219.8030, 1269.384
221.0220, 1459.417
222.2400, 1360.405
223.4590, 1409.656
224.6770, 1513.214
225.8950, 1424.510
227.1120, 1555.430
228.3300, 1655.990
229.5480, 1635.219
230.7650, 1456.137
231.9820, 1596.762
233.1990, 1510.115
234.4160, 1393.210
235.6330, 1408.061
236.8490, 1463.680
238.0660, 1382.078
239.2820, 1383.267
240.4980, 1313.255
241.7140, 1485.056
242.9300, 1585.678
244.1460, 1752.124
245.3610, 1728.368
246.5770, 1827.459
247.7920, 1832.428
249.0070, 2174.297
250.2220, 2401.088
251.4370, 2665.811
252.6510, 2864.479
253.8660, 3168.098
255.0800, 3613.675
256.2940, 4036.217
257.5080, 4651.729
258.7220, 5204.211
259.9360, 5679.666
261.1490, 6118.100
262.3630, 6804.511
263.5760, 7515.901
264.7890, 8608.272
266.0020, 9203.396
267.2150, 10230.75
268.4270, 11113.61
269.6400, 11940.03
270.8520, 12747.63
272.0640, 13207.70
273.2760, 13454.35
274.4880, 13292.15
275.7000, 12912.84
276.9120, 12025.30
278.1230, 10722.67
279.3340, 9471.349
280.5450, 8246.456
281.7560, 7334.862
282.9670, 6711.291
284.1780, 5852.741
285.3880, 5327.210
286.5980, 5180.696
287.8090, 5258.197
289.0190, 5238.715
290.2290, 5374.244
291.4380, 5347.785
292.6480, 5599.337
293.8570, 5790.887
295.0670, 5766.429
296.2760, 6036.961
297.4850, 6079.473
298.6930, 5869.970
299.9020, 5706.449
301.1110, 5272.909
302.3190, 5103.346
303.5270, 4501.766
304.7350, 4037.166
305.9430, 3626.543
307.1510, 3037.902
308.3580, 2697.250
309.5660, 2301.582
310.7730, 2002.931
311.9800, 1837.275
313.1870, 1650.682
314.3940, 1410.129
315.6010, 1211.561
316.8070, 1001.199
318.0130, 861.8066
319.2200, 785.9365
320.4260, 917.7324
321.6310, 786.8486
322.8370, 806.2988
324.0430, 726.0117
325.2480, 881.9395
326.4540, 893.0684
327.6590, 1139.362
328.8640, 1261.797
330.0680, 1333.357
331.2730, 1529.027
332.4780, 1561.795
333.6820, 1504.646
334.8860, 1590.572
336.0900, 1560.563
337.2940, 1440.621
338.4980, 1534.729
339.7010, 1447.885
340.9050, 1399.079
342.1080, 1344.307
343.3110, 1542.561
344.5140, 1409.834
345.7170, 1446.124
346.9200, 1323.421
348.1220, 1299.724
349.3240, 1179.053
350.5270, 1071.384
351.7290, 911.7139
352.9310, 872.0596
354.1320, 597.4004
355.3340, 613.7373
356.5350, 453.0645
357.7370, 234.3799
358.9380, 166.6816
360.1390, 75.03223
361.3400, 40.80078
362.5400, 35.61133
363.7410, 123.4678
364.9410, 214.4004
366.1410, 338.4434
367.3410, 184.6377
368.5410, 154.9414
369.7410, 182.3564
370.9400, 16.88672
372.1400, 342.4922
373.3390, 187.2598
374.5380, 140.1465
375.7370, 134.1416
376.9360, 64.24316
378.1350, 38.43066
379.3330, 115.6953
380.5310, 24.94629
381.7300, 1.472656
382.9280, 28.04492
384.1260, 129.5049
385.3230, 91.91699
386.5210, 248.2812
387.7180, 224.6045
388.9160, 260.8857
390.1130, 429.1250
391.3100, 525.3242
392.5060, 656.4834
393.7030, 864.6035
394.9000, 1042.685
396.0960, 1320.727
397.2920, 1578.729
398.4880, 1644.693
399.6840, 2040.618
400.8800, 2303.504
402.0750, 2419.363
403.2710, 2623.389
404.4660, 2915.358
405.6610, 3231.087
406.8560, 3596.446
408.0510, 4072.996
409.2450, 4506.562
410.4400, 5182.289
411.6340, 5838.897
412.8280, 6537.438
414.0220, 7455.305
415.2160, 8104.570
416.4100, 8526.351
417.6030, 8785.072
418.7970, 8867.485
419.9900, 8522.973
421.1830, 8418.354
422.3760, 7764.697
423.5690, 6946.160
424.7610, 6158.480
425.9540, 5405.721
427.1460, 4994.848
428.3380, 4403.199
429.5300, 4033.016
430.7220, 3615.896
431.9140, 3340.745
433.1050, 3050.599
434.2970, 2889.688
435.4880, 2596.244
436.6790, 2459.177
437.8700, 2284.911
439.0610, 2144.889
440.2510, 1956.026
441.4420, 1828.398
442.6320, 1687.575
443.8220, 1595.909
445.0120, 1534.638
446.2020, 1479.814
447.3910, 1485.361
448.5810, 1457.216
449.7700, 1480.843
450.9600, 1466.278
452.1490, 1607.460
453.3370, 1648.947
454.5260, 1817.750
455.7150, 1819.490
456.9030, 2135.291
458.0910, 2394.240
459.2800, 2534.705
460.4670, 2842.236
461.6550, 3072.783
462.8430, 3125.020
464.0300, 3087.746
465.2180, 2948.346
466.4050, 2842.311
467.5920, 2759.898
468.7790, 2735.481
469.9650, 2740.260
471.1520, 2795.375
472.3380, 2879.668
473.5250, 3031.605
474.7110, 3217.947
475.8970, 3220.329
477.0820, 3463.354
478.2680, 3601.398
479.4540, 3941.220
480.6390, 4317.359
481.8240, 4505.744
483.0090, 5101.854
484.1940, 5517.946
485.3780, 6213.961
486.5630, 6740.830
487.7470, 7317.748
488.9320, 7894.211
490.1160, 8682.757
491.3000, 9199.050
492.4830, 9678.011
493.6670, 10066.53
494.8500, 10293.96
496.0340, 10405.65
497.2170, 10246.07
498.4000, 9946.396
499.5820, 9655.532
500.7650, 9180.422
501.9480, 8594.094
503.1300, 7874.688
504.3120, 7447.578
505.4940, 6958.427
506.6760, 6444.731
507.8580, 5847.137
509.0390, 5334.655
510.2210, 4904.001
511.4020, 4544.783
512.5830, 4011.639
513.7640, 3882.791
514.9450, 3375.043
516.1250, 3028.646
517.3060, 2697.024
518.4860, 2316.556
519.6660, 2189.596
520.8460, 1883.482
522.0260, 1697.900
523.2060, 1444.531
524.3850, 1475.633
525.5650, 1276.292
526.7440, 1214.814
527.9230, 1136.080
529.1020, 1008.497
530.2810, 835.4043
531.4590, 820.4209
532.6380, 639.5996
533.8160, 573.7383
534.9940, 475.8359
536.1720, 412.8926
537.3500, 561.9053
538.5270, 391.8779
539.7050, 417.8105
540.8820, 433.7021
542.0590, 313.5654
543.2360, 286.3867
544.4130, 237.1660
545.5900, 240.9121
546.7660, 307.6143
547.9430, 316.2783
549.1190, 308.9141
550.2950, 162.5225
551.4710, 236.0850
552.6470, 235.6328
553.8220, 197.1357
554.9980, 307.5957
556.1730, 140.0352
557.3480, 201.4287
558.5230, 163.7852
559.6980, 146.1006
560.8730, 198.3857
562.0470, 151.6406
563.2220, 147.8574
564.3960, 110.0332
565.5700, 137.1680
566.7440, 150.2666
567.9170, 171.0459
569.0910, 111.3457
570.2640, 232.3223
571.4380, 210.2705
572.6110, 211.2031
573.7840, 71.10059
574.9570, 55.95508
576.1290, 261.7666
577.3020, 145.5410
578.4740, 224.2764
579.6460, 139.9727
580.8180, 94.62891
581.9900, 51.24219
583.1620, 70.81348
584.3330, 48.33984
585.5040, 56.82227
586.6760, 169.2588
587.8470, 36.34473
589.0180, 15.97559
590.1880, 183.2451
591.3590, 26.37793
592.5290, 81.21973
593.7000, 23.13184
594.8700, 60.78906
596.0400, 3.131836
597.2090, 72.21094
598.3790, 45.26270
599.5490, 10.83301
600.7180, 114.2949
601.8870, 103.9668
603.0560, 25.40527
604.2250, 51.43457
605.3940, 1.045898
606.5620, 23.71777
607.7300, 53.27832
608.8990, 35.90137
610.0670, 48.55273
611.2350, 84.12305
612.4020, 81.55566
613.5700, 155.8994
614.7370, 49.09473
615.9050, 38.25000
617.0720, 101.3574
618.2390, 85.43164
619.4060, 16.54004
620.5720, 42.42676
621.7390, 10.93652
622.9050, 33.22266
624.0710, 29.05078
625.2370, 31.84961
626.4030, 43.60059
627.5690, 30.30957
628.7340, 115.9688
629.9000, 83.58789
631.0650, 82.83887
632.2300, 3.638672
633.3950, 53.06641
634.5600, 72.55078
635.7240, 9.740234
636.8890, 11.01562
638.0530, 45.17090
639.2170, 79.31250
640.3810, 123.4092
641.5450, 117.4629
642.7080, 120.2246
643.8720, 45.47949
645.0350, 95.46777
646.1980, 64.44043
647.3610, 73.52930
648.5240, 61.05664
649.6870, 33.78027
650.8490, 52.72266
652.0120, 12.65918
653.1740, 57.17383
654.3360, 135.7051
655.4980, 198.3857
656.6600, 211.1729
657.8210, 338.6348
658.9830, 183.4014
660.1440, 101.0586
661.3050, 2.932617
662.4660, 69.71484
663.6270, 44.65820
664.7870, 47.00977
665.9480, 248.4277
667.1080, 134.9297
668.2680, 151.2637
669.4280, 315.9678
670.5880, 266.0615
671.7480, 263.8623
672.9070, 404.5059
674.0670, 403.0146
675.2260, 541.2148
676.3850, 543.3301
677.5440, 733.9199
678.7030, 709.3857
679.8610, 865.7139
681.0200, 921.8770
682.1780, 1198.855
683.3360, 1181.677
684.4940, 1168.788
685.6520, 1177.657
686.8090, 1001.890
687.9670, 983.2910
689.1240, 943.7412
690.2810, 925.3242
691.4380, 877.6758
692.5950, 904.9580
693.7520, 850.3350
694.9080, 1007.883
696.0650, 1079.972
697.2210, 860.4258
698.3770, 1020.769
699.5330, 834.1621
700.6880, 887.0137
701.8440, 765.1494
702.9990, 712.1689
704.1550, 824.8828
705.3100, 693.7783
706.4650, 690.5703
707.6190, 657.1230
708.7740, 572.6572
709.9290, 518.4766
711.0830, 608.4785
712.2370, 698.1807
713.3910, 855.5723
714.5450, 1104.781
715.6980, 1259.816
716.8520, 1181.322
718.0050, 1332.238
719.1580, 1024.664
720.3110, 807.9619
721.4640, 849.9736
722.6170, 563.1211
723.7700, 419.0215
724.9220, 448.5098
726.0740, 436.8779
727.2260, 398.9062
728.3780, 372.6729
729.5300, 218.0078
730.6810, 259.7256
731.8330, 238.1924
732.9840, 158.4053
734.1350, 285.8369
735.2860, 189.4102
736.4370, 184.6162
737.5880, 208.9941
738.7380, 138.6299
739.8880, 267.2529
741.0390, 281.5342
742.1890, 167.3408
743.3380, 242.4990
744.4880, 259.1895
745.6380, 130.7559
746.7870, 125.9766
747.9360, 193.1162
749.0850, 153.9463
750.2340, 184.6309
751.3830, 204.5283
752.5310, 274.1494
753.6800, 281.8711
754.8280, 300.3633
755.9760, 380.2930
757.1240, 374.8320
758.2720, 349.6299
759.4190, 350.3262
760.5670, 385.0439
761.7140, 519.1836
762.8610, 374.2979
764.0080, 560.3457
765.1550, 588.9600
766.3020, 815.9971
767.4480, 630.7207
768.5950, 817.9043
769.7410, 866.1533
770.8870, 1013.993
772.0330, 1054.807
773.1780, 986.6201
774.3240, 918.0859
775.4690, 831.9248
776.6140, 792.5918
777.7590, 668.0361
778.9040, 576.2969
780.0490, 471.1729
781.1940, 322.0322
782.3380, 304.5488
783.4820, 311.2461
784.6260, 202.7852
785.7700, 160.3320
786.9140, 151.7930
788.0580, 123.9004
789.2010, 100.2607
790.3450, 50.64746
791.4880, 117.9541
792.6310, 98.55273
793.7730, 285.3779
794.9160, 19.22363
796.0590, 30.86816
797.2010, 95.74609
798.3430, 64.97949
799.4850, 87.67676
800.6270, 42.70117
801.7690, 178.5791
802.9100, 155.4336
804.0520, 127.0439
805.1930, 158.1914
806.3340, 60.37109
807.4750, 26.13184
808.6160, 18.30371
809.7560, 46.69824
810.8970, 69.05273
812.0370, 133.3672
813.1770, 143.6475
814.3170, 20.89062
815.4570, 41.09277
816.5960, 64.25684
817.7360, 33.62012
818.8750, 128.4404
820.0140, 153.4658
821.1530, 22.54590
822.2920, 77.38672
823.4310, 29.28223
824.5690, 41.86133
825.7070, 36.07129
826.8460, 158.6523
827.9840, 94.65527
829.1220, 154.9434
830.2590, 84.50879
831.3970, 48.95898
832.5340, 76.50195
833.6710, 40.92871
834.8080, 20.32129
835.9450, 27.32324
837.0820, 16.02246
838.2190, 28.22852
839.3550, 42.44434
840.4910, 67.62695
841.6270, 8.223633
842.7630, 69.88086
843.8990, 137.9541
845.0350, 72.99609
846.1700, 19.99316
847.3060, 73.03320
848.4410, 5.151367
849.5760, 23.68848
850.7100, 27.49805
851.8450, 44.27539
852.9800, 44.85742
854.1140, 15.72949
855.2480, 38.40527
856.3820, 14.05078
857.5160, 9.663086
858.6500, 6.246094
859.7830, 12.10547
860.9170, 118.3164
862.0500, 22.80957
863.1830, 118.2705
864.3160, 92.72070
865.4480, 73.14746
866.5810, 84.39551
867.7130, 32.77832
868.8460, 4.135742
869.9780, 57.85059
871.1100, 61.47852
872.2410, 117.5713
873.3730, 23.62305
874.5050, 60.75098
875.6360, 31.57617
876.7670, 93.80371
877.8980, 26.00586
879.0290, 14.08887
880.1590, 54.93652
881.2900, 95.16602
882.4200, 10.82031
883.5500, 4.428711
884.6800, 20.31934
885.8100, 69.98047
886.9400, 78.19922
888.0690, 133.4160
889.1990, 13.58789
890.3280, 97.20801
891.4570, 33.01758
892.5860, 126.7285
893.7140, 97.45410
894.8430, 25.18164
895.9710, 5.116211
897.1000, 124.5625
898.2280, 62.77734
899.3560, 127.8271
900.4830, 6.422852
901.6110, 112.0029
902.7380, 35.56543
903.8660, 124.1055
904.9930, 147.6279
906.1200, 65.17773
907.2460, 171.7148
908.3730, 201.2354
909.5000, 247.7930
910.6260, 111.3379
911.7520, 152.8887
912.8780, 305.4219
914.0040, 176.9385
915.1290, 478.4365
916.2550, 336.9160
917.3800, 357.4111
918.5050, 345.8906
919.6300, 480.3516
920.7550, 676.6855
921.8800, 725.8301
923.0040, 802.9229
924.1290, 957.9053
925.2530, 856.7764
926.3770, 977.4336
927.5010, 944.3604
928.6250, 1107.191
929.7480, 1144.530
930.8720, 1337.998
931.9950, 1265.864
933.1180, 1353.622
934.2410, 1381.238
935.3640, 1187.940
936.4860, 1326.441
937.6090, 1164.499
938.7310, 1066.448
939.8530, 1292.266
940.9750, 1175.199
942.0970, 955.7129
943.2180, 1165.782
944.3400, 987.0938
945.4610, 939.5098
946.5820, 1069.005
947.7030, 1166.753
948.8240, 1222.527
949.9450, 1412.773
951.0650, 1450.091
952.1860, 1539.490
953.3060, 1615.003
954.4260, 1575.938
955.5460, 1599.864
956.6650, 1457.570
957.7850, 1519.962
958.9040, 1402.140
960.0230, 1317.095
961.1420, 1237.409
962.2610, 1213.671
963.3800, 1260.719
964.4990, 1209.361
965.6170, 1291.710
966.7350, 1313.215
967.8530, 1235.513
968.9710, 1269.655
970.0890, 1275.403
971.2070, 1404.572
972.3240, 1315.153
973.4410, 1365.205
974.5580, 1381.659
975.6750, 1541.510
976.7920, 1525.597
977.9090, 1607.790
979.0250, 1722.263
980.1410, 1683.452
981.2580, 1771.814
982.3740, 1700.852
983.4890, 1868.147
984.6050, 1879.670
985.7200, 2120.062
986.8360, 2009.088
987.9510, 2111.108
989.0660, 2217.001
990.1810, 2103.984
991.2950, 2208.858
992.4100, 2084.711
993.5240, 2216.541
994.6390, 2401.393
995.7530, 2319.680
996.8660, 2380.561
997.9800, 2336.838
999.0940, 2483.998
1000.207, 2644.170
1001.320, 2488.542
1002.433, 2512.960
1003.546, 2612.887
1004.659, 2478.641
1005.772, 2503.631
1006.884, 2533.245
1007.996, 2354.308
1009.108, 2547.963
1010.220, 2608.503
1011.332, 2342.951
1012.444, 2529.989
1013.555, 2334.441
1014.666, 2200.326
1015.777, 2277.412
1016.888, 2198.707
1017.999, 2166.417
1019.110, 2068.175
1020.220, 2123.000
1021.331, 2134.245
1022.441, 2087.191
1023.551, 2116.320
1024.661, 2165.288
1025.770, 2144.357
1026.880, 2329.156
1027.989, 2401.814
1029.098, 2541.180
1030.207, 2571.958
1031.316, 2738.426
1032.425, 3065.115
1033.533, 3270.717
1034.642, 3910.459
1035.750, 4653.214
1036.858, 5767.812
1037.966, 7469.559
1039.073, 9308.724
1040.181, 11429.34
1041.288, 12595.23
1042.396, 12656.46
1043.503, 11859.49
1044.610, 11341.62
1045.716, 11524.12
1046.823, 13567.59
1047.929, 16837.13
1049.036, 21879.90
1050.142, 27291.88
1051.248, 32796.02
1052.353, 37230.27
1053.459, 41718.83
1054.564, 43750.05
1055.670, 44301.28
1056.775, 43741.25
1057.880, 41035.13
1058.985, 35382.01
1060.089, 27997.88
1061.194, 20647.71
1062.298, 14273.31
1063.402, 9460.006
1064.506, 6727.922
1065.610, 4954.559
1066.713, 3768.281
1067.817, 2599.947
1068.920, 2129.418
1070.023, 1966.111
1071.126, 1554.607
1072.229, 1451.410
1073.332, 1167.291
1074.435, 1163.182
1075.537, 967.7090
1076.639, 1057.539
1077.741, 810.2852
1078.843, 928.5781
1079.945, 1058.607
1081.046, 997.6250
1082.148, 1009.623
1083.249, 902.9238
1084.350, 1042.010
1085.451, 1007.178
1086.551, 1267.479
1087.652, 1022.902
1088.752, 1090.107
1089.853, 1026.035
1090.953, 893.5859
1092.053, 909.1367
1093.152, 1135.092
1094.252, 928.9980
1095.351, 965.8848
1096.451, 1210.203
1097.550, 992.6738
1098.649, 956.6465
1099.748, 928.1484
1100.846, 673.1895
1101.945, 800.2500
1103.043, 693.0801
1104.141, 545.6191
1105.239, 580.8574
1106.337, 535.6914
1107.434, 518.7676
1108.532, 483.6797
1109.629, 351.4531
1110.726, 443.9980
1111.823, 293.5918
1112.920, 293.9219
1114.017, 327.9512
1115.113, 296.4199
1116.210, 264.1582
1117.306, 383.2305
1118.402, 517.4844
1119.498, 439.8633
1120.593, 433.4609
1121.689, 527.3379
1122.784, 448.2441
1123.879, 524.6641
1124.974, 555.9355
1126.069, 204.0996
1127.164, 196.0156
1128.259, 393.1230
1129.353, 161.9102
1130.447, 185.8008
1131.541, 122.6172
1132.635, 85.25000
1133.729, 22.14648
1134.822, 109.9023
1135.916, 5.210938
1137.009, 205.7305
1138.102, 57.91797
1139.195, 95.15625
1140.288, 1.146484
1141.380, 66.78320
1142.473, 72.76172
1143.565, 102.3145
1144.657, 24.95703
1145.749, 46.07422
1146.841, 171.7246
1147.932, 26.23633
1149.024, 159.5039
1150.115, 166.3457
1151.206, 120.8965
1152.297, 17.75195
1153.388, 75.14453
1154.479, 129.5566
1155.569, 86.32422
1156.659, 55.03711
1157.750, 56.63477
1158.839, 50.79102
1159.929, 197.0684
1161.019, 0.9414060
1162.108, 131.6992
1163.198, 67.50781
1164.287, 30.59961
1165.376, 24.72266
1166.465, 48.34375
1167.553, 8.507813
1168.642, 62.04102
1169.730, 68.57812
1170.818, 16.36328
1171.906, 64.02930
1172.994, 115.1367
1174.082, 40.88281
1175.170, 64.98438
1176.257, 167.8418
1177.344, 180.7070
1178.431, 159.9727
1179.518, 105.1172
1180.605, 105.2676
1181.691, 11.50195
1182.778, 262.9102
1183.864, 151.0586
1184.950, 3.724609
1186.036, 274.6855
1187.122, 46.43945
1188.207, 64.47656
1189.292, 65.59375
1190.378, 65.13086
1191.463, 70.77148
1192.548, 126.1797
1193.632, 100.9883
1194.717, 47.68555
1195.801, 126.6113
1196.886, 112.0723
1197.970, 123.3789
1199.054, 168.5039
1200.137, 113.2441
1201.221, 157.6172
1202.305, 82.20898
1203.388, 61.55664
1204.471, 56.03320
1205.554, 140.8125
1206.637, 68.73438
1207.719, 85.71094
1208.802, 193.0977
1209.884, 345.4199
1210.966, 291.9766
1212.048, 311.1914
1213.130, 181.0840
1214.212, 230.4141
1215.293, 60.03125
1216.374, 85.72266
1217.456, 144.4238
1218.536, 194.3945
1219.617, 267.5391
1220.698, 109.7852
1221.778, 272.9336
1222.859, 95.66797
1223.939, 335.6230
1225.019, 270.0801
1226.099, 166.7188
1227.178, 6.945313
1228.258, 27.57227
1229.337, 117.1797
1230.417, 23.17383
1231.496, 218.3027
1232.574, 297.9160
1233.653, 100.7754
1234.732, 170.5859
1235.810, 40.35547
1236.888, 203.3652
1237.966, 30.04102
1239.044, 269.6641
1240.122, 110.2422
1241.199, 277.7773
1242.277, 116.2676
1243.354, 204.7168
1244.431, 92.11719
1245.508, 263.4727
1246.585, 180.7812
1247.661, 133.0469
1248.738, 99.26758
1249.814, 323.4355
1250.890, 28.56250
1251.966, 200.6328
1253.042, 73.66016
1254.117, 105.6348
1255.193, 126.5586
1256.268, 182.4355
1257.343, 131.2637
1258.418, 204.0430
1259.493, 174.7754
1260.567, 187.4609
1261.642, 227.0000
1262.716, 158.3320
1263.790, 186.3496
1264.864, 288.6777
1265.938, 236.5234
1267.011, 73.92773
1268.085, 349.8848
1269.158, 178.0723
1270.231, 251.5254
1271.304, 30.03711
1272.377, 184.8418
1273.450, 25.30664
1274.522, 58.79688
1275.594, 149.3262
1276.666, 177.3379
1277.738, 228.6777
1278.810, 86.52539
1279.882, 101.3340
1280.953, 5.882813
1282.025, 59.33789
1283.096, 160.5898
1284.167, 131.9863
1285.238, 16.07617
1286.308, 69.12891
1287.379, 88.63672
1288.449, 242.7891
1289.519, 206.4004
1290.589, 281.8105
1291.659, 234.9844
1292.729, 211.8887
1293.798, 206.1465
1294.868, 149.5488
1295.937, 118.5000
1297.006, 49.20898
1298.075, 64.07812
1299.143, 8.039063
1300.212, 52.06641
1301.280, 23.29883
1302.348, 87.26758
1303.416, 316.5020
1304.484, 7.978516
1305.552, 9.031250
1306.620, 221.0312
1307.687, 38.84766
1308.754, 122.5273
1309.821, 61.67188
1310.888, 133.8066
1311.955, 19.69727
1313.021, 62.51172
1314.088, 214.7520
1315.154, 42.64844
1316.220, 178.9082
1317.286, 150.0195
1318.352, 357.0801
1319.417, 134.1602
1320.483, 162.1445
1321.548, 20.30273
1322.613, 202.3008
1323.678, 71.01172
1324.743, 41.08984
1325.807, 251.6934
1326.872, 206.4805
1327.936, 143.4102
1329.000, 220.0703
1330.064, 159.0488
1331.128, 206.9570
1332.191, 230.2617
1333.255, 257.9668
1334.318, 335.5176
1335.381, 254.4590
1336.444, 145.9434
1337.507, 151.5684
1338.569, 239.6113
1339.632, 301.5293
1340.694, 212.5840
1341.756, 120.2891
1342.818, 360.8418
1343.880, 252.1797
1344.941, 239.0430
1346.003, 164.2852
1347.064, 112.5176
1348.125, 79.35938
1349.186, 92.28320
1350.247, 180.7422
1351.308, 117.3848
1352.368, 226.6914
1353.428, 173.9590
1354.489, 234.7734
1355.549, 174.3770
1356.608, 141.4277
1357.668, 333.9102
1358.727, 37.80078
1359.787, 105.6191
1360.846, 349.6152
1361.905, 298.8535
1362.964, 389.3828
1364.022, 204.2285
1365.081, 329.7773
1366.139, 452.4336
1367.197, 398.1816
1368.255, 397.4727
1369.313, 652.1719
1370.371, 379.6699
1371.428, 730.9629
1372.486, 906.9590
1373.543, 1218.412
1374.600, 1136.928
1375.657, 1155.688
1376.713, 1238.250
1377.770, 1209.531
1378.826, 821.4727
1379.882, 640.5801
1380.938, 736.9082
1381.994, 604.2637
1383.050, 773.6680
1384.106, 608.2656
1385.161, 507.6172
1386.216, 487.2363
1387.271, 607.6934
1388.326, 539.1719
1389.381, 440.7793
1390.435, 418.0605
1391.490, 347.4219
1392.544, 316.0176
1393.598, 399.6406
1394.652, 319.3730
1395.705, 382.1387
1396.759, 508.2402
1397.812, 464.6133
1398.866, 425.7246
1399.919, 119.7695
1400.972, 428.6680
1402.024, 296.4883
1403.077, 246.2812
1404.129, 479.1543
1405.181, 444.2090
1406.233, 330.6348
1407.285, 232.0840
1408.337, 369.2754
1409.389, 572.4629
1410.440, 417.1270
1411.491, 391.3516
1412.542, 309.6445
1413.593, 232.0117
1414.644, 138.4121
1415.695, 213.2812
1416.745, 153.9668
1417.795, 153.9395
1418.845, 153.1035
1419.895, 14.69922
1420.945, 192.8652
1421.995, 108.1738
1423.044, 277.8398
1424.093, 89.56055
1425.142, 335.3203
1426.191, 70.60938
1427.240, 24.01172
1428.289, 58.07812
1429.337, 24.93555
1430.385, 18.56836
1431.433, 48.28906
1432.481, 29.83984
1433.529, 42.98438
1434.577, 25.33984
1435.624, 56.12891
1436.672, 29.47852
1437.719, 38.09766
1438.766, 186.8887
1439.812, 145.2852
1440.859, 337.9863
1441.905, 173.8086
1442.952, 275.2422
1443.998, 289.4648
1445.044, 197.7383
1446.090, 627.0645
1447.135, 564.1758
1448.181, 698.1777
1449.226, 641.3516
1450.271, 838.4629
1451.316, 614.1152
1452.361, 627.7227
1453.405, 433.8164
1454.450, 295.0645
1455.494, 156.2188
1456.538, 87.25000
1457.582, 347.3730
1458.626, 87.35156
1459.670, 340.6934
1460.713, 344.9844
1461.757, 286.5859
1462.800, 258.4648
1463.843, 48.40625
1464.886, 165.2617
1465.928, 121.6523
1466.971, 119.5371
1468.013, 270.2227
1469.055, 64.51953
1470.097, 286.1387
1471.139, 151.7109
1472.181, 195.2441
1473.222, 102.7383
1474.263, 160.1523
1475.305, 173.6152
1476.346, 340.0117
1477.386, 363.3789
1478.427, 542.7207
1479.468, 337.0371
1480.508, 564.3203
1481.548, 455.5742
1482.588, 787.7949
1483.628, 400.9883
1484.668, 483.1523
1485.707, 547.2969
1486.747, 329.5664
1487.786, 176.5645
1488.825, 335.6211
1489.864, 452.4980
1490.902, 493.5449
1491.941, 391.6445
1492.979, 122.8164
1494.017, 198.1328
1495.055, 59.11914
1496.093, 305.3223
1497.131, 127.1387
1498.168, 259.1016
1499.206, 52.63867
1500.243, 270.6621
1501.280, 262.8457
1502.317, 225.6602
1503.354, 160.2637
1504.390, 97.05859
1505.426, 145.0000
1506.463, 283.1328
1507.499, 287.5215
1508.535, 235.1113
1509.570, 367.8359
1510.606, 265.6504
1511.641, 175.5156
1512.676, 367.3477
1513.711, 329.7383
1514.746, 327.4531
1515.781, 327.1035
1516.816, 180.7715
1517.850, 343.6562
1518.884, 344.0723
1519.918, 114.7188
1520.952, 268.7207
1521.986, 180.5410
1523.019, 421.4258
1524.053, 202.3281
1525.086, 228.3594
1526.119, 24.67383
1527.152, 214.2246
1528.185, 226.0508
1529.217, 362.8203
1530.250, 228.4199
1531.282, 215.0488
1532.314, 94.79492
1533.346, 276.5762
1534.377, 137.3438
1535.409, 168.2324
1536.440, 245.0957
1537.472, 101.0566
1538.503, 49.11914
1539.534, 359.9512
1540.564, 195.9766
1541.595, 262.9336
1542.625, 433.8223
1543.656, 182.6992
1544.686, 262.7188
1545.716, 183.2441
1546.745, 39.49805
1547.775, 201.8125
1548.804, 166.5117
1549.834, 82.19531
1550.863, 272.8535
1551.892, 212.1914
1552.920, 126.7578
1553.949, 411.5742
1554.977, 270.8906
1556.006, 163.3555
1557.034, 41.40625
1558.062, 2.048828
1559.089, 64.51367
1560.117, 258.6895
1561.144, 360.7168
1562.172, 169.5625
1563.199, 67.41992
1564.226, 258.2324
1565.252, 243.4766
1566.279, 144.6602
1567.305, 293.4395
1568.332, 0.5957030
1569.358, 15.80859
1570.384, 0.0000000E+00
##END=



