##NAMES=Carrollite
##RRUFFID=R040165
##IDEAL CHEMISTRY=Cu^1+^Co^3+^_2_S_4_
##LOCALITY=Katanga, Democratic Republic of the Congo
##OWNER=RRUFF
##SOURCE=University of Arizona Mineral Museum
##DESCRIPTION=Steel gray octahedral crystals that have a tarnished exterior
##STATUS=The identification of this mineral has been confirmed by X-ray diffraction and chemical analysis
##URL=rruff.info/R040165
##MEASURED CHEMISTRY=(Cu_0.97_Fe_0.03_)Co_1.98_S_4_
##PIN_ID=M00105
##ORIENTATION=Laser parallel to -a* (-1 0 0). Fiducial mark perpendicular to laser is parallel to -c [0 0 -1]
96.62100, 0.0000000E+00
97.86200, 12.75000
99.10300, 461.4336
100.3440, 438.3672
101.5850, 835.6211
102.8250, 1973.066
104.0650, 3403.605
105.3050, 4535.109
106.5450, 5716.914
107.7850, 6295.629
109.0250, 7739.223
110.2640, 7327.207
111.5030, 7671.188
112.7420, 8516.574
113.9810, 8845.891
115.2200, 8879.383
116.4580, 8228.684
117.6970, 8217.570
118.9350, 6742.914
120.1730, 3265.281
121.4100, 1440.273
122.6480, 1619.504
123.8850, 1090.746
125.1230, 837.7656
126.3600, 695.1680
127.5960, 850.3047
128.8330, 671.3086
130.0700, 932.5938
131.3060, 503.2539
132.5420, 402.3008
133.7780, 355.9102
135.0140, 689.2227
136.2500, 881.4062
137.4850, 782.5742
138.7200, 1009.859
139.9550, 798.3477
141.1900, 289.1250
142.4250, 176.2617
143.6600, 212.1680
144.8940, 125.1016
146.1280, 82.23438
147.3620, 33.16797
148.5960, 8.148438
149.8300, 145.7461
151.0630, 164.5625
152.2960, 484.8125
153.5300, 316.5664
154.7620, 556.6250
155.9950, 383.1094
157.2280, 197.1016
158.4600, 253.8008
159.6920, 149.2422
160.9250, 680.6797
162.1560, 713.3984
163.3880, 863.6523
164.6200, 924.7188
165.8510, 578.6602
167.0820, 696.6992
168.3130, 576.8281
169.5440, 681.0508
170.7750, 979.4023
172.0050, 847.9102
173.2350, 948.4922
174.4650, 481.5898
175.6950, 820.7812
176.9250, 575.1914
178.1550, 298.8242
179.3840, 680.6680
180.6130, 518.6992
181.8420, 413.9219
183.0710, 757.3125
184.3000, 764.8477
185.5280, 1071.523
186.7570, 921.3320
187.9850, 1467.270
189.2130, 1598.328
190.4400, 1969.500
191.6680, 2157.773
192.8960, 2094.461
194.1230, 2391.785
195.3500, 2121.910
196.5770, 2455.098
197.8030, 2328.383
199.0300, 2153.754
200.2560, 2687.211
201.4830, 2887.734
202.7090, 2384.289
203.9340, 1308.898
205.1600, 642.5508
206.3860, 70.74219
207.6110, 389.9883
208.8360, 84.17969
210.0610, 188.3203
211.2860, 44.40625
212.5100, 100.5664
213.7350, 444.5938
214.9590, 110.6797
216.1830, 167.1758
217.4070, 26.96875
218.6310, 105.2969
219.8540, 217.3750
221.0780, 369.9922
222.3010, 42.46094
223.5240, 269.0312
224.7470, 302.4570
225.9690, 46.04688
227.1920, 28.87891
228.4140, 304.7812
229.6360, 37.60547
230.8580, 91.49219
232.0800, 7.578125
233.3020, 129.4336
234.5230, 203.5586
235.7440, 395.7227
236.9650, 435.2266
238.1860, 593.7930
239.4070, 785.4648
240.6280, 538.2344
241.8480, 834.2031
243.0680, 934.1797
244.2880, 1284.434
245.5080, 1509.859
246.7280, 1768.477
247.9470, 1984.598
249.1660, 2317.070
250.3860, 2598.789
251.6040, 2348.688
252.8230, 2897.703
254.0420, 3085.805
255.2600, 2603.965
256.4790, 3206.117
257.6970, 4121.246
258.9150, 3626.367
260.1320, 3342.031
261.3500, 3266.500
262.5670, 1948.527
263.7840, 1570.527
265.0010, 1585.496
266.2180, 1084.445
267.4350, 1099.004
268.6510, 881.2031
269.8680, 842.3945
271.0840, 500.6055
272.3000, 617.8047
273.5160, 424.9961
274.7310, 278.1562
275.9470, 565.2383
277.1620, 256.2734
278.3770, 332.2656
279.5920, 507.2266
280.8070, 147.1562
282.0210, 22.06641
283.2360, 21.95312
284.4500, 8.832031
285.6640, 140.7070
286.8780, 5.429688
288.0920, 40.57812
289.3050, 160.6914
290.5180, 46.67188
291.7320, 91.44141
292.9450, 226.8516
294.1570, 389.7227
295.3700, 235.4297
296.5830, 368.3320
297.7950, 85.25781
299.0070, 209.7695
300.2190, 325.0234
301.4310, 171.2461
302.6420, 247.5039
303.8540, 415.5859
305.0650, 381.5703
306.2760, 577.2812
307.4870, 307.7266
308.6980, 540.1367
309.9080, 445.3867
311.1190, 68.69141
312.3290, 189.0586
313.5390, 368.4961
314.7490, 444.0000
315.9580, 450.5703
317.1680, 451.2109
318.3770, 459.9141
319.5860, 384.6055
320.7950, 234.5352
322.0040, 254.4414
323.2130, 215.4180
324.4210, 234.6641
325.6290, 284.5547
326.8380, 261.7227
328.0460, 295.9531
329.2530, 527.2422
330.4610, 323.5938
331.6680, 457.0078
332.8760, 76.48828
334.0830, 486.0273
335.2890, 559.6289
336.4960, 339.2969
337.7030, 560.0273
338.9090, 543.8086
340.1150, 507.6094
341.3210, 384.4727
342.5270, 525.3984
343.7330, 472.1523
344.9380, 504.0781
346.1440, 568.5508
347.3490, 662.7305
348.5540, 818.9688
349.7590, 1101.273
350.9630, 972.6406
352.1680, 1179.121
353.3720, 1014.906
354.5760, 1477.078
355.7800, 908.0781
356.9840, 1291.059
358.1870, 1309.723
359.3910, 1015.547
360.5940, 737.4336
361.7970, 755.8594
363.0000, 854.3438
364.2030, 702.4258
365.4050, 786.8398
366.6080, 752.9492
367.8100, 722.5977
369.0120, 633.5938
370.2140, 320.7656
371.4150, 301.4688
372.6170, 196.4180
373.8180, 174.3125
375.0190, 280.2500
376.2200, 139.0312
377.4210, 360.8633
378.6220, 117.7930
379.8220, 313.7969
381.0230, 88.87500
382.2230, 350.0352
383.4230, 11.72656
384.6220, 370.5898
385.8220, 247.0039
387.0220, 273.4922
388.2210, 341.0742
389.4200, 446.7266
390.6190, 212.4453
391.8180, 285.5000
393.0160, 410.1367
394.2150, 215.0742
395.4130, 277.0664
396.6110, 289.1172
397.8090, 431.2305
399.0060, 127.3984
400.2040, 184.6250
401.4010, 108.9297
402.5980, 191.2812
403.7950, 156.2539
404.9920, 285.1758
406.1890, 108.7070
407.3860, 164.3086
408.5820, 111.9688
409.7780, 344.7227
410.9740, 220.5391
412.1700, 405.4102
413.3650, 458.3594
414.5610, 205.3984
415.7560, 197.5039
416.9510, 349.6758
418.1460, 393.9297
419.3410, 419.3906
420.5360, 451.8555
421.7300, 489.1133
422.9240, 351.6602
424.1180, 424.2695
425.3120, 218.0117
426.5060, 438.8242
427.7000, 691.7461
428.8930, 425.7656
430.0860, 479.8594
431.2790, 576.8750
432.4720, 470.1641
433.6650, 520.9102
434.8580, 512.4062
436.0500, 634.0078
437.2420, 432.7148
438.4340, 473.5469
439.6260, 574.5000
440.8180, 780.5195
442.0090, 511.6133
443.2010, 711.7930
444.3920, 345.0508
445.5830, 492.3867
446.7740, 708.8086
447.9640, 644.3047
449.1550, 469.8867
450.3450, 749.5547
451.5350, 617.3164
452.7250, 633.1562
453.9150, 517.0898
455.1050, 451.1055
456.2940, 543.2422
457.4830, 771.4688
458.6720, 358.7734
459.8610, 773.1680
461.0500, 478.6719
462.2390, 685.2617
463.4270, 850.9336
464.6150, 452.6914
465.8040, 544.5352
466.9910, 514.4609
468.1790, 670.4727
469.3670, 785.5703
470.5540, 874.7500
471.7410, 678.0117
472.9280, 667.3594
474.1150, 749.7930
475.3020, 419.3086
476.4890, 442.9102
477.6750, 585.6719
478.8610, 929.4375
480.0470, 998.2852
481.2330, 715.2227
482.4190, 1025.246
483.6040, 773.3477
484.7900, 1027.531
485.9750, 1338.801
487.1600, 1043.152
488.3450, 717.5859
489.5290, 924.1055
490.7140, 1182.707
491.8980, 904.3906
493.0820, 1102.160
494.2660, 915.0156
495.4500, 1007.992
496.6340, 1037.176
497.8170, 1122.484
499.0010, 1143.836
500.1840, 1283.508
501.3670, 1155.180
502.5500, 1434.934
503.7320, 1401.770
504.9150, 1352.746
506.0970, 997.8281
507.2790, 972.9922
508.4610, 1758.316
509.6430, 1338.852
510.8250, 1354.484
512.0060, 1140.277
513.1870, 1148.238
514.3680, 1469.305
515.5490, 1272.535
516.7300, 1218.875
517.9110, 1693.309
519.0910, 1619.832
520.2710, 1449.441
521.4510, 1414.133
522.6310, 1401.383
523.8110, 1403.875
524.9910, 1498.797
526.1700, 1603.715
527.3490, 1765.605
528.5280, 2041.770
529.7070, 1670.492
530.8860, 1396.820
532.0650, 1609.223
533.2430, 1764.297
534.4210, 1176.852
535.5990, 1348.484
536.7770, 1432.195
537.9550, 1681.988
539.1320, 1582.887
540.3100, 1588.859
541.4870, 2004.906
542.6640, 1766.328
543.8410, 1987.539
545.0170, 1667.816
546.1940, 2013.172
547.3700, 1868.602
548.5470, 2042.605
549.7230, 2150.199
550.8980, 2118.078
552.0740, 2162.312
553.2500, 2065.699
554.4250, 2209.637
555.6000, 1907.453
556.7750, 2181.523
557.9500, 2004.680
559.1250, 2126.605
560.2990, 2434.906
561.4730, 2124.262
562.6480, 2131.691
563.8220, 2173.227
564.9950, 2040.832
566.1690, 2259.082
567.3430, 2455.844
568.5160, 2415.527
569.6890, 2727.656
570.8620, 2310.621
572.0350, 2114.547
573.2070, 2212.914
574.3800, 1962.090
575.5520, 1969.359
576.7240, 1729.699
577.8960, 1524.105
579.0680, 1457.109
580.2400, 1276.289
581.4110, 1098.262
582.5830, 1043.539
583.7540, 789.5391
584.9250, 636.3281
586.0950, 628.4453
587.2660, 583.9453
588.4370, 551.9688
589.6070, 669.0781
590.7770, 602.2734
591.9470, 597.5078
593.1170, 471.7773
594.2860, 522.3086
595.4560, 232.7305
596.6250, 179.7578
597.7940, 507.3164
598.9630, 202.9297
600.1320, 503.5938
601.3000, 414.3594
602.4690, 418.1328
603.6370, 538.9609
604.8050, 583.8438
605.9730, 602.7812
607.1410, 577.5352
608.3090, 376.8086
609.4760, 451.8984
610.6430, 341.0430
611.8100, 301.2383
612.9770, 364.4844
614.1440, 156.7812
615.3110, 293.1719
616.4770, 407.5664
617.6430, 67.98828
618.8090, 28.49609
619.9750, 36.02344
621.1410, 435.6055
622.3070, 414.2305
623.4720, 581.8984
624.6370, 452.6211
625.8020, 347.3828
626.9670, 641.1992
628.1320, 601.0742
629.2970, 494.9883
630.4610, 407.9570
631.6250, 449.9648
632.7890, 337.0156
633.9530, 264.1133
635.1170, 653.5742
636.2810, 356.7539
637.4440, 347.9805
638.6070, 418.2461
639.7700, 229.5469
640.9330, 492.9219
642.0960, 375.3047
643.2590, 300.7305
644.4210, 165.1914
645.5830, 276.6875
646.7450, 340.9570
647.9070, 312.3984
649.0690, 316.5586
650.2310, 399.1484
651.3920, 217.8281
652.5530, 201.5938
653.7140, 188.3867
654.8750, 2.777344
656.0360, 172.4414
657.1970, 234.3320
658.3570, 261.5938
659.5170, 181.5430
660.6770, 361.9805
661.8370, 328.9961
662.9970, 147.0352
664.1570, 3.875000
665.3160, 153.2188
666.4750, 129.6602
667.6340, 115.4531
668.7930, 98.23047
669.9520, 13.44141
671.1110, 72.89844
672.2690, 158.9219
673.4270, 195.2266
674.5850, 24.30469
675.7430, 171.8359
676.9010, 168.0586
678.0590, 62.78906
679.2160, 118.0625
680.3730, 271.3516
681.5300, 78.46094
682.6870, 331.4531
683.8440, 126.7773
685.0010, 119.2266
686.1570, 23.89453
687.3130, 7.035156
688.4690, 38.39062
689.6250, 145.1836
690.7810, 310.4062
691.9370, 247.8047
693.0920, 128.9805
694.2470, 128.5820
695.4020, 292.8086
696.5570, 66.21484
697.7120, 25.33594
698.8670, 50.17188
700.0210, 46.92969
701.1750, 4.500000
702.3290, 188.9297
703.4830, 273.3711
704.6370, 232.8984
705.7910, 200.4570
706.9440, 166.0586
708.0970, 79.76562
709.2510, 78.49219
710.4030, 197.2344
711.5560, 22.94531
712.7090, 283.6289
713.8610, 79.82812
715.0140, 260.0391
716.1660, 154.2617
717.3180, 216.5078
718.4690, 113.3867
719.6210, 244.0938
720.7730, 228.1680
721.9240, 8.746094
723.0750, 248.8281
724.2260, 40.42578
725.3770, 32.00781
726.5270, 420.1992
727.6780, 242.4609
728.8280, 107.9805
729.9780, 183.4688
731.1280, 112.5820
732.2780, 7.730469
733.4280, 419.6523
734.5770, 84.94141
735.7260, 155.1094
736.8760, 418.1602
738.0250, 236.2109
739.1730, 55.73047
740.3220, 340.2773
741.4700, 280.2852
742.6190, 180.2969
743.7670, 453.3164
744.9150, 419.3359
746.0630, 266.3633
747.2100, 319.3789
748.3580, 282.4062
749.5050, 422.4258
750.6520, 398.4531
751.7990, 312.4961
752.9460, 97.52734
754.0930, 275.5508
755.2390, 337.5820
756.3860, 223.5312
757.5320, 312.5625
758.6780, 403.5938
759.8240, 277.6211
760.9690, 202.6523
762.1150, 156.6836
763.2600, 384.7148
764.4060, 359.7422
765.5510, 379.0000
766.6950, 365.1250
767.8400, 324.1484
768.9850, 340.1719
770.1290, 254.1914
771.2730, 381.2109
772.4170, 101.2305
773.5610, 208.2422
774.7050, 506.2500
775.8480, 223.2539
776.9920, 202.2578
778.1350, 3.257813
779.2780, 409.2227
780.4210, 191.1836
781.5640, 244.1328
782.7060, 198.0859
783.8490, 89.03516
784.9910, 83.97656
786.1330, 2.101563
787.2750, 26.77734
788.4170, 360.6289
789.5580, 226.1406
790.7000, 185.9883
791.8410, 374.8242
792.9820, 77.58984
794.1230, 446.4023
795.2640, 79.21094
796.4040, 551.0000
797.5450, 118.7930
798.6850, 310.5703
799.8250, 337.3438
800.9650, 161.1094
802.1050, 241.7656
803.2450, 311.5195
804.3840, 220.4727
805.5230, 137.2227
806.6630, 108.4805
807.8020, 125.3359
808.9400, 219.9375
810.0790, 221.0625
811.2170, 85.77734
812.3560, 117.4805
813.4940, 312.1719
814.6320, 52.13281
815.7700, 427.4844
816.9070, 254.1016
818.0450, 54.71094
819.1820, 416.0117
820.3190, 324.5977
821.4560, 489.1797
822.5930, 263.7617
823.7300, 93.33203
824.8670, 23.40234
826.0030, 279.9297
827.1390, 71.75000
828.2750, 250.6992
829.4110, 23.14844
830.5470, 193.5664
831.6820, 250.1758
832.8180, 311.5859
833.9530, 64.99609
835.0880, 199.6875
836.2230, 49.91797
837.3580, 422.4531
838.4920, 263.8242
839.6270, 164.1523
840.7610, 14.51953
841.8950, 200.2148
843.0290, 101.5000
844.1630, 167.9297
845.2960, 222.9883
846.4300, 276.2734
847.5630, 349.6602
848.6960, 7.324219
849.8290, 149.9414
850.9620, 229.2031
852.0940, 21.46484
853.2270, 162.7227
854.3590, 135.4336
855.4910, 26.04297
856.6230, 91.30078
857.7550, 38.44141
858.8870, 125.5156
860.0180, 57.25000
861.1500, 6.300781
862.2810, 68.67578
863.4120, 104.5352
864.5430, 17.54297
865.6730, 18.62109
866.8040, 76.70312
867.9340, 33.21484
869.0640, 207.6797
870.1940, 77.25781
871.3240, 189.2383
872.4540, 167.2617
873.5830, 86.29297
874.7130, 227.3320
875.8420, 237.3320
876.9710, 214.8672
878.1000, 397.4336
879.2290, 147.4961
880.3570, 157.5625
881.4860, 47.64062
882.6140, 147.7227
883.7420, 155.8086
884.8700, 91.46094
885.9980, 140.0039
887.1250, 23.10938
888.2530, 188.2266
889.3800, 236.3086
890.5070, 278.4414
891.6340, 202.5859
892.7610, 209.7227
893.8880, 251.9102
895.0140, 173.0820
896.1400, 262.2695
897.2670, 360.4570
898.3930, 61.65625
899.5180, 266.8672
900.6440, 69.91016
901.7700, 358.2852
902.8950, 101.4922
904.0200, 103.7109
905.1450, 378.9414
906.2700, 341.1797
907.3950, 23.42969
908.5190, 145.3633
909.6440, 79.63672
910.7680, 124.9141
911.8920, 160.2031
913.0160, 5.503906
914.1400, 302.7930
915.2630, 535.1172
916.3870, 332.4531
917.5100, 442.8047
918.6330, 265.1680
919.7560, 227.8164
920.8790, 287.3359
922.0010, 118.2188
923.1240, 290.6484
924.2460, 233.9219
925.3680, 450.4180
926.4900, 146.7656
927.6120, 465.1367
928.7340, 377.1680
929.8550, 420.6328
930.9760, 186.7734
932.0980, 452.2695
933.2190, 317.6758
934.3390, 103.3672
935.4600, 310.1953
936.5810, 427.7656
937.7010, 460.9141
938.8210, 156.6836
939.9410, 288.1680
941.0610, 244.8906
942.1810, 194.1445
943.3010, 386.7344
944.4200, 131.6992
945.5390, 320.7852
946.6580, 331.7227
947.7770, 424.3789
948.8960, 341.7109
950.0150, 305.8242
951.1330, 453.1680
952.2510, 503.2266
953.3690, 398.5117
954.4870, 496.7812
955.6050, 235.8164
956.7230, 290.1133
957.8400, 480.4258
958.9580, 385.8594
960.0750, 484.3984
961.1920, 511.5391
962.3090, 192.2578
963.4250, 469.4883
964.5420, 489.5586
965.6580, 251.1797
966.7740, 508.3477
967.8900, 456.4727
969.0060, 585.7305
970.1220, 283.0547
971.2380, 439.9297
972.3530, 459.3906
973.4680, 271.9336
974.5830, 267.5039
975.6980, 285.8164
976.8130, 393.4922
977.9280, 326.7344
979.0420, 480.8398
980.1560, 341.6484
981.2710, 307.4844
982.3850, 507.3906
983.4980, 454.5977
984.6120, 526.7969
985.7260, 548.7852
986.8390, 600.1406
987.9520, 550.8008
989.0650, 659.9531
990.1780, 537.7227
991.2910, 663.9297
992.4030, 684.2852
993.5160, 524.9258
994.6280, 749.7109
995.7400, 748.5391
996.8520, 678.8086
997.9640, 422.0430
999.0750, 325.0547
1000.187, 638.1289
1001.298, 762.6133
1002.409, 674.2773
1003.520, 572.8242
1004.631, 708.1055
1005.741, 492.7617
1006.852, 379.4414
1007.962, 929.1797
1009.072, 693.9727
1010.182, 740.8203
1011.292, 648.7383
1012.402, 460.6914
1013.511, 753.6680
1014.621, 562.6797
1015.730, 462.7148
1016.839, 805.7852
1017.948, 764.8945
1019.056, 509.0742
1020.165, 489.2852
1021.273, 492.5195
1022.382, 733.8086
1023.490, 965.1289
1024.598, 612.4766
1025.706, 503.8594
1026.813, 668.2695
1027.921, 820.7109
1029.028, 992.1836
1030.135, 654.6797
1031.242, 800.2148
1032.349, 581.7773
1033.456, 653.8008
1034.562, 1013.668
1035.668, 743.3203
1036.775, 796.0039
1037.881, 656.7227
1038.987, 999.4648
1040.092, 1163.242
1041.198, 1029.047
1042.303, 1027.891
1043.408, 853.7617
1044.514, 1068.660
1045.618, 1120.598
1046.723, 943.5586
1047.828, 1052.570
1048.932, 889.2578
1050.037, 984.6953
1051.141, 694.8008
1052.245, 922.9375
1053.349, 1005.109
1054.452, 1236.316
1055.556, 1024.578
1056.659, 712.8789
1057.762, 917.5469
1058.865, 1053.910
1059.968, 1250.246
1061.071, 857.6758
1062.174, 1142.199
1063.276, 949.6992
1064.378, 861.2344
1065.480, 1142.801
1066.582, 1101.191
1067.684, 1242.820
1068.786, 1064.719
1069.887, 892.4102
1070.988, 954.1367
1072.090, 986.8906
1073.191, 1245.551
1074.291, 1043.523
1075.392, 1156.375
1076.493, 1112.258
1077.593, 981.1680
1078.693, 1287.109
1079.793, 908.0820
1080.893, 1126.086
1081.993, 1064.129
1083.092, 1181.223
1084.192, 1243.355
1085.291, 1287.262
1086.390, 1406.707
1087.489, 1375.934
1088.588, 1107.191
1089.686, 995.4766
1090.785, 1054.793
1091.883, 999.1406
1092.981, 1060.535
1094.079, 1164.957
1095.177, 1136.082
1096.275, 1063.953
1097.373, 1087.512
1098.470, 1253.098
1099.567, 1074.711
1100.664, 925.3555
1101.761, 1111.496
1102.858, 958.0742
1103.954, 1138.832
1105.051, 1009.957
1106.147, 927.7695
1107.243, 1326.609
1108.339, 747.5000
1109.435, 1331.414
1110.531, 1180.352
1111.626, 901.3164
1112.722, 1285.312
1113.817, 1092.328
1114.912, 1166.371
1116.007, 921.4531
1117.101, 1136.559
1118.196, 1298.688
1119.290, 1021.844
1120.385, 1265.031
1121.479, 1499.238
1122.573, 1515.477
1123.666, 1133.734
1124.760, 1162.039
1125.853, 1397.363
1126.947, 964.7305
1128.040, 977.7227
1129.133, 995.1680
1130.226, 793.6719
1131.318, 659.1992
1132.411, 589.9023
1133.503, 870.4805
1134.596, 400.0859
1135.688, 733.7227
1136.780, 868.9492
1137.871, 508.6523
1138.963, 268.6562
1140.054, 558.8945
1141.146, 660.6602
1142.237, 286.0234
1143.328, 77.82812
1144.419, 444.6562
1145.509, 546.5078
1146.600, 536.3750
1147.690, 536.0781
1148.780, 640.1797
1149.870, 500.2305
1150.960, 682.4141
1152.050, 548.3164
1153.139, 258.3086
1154.229, 514.3125
1155.318, 652.3906
1156.407, 400.4297
1157.496, 522.4883
1158.585, 306.5664
1159.674, 182.6602
1160.762, 596.7695
1161.850, 512.8984
1162.939, 213.0430
1164.027, 616.2070
1165.114, 463.3828
1166.202, 266.5938
1167.290, 493.8242
1168.377, 252.0664
1169.464, 384.3281
1170.551, 335.6094
1171.638, 297.8984
1172.725, 364.3672
1173.812, 413.4570
1174.898, 405.8750
1175.984, 585.2344
1177.071, 601.6016
1178.157, 609.8906
1179.242, 322.3984
1180.328, 376.8125
1181.414, 222.2500
1182.499, 12.69531
1183.584, 414.1562
1184.669, 344.6328
1185.754, 371.1250
1186.839, 30.62891
1187.924, 392.1484
1189.008, 718.7344
1190.092, 33.66797
1191.177, 32.92969
1192.260, 259.4570
1193.344, 554.0469
1194.428, 245.5625
1195.512, 407.0938
1196.595, 64.35938
1197.678, 113.1680
1198.761, 36.28906
1199.844, 6.253906
1200.927, 321.8086
1202.009, 70.36719
1203.092, 79.05078
1204.174, 5.484375
1205.256, 106.0781
1206.338, 89.64062
1207.420, 158.1289
1208.502, 186.8320
1209.583, 205.4375
1210.665, 199.0508
1211.746, 199.6758
1212.827, 297.3164
1213.908, 59.96484
1214.988, 63.62891
1216.069, 121.2969
1217.149, 211.9766
1218.230, 485.6680
1219.310, 280.3633
1220.390, 168.0703
1221.470, 402.7891
1222.549, 98.51562
1223.629, 276.2539
1224.708, 303.9961
1225.787, 39.75000
1226.866, 225.5117
1227.945, 175.2812
1229.024, 213.0586
1230.103, 561.8438
1231.181, 4.367188
1232.259, 314.5703
1233.337, 118.0703
1234.415, 205.2812
1235.493, 123.2695
1236.571, 262.8359
1237.648, 83.42188
1238.726, 273.0195
1239.803, 187.6211
1240.880, 200.2344
1241.957, 210.8516
1243.034, 183.4727
1244.110, 27.09766
1245.187, 73.73438
1246.263, 256.3711
1247.339, 62.01953
1248.415, 261.6719
1249.491, 340.3281
1250.566, 69.99609
1251.642, 220.6641
1252.717, 227.3398
1253.793, 268.0156
1254.868, 156.6992
1255.943, 96.38672
1257.017, 62.92188
1258.092, 86.73047
1259.166, 265.3945
1260.241, 253.0547
1261.315, 17.72656
1262.389, 204.3945
1263.462, 73.07422
1264.536, 381.7539
1265.610, 41.55859
1266.683, 54.09375
1267.756, 70.24219
1268.829, 90.62891
1269.902, 212.9609
1270.975, 142.4492
1272.048, 161.0664
1273.120, 211.5820
1274.192, 103.1562
1275.264, 69.67969
1276.336, 9.207031
1277.408, 8.195313
1278.480, 154.5586
1279.551, 24.86719
1280.623, 8.292969
1281.694, 27.10547
1282.765, 395.1055
1283.836, 41.50000
1284.907, 553.8945
1285.977, 435.2930
1287.048, 572.6953
1288.118, 451.0977
1289.188, 438.6953
1290.258, 73.91797
1291.328, 402.3320
1292.398, 434.7422
1293.467, 524.1562
1294.537, 126.5742
1295.606, 402.9922
1296.675, 112.4141
1297.744, 143.8320
1298.813, 256.2578
1299.882, 303.6797
1300.950, 327.1016
1302.018, 387.5234
1303.086, 325.9453
1304.155, 333.6367
1305.222, 232.7930
1306.290, 282.2227
1307.358, 311.6484
1308.425, 317.0820
1309.492, 406.5117
1310.559, 370.6211
1311.626, 420.7109
1312.693, 286.8008
1313.760, 478.2305
1314.826, 351.6641
1315.893, 376.0898
1316.959, 372.5195
1318.025, 241.9453
1319.091, 473.4375
1320.157, 227.8594
1321.222, 181.2148
1322.288, 356.6250
1323.353, 298.0352
1324.418, 283.4453
1325.483, 146.0742
1326.548, 285.4844
1327.612, 452.6602
1328.677, 261.0703
1329.741, 437.4766
1330.806, 311.8828
1331.870, 50.41797
1332.934, 404.6680
1333.997, 354.0742
1335.061, 421.4805
1336.124, 291.8828
1337.188, 439.2891
1338.251, 256.6914
1339.314, 319.0938
1340.377, 245.4961
1341.439, 434.8945
1342.502, 294.7656
1343.564, 299.1680
1344.627, 394.5664
1345.689, 397.9648
1346.751, 371.3672
1347.813, 261.7656
1348.874, 439.1602
1349.936, 278.5625
1350.997, 181.9609
1352.058, 300.3594
1353.119, 545.7617
1354.180, 410.1602
1355.241, 424.5547
1356.301, 173.9492
1357.362, 137.3477
1358.422, 476.7461
1359.482, 259.6797
1360.542, 225.2070
1361.602, 606.6055
1362.662, 391.1289
1363.721, 328.4531
1364.781, 206.6367
1365.840, 249.0430
1366.899, 285.4492
1367.958, 403.8594
1369.017, 203.2695
1370.075, 305.6836
1371.134, 185.0977
1372.192, 326.5156
1373.250, 82.94141
1374.308, 433.3672
1375.366, 468.7891
1376.424, 54.22266
1377.481, 357.6562
1378.539, 454.0859
1379.596, 516.5234
1380.653, 232.9688
1381.710, 358.4141
1382.767, 170.8633
1383.824, 190.3125
1384.880, 172.0547
1385.937, 266.6328
1386.993, 118.0938
1388.049, 170.5625
1389.105, 116.8789
1390.161, 433.5742
1391.216, 371.0469
1392.272, 400.5312
1393.327, 279.6836
1394.382, 286.1758
1395.437, 197.3906
1396.492, 398.7734
1397.547, 247.2773
1398.601, 381.2070
1399.656, 185.7578
1400.710, 11.27734
1401.764, 51.48438
1402.818, 30.21484
1403.872, 6.2500000E-02
1404.925, 220.7188
1405.979, 249.3633
1407.032, 390.5977
1408.085, 78.14453
1409.139, 525.6289
1410.191, 178.3398
1411.244, 512.7930
1412.297, 177.3008
1413.349, 320.9375
1414.402, 343.4609
1415.454, 456.6992
1416.506, 408.8594
1417.558, 290.7812
1418.609, 287.3320
1419.661, 265.8906
1420.712, 221.4414
1421.764, 199.4805
1422.815, 522.4258
1423.866, 200.8516
1424.916, 233.2852
1425.967, 399.9023
1427.018, 199.3164
1428.068, 202.7305
1429.118, 289.1328
1430.168, 471.5352
1431.218, 178.9297
1432.268, 60.80469
1433.318, 233.1562
1434.367, 107.4961
1435.416, 344.2344
1436.465, 389.5625
1437.514, 508.0625
1438.563, 291.8281
1439.612, 229.1797
1440.661, 309.6992
1441.709, 229.8086
1442.757, 340.8633
1443.805, 171.4414
1444.853, 282.4922
1445.901, 507.2305
1446.949, 358.7070
1447.996, 301.1211
1449.044, 227.5391
1450.091, 539.9727
1451.138, 526.4219
1452.185, 396.8594
1453.232, 406.3164
1454.278, 289.7930
1455.325, 463.2617
1456.371, 486.7227
1457.417, 197.1797
1458.463, 187.6289
1459.509, 491.0781
1460.555, 341.5273
1461.601, 280.9609
1462.646, 209.3945
1463.691, 392.8164
1464.737, 351.2344
1465.782, 190.6484
1466.826, 365.1680
1467.871, 9.160156
1468.916, 272.5312
1469.960, 294.1992
1471.004, 189.8711
1472.048, 481.5430
1473.092, 298.2109
1474.136, 402.8828
1475.180, 476.5508
1476.223, 102.2266
1477.267, 220.8828
1478.310, 122.5469
1479.353, 210.2656
1480.396, 538.9805
1481.439, 47.69922
1482.481, 442.4102
1483.524, 375.1719
1484.566, 280.0039
1485.608, 397.8906
1486.650, 74.75000
1487.692, 5.292969
1488.734, 28.61719
1489.775, 57.83594
1490.817, 326.6641
1491.858, 203.8594
1492.899, 175.0664
1493.940, 517.2773
1494.981, 261.4922
1496.022, 229.7188
1497.062, 274.9609
1498.103, 283.2109
1499.143, 90.47656
1500.183, 253.7578
1501.223, 331.0547
1502.263, 264.3594
1503.302, 408.6758
1504.342, 105.0039
1505.381, 262.3516
1506.420, 475.7109
1507.459, 211.0977
1508.498, 386.5117
1509.537, 339.9844
1510.576, 256.4961
1511.614, 306.0352
1512.652, 92.60156
1513.691, 201.2031
1514.729, 36.83594
1515.767, 200.4961
1516.804, 327.1953
1517.842, 42.93359
1518.879, 424.7109
1519.917, 198.3984
1520.954, 84.77344
1521.991, 532.0938
1523.028, 422.0000
1524.064, 90.94531
1525.101, 121.9414
1526.137, 212.9727
1527.173, 177.0586
1528.210, 242.1953
1529.245, 190.3789
1530.281, 24.64844
1531.317, 217.4062
1532.352, 332.3867
1533.388, 362.9180
1534.423, 56.06250
1535.458, 184.9062
1536.493, 139.1641
1537.528, 86.27344
1538.562, 276.4805
1539.597, 18.77734
1540.631, 205.1562
1541.665, 214.2734
1542.700, 304.5117
1543.733, 218.0781
1544.767, 185.8633
1545.801, 330.3438
1546.834, 345.0547
1547.868, 237.6562
1548.901, 331.2969
1549.934, 65.49219
1550.967, 111.4961
1551.999, 297.2852
1553.032, 197.1016
1554.064, 293.5117
1555.097, 314.2188
1556.129, 8.750000
1557.161, 261.5156
1558.193, 276.8047
1559.224, 31.49219
1560.256, 282.6836
1561.287, 71.88281
1562.318, 27.14453
1563.350, 105.5977
1564.380, 28.28125
1565.411, 168.1875
1566.442, 112.6562
1567.472, 0.7617190
1568.503, 23.48438
1569.533, 1.449219
1570.563, 0.0000000E+00
##END=



