##NAMES=Carrollite
##RRUFFID=R050089
##IDEAL CHEMISTRY=Cu^1+^Co^3+^_2_S_4_
##LOCALITY=Kambove, Katanga, Democratic Republic of the Congo
##OWNER=RRUFF
##SOURCE=Rock Currier
##DESCRIPTION=Steel-gray octahedral crystal associated with calcite
##STATUS=The identification of this mineral has been confirmed by X-ray diffraction and chemical analysis
##URL=rruff.info/R050089
##MEASURED CHEMISTRY=(Cu_0.96_Fe^2+^_0.04_)_Σ=1_Co_2.00_S_4.00_ ; the vein is pyrite: (Fe_0.99_Co_0.01_)_Σ=1_S_2.00_
##PIN_ID=L00215
##ORIENTATION=Laser parallel to a* (1 0 0). Fiducial mark perpendicular to laser is parallel to b [0 1 0]
95.38000, 0.0000000E+00
96.62100, 12.17188
97.86200, 153.8359
99.10300, 286.0391
100.3440, 331.3867
101.5850, 758.2422
102.8250, 1994.891
104.0650, 2686.207
105.3050, 3943.793
106.5450, 4481.133
107.7850, 4949.043
109.0250, 5351.258
110.2640, 5467.652
111.5030, 5958.320
112.7420, 8046.348
113.9810, 9747.387
115.2200, 12518.41
116.4580, 17511.80
117.6970, 21148.13
118.9350, 21672.15
120.1730, 19740.12
121.4100, 12192.79
122.6480, 4462.676
123.8850, 1858.348
125.1230, 766.8359
126.3600, 516.1367
127.5960, 1008.371
128.8330, 879.1680
130.0700, 1172.566
131.3060, 591.9023
132.5420, 207.0781
133.7780, 643.0117
135.0140, 434.9180
136.2500, 787.0195
137.4850, 833.4961
138.7200, 1254.516
139.9550, 935.2227
141.1900, 427.7305
142.4250, 111.1641
143.6600, 8.605469
144.8940, 147.8555
146.1280, 5.847656
147.3620, 180.7734
148.5960, 107.0117
149.8300, 341.5391
151.0630, 541.6992
152.2960, 570.3281
153.5300, 662.2930
154.7620, 548.0977
155.9950, 161.6680
157.2280, 325.9570
158.4600, 241.6445
159.6920, 810.8477
160.9250, 831.7734
162.1560, 1159.812
163.3880, 1507.809
164.6200, 1356.707
165.8510, 1008.777
167.0820, 1073.008
168.3130, 953.2422
169.5440, 1176.004
170.7750, 1067.930
172.0050, 1175.113
173.2350, 1031.566
174.4650, 1167.281
175.6950, 1103.254
176.9250, 756.4766
178.1550, 997.9297
179.3840, 866.6094
180.6130, 892.5000
181.8420, 812.5742
183.0710, 963.8320
184.3000, 1094.246
185.5280, 1635.816
186.7570, 1724.523
187.9850, 2097.363
189.2130, 2203.312
190.4400, 2241.375
191.6680, 2612.539
192.8960, 2417.793
194.1230, 2499.074
195.3500, 2805.379
196.5770, 2807.680
197.8030, 3086.059
199.0300, 3066.492
200.2560, 3548.957
201.4830, 3451.438
202.7090, 2618.949
203.9340, 1424.488
205.1600, 431.0273
206.3860, 13.57812
207.6110, 40.86719
208.8360, 222.3086
210.0610, 150.7305
211.2860, 204.2305
212.5100, 18.53516
213.7350, 117.9141
214.9590, 167.2695
216.1830, 4.601563
217.4070, 293.9141
218.6310, 155.8008
219.8540, 16.45703
221.0780, 42.30859
222.3010, 90.89844
223.5240, 109.0781
224.7470, 316.7422
225.9690, 18.36328
227.1920, 56.67578
228.4140, 97.20312
229.6360, 331.2773
230.8580, 92.54688
232.0800, 270.8320
233.3020, 293.2070
234.5230, 232.5859
235.7440, 164.9688
236.9650, 216.5703
238.1860, 151.5938
239.4070, 113.5469
240.6280, 142.5977
241.8480, 13.30469
243.0680, 321.5898
244.2880, 192.6797
245.5080, 199.0781
246.7280, 250.9531
247.9470, 394.1641
249.1660, 419.6406
250.3860, 488.3555
251.6040, 540.9375
252.8230, 626.7266
254.0420, 515.8555
255.2600, 703.3711
256.4790, 814.7266
257.6970, 853.9453
258.9150, 605.1133
260.1320, 728.0820
261.3500, 701.9961
262.5670, 669.6875
263.7840, 844.8125
265.0010, 585.6562
266.2180, 595.0352
267.4350, 550.1211
268.6510, 673.1406
269.8680, 505.9609
271.0840, 520.7266
272.3000, 384.4180
273.5160, 234.9883
274.7310, 376.4531
275.9470, 673.8242
277.1620, 534.0977
278.3770, 514.2578
279.5920, 161.3125
280.8070, 140.2773
282.0210, 353.1562
283.2360, 256.9570
284.4500, 371.6836
285.6640, 364.3555
286.8780, 237.9648
288.0920, 266.5273
289.3050, 189.0391
290.5180, 141.2383
291.7320, 176.1328
292.9450, 216.1562
294.1570, 136.5312
295.3700, 325.5039
296.5830, 419.8320
297.7950, 297.0625
299.0070, 308.9258
300.2190, 78.39844
301.4310, 174.6484
302.6420, 398.4258
303.8540, 322.0039
305.0650, 216.8438
306.2760, 398.3828
307.4870, 259.9219
308.6980, 207.3906
309.9080, 339.6641
311.1190, 445.4609
312.3290, 524.1172
313.5390, 706.6875
314.7490, 810.2344
315.9580, 576.8320
317.1680, 481.4844
318.3770, 304.1953
319.5860, 452.9688
320.7950, 366.7930
322.0040, 351.6758
323.2130, 572.6055
324.4210, 271.5938
325.6290, 642.6367
326.8380, 244.7305
328.0460, 585.8750
329.2530, 523.0703
330.4610, 477.3203
331.6680, 580.6172
332.8760, 468.9648
334.0830, 567.3633
335.2890, 332.8125
336.4960, 415.3125
337.7030, 556.8594
338.9090, 395.4609
340.1150, 777.1094
341.3210, 158.8086
342.5270, 658.5586
343.7330, 483.3594
344.9380, 627.2109
346.1440, 503.1172
347.3490, 378.0742
348.5540, 750.0781
349.7590, 555.1367
350.9630, 866.2500
352.1680, 735.8555
353.3720, 990.3477
354.5760, 457.7422
355.7800, 728.9141
356.9840, 616.0117
358.1870, 448.0508
359.3910, 690.1367
360.5940, 830.4180
361.7970, 578.1875
363.0000, 630.0859
364.2030, 615.7344
365.4050, 658.6211
366.6080, 545.1211
367.8100, 422.9102
369.0120, 522.8438
370.2140, 377.0234
371.4150, 433.3203
372.6170, 304.6953
373.8180, 415.5586
375.0190, 516.0430
376.2200, 539.8359
377.4210, 590.3359
378.6220, 342.6016
379.8220, 488.5742
381.0230, 539.1289
382.2230, 225.7812
383.4230, 226.5703
384.6220, 510.4297
385.8220, 187.7734
387.0220, 298.7773
388.2210, 445.8438
389.4200, 428.9727
390.6190, 294.1562
391.8180, 146.3945
393.0160, 228.6797
394.2150, 277.0938
395.4130, 311.5469
396.6110, 198.0586
397.8090, 343.6406
399.0060, 597.2695
400.2040, 405.9492
401.4010, 459.6719
402.5980, 526.4492
403.7950, 338.2969
404.9920, 324.2070
406.1890, 457.1680
407.3860, 441.1797
408.5820, 391.2422
409.7780, 610.3555
410.9740, 171.5234
412.1700, 747.7539
413.3650, 838.0312
414.5610, 485.3633
415.7560, 414.7617
416.9510, 592.2070
418.1460, 585.7148
419.3410, 657.2773
420.5360, 474.8984
421.7300, 552.5938
422.9240, 553.6289
424.1180, 487.1875
425.3120, 638.0977
426.5060, 717.0703
427.7000, 790.1133
428.8930, 666.2227
430.0860, 436.3906
431.2790, 684.6562
432.4720, 462.9883
433.6650, 759.4102
434.8580, 1037.902
436.0500, 849.5000
437.2420, 712.1758
438.4340, 719.9375
439.6260, 793.8047
440.8180, 940.7422
442.0090, 689.7617
443.2010, 927.8555
444.3920, 797.0547
445.5830, 578.3828
446.7740, 641.8750
447.9640, 632.4492
449.1550, 863.0977
450.3450, 841.1797
451.5350, 573.6445
452.7250, 987.5469
453.9150, 724.5352
455.1050, 909.6328
456.2940, 719.8164
457.4830, 801.0977
458.6720, 838.4648
459.8610, 827.9219
461.0500, 667.4609
462.2390, 770.0859
463.4270, 921.8008
464.6150, 648.6016
465.8040, 855.4883
466.9910, 736.4609
468.1790, 731.5195
469.3670, 793.6641
470.5540, 811.8984
471.7410, 971.2188
472.9280, 672.6250
474.1150, 1168.117
475.3020, 532.6992
476.4890, 1197.383
477.6750, 796.1484
478.8610, 972.0039
480.0470, 865.9492
481.2330, 1243.977
482.4190, 807.0898
483.6040, 1227.289
484.7900, 1103.582
485.9750, 1232.965
487.1600, 1279.430
488.3450, 1362.992
489.5290, 1002.637
490.7140, 1221.371
491.8980, 1184.195
493.0820, 1179.105
494.2660, 1458.113
495.4500, 1207.242
496.6340, 1332.711
497.8170, 1302.930
499.0010, 1282.523
500.1840, 1367.285
501.3670, 1221.172
502.5500, 1469.199
503.7320, 1470.391
504.9150, 1551.695
506.0970, 1441.188
507.2790, 1454.520
508.4610, 1428.621
509.6430, 1388.254
510.8250, 1403.188
512.0060, 1402.262
513.1870, 1480.426
514.3680, 1474.691
515.5490, 1480.051
516.7300, 1472.543
517.9110, 1576.219
519.0910, 1572.641
520.2710, 1611.992
521.4510, 1648.145
522.6310, 1655.957
523.8110, 1708.180
524.9910, 1718.254
526.1700, 1672.746
527.3490, 1750.562
528.5280, 1659.508
529.7070, 1659.535
530.8860, 1618.648
532.0650, 1720.852
533.2430, 1908.188
534.4210, 1864.551
535.5990, 1862.797
536.7770, 1873.332
537.9550, 1711.531
539.1320, 1608.891
540.3100, 1682.699
541.4870, 1754.590
542.6640, 1953.559
543.8410, 2056.410
545.0170, 2207.441
546.1940, 2035.605
547.3700, 2345.898
548.5470, 2156.266
549.7230, 2192.719
550.8980, 2541.250
552.0740, 1970.496
553.2500, 2024.188
554.4250, 2291.957
555.6000, 2172.801
556.7750, 2472.406
557.9500, 2461.410
559.1250, 2386.496
560.2990, 2359.664
561.4730, 2279.906
562.6480, 2360.680
563.8220, 2452.098
564.9950, 2192.020
566.1690, 2162.590
567.3430, 2596.055
568.5160, 2062.773
569.6890, 2353.574
570.8620, 2311.457
572.0350, 1901.555
573.2070, 2070.590
574.3800, 1759.004
575.5520, 1827.203
576.7240, 1542.477
577.8960, 1471.668
579.0680, 1149.871
580.2400, 1302.906
581.4110, 1191.566
582.5830, 1125.250
583.7540, 782.0547
584.9250, 432.7695
586.0950, 558.5234
587.2660, 541.0000
588.4370, 575.1133
589.6070, 542.2891
590.7770, 534.5586
591.9470, 486.9180
593.1170, 542.9336
594.2860, 440.4492
595.4560, 515.6719
596.6250, 279.3164
597.7940, 512.3789
598.9630, 339.1523
600.1320, 339.9883
601.3000, 303.8906
602.4690, 575.8477
603.6370, 722.8711
604.8050, 672.2617
605.9730, 475.1016
607.1410, 607.3281
608.3090, 598.6328
609.4760, 579.0000
610.6430, 554.4258
611.8100, 479.9141
612.9770, 398.4609
614.1440, 282.1055
615.3110, 294.8008
616.4770, 688.8672
617.6430, 334.6914
618.8090, 527.5703
619.9750, 209.5039
621.1410, 557.4922
622.3070, 278.5469
623.4720, 430.6445
624.6370, 204.1445
625.8020, 214.8516
626.9670, 232.7031
628.1320, 217.8594
629.2970, 298.2305
630.4610, 327.1055
631.6250, 461.5859
632.7890, 374.1133
633.9530, 449.1367
635.1170, 538.1289
636.2810, 524.8164
637.4440, 509.5508
638.6070, 631.3281
639.7700, 544.1602
640.9330, 209.0508
642.0960, 346.9805
643.2590, 210.9609
644.4210, 531.9883
645.5830, 233.0586
646.7450, 321.1719
647.9070, 363.3281
649.0690, 124.5273
650.2310, 408.0430
651.3920, 136.5781
652.5530, 82.63281
653.7140, 1074.273
654.8750, 344.6797
656.0360, 150.1328
657.1970, 690.6172
658.3570, 8.136719
659.5170, 206.6953
660.6770, 117.9453
661.8370, 98.06641
662.9970, 201.6016
664.1570, 183.2734
665.3160, 7.699219
666.4750, 344.4414
667.6340, 187.3203
668.7930, 59.12500
669.9520, 301.9570
671.1110, 79.96484
672.2690, 73.14062
673.4270, 45.76172
674.5850, 387.3047
675.7430, 11.59375
676.9010, 24.56641
678.0590, 169.4258
679.2160, 79.05859
680.3730, 141.9102
681.5300, 217.7891
682.6870, 27.30469
683.8440, 125.3828
685.0010, 103.3711
686.1570, 250.5234
687.3130, 51.43750
688.4690, 209.3789
689.6250, 341.3438
690.7810, 43.66797
691.9370, 91.94922
693.0920, 61.96094
694.2470, 283.0000
695.4020, 13.93750
696.5570, 34.13281
697.7120, 76.05078
698.8670, 24.16016
700.0210, 170.2969
701.1750, 27.39453
702.3290, 329.7656
703.4830, 147.0547
704.6370, 295.0703
705.7910, 31.78125
706.9440, 118.3594
708.0970, 125.5234
709.2510, 42.74609
710.4030, 131.3789
711.5560, 118.7695
712.7090, 94.34375
713.8610, 54.09375
715.0140, 47.23828
716.1660, 3.683594
717.3180, 85.86328
718.4690, 17.84375
719.6210, 153.1641
720.7730, 32.56250
721.9240, 389.5625
723.0750, 102.3047
724.2260, 207.3594
725.3770, 302.3750
726.5270, 396.1641
727.6780, 363.0156
728.8280, 206.1133
729.9780, 156.9805
731.1280, 6.250000
732.2780, 231.6055
733.4280, 60.53125
734.5770, 300.2812
735.7260, 2.105469
736.8760, 416.1602
738.0250, 242.9688
739.1730, 271.7852
740.3220, 545.6016
741.4700, 205.4297
742.6190, 205.3984
743.7670, 303.3008
744.9150, 248.1523
746.0630, 228.7383
747.2100, 130.5859
748.3580, 315.4375
749.5050, 495.4258
750.6520, 228.2812
751.7990, 514.7383
752.9460, 290.5977
754.0930, 29.09766
755.2390, 394.9375
756.3860, 283.7695
757.5320, 220.6094
758.6780, 167.4492
759.8240, 372.2891
760.9690, 363.1250
762.1150, 95.96484
763.2600, 325.7969
764.4060, 76.62891
765.5510, 442.4453
766.6950, 165.2656
767.8400, 98.07812
768.9850, 337.8867
770.1290, 489.6914
771.2730, 31.54688
772.4170, 184.3242
773.5610, 244.8828
774.7050, 174.6523
775.8480, 502.4219
776.9920, 379.1836
778.1350, 361.2266
779.2780, 211.9844
780.4210, 191.7305
781.5640, 532.4805
782.7060, 176.2227
783.8490, 365.9609
784.9910, 327.6992
786.1330, 179.4336
787.2750, 87.15234
788.4170, 88.50781
789.5580, 109.5508
790.7000, 89.22656
791.8410, 169.8906
792.9820, 159.5430
794.1230, 327.1914
795.2640, 270.8359
796.4040, 190.4727
797.5450, 80.10547
798.6850, 135.7148
799.8250, 159.8164
800.9650, 338.4102
802.1050, 75.00000
803.2450, 219.7383
804.3840, 155.7930
805.5230, 393.7773
806.6630, 266.2539
807.8020, 100.7227
808.9400, 182.1719
810.0790, 248.5703
811.2170, 260.0117
812.3560, 144.6484
813.4940, 219.0742
814.6320, 25.09375
815.7700, 100.8750
816.9070, 343.9688
818.0450, 275.3125
819.1820, 209.6484
820.3190, 316.1719
821.4560, 133.6016
822.5930, 179.9688
823.7300, 261.2812
824.8670, 159.5898
826.0030, 186.8906
827.1390, 195.2422
828.2750, 92.84766
829.4110, 275.1289
830.5470, 362.4062
831.6820, 545.6797
832.8180, 556.2695
833.9530, 82.53516
835.0880, 229.7852
836.2230, 416.0312
837.3580, 17.73047
838.4920, 545.0312
839.6270, 225.2148
840.7610, 183.9766
841.8950, 358.1562
843.0290, 179.5117
844.1630, 354.6836
845.2960, 32.85156
846.4300, 42.00000
847.5630, 134.9883
848.6960, 68.11328
849.8290, 41.73438
850.9620, 127.0312
852.0940, 97.87500
853.2270, 9.003906
854.3590, 79.20703
855.4910, 13.04297
856.6230, 94.92969
857.7550, 176.8711
858.8870, 381.7578
860.0180, 11.79688
861.1500, 190.8594
862.2810, 70.73047
863.4120, 72.08594
864.5430, 98.08984
865.6730, 348.6641
866.8040, 127.5742
867.9340, 283.5430
869.0640, 148.2266
870.1940, 376.2695
871.3240, 257.9648
872.4540, 27.30469
873.5830, 378.0000
874.7130, 97.69922
875.8420, 295.4023
876.9710, 215.1094
878.1000, 31.81641
879.2290, 38.53125
880.3570, 39.75000
881.4860, 87.05859
882.6140, 199.5898
883.7420, 129.2422
884.8700, 23.89844
885.9980, 323.5586
887.1250, 139.7773
888.2530, 349.8164
889.3800, 22.58203
890.5070, 432.7070
891.6340, 811.3008
892.7610, 582.9023
893.8880, 160.5156
895.0140, 116.1328
896.1400, 158.7539
897.2670, 331.3828
898.3930, 173.6797
899.5180, 173.3203
900.6440, 77.04297
901.7700, 135.7070
902.8950, 272.3711
904.0200, 252.5938
905.1450, 416.2773
906.2700, 3.968750
907.3950, 353.8555
908.5190, 23.43750
909.6440, 340.2695
910.7680, 130.9844
911.8920, 62.70703
913.0160, 54.55859
914.1400, 177.1641
915.2630, 408.8945
916.3870, 257.6406
917.5100, 382.3906
918.6330, 69.15234
919.7560, 265.9297
920.8790, 215.7148
922.0010, 348.5117
923.1240, 389.0508
924.2460, 136.6133
925.3680, 185.7188
926.4900, 334.2852
927.6120, 229.1445
928.7340, 646.0039
929.8550, 115.8867
930.9760, 156.7812
932.0980, 307.6914
933.2190, 441.9531
934.3390, 269.5312
935.4600, 334.4609
936.5810, 319.4375
937.7010, 26.28906
938.8210, 502.7148
939.9410, 421.6250
941.0610, 8.656250
942.1810, 68.70312
943.3010, 413.6289
944.4200, 615.7109
945.5390, 235.8203
946.6580, 117.9375
947.7770, 454.0742
948.8960, 267.3047
950.0150, 672.2773
951.1330, 108.9219
952.2510, 552.2500
953.3690, 293.6016
954.4870, 204.9688
955.6050, 344.3594
956.7230, 645.6836
957.8400, 496.1484
958.9580, 459.6367
960.0750, 501.1445
961.1920, 507.6641
962.3090, 318.2109
963.4250, 167.1602
964.5420, 233.7500
965.6580, 533.3633
966.7740, 352.0000
967.8900, 351.6562
969.0060, 626.5234
970.1220, 288.2266
971.2380, 235.9609
972.3530, 332.5547
973.4680, 489.3398
974.5830, 555.1953
975.6980, 354.1016
976.8130, 675.0430
977.9280, 985.0117
979.0420, 666.0273
980.1560, 461.0234
981.2710, 519.4297
982.3850, 374.5781
983.4980, 582.0547
984.6120, 719.0000
985.7260, 410.2773
986.8390, 698.6562
987.9520, 397.3281
989.0650, 494.1289
990.1780, 656.3477
991.2910, 663.6562
992.4030, 675.1602
993.5160, 737.6875
994.6280, 360.4180
995.7400, 379.0859
996.8520, 528.1602
997.9640, 748.9570
999.0750, 644.5820
1000.187, 612.4844
1001.298, 463.5391
1002.409, 645.5352
1003.520, 453.5625
1004.631, 763.6406
1005.741, 754.7500
1006.852, 382.6484
1007.962, 500.8281
1009.072, 408.0664
1010.182, 768.3594
1011.292, 319.7031
1012.402, 686.9414
1013.511, 704.2773
1014.621, 296.6953
1015.730, 771.4141
1016.839, 560.9062
1017.948, 438.4414
1019.056, 433.8750
1020.165, 500.4727
1021.273, 864.5000
1022.382, 345.1875
1023.490, 1198.266
1024.598, 1456.027
1025.706, 1492.824
1026.813, 1139.656
1027.921, 498.5117
1029.028, 779.4062
1030.135, 659.3320
1031.242, 772.2891
1032.349, 733.2812
1033.456, 764.3008
1034.562, 760.3594
1035.668, 598.4531
1036.775, 959.5781
1037.881, 876.7422
1038.987, 732.9336
1040.092, 869.1055
1041.198, 756.3789
1042.303, 1015.895
1043.408, 888.2344
1044.514, 1118.656
1045.618, 914.1094
1046.723, 964.3125
1047.828, 913.8320
1048.932, 1257.387
1050.037, 996.9766
1051.141, 1100.598
1052.245, 1152.254
1053.349, 923.9453
1054.452, 1073.668
1055.556, 1124.422
1056.659, 1262.215
1057.762, 1142.051
1058.865, 1150.926
1059.968, 851.8398
1061.071, 1168.809
1062.174, 833.8125
1063.276, 902.8516
1064.378, 1109.922
1065.480, 1049.031
1066.582, 978.1758
1067.684, 1239.359
1068.786, 1047.578
1069.887, 1281.828
1070.988, 1251.844
1072.090, 1547.203
1073.191, 1139.602
1074.291, 946.0273
1075.392, 1055.492
1076.493, 1370.996
1077.593, 1265.531
1078.693, 1243.102
1079.793, 1084.711
1080.893, 1125.348
1081.993, 985.0195
1083.092, 1210.746
1084.192, 1220.867
1085.291, 1459.668
1086.390, 1288.504
1087.489, 1123.375
1088.588, 1144.273
1089.686, 1093.762
1090.785, 1078.457
1091.883, 1186.176
1092.981, 1094.211
1094.079, 1178.277
1095.177, 1158.375
1096.275, 1052.512
1097.373, 1250.699
1098.470, 1179.918
1099.567, 1170.188
1100.664, 931.6836
1101.761, 1142.016
1102.858, 1115.680
1103.954, 872.0742
1105.051, 947.5273
1106.147, 1008.652
1107.243, 1102.168
1108.339, 1125.480
1109.435, 1291.055
1110.531, 1123.523
1111.626, 1203.609
1112.722, 1134.773
1113.817, 840.0352
1114.912, 1365.293
1116.007, 877.0664
1117.101, 1116.879
1118.196, 1162.719
1119.290, 1199.625
1120.385, 1041.574
1121.479, 1024.598
1122.573, 994.6523
1123.666, 1189.090
1124.760, 974.2031
1125.853, 858.3438
1126.947, 1205.520
1128.040, 605.7227
1129.133, 759.9766
1130.226, 624.3711
1131.318, 662.7109
1132.411, 490.8242
1133.503, 812.2539
1134.596, 412.7070
1135.688, 660.1836
1136.780, 792.6836
1137.871, 533.2109
1138.963, 707.7969
1140.054, 554.7734
1141.146, 426.7031
1142.237, 432.2383
1143.328, 597.8828
1144.419, 701.5547
1145.509, 575.2500
1146.600, 336.9805
1147.690, 378.7695
1148.780, 491.2812
1149.870, 595.1055
1150.960, 149.9883
1152.050, 531.8516
1153.139, 369.1641
1154.229, 613.1133
1155.318, 258.0898
1156.407, 269.0859
1157.496, 238.1055
1158.585, 447.2344
1159.674, 128.2930
1160.762, 361.3750
1161.850, 565.4766
1162.939, 442.5977
1164.027, 578.7422
1165.114, 607.8984
1166.202, 619.0781
1167.290, 632.6133
1168.377, 398.4922
1169.464, 518.7305
1170.551, 374.9883
1171.638, 196.2617
1172.725, 142.5547
1173.812, 290.8711
1174.898, 309.6016
1175.984, 321.1875
1177.071, 440.6133
1178.157, 332.7227
1179.242, 159.1367
1180.328, 133.5742
1181.414, 120.4688
1182.499, 215.4844
1183.584, 123.9688
1184.669, 329.4609
1185.754, 180.9766
1186.839, 180.5039
1187.924, 369.0469
1189.008, 393.6992
1190.092, 240.2734
1191.177, 542.1641
1192.260, 96.76953
1193.344, 312.3945
1194.428, 222.0273
1195.512, 321.6719
1196.595, 356.3359
1197.678, 126.0078
1198.761, 194.6953
1199.844, 284.3984
1200.927, 68.12891
1202.009, 16.87109
1203.092, 129.6328
1204.174, 276.4023
1205.256, 359.1875
1206.338, 29.98047
1207.420, 356.7891
1208.502, 250.2539
1209.583, 128.4375
1210.665, 297.2812
1211.746, 274.1328
1212.827, 277.9961
1213.908, 61.13281
1214.988, 505.7305
1216.069, 250.6016
1217.149, 69.48828
1218.230, 313.3789
1219.310, 312.2773
1220.390, 69.19141
1221.470, 59.11328
1222.549, 196.0391
1223.629, 328.9805
1224.708, 315.9258
1225.787, 259.8828
1226.866, 174.0703
1227.945, 95.24609
1229.024, 213.2969
1230.103, 26.71094
1231.181, 107.2734
1232.259, 26.73438
1233.337, 167.2461
1234.415, 46.24219
1235.493, 183.7578
1236.571, 345.1562
1237.648, 30.86328
1238.726, 192.0508
1239.803, 65.03516
1240.880, 23.14453
1241.957, 57.26562
1243.034, 40.41406
1244.110, 124.5820
1245.187, 322.1914
1246.263, 71.97266
1247.339, 360.7539
1248.415, 173.5742
1249.491, 342.0586
1250.566, 116.8828
1251.642, 240.7109
1252.717, 99.45703
1253.793, 217.3203
1254.868, 182.1055
1255.943, 135.8906
1257.017, 143.7188
1258.092, 90.73438
1259.166, 142.7344
1260.241, 157.9844
1261.315, 101.2656
1262.389, 218.4258
1263.462, 89.12500
1264.536, 279.8242
1265.610, 205.5273
1266.683, 122.2266
1267.756, 29.92969
1268.829, 91.36328
1269.902, 89.71484
1270.975, 47.87891
1272.048, 42.44922
1273.120, 78.01172
1274.192, 190.5742
1275.264, 103.1367
1276.336, 44.70312
1277.408, 24.73438
1278.480, 267.8086
1279.551, 41.34766
1280.623, 106.8906
1281.694, 85.56641
1282.765, 208.9180
1283.836, 120.4023
1284.907, 98.88672
1285.977, 420.3711
1287.048, 39.85156
1288.118, 247.3359
1289.188, 388.8164
1290.258, 234.2969
1291.328, 478.7734
1292.398, 128.2500
1293.467, 204.7266
1294.537, 360.1953
1295.606, 500.7578
1296.675, 354.2266
1297.744, 246.6914
1298.813, 85.29688
1299.882, 494.8438
1300.950, 381.3047
1302.018, 171.7930
1303.086, 159.6914
1304.155, 149.6641
1305.222, 398.0117
1306.290, 326.3633
1307.358, 627.7070
1308.425, 245.0547
1309.492, 368.3867
1310.559, 376.7305
1311.626, 177.0625
1312.693, 323.3906
1313.760, 263.7188
1314.826, 97.04688
1315.893, 363.3711
1316.959, 59.69531
1318.025, 297.0156
1319.091, 55.66016
1320.157, 434.6133
1321.222, 81.88281
1322.288, 338.1445
1323.353, 364.4023
1324.418, 378.6562
1325.483, 206.9062
1326.548, 279.1562
1327.612, 335.4023
1328.677, 357.4102
1329.741, 324.6484
1330.806, 373.8789
1331.870, 218.1016
1332.934, 294.3203
1333.997, 210.5352
1335.061, 309.7500
1336.124, 406.9531
1337.188, 190.1562
1338.251, 221.3203
1339.314, 288.4766
1340.377, 372.6211
1341.439, 268.7617
1342.502, 548.5508
1343.564, 578.6797
1344.627, 405.8008
1345.689, 485.9141
1346.751, 417.0312
1347.813, 347.1406
1348.874, 355.2422
1349.936, 370.9102
1350.997, 682.6211
1352.058, 329.7070
1353.119, 304.7852
1354.180, 47.14453
1355.241, 60.90234
1356.301, 4.941406
1357.362, 362.9688
1358.422, 341.7852
1359.482, 516.8008
1360.542, 353.5078
1361.602, 248.5195
1362.662, 409.5273
1363.721, 321.7578
1364.781, 72.11328
1365.840, 359.3320
1366.899, 337.3242
1367.958, 243.4492
1369.017, 83.98438
1370.075, 317.4766
1371.134, 207.0938
1372.192, 385.3750
1373.250, 267.3516
1374.308, 222.5156
1375.366, 307.3086
1376.424, 18.26953
1377.481, 333.2266
1378.539, 257.1836
1379.596, 129.1406
1380.653, 359.7383
1381.710, 290.6953
1382.767, 389.6484
1383.824, 575.6016
1384.880, 368.5547
1385.937, 112.5039
1386.993, 127.3438
1388.049, 399.9609
1389.105, 258.1250
1390.161, 312.0391
1391.216, 98.94922
1392.272, 237.8633
1393.327, 381.7734
1394.382, 454.6875
1395.437, 152.5703
1396.492, 526.3125
1397.547, 201.9023
1398.601, 270.9102
1399.656, 389.9258
1400.710, 331.8516
1401.764, 300.7773
1402.818, 107.7031
1403.872, 87.63281
1404.925, 84.85156
1405.979, 231.7930
1407.032, 492.6992
1408.085, 475.6445
1409.139, 188.2070
1410.191, 343.1641
1411.244, 120.1211
1412.297, 146.9570
1413.349, 140.8750
1414.402, 122.6641
1415.454, 290.5508
1416.506, 170.4414
1417.558, 261.3320
1418.609, 407.1055
1419.661, 205.8828
1420.712, 87.66016
1421.764, 16.43750
1422.815, 98.21094
1423.866, 418.9844
1424.916, 7.753906
1425.967, 17.52734
1427.018, 288.2969
1428.068, 30.06250
1429.118, 23.82812
1430.168, 528.1992
1431.218, 257.8438
1432.268, 201.7305
1433.318, 241.5039
1434.367, 49.28516
1435.416, 106.0820
1436.465, 337.8906
1437.514, 75.71484
1438.563, 321.7070
1439.612, 185.5820
1440.661, 91.72266
1441.709, 160.8281
1442.757, 353.8125
1443.805, 279.8711
1444.853, 459.4883
1445.901, 164.1875
1446.949, 337.5625
1447.996, 215.4492
1449.044, 420.3281
1450.091, 256.1914
1451.138, 522.0312
1452.185, 544.8398
1453.232, 423.6406
1454.278, 63.57812
1455.325, 233.1953
1456.371, 135.9570
1457.417, 126.7070
1458.463, 374.4688
1459.509, 209.2188
1460.555, 128.9570
1461.601, 146.6875
1462.646, 546.4023
1463.691, 174.0703
1464.737, 372.0547
1465.782, 325.6562
1466.826, 270.2578
1467.871, 337.8555
1468.916, 211.4727
1469.960, 430.1719
1471.004, 313.9180
1472.048, 299.7188
1473.092, 405.6055
1474.136, 169.4609
1475.180, 325.4062
1476.223, 4.808594
1477.267, 199.0469
1478.310, 523.8945
1479.353, 78.73828
1480.396, 473.6406
1481.439, 167.5742
1482.481, 531.5117
1483.524, 397.4375
1484.566, 474.4023
1485.608, 555.9844
1486.650, 235.6250
1487.692, 465.7539
1488.734, 336.8945
1489.775, 3.941406
1490.817, 209.2656
1491.858, 284.5156
1492.899, 383.7695
1493.940, 403.0273
1494.981, 382.2344
1496.022, 375.0039
1497.062, 186.6836
1498.103, 258.9688
1499.143, 0.1289060
1500.183, 100.8867
1501.223, 143.4023
1502.263, 68.89062
1503.302, 211.3906
1504.342, 278.9102
1505.381, 310.4375
1506.420, 181.9766
1507.459, 249.5234
1508.498, 125.0664
1509.537, 50.71094
1510.576, 184.3828
1511.614, 319.0742
1512.652, 111.2070
1513.691, 214.4141
1514.729, 236.4375
1515.767, 174.7578
1516.804, 493.3516
1517.842, 266.1133
1518.879, 167.0312
1519.917, 278.9961
1520.954, 10.00781
1521.991, 302.0664
1523.028, 226.1641
1524.064, 40.80859
1525.101, 140.8125
1526.137, 317.9062
1527.173, 418.8711
1528.210, 447.8164
1529.245, 188.8281
1530.281, 301.7695
1531.317, 265.0195
1532.352, 222.9141
1533.388, 388.3359
1534.423, 171.4922
1535.458, 333.0547
1536.493, 323.3203
1537.528, 403.0156
1538.562, 332.7812
1539.597, 308.9023
1540.631, 435.0586
1541.665, 478.1758
1542.700, 361.9766
1543.733, 445.4766
1544.767, 222.3398
1545.801, 268.2266
1546.834, 428.9609
1547.868, 347.6406
1548.901, 433.5273
1549.934, 455.7422
1550.967, 189.0703
1551.999, 424.3711
1553.032, 442.2734
1554.064, 237.6055
1555.097, 456.3164
1556.129, 282.6758
1557.161, 249.8984
1558.193, 323.6406
1559.224, 287.8359
1560.256, 425.6289
1561.287, 397.1328
1562.318, 70.62891
1563.350, 192.9805
1564.380, 62.61719
1565.411, 90.58984
1566.442, 211.3047
1567.472, 123.4102
1568.503, 2.464844
1569.533, 362.5898
1570.563, 0.0000000E+00
##END=



