##NAMES=Carrollite
##RRUFFID=R050089
##IDEAL CHEMISTRY=Cu^1+^Co^3+^_2_S_4_
##LOCALITY=Kambove, Katanga, Democratic Republic of the Congo
##OWNER=RRUFF
##SOURCE=Rock Currier
##DESCRIPTION=Steel-gray octahedral crystal associated with calcite
##STATUS=The identification of this mineral has been confirmed by X-ray diffraction and chemical analysis
##URL=rruff.info/R050089
##MEASURED CHEMISTRY=(Cu_0.96_Fe^2+^_0.04_)_Σ=1_Co_2.00_S_4.00_ ; the vein is pyrite: (Fe_0.99_Co_0.01_)_Σ=1_S_2.00_
##PIN_ID=L00215
##ORIENTATION=Laser parallel to a* (1 0 0). Fiducial mark perpendicular to laser is parallel to b [0 1 0]
96.62100, 0.0000000E+00
97.86200, 10.61719
99.10300, 266.4062
100.3440, 478.0625
101.5850, 403.4414
102.8250, 1217.637
104.0650, 1934.688
105.3050, 2554.062
106.5450, 2751.023
107.7850, 3503.996
109.0250, 4047.301
110.2640, 4591.609
111.5030, 6278.031
112.7420, 8056.445
113.9810, 10416.33
115.2200, 14305.96
116.4580, 20346.27
117.6970, 23973.76
118.9350, 18844.38
120.1730, 5558.141
121.4100, 2147.586
122.6480, 1970.320
123.8850, 1529.102
125.1230, 756.2461
126.3600, 311.7070
127.5960, 313.8672
128.8330, 703.7812
130.0700, 576.4727
131.3060, 557.1406
132.5420, 677.0117
133.7780, 378.9531
135.0140, 505.7500
136.2500, 242.0430
137.4850, 437.4609
138.7200, 1091.488
139.9550, 882.6953
141.1900, 488.2578
142.4250, 50.66406
143.6600, 25.10156
144.8940, 115.3750
146.1280, 18.98438
147.3620, 196.7500
148.5960, 143.4883
149.8300, 207.7773
151.0630, 784.8672
152.2960, 818.0391
153.5300, 350.6758
154.7620, 747.8242
155.9950, 699.8555
157.2280, 223.0430
158.4600, 482.9492
159.6920, 629.7344
160.9250, 964.2500
162.1560, 1274.734
163.3880, 1156.066
164.6200, 1397.977
165.8510, 1136.164
167.0820, 1074.422
168.3130, 1183.410
169.5440, 1142.449
170.7750, 1302.875
172.0050, 1221.105
173.2350, 1294.336
174.4650, 999.5039
175.6950, 1064.000
176.9250, 858.8086
178.1550, 1096.906
179.3840, 1175.945
180.6130, 892.8633
181.8420, 1468.680
183.0710, 1195.684
184.3000, 1119.840
185.5280, 1484.125
186.7570, 1612.684
187.9850, 2003.012
189.2130, 2428.793
190.4400, 2757.121
191.6680, 2794.941
192.8960, 2974.094
194.1230, 2515.809
195.3500, 2759.723
196.5770, 2834.098
197.8030, 2929.504
199.0300, 3147.938
200.2560, 3384.387
201.4830, 3261.785
202.7090, 2756.172
203.9340, 1167.539
205.1600, 301.8711
206.3860, 215.1758
207.6110, 407.5664
208.8360, 18.34375
210.0610, 277.1602
211.2860, 65.99219
212.5100, 41.89453
213.7350, 17.19141
214.9590, 173.2500
216.1830, 34.71484
217.4070, 208.7070
218.6310, 186.2812
219.8540, 62.75781
221.0780, 51.81250
222.3010, 3.113281
223.5240, 156.9766
224.7470, 43.08594
225.9690, 320.4297
227.1920, 204.1953
228.4140, 94.20703
229.6360, 37.37109
230.8580, 122.7422
232.0800, 4.511719
233.3020, 10.17969
234.5230, 21.06641
235.7440, 70.78125
236.9650, 100.7109
238.1860, 42.36719
239.4070, 103.0781
240.6280, 109.8398
241.8480, 45.28516
243.0680, 94.69141
244.2880, 258.1914
245.5080, 104.4336
246.7280, 21.52344
247.9470, 300.8945
249.1660, 481.4023
250.3860, 423.5273
251.6040, 487.0508
252.8230, 622.4961
254.0420, 583.6367
255.2600, 839.7461
256.4790, 982.4414
257.6970, 1017.750
258.9150, 624.7656
260.1320, 784.3281
261.3500, 722.1641
262.5670, 650.7070
263.7840, 887.4453
265.0010, 555.6953
266.2180, 660.5938
267.4350, 546.5273
268.6510, 670.9297
269.8680, 502.7734
271.0840, 522.4922
272.3000, 405.0625
273.5160, 347.5898
274.7310, 309.8555
275.9470, 255.7109
277.1620, 211.5703
278.3770, 207.2539
279.5920, 170.7695
280.8070, 169.1445
282.0210, 204.3203
283.2360, 189.2227
284.4500, 223.1445
285.6640, 278.9336
286.8780, 266.6133
288.0920, 162.1758
289.3050, 304.7227
290.5180, 400.3711
291.7320, 132.3398
292.9450, 427.3477
294.1570, 204.8008
295.3700, 237.6289
296.5830, 344.8750
297.7950, 439.7500
299.0070, 247.1250
300.2190, 275.1445
301.4310, 192.8008
302.6420, 425.3008
303.8540, 358.1602
305.0650, 420.9727
306.2760, 348.6914
307.4870, 486.1719
308.6980, 405.1836
309.9080, 407.0391
311.1190, 316.6953
312.3290, 379.2617
313.5390, 139.7266
314.7490, 345.0430
315.9580, 393.2617
317.1680, 527.4258
318.3770, 304.5820
319.5860, 439.7617
320.7950, 413.9727
322.0040, 398.2148
323.2130, 579.3789
324.4210, 107.6680
325.6290, 508.9766
326.8380, 324.3125
328.0460, 834.6680
329.2530, 691.0430
330.4610, 383.4414
331.6680, 292.8633
332.8760, 427.2969
334.0830, 396.7539
335.2890, 417.2227
336.4960, 615.7070
337.7030, 257.2109
338.9090, 370.3086
340.1150, 793.2852
341.3210, 341.8477
342.5270, 657.4297
343.7330, 803.0430
344.9380, 514.6719
346.1440, 478.3320
347.3490, 650.0078
348.5540, 365.7188
349.7590, 338.4453
350.9630, 819.0781
352.1680, 606.6758
353.3720, 815.5469
354.5760, 577.0898
355.7800, 472.6367
356.9840, 766.1797
358.1870, 732.9883
359.3910, 612.7148
360.5940, 647.6328
361.7970, 223.6445
363.0000, 577.9805
364.2030, 428.5273
365.4050, 665.5234
366.6080, 394.4570
367.8100, 458.0859
369.0120, 556.9219
370.2140, 374.1523
371.4150, 632.2305
372.6170, 358.8711
373.8180, 500.6875
375.0190, 323.3398
376.2200, 269.9141
377.4210, 403.1953
378.6220, 329.3984
379.8220, 798.7266
381.0230, 583.6914
382.2230, 416.1211
383.4230, 57.51562
384.6220, 117.4102
385.8220, 540.1914
387.0220, 391.7109
388.2210, 309.0664
389.4200, 414.6055
390.6190, 371.2109
391.8180, 348.7188
393.0160, 241.5273
394.2150, 73.42969
395.4130, 110.6016
396.6110, 198.6406
397.8090, 476.6836
399.0060, 566.7305
400.2040, 399.7773
401.4010, 405.8359
402.5980, 541.9023
403.7950, 362.9805
404.9920, 438.9180
406.1890, 154.1875
407.3860, 412.3125
408.5820, 401.4492
409.7780, 351.6016
410.9740, 428.7852
412.1700, 559.0000
413.3650, 250.2539
414.5610, 480.5391
415.7560, 341.8906
416.9510, 589.2695
418.1460, 451.6758
419.3410, 634.1367
420.5360, 473.5430
421.7300, 664.8125
422.9240, 418.1133
424.1180, 768.3242
425.3120, 730.5742
426.5060, 728.0273
427.7000, 737.4805
428.8930, 776.1328
430.0860, 742.8945
431.2790, 663.6875
432.4720, 904.2969
433.6650, 783.2383
434.8580, 884.2266
436.0500, 773.0938
437.2420, 774.2812
438.4340, 883.5781
439.6260, 580.9453
440.8180, 901.3594
442.0090, 531.8125
443.2010, 955.3125
444.3920, 805.9180
445.5830, 731.6172
446.7740, 733.3828
447.9640, 1078.266
449.1550, 814.2109
450.3450, 861.2344
451.5350, 920.3086
452.7250, 814.4805
453.9150, 780.7031
455.1050, 627.9883
456.2940, 810.3320
457.4830, 791.7344
458.6720, 798.2031
459.8610, 1003.734
461.0500, 946.9062
462.2390, 931.9844
463.4270, 976.7031
464.6150, 1072.484
465.8040, 1084.188
466.9910, 1292.242
468.1790, 1031.219
469.3670, 1066.258
470.5540, 1189.359
471.7410, 1116.527
472.9280, 1177.758
474.1150, 1292.059
475.3020, 1100.418
476.4890, 1390.852
477.6750, 1295.352
478.8610, 1162.914
480.0470, 1217.539
481.2330, 1310.234
482.4190, 1326.992
483.6040, 1281.820
484.7900, 1541.711
485.9750, 1325.664
487.1600, 1501.688
488.3450, 1251.773
489.5290, 1477.922
490.7140, 1337.137
491.8980, 1559.426
493.0820, 1553.773
494.2660, 1525.668
495.4500, 1560.707
496.6340, 1505.430
497.8170, 1716.270
499.0010, 1781.293
500.1840, 1717.410
501.3670, 1815.645
502.5500, 1823.984
503.7320, 1518.402
504.9150, 1594.934
506.0970, 1742.641
507.2790, 1841.449
508.4610, 2097.430
509.6430, 2302.527
510.8250, 2200.723
512.0060, 1880.059
513.1870, 1983.504
514.3680, 1740.141
515.5490, 2008.930
516.7300, 1941.840
517.9110, 2013.852
519.0910, 2008.992
520.2710, 2071.227
521.4510, 1829.875
522.6310, 2028.289
523.8110, 2143.430
524.9910, 1819.039
526.1700, 2275.742
527.3490, 2241.562
528.5280, 2262.637
529.7070, 2252.160
530.8860, 2384.277
532.0650, 2340.449
533.2430, 2435.402
534.4210, 2331.730
535.5990, 2371.684
536.7770, 2148.215
537.9550, 2412.539
539.1320, 2330.121
540.3100, 2394.770
541.4870, 2691.484
542.6640, 2735.277
543.8410, 2684.145
545.0170, 2535.074
546.1940, 2580.707
547.3700, 2385.828
548.5470, 2716.965
549.7230, 3061.160
550.8980, 2884.422
552.0740, 2757.172
553.2500, 2819.555
554.4250, 2848.102
555.6000, 2879.922
556.7750, 2931.602
557.9500, 2928.828
559.1250, 2956.535
560.2990, 2937.059
561.4730, 2856.109
562.6480, 2950.004
563.8220, 2968.930
564.9950, 3027.266
566.1690, 3127.066
567.3430, 3118.238
568.5160, 3193.473
569.6890, 3069.777
570.8620, 2686.141
572.0350, 2521.582
573.2070, 2339.121
574.3800, 2349.270
575.5520, 2193.875
576.7240, 2025.879
577.8960, 1706.254
579.0680, 1734.035
580.2400, 1426.336
581.4110, 1303.234
582.5830, 1121.191
583.7540, 803.5352
584.9250, 597.8008
586.0950, 766.9141
587.2660, 799.8125
588.4370, 670.7109
589.6070, 662.6484
590.7770, 425.0586
591.9470, 522.6289
593.1170, 319.3594
594.2860, 382.8945
595.4560, 143.5469
596.6250, 321.2500
597.7940, 674.0859
598.9630, 303.9883
600.1320, 559.9609
601.3000, 330.9883
602.4690, 317.0664
603.6370, 195.1914
604.8050, 47.36719
605.9730, 120.5898
607.1410, 320.8594
608.3090, 311.1836
609.4760, 452.5586
610.6430, 486.9805
611.8100, 328.4492
612.9770, 205.9961
614.1440, 240.6133
615.3110, 366.2812
616.4770, 189.3242
617.6430, 496.0781
618.8090, 431.8789
619.9750, 515.7305
621.1410, 279.6250
622.3070, 650.5625
623.4720, 450.5430
624.6370, 176.5664
625.8020, 562.6328
626.9670, 374.7422
628.1320, 509.8945
629.2970, 627.0898
630.4610, 240.3242
631.6250, 542.5977
632.7890, 508.9180
633.9530, 632.2773
635.1170, 585.6758
636.2810, 629.9531
637.4440, 555.5938
638.6070, 545.1055
639.7700, 442.6602
640.9330, 106.2500
642.0960, 316.8789
643.2590, 254.5391
644.4210, 109.2383
645.5830, 233.0586
646.7450, 0.8242190
647.9070, 365.9180
649.0690, 362.7539
650.2310, 145.6094
651.3920, 244.5078
652.5530, 380.4336
653.7140, 434.0117
654.8750, 109.0039
656.0360, 307.0195
657.1970, 180.0664
658.3570, 299.1406
659.5170, 135.2383
660.6770, 18.64062
661.8370, 66.50781
662.9970, 65.32031
664.1570, 20.85938
665.3160, 193.0742
666.4750, 186.3008
667.6340, 6.445313
668.7930, 23.17969
669.9520, 47.10156
671.1110, 212.5898
672.2690, 44.66016
673.4270, 216.9297
674.5850, 303.2227
675.7430, 283.5352
676.9010, 138.8672
678.0590, 338.2188
679.2160, 12.58984
680.3730, 70.98047
681.5300, 33.37891
682.6870, 236.6562
683.8440, 116.0977
685.0010, 67.67578
686.1570, 4.773438
687.3130, 89.32812
688.4690, 109.8125
689.6250, 116.3047
690.7810, 118.1836
691.9370, 82.29297
693.0920, 128.2188
694.2470, 0.2304690
695.4020, 209.3086
696.5570, 34.07031
697.7120, 230.4609
698.8670, 132.1367
700.0210, 18.78125
701.1750, 230.0938
702.3290, 224.6719
703.4830, 156.0508
704.6370, 212.0703
705.7910, 258.0977
706.9440, 189.5117
708.0970, 70.10156
709.2510, 176.5273
710.4030, 27.25391
711.5560, 81.30078
712.7090, 52.89453
713.8610, 154.4922
715.0140, 45.11328
716.1660, 104.7500
717.3180, 64.56641
718.4690, 80.03906
719.6210, 163.2383
720.7730, 79.61719
721.9240, 26.90625
723.0750, 193.8047
724.2260, 137.6055
725.3770, 95.49219
726.5270, 144.9102
727.6780, 2.484375
728.8280, 60.21094
729.9780, 47.50391
731.1280, 96.56250
732.2780, 119.3086
733.4280, 293.1094
734.5770, 275.3008
735.7260, 97.41797
736.8760, 126.5859
738.0250, 220.3906
739.1730, 336.2695
740.3220, 225.1445
741.4700, 204.0195
742.6190, 207.8945
743.7670, 257.7656
744.9150, 395.6797
746.0630, 331.5508
747.2100, 336.4180
748.3580, 244.1445
749.5050, 309.1719
750.6520, 305.1523
751.7990, 265.5312
752.9460, 368.3867
754.0930, 66.23438
755.2390, 306.0625
756.3860, 156.8906
757.5320, 279.1680
758.6780, 433.9805
759.8240, 310.7930
760.9690, 365.6016
762.1150, 498.3984
763.2600, 378.1953
764.4060, 375.9844
765.5510, 194.7656
766.6950, 505.5469
767.8400, 202.3164
768.9850, 335.0781
770.1290, 414.8359
771.2730, 204.5898
772.4170, 343.3320
773.5610, 350.0703
774.7050, 226.8008
775.8480, 213.5195
776.9920, 222.6719
778.1350, 216.0664
779.2780, 257.7695
780.4210, 306.4609
781.5640, 302.1484
782.7060, 44.82422
783.8490, 216.4570
784.9910, 201.9336
786.1330, 261.5391
787.2750, 203.0039
788.4170, 592.4648
789.5580, 401.9141
790.7000, 87.68359
791.8410, 383.1016
792.9820, 234.5078
794.1230, 259.9062
795.2640, 515.2930
796.4040, 175.6719
797.5450, 603.0430
798.6850, 356.0820
799.8250, 180.4336
800.9650, 191.1289
802.1050, 173.4609
803.2450, 311.7852
804.3840, 310.0938
805.5230, 324.2539
806.6630, 408.0352
807.8020, 334.3203
808.9400, 369.9023
810.0790, 229.1719
811.2170, 591.4258
812.3560, 383.6719
813.4940, 312.9102
814.6320, 490.1367
815.7700, 245.3594
816.9070, 434.5703
818.0450, 28.77344
819.1820, 115.9297
820.3190, 375.0703
821.4560, 56.19922
822.5930, 336.6680
823.7300, 161.7031
824.8670, 269.7812
826.0030, 255.8516
827.1390, 469.9102
828.2750, 403.5352
829.4110, 300.5781
830.5470, 387.5234
831.6820, 310.2422
832.8180, 259.5781
833.9530, 271.4141
835.0880, 248.5938
836.2230, 243.8320
837.3580, 102.5977
838.4920, 122.5781
839.6270, 274.5508
840.7610, 298.5156
841.8950, 33.52344
843.0290, 228.3789
844.1630, 71.26953
845.2960, 425.1445
846.4300, 115.0117
847.5630, 367.8516
848.6960, 219.6602
849.8290, 397.9062
850.9620, 292.7539
852.0940, 469.2539
853.2270, 250.4414
854.3590, 113.2734
855.4910, 118.6445
856.6230, 105.4688
857.7550, 164.9648
858.8870, 429.7773
860.0180, 237.3906
861.1500, 226.2148
862.2810, 19.69922
863.4120, 46.42969
864.5430, 48.56641
865.6730, 50.71875
866.8040, 143.8711
867.9340, 73.35547
869.0640, 211.9141
870.1940, 14.30469
871.3240, 269.7188
872.4540, 49.27344
873.5830, 60.87109
874.7130, 165.4922
875.8420, 223.8555
876.9710, 223.2227
878.1000, 294.5898
879.2290, 283.9609
880.3570, 2.332031
881.4860, 184.7031
882.6140, 55.07422
883.7420, 3.449219
884.8700, 29.81641
885.9980, 89.81250
887.1250, 97.49219
888.2530, 46.76953
889.3800, 124.0391
890.5070, 123.9883
891.6340, 215.9414
892.7610, 4.542969
893.8880, 255.8242
895.0140, 201.1133
896.1400, 112.4062
897.2670, 209.7031
898.3930, 145.0039
899.5180, 159.3125
900.6440, 206.6250
901.7700, 102.9492
902.8950, 158.4922
904.0200, 218.6094
905.1450, 144.9492
906.2700, 197.2930
907.3950, 114.6523
908.5190, 138.0117
909.6440, 347.3828
910.7680, 25.75391
911.8920, 0.8632810
913.0160, 376.5234
914.1400, 171.9180
915.2630, 271.3242
916.3870, 222.7344
917.5100, 142.1562
918.6330, 236.5039
919.7560, 425.9414
920.8790, 469.0977
922.0010, 428.5625
923.1240, 170.0352
924.2460, 411.5195
925.3680, 45.98828
926.4900, 179.8789
927.6120, 341.3828
928.7340, 583.8984
929.8550, 660.1953
930.9760, 284.9648
932.0980, 649.5195
933.2190, 565.0859
934.3390, 208.6641
935.4600, 569.2578
936.5810, 163.8711
937.7010, 509.4883
938.8210, 426.1328
939.9410, 55.79297
941.0610, 169.4648
942.1810, 106.2617
943.3010, 379.8633
944.4200, 279.6211
945.5390, 413.3945
946.6580, 624.2031
947.7770, 575.0234
948.8960, 402.8633
950.0150, 475.7188
951.1330, 429.5898
952.2510, 401.4766
953.3690, 392.3867
954.4870, 409.4570
955.6050, 583.3945
956.7230, 446.5859
957.8400, 536.5742
958.9580, 363.4883
960.0750, 446.5234
961.1920, 658.5820
962.3090, 513.6641
963.4250, 487.7852
964.5420, 505.9336
965.6580, 472.6719
966.7740, 356.3320
967.8900, 558.6133
969.0060, 387.9180
970.1220, 505.2930
971.2380, 468.7383
972.3530, 503.6953
973.4680, 391.9688
974.5830, 369.4805
975.6980, 531.0117
976.8130, 424.5938
977.9280, 682.9531
979.0420, 826.9297
980.1560, 864.9570
981.2710, 474.6641
982.3850, 637.4180
983.4980, 578.6953
984.6120, 511.0078
985.7260, 751.7422
986.8390, 424.2070
987.9520, 660.1445
989.0650, 671.1133
990.1780, 785.1523
991.2910, 676.2422
992.4030, 636.3086
993.5160, 819.3711
994.6280, 879.0312
995.7400, 744.7695
996.8520, 862.1641
997.9640, 526.9609
999.0750, 674.6836
1000.187, 657.3945
1001.298, 437.9219
1002.409, 743.5039
1003.520, 803.1875
1004.631, 604.5000
1005.741, 532.9219
1006.852, 786.3242
1007.962, 583.1172
1009.072, 1037.867
1010.182, 583.6992
1011.292, 701.5977
1012.402, 695.5352
1013.511, 708.4922
1014.621, 618.4414
1015.730, 648.0781
1016.839, 628.5078
1017.948, 636.7227
1019.056, 690.6797
1020.165, 659.7031
1021.273, 526.3594
1022.382, 748.5664
1023.490, 698.8086
1024.598, 785.0859
1025.706, 619.3945
1026.813, 506.2812
1027.921, 722.6523
1029.028, 701.0547
1030.135, 839.4844
1031.242, 1144.949
1032.349, 848.4453
1033.456, 566.9727
1034.562, 934.5352
1035.668, 893.1250
1036.775, 846.7461
1037.881, 888.4023
1038.987, 791.0898
1040.092, 962.8047
1041.198, 1006.559
1042.303, 1017.340
1043.408, 813.1523
1044.514, 868.0000
1045.618, 799.7539
1046.723, 937.6641
1047.828, 1049.609
1048.932, 1023.586
1050.037, 1013.855
1051.141, 1121.637
1052.245, 836.7227
1053.349, 1033.840
1054.452, 953.0703
1055.556, 740.3438
1056.659, 1065.645
1057.762, 908.9844
1058.865, 828.0195
1059.968, 1078.430
1061.071, 1243.871
1062.174, 1206.375
1063.276, 986.9102
1064.378, 1217.480
1065.480, 1018.145
1066.582, 1194.777
1067.684, 997.4492
1068.786, 1181.160
1069.887, 1037.902
1070.988, 1342.676
1072.090, 1404.488
1073.191, 1427.324
1074.291, 981.1992
1075.392, 1157.109
1076.493, 1252.051
1077.593, 1185.027
1078.693, 1287.824
1079.793, 1419.859
1080.893, 987.9336
1081.993, 1136.062
1083.092, 1105.227
1084.192, 1135.422
1085.291, 1232.652
1086.390, 771.9336
1087.489, 1031.266
1088.588, 1362.754
1089.686, 977.1641
1090.785, 1347.605
1091.883, 1112.926
1092.981, 937.4727
1094.079, 1313.008
1095.177, 662.5742
1096.275, 1126.176
1097.373, 1001.805
1098.470, 885.4648
1099.567, 1255.160
1100.664, 1246.281
1101.761, 1021.984
1102.858, 1151.191
1103.954, 1139.004
1105.051, 1341.848
1106.147, 930.7266
1107.243, 1029.637
1108.339, 901.5703
1109.435, 720.5664
1110.531, 749.0273
1111.626, 1023.086
1112.722, 1074.172
1113.817, 1004.293
1114.912, 1259.441
1116.007, 878.2930
1117.101, 899.5078
1118.196, 834.7539
1119.290, 1055.055
1120.385, 1004.348
1121.479, 1136.672
1122.573, 913.9844
1123.666, 1103.688
1124.760, 909.0938
1125.853, 935.5312
1126.947, 759.9805
1128.040, 857.3555
1129.133, 754.8828
1130.226, 596.4336
1131.318, 674.0117
1132.411, 934.3945
1133.503, 460.0508
1134.596, 661.7227
1135.688, 908.4844
1136.780, 383.2773
1137.871, 397.1719
1138.963, 932.5234
1140.054, 617.5000
1141.146, 607.3242
1142.237, 646.7539
1143.328, 539.8125
1144.419, 462.8906
1145.509, 452.9961
1146.600, 547.1211
1147.690, 459.2734
1148.780, 358.4453
1149.870, 457.9297
1150.960, 323.1523
1152.050, 317.9570
1153.139, 255.7461
1154.229, 330.0938
1155.318, 432.4688
1156.407, 638.8594
1157.496, 552.9531
1158.585, 714.7109
1159.674, 500.1719
1160.762, 294.6484
1161.850, 408.1484
1162.939, 318.6641
1164.027, 609.1992
1165.114, 348.7539
1166.202, 612.3281
1167.290, 37.91797
1168.377, 299.5312
1169.464, 468.1602
1170.551, 190.8125
1171.638, 202.4805
1172.725, 402.1641
1173.812, 407.8672
1174.898, 339.5898
1175.984, 306.3281
1177.071, 604.0859
1178.157, 401.8594
1179.242, 231.6562
1180.328, 168.4648
1181.414, 449.2891
1182.499, 481.1328
1183.584, 289.9922
1184.669, 362.8438
1185.754, 187.1875
1186.839, 280.0977
1187.924, 87.01953
1189.008, 436.9609
1190.092, 216.9219
1191.177, 322.9023
1192.260, 193.2188
1193.344, 353.2266
1194.428, 101.2461
1195.512, 4.718750
1196.595, 67.32812
1197.678, 77.89453
1198.761, 186.3008
1199.844, 233.3867
1200.927, 260.4883
1202.009, 301.8125
1203.092, 432.7305
1204.174, 301.1602
1205.256, 247.3125
1206.338, 184.4805
1207.420, 8.660156
1208.502, 89.15234
1209.583, 69.01562
1210.665, 183.1914
1211.746, 54.12891
1212.827, 266.3320
1213.908, 148.5430
1214.988, 608.7656
1216.069, 178.0000
1217.149, 201.8672
1218.230, 4.863281
1219.310, 279.4023
1220.390, 49.68750
1221.470, 41.01953
1222.549, 43.73828
1223.629, 243.5352
1224.708, 137.8125
1225.787, 342.1016
1226.866, 89.40234
1227.945, 89.70703
1229.024, 222.0234
1230.103, 45.65625
1231.181, 191.3477
1232.259, 62.12500
1233.337, 62.07422
1234.415, 159.2812
1235.493, 56.49219
1236.571, 257.7109
1237.648, 385.0781
1238.726, 125.3125
1239.803, 22.44531
1240.880, 86.78906
1241.957, 174.0273
1243.034, 334.2734
1244.110, 21.52734
1245.187, 263.1914
1246.263, 79.18359
1247.339, 124.3398
1248.415, 11.50781
1249.491, 136.6758
1250.566, 320.8555
1251.642, 41.95703
1252.717, 81.79297
1253.793, 158.3516
1254.868, 56.50781
1255.943, 40.33984
1257.017, 55.20312
1258.092, 223.9023
1259.166, 126.0078
1260.241, 259.1250
1261.315, 1.238281
1262.389, 204.3477
1263.462, 112.4648
1264.536, 348.5859
1265.610, 189.7109
1266.683, 324.8359
1267.756, 10.96484
1268.829, 93.09375
1269.902, 201.7734
1270.975, 141.9648
1272.048, 308.9727
1273.120, 123.2461
1274.192, 263.0820
1275.264, 281.8086
1276.336, 120.7617
1277.408, 322.7148
1278.480, 17.36719
1279.551, 224.5625
1280.623, 396.4961
1281.694, 256.4336
1282.765, 395.3711
1283.836, 177.4258
1284.907, 185.3633
1285.977, 284.3008
1287.048, 361.2422
1288.118, 394.1797
1289.188, 67.12109
1290.258, 201.0586
1291.328, 50.99609
1292.398, 189.9336
1293.467, 369.8750
1294.537, 119.8086
1295.606, 265.7461
1296.675, 244.6836
1297.744, 311.6172
1298.813, 293.5508
1299.882, 153.4883
1300.950, 416.4180
1302.018, 394.3555
1303.086, 77.28516
1304.155, 474.2188
1305.222, 277.1484
1306.290, 135.0820
1307.358, 56.01172
1308.425, 458.9414
1309.492, 105.8711
1310.559, 251.8008
1311.626, 372.7305
1312.693, 15.66016
1313.760, 6.578125
1314.826, 47.48828
1315.893, 64.39844
1316.959, 422.3086
1318.025, 349.2188
1319.091, 220.1367
1320.157, 75.93359
1321.222, 416.9414
1322.288, 242.8086
1323.353, 302.6758
1324.418, 408.4648
1325.483, 1.320313
1326.548, 174.1641
1327.612, 106.0039
1328.677, 373.8398
1329.741, 180.6758
1330.806, 482.4766
1331.870, 35.27344
1332.934, 194.0664
1333.997, 230.8398
1335.061, 275.6094
1336.124, 618.3750
1337.188, 352.3438
1338.251, 482.1055
1339.314, 84.13672
1340.377, 130.5820
1341.439, 100.5742
1342.502, 47.28906
1343.564, 337.0078
1344.627, 29.00781
1345.689, 418.6797
1346.751, 360.2500
1347.813, 301.9297
1348.874, 51.60156
1349.936, 230.4219
1350.997, 460.0547
1352.058, 361.7188
1353.119, 408.3867
1354.180, 420.4766
1355.241, 390.2852
1356.301, 362.3633
1357.362, 339.0234
1358.422, 313.2773
1359.482, 183.9805
1360.542, 230.2031
1361.602, 448.8438
1362.662, 225.4844
1363.721, 211.1211
1364.781, 21.75391
1365.840, 268.3867
1366.899, 157.8828
1367.958, 260.1836
1369.017, 107.8008
1370.075, 357.4219
1371.134, 239.0391
1372.192, 237.5352
1373.250, 23.51953
1374.308, 353.0938
1375.366, 269.7031
1376.424, 330.2852
1377.481, 229.1328
1378.539, 226.8164
1379.596, 181.4062
1380.653, 184.3867
1381.710, 166.0000
1382.767, 155.0703
1383.824, 207.2539
1384.880, 197.9883
1385.937, 232.6172
1386.993, 180.2461
1388.049, 175.8750
1389.105, 238.7539
1390.161, 284.3984
1391.216, 461.0391
1392.272, 358.4102
1393.327, 571.3438
1394.382, 178.1211
1395.437, 185.3633
1396.492, 54.00391
1397.547, 29.82812
1398.601, 68.16406
1399.656, 15.82031
1400.710, 182.4805
1401.764, 336.1445
1402.818, 349.8203
1403.872, 157.5078
1404.925, 19.80078
1405.979, 304.6289
1407.032, 93.33594
1408.085, 240.0586
1409.139, 141.7930
1410.191, 43.54688
1411.244, 526.1172
1412.297, 145.7891
1413.349, 187.4492
1414.402, 371.0078
1415.454, 336.5781
1416.506, 336.1562
1417.558, 245.7461
1418.609, 260.3438
1419.661, 231.9492
1420.712, 236.5664
1421.764, 209.1055
1422.815, 120.8281
1423.866, 112.4727
1424.916, 140.1328
1425.967, 15.80469
1427.018, 249.4844
1428.068, 34.17969
1429.118, 400.8906
1430.168, 309.6172
1431.218, 510.3711
1432.268, 42.15234
1433.318, 232.9688
1434.367, 220.8203
1435.416, 203.7188
1436.465, 232.6562
1437.514, 202.6445
1438.563, 302.6914
1439.612, 534.8398
1440.661, 427.5938
1441.709, 536.8945
1442.757, 434.3164
1443.805, 391.8789
1444.853, 441.6250
1445.901, 271.7266
1446.949, 596.5586
1447.996, 322.3164
1449.044, 517.0703
1450.091, 122.9414
1451.138, 315.6719
1452.185, 381.3945
1453.232, 90.80859
1454.278, 145.5234
1455.325, 499.2539
1456.371, 477.6953
1457.417, 423.3633
1458.463, 143.0312
1459.509, 150.6523
1460.555, 138.2539
1461.601, 383.8555
1462.646, 434.4922
1463.691, 279.1211
1464.737, 173.7500
1465.782, 437.3828
1466.826, 13.83203
1467.871, 363.9648
1468.916, 271.5898
1469.960, 67.60938
1471.004, 13.20703
1472.048, 533.0234
1473.092, 122.0469
1474.136, 243.9414
1475.180, 219.8359
1476.223, 35.75000
1477.267, 354.6602
1478.310, 170.6016
1479.353, 44.60547
1480.396, 72.62500
1481.439, 359.6562
1482.481, 368.6953
1483.524, 418.7383
1484.566, 338.7930
1485.608, 52.48438
1486.650, 89.80469
1487.692, 510.1367
1488.734, 11.03906
1489.775, 197.4180
1490.817, 266.8047
1491.858, 58.90234
1492.899, 272.2812
1493.940, 36.67969
1494.981, 224.0977
1496.022, 78.53516
1497.062, 135.0078
1498.103, 324.4688
1499.143, 166.9648
1500.183, 317.4805
1501.223, 257.0195
1502.263, 47.42578
1503.302, 239.1523
1504.342, 310.7461
1505.381, 147.6484
1506.420, 368.0000
1507.459, 195.6680
1508.498, 391.3320
1509.537, 49.00391
1510.576, 190.7695
1511.614, 263.6055
1512.652, 87.48047
1513.691, 96.39453
1514.729, 40.49219
1515.767, 139.6719
1516.804, 254.9570
1517.842, 176.3047
1518.879, 2.292969
1519.917, 369.5352
1520.954, 326.4648
1521.991, 107.9414
1523.028, 3.550781
1524.064, 387.2305
1525.101, 299.9766
1526.137, 140.8047
1527.173, 203.7070
1528.210, 78.69531
1529.245, 249.8359
1530.281, 56.08203
1531.317, 323.4414
1532.352, 68.23047
1533.388, 332.3359
1534.423, 463.5430
1535.458, 506.9375
1536.493, 122.3438
1537.528, 286.1055
1538.562, 207.4609
1539.597, 144.3828
1540.631, 389.7812
1541.665, 66.93359
1542.700, 307.5625
1543.733, 323.3281
1544.767, 442.0742
1545.801, 337.4062
1546.834, 302.4414
1547.868, 490.0703
1548.901, 554.6758
1549.934, 425.3086
1550.967, 551.0469
1551.999, 220.9805
1553.032, 291.3984
1554.064, 535.0117
1555.097, 419.2930
1556.129, 552.8125
1557.161, 592.4531
1558.193, 203.6211
1559.224, 562.0781
1560.256, 598.8398
1561.287, 305.5156
1562.318, 642.6016
1563.350, 398.8555
1564.380, 365.5312
1565.411, 491.8086
1566.442, 362.4609
1567.472, 424.7578
1568.503, 683.3828
1569.533, 3.332031
1570.563, 0.0000000E+00
##END=



