##NAMES=Cassiterite
##RRUFFID=R040017
##IDEAL CHEMISTRY=SnO_2_
##LOCALITY=Bolivia
##OWNER=RRUFF
##SOURCE=University of Arizona Mineral Museum
##DESCRIPTION=Dark brown short prismatic single crystals
##STATUS=The identification of this mineral has been confirmed by X-ray diffraction and chemical analysis
##URL=rruff.info/R040017
##MEASURED CHEMISTRY=Sn_1.00_O_2_; trace amounts of Fe
##PIN_ID=L00125
##ORIENTATION=Laser parallel to -a* (-1 0 0). Fiducial mark perpendicular to laser is parallel to c [0 0 1]
115.016, 0.000
116.409, 69.451
117.802, 0.457
119.195, 161.371
120.587, 68.615
121.980, 222.075
123.372, 279.741
124.764, 58.157
126.155, 38.905
127.546, 58.070
128.938, 86.798
130.329, 33.267
131.719, 71.208
133.110, 90.465
134.500, 130.847
135.890, 242.779
137.280, 285.879
138.669, 334.740
140.059, 433.818
141.448, 438.398
142.837, 433.491
144.225, 539.243
145.614, 545.688
147.002, 422.827
148.390, 840.587
149.778, 628.726
151.166, 716.963
152.553, 955.146
153.940, 1004.767
155.327, 1309.654
156.714, 1163.617
158.100, 1326.078
159.486, 1217.109
160.872, 1456.800
162.258, 1625.632
163.644, 1754.041
165.029, 1752.528
166.414, 1851.488
167.799, 2091.018
169.184, 2001.396
170.568, 2373.298
171.952, 2396.006
173.336, 2459.412
174.720, 2693.334
176.104, 2837.726
177.487, 2989.474
178.870, 3107.739
180.253, 3342.811
181.636, 3486.998
183.018, 3709.812
184.400, 3931.123
185.782, 4120.857
187.164, 4259.002
188.546, 4485.514
189.927, 4455.916
191.308, 4957.975
192.689, 5019.080
194.070, 5537.104
195.450, 5465.583
196.830, 5768.268
198.210, 6009.830
199.590, 6260.932
200.970, 6450.734
202.349, 6501.694
203.728, 6761.344
205.107, 6830.446
206.486, 6930.516
207.864, 7276.852
209.243, 7397.105
210.621, 7439.084
211.998, 7583.836
213.376, 8135.176
214.753, 8240.007
216.130, 8376.974
217.507, 8809.091
218.884, 8878.464
220.261, 9055.951
221.637, 9119.396
223.013, 9276.308
224.389, 9391.851
225.764, 9553.885
227.140, 9550.431
228.515, 9275.314
229.890, 9452.619
231.264, 9378.954
232.639, 9340.311
234.013, 9315.334
235.387, 9027.099
236.761, 8992.332
238.135, 8833.741
239.508, 8755.353
240.881, 8464.480
242.254, 8270.718
243.627, 8010.996
244.999, 7557.121
246.372, 7219.508
247.744, 6823.959
249.116, 6355.385
250.487, 5924.672
251.859, 5460.636
253.230, 5044.652
254.601, 4506.884
255.972, 4087.525
257.342, 3707.281
258.712, 3075.484
260.083, 2731.398
261.452, 2055.531
262.822, 1748.271
264.192, 1208.810
265.561, 877.983
266.930, 633.697
268.299, 774.084
269.667, 116.854
271.036, 255.108
272.404, 208.690
273.772, 62.351
275.139, 906.922
276.507, 1848.678
277.874, 3202.894
279.241, 4406.818
280.608, 5266.328
281.974, 5924.950
283.341, 5892.684
284.707, 5550.315
286.073, 5077.353
287.439, 4563.765
288.804, 3979.902
290.170, 3485.362
291.535, 2950.521
292.899, 2537.709
294.264, 2094.520
295.629, 1826.963
296.993, 1588.298
298.357, 1363.431
299.720, 1101.433
301.084, 1026.365
302.447, 821.010
303.811, 839.357
305.173, 669.408
306.536, 617.154
307.899, 523.592
309.261, 307.714
310.623, 298.509
311.985, 200.973
313.346, 178.096
314.708, 124.876
316.069, 117.309
317.430, 116.390
318.790, 1.115
320.151, 75.441
321.511, 27.387
322.871, 31.951
324.231, 76.139
325.591, 16.910
326.950, 18.586
328.310, 43.514
329.669, 118.828
331.027, 131.551
332.386, 145.687
333.744, 56.248
335.102, 102.214
336.460, 33.604
337.818, 88.402
339.175, 67.624
340.533, 58.268
341.890, 134.333
343.247, 40.841
344.603, 27.769
345.960, 160.107
347.316, 59.886
348.672, 95.073
350.028, 119.669
351.383, 100.675
352.738, 56.079
354.094, 150.885
355.448, 148.166
356.803, 124.088
358.158, 182.931
359.512, 70.287
360.866, 147.971
362.220, 134.001
363.573, 203.369
364.927, 197.092
366.280, 141.166
367.633, 129.573
368.986, 97.308
370.338, 125.367
371.690, 75.782
373.043, 119.557
374.394, 51.709
375.746, 56.767
377.098, 53.862
378.449, 221.562
379.800, 237.865
381.151, 198.746
382.501, 238.214
383.852, 324.281
385.202, 406.920
386.552, 403.077
387.901, 514.715
389.251, 455.896
390.600, 568.640
391.949, 630.957
393.298, 721.837
394.647, 671.287
395.995, 738.325
397.344, 708.939
398.692, 817.143
400.039, 822.922
401.387, 948.293
402.734, 1045.258
404.082, 1118.787
405.429, 1128.935
406.775, 1174.728
408.122, 1250.184
409.468, 1333.366
410.814, 1449.314
412.160, 1595.044
413.506, 1592.566
414.851, 1695.896
416.197, 1724.040
417.542, 1877.007
418.886, 1906.804
420.231, 1916.435
421.575, 1895.904
422.920, 1991.224
424.264, 2141.400
425.607, 2189.292
426.951, 2429.813
428.294, 2571.849
429.637, 2634.441
430.980, 2901.844
432.323, 3070.038
433.666, 3089.632
435.008, 3324.217
436.350, 3369.294
437.692, 3492.793
439.033, 3407.709
440.375, 3368.524
441.716, 3275.242
443.057, 3298.755
444.398, 3284.064
445.738, 3297.174
447.079, 3337.086
448.419, 3448.802
449.759, 3501.324
451.099, 3650.668
452.438, 3778.855
453.777, 3763.879
455.116, 3935.788
456.455, 4103.560
457.794, 4125.205
459.132, 4160.935
460.471, 4348.586
461.809, 4303.000
463.147, 4459.971
464.484, 4593.945
465.822, 4814.867
467.159, 4916.942
468.496, 5137.600
469.832, 5447.349
471.169, 5915.149
472.505, 6502.743
473.842, 7178.989
475.177, 7304.798
476.513, 7389.633
477.849, 6984.196
479.184, 6688.587
480.519, 6698.928
481.854, 6442.228
483.189, 6643.850
484.523, 6815.569
485.857, 6918.479
487.191, 7129.271
488.525, 7377.774
489.859, 7524.627
491.192, 7506.671
492.525, 7667.840
493.858, 7708.061
495.191, 7893.831
496.524, 8046.687
497.856, 8103.795
499.188, 8157.794
500.520, 8292.324
501.852, 8077.769
503.183, 8058.415
504.514, 7864.901
505.846, 7832.181
507.176, 7621.128
508.507, 7576.351
509.838, 7469.356
511.168, 7190.808
512.498, 7153.451
513.828, 7008.899
515.157, 6938.400
516.487, 6478.078
517.816, 6369.285
519.145, 6076.837
520.474, 5771.509
521.802, 5621.355
523.131, 5372.132
524.459, 5268.605
525.787, 5205.527
527.114, 4916.015
528.442, 4877.290
529.769, 4860.656
531.096, 4792.328
532.423, 4837.184
533.750, 4769.365
535.076, 4985.882
536.403, 4946.167
537.729, 5206.403
539.055, 5328.395
540.380, 5400.497
541.706, 5390.756
543.031, 5284.307
544.356, 5147.069
545.681, 4900.506
547.005, 4633.898
548.330, 4507.920
549.654, 4255.667
550.978, 4206.859
552.302, 4142.292
553.625, 4180.081
554.949, 4120.640
556.272, 3852.466
557.595, 3782.155
558.917, 3727.286
560.240, 3566.437
561.562, 3623.104
562.884, 3400.175
564.206, 3407.555
565.528, 3361.979
566.849, 3248.601
568.171, 3241.545
569.492, 3144.311
570.813, 3059.642
572.133, 3005.058
573.454, 2906.476
574.774, 2870.920
576.094, 2810.345
577.414, 2632.751
578.733, 2564.138
580.053, 2693.507
581.372, 2551.859
582.691, 2383.195
584.010, 2529.515
585.328, 2527.820
586.647, 2441.121
587.965, 2435.423
589.283, 2442.733
590.601, 2436.048
591.918, 2416.454
593.235, 2556.987
594.553, 2553.635
595.869, 2506.328
597.186, 2696.024
598.503, 2659.712
599.819, 2819.390
601.135, 2958.058
602.451, 3041.718
603.767, 3206.370
605.082, 3383.017
606.397, 3565.657
607.713, 3685.293
609.027, 3685.531
610.342, 3933.530
611.657, 4071.543
612.971, 4282.135
614.285, 4451.812
615.599, 4593.155
616.912, 5057.826
618.226, 5450.591
619.539, 5731.386
620.852, 6675.825
622.165, 7337.420
623.477, 8600.357
624.790, 9801.957
626.102, 12117.358
627.414, 14539.040
628.726, 18336.877
630.037, 23117.318
631.349, 27194.984
632.660, 30878.107
633.971, 32822.340
635.281, 31273.195
636.592, 28852.195
637.902, 24261.174
639.212, 20180.438
640.522, 16479.525
641.832, 13948.674
643.142, 11738.061
644.451, 10007.313
645.760, 8706.624
647.069, 7926.340
648.378, 7165.853
649.686, 6556.521
650.994, 5998.382
652.303, 5748.649
653.610, 5236.513
654.918, 4898.645
656.226, 4670.125
657.533, 4405.139
658.840, 4207.807
660.147, 4004.806
661.453, 3888.429
662.760, 3808.616
664.066, 3697.212
665.372, 3580.388
666.678, 3492.601
667.984, 3540.605
669.289, 3377.385
670.594, 3298.621
671.899, 3468.867
673.204, 3304.362
674.509, 3339.839
675.813, 3419.829
677.117, 3534.440
678.421, 3581.040
679.725, 3589.971
681.029, 3815.968
682.332, 3783.053
683.635, 4041.070
684.938, 4293.160
686.241, 4421.350
687.544, 4613.625
688.846, 4975.994
690.148, 5008.445
691.450, 5430.988
692.752, 5633.606
694.054, 5896.276
695.355, 5979.001
696.656, 5781.773
697.957, 5514.593
699.258, 5147.458
700.559, 4500.372
701.859, 3923.327
703.159, 3259.324
704.459, 2799.361
705.759, 2524.434
707.058, 2261.546
708.358, 2100.694
709.657, 1947.878
710.956, 2045.096
712.254, 1849.347
713.553, 1920.631
714.851, 2018.950
716.149, 1975.299
717.447, 1990.681
718.745, 1984.091
720.043, 2027.529
721.340, 1940.992
722.637, 1855.480
723.934, 1833.994
725.231, 1692.531
726.527, 1660.089
727.823, 1743.666
729.120, 1548.260
730.415, 1630.870
731.711, 1612.496
733.007, 1483.139
734.302, 1546.797
735.597, 1441.471
736.892, 1440.160
738.187, 1393.866
739.481, 1334.591
740.775, 1319.332
742.070, 1264.089
743.363, 1221.861
744.657, 1232.647
745.951, 1114.450
747.244, 1057.267
748.537, 971.100
749.830, 943.944
751.123, 855.803
752.415, 818.674
753.707, 854.558
754.999, 686.455
756.291, 710.364
757.583, 493.285
758.874, 428.219
760.166, 290.177
761.457, 319.146
762.748, 161.128
764.038, 62.877
765.329, 153.899
766.619, 95.979
767.909, 247.089
769.199, 212.304
770.489, 238.608
771.778, 291.016
773.067, 258.555
774.357, 223.211
775.645, 280.963
776.934, 232.846
778.223, 252.835
779.511, 228.941
780.799, 288.154
782.087, 226.502
783.374, 158.957
784.662, 201.485
785.949, 152.108
787.236, 68.805
788.523, 87.534
789.810, 21.307
791.096, 98.906
792.383, 148.126
793.669, 61.354
794.955, 257.588
796.240, 231.828
797.526, 70.074
798.811, 151.326
800.096, 149.585
801.381, 34.851
802.666, 102.119
803.950, 7.390
805.234, 13.349
806.518, 24.891
807.802, 114.874
809.086, 9.709
810.370, 5.433
811.653, 57.440
812.936, 24.641
814.219, 29.288
815.502, 13.750
816.784, 27.771
818.066, 98.782
819.348, 10.791
820.630, 12.780
821.912, 68.750
823.194, 7.714
824.475, 21.655
825.756, 75.578
827.037, 54.495
828.318, 71.402
829.598, 18.303
830.878, 9.180
832.158, 12.028
833.438, 29.848
834.718, 68.646
835.998, 73.435
837.277, 117.211
838.556, 126.979
839.835, 200.739
841.114, 280.488
842.392, 282.228
843.671, 448.957
844.949, 516.675
846.227, 590.382
847.504, 750.077
848.782, 806.761
850.059, 882.432
851.337, 977.090
852.613, 863.735
853.890, 868.368
855.167, 857.987
856.443, 851.593
857.719, 933.185
858.995, 939.763
860.271, 982.327
861.547, 991.876
862.822, 1026.411
864.097, 1039.931
865.372, 1004.436
866.647, 925.925
867.922, 983.400
869.196, 823.859
870.470, 901.302
871.744, 754.729
873.018, 875.141
874.292, 769.540
875.565, 768.922
876.838, 736.288
878.111, 795.649
879.384, 691.001
880.657, 716.329
881.929, 607.648
883.201, 510.951
884.473, 629.236
885.745, 489.508
887.017, 480.762
888.288, 425.003
889.559, 370.226
890.831, 390.432
892.101, 336.542
893.372, 395.711
894.643, 384.870
895.913, 377.012
897.183, 280.136
898.453, 321.257
899.722, 247.378
900.992, 238.485
902.261, 227.586
903.530, 319.669
904.799, 228.736
906.068, 202.799
907.336, 362.844
908.605, 261.874
909.873, 258.901
911.141, 271.918
912.408, 249.448
913.676, 287.432
914.943, 300.395
916.211, 320.419
917.477, 257.738
918.744, 249.288
920.011, 337.891
921.277, 296.804
922.543, 374.609
923.809, 249.731
925.075, 252.523
926.341, 309.187
927.606, 284.201
928.871, 287.176
930.136, 268.989
931.401, 238.467
932.666, 251.280
933.930, 226.165
935.194, 196.675
936.458, 210.303
937.722, 209.452
938.986, 201.498
940.249, 207.653
941.512, 250.946
942.776, 273.663
944.038, 312.269
945.301, 305.960
946.564, 410.392
947.826, 340.033
949.088, 514.667
950.350, 445.108
951.611, 421.367
952.873, 475.978
954.134, 499.244
955.395, 504.784
956.656, 505.258
957.917, 484.629
959.178, 626.695
960.438, 609.236
961.698, 770.593
962.958, 630.672
964.218, 682.299
965.477, 760.116
966.737, 776.143
967.996, 841.406
969.255, 863.042
970.514, 855.611
971.772, 892.563
973.031, 957.555
974.289, 955.902
975.547, 900.443
976.805, 905.677
978.062, 829.974
979.320, 762.124
980.577, 652.391
981.834, 677.238
983.091, 545.571
984.348, 561.995
985.604, 418.187
986.861, 443.407
988.117, 321.653
989.373, 282.078
990.628, 246.524
991.884, 310.968
993.139, 189.408
994.394, 280.845
995.649, 179.279
996.904, 174.711
998.158, 211.139
999.413, 153.565
1000.667, 167.989
1001.921, 161.410
1003.175, 82.830
1004.428, 184.247
1005.682, 125.661
1006.935, 84.074
1008.188, 173.484
1009.441, 89.893
1010.693, 146.299
1011.946, 127.705
1013.198, 72.108
1014.450, 154.509
1015.702, 134.909
1016.954, 70.308
1018.205, 146.705
1019.457, 93.101
1020.708, 132.496
1021.959, 88.890
1023.209, 81.283
1024.460, 184.396
1025.710, 67.787
1026.960, 99.177
1028.210, 93.526
1029.460, 2.916
1030.710, 113.315
1031.959, 101.506
1033.208, 83.894
1034.457, 55.280
1035.706, 57.973
1036.955, 165.818
1038.203, 96.079
1039.451, 44.464
1040.699, 142.849
1041.947, 25.766
1043.195, 68.610
1044.442, 69.418
1045.690, 22.375
1046.937, 112.751
1048.184, 39.601
1049.430, 67.490
1050.677, 69.490
1051.923, 70.863
1053.169, 47.282
1054.415, 47.201
1055.661, 17.134
1056.907, 53.627
1058.152, 12.923
1059.397, 35.898
1060.642, 4.430
1061.887, 53.639
1063.132, 91.153
1064.376, 10.509
1065.620, 3.135
1066.864, 51.325
1068.108, 22.075
1069.352, 3.521
1070.595, 36.902
1071.839, 33.386
1073.082, 32.920
1074.325, 0.511
1075.567, 12.175
1076.810, 12.098
1078.052, 11.681
1079.294, 16.531
1080.536, 4.053
1081.778, 9.414
1083.020, 17.554
1084.261, 18.548
1085.502, 0.291
1086.743, 6.087
1087.984, 7.167
1089.225, 93.464
1090.465, 7.783
1091.706, 12.129
1092.946, 85.488
1094.186, 1.151
1095.425, 84.209
1096.665, 86.573
1097.904, 42.938
1099.143, 36.304
1100.382, 16.326
1101.621, 52.038
1102.859, 75.404
1104.098, 71.773
1105.336, 144.145
1106.574, 143.525
1107.812, 138.920
1109.049, 167.320
1110.287, 134.760
1111.524, 112.213
1112.761, 209.678
1113.998, 106.167
1115.235, 183.666
1116.471, 110.183
1117.707, 233.712
1118.944, 214.249
1120.180, 183.789
1121.415, 292.341
1122.651, 333.908
1123.886, 251.478
1125.121, 386.071
1126.356, 312.675
1127.591, 391.284
1128.826, 404.904
1130.060, 437.529
1131.294, 466.169
1132.528, 514.833
1133.762, 468.518
1134.996, 524.217
1136.229, 492.937
1137.463, 415.662
1138.696, 453.398
1139.929, 333.159
1141.162, 404.927
1142.394, 267.708
1143.626, 273.497
1144.859, 361.293
1146.091, 260.108
1147.322, 283.927
1148.554, 259.751
1149.785, 271.582
1151.017, 311.420
1152.248, 247.262
1153.479, 186.109
1154.709, 231.958
1155.940, 209.812
1157.170, 185.670
1158.400, 186.532
1159.630, 144.135
1160.860, 130.169
1162.089, 77.136
1163.319, 102.011
1164.548, 84.888
1165.777, 111.767
1167.006, 25.651
1168.234, 51.538
1169.463, 54.428
1170.691, 96.322
1171.919, 7.782
1173.147, 56.110
1174.375, 70.003
1175.602, 45.100
1176.830, 59.772
1178.057, 17.642
1179.284, 24.480
1180.511, 33.383
1181.737, 31.249
1182.963, 5.883
1184.190, 42.980
1185.416, 7.155
1186.642, 69.703
1187.867, 32.563
1189.093, 45.423
1190.318, 66.361
1191.543, 15.776
1192.768, 0.927
1193.993, 71.917
1195.217, 49.238
1196.442, 61.425
1197.666, 4.647
1198.890, 40.880
1200.114, 19.862
1201.337, 1.603
1202.561, 48.663
1203.784, 17.040
1205.007, 4.104
1206.230, 48.413
1207.452, 24.755
1208.675, 2.883
1209.897, 3.984
1211.119, 35.608
1212.341, 38.231
1213.563, 19.771
1214.785, 44.611
1216.006, 45.975
1217.227, 115.469
1218.448, 38.049
1219.669, 118.627
1220.890, 135.202
1222.110, 161.754
1223.330, 208.321
1224.551, 134.491
1225.771, 124.048
1226.990, 227.599
1228.210, 162.145
1229.429, 155.684
1230.648, 173.583
1231.867, 198.111
1233.086, 175.932
1234.305, 182.148
1235.523, 150.488
1236.741, 175.990
1237.960, 184.491
1239.177, 217.991
1240.395, 187.490
1241.613, 177.952
1242.830, 292.449
1244.047, 186.944
1245.264, 260.438
1246.481, 285.930
1247.697, 229.782
1248.914, 308.272
1250.130, 287.761
1251.346, 255.248
1252.562, 332.734
1253.778, 314.219
1254.993, 332.701
1256.209, 385.181
1257.424, 378.660
1258.639, 371.135
1259.853, 311.608
1261.068, 332.306
1262.282, 350.575
1263.497, 325.592
1264.711, 349.380
1265.924, 377.837
1267.138, 368.440
1268.352, 356.620
1269.565, 373.163
1270.778, 364.986
1271.991, 427.706
1273.204, 397.392
1274.416, 347.422
1275.629, 402.222
1276.841, 341.342
1278.053, 376.270
1279.265, 415.476
1280.476, 407.664
1281.688, 426.316
1282.899, 336.871
1284.110, 340.202
1285.321, 406.081
1286.532, 457.285
1287.743, 490.405
1288.953, 462.707
1290.163, 484.675
1291.373, 457.482
1292.583, 473.267
1293.793, 443.430
1295.002, 442.567
1296.211, 439.104
1297.421, 441.728
1298.629, 441.596
1299.838, 455.719
1301.047, 484.941
1302.255, 482.583
1303.463, 443.985
1304.671, 435.634
1305.879, 402.228
1307.087, 438.501
1308.294, 478.965
1309.502, 414.231
1310.709, 422.738
1311.916, 354.361
1313.122, 313.616
1314.329, 378.229
1315.535, 434.734
1316.741, 284.978
1317.948, 380.500
1319.153, 273.735
1320.359, 204.967
1321.564, 389.313
1322.770, 212.528
1323.975, 304.726
1325.180, 209.117
1326.385, 195.278
1327.589, 291.546
1328.794, 242.014
1329.998, 193.071
1331.202, 234.183
1332.406, 215.134
1333.609, 248.992
1334.813, 211.877
1336.016, 178.593
1337.219, 245.843
1338.422, 249.112
1339.625, 179.716
1340.827, 229.817
1342.030, 171.180
1343.232, 139.829
1344.434, 267.445
1345.636, 219.859
1346.838, 210.739
1348.039, 280.564
1349.240, 91.799
1350.442, 223.197
1351.643, 196.949
1352.843, 174.034
1354.044, 240.677
1355.244, 274.406
1356.445, 214.531
1357.645, 295.653
1358.845, 262.604
1360.044, 267.239
1361.244, 259.245
1362.443, 268.190
1363.642, 294.478
1364.841, 319.978
1366.040, 368.818
1367.239, 383.625
1368.437, 443.503
1369.635, 403.250
1370.833, 498.964
1372.031, 447.651
1373.229, 545.312
1374.427, 592.356
1375.624, 467.962
1376.821, 634.546
1378.018, 514.239
1379.215, 545.240
1380.412, 603.521
1381.608, 513.794
1382.804, 671.062
1384.000, 616.323
1385.196, 441.576
1386.392, 613.830
1387.588, 496.076
1388.783, 441.315
1389.978, 483.547
1391.173, 410.771
1392.368, 336.986
1393.563, 408.190
1394.757, 337.383
1395.952, 313.562
1397.146, 291.716
1398.340, 198.846
1399.534, 253.948
1400.727, 176.020
1401.921, 166.045
1403.114, 177.013
1404.307, 88.919
1405.500, 124.760
1406.692, 78.555
1407.885, 86.288
1409.077, 124.988
1410.270, 109.654
1411.462, 36.294
1412.653, 122.907
1413.845, 10.503
1415.036, 79.062
1416.228, 86.607
1417.419, 2.127
1418.610, 66.623
1419.801, 39.093
1420.991, 12.449
1422.182, 0.994
1423.372, 34.458
1424.562, 40.087
1425.752, 110.351
1426.941, 3.220
1428.131, 59.798
1429.320, 32.608
1430.509, 15.971
1431.698, 26.468
1432.887, 1.991
1434.076, 26.439
1435.264, 64.167
1436.452, 34.550
1437.641, 36.274
1438.828, 16.041
1440.016, 83.827
1441.204, 56.659
1442.391, 159.539
1443.578, 43.444
1444.765, 82.381
1445.952, 135.347
1447.139, 82.350
1448.325, 89.389
1449.512, 173.467
1450.698, 120.594
1451.884, 231.730
1453.070, 110.858
1454.255, 87.976
1455.441, 231.084
1456.626, 90.185
1457.811, 111.274
1458.996, 289.356
1460.181, 174.431
1461.365, 196.500
1462.549, 209.565
1463.734, 158.871
1464.918, 277.613
1466.102, 212.035
1467.285, 198.878
1468.469, 206.690
1469.652, 143.405
1470.835, 147.069
1472.018, 229.271
1473.201, 197.707
1474.383, 245.243
1475.566, 191.311
1476.748, 109.680
1477.930, 152.818
1479.112, 139.712
1480.294, 61.614
1481.475, 182.066
1482.657, 147.583
1483.838, 88.760
1485.019, 132.704
1486.200, 70.137
1487.381, 151.955
1488.561, 113.778
1489.741, 105.886
1490.922, 189.175
1492.101, 161.914
1493.281, 71.665
1494.461, 121.203
1495.640, 107.716
1496.820, 104.993
1497.999, 162.329
1499.178, 61.865
1500.356, 143.723
1501.535, 81.198
1502.713, 58.417
1503.892, 142.899
1505.070, 170.281
1506.247, 86.693
1507.425, 180.326
1508.603, 98.790
1509.780, 27.622
1510.957, 197.154
1512.134, 90.962
1513.311, 122.409
1514.488, 210.203
1515.664, 2.219
1516.840, 151.943
1518.017, 84.256
1519.192, 1.161
1520.368, 0.000
##END=



