##NAMES=Cassiterite
##RRUFFID=R060563
##IDEAL CHEMISTRY=SnO_2_
##LOCALITY=unknown
##OWNER=RRUFF
##SOURCE=Gemological Institute of America
##DESCRIPTION=Dark brown fragment
##STATUS=The identification of this mineral has been confirmed by X-ray diffraction and chemical analysis
##URL=rruff.info/R060563
##MEASURED CHEMISTRY=Sn_1.00_O_2_
##PIN_ID=L01330
##ORIENTATION=Laser parallel to -a* (-1 0 0). Fiducial mark perpendicular to laser is parallel to c [0 0 1]
114.4400, 0.0000000E+00
115.6710, 51.83521
116.9030, 33.05591
118.1340, 38.99915
119.3650, 70.10547
120.5960, 23.80542
121.8270, 122.3607
123.0580, 168.9114
124.2880, 168.6880
125.5190, 46.78638
126.7490, 28.73035
127.9790, 37.54358
129.2090, 51.80237
130.4390, 66.29907
131.6680, 80.47827
132.8980, 101.5044
134.1270, 83.25146
135.3560, 68.76880
136.5850, 54.08789
137.8140, 126.5750
139.0430, 139.1519
140.2710, 116.6898
141.5000, 100.7689
142.7280, 49.23254
143.9560, 38.86084
145.1840, 13.19885
146.4120, 24.08813
147.6390, 77.18628
148.8670, 28.45776
150.0940, 89.57129
151.3210, 98.82678
152.5490, 85.20215
153.7750, 43.75354
155.0020, 66.74866
156.2290, 60.44922
157.4550, 27.17786
158.6810, 34.93018
159.9080, 12.50684
161.1340, 67.34070
162.3590, 89.22314
163.5850, 125.0399
164.8110, 105.8638
166.0360, 151.6927
167.2610, 109.5247
168.4860, 101.3566
169.7110, 97.18591
170.9360, 66.01135
172.1610, 61.83179
173.3850, 68.64661
174.6100, 48.45544
175.8340, 41.27075
177.0580, 18.17188
178.2820, 19.33813
179.5050, 29.86523
180.7290, 10.76208
181.9520, 15.74609
183.1760, 8.685547
184.3990, 16.61060
185.6220, 23.47913
186.8450, 34.28186
188.0670, 54.03857
189.2900, 16.80286
190.5120, 22.57312
191.7340, 47.34680
192.9560, 67.12048
194.1780, 39.89062
195.4000, 57.65503
196.6220, 42.40833
197.8430, 57.14771
199.0640, 99.87195
200.2860, 74.57959
201.5070, 110.7676
202.7270, 177.5457
203.9480, 117.3857
205.1690, 39.91882
206.3890, 39.56506
207.6090, 29.06482
208.8290, 30.58154
210.0490, 10.88074
211.2690, 68.31885
212.4890, 187.7396
213.7080, 175.1458
214.9280, 333.5430
216.1470, 348.5010
217.3660, 336.2827
218.5850, 420.6263
219.8030, 390.9436
221.0220, 414.2355
222.2400, 472.4976
223.4590, 417.7327
224.6770, 418.9507
225.8950, 397.1487
227.1120, 375.3340
228.3300, 384.5098
229.5480, 353.6761
230.7650, 388.8372
231.9820, 362.9929
233.1990, 347.1425
234.4160, 399.2283
235.6330, 387.2546
236.8490, 419.7346
238.0660, 400.3853
239.2820, 415.2423
240.4980, 431.7109
241.7140, 449.6038
242.9300, 497.2714
244.1460, 558.1025
245.3610, 524.4978
246.5770, 592.1473
247.7920, 554.9984
249.0070, 622.6418
250.2220, 586.0486
251.4370, 635.0641
252.6510, 670.2397
253.8660, 694.1169
255.0800, 606.4988
256.2940, 586.8854
257.5080, 679.2837
258.7220, 837.7279
259.9360, 959.1300
261.1490, 827.5562
262.3630, 629.9972
263.5760, 556.4211
264.7890, 645.8151
266.0020, 632.1687
267.2150, 625.4790
268.4270, 568.7461
269.6400, 579.9530
270.8520, 538.1067
272.0640, 447.2104
273.2760, 366.2688
274.4880, 341.2869
275.7000, 215.2581
276.9120, 293.0571
278.1230, 170.8187
279.3340, 147.5558
280.5450, 132.2614
281.7560, 115.9406
282.9670, 129.5438
284.1780, 100.1459
285.3880, 102.7257
286.5980, 76.28809
287.8090, 74.83447
289.0190, 73.28699
290.2290, 30.66479
291.4380, 65.72925
292.6480, 50.04492
293.8570, 99.51709
295.0670, 111.0022
296.2760, 124.0621
297.4850, 140.5120
298.6930, 119.9355
299.9020, 101.1256
301.1110, 153.4830
302.3190, 130.8159
303.5270, 149.8413
304.7350, 157.9719
305.9430, 188.7866
307.1510, 141.9514
308.3580, 162.1570
309.5660, 130.4502
310.7730, 167.7479
311.9800, 157.0505
313.1870, 82.35803
314.3940, 252.6702
315.6010, 194.9875
316.8070, 210.1556
318.0130, 291.3101
319.2200, 286.5428
320.4260, 266.5967
321.6310, 300.5841
322.8370, 272.1887
324.0430, 293.4401
325.2480, 302.6956
326.4540, 305.1390
327.6590, 318.7080
328.8640, 312.6746
330.0680, 274.6678
331.2730, 299.4149
332.4780, 281.3755
333.6820, 266.6309
334.8860, 292.2341
336.0900, 328.9866
337.2940, 269.1917
338.4980, 193.5656
339.7010, 285.6772
340.9050, 240.0132
342.1080, 244.1902
343.3110, 222.5322
344.5140, 211.9302
345.7170, 177.3320
346.9200, 141.7361
348.1220, 188.1345
349.3240, 149.5322
350.5270, 153.6885
351.7290, 127.2036
352.9310, 118.3914
354.1320, 82.49854
355.3340, 83.02686
356.5350, 90.46069
357.7370, 8.901611
358.9380, 32.34351
360.1390, 45.79077
361.3400, 8.755371
362.5400, 27.30371
363.7410, 52.85767
364.9410, 13.57666
366.1410, 80.98535
367.3410, 4.564941
368.5410, 44.14404
369.7410, 42.73120
370.9400, 73.32617
372.1400, 84.93579
373.3390, 54.56226
374.5380, 69.33789
375.7370, 64.84668
376.9360, 34.50659
378.1350, 28.17090
379.3330, 35.16284
380.5310, 42.50708
381.7300, 34.85547
382.9280, 57.21118
384.1260, 46.55176
385.3230, 21.12354
386.5210, 45.16309
387.7180, 14.42407
388.9160, 35.63818
390.1130, 106.8188
391.3100, 4.025146
392.5060, 106.1243
393.7030, 90.28857
394.9000, 71.46899
396.0960, 54.65405
397.2920, 49.85156
398.4880, 37.05933
399.6840, 32.28394
400.8800, 58.52588
402.0750, 91.78540
403.2710, 71.06226
404.4660, 128.3572
405.6610, 129.6614
406.8560, 178.9751
408.0510, 225.2986
409.2450, 196.6323
410.4400, 206.9763
411.6340, 227.3313
412.8280, 272.6973
414.0220, 241.0747
415.2160, 242.4644
416.4100, 222.8665
417.6030, 243.2815
418.7970, 260.7097
419.9900, 293.1514
421.1830, 333.6079
422.3760, 341.0791
423.5690, 308.5657
424.7610, 375.0679
425.9540, 497.5859
427.1460, 659.1204
428.3380, 680.6714
429.5300, 830.2395
430.7220, 928.6948
431.9140, 1047.525
433.1050, 1192.498
434.2970, 1329.540
435.4880, 1258.617
436.6790, 1338.880
437.8700, 1257.932
439.0610, 1146.014
440.2510, 1064.525
441.4420, 981.3962
442.6320, 894.8550
443.8220, 784.7241
445.0120, 732.9597
446.2020, 709.8022
447.3910, 618.6658
448.5810, 634.5498
449.7700, 654.4565
450.9600, 638.3843
452.1490, 688.3330
453.3370, 692.3027
454.5260, 725.2935
455.7150, 665.3059
456.9030, 842.3359
458.0910, 846.3916
459.2800, 940.4688
460.4670, 1148.569
461.6550, 1273.692
462.8430, 1524.838
464.0300, 1911.008
465.2180, 2269.203
466.4050, 2809.423
467.5920, 3302.670
468.7790, 3864.942
469.9650, 4266.243
471.1520, 5019.569
472.3380, 5636.927
473.5250, 6018.309
474.7110, 5783.721
475.8970, 4963.157
477.0820, 4126.621
478.2680, 3364.113
479.4540, 2852.632
480.6390, 2311.178
481.8240, 2125.750
483.0090, 1941.349
484.1940, 1874.974
485.3780, 1983.627
486.5630, 1867.308
487.7470, 2078.015
488.9320, 2052.749
490.1160, 2167.511
491.3000, 2215.301
492.4830, 2383.119
493.6670, 2400.967
494.8500, 2474.861
496.0340, 2590.798
497.2170, 2647.779
498.4000, 2632.794
499.5820, 2626.839
500.7650, 2532.687
501.9480, 2545.386
503.1300, 2261.382
504.3120, 2212.432
505.4940, 2187.516
506.6760, 2062.255
507.8580, 2009.568
509.0390, 1879.808
510.2210, 1806.314
511.4020, 1685.715
512.5830, 1612.243
513.7640, 1427.156
514.9450, 1272.452
516.1250, 1204.489
517.3060, 1087.775
518.4860, 948.3608
519.6660, 797.6523
520.8460, 679.3442
522.0260, 562.8420
523.2060, 529.5059
524.3850, 464.0964
525.5650, 449.8940
526.7440, 507.7261
527.9230, 518.4080
529.1020, 565.0603
530.2810, 669.3608
531.4590, 832.2603
532.6380, 983.2915
533.8160, 1046.939
534.9940, 1105.051
536.1720, 1251.204
537.3500, 1390.397
538.5270, 1321.632
539.7050, 1462.908
540.8820, 1543.218
542.0590, 1360.529
543.2360, 1258.929
544.4130, 1101.370
545.5900, 1043.853
546.7660, 1021.378
547.9430, 946.9453
549.1190, 840.5544
550.2950, 782.2058
551.4710, 721.8997
552.6470, 653.6362
553.8220, 636.4158
554.9980, 566.2415
556.1730, 448.1104
557.3480, 415.0225
558.5230, 298.9775
559.6980, 310.9761
560.8730, 270.0183
562.0470, 193.1042
563.2220, 201.2336
564.3960, 169.4070
565.5700, 118.6245
566.7440, 38.88623
567.9170, 94.19189
569.0910, 19.54199
570.2640, 5.936279
571.4380, 3.375000
572.6110, 80.14209
573.7840, 109.6357
574.9570, 84.11572
576.1290, 88.56885
577.3020, 148.0002
578.4740, 80.42944
579.6460, 154.8354
580.8180, 92.24414
581.9900, 101.6328
583.1620, 62.00439
584.3330, 45.34644
585.5040, 20.65356
586.6760, 51.07983
587.8470, 64.85864
589.0180, 133.6836
590.1880, 200.7163
591.3590, 289.4709
592.5290, 360.4336
593.7000, 478.4426
594.8700, 583.4973
596.0400, 604.5984
597.2090, 718.7458
598.3790, 971.9395
599.5490, 1016.180
600.7180, 1182.466
601.8870, 1395.799
603.0560, 1488.179
604.2250, 1754.605
605.3940, 1977.079
606.5620, 2295.598
607.7300, 2512.164
608.8990, 2879.777
610.0670, 3137.437
611.2350, 3632.144
612.4020, 4089.897
613.5700, 4771.698
614.7370, 5381.546
615.9050, 6262.439
617.0720, 7448.439
618.2390, 8918.428
619.4060, 10520.46
620.5720, 12900.54
621.7390, 15740.68
622.9050, 19704.86
624.0710, 24165.10
625.2370, 30000.40
626.4030, 35556.76
627.5690, 41077.19
628.7340, 46583.68
629.9000, 51264.25
631.0650, 54446.90
632.2300, 55998.62
633.3950, 54569.42
634.5600, 50417.29
635.7240, 43796.23
636.8890, 37217.25
638.0530, 30601.34
639.2170, 25064.50
640.3810, 20158.74
641.5450, 16511.05
642.7080, 13647.44
643.8720, 11386.88
645.0350, 9628.403
646.1980, 8241.001
647.3610, 7147.677
648.5240, 6379.417
649.6870, 5598.240
650.8490, 5003.132
652.0120, 4513.092
653.1740, 4035.134
654.3360, 3705.265
655.4980, 3371.212
656.6600, 3206.782
657.8210, 2897.152
658.9830, 2781.599
660.1440, 2642.111
661.3050, 2435.690
662.4660, 2384.324
663.6270, 2196.009
664.7870, 2138.743
665.9480, 2113.531
667.1080, 2032.371
668.2680, 2060.271
669.4280, 2081.218
670.5880, 2077.214
671.7480, 1944.257
672.9070, 2003.344
674.0670, 2018.481
675.2260, 1955.662
676.3850, 2048.887
677.5440, 2052.156
678.7030, 2190.468
679.8610, 2226.823
681.0200, 2327.221
682.1780, 2267.662
683.3360, 2421.146
684.4940, 2562.674
685.6520, 2773.243
686.8090, 2783.854
687.9670, 2980.507
689.1240, 3075.202
690.2810, 3284.938
691.4380, 3355.717
692.5950, 3413.556
693.7520, 3371.031
694.9080, 3313.932
696.0650, 3129.874
697.2210, 2819.856
698.3770, 2505.879
699.5330, 2178.940
700.6880, 1802.043
701.8440, 1510.185
702.9990, 1284.366
704.1550, 946.5859
705.3100, 894.8452
706.4650, 822.1431
707.6190, 679.4797
708.7740, 729.8542
709.9290, 573.2671
711.0830, 622.7061
712.2370, 673.8115
713.3910, 739.8140
714.5450, 680.8635
715.6980, 707.7932
716.8520, 713.3425
718.0050, 662.6750
719.1580, 687.0361
720.3110, 691.0222
721.4640, 559.7051
722.6170, 554.8853
723.7700, 506.6541
724.9220, 527.1416
726.0740, 488.0786
727.2260, 411.0525
728.3780, 381.0623
729.5300, 319.1084
730.6810, 298.1902
731.8330, 366.3079
732.9840, 348.4609
734.1350, 325.6489
735.2860, 327.8721
736.4370, 266.1296
737.5880, 324.4214
738.7380, 251.7471
739.8880, 163.1067
741.0390, 141.4998
742.1890, 179.9263
743.3380, 157.3853
744.4880, 128.8772
745.6380, 140.4016
746.7870, 139.9583
747.9360, 114.5464
749.0850, 75.16626
750.2340, 36.81738
751.3830, 74.49951
752.5310, 43.21240
753.6800, 43.95581
754.8280, 6.270752
755.9760, 28.53149
757.1240, 50.36328
758.2720, 71.22461
759.4190, 155.2698
760.5670, 166.7344
761.7140, 193.4048
762.8610, 326.7712
764.0080, 507.2249
765.1550, 741.7622
766.3020, 1007.060
767.4480, 1279.717
768.5950, 1573.394
769.7410, 1905.146
770.8870, 2191.626
772.0330, 2414.878
773.1780, 2618.610
774.3240, 2694.872
775.4690, 2717.361
776.6140, 2568.195
777.7590, 2410.579
778.9040, 2137.634
780.0490, 1905.410
781.1940, 1636.224
782.3380, 1409.652
783.4820, 1110.130
784.6260, 910.7869
785.7700, 822.9041
786.9140, 739.7358
788.0580, 623.7664
789.2010, 499.7427
790.3450, 488.9719
791.4880, 416.7251
792.6310, 396.2422
793.7730, 365.8843
794.9160, 323.3372
796.0590, 303.1367
797.2010, 262.8362
798.3430, 271.3237
799.4850, 244.7117
800.6270, 193.6450
801.7690, 257.8572
802.9100, 237.2449
804.0520, 182.8679
805.1930, 189.0073
806.3340, 170.0386
807.4750, 144.3157
808.6160, 179.3335
809.7560, 202.0300
810.8970, 241.7351
812.0370, 222.4482
813.1770, 205.1697
814.3170, 197.8977
815.4570, 206.6328
816.5960, 148.3743
817.7360, 128.1201
818.8750, 93.86963
820.0140, 126.6228
821.1530, 119.3804
822.2920, 109.1406
823.4310, 109.9031
824.5690, 83.66895
825.7070, 68.43628
826.8460, 91.20483
827.9840, 38.97412
829.1220, 0.7446290
830.2590, 24.48560
831.3970, 70.27734
832.5340, 31.03931
833.6710, 83.80029
834.8080, 84.55957
835.9450, 140.3170
837.0820, 173.9642
838.2190, 217.8245
839.3550, 252.5741
840.4910, 340.3203
841.6270, 377.0631
842.7630, 425.8019
843.8990, 559.5365
845.0350, 548.2664
846.1700, 664.9917
847.3060, 718.7119
848.4410, 725.4271
849.5760, 695.1473
850.7100, 800.8777
851.8450, 760.6133
852.9800, 796.3541
854.1140, 761.1108
855.2480, 785.8711
856.3820, 787.6475
857.5160, 767.4995
858.6500, 775.2864
859.7830, 884.0723
860.9170, 835.8552
862.0500, 889.6306
863.1830, 804.3967
864.3160, 781.1528
865.4480, 780.8987
866.5810, 762.6340
867.7130, 695.3586
868.8460, 642.0950
869.9780, 626.2366
871.1100, 671.4867
872.2410, 584.1644
873.3730, 574.8298
874.5050, 552.4827
875.6360, 465.1223
876.7670, 473.7485
877.8980, 458.3612
879.0290, 462.9597
880.1590, 338.5442
881.2900, 341.1140
882.4200, 248.6689
883.5500, 255.2089
884.6800, 196.7332
885.8100, 228.2418
886.9400, 202.7344
888.0690, 100.2107
889.1990, 126.6703
890.3280, 167.1130
891.4570, 82.48022
892.5860, 83.88831
893.7140, 76.27856
894.8430, 36.65076
895.9710, 1.997559
897.1000, 19.68018
898.2280, 2.592651
899.3560, 29.16809
900.4830, 44.97974
901.6110, 7.851563
902.7380, 107.7648
903.8660, 90.77258
904.9930, 42.86646
906.1200, 85.02209
907.2460, 48.26282
908.3730, 86.56946
909.5000, 61.96313
910.6260, 64.43103
911.7520, 36.97534
912.8780, 60.58191
914.0040, 70.23291
915.1290, 32.90491
916.2550, 16.62500
917.3800, 9.504150
918.5050, 25.29797
919.6300, 11.30505
920.7550, 1.802124
921.8800, 3.693115
923.0040, 1.412964
924.1290, 24.78247
925.2530, 15.98462
926.3770, 23.47583
927.5010, 18.86157
928.6250, 13.44299
929.7480, 39.69824
930.8720, 18.99097
931.9950, 45.45581
933.1180, 21.50623
934.2410, 26.30066
935.3640, 42.17725
936.4860, 79.60449
937.6090, 30.86597
938.7310, 25.53955
939.8530, 91.96326
940.9750, 80.06592
942.0970, 111.8622
943.2180, 108.9637
944.3400, 160.8093
945.4610, 182.6738
946.5820, 165.5165
947.7030, 196.4491
948.8240, 184.0377
949.9450, 264.7375
951.0650, 276.3983
952.1860, 263.5850
953.3060, 309.7019
954.4260, 315.3274
955.5460, 338.7784
956.6650, 365.1595
957.7850, 392.1725
958.9040, 430.3730
960.0230, 466.2333
961.1420, 500.0941
962.2610, 504.8638
963.3800, 568.8394
964.4990, 571.4440
965.6170, 630.5720
966.7350, 630.1730
967.8530, 664.7703
968.9710, 755.2651
970.0890, 712.7295
971.2070, 744.1628
972.3240, 685.5651
973.4410, 727.9360
974.5580, 721.2761
975.6750, 663.5850
976.7920, 712.8623
977.9090, 602.1082
979.0250, 565.3228
980.1410, 529.5057
981.2580, 501.6570
982.3740, 498.7767
983.4890, 419.8646
984.6050, 372.9208
985.7200, 366.9449
986.8360, 363.9370
987.9510, 302.8967
989.0660, 282.8242
990.1810, 292.7192
991.2950, 210.5815
992.4100, 238.4105
993.5240, 271.2064
994.6390, 234.9697
995.7530, 256.7000
996.8660, 269.3970
997.9800, 253.0612
999.0940, 273.6920
1000.207, 252.2898
1001.320, 266.8545
1002.433, 233.3859
1003.546, 323.8839
1004.659, 265.3486
1005.772, 301.7800
1006.884, 261.1780
1007.996, 327.5427
1009.108, 295.8743
1010.220, 294.1725
1011.332, 267.4371
1012.444, 265.6718
1013.555, 302.8667
1014.666, 277.0314
1015.777, 283.1626
1016.888, 318.2606
1017.999, 324.3253
1019.110, 285.3564
1020.220, 295.3542
1021.331, 318.3188
1022.441, 329.2500
1023.551, 344.1482
1024.661, 325.0129
1025.770, 291.8452
1026.880, 341.6440
1027.989, 355.4102
1029.098, 327.9880
1030.207, 349.1422
1031.316, 349.0867
1032.425, 319.3297
1033.533, 340.4811
1034.642, 337.8412
1035.750, 367.8398
1036.858, 358.7714
1037.966, 361.8046
1039.073, 376.6504
1040.181, 338.7402
1041.288, 306.1038
1042.396, 337.9418
1043.503, 310.3308
1044.610, 247.5012
1045.716, 212.3361
1046.823, 180.6265
1047.929, 160.2124
1049.036, 153.0946
1050.142, 212.7905
1051.248, 139.8524
1052.353, 140.9722
1053.459, 87.79065
1054.564, 65.33923
1055.670, 41.95190
1056.775, 64.54358
1057.880, 75.14429
1058.985, 41.35522
1060.089, 27.28528
1061.194, 41.57800
1062.298, 40.46252
1063.402, 37.13440
1064.506, 22.13330
1065.610, 48.06921
1066.713, 13.28101
1067.817, 56.28320
1068.920, 9.106445
1070.023, 24.07324
1071.126, 6.222046
1072.229, 12.91406
1073.332, 28.75159
1074.435, 47.79614
1075.537, 24.49207
1076.639, 39.98755
1077.741, 35.82153
1078.843, 34.85767
1079.945, 28.06177
1081.046, 50.55786
1082.148, 39.03113
1083.249, 39.36377
1084.350, 85.67542
1085.451, 94.86584
1086.551, 97.03284
1087.652, 46.17627
1088.752, 112.2933
1089.853, 89.38757
1090.953, 59.45850
1092.053, 110.5065
1093.152, 102.5322
1094.252, 116.5354
1095.351, 69.51697
1096.451, 135.4749
1097.550, 99.41199
1098.649, 125.3307
1099.748, 118.2283
1100.846, 139.1051
1101.945, 151.9614
1103.043, 167.7976
1104.141, 185.4377
1105.239, 204.4102
1106.337, 216.1865
1107.434, 213.9434
1108.532, 222.1476
1109.629, 208.3984
1110.726, 243.0968
1111.823, 228.7761
1112.920, 248.4363
1114.017, 312.0776
1115.113, 311.7002
1116.210, 293.3042
1117.306, 363.8894
1118.402, 405.4563
1119.498, 335.0049
1120.593, 373.5353
1121.689, 403.0477
1122.784, 417.5422
1123.879, 430.9478
1124.974, 420.4070
1126.069, 450.8484
1127.164, 478.2727
1128.259, 465.6798
1129.353, 485.0698
1130.447, 514.4429
1131.541, 442.7990
1132.635, 461.1384
1133.729, 472.4615
1134.822, 424.7450
1135.916, 451.0355
1137.009, 438.3097
1138.102, 407.5680
1139.195, 378.8104
1140.288, 365.0374
1141.380, 376.2485
1142.473, 361.4445
1143.565, 361.6251
1144.657, 306.7905
1145.749, 324.9410
1146.841, 280.0768
1147.932, 314.1978
1149.024, 248.3043
1150.115, 228.3965
1151.206, 277.4808
1152.297, 299.5513
1153.388, 269.6205
1154.479, 251.6801
1155.569, 237.7875
1156.659, 187.7800
1157.750, 194.8225
1158.839, 163.8575
1159.929, 155.8921
1161.019, 130.9264
1162.108, 111.9612
1163.198, 141.0038
1164.287, 102.0491
1165.376, 96.09998
1166.465, 134.1609
1167.553, 82.22424
1168.642, 48.31543
1169.730, 72.42664
1170.818, 95.54651
1171.906, 63.69836
1172.994, 71.86084
1174.082, 50.04480
1175.170, 45.63477
1176.257, 40.46301
1177.344, 36.69580
1178.431, 41.90808
1179.518, 35.07776
1180.605, 67.24207
1181.691, 73.51599
1182.778, 40.65723
1183.864, 66.82507
1184.950, 17.70251
1186.036, 78.40649
1187.122, 19.84070
1188.207, 26.57886
1189.292, 55.41174
1190.378, 3.917969
1191.463, 3.735474
1192.548, 20.86633
1193.632, 47.52673
1194.717, 18.98938
1195.801, 0.7106930
1196.886, 28.03699
1197.970, 10.15906
1199.054, 0.4091800
1200.137, 50.25171
1201.221, 52.97961
1202.305, 18.82336
1203.388, 29.16760
1204.471, 0.8825680
1205.554, 8.330078
1206.637, 23.12158
1207.719, 20.30029
1208.802, 38.66833
1209.884, 14.97668
1210.966, 0.2495120
1212.048, 0.2161870
1213.130, 19.26770
1214.212, 16.65906
1215.293, 65.48950
1216.374, 59.35498
1217.456, 39.22632
1218.536, 86.70715
1219.617, 138.6362
1220.698, 74.46680
1221.778, 77.46936
1222.859, 124.3833
1223.939, 104.2615
1225.019, 89.19617
1226.099, 104.8903
1227.178, 103.9005
1228.258, 102.7584
1229.337, 100.7231
1230.417, 110.4758
1231.496, 100.6581
1232.574, 135.6556
1233.653, 120.6497
1234.732, 138.6399
1235.810, 143.6270
1236.888, 110.6105
1237.966, 114.5908
1239.044, 117.7968
1240.122, 115.5674
1241.199, 141.5117
1242.277, 127.4788
1243.354, 150.4425
1244.431, 144.4028
1245.508, 179.3597
1246.585, 218.3136
1247.661, 169.2642
1248.738, 197.2115
1249.814, 189.1559
1250.890, 177.2612
1251.966, 214.0356
1253.042, 181.9712
1254.117, 198.9043
1255.193, 232.8347
1256.268, 273.7627
1257.343, 248.6882
1258.418, 263.6113
1259.493, 250.5321
1260.567, 218.4508
1261.642, 278.3673
1262.716, 270.2816
1263.790, 254.1942
1264.864, 254.1047
1265.938, 292.0137
1267.011, 287.9209
1268.085, 298.8265
1269.158, 302.7306
1270.231, 327.6332
1271.304, 265.5343
1272.377, 316.4341
1273.450, 291.3328
1274.522, 311.2303
1275.594, 313.1266
1276.666, 293.0220
1277.738, 279.9165
1278.810, 290.8098
1279.882, 291.1205
1280.953, 296.0193
1282.025, 348.7295
1283.096, 353.5259
1284.167, 365.3448
1285.238, 375.4175
1286.308, 322.4154
1287.379, 364.5394
1288.449, 334.3169
1289.519, 310.8335
1290.589, 399.8400
1291.659, 355.4486
1292.729, 378.1040
1293.798, 381.4078
1294.868, 380.6650
1295.937, 365.4022
1297.006, 349.7322
1298.075, 347.4875
1299.143, 333.3468
1300.212, 399.8159
1301.280, 384.6449
1302.348, 383.5107
1303.416, 379.5129
1304.484, 383.2744
1305.552, 374.0170
1306.620, 358.8049
1307.687, 336.5590
1308.754, 327.2874
1309.821, 328.1534
1310.888, 323.0319
1311.955, 258.7931
1313.021, 274.6677
1314.088, 254.3423
1315.154, 208.2286
1316.220, 233.9280
1317.286, 236.6658
1318.352, 204.5314
1319.417, 212.1449
1320.483, 164.6219
1321.548, 142.3722
1322.613, 161.2067
1323.678, 122.9612
1324.743, 116.5608
1325.807, 81.64429
1326.872, 93.89868
1327.936, 98.54712
1329.000, 91.33240
1330.064, 82.95886
1331.128, 114.7915
1332.191, 90.94653
1333.255, 57.66016
1334.318, 77.11499
1335.381, 79.68677
1336.444, 95.56689
1337.507, 54.53247
1338.569, 61.64966
1339.632, 48.45020
1340.694, 3.250244
1341.756, 43.16711
1342.818, 39.08142
1343.880, 28.09558
1344.941, 36.11218
1346.003, 43.13147
1347.064, 34.15515
1348.125, 17.18103
1349.186, 3.789917
1350.247, 82.24084
1351.308, 32.27454
1352.368, 54.77808
1353.428, 83.62744
1354.489, 33.39355
1355.549, 124.4395
1356.608, 76.48877
1357.668, 91.54114
1358.727, 42.59656
1359.787, 48.65479
1360.846, 92.71619
1361.905, 99.78088
1362.964, 113.8486
1364.022, 138.9198
1365.081, 152.9475
1366.139, 183.0267
1367.197, 194.0516
1368.255, 224.0544
1369.313, 246.0209
1370.371, 247.9689
1371.428, 256.9023
1372.486, 333.8281
1373.543, 336.7520
1374.600, 279.6581
1375.657, 334.5662
1376.713, 293.4663
1377.770, 291.3672
1378.826, 330.2701
1379.882, 315.1749
1380.938, 342.0817
1381.994, 314.9902
1383.050, 264.9006
1384.106, 306.8129
1385.161, 298.7268
1386.216, 243.6423
1387.271, 248.5596
1388.326, 185.4785
1389.381, 193.3992
1390.435, 167.3217
1391.490, 135.2458
1392.544, 174.1720
1393.598, 120.0997
1394.652, 107.0294
1395.705, 96.96082
1396.759, 112.8942
1397.812, 78.80896
1398.866, 19.76562
1399.919, 38.70410
1400.972, 16.64404
1402.024, 24.58569
1403.077, 5.528687
1404.129, 36.47314
1405.181, 6.418701
1406.233, 28.63452
1407.285, 3.307617
1408.337, 53.74768
1409.389, 18.81067
1410.440, 38.87207
1411.491, 20.93555
1412.542, 45.99634
1413.593, 26.05933
1414.644, 56.11963
1415.695, 52.18408
1416.745, 24.25110
1417.795, 36.31348
1418.845, 37.37341
1419.895, 9.430420
1420.945, 8.478027
1421.995, 19.51538
1423.044, 10.54346
1424.093, 3.440430
1425.142, 14.44031
1426.191, 53.54297
1427.240, 17.48035
1428.289, 26.52393
1429.337, 28.41052
1430.385, 34.67322
1431.433, 53.78271
1432.481, 1.079834
1433.529, 76.08765
1434.577, 103.2882
1435.624, 65.52527
1436.672, 61.80176
1437.719, 85.12195
1438.766, 115.4912
1439.812, 108.9147
1440.859, 87.40027
1441.905, 154.9552
1442.952, 152.2236
1443.998, 93.95264
1445.044, 171.7913
1446.090, 170.5345
1447.135, 214.2024
1448.181, 242.3523
1449.226, 221.5234
1450.271, 187.7216
1451.316, 271.9452
1452.361, 249.2194
1453.405, 267.5184
1454.450, 293.8378
1455.494, 262.1716
1456.538, 251.5226
1457.582, 323.7794
1458.626, 358.1488
1459.670, 319.5254
1460.713, 306.9093
1461.757, 346.8535
1462.800, 309.2478
1463.843, 372.6497
1464.886, 414.0591
1465.928, 406.4761
1466.971, 442.9930
1468.013, 388.3335
1469.055, 453.7742
1470.097, 401.2236
1471.139, 379.6833
1472.181, 421.1543
1473.222, 388.6379
1474.263, 420.1346
1475.305, 446.6453
1476.346, 434.1702
1477.386, 398.7097
1478.427, 418.2645
1479.468, 438.8347
1480.508, 498.4209
1481.548, 492.0233
1482.588, 497.6427
1483.628, 477.2795
1484.668, 470.9343
1485.707, 530.6074
1486.747, 508.2998
1487.786, 472.0116
1488.825, 507.7438
1489.864, 560.3285
1490.902, 531.3323
1491.941, 596.4597
1492.979, 592.5206
1494.017, 565.2668
1495.055, 561.1434
1496.093, 579.4359
1497.131, 627.3511
1498.168, 645.9932
1499.206, 624.9446
1500.243, 687.2922
1501.280, 672.4797
1502.317, 686.5706
1503.354, 723.0398
1504.390, 706.3767
1505.426, 744.7129
1506.463, 771.0447
1507.499, 756.3613
1508.535, 824.6548
1509.570, 781.9290
1510.606, 839.2021
1511.641, 821.4784
1512.676, 859.7551
1513.711, 766.0305
1514.746, 853.3049
1515.781, 814.5776
1516.816, 813.8510
1517.850, 817.1248
1518.884, 809.3931
1519.918, 795.6548
1520.952, 792.8452
1521.986, 773.4006
1523.019, 763.3860
1524.053, 736.6057
1525.086, 691.8105
1526.119, 669.9968
1527.152, 728.1617
1528.185, 613.3021
1529.217, 667.4141
1530.250, 572.4939
1531.282, 648.6794
1532.314, 553.1298
1533.346, 560.9779
1534.377, 501.0630
1535.409, 527.3158
1536.440, 511.7256
1537.472, 576.2434
1538.503, 508.8341
1539.534, 487.5052
1540.564, 451.2681
1541.595, 433.1338
1542.625, 401.1129
1543.656, 411.2184
1544.686, 418.4650
1545.716, 392.8695
1546.745, 333.4534
1547.775, 363.2423
1548.804, 357.2667
1549.834, 270.5652
1550.863, 308.1847
1551.892, 282.1627
1552.920, 214.4878
1553.949, 265.1621
1554.977, 224.2151
1556.006, 218.6980
1557.034, 160.6724
1558.062, 137.2106
1559.089, 141.3982
1560.117, 60.33496
1561.144, 104.1313
1562.172, 61.90979
1563.199, 116.8425
1564.226, 55.16772
1565.252, 57.19141
1566.279, 7.686646
1567.305, 39.08362
1568.332, 65.24878
1569.358, 23.09692
1570.384, 0.0000000E+00
##END=



