##NAMES=Cassiterite
##RRUFFID=R060563
##IDEAL CHEMISTRY=SnO_2_
##LOCALITY=unknown
##OWNER=RRUFF
##SOURCE=Gemological Institute of America
##DESCRIPTION=Dark brown fragment
##STATUS=The identification of this mineral has been confirmed by X-ray diffraction and chemical analysis
##URL=rruff.info/R060563
##MEASURED CHEMISTRY=Sn_1.00_O_2_
##PIN_ID=L01474
##ORIENTATION=Laser parallel to c* (0 0 1). Fiducial mark perpendicular to laser is parallel to a [1 0 0]
114.4400, 0.0000000E+00
115.6710, 179.2358
116.9030, 0.2690430
118.1340, 175.5698
119.3650, 199.7251
120.5960, 243.3130
121.8270, 283.7334
123.0580, 177.5928
124.2880, 263.7061
125.5190, 70.40771
126.7490, 72.36768
127.9790, 58.33301
129.2090, 1.915039
130.4390, 71.78809
131.6680, 3.904785
132.8980, 100.0039
134.1270, 69.08154
135.3560, 55.39404
136.5850, 134.6514
137.8140, 121.7783
139.0430, 147.1245
140.2710, 106.4839
141.5000, 219.8179
142.7280, 146.0410
143.9560, 172.7925
145.1840, 156.4995
146.4120, 133.3496
147.6390, 156.6646
148.8670, 101.1616
150.0940, 194.8340
151.3210, 174.7866
152.5490, 154.7861
153.7750, 187.3066
155.0020, 216.6470
156.2290, 205.7510
157.4550, 198.6855
158.6810, 166.2119
159.9080, 158.9043
161.1340, 36.97754
162.3590, 41.82031
163.5850, 79.73926
164.8110, 177.7324
166.0360, 3.202148
167.2610, 109.9307
168.4860, 88.12939
169.7110, 94.38916
170.9360, 30.28955
172.1610, 75.09180
173.3850, 1.534668
174.6100, 19.95996
175.8340, 67.60742
177.0580, 13.76270
178.2820, 25.06885
179.5050, 73.68896
180.7290, 18.51025
181.9520, 49.60254
183.1760, 74.64355
184.3990, 1.610352
185.6220, 6.497559
186.8450, 15.32080
188.0670, 53.95361
189.2900, 57.65625
190.5120, 24.82373
191.7340, 3.616699
192.9560, 102.0039
194.1780, 54.66797
195.4000, 161.3594
196.6220, 74.07031
197.8430, 69.80615
199.0640, 134.5703
200.2860, 127.3716
201.5070, 189.2070
202.7270, 123.0786
203.9480, 98.98438
205.1690, 65.91992
206.3890, 34.85889
207.6090, 9.114746
208.8290, 14.92139
210.0490, 73.99609
211.2690, 119.1040
212.4890, 82.23779
213.7080, 188.3984
214.9280, 181.5864
216.1470, 338.7959
217.3660, 334.0220
218.5850, 418.2607
219.8030, 414.5137
221.0220, 528.7988
222.2400, 467.0645
223.4590, 421.3467
224.6770, 380.6680
225.8950, 409.0029
227.1120, 446.3853
228.3300, 453.8164
229.5480, 483.2969
230.7650, 438.8252
231.9820, 513.4023
233.1990, 597.0278
234.4160, 456.7012
235.6330, 647.4224
236.8490, 666.1919
238.0660, 684.0093
239.2820, 730.8740
240.4980, 1000.788
241.7140, 1016.749
242.9300, 852.7578
244.1460, 828.8145
245.3610, 613.9185
246.5770, 496.0708
247.7920, 458.2759
249.0070, 347.5918
250.2220, 308.0806
251.4370, 396.6709
252.6510, 523.3301
253.8660, 448.0317
255.0800, 574.7754
256.2940, 457.5610
257.5080, 598.3877
258.7220, 689.2568
259.9360, 919.1670
261.1490, 592.6362
262.3630, 619.0518
263.5760, 562.4141
264.7890, 656.3970
266.0020, 571.1777
267.2150, 611.7256
268.4270, 635.0195
269.6400, 536.1260
270.8520, 312.1470
272.0640, 468.6396
273.2760, 392.1201
274.4880, 214.4561
275.7000, 237.8945
276.9120, 92.28467
278.1230, 389.5405
279.3340, 304.1460
280.5450, 339.6167
281.7560, 311.5308
282.9670, 345.1592
284.1780, 238.7207
285.3880, 208.4062
286.5980, 179.8706
287.8090, 146.2891
289.0190, 151.6362
290.2290, 155.0034
291.4380, 161.6680
292.6480, 220.2119
293.8570, 214.9307
295.0670, 162.1445
296.2760, 269.9316
297.4850, 301.7051
298.6930, 390.3975
299.9020, 357.2920
301.1110, 314.2524
302.3190, 397.2500
303.5270, 326.3027
304.7350, 316.3931
305.9430, 298.5195
307.1510, 296.9087
308.3580, 305.5024
309.5660, 318.4980
310.7730, 542.7671
311.9800, 552.1396
313.1870, 392.4487
314.3940, 201.7290
315.6010, 304.0957
316.8070, 225.4463
318.0130, 193.8535
319.2200, 320.5303
320.4260, 323.0190
321.6310, 392.5747
322.8370, 365.7710
324.0430, 466.4150
325.2480, 342.0996
326.4540, 339.6816
327.6590, 359.2446
328.8640, 358.3862
330.0680, 306.0103
331.2730, 390.7686
332.4780, 325.0347
333.6820, 516.9502
334.8860, 381.8735
336.0900, 257.8525
337.2940, 361.7891
338.4980, 431.8315
339.7010, 467.9043
340.9050, 494.0850
342.1080, 430.1440
343.3110, 455.3105
344.5140, 424.5083
345.7170, 333.7373
346.9200, 359.9961
348.1220, 307.2871
349.3240, 442.6084
350.5270, 269.9609
351.7290, 270.3438
352.9310, 370.6606
354.1320, 249.1050
355.3340, 344.5806
356.5350, 260.0864
357.7370, 263.6230
358.9380, 252.1895
360.1390, 304.7866
361.3400, 273.3765
362.5400, 271.7939
363.7410, 234.7622
364.9410, 237.4814
366.1410, 202.2319
367.3410, 188.0132
368.5410, 193.8252
369.7410, 269.6675
370.9400, 311.5405
372.1400, 331.4448
373.3390, 205.3784
374.5380, 159.3433
375.7370, 209.3389
376.9360, 327.3643
378.1350, 219.4194
379.3330, 338.4624
380.5310, 305.5410
381.7300, 300.4209
382.9280, 381.8066
384.1260, 387.5229
385.3230, 406.7539
386.5210, 430.6738
387.7180, 405.9609
388.9160, 368.2764
390.1130, 387.6187
391.3100, 375.9893
392.5060, 416.3867
393.7030, 410.8115
394.9000, 449.2622
396.0960, 455.7397
397.2920, 442.2422
398.4880, 417.7710
399.6840, 464.3252
400.8800, 456.9048
402.0750, 381.5103
403.2710, 435.1411
404.4660, 433.7969
405.6610, 436.7861
406.8560, 507.1577
408.0510, 460.8716
409.2450, 498.6074
410.4400, 481.3652
411.6340, 500.1465
412.8280, 529.9526
414.0220, 501.4785
415.2160, 434.6411
416.4100, 445.5269
417.6030, 416.4404
418.7970, 346.3833
419.9900, 353.3594
421.1830, 267.3643
422.3760, 356.4028
423.5690, 374.4707
424.7610, 249.2773
425.9540, 324.5903
427.1460, 371.0674
428.3380, 325.3950
429.5300, 310.0845
430.7220, 464.3711
431.9140, 402.8691
433.1050, 453.4019
434.2970, 366.9990
435.4880, 500.3447
436.6790, 449.8994
437.8700, 459.0664
439.0610, 489.6138
440.2510, 428.6396
441.4420, 417.9102
442.6320, 437.4307
443.8220, 459.8789
445.0120, 361.4482
446.2020, 460.9883
447.3910, 485.6074
448.5810, 490.2520
449.7700, 394.9209
450.9600, 551.6182
452.1490, 396.3438
453.3370, 497.0942
454.5260, 506.8696
455.7150, 440.6787
456.9030, 587.5112
458.0910, 561.3691
459.2800, 602.2529
460.4670, 743.1733
461.6550, 855.1187
462.8430, 975.0923
464.0300, 1017.099
465.2180, 1220.130
466.4050, 1304.191
467.5920, 1493.286
468.7790, 1502.404
469.9650, 1558.547
471.1520, 1520.727
472.3380, 1488.354
473.5250, 1451.085
474.7110, 1356.439
475.8970, 1308.362
477.0820, 1167.149
478.2680, 1144.454
479.4540, 1044.836
480.6390, 919.2432
481.8240, 893.6729
483.0090, 999.1265
484.1940, 939.6021
485.3780, 1014.101
486.5630, 1051.624
487.7470, 1101.168
488.9320, 1156.616
490.1160, 1178.748
491.3000, 1252.941
492.4830, 1263.578
493.6670, 1301.237
494.8500, 1303.862
496.0340, 1374.627
497.2170, 1300.356
498.4000, 1315.109
499.5820, 1348.885
500.7650, 1241.684
501.9480, 1182.506
503.1300, 1098.351
504.3120, 1114.219
505.4940, 909.1108
506.6760, 968.0259
507.8580, 886.9648
509.0390, 797.9272
510.2210, 763.9131
511.4020, 715.9224
512.5830, 616.0649
513.7640, 534.0112
514.9450, 421.0918
516.1250, 340.1953
517.3060, 233.3223
518.4860, 129.4731
519.6660, 61.64697
520.8460, 17.18506
522.0260, 58.94580
523.2060, 112.7402
524.3850, 139.5635
525.5650, 126.4268
526.7440, 47.67480
527.9230, 110.2002
529.1020, 100.8975
530.2810, 131.0181
531.4590, 135.1611
532.6380, 182.3286
533.8160, 270.5186
534.9940, 354.7319
536.1720, 435.1929
537.3500, 558.2275
538.5270, 593.5093
539.7050, 718.8140
540.8820, 747.1421
542.0590, 790.4927
543.2360, 619.8662
544.4130, 555.2627
545.5900, 489.6821
546.7660, 390.1230
547.9430, 461.5869
549.1190, 313.0742
550.2950, 374.5835
551.4710, 410.1152
552.6470, 354.6694
553.8220, 411.2466
554.9980, 176.8457
556.1730, 216.4678
557.3480, 162.1118
558.5230, 142.7778
559.6980, 48.46631
560.8730, 141.1772
562.0470, 52.90967
563.2220, 41.66455
564.3960, 142.4414
565.5700, 25.75977
566.7440, 54.95654
567.9170, 4.838867
569.0910, 92.34912
570.2640, 1.437012
571.4380, 10.76123
572.6110, 74.94922
573.7840, 130.1558
574.9570, 15.40381
576.1290, 198.6450
577.3020, 91.96045
578.4740, 45.30127
579.6460, 182.6475
580.8180, 99.06055
581.9900, 121.5034
583.1620, 17.01514
584.3330, 48.44678
585.5040, 39.08398
586.6760, 69.36328
587.8470, 125.1733
589.0180, 154.7310
590.1880, 149.3091
591.3590, 340.9072
592.5290, 361.5269
593.7000, 419.1670
594.8700, 532.8267
596.0400, 676.5073
597.2090, 781.2085
598.3790, 897.9297
599.5490, 1119.671
600.7180, 1275.433
601.8870, 1439.215
603.0560, 1708.017
604.2250, 1936.839
605.3940, 2246.681
606.5620, 2363.542
607.7300, 2563.424
608.8990, 2810.325
610.0670, 3167.796
611.2350, 3609.186
612.4020, 4088.146
613.5700, 4563.126
614.7370, 5189.125
615.9050, 5990.142
617.0720, 7185.180
618.2390, 8271.239
619.4060, 9631.318
620.5720, 11695.42
621.7390, 14097.54
622.9050, 17376.68
624.0710, 21480.22
625.2370, 25964.01
626.4030, 31837.21
627.5690, 38061.42
628.7340, 45172.66
629.9000, 51864.93
631.0650, 56209.23
632.2300, 57686.57
633.3950, 57375.95
634.5600, 52918.36
635.7240, 46424.84
636.8890, 38776.36
638.0530, 31262.90
639.2170, 25409.47
640.3810, 20479.06
641.5450, 16561.69
642.7080, 13634.38
643.8720, 11189.11
645.0350, 9528.901
646.1980, 8055.739
647.3610, 6911.620
648.5240, 6103.533
649.6870, 5357.478
650.8490, 4779.466
652.0120, 4133.499
653.1740, 3793.559
654.3360, 3408.643
655.4980, 3163.746
656.6600, 2834.870
657.8210, 2604.013
658.9830, 2321.179
660.1440, 2234.370
661.3050, 1936.623
662.4660, 1874.896
663.6270, 1674.418
664.7870, 1546.483
665.9480, 1478.265
667.1080, 1397.592
668.2680, 1300.280
669.4280, 1352.664
670.5880, 1272.072
671.7480, 1323.498
672.9070, 1318.952
674.0670, 1162.424
675.2260, 1217.914
676.3850, 1246.422
677.5440, 1211.946
678.7030, 1232.487
679.8610, 1251.045
681.0200, 1089.619
682.1780, 1207.211
683.3360, 1224.818
684.4940, 1258.441
685.6520, 1366.080
686.8090, 1374.735
687.9670, 1529.405
689.1240, 1435.092
690.2810, 1541.793
691.4380, 1729.511
692.5950, 1663.244
693.7520, 1712.992
694.9080, 1723.754
696.0650, 1500.532
697.2210, 1509.324
698.3770, 1212.131
699.5330, 993.9531
700.6880, 792.7896
701.8440, 554.6396
702.9990, 518.5049
704.1550, 463.3838
705.3100, 415.5669
706.4650, 295.2881
707.6190, 256.8872
708.7740, 245.6797
709.9290, 348.1519
711.0830, 148.0708
712.2370, 286.8188
713.3910, 257.5757
714.5450, 222.3101
715.6980, 298.3379
716.8520, 252.5103
718.0050, 339.4917
719.1580, 242.4482
720.3110, 160.9678
721.4640, 158.2856
722.6170, 160.3965
723.7700, 185.6211
724.9220, 92.76709
726.0740, 23.98340
727.2260, 99.16162
728.3780, 68.35596
729.5300, 243.5659
730.6810, 116.7915
731.8330, 91.03271
732.9840, 21.29004
734.1350, 124.5625
735.2860, 71.85059
736.4370, 89.15283
737.5880, 92.47070
738.7380, 101.8032
739.8880, 168.1504
741.0390, 240.5122
742.1890, 226.8882
743.3380, 276.2783
744.4880, 313.6831
745.6380, 231.1016
746.7870, 214.5342
747.9360, 361.9800
749.0850, 340.4395
750.2340, 492.9136
751.3830, 615.3994
752.5310, 582.8984
753.6800, 795.4111
754.8280, 705.9365
755.9760, 954.1509
757.1240, 1247.702
758.2720, 1533.797
759.4190, 1868.373
760.5670, 2339.960
761.7140, 2836.754
762.8610, 3418.365
764.0080, 4453.988
765.1550, 5384.953
766.3020, 6700.684
767.4480, 8063.994
768.5950, 9429.320
769.7410, 10992.84
770.8870, 12373.25
772.0330, 13533.93
773.1780, 14541.97
774.3240, 14720.07
775.4690, 14462.05
776.6140, 14059.02
777.7590, 13070.68
778.9040, 11994.00
780.0490, 10889.42
781.1940, 9765.438
782.3380, 8793.393
783.4820, 7674.405
784.6260, 7029.732
785.7700, 6096.886
786.9140, 5152.898
788.0580, 4688.690
789.2010, 4223.531
790.3450, 3869.655
791.4880, 3536.719
792.6310, 3593.511
793.7730, 3093.755
794.9160, 3165.267
796.0590, 2965.433
797.2010, 2790.947
798.3430, 2601.460
799.4850, 2589.279
800.6270, 2366.958
801.7690, 2278.670
802.9100, 2079.556
804.0520, 2023.918
805.1930, 1884.560
806.3340, 1781.457
807.4750, 1668.007
808.6160, 1605.061
809.7560, 1543.252
810.8970, 1367.577
812.0370, 1184.513
813.1770, 1076.653
814.3170, 964.1689
815.4570, 857.5630
816.5960, 816.4961
817.7360, 798.5762
818.8750, 621.3926
820.0140, 876.3184
821.1530, 1074.240
822.2920, 1211.159
823.4310, 901.0757
824.5690, 413.9883
825.7070, 203.8975
826.8460, 264.8032
827.9840, 182.7056
829.1220, 150.6040
830.2590, 121.4980
831.3970, 162.3887
832.5340, 113.2744
833.6710, 102.1562
834.8080, 122.4932
835.9450, 113.9058
837.0820, 152.7734
838.2190, 146.6357
839.3550, 168.4932
840.4910, 198.3462
841.6270, 220.4980
842.7630, 254.0444
843.8990, 301.9043
845.0350, 295.7607
846.1700, 359.6343
847.3060, 400.5049
848.4410, 432.3745
849.5760, 396.2568
850.7100, 477.1650
851.8450, 454.0732
852.9800, 489.0220
854.1140, 627.9868
855.2480, 623.9580
856.3820, 598.9653
857.5160, 616.9907
858.6500, 556.0371
859.7830, 650.0771
860.9170, 605.1226
862.0500, 523.1592
863.1830, 509.2061
864.3160, 582.2441
865.4480, 658.2729
866.5810, 543.2939
867.7130, 574.3047
868.8460, 464.3071
869.9780, 605.2998
871.1100, 584.2832
872.2410, 508.2563
873.3730, 492.2192
874.5050, 442.9214
875.6360, 475.1152
876.7670, 388.0479
877.8980, 366.9702
879.0290, 403.8813
880.1590, 333.7822
881.2900, 351.6719
882.4200, 211.5503
883.5500, 290.4175
884.6800, 293.2734
885.8100, 214.1182
886.9400, 106.9507
888.0690, 263.7720
889.1990, 74.58057
890.3280, 133.3779
891.4570, 10.16309
892.5860, 100.9297
893.7140, 19.68359
894.8430, 164.4194
895.9710, 124.1416
897.1000, 47.85107
898.2280, 76.54541
899.3560, 125.2261
900.4830, 41.89258
901.6110, 67.54443
902.7380, 34.81934
903.8660, 50.22900
904.9930, 4.694336
906.1200, 34.19189
907.2460, 53.73340
908.3730, 154.3281
909.5000, 43.03516
910.6260, 8.793945
911.7520, 64.41064
912.8780, 2.377930
914.0040, 44.20068
915.1290, 93.07861
916.2550, 102.0391
917.3800, 98.40869
918.5050, 87.16455
919.6300, 60.31934
920.7550, 22.57910
921.8800, 17.68799
923.0040, 64.03906
924.1290, 64.45752
925.2530, 4.945313
926.3770, 16.52930
927.5010, 28.10742
928.6250, 63.39893
929.7480, 44.79980
930.8720, 15.18311
931.9950, 6.821777
933.1180, 46.85986
934.2410, 2.160645
935.3640, 39.42578
936.4860, 39.67285
937.6090, 140.8955
938.7310, 19.89844
939.8530, 49.25977
940.9750, 27.58105
942.0970, 11.81152
943.2180, 114.1094
944.3400, 0.1767580
945.4610, 79.20508
946.5820, 154.2202
947.7030, 102.4062
948.8240, 136.6011
949.9450, 226.1602
951.0650, 179.1592
952.1860, 140.0845
953.3060, 272.9912
954.4260, 166.8804
955.5460, 220.7515
956.6650, 371.6040
957.7850, 181.4404
958.9040, 328.2578
960.0230, 405.0601
961.1420, 357.8555
962.2610, 394.7847
963.3800, 344.5444
964.4990, 266.2861
965.6170, 356.2983
966.7350, 483.7158
967.8530, 462.4028
968.9710, 558.0723
970.0890, 547.7236
971.2070, 604.3574
972.3240, 524.0522
973.4410, 555.7812
974.5580, 569.3589
975.6750, 474.9873
976.7920, 557.5879
977.9090, 472.1108
979.0250, 492.6157
980.1410, 377.1025
981.2580, 446.5713
982.3740, 364.0195
983.4890, 345.4507
984.6050, 400.8623
985.7200, 374.2549
986.8360, 371.6274
987.9510, 355.4805
989.0660, 291.3164
990.1810, 306.6323
991.2950, 305.9272
992.4100, 322.2026
993.5240, 339.0117
994.6390, 328.2173
995.7530, 351.9106
996.8660, 332.1069
997.9800, 277.2817
999.0940, 319.4375
1000.207, 330.5728
1001.320, 358.6885
1002.433, 297.7832
1003.546, 365.8579
1004.659, 369.9131
1005.772, 240.9473
1006.884, 306.9604
1007.996, 361.9546
1009.108, 363.9277
1010.220, 464.8809
1011.332, 424.1558
1012.444, 308.7275
1013.555, 395.6196
1014.666, 390.4922
1015.777, 433.3447
1016.888, 438.8965
1017.999, 436.1387
1019.110, 446.9307
1020.220, 395.7031
1021.331, 438.4551
1022.441, 449.1865
1023.551, 411.1064
1024.661, 508.7979
1025.770, 449.0176
1026.880, 341.6709
1027.989, 417.7715
1029.098, 384.7725
1030.207, 400.9775
1031.316, 442.3564
1032.425, 410.9102
1033.533, 436.4863
1034.642, 516.9941
1035.750, 378.4570
1036.858, 425.4238
1037.966, 492.2197
1039.073, 495.8184
1040.181, 486.4688
1041.288, 367.7520
1042.396, 506.7998
1043.503, 375.1680
1044.610, 451.2529
1045.716, 320.8174
1046.823, 461.2109
1047.929, 275.0303
1049.036, 269.5371
1050.142, 354.6172
1051.248, 263.8047
1052.353, 120.6572
1053.459, 206.1582
1054.564, 74.99219
1055.670, 150.0967
1056.775, 233.2627
1057.880, 232.3682
1058.985, 193.3223
1060.089, 114.1914
1061.194, 217.3984
1062.298, 153.0537
1063.402, 178.3398
1064.506, 200.4131
1065.610, 163.6787
1066.713, 201.3887
1067.817, 169.8779
1068.920, 161.7129
1070.023, 138.2832
1071.126, 130.3115
1072.229, 136.0020
1073.332, 128.1289
1074.435, 37.66113
1075.537, 44.13574
1076.639, 226.9102
1077.741, 120.6416
1078.843, 178.8379
1079.945, 51.81445
1081.046, 44.57227
1082.148, 4.481445
1083.249, 82.68262
1084.350, 158.6191
1085.451, 181.5127
1086.551, 155.4414
1087.652, 173.1611
1088.752, 133.2617
1089.853, 140.1836
1090.953, 107.0947
1092.053, 99.36523
1093.152, 123.9961
1094.252, 59.87207
1095.351, 185.7354
1096.451, 108.5869
1097.550, 155.4277
1098.649, 206.2559
1099.748, 114.0830
1100.846, 154.8994
1101.945, 141.7100
1103.043, 101.5137
1104.141, 74.30566
1105.239, 61.82227
1106.337, 135.8555
1107.434, 76.61328
1108.532, 78.36035
1109.629, 175.0947
1110.726, 105.8184
1111.823, 218.5312
1112.920, 183.2334
1114.017, 299.9238
1115.113, 312.6035
1116.210, 231.2744
1117.306, 268.9336
1118.402, 398.5820
1119.498, 372.2197
1120.593, 381.8477
1121.689, 368.4648
1122.784, 354.2109
1123.879, 364.6689
1124.974, 343.2559
1126.069, 322.9482
1127.164, 352.5146
1128.259, 288.0713
1129.353, 336.6182
1130.447, 280.1553
1131.541, 401.6816
1132.635, 245.1992
1133.729, 151.7070
1134.822, 252.2041
1135.916, 302.6934
1137.009, 314.1709
1138.102, 257.6406
1139.195, 184.0996
1140.288, 166.5508
1141.380, 196.9932
1142.473, 92.43262
1143.565, 147.8643
1144.657, 203.2861
1145.749, 107.6992
1146.841, 133.1182
1147.932, 205.5293
1149.024, 41.93164
1150.115, 268.3232
1151.206, 117.7148
1152.297, 251.0996
1153.388, 146.4785
1154.479, 25.85156
1155.569, 203.2197
1156.659, 21.57812
1157.750, 191.9307
1158.839, 116.2744
1159.929, 105.6123
1161.019, 170.9775
1162.108, 185.2998
1163.198, 86.61523
1164.287, 60.92285
1165.376, 6.224609
1166.465, 57.51562
1167.553, 34.80078
1168.642, 99.09277
1169.730, 167.3984
1170.818, 11.29492
1171.906, 9.988281
1172.994, 127.3252
1174.082, 0.3203130
1175.170, 167.0430
1176.257, 83.58984
1177.344, 183.7236
1178.431, 42.06152
1179.518, 58.60840
1180.605, 45.71191
1181.691, 66.06250
1182.778, 78.44043
1183.864, 99.80469
1184.950, 63.22656
1186.036, 80.61230
1187.122, 62.25684
1188.207, 92.73633
1189.292, 28.21582
1190.378, 59.69824
1191.463, 41.18066
1192.548, 75.66016
1193.632, 10.86328
1194.717, 9.600586
1195.801, 61.79883
1196.886, 2.388672
1197.970, 253.3672
1199.054, 16.16992
1200.137, 103.2754
1201.221, 170.9648
1202.305, 37.40234
1203.388, 86.15332
1204.471, 0.7089840
1205.554, 39.40625
1206.637, 20.42773
1207.719, 102.0049
1208.802, 12.91699
1209.884, 166.4424
1210.966, 177.6074
1212.048, 143.7363
1213.130, 17.83105
1214.212, 101.3828
1215.293, 106.6777
1216.374, 164.3545
1217.456, 172.6670
1218.536, 152.9727
1219.617, 169.1934
1220.698, 90.48535
1221.778, 16.76953
1222.859, 24.95508
1223.939, 101.3076
1225.019, 128.3926
1226.099, 145.6221
1227.178, 182.8467
1228.258, 170.9160
1229.337, 226.5068
1230.417, 151.7119
1231.496, 157.0527
1232.574, 152.2920
1233.653, 180.4756
1234.732, 175.6885
1235.810, 162.8115
1236.888, 175.7783
1237.966, 163.8701
1239.044, 142.9629
1240.122, 226.1084
1241.199, 94.24805
1242.277, 103.3809
1243.354, 136.5068
1244.431, 244.6270
1245.508, 179.7393
1246.585, 129.8477
1247.661, 142.9482
1248.738, 161.0439
1249.814, 238.1318
1250.890, 160.2158
1251.966, 267.2930
1253.042, 200.3633
1254.117, 107.4277
1255.193, 48.48633
1256.268, 147.5381
1257.343, 114.5850
1258.418, 144.6260
1259.493, 201.6611
1260.567, 113.6895
1261.642, 182.7139
1262.716, 266.7305
1263.790, 173.7432
1264.864, 226.7500
1265.938, 262.7510
1267.011, 124.7480
1268.085, 279.7373
1269.158, 134.7236
1270.231, 150.7031
1271.304, 216.3936
1272.377, 120.3643
1273.450, 171.3291
1274.522, 144.2891
1275.594, 239.6475
1276.666, 82.59766
1277.738, 144.5430
1278.810, 129.3330
1279.882, 216.0693
1280.953, 240.0000
1282.025, 248.2998
1283.096, 110.2188
1284.167, 229.7100
1285.238, 177.6221
1286.308, 86.30371
1287.379, 134.2070
1288.449, 71.10547
1289.519, 62.62988
1290.589, 110.8887
1291.659, 83.77441
1292.729, 81.65527
1293.798, 182.5732
1294.868, 212.1240
1295.937, 192.9414
1297.006, 288.6631
1298.075, 216.5273
1299.143, 190.3877
1300.212, 221.2900
1301.280, 243.2754
1302.348, 237.1279
1303.416, 295.5938
1304.484, 252.4395
1305.552, 110.8066
1306.620, 51.64844
1307.687, 220.3906
1308.754, 72.32910
1309.821, 196.0879
1310.888, 144.9238
1311.955, 188.7578
1313.021, 90.59375
1314.088, 188.4277
1315.154, 8.261719
1316.220, 63.10352
1317.286, 162.9482
1318.352, 112.6494
1319.417, 181.4863
1320.483, 121.2432
1321.548, 97.08594
1322.613, 90.01660
1323.678, 95.40332
1324.743, 24.34473
1325.807, 2.770508
1326.872, 215.5293
1327.936, 153.8340
1329.000, 8.549805
1330.064, 124.2422
1331.128, 206.8135
1332.191, 22.63184
1333.255, 131.7842
1334.318, 88.67871
1335.381, 26.99219
1336.444, 53.41992
1337.507, 62.54004
1338.569, 57.08887
1339.632, 165.6250
1340.694, 0.1523440
1341.756, 48.59570
1342.818, 28.09473
1343.880, 18.60547
1344.941, 58.87402
1346.003, 35.35059
1347.064, 108.1758
1348.125, 58.26660
1349.186, 62.70605
1350.247, 171.7705
1351.308, 12.46191
1352.368, 79.89453
1353.428, 25.32422
1354.489, 36.75293
1355.549, 129.1797
1356.608, 37.39551
1357.668, 74.01758
1358.727, 20.57227
1359.787, 19.16699
1360.846, 191.2178
1361.905, 80.60156
1362.964, 118.9629
1364.022, 127.3213
1365.081, 266.6670
1366.139, 56.99902
1367.197, 153.3252
1368.255, 172.6494
1369.313, 80.97168
1370.371, 121.2930
1371.428, 159.6113
1372.486, 166.9297
1373.543, 142.2451
1374.600, 94.56055
1375.657, 261.8740
1376.713, 130.1875
1377.770, 181.5000
1378.826, 240.8105
1379.882, 135.1211
1380.938, 113.4297
1381.994, 232.7363
1383.050, 176.9268
1384.106, 291.2314
1385.161, 235.5352
1386.216, 224.8379
1387.271, 152.1387
1388.326, 114.4404
1389.381, 109.7412
1390.435, 202.0430
1391.490, 78.34473
1392.544, 113.6494
1393.598, 195.9570
1394.652, 144.2656
1395.705, 38.57812
1396.759, 17.89453
1397.812, 43.78613
1398.866, 239.5283
1399.919, 63.84766
1400.972, 101.1709
1402.024, 72.50195
1403.077, 109.8164
1404.129, 114.1396
1405.181, 198.4678
1406.233, 48.19629
1407.285, 134.1387
1408.337, 35.51855
1409.389, 13.17188
1410.440, 28.81738
1411.491, 71.54492
1412.542, 124.9180
1413.593, 58.30273
1414.644, 64.70020
1415.695, 34.11035
1416.745, 49.50195
1417.795, 21.94043
1418.845, 89.39648
1419.895, 6.130859
1420.945, 81.36035
1421.995, 55.87207
1423.044, 92.40527
1424.093, 81.96094
1425.142, 68.54199
1426.191, 35.14746
1427.240, 89.45605
1428.289, 7.458984
1429.337, 206.1631
1430.385, 117.9043
1431.433, 180.6816
1432.481, 153.5234
1433.529, 146.7969
1434.577, 244.3203
1435.624, 172.3203
1436.672, 202.3799
1437.719, 265.5010
1438.766, 166.6904
1439.812, 277.9561
1440.859, 203.3066
1441.905, 272.2314
1442.952, 401.7910
1443.998, 476.4795
1445.044, 372.7607
1446.090, 324.8037
1447.135, 417.6836
1448.181, 433.4434
1449.226, 334.2754
1450.271, 497.4170
1451.316, 542.8877
1452.361, 445.6133
1453.405, 317.3408
1454.450, 380.5938
1455.494, 436.3750
1456.538, 537.0986
1457.582, 488.8652
1458.626, 417.8994
1459.670, 428.5693
1460.713, 387.6387
1461.757, 385.9287
1462.800, 390.7119
1463.843, 413.3623
1464.886, 454.4170
1465.928, 500.7080
1466.971, 478.1611
1468.013, 448.7168
1469.055, 441.3486
1470.097, 488.9883
1471.139, 487.6367
1472.181, 445.2949
1473.222, 389.9609
1474.263, 459.6367
1475.305, 471.3232
1476.346, 501.0186
1477.386, 632.7246
1478.427, 488.4434
1479.468, 502.1748
1480.508, 394.9160
1481.548, 540.6709
1482.588, 483.4375
1483.628, 511.2178
1484.668, 512.0098
1485.707, 499.3320
1486.747, 591.1221
1487.786, 457.8730
1488.825, 484.6279
1489.864, 547.6533
1490.902, 606.2822
1491.941, 571.7900
1492.979, 589.5146
1494.017, 454.2500
1495.055, 577.9951
1496.093, 461.6143
1497.131, 647.3770
1498.168, 577.1465
1499.206, 553.9229
1500.243, 735.7041
1501.280, 674.4893
1502.317, 766.2744
1503.354, 679.0547
1504.390, 565.8281
1505.426, 709.5898
1506.463, 702.3330
1507.499, 810.0107
1508.535, 904.6562
1509.570, 713.2812
1510.606, 770.9609
1511.641, 885.7188
1512.676, 768.4824
1513.711, 904.4463
1514.746, 772.4990
1515.781, 928.6807
1516.816, 879.0381
1517.850, 934.4238
1518.884, 801.9121
1519.918, 835.4814
1520.952, 782.0908
1521.986, 854.7422
1523.019, 735.4355
1524.053, 808.1748
1525.086, 592.9619
1526.119, 725.7969
1527.152, 527.6836
1528.185, 647.6230
1529.217, 740.6855
1530.250, 702.9502
1531.282, 629.4053
1532.314, 625.0234
1533.346, 562.7441
1534.377, 587.5811
1535.409, 581.5381
1536.440, 542.6240
1537.472, 534.9189
1538.503, 518.2275
1539.534, 478.7783
1540.564, 427.5244
1541.595, 407.4824
1542.625, 422.6670
1543.656, 311.0830
1544.686, 396.7373
1545.716, 316.6406
1546.745, 403.8145
1547.775, 457.2832
1548.804, 424.0820
1549.834, 355.2461
1550.863, 257.8076
1551.892, 393.7871
1552.920, 196.2217
1553.949, 401.1572
1554.977, 309.6553
1556.006, 181.7783
1557.034, 123.5957
1558.062, 240.1934
1559.089, 292.6729
1560.117, 218.1631
1561.144, 276.8154
1562.172, 136.8154
1563.199, 333.4102
1564.226, 210.9111
1565.252, 22.26758
1566.279, 128.4414
1567.305, 313.8330
1568.332, 57.61328
1569.358, 112.0938
1570.384, 0.0000000E+00
##END=



