##NAMES=Cassiterite
##RRUFFID=R050502
##IDEAL CHEMISTRY=SnO_2_
##LOCALITY=Redruth, Cornwall, England
##OWNER=RRUFF
##SOURCE=California Institute of Technology
##DESCRIPTION=Black crystals associated with colorless quartz and grey stannite.
##STATUS=The identification of this mineral has been confirmed by X-ray diffraction and chemical analysis
##URL=rruff.info/R050502
##MEASURED CHEMISTRY=SnO_2_
##PIN_ID=M00088
##ORIENTATION=Laser parallel to -c* (0 0 -1). Fiducial mark perpendicular to laser is parallel to b [0 1 0]
196.2960, 0.0000000E+00
197.5200, 59.41895
198.7430, 63.90967
199.9670, 93.51367
201.1900, 70.00244
202.4130, 61.26123
203.6360, 3.612793
204.8590, 93.88721
206.0820, 24.22705
207.3050, 0.9833980
208.5270, 166.5063
209.7490, 92.35352
210.9710, 240.3726
212.1930, 201.3594
213.4150, 344.1152
214.6370, 346.4653
215.8580, 411.2661
217.0790, 515.4170
218.3010, 596.2329
219.5210, 669.2285
220.7420, 709.3418
221.9630, 907.2524
223.1830, 840.7051
224.4040, 1065.509
225.6240, 1083.519
226.8440, 1032.625
228.0640, 1156.746
229.2840, 1231.819
230.5030, 1368.799
231.7230, 1610.647
232.9420, 1841.343
234.1610, 2321.876
235.3800, 2582.245
236.5990, 2425.454
237.8170, 2283.906
239.0360, 2353.211
240.2540, 2465.287
241.4720, 2849.950
242.6900, 3203.648
243.9080, 3442.081
245.1250, 3401.512
246.3430, 3641.096
247.5600, 2973.824
248.7770, 2264.784
249.9940, 1706.033
251.2110, 1352.222
252.4280, 1082.592
253.6450, 943.9927
254.8610, 923.8584
256.0770, 1010.227
257.2930, 1101.128
258.5090, 1209.591
259.7250, 1307.641
260.9400, 957.3018
262.1560, 837.5957
263.3710, 693.5435
264.5860, 744.1650
265.8010, 764.4790
267.0160, 621.5039
268.2310, 616.2549
269.4450, 572.7812
270.6600, 567.1953
271.8740, 457.4966
273.0880, 384.6885
274.3020, 563.7690
275.5150, 489.7490
276.7290, 566.6455
277.9420, 492.3628
279.1550, 651.2178
280.3680, 561.3652
281.5810, 788.4204
282.7940, 866.9805
284.0070, 1084.784
285.2190, 1287.768
286.4310, 1255.315
287.6430, 1387.343
288.8550, 1311.259
290.0670, 1260.599
291.2790, 1144.839
292.4900, 1144.144
293.7020, 1085.510
294.9130, 1090.930
296.1240, 1045.402
297.3350, 981.9243
298.5450, 900.4917
299.7560, 956.1030
300.9660, 911.7563
302.1760, 1007.450
303.3860, 961.6733
304.5960, 932.9526
305.8060, 868.7603
307.0150, 861.6035
308.2250, 735.4824
309.4340, 761.3970
310.6430, 680.3447
311.8520, 750.3203
313.0610, 603.3198
314.2700, 601.3584
315.4780, 503.4155
316.6860, 467.9570
317.8940, 379.5781
319.1020, 440.6655
320.3100, 485.7520
321.5180, 534.8379
322.7250, 454.9268
323.9330, 346.0200
325.1400, 534.1196
326.3470, 369.2271
327.5540, 365.3457
328.7600, 386.4761
329.9670, 356.6206
331.1730, 353.7803
332.3800, 456.9580
333.5860, 428.1543
334.7920, 384.3711
335.9970, 430.6108
337.2030, 336.8745
338.4080, 375.1631
339.6140, 400.4785
340.8190, 356.8232
342.0240, 364.2368
343.2290, 455.6157
344.4330, 420.9360
345.6380, 515.2085
346.8420, 579.3589
348.0460, 528.5806
349.2500, 547.6152
350.4540, 491.9502
351.6580, 517.9951
352.8610, 390.4126
354.0650, 363.8657
355.2680, 406.3457
356.4710, 382.8481
357.6740, 193.3682
358.8760, 162.9019
360.0790, 119.4438
361.2810, 77.01172
362.4840, 120.5093
363.6860, 170.0625
364.8880, 256.6899
366.0900, 287.4175
367.2910, 236.2578
368.4930, 196.1987
369.6940, 397.2310
370.8950, 273.4072
372.0960, 236.6953
373.2970, 90.08496
374.4980, 150.5371
375.6980, 155.0659
376.8980, 92.67188
378.0990, 44.33740
379.2990, 107.0503
380.4980, 53.82324
381.6980, 14.35791
382.8980, 77.50879
384.0970, 174.6294
385.2960, 260.7144
386.4950, 306.1982
387.6940, 345.7393
388.8930, 385.6763
390.0920, 451.5679
391.2900, 465.4180
392.4880, 557.2314
393.6860, 604.0850
394.8840, 721.7607
396.0820, 734.4844
397.2800, 798.1846
398.4770, 874.8628
399.6750, 977.5239
400.8720, 1118.169
402.0690, 1177.802
403.2660, 1411.423
404.4620, 1490.037
405.6590, 1786.644
406.8550, 1904.246
408.0510, 2116.845
409.2480, 2292.444
410.4430, 2488.045
411.6390, 2698.648
412.8350, 2964.258
414.0300, 3132.873
415.2250, 3487.495
416.4200, 3733.125
417.6150, 3850.767
418.8100, 4158.417
420.0050, 4437.080
421.1990, 4752.754
422.3940, 4953.437
423.5880, 5100.031
424.7820, 5329.409
425.9750, 5485.658
427.1690, 5646.458
428.3630, 5970.236
429.5560, 6128.193
430.7490, 6023.688
431.9420, 6205.646
433.1350, 6053.884
434.3280, 6177.021
435.5200, 6178.685
436.7130, 5966.911
437.9050, 6007.181
439.0970, 5982.248
440.2890, 5922.361
441.4810, 6164.520
442.6720, 6196.727
443.8640, 6542.983
445.0550, 6649.287
446.2460, 6975.638
447.4370, 7155.038
448.6280, 7648.488
449.8180, 7893.984
451.0090, 8144.532
452.1990, 8452.129
453.3890, 8685.776
454.5790, 8752.473
455.7690, 8788.219
456.9590, 8850.017
458.1480, 8687.864
459.3380, 8697.767
460.5270, 8314.716
461.7160, 8333.721
462.9050, 8214.777
464.0940, 7894.886
465.2820, 8020.046
466.4700, 7620.264
467.6590, 7458.533
468.8470, 7391.856
470.0350, 7160.235
471.2220, 6962.669
472.4100, 6655.158
473.5970, 6348.704
474.7850, 5916.306
475.9720, 5519.965
477.1590, 5133.680
478.3460, 4941.454
479.5320, 4488.286
480.7190, 4129.175
481.9050, 4004.124
483.0910, 3715.132
484.2770, 3558.199
485.4630, 3504.309
486.6490, 3410.462
487.8340, 3319.660
489.0200, 3308.904
490.2050, 3139.193
491.3900, 3057.529
492.5750, 3143.913
493.7600, 3139.344
494.9440, 2954.828
496.1290, 2870.359
497.3130, 2798.938
498.4970, 2643.567
499.6810, 2555.245
500.8650, 2525.922
502.0480, 2341.240
503.2320, 2187.582
504.4150, 2162.261
505.5980, 1846.354
506.7810, 1908.460
507.9640, 1826.258
509.1460, 1570.260
510.3290, 1462.610
511.5110, 1436.618
512.6930, 1217.155
513.8750, 1108.617
515.0570, 888.5400
516.2390, 974.6470
517.4210, 701.3066
518.6020, 670.8525
519.7830, 587.2437
520.9640, 410.6172
522.1450, 376.4727
523.3260, 363.6025
524.5060, 350.8608
525.6870, 109.0063
526.8670, 282.0708
528.0470, 190.2065
529.2270, 250.4150
530.4070, 291.6958
531.5870, 346.0518
532.7660, 366.5483
533.9450, 391.9858
535.1240, 390.5654
536.3030, 433.5830
537.4820, 454.4434
538.6610, 481.7627
539.8390, 506.6484
541.0180, 474.6133
542.1960, 473.6558
543.3740, 372.7788
544.5520, 410.9810
545.7290, 450.2798
546.9070, 435.6646
548.0840, 336.1475
549.2620, 438.7368
550.4390, 307.4380
551.6160, 166.2417
552.7920, 353.1592
553.9690, 349.1929
555.1450, 268.3550
556.3220, 356.6240
557.4980, 176.0234
558.6740, 253.5396
559.8490, 184.1792
561.0250, 288.9277
562.2000, 170.7925
563.3760, 220.7666
564.5510, 205.8364
565.7260, 90.01416
566.9010, 20.72217
568.0750, 84.62744
569.2500, 102.9316
570.4240, 121.4121
571.5980, 107.8179
572.7720, 82.14404
573.9460, 38.38672
575.1200, 99.53955
576.2930, 68.61035
577.4670, 99.59424
578.6400, 28.49609
579.8130, 25.69434
580.9860, 94.97949
582.1590, 214.3594
583.3310, 299.8350
584.5040, 438.4053
585.6760, 657.0708
586.8480, 807.8325
588.0200, 907.6885
589.1920, 1033.640
590.3630, 1390.686
591.5350, 1461.828
592.7060, 1652.065
593.8770, 2026.398
595.0480, 2393.825
596.2190, 2466.348
597.3900, 2735.966
598.5600, 3069.679
599.7310, 3443.486
600.9010, 3736.391
602.0710, 4194.389
603.2410, 4621.482
604.4100, 4919.671
605.5800, 5564.956
606.7490, 5971.333
607.9190, 6607.804
609.0880, 7020.374
610.2570, 7561.042
611.4250, 8140.804
612.5940, 8665.665
613.7620, 9379.625
614.9310, 10328.70
616.0990, 11565.86
617.2670, 12856.13
618.4340, 14720.52
619.6020, 16857.02
620.7690, 19350.62
621.9370, 22499.34
623.1040, 26244.18
624.2710, 29929.13
625.4380, 33482.21
626.6040, 36686.41
627.7710, 39174.74
628.9370, 41791.19
630.1030, 43749.76
631.2690, 45373.45
632.4350, 45543.27
633.6010, 44699.20
634.7660, 42279.28
635.9320, 38026.45
637.0970, 33592.75
638.2620, 28531.16
639.4270, 24414.69
640.5920, 20340.32
641.7560, 17243.08
642.9210, 14474.96
644.0850, 12743.97
645.2490, 11236.16
646.4130, 9708.522
647.5770, 8711.070
648.7400, 7752.821
649.9040, 6991.782
651.0670, 6329.940
652.2300, 5750.279
653.3930, 5281.856
654.5560, 4711.636
655.7190, 4332.606
656.8810, 4059.737
658.0440, 3727.031
659.2060, 3526.495
660.3680, 3165.108
661.5300, 3083.856
662.6910, 2750.758
663.8530, 2627.799
665.0140, 2379.952
666.1750, 2325.206
667.3360, 2181.549
668.4970, 2048.978
669.6580, 2018.495
670.8190, 1915.100
671.9790, 1801.790
673.1390, 1758.821
674.2990, 1584.430
675.4590, 1629.377
676.6190, 1589.410
677.7790, 1520.525
678.9380, 1591.724
680.0970, 1541.004
681.2570, 1604.366
682.4160, 1679.948
683.5740, 1741.468
684.7330, 1874.618
685.8920, 1777.686
687.0500, 1934.729
688.2080, 1988.455
689.3660, 2145.229
690.5240, 2107.754
691.6820, 2091.788
692.8390, 2136.326
693.9960, 2078.991
695.1540, 2064.448
696.3110, 1995.496
697.4680, 1963.921
698.6240, 1981.716
699.7810, 1850.582
700.9370, 1687.343
702.0940, 1548.375
703.2500, 1554.336
704.4060, 1426.016
705.5610, 1331.887
706.7170, 1420.627
707.8720, 1462.938
709.0280, 1605.685
710.1830, 1626.098
711.3380, 1516.861
712.4920, 1588.123
713.6470, 1651.062
714.8020, 1682.155
715.9560, 1790.828
717.1100, 1843.042
718.2640, 1858.313
719.4180, 1976.895
720.5720, 1940.530
721.7250, 1965.223
722.8780, 2116.968
724.0320, 2141.768
725.1850, 2148.621
726.3380, 2141.526
727.4900, 2175.769
728.6430, 2169.121
729.7950, 2210.551
730.9470, 2178.660
732.1000, 2151.818
733.2510, 2157.025
734.4030, 2137.618
735.5550, 2195.582
736.7060, 2162.930
737.8570, 2140.325
739.0090, 2226.765
740.1600, 2220.249
741.3100, 2208.776
742.4610, 2250.349
743.6110, 2338.962
744.7620, 2264.618
745.9120, 2342.315
747.0620, 2383.370
748.2120, 2272.633
749.3610, 2241.801
750.5110, 2275.896
751.6600, 2366.477
752.8090, 2377.116
753.9580, 2399.668
755.1070, 2358.276
756.2560, 2367.532
757.4050, 2315.590
758.5530, 2325.672
759.7010, 2335.495
760.8490, 2469.327
761.9970, 2707.163
763.1450, 2820.819
764.2920, 3086.346
765.4400, 3522.384
766.5870, 3642.785
767.7340, 4136.877
768.8810, 4480.370
770.0280, 4832.323
771.1740, 5293.788
772.3210, 5671.349
773.4670, 5929.835
774.6130, 6056.088
775.7590, 6071.454
776.9050, 5779.053
778.0510, 5651.766
779.1960, 5286.706
780.3420, 4736.269
781.4870, 4333.275
782.6320, 3868.438
783.7770, 3380.069
784.9210, 2896.055
786.0660, 2604.502
787.2100, 2399.304
788.3540, 2169.514
789.4980, 1982.330
790.6420, 1737.236
791.7860, 1685.444
792.9300, 1627.853
794.0730, 1495.041
795.2160, 1278.147
796.3590, 1174.001
797.5020, 1076.348
798.6450, 1103.298
799.7880, 1017.988
800.9300, 934.3657
802.0720, 861.6172
803.2150, 775.5996
804.3560, 717.0474
805.4980, 689.7817
806.6400, 628.2837
807.7810, 579.2456
808.9230, 445.2456
810.0640, 469.6250
811.2050, 377.5801
812.3460, 315.6211
813.4860, 282.7974
814.6270, 278.6011
815.7670, 202.3643
816.9070, 35.97803
818.0470, 31.64160
819.1870, 0.9592290
820.3270, 65.25293
821.4670, 86.30737
822.6060, 35.01270
823.7450, 77.83203
824.8840, 127.7070
826.0230, 143.6609
827.1620, 98.70215
828.3010, 141.8110
829.4390, 147.0112
830.5770, 194.3057
831.7150, 103.7224
832.8530, 193.2148
833.9910, 136.8313
835.1290, 161.5435
836.2660, 99.36768
837.4030, 127.2737
838.5410, 96.27710
839.6780, 37.36426
840.8140, 84.50732
841.9510, 59.26904
843.0870, 36.01050
844.2240, 7.717773
845.3600, 20.38379
846.4960, 141.0183
847.6320, 173.6240
848.7680, 227.2002
849.9030, 193.7427
851.0380, 192.2490
852.1740, 245.7224
853.3090, 257.1599
854.4440, 319.5637
855.5780, 313.9277
856.7130, 347.7104
857.8470, 364.5312
858.9820, 361.7693
860.1160, 384.9639
861.2500, 328.2341
862.3830, 458.3408
863.5170, 435.4709
864.6500, 492.4875
865.7840, 453.4585
866.9170, 462.0210
868.0500, 356.2607
869.1830, 422.0913
870.3150, 433.8740
871.4480, 357.6082
872.5800, 392.2937
873.7120, 306.9299
874.8440, 357.5176
875.9760, 342.0547
877.1080, 273.5410
878.2390, 341.9766
879.3710, 300.3608
880.5020, 241.6934
881.6330, 225.9739
882.7640, 117.2021
883.8940, 107.3728
885.0250, 124.4844
886.1550, 143.5376
887.2850, 63.53296
888.4160, 38.45679
889.5450, 124.3008
890.6750, 46.08252
891.8050, 3.216064
892.9340, 69.38281
894.0630, 72.90625
895.1930, 53.64575
896.3220, 32.67017
897.4500, 14.89478
898.5790, 28.98047
899.7070, 7.020996
900.8360, 63.08447
901.9640, 3.335205
903.0920, 21.30029
904.2200, 17.16675
905.3470, 38.75708
906.4750, 2.516357
907.6020, 13.32520
908.7290, 23.70898
909.8560, 5.364014
910.9830, 53.44043
912.1100, 26.96338
913.2360, 26.42822
914.3630, 5.238037
915.4890, 3.390869
916.6150, 6.855713
917.7410, 5.486816
918.8670, 16.18457
919.9920, 30.48218
921.1180, 69.97949
922.2430, 92.03662
923.3680, 80.72021
924.4930, 95.50122
925.6180, 94.29785
926.7420, 85.84155
927.8670, 116.0750
928.9910, 60.67163
930.1150, 131.8413
931.2390, 104.2542
932.3630, 125.3013
933.4860, 144.6311
934.6100, 114.5933
935.7330, 128.4097
936.8560, 272.2957
937.9790, 206.0073
939.1020, 251.6311
940.2250, 368.6062
941.3470, 248.3601
942.4700, 309.9526
943.5920, 312.3455
944.7140, 264.6230
945.8360, 315.8105
946.9570, 305.8569
948.0790, 289.9414
949.2000, 346.1021
950.3220, 354.3911
951.4430, 388.4329
952.5640, 374.1975
953.6840, 456.8687
954.8050, 506.4294
955.9250, 419.2097
957.0460, 439.2729
958.1660, 504.4673
959.2860, 465.4829
960.4050, 546.8359
961.5250, 491.2397
962.6440, 580.9258
963.7640, 602.7993
964.8830, 610.3516
966.0020, 582.6895
967.1210, 669.4346
968.2390, 657.6968
969.3580, 634.1733
970.4760, 589.7231
971.5940, 649.7334
972.7120, 678.9226
973.8300, 679.8037
974.9480, 597.7212
976.0650, 688.9189
977.1830, 583.9407
978.3000, 618.8831
979.4170, 605.4441
980.5340, 606.2383
981.6500, 520.9893
982.7670, 522.8396
983.8830, 490.4626
985.0000, 563.0222
986.1160, 486.5178
987.2320, 492.9500
988.3470, 452.3184
989.4630, 434.6230
990.5780, 462.8643
991.6940, 466.0420
992.8090, 433.1572
993.9240, 468.2090
995.0380, 378.1978
996.1530, 478.1221
997.2680, 391.9834
998.3820, 453.7812
999.4960, 451.5156
1000.610, 483.1875
1001.724, 478.7961
1002.837, 466.3813
1003.951, 531.8647
1005.064, 561.2861
1006.177, 495.6445
1007.291, 472.0244
1008.403, 485.4663
1009.516, 471.6384
1010.629, 515.2898
1011.741, 496.1526
1012.853, 508.2468
1013.965, 498.0852
1015.077, 508.1169
1016.189, 547.0996
1017.300, 532.5249
1018.412, 546.4038
1019.523, 552.0662
1020.634, 555.3872
1021.745, 565.3323
1022.856, 583.3435
1023.966, 588.1487
1025.077, 597.0576
1026.187, 594.5977
1027.297, 601.1443
1028.407, 590.5312
1029.517, 576.5706
1030.627, 560.1985
1031.736, 641.8171
1032.845, 590.7214
1033.955, 567.5137
1035.064, 573.5989
1036.172, 512.5791
1037.281, 525.7773
1038.390, 461.5625
1039.498, 534.7844
1040.606, 383.3997
1041.714, 511.1050
1042.822, 456.6086
1043.930, 500.2891
1045.037, 393.1069
1046.145, 380.4385
1047.252, 373.4924
1048.359, 387.8201
1049.466, 319.2915
1050.573, 326.3032
1051.679, 238.0198
1052.786, 248.3159
1053.892, 275.1538
1054.998, 180.5264
1056.104, 244.4131
1057.210, 199.4407
1058.315, 170.2427
1059.421, 204.8757
1060.526, 252.0134
1061.631, 143.4597
1062.736, 217.8083
1063.841, 140.2820
1064.946, 203.8745
1066.050, 119.0623
1067.154, 178.2231
1068.258, 188.0244
1069.362, 147.0986
1070.466, 170.1775
1071.570, 108.7244
1072.674, 140.5645
1073.777, 109.7703
1074.880, 124.6797
1075.983, 155.4702
1077.086, 164.2075
1078.189, 168.7024
1079.291, 183.5962
1080.394, 155.1367
1081.496, 117.3159
1082.598, 88.82886
1083.700, 108.9609
1084.802, 156.5991
1085.903, 160.1797
1087.005, 135.0698
1088.106, 100.7261
1089.207, 119.3945
1090.308, 107.9597
1091.409, 156.5298
1092.509, 152.5142
1093.610, 129.1377
1094.710, 120.6624
1095.810, 193.3284
1096.910, 150.6699
1098.010, 171.6108
1099.110, 124.8130
1100.209, 98.40942
1101.309, 123.0391
1102.408, 160.5588
1103.507, 200.0867
1104.606, 180.6147
1105.704, 188.1729
1106.803, 206.6895
1107.901, 204.1958
1108.999, 188.6858
1110.097, 232.1460
1111.195, 210.5764
1112.293, 192.9802
1113.391, 200.3557
1114.488, 146.7024
1115.585, 229.0188
1116.682, 239.3071
1117.779, 209.5671
1118.876, 243.7993
1119.973, 207.0037
1121.069, 253.1807
1122.165, 311.3306
1123.261, 336.4534
1124.357, 339.8076
1125.453, 262.8987
1126.549, 292.9429
1127.644, 290.8418
1128.739, 219.8579
1129.835, 230.7571
1130.930, 172.6992
1132.024, 268.6167
1133.119, 200.5095
1134.214, 150.3782
1135.308, 264.2224
1136.402, 210.0430
1137.496, 201.8401
1138.590, 133.6138
1139.684, 102.3638
1140.777, 153.0894
1141.871, 179.7927
1142.964, 120.4736
1144.057, 103.1321
1145.150, 123.8225
1146.243, 102.4358
1147.335, 98.09229
1148.428, 171.6838
1149.520, 152.2598
1150.612, 117.8179
1151.704, 150.3579
1152.796, 100.8806
1153.887, 64.39062
1154.979, 104.8916
1156.070, 85.37573
1157.161, 29.85352
1158.252, 45.33423
1159.343, 70.80371
1160.433, 1.262451
1161.524, 56.73657
1162.614, 50.20972
1163.704, 21.68433
1164.794, 66.17920
1165.884, 104.6843
1166.974, 34.21484
1168.063, 47.76611
1169.153, 42.32031
1170.242, 57.89575
1171.331, 71.80005
1172.420, 19.18628
1173.508, 75.81763
1174.597, 80.45728
1175.685, 14.13647
1176.774, 62.79028
1177.862, 92.45142
1178.950, 4.879150
1180.037, 11.79956
1181.125, 8.492432
1182.212, 27.19653
1183.300, 8.716064
1184.387, 20.31201
1185.474, 11.04834
1186.560, 31.40625
1187.647, 47.95654
1188.733, 26.47607
1189.820, 33.79956
1190.906, 68.28174
1191.992, 29.02124
1193.078, 24.78540
1194.163, 42.22754
1195.249, 25.01367
1196.334, 6.532959
1197.419, 21.42871
1198.504, 9.081299
1199.589, 9.617920
1200.674, 7.352051
1201.758, 14.99561
1202.843, 9.943359
1203.927, 11.27881
1205.011, 32.66162
1206.095, 23.53101
1207.179, 23.71240
1208.262, 31.01025
1209.345, 23.26758
1210.429, 12.77710
1211.512, 55.45923
1212.595, 50.12524
1213.677, 14.62939
1214.760, 36.97046
1215.842, 24.35596
1216.925, 18.83350
1218.007, 64.95215
1219.089, 11.91357
1220.171, 51.96411
1221.252, 60.96582
1222.334, 7.829590
1223.415, 39.35303
1224.496, 81.43677
1225.577, 22.48462
1226.658, 17.16504
1227.738, 8.003906
1228.819, 14.23096
1229.899, 35.27905
1230.979, 29.20654
1232.060, 80.23511
1233.139, 102.4199
1234.219, 50.76416
1235.299, 43.03003
1236.378, 87.32617
1237.457, 47.64966
1238.536, 66.36914
1239.615, 118.2603
1240.694, 99.56323
1241.772, 88.85962
1242.851, 168.1494
1243.929, 60.43262
1245.007, 75.54614
1246.085, 65.81641
1247.163, 104.0806
1248.240, 123.3386
1249.318, 116.5903
1250.395, 40.83618
1251.472, 42.07666
1252.549, 89.31128
1253.626, 4.459717
1254.703, 120.7610
1255.779, 38.97632
1256.855, 84.18677
1257.931, 27.39282
1259.007, 35.59375
1260.083, 121.7898
1261.159, 69.98145
1262.234, 38.16846
1263.310, 78.35059
1264.385, 71.48999
1265.460, 103.6636
1266.535, 96.80542
1267.610, 97.39038
1268.684, 84.07764
1269.758, 86.02759
1270.833, 88.18188
1271.907, 80.33301
1272.981, 65.36792
1274.054, 7.333496
1275.128, 28.07349
1276.201, 9.457275
1277.275, 51.66504
1278.348, 52.48926
1279.421, 70.61646
1280.493, 139.7651
1281.566, 112.0540
1282.638, 60.03809
1283.711, 102.8738
1284.783, 111.8828
1285.855, 43.08594
1286.927, 64.19653
1287.998, 77.96875
1289.070, 106.8516
1290.141, 57.46069
1291.212, 24.69751
1292.283, 30.50732
1293.354, 61.09619
1294.425, 19.06226
1295.495, 34.11182
1296.566, 84.76123
1297.636, 43.57959
1298.706, 64.19556
1299.776, 6.269043
1300.845, 57.22363
1301.915, 67.36377
1302.984, 87.83911
1304.054, 11.81274
1305.123, 28.51953
1306.191, 56.42529
1307.260, 100.4587
1308.329, 113.9539
1309.397, 34.64722
1310.465, 107.3191
1311.534, 86.09351
1312.602, 85.78247
1313.669, 102.5386
1314.737, 44.26025
1315.804, 97.07373
1316.872, 101.2932
1317.939, 75.08960
1319.006, 90.07642
1320.073, 65.89600
1321.139, 62.31714
1322.206, 67.00830
1323.272, 45.60815
1324.338, 25.29321
1325.404, 37.83984
1326.470, 7.760254
1327.536, 26.24829
1328.601, 20.71753
1329.667, 47.25317
1330.732, 19.53467
1331.797, 39.00415
1332.862, 53.76880
1333.926, 116.0076
1334.991, 27.82593
1336.055, 64.65601
1337.120, 8.016357
1338.184, 0.1472170
1339.248, 27.35229
1340.311, 68.61279
1341.375, 11.56104
1342.438, 10.12622
1343.502, 0.2265630
1344.565, 2.232666
1345.628, 21.45239
1346.691, 34.47949
1347.753, 28.29053
1348.816, 20.13159
1349.878, 39.30200
1350.940, 46.89575
1352.002, 74.84253
1353.064, 69.97339
1354.126, 42.77197
1355.187, 58.98340
1356.248, 60.59546
1357.310, 45.96094
1358.371, 45.92310
1359.431, 94.86646
1360.492, 89.88477
1361.553, 97.89966
1362.613, 107.9058
1363.673, 109.8840
1364.733, 111.1428
1365.793, 120.8984
1366.853, 114.9084
1367.912, 122.9165
1368.972, 142.9023
1370.031, 110.8674
1371.090, 216.8191
1372.149, 177.7610
1373.208, 173.6877
1374.267, 155.6145
1375.325, 97.54126
1376.383, 199.4685
1377.441, 211.3965
1378.499, 190.3245
1379.557, 196.2524
1380.615, 181.1809
1381.672, 149.8313
1382.730, 125.7600
1383.787, 102.6897
1384.844, 105.6194
1385.901, 106.5264
1386.957, 118.4578
1388.014, 70.39014
1389.070, 139.3235
1390.126, 55.25757
1391.182, 30.19287
1392.238, 74.12915
1393.294, 53.06665
1394.349, 87.00562
1395.405, 38.94556
1396.460, 57.88672
1397.515, 63.83032
1398.570, 40.77490
1399.625, 48.72046
1400.679, 56.66748
1401.734, 3.561523
1402.788, 62.48633
1403.842, 47.59692
1404.896, 15.66211
1405.950, 36.27319
1407.003, 0.7868650
1408.057, 2.842041
1409.110, 37.10840
1410.163, 82.06592
1411.216, 20.03149
1412.269, 5.995361
1413.322, 10.01465
1414.374, 31.97437
1415.427, 41.97363
1416.479, 3.016846
1417.531, 9.994873
1418.583, 15.03711
1419.634, 42.91772
1420.686, 25.86621
1421.737, 13.19556
1422.788, 61.72705
1423.839, 26.35571
1424.890, 41.54175
1425.941, 5.426514
1426.992, 25.37207
1428.042, 34.21582
1429.092, 14.03882
1430.142, 36.16479
1431.192, 0.3750000
1432.242, 93.64575
1433.291, 42.95605
1434.341, 48.30957
1435.390, 56.71411
1436.439, 100.1758
1437.488, 92.70288
1438.537, 95.45459
1439.586, 33.19287
1440.634, 137.9409
1441.682, 40.71460
1442.731, 119.7847
1443.779, 72.87061
1444.826, 117.9663
1445.874, 125.3054
1446.922, 114.1250
1447.969, 114.4221
1449.016, 189.6099
1450.063, 139.8135
1451.110, 342.0339
1452.157, 270.5842
1453.203, 536.3601
1454.250, 245.0063
1455.296, 213.6199
1456.342, 246.4143
1457.388, 212.6912
1458.433, 304.9756
1459.479, 245.2676
1460.524, 296.5686
1461.570, 299.8813
1462.615, 289.2129
1463.660, 240.5562
1464.705, 248.9065
1465.749, 271.2646
1466.794, 279.6304
1467.838, 307.0039
1468.882, 266.3862
1469.926, 287.7781
1470.970, 272.1809
1472.013, 317.5947
1473.057, 357.0198
1474.100, 318.4565
1475.143, 306.9092
1476.186, 268.3743
1477.229, 368.8528
1478.272, 287.3450
1479.314, 335.8506
1480.357, 350.3711
1481.399, 275.9062
1482.441, 364.4568
1483.483, 392.0232
1484.525, 382.6055
1485.566, 359.9529
1486.608, 396.3801
1487.649, 350.4668
1488.690, 329.9885
1489.731, 405.0847
1490.771, 328.9355
1491.812, 429.2368
1492.853, 416.1165
1493.893, 473.5310
1494.933, 443.9973
1495.973, 434.2292
1497.013, 482.4253
1498.052, 459.2441
1499.092, 474.5415
1500.131, 457.8762
1501.170, 465.2090
1502.209, 476.5352
1503.248, 482.8462
1504.287, 492.0039
1505.325, 459.4321
1506.363, 514.7324
1507.402, 501.0383
1508.440, 523.3486
1509.478, 490.6621
1510.515, 517.9985
1511.553, 464.3735
1512.590, 467.7583
1513.627, 478.9854
1514.664, 545.5366
1515.701, 504.9287
1516.738, 516.3218
1517.775, 526.7148
1518.811, 478.1069
1519.847, 511.4973
1520.883, 468.8843
1521.919, 425.2661
1522.955, 506.6411
1523.991, 480.0076
1525.026, 418.3623
1526.061, 378.8164
1527.096, 480.4194
1528.131, 469.0400
1529.166, 448.6982
1530.201, 406.4668
1531.235, 434.5364
1532.270, 350.8315
1533.304, 360.2500
1534.338, 362.7373
1535.372, 251.3025
1536.405, 366.9551
1537.439, 240.7034
1538.472, 246.5566
1539.505, 238.5229
1540.538, 189.6143
1541.571, 254.8450
1542.604, 256.2336
1543.637, 162.8025
1544.669, 234.5779
1545.701, 212.5930
1546.733, 150.8735
1547.765, 176.4453
1548.797, 152.3452
1549.829, 242.5376
1550.860, 149.0859
1551.891, 229.0271
1552.922, 228.4180
1553.953, 230.3276
1554.984, 293.8374
1556.015, 255.0430
1557.045, 38.05322
1558.076, 45.00537
1559.106, 45.09424
1560.136, 55.58130
1561.165, 22.81787
1562.195, 4.698975
1563.225, 2.763672
1564.254, 59.35718
1565.283, 0.0000000E+00
##END=



