##NAMES=Cassiterite
##RRUFFID=R040072
##IDEAL CHEMISTRY=SnO_2_
##LOCALITY=Bolivia
##OWNER=RRUFF
##SOURCE=University of Arizona Mineral Museum
##DESCRIPTION=Black fragment
##STATUS=The identification of this mineral has been confirmed by X-ray diffraction and chemical analysis
##URL=rruff.info/R040072
##MEASURED CHEMISTRY=Sn_0.99_O_2_
##PIN_ID=L00343
##ORIENTATION=Laser parallel to c* (0 0 1). Fiducial mark perpendicular to laser is parallel to a [1 0 0]
189.818, 0.000
191.200, 0.524
192.581, 23.211
193.963, 4.215
195.343, 38.184
196.724, 12.400
198.105, 7.251
199.485, 15.606
200.865, 10.615
202.245, 45.536
203.624, 47.546
205.004, 65.645
206.383, 36.791
207.762, 39.925
209.140, 3.007
210.519, 8.966
211.897, 76.846
213.275, 65.849
214.653, 150.018
216.030, 193.469
217.408, 244.094
218.785, 294.607
220.162, 286.146
221.538, 276.583
222.915, 213.868
224.291, 261.961
225.667, 196.854
227.042, 211.562
228.418, 221.100
229.793, 214.485
231.168, 181.741
232.543, 195.982
233.917, 218.338
235.292, 192.950
236.666, 211.221
238.040, 228.518
239.413, 193.779
240.787, 258.496
242.160, 201.422
243.533, 300.093
244.906, 273.707
246.278, 243.278
247.651, 299.369
249.023, 259.669
250.395, 328.167
251.766, 285.759
253.138, 364.501
254.509, 343.019
255.880, 334.703
257.250, 332.422
258.621, 265.076
259.991, 347.671
261.361, 466.209
262.731, 434.694
264.101, 444.912
265.470, 416.752
266.839, 352.033
268.208, 299.474
269.577, 254.909
270.945, 213.463
272.313, 175.406
273.681, 146.668
275.049, 125.275
276.417, 97.469
277.784, 100.721
279.151, 73.910
280.518, 17.071
281.885, 9.161
283.251, 27.658
284.617, 22.747
285.983, 30.439
287.349, 47.068
288.715, 30.961
290.080, 10.741
291.445, 31.750
292.810, 25.008
294.174, 5.904
295.539, 19.239
296.903, 19.564
298.267, 21.192
299.631, 77.847
300.994, 41.645
302.357, 92.324
303.720, 65.996
305.083, 15.750
306.446, 0.187
307.808, 1.449
309.170, 45.375
310.532, 32.382
311.894, 37.163
313.256, 22.695
314.617, 14.207
315.978, 32.697
317.339, 12.167
318.699, 65.211
320.060, 4.648
321.420, 101.078
322.780, 124.494
324.139, 69.896
325.499, 105.287
326.858, 33.671
328.217, 77.050
329.576, 64.424
330.934, 32.798
332.293, 71.170
333.651, 39.543
335.009, 88.917
336.367, 52.292
337.724, 76.054
339.081, 120.631
340.438, 71.244
341.795, 115.799
343.152, 61.352
344.508, 110.882
345.864, 67.364
347.220, 74.833
348.576, 42.256
349.931, 6.694
351.286, 59.116
352.641, 14.522
353.996, 4.911
355.351, 7.717
356.705, 19.621
358.059, 28.460
359.413, 31.047
360.767, 44.750
362.120, 52.477
363.473, 57.227
364.826, 27.003
366.179, 70.801
367.532, 53.672
368.884, 76.473
370.236, 53.346
371.588, 76.242
372.940, 76.162
374.291, 65.104
375.643, 68.066
376.994, 53.048
378.344, 9.047
379.695, 25.060
381.045, 1.913
382.395, 26.132
383.745, 23.790
385.095, 28.691
386.444, 2.424
387.794, 44.424
389.143, 7.248
390.491, 77.045
391.840, 28.180
393.188, 24.584
394.537, 14.339
395.884, 14.926
397.232, 27.786
398.580, 18.510
399.927, 21.185
401.274, 22.127
402.621, 27.552
403.967, 11.228
405.314, 31.098
406.660, 0.428
408.006, 17.760
409.352, 45.906
410.697, 7.429
412.042, 43.235
413.387, 82.898
414.732, 33.562
416.077, 30.224
417.421, 17.886
418.765, 6.453
420.109, 16.962
421.453, 73.165
422.797, 49.555
424.140, 46.965
425.483, 55.401
426.826, 17.208
428.168, 42.594
429.511, 9.626
430.853, 13.762
432.195, 38.002
433.537, 70.397
434.878, 55.659
436.220, 129.652
437.561, 4.711
438.902, 33.940
440.242, 9.629
441.583, 31.802
442.923, 32.196
444.263, 46.440
445.603, 59.065
446.942, 5.518
448.282, 83.035
449.621, 47.558
450.960, 40.784
452.298, 112.725
453.637, 94.617
454.975, 154.123
456.313, 136.306
457.651, 173.795
458.989, 195.159
460.326, 229.339
461.663, 310.937
463.000, 335.224
464.337, 389.801
465.673, 472.988
467.010, 449.582
468.346, 583.186
469.682, 525.800
471.017, 620.423
472.353, 601.056
473.688, 575.699
475.023, 648.353
476.358, 516.017
477.692, 633.691
479.026, 662.377
480.361, 650.073
481.694, 712.780
483.028, 758.472
484.362, 858.208
485.695, 912.930
487.028, 982.657
488.361, 1103.390
489.693, 918.130
491.026, 1120.875
492.358, 1056.628
493.690, 1247.388
495.021, 1403.085
496.353, 1380.859
497.684, 1559.640
499.015, 1382.354
500.346, 1423.807
501.677, 1339.002
503.007, 1148.011
504.337, 1206.978
505.667, 1041.646
506.997, 1116.153
508.327, 1018.570
509.656, 981.710
510.985, 967.854
512.314, 807.416
513.643, 889.471
514.971, 710.085
516.300, 685.191
517.628, 664.322
518.956, 471.734
520.283, 508.101
521.611, 330.843
522.938, 367.604
524.265, 385.047
525.591, 253.032
526.918, 355.503
528.244, 346.539
529.570, 423.589
530.896, 446.581
532.222, 419.660
533.547, 664.754
534.873, 655.863
536.198, 865.479
537.523, 867.619
538.847, 944.775
540.171, 1184.708
541.496, 1015.896
542.820, 1055.810
544.143, 905.031
545.467, 886.926
546.790, 889.181
548.113, 725.453
549.436, 811.255
550.759, 717.541
552.081, 771.629
553.404, 789.971
554.726, 617.246
556.047, 709.624
557.369, 545.019
558.690, 589.432
560.011, 534.863
561.332, 426.313
562.653, 520.712
563.974, 401.006
565.294, 454.290
566.614, 464.089
567.934, 364.965
569.254, 419.712
570.573, 341.119
571.892, 392.170
573.211, 354.801
574.530, 287.454
575.849, 366.129
577.167, 276.825
578.485, 310.542
579.803, 343.283
581.121, 275.052
582.438, 376.842
583.756, 303.658
585.073, 445.497
586.390, 379.362
587.706, 376.729
589.023, 487.643
590.339, 415.577
591.655, 657.534
592.971, 608.513
594.287, 688.515
595.602, 822.542
596.917, 841.594
598.232, 995.668
599.547, 1027.771
600.861, 1160.896
602.176, 1374.044
603.490, 1363.216
604.804, 1707.411
606.118, 1721.630
607.431, 1998.872
608.744, 2275.138
610.057, 2389.426
611.370, 2881.737
612.683, 2951.071
613.995, 3517.429
615.307, 4139.809
616.619, 4591.218
617.931, 5751.649
619.243, 6251.104
620.554, 7798.587
621.865, 9418.098
623.176, 11157.639
624.487, 14907.207
625.797, 17536.801
627.108, 24046.424
628.418, 30536.080
629.728, 37675.766
631.037, 48545.480
632.347, 49375.219
633.656, 51774.988
634.965, 45964.793
636.274, 36034.629
637.582, 30304.492
638.891, 21974.387
640.199, 17704.309
641.507, 13944.271
642.815, 10804.264
644.122, 9454.294
645.430, 7365.355
646.737, 6625.453
648.044, 5688.585
649.350, 4704.752
650.657, 4488.959
651.963, 3709.195
653.269, 3452.469
654.575, 3010.781
655.881, 2630.133
657.186, 2611.524
658.491, 2185.951
659.796, 2175.416
661.101, 2013.913
662.406, 1845.441
663.710, 1866.002
665.014, 1624.592
666.318, 1662.210
667.622, 1495.855
668.926, 1430.528
670.229, 1540.225
671.532, 1363.945
672.835, 1333.692
674.138, 1338.462
675.440, 1252.255
676.743, 1358.071
678.045, 1152.913
679.347, 1257.779
680.648, 1217.667
681.950, 1238.580
683.251, 1366.516
684.552, 1201.476
685.853, 1412.459
687.153, 1377.467
688.454, 1374.498
689.754, 1606.551
691.054, 1439.629
692.354, 1772.730
693.653, 1726.855
694.953, 1631.002
696.252, 1737.172
697.551, 1378.365
698.849, 1360.580
700.148, 1090.816
701.446, 815.075
702.744, 801.355
704.042, 498.658
705.340, 535.984
706.637, 422.337
707.935, 385.716
709.232, 510.120
710.529, 349.550
711.825, 436.002
713.122, 429.478
714.418, 408.975
715.714, 555.493
717.010, 404.032
718.305, 534.591
719.601, 487.171
720.896, 455.772
722.191, 484.394
723.486, 318.035
724.780, 363.697
726.075, 340.378
727.369, 261.080
728.663, 330.803
729.956, 265.547
731.250, 293.310
732.543, 250.092
733.836, 217.894
735.129, 308.715
736.422, 233.554
737.714, 270.413
739.007, 252.290
740.299, 206.186
741.591, 298.101
742.882, 220.033
744.174, 232.984
745.465, 295.952
746.756, 195.939
748.047, 240.943
749.337, 202.965
750.628, 298.005
751.918, 300.061
753.208, 245.256
754.498, 389.347
755.787, 345.488
757.077, 446.612
758.366, 538.949
759.655, 585.956
760.944, 850.956
762.232, 917.787
763.520, 1240.589
764.809, 1673.501
766.096, 1983.895
767.384, 2738.887
768.672, 3320.059
769.959, 3987.854
771.246, 4891.571
772.533, 5102.864
773.820, 5831.754
775.106, 5706.337
776.392, 5357.168
777.679, 5402.994
778.964, 4489.696
780.250, 4006.137
781.536, 3405.060
782.821, 2846.628
784.106, 2554.632
785.391, 2107.676
786.675, 1930.481
787.960, 1784.579
789.244, 1561.973
790.528, 1518.825
791.812, 1323.504
793.095, 1239.730
794.379, 1201.507
795.662, 1017.014
796.945, 1117.258
798.228, 956.886
799.510, 1007.516
800.793, 896.107
802.075, 805.400
803.357, 852.497
804.639, 699.610
805.920, 668.593
807.201, 681.583
808.483, 520.194
809.764, 639.929
811.044, 482.904
812.325, 468.534
813.605, 467.171
814.885, 375.814
816.165, 419.464
817.445, 304.120
818.724, 260.781
820.004, 209.449
821.283, 160.122
822.562, 148.800
823.840, 160.483
825.119, 120.170
826.397, 111.863
827.675, 61.559
828.953, 110.259
830.231, 40.963
831.508, 25.670
832.785, 80.381
834.062, 35.096
835.339, 90.813
836.616, 50.533
837.892, 48.256
839.169, 127.982
840.445, 85.710
841.720, 148.440
842.996, 213.172
844.272, 200.907
845.547, 316.642
846.822, 283.380
848.097, 351.118
849.371, 407.858
850.646, 274.599
851.920, 356.340
853.194, 396.082
854.468, 371.825
855.741, 365.567
857.015, 329.310
858.288, 416.052
859.561, 473.795
860.834, 382.537
862.106, 461.278
863.378, 355.019
864.651, 434.758
865.923, 387.497
867.194, 351.234
868.466, 407.969
869.737, 260.704
871.008, 330.436
872.279, 287.166
873.550, 255.895
874.821, 307.621
876.091, 250.344
877.361, 221.065
878.631, 232.784
879.901, 147.499
881.170, 173.211
882.440, 107.920
883.709, 127.625
884.978, 133.328
886.247, 9.026
887.515, 85.720
888.783, 37.411
890.052, 7.903
891.320, 62.777
892.587, 52.547
893.855, 23.114
895.122, 12.229
896.389, 42.579
897.656, 40.942
898.923, 75.319
900.189, 29.717
901.456, 33.125
902.722, 52.547
903.988, 76.984
905.253, 40.443
906.519, 65.917
907.784, 18.409
909.049, 84.911
910.314, 66.437
911.579, 51.984
912.843, 61.550
914.108, 17.136
915.372, 96.734
916.636, 84.361
917.899, 61.015
919.163, 87.690
920.426, 19.393
921.689, 63.108
922.952, 51.847
924.215, 20.447
925.477, 75.137
926.740, 7.934
928.002, 42.549
929.264, 65.065
930.525, 44.898
931.787, 75.179
933.048, 20.060
934.309, 35.694
935.570, 9.526
936.831, 13.807
938.091, 18.731
939.352, 9.519
940.612, 9.419
941.872, 3.041
943.131, 2.601
944.391, 36.162
945.650, 12.188
946.909, 0.191
948.168, 39.255
949.427, 124.198
950.685, 46.314
951.944, 45.446
953.202, 170.399
954.460, 91.391
955.717, 173.396
956.975, 173.315
958.232, 172.398
959.489, 265.266
960.746, 147.150
962.003, 211.992
963.259, 286.823
964.516, 249.644
965.772, 293.454
967.028, 305.253
968.283, 301.042
969.539, 365.819
970.794, 312.584
972.049, 434.339
973.304, 369.082
974.559, 340.814
975.813, 399.535
977.068, 317.244
978.322, 325.941
979.576, 301.627
980.830, 235.301
982.083, 288.963
983.336, 204.613
984.589, 232.251
985.842, 232.878
987.095, 141.492
988.348, 194.094
989.600, 178.684
990.852, 97.262
992.104, 151.827
993.356, 128.380
994.607, 171.921
995.859, 173.449
997.110, 123.965
998.361, 140.468
999.612, 163.958
1000.862, 205.436
1002.112, 239.901
1003.363, 159.353
1004.613, 245.792
1005.862, 180.219
1007.112, 160.633
1008.361, 207.033
1009.610, 164.421
1010.859, 222.796
1012.108, 219.158
1013.357, 170.506
1014.605, 267.842
1015.853, 200.164
1017.101, 247.474
1018.349, 226.770
1019.597, 226.053
1020.844, 240.323
1022.091, 281.579
1023.338, 259.823
1024.585, 307.082
1025.832, 279.190
1027.078, 273.425
1028.324, 306.680
1029.570, 261.993
1030.816, 334.121
1032.062, 310.612
1033.307, 287.034
1034.552, 342.774
1035.797, 239.412
1037.042, 314.056
1038.287, 350.264
1039.531, 215.947
1040.776, 270.444
1042.020, 232.416
1043.264, 205.295
1044.507, 280.869
1045.751, 191.562
1046.994, 208.543
1048.237, 202.185
1049.480, 163.808
1050.723, 178.737
1051.965, 106.665
1053.207, 144.313
1054.449, 133.421
1055.691, 75.834
1056.933, 83.422
1058.174, 39.182
1059.416, 55.770
1060.657, 75.069
1061.898, 30.748
1063.139, 15.825
1064.379, 67.211
1065.619, 2.057
1066.860, 66.225
1068.100, 16.522
1069.339, 36.421
1070.579, 22.627
1071.818, 5.623
1073.057, 31.935
1074.296, 53.629
1075.535, 8.298
1076.774, 60.931
1078.012, 32.617
1079.250, 60.458
1080.488, 63.286
1081.726, 47.694
1082.964, 78.446
1084.201, 33.367
1085.438, 28.012
1086.675, 64.650
1087.912, 54.280
1089.149, 49.902
1090.385, 66.561
1091.621, 29.171
1092.857, 73.979
1094.093, 68.569
1095.329, 86.150
1096.564, 107.774
1097.800, 114.245
1099.035, 126.009
1100.270, 123.552
1101.504, 128.085
1102.739, 131.895
1103.973, 122.120
1105.207, 137.623
1106.441, 138.115
1107.675, 142.595
1108.908, 166.064
1110.142, 184.522
1111.375, 130.968
1112.608, 183.402
1113.841, 146.824
1115.073, 179.234
1116.305, 203.633
1117.538, 152.019
1118.770, 243.394
1120.001, 208.755
1121.233, 241.105
1122.464, 251.443
1123.696, 210.767
1124.927, 218.080
1126.157, 223.381
1127.388, 192.671
1128.618, 212.949
1129.849, 179.216
1131.079, 160.472
1132.309, 185.715
1133.538, 192.948
1134.768, 182.169
1135.997, 183.381
1137.226, 187.581
1138.455, 190.775
1139.684, 182.961
1140.912, 156.135
1142.140, 178.302
1143.369, 124.457
1144.596, 170.604
1145.824, 125.740
1147.052, 124.869
1148.279, 144.991
1149.506, 109.103
1150.733, 108.204
1151.960, 123.296
1153.187, 97.382
1154.413, 131.459
1155.639, 105.530
1156.865, 84.592
1158.091, 88.646
1159.317, 84.691
1160.542, 70.724
1161.767, 62.757
1162.992, 57.794
1164.217, 51.936
1165.442, 68.815
1166.666, 37.818
1167.891, 66.815
1169.115, 42.842
1170.338, 33.828
1171.562, 20.886
1172.786, 22.022
1174.009, 12.071
1175.232, 38.225
1176.455, 3.652
1177.678, 42.743
1178.900, 47.840
1180.123, 68.037
1181.345, 73.945
1182.567, 35.096
1183.789, 92.002
1185.010, 48.975
1186.232, 26.922
1187.453, 82.870
1188.674, 36.878
1189.895, 52.084
1191.115, 25.937
1192.336, 24.969
1193.556, 60.146
1194.776, 17.807
1195.996, 42.589
1197.216, 64.745
1198.435, 14.253
1199.655, 57.395
1200.874, 60.292
1202.093, 9.547
1203.311, 47.410
1204.530, 42.983
1205.748, 14.306
1206.966, 15.301
1208.184, 40.017
1209.402, 27.058
1210.620, 74.811
1211.837, 50.808
1213.054, 88.846
1214.271, 88.844
1215.488, 51.029
1216.705, 131.083
1217.921, 118.690
1219.138, 121.318
1220.354, 134.536
1221.570, 101.733
1222.785, 131.275
1224.001, 68.987
1225.216, 136.260
1226.431, 139.328
1227.646, 104.090
1228.861, 90.088
1230.075, 123.187
1231.290, 134.877
1232.504, 173.743
1233.718, 179.496
1234.932, 184.776
1236.145, 194.831
1237.359, 181.391
1238.572, 185.892
1239.785, 186.309
1240.998, 146.663
1242.211, 186.971
1243.423, 178.261
1244.635, 151.464
1245.848, 181.747
1247.059, 158.938
1248.271, 186.223
1249.483, 159.248
1250.694, 159.312
1251.905, 174.632
1253.116, 207.577
1254.327, 149.541
1255.538, 197.661
1256.748, 163.890
1257.958, 208.058
1259.168, 152.234
1260.378, 135.459
1261.588, 144.574
1262.797, 167.663
1264.006, 170.867
1265.215, 218.055
1266.424, 170.548
1267.633, 161.538
1268.842, 212.835
1270.050, 188.652
1271.258, 179.537
1272.466, 217.374
1273.674, 162.509
1274.881, 179.090
1276.089, 204.270
1277.296, 147.227
1278.503, 185.965
1279.710, 168.370
1280.916, 164.452
1282.123, 173.713
1283.329, 137.776
1284.535, 173.301
1285.741, 155.270
1286.947, 149.755
1288.152, 168.270
1289.358, 146.408
1290.563, 158.330
1291.768, 208.307
1292.973, 140.716
1294.177, 203.407
1295.382, 183.349
1296.586, 178.195
1297.790, 169.657
1298.994, 140.816
1300.197, 166.471
1301.401, 132.484
1302.604, 115.017
1303.807, 124.039
1305.010, 115.302
1306.213, 46.357
1307.415, 117.057
1308.618, 114.001
1309.820, 90.708
1311.022, 171.481
1312.223, 96.398
1313.425, 147.799
1314.626, 132.432
1315.828, 135.998
1317.029, 134.265
1318.230, 118.779
1319.430, 74.034
1320.631, 113.330
1321.831, 88.477
1323.031, 72.589
1324.231, 138.838
1325.431, 84.831
1326.630, 64.942
1327.830, 79.123
1329.029, 63.990
1330.228, 57.073
1331.427, 26.133
1332.625, 69.845
1333.824, 87.750
1335.022, 12.593
1336.220, 61.203
1337.418, 54.770
1338.616, 50.447
1339.813, 80.015
1341.010, 50.743
1342.208, 44.298
1343.404, 38.968
1344.601, 28.572
1345.798, 20.939
1346.994, 12.499
1348.190, 7.005
1349.386, 10.413
1350.582, 8.773
1351.778, 48.736
1352.973, 41.507
1354.169, 6.496
1355.364, 17.866
1356.559, 54.968
1357.753, 23.974
1358.948, 12.894
1360.142, 55.859
1361.336, 30.817
1362.530, 43.684
1363.724, 56.502
1364.918, 36.381
1366.111, 58.908
1367.305, 66.757
1368.498, 79.418
1369.690, 87.977
1370.883, 92.485
1372.076, 90.945
1373.268, 104.357
1374.460, 81.717
1375.652, 96.031
1376.844, 70.291
1378.035, 120.503
1379.227, 106.667
1380.418, 46.783
1381.609, 120.845
1382.800, 110.859
1383.991, 71.827
1385.181, 44.747
1386.371, 49.619
1387.562, 44.445
1388.751, 36.225
1389.941, 44.960
1391.131, 44.654
1392.320, 29.307
1393.509, 27.923
1394.698, 1.775
1395.887, 43.064
1397.076, 34.782
1398.264, 14.677
1399.453, 53.384
1400.641, 16.601
1401.829, 20.362
1403.016, 6.725
1404.204, 14.139
1405.391, 24.057
1406.578, 15.310
1407.765, 1.614
1408.952, 17.007
1410.139, 3.859
1411.325, 31.881
1412.512, 9.449
1413.698, 29.307
1414.884, 9.263
1416.069, 12.688
1417.255, 4.063
1418.440, 16.005
1419.625, 37.908
1420.810, 15.917
1421.995, 19.584
1423.180, 42.907
1424.364, 8.616
1425.548, 26.723
1426.732, 52.263
1427.916, 8.193
1429.100, 11.812
1430.284, 5.348
1431.467, 52.901
1432.650, 14.564
1433.833, 50.771
1435.016, 62.459
1436.199, 61.404
1437.381, 109.391
1438.563, 103.833
1439.745, 70.725
1440.927, 147.346
1442.109, 150.716
1443.290, 99.190
1444.472, 153.816
1445.653, 130.727
1446.834, 168.917
1448.015, 174.201
1449.195, 134.480
1450.376, 174.577
1451.556, 201.150
1452.736, 178.212
1453.916, 247.391
1455.096, 203.768
1456.275, 206.894
1457.454, 223.142
1458.634, 184.763
1459.813, 170.916
1460.991, 257.420
1462.170, 149.375
1463.348, 191.980
1464.527, 195.282
1465.705, 143.123
1466.883, 235.300
1468.060, 168.171
1469.238, 109.778
1470.415, 188.615
1471.592, 124.063
1472.769, 128.471
1473.946, 175.475
1475.123, 89.967
1476.299, 148.899
1477.476, 107.703
1478.652, 33.510
1479.828, 126.387
1481.003, 154.403
1482.179, 32.224
1483.354, 154.271
1484.529, 91.589
1485.704, 68.720
1486.879, 136.582
1488.054, 62.140
1489.228, 104.389
1490.403, 103.348
1491.577, 40.028
1492.751, 128.604
1493.924, 76.037
1495.098, 46.400
1496.271, 122.817
1497.444, 63.370
1498.618, 66.121
1499.790, 179.219
1500.963, 115.187
1502.135, 85.499
1503.308, 206.297
1504.480, 104.123
1505.652, 179.714
1506.824, 196.535
1507.995, 123.402
1509.167, 239.759
1510.338, 143.613
1511.509, 110.479
1512.680, 222.407
1513.850, 157.460
1515.021, 97.609
1516.191, 265.074
1517.361, 95.827
1518.531, 130.975
1519.701, 90.732
1520.871, 2.592
1522.040, 0.000
##END=



