##NAMES=Cassiterite
##RRUFFID=R050502
##IDEAL CHEMISTRY=SnO_2_
##LOCALITY=Redruth, Cornwall, England
##OWNER=RRUFF
##SOURCE=California Institute of Technology
##DESCRIPTION=Black crystals associated with colorless quartz and grey stannite.
##STATUS=The identification of this mineral has been confirmed by X-ray diffraction and chemical analysis
##URL=rruff.info/R050502
##MEASURED CHEMISTRY=SnO_2_
##PIN_ID=M00499
##ORIENTATION=Laser parallel to a* (1 0 0). Fiducial mark perpendicular to laser is parallel to -c [0 0 -1]
185.7910, 0.0000000E+00
187.0220, 105.8623
188.2540, 108.2256
189.4840, 70.91309
190.7150, 41.68750
191.9460, 37.51660
193.1760, 19.52539
194.4060, 103.7988
195.6360, 186.3057
196.8660, 265.2979
198.0960, 353.4043
199.3250, 612.0898
200.5540, 731.0400
201.7830, 1065.642
203.0120, 1122.159
204.2400, 1121.944
205.4690, 1525.395
206.6970, 1457.920
207.9250, 1609.987
209.1530, 2074.564
210.3800, 2399.641
211.6080, 3036.938
212.8350, 3476.484
214.0620, 3999.755
215.2880, 4604.018
216.5150, 5132.537
217.7410, 5626.764
218.9680, 6427.521
220.1940, 7181.625
221.4190, 7709.009
222.6450, 8522.497
223.8700, 9288.679
225.0960, 9968.356
226.3210, 10644.31
227.5450, 11471.34
228.7700, 12139.35
229.9940, 12762.61
231.2190, 13304.13
232.4430, 13592.07
233.6660, 13981.95
234.8900, 14264.97
236.1140, 14318.07
237.3370, 14575.50
238.5600, 14601.46
239.7830, 14077.76
241.0050, 13351.80
242.2280, 12996.68
243.4500, 12026.66
244.6720, 11235.54
245.8940, 10420.33
247.1160, 9220.176
248.3370, 8453.238
249.5580, 7385.973
250.7790, 6331.592
252.0000, 5623.307
253.2210, 4778.100
254.4410, 4106.287
255.6620, 3558.854
256.8820, 3033.854
258.1020, 2874.909
259.3210, 2453.777
260.5410, 2157.875
261.7600, 1914.342
262.9790, 1667.971
264.1980, 1481.693
265.4170, 1315.135
266.6360, 1208.895
267.8540, 1132.502
269.0720, 1119.231
270.2900, 1092.030
271.5080, 1148.181
272.7260, 1053.318
273.9430, 1323.076
275.1600, 1690.143
276.3770, 2224.805
277.5940, 2994.891
278.8100, 3736.088
280.0270, 4560.332
281.2430, 5260.607
282.4590, 5803.494
283.6750, 6098.061
284.8910, 6353.850
286.1060, 6426.975
287.3210, 6235.594
288.5360, 5876.391
289.7510, 5508.521
290.9660, 5118.323
292.1800, 4842.702
293.3950, 4493.971
294.6090, 4243.033
295.8230, 3907.896
297.0360, 3698.666
298.2500, 3386.250
299.4630, 3171.493
300.6760, 3069.369
301.8890, 2870.719
303.1020, 2663.094
304.3150, 2626.119
305.5270, 2476.916
306.7390, 2285.452
307.9510, 2147.703
309.1630, 2164.642
310.3750, 2036.249
311.5860, 1900.507
312.7970, 1766.415
314.0080, 1717.968
315.2190, 1609.166
316.4300, 1512.016
317.6400, 1557.526
318.8510, 1376.702
320.0610, 1438.554
321.2710, 1231.090
322.4800, 1295.310
323.6900, 1050.210
324.8990, 1161.792
326.1080, 1015.057
327.3170, 989.0083
328.5260, 1019.639
329.7340, 819.9536
330.9430, 1002.955
332.1510, 937.2202
333.3590, 978.5625
334.5670, 1040.777
335.7740, 998.3149
336.9820, 979.4199
338.1890, 1061.292
339.3960, 990.2266
340.6030, 1116.166
341.8100, 1065.068
343.0160, 1183.896
344.2220, 1118.623
345.4280, 1205.219
346.6340, 1354.663
347.8400, 1389.933
349.0460, 1347.010
350.2510, 1346.879
351.4560, 1403.527
352.6610, 1482.943
353.8660, 1430.122
355.0700, 1440.054
356.2750, 1463.729
357.4790, 1334.129
358.6830, 1041.241
359.8870, 956.0444
361.0910, 637.5278
362.2940, 439.6743
363.4970, 233.4678
364.7000, 42.88135
365.9030, 160.1245
367.1060, 315.6025
368.3080, 511.5957
369.5110, 490.1523
370.7130, 550.2656
371.9150, 574.9468
373.1170, 458.1982
374.3180, 488.9829
375.5200, 504.0078
376.7210, 583.1758
377.9220, 521.6416
379.1230, 640.7148
380.3230, 526.4536
381.5240, 544.8481
382.7240, 561.9165
383.9240, 499.6689
385.1240, 479.0869
386.3240, 447.1577
387.5230, 455.8613
388.7230, 414.1875
389.9220, 361.1094
391.1210, 403.5962
392.3200, 297.6440
393.5180, 152.2124
394.7170, 187.2573
395.9150, 97.78613
397.1130, 63.76807
398.3110, 85.18701
399.5080, 34.02979
400.7060, 123.3247
401.9030, 7.048828
403.1000, 33.17773
404.2970, 26.69629
405.4940, 28.41309
406.6910, 45.16992
407.8870, 136.5903
409.0830, 134.7021
410.2790, 239.5156
411.4750, 327.0522
412.6710, 504.3252
413.8660, 559.9834
415.0610, 675.5244
416.2560, 740.6699
417.4510, 861.9668
418.6460, 1003.990
419.8410, 1103.651
421.0350, 1257.716
422.2290, 1462.337
423.4230, 1703.166
424.6170, 1966.518
425.8100, 2264.009
427.0040, 2644.619
428.1970, 3109.351
429.3900, 3529.258
430.5830, 4225.410
431.7760, 5132.865
432.9680, 5626.692
434.1610, 6696.943
435.3530, 7559.770
436.5450, 8413.252
437.7360, 9043.428
438.9280, 9357.307
440.1190, 9788.928
441.3110, 9846.350
442.5020, 9584.641
443.6930, 9336.832
444.8830, 8963.943
446.0740, 8732.989
447.2640, 8372.984
448.4540, 7894.936
449.6440, 7423.847
450.8340, 6918.718
452.0240, 6657.553
453.2130, 6463.354
454.4020, 6180.121
455.5910, 6056.591
456.7800, 6132.545
457.9690, 6272.347
459.1570, 6388.750
460.3460, 6738.800
461.5340, 6989.102
462.7220, 7571.709
463.9090, 7944.644
465.0970, 8524.780
466.2840, 9022.257
467.4720, 9508.416
468.6590, 10052.49
469.8460, 10467.67
471.0320, 11234.80
472.2190, 11386.36
473.4050, 11567.41
474.5910, 11467.17
475.7770, 10836.32
476.9630, 10129.75
478.1490, 9065.499
479.3340, 8232.964
480.5190, 7475.220
481.7040, 6543.802
482.8890, 6126.996
484.0740, 5669.628
485.2580, 5653.960
486.4430, 5474.700
487.6270, 5473.083
488.8110, 5432.423
489.9950, 5440.947
491.1780, 5425.219
492.3620, 5529.234
493.5450, 5568.174
494.7280, 5536.277
495.9110, 5634.645
497.0940, 5567.724
498.2760, 5553.781
499.4590, 5548.877
500.6410, 5336.371
501.8230, 5279.586
503.0050, 5344.395
504.1860, 5219.588
505.3680, 5222.960
506.5490, 4942.308
507.7300, 5043.482
508.9110, 4783.117
510.0920, 4812.127
511.2730, 4624.979
512.4530, 4572.336
513.6330, 4382.090
514.8130, 4333.483
515.9930, 4312.403
517.1730, 4201.605
518.3520, 4054.093
519.5320, 3896.851
520.7110, 3657.726
521.8900, 3593.406
523.0690, 3458.553
524.2470, 3503.864
525.4260, 3512.448
526.6040, 3347.305
527.7820, 3156.852
528.9600, 3249.810
530.1380, 3163.662
531.3150, 2972.587
532.4930, 3176.340
533.6700, 3058.923
534.8470, 3187.698
536.0240, 3182.135
537.2000, 3176.920
538.3770, 3400.898
539.5530, 3432.592
540.7290, 3526.512
541.9050, 3598.218
543.0810, 3628.905
544.2570, 3690.479
545.4320, 3556.002
546.6080, 3573.507
547.7830, 3598.043
548.9580, 3761.980
550.1320, 3732.908
551.3070, 3697.161
552.4810, 3956.208
553.6550, 3858.296
554.8300, 4114.830
556.0030, 4133.785
557.1770, 4188.412
558.3510, 4317.503
559.5240, 4507.297
560.6970, 4640.880
561.8700, 4629.713
563.0430, 4541.676
564.2160, 4856.772
565.3880, 4800.006
566.5600, 4595.385
567.7320, 4849.911
568.9040, 4623.589
570.0760, 4656.426
571.2480, 4746.426
572.4190, 4619.590
573.5900, 4526.926
574.7610, 4567.436
575.9320, 4676.121
577.1030, 4576.988
578.2740, 4543.037
579.4440, 4731.271
580.6140, 4562.691
581.7840, 4619.301
582.9540, 4589.101
584.1240, 4532.094
585.2930, 4755.281
586.4630, 4723.664
587.6320, 4734.239
588.8010, 5023.014
589.9700, 5052.984
591.1380, 5150.158
592.3070, 5278.525
593.4750, 5303.098
594.6430, 5520.871
595.8110, 5780.848
596.9790, 5927.027
598.1460, 6211.414
599.3140, 6434.011
600.4810, 6908.819
601.6480, 6976.842
602.8150, 7519.076
603.9820, 7951.527
605.1480, 8203.196
606.3150, 8531.085
607.4810, 9282.194
608.6470, 9740.543
609.8130, 10360.11
610.9790, 10556.91
612.1440, 11064.94
613.3100, 11639.22
614.4750, 12372.74
615.6400, 12804.50
616.8050, 13672.50
617.9690, 14657.73
619.1340, 15654.20
620.2980, 17318.91
621.4620, 18792.86
622.6260, 21137.10
623.7900, 24072.58
624.9540, 27218.30
626.1170, 31590.29
627.2810, 36097.54
628.4440, 41144.06
629.6070, 46192.85
630.7690, 50323.93
631.9320, 53321.28
633.0950, 53838.93
634.2570, 53090.88
635.4190, 50270.14
636.5810, 46195.68
637.7430, 41002.48
638.9040, 35780.60
640.0660, 30398.06
641.2270, 26239.84
642.3880, 22239.92
643.5490, 19346.32
644.7100, 17121.04
645.8700, 15455.09
647.0310, 13674.48
648.1910, 12478.28
649.3510, 11083.55
650.5110, 10422.31
651.6710, 9365.623
652.8300, 8720.484
653.9900, 7961.889
655.1490, 7191.849
656.3080, 6781.336
657.4670, 6194.354
658.6250, 5415.896
659.7840, 5213.991
660.9420, 4685.858
662.1010, 4316.905
663.2590, 3792.463
664.4170, 3459.879
665.5740, 3209.133
666.7320, 2951.916
667.8890, 2728.653
669.0460, 2506.045
670.2030, 2216.645
671.3600, 1906.424
672.5170, 1989.774
673.6740, 1855.965
674.8300, 1825.007
675.9860, 1633.752
677.1420, 1614.771
678.2980, 1715.779
679.4540, 1866.896
680.6090, 2001.604
681.7650, 2109.204
682.9200, 2220.553
684.0750, 2351.549
685.2300, 2494.031
686.3840, 2645.786
687.5390, 2876.400
688.6930, 2853.743
689.8470, 3106.338
691.0010, 3200.179
692.1550, 3472.262
693.3090, 3477.574
694.4620, 3531.113
695.6160, 3473.876
696.7690, 3384.856
697.9220, 3434.054
699.0750, 3405.466
700.2280, 3257.089
701.3800, 2894.919
702.5320, 2733.957
703.6850, 2551.201
704.8370, 2446.650
705.9880, 2482.306
707.1400, 2510.162
708.2920, 2636.224
709.4430, 2568.486
710.5940, 2701.949
711.7450, 2795.611
712.8960, 2905.473
714.0470, 3236.531
715.1970, 3132.787
716.3480, 3270.240
717.4980, 3711.888
718.6480, 3739.729
719.7980, 3706.762
720.9470, 3891.986
722.0970, 3949.403
723.2460, 4092.009
724.3960, 4056.801
725.5450, 4030.783
726.6940, 4133.949
727.8420, 4101.309
728.9910, 4077.854
730.1390, 4265.581
731.2870, 4091.486
732.4350, 4208.572
733.5830, 4210.832
734.7310, 4189.268
735.8790, 4142.877
737.0260, 4181.366
738.1730, 4084.606
739.3200, 4208.727
740.4670, 4051.011
741.6140, 3983.460
742.7610, 3974.072
743.9070, 4003.848
745.0530, 3837.932
746.1990, 4008.631
747.3450, 3933.881
748.4910, 3972.287
749.6370, 3818.852
750.7820, 3664.681
751.9270, 3636.608
753.0720, 3618.291
754.2170, 3611.287
755.3620, 3482.584
756.5070, 3304.335
757.6510, 3124.850
758.7950, 3014.506
759.9400, 2888.944
761.0840, 2720.021
762.2270, 2688.678
763.3710, 2617.726
764.5140, 2454.749
765.6580, 2497.549
766.8010, 2629.766
767.9440, 2667.832
769.0870, 2926.729
770.2290, 3123.043
771.3720, 3333.076
772.5140, 3516.167
773.6560, 3628.771
774.7990, 3796.471
775.9400, 3763.744
777.0820, 3633.447
778.2240, 3327.396
779.3650, 2943.564
780.5060, 2588.523
781.6470, 2453.039
782.7880, 1935.823
783.9290, 1481.835
785.0690, 1268.889
786.2100, 1047.957
787.3500, 895.7695
788.4900, 736.4082
789.6300, 494.1914
790.7700, 464.4082
791.9090, 343.4287
793.0490, 192.7002
794.1880, 208.1436
795.3270, 216.5303
796.4660, 192.4814
797.6050, 92.27148
798.7440, 69.01465
799.8820, 171.1270
801.0200, 221.7236
802.1590, 264.9482
803.2970, 356.1123
804.4340, 306.8496
805.5720, 422.3193
806.7100, 437.3066
807.8470, 549.6504
808.9840, 475.9668
810.1210, 641.4424
811.2580, 533.6050
812.3950, 536.9116
813.5310, 639.4062
814.6680, 582.5625
815.8040, 506.6777
816.9400, 460.7197
818.0760, 468.1396
819.2120, 429.8433
820.3470, 408.1865
821.4830, 256.7290
822.6180, 194.4727
823.7530, 23.48877
824.8880, 29.30225
826.0230, 122.3638
827.1580, 466.2500
828.2920, 573.4238
829.4270, 844.9761
830.5610, 1100.416
831.6950, 1284.838
832.8290, 1694.201
833.9620, 1795.524
835.0960, 2208.805
836.2290, 2387.566
837.3620, 2485.145
838.4950, 2607.376
839.6280, 2579.471
840.7610, 2278.516
841.8940, 2175.509
843.0260, 1779.447
844.1580, 1598.330
845.2910, 1164.328
846.4230, 947.0952
847.5540, 828.8018
848.6860, 583.5010
849.8170, 427.2451
850.9490, 409.2129
852.0800, 228.9639
853.2110, 258.4209
854.3420, 147.1465
855.4730, 133.9521
856.6030, 85.29150
857.7340, 118.0483
858.8640, 164.5566
859.9940, 122.7622
861.1240, 144.5786
862.2540, 114.7349
863.3830, 116.1870
864.5130, 227.7661
865.6420, 227.9712
866.7710, 366.7188
867.9000, 164.5342
869.0290, 188.0942
870.1570, 242.5518
871.2860, 196.7012
872.4140, 224.9673
873.5430, 173.0728
874.6710, 240.0112
875.7980, 281.6899
876.9260, 245.2886
878.0540, 300.7632
879.1810, 268.3047
880.3080, 114.5708
881.4360, 68.72559
882.5630, 146.8247
883.6890, 175.7397
884.8160, 105.5435
885.9420, 41.22021
887.0690, 164.7388
888.1950, 141.1387
889.3210, 89.41162
890.4470, 240.5337
891.5730, 118.5371
892.6980, 169.3936
893.8240, 121.1152
894.9490, 1.682129
896.0740, 161.0347
897.1990, 158.2378
898.3240, 111.2866
899.4480, 42.15967
900.5730, 115.8232
901.6970, 95.30518
902.8210, 14.59863
903.9450, 8.659180
905.0690, 22.52148
906.1930, 5.033691
907.3160, 36.66260
908.4400, 62.36279
909.5630, 88.15674
910.6860, 3.270508
911.8090, 146.9688
912.9320, 33.01758
914.0550, 1.640137
915.1770, 28.02588
916.2990, 8.143555
917.4210, 100.9790
918.5440, 103.5737
919.6650, 31.07422
920.7870, 5.965820
921.9090, 68.71240
923.0300, 24.80859
924.1510, 27.35645
925.2720, 119.2285
926.3930, 50.84717
927.5140, 89.18018
928.6350, 91.24268
929.7550, 118.0337
930.8760, 111.5605
931.9960, 153.8184
933.1160, 206.5786
934.2360, 147.4663
935.3550, 184.1113
936.4750, 175.1743
937.5940, 84.67920
938.7140, 366.9019
939.8330, 282.4502
940.9520, 258.6074
942.0710, 328.8179
943.1890, 276.1035
944.3080, 235.0566
945.4260, 308.4072
946.5440, 386.1245
947.6620, 286.3276
948.7800, 212.4414
949.8980, 421.7188
951.0160, 335.0513
952.1330, 288.9497
953.2500, 338.1792
954.3680, 359.6665
955.4850, 355.7222
956.6010, 460.4351
957.7180, 378.0146
958.8350, 551.8560
959.9510, 486.0889
961.0670, 526.1694
962.1830, 463.1006
963.2990, 600.8779
964.4150, 625.5073
965.5310, 624.9893
966.6460, 676.3232
967.7620, 732.5103
968.8770, 724.5498
969.9920, 736.4424
971.1070, 681.1875
972.2210, 773.7852
973.3360, 763.2354
974.4500, 710.5386
975.5650, 737.6934
976.6790, 682.7017
977.7930, 781.5620
978.9070, 639.2754
980.0200, 766.8394
981.1340, 714.2568
982.2470, 677.5264
983.3610, 654.6484
984.4740, 588.6216
985.5870, 627.4438
986.6990, 684.1162
987.8120, 605.6416
988.9250, 572.0166
990.0370, 668.2397
991.1490, 559.3154
992.2610, 596.2388
993.3730, 652.0122
994.4850, 530.6372
995.5960, 629.1084
996.7080, 399.4312
997.8190, 534.5840
998.9300, 570.5835
1000.041, 651.4326
1001.152, 615.1348
1002.263, 655.6885
1003.373, 659.0962
1004.484, 711.3579
1005.594, 661.4756
1006.704, 677.4478
1007.814, 694.2759
1008.924, 740.9600
1010.034, 728.5029
1011.143, 763.1157
1012.253, 693.1655
1013.362, 775.2837
1014.471, 776.1143
1015.580, 714.3472
1016.689, 784.0469
1017.797, 775.6069
1018.906, 766.0234
1020.014, 887.1909
1021.122, 844.2710
1022.230, 929.6099
1023.338, 852.6455
1024.446, 835.3882
1025.554, 894.6865
1026.661, 883.2295
1027.768, 924.6362
1028.875, 855.2661
1029.983, 920.2617
1031.089, 924.6782
1032.196, 844.7051
1033.303, 804.7583
1034.409, 785.0371
1035.515, 863.0762
1036.622, 899.7480
1037.728, 868.1787
1038.833, 841.9268
1039.939, 774.9482
1041.045, 909.9048
1042.150, 842.3389
1043.255, 835.1621
1044.360, 789.9072
1045.465, 761.2461
1046.570, 741.2891
1047.675, 683.6533
1048.779, 594.6572
1049.884, 617.2051
1050.988, 558.4043
1052.092, 608.3892
1053.196, 607.2266
1054.300, 507.2100
1055.404, 625.2988
1056.507, 562.0601
1057.610, 578.0869
1058.714, 523.6504
1059.817, 479.4399
1060.920, 476.9551
1062.022, 434.6050
1063.125, 497.8389
1064.228, 468.4668
1065.330, 469.7578
1066.432, 394.9858
1067.534, 360.5312
1068.636, 485.4956
1069.738, 381.0151
1070.840, 319.4697
1071.941, 429.6055
1073.042, 361.5063
1074.144, 360.3403
1075.245, 435.4873
1076.346, 332.6143
1077.446, 371.6255
1078.547, 349.1611
1079.647, 315.6973
1080.748, 372.2749
1081.848, 325.3442
1082.948, 390.2114
1084.048, 313.8579
1085.148, 445.7393
1086.247, 243.7944
1087.347, 447.3130
1088.446, 395.3760
1089.545, 293.0410
1090.644, 328.8706
1091.743, 395.8042
1092.842, 281.3818
1093.940, 296.0483
1095.039, 307.3403
1096.137, 317.1631
1097.235, 337.0107
1098.333, 359.7847
1099.431, 375.5264
1100.529, 369.2158
1101.627, 407.3643
1102.724, 422.4424
1103.822, 441.9810
1104.919, 502.4707
1106.016, 465.9121
1107.113, 495.3066
1108.209, 490.8657
1109.306, 371.9575
1110.402, 436.2153
1111.499, 462.2568
1112.595, 356.4272
1113.691, 433.5566
1114.787, 424.5889
1115.883, 444.4717
1116.978, 439.0264
1118.074, 505.6929
1119.169, 529.5464
1120.264, 529.2163
1121.359, 449.3115
1122.454, 540.9570
1123.549, 474.0757
1124.644, 502.3320
1125.738, 477.7808
1126.832, 498.5063
1127.927, 430.7788
1129.021, 400.6436
1130.115, 391.2661
1131.208, 408.1479
1132.302, 401.3721
1133.396, 425.4126
1134.489, 365.5918
1135.582, 366.7554
1136.675, 383.1104
1137.768, 363.2290
1138.861, 370.7231
1139.954, 358.5952
1141.046, 363.9414
1142.138, 320.2461
1143.231, 306.5527
1144.323, 176.6699
1145.415, 224.9404
1146.507, 259.1963
1147.598, 126.3726
1148.690, 171.6079
1149.781, 112.8335
1150.872, 209.0532
1151.964, 102.2827
1153.054, 109.7358
1154.145, 121.7354
1155.236, 77.96729
1156.327, 92.19336
1157.417, 128.4248
1158.507, 81.65430
1159.597, 134.8931
1160.687, 78.16992
1161.777, 103.4541
1162.867, 56.74707
1163.956, 119.0791
1165.046, 2.448730
1166.135, 57.15479
1167.224, 41.73975
1168.313, 23.26270
1169.402, 10.27539
1170.491, 38.87891
1171.580, 21.36572
1172.668, 5.276855
1173.756, 34.93555
1174.845, 46.89453
1175.933, 4.205566
1177.020, 7.806641
1178.108, 69.09961
1179.196, 31.05420
1180.283, 12.72119
1181.371, 6.421875
1182.458, 10.06592
1183.545, 11.34570
1184.632, 18.14502
1185.719, 6.554199
1186.805, 38.89307
1187.892, 16.85693
1188.978, 1.309082
1190.065, 9.411621
1191.151, 10.43408
1192.237, 31.38477
1193.323, 41.73535
1194.408, 26.92480
1195.494, 27.80078
1196.579, 16.51758
1197.664, 11.90430
1198.750, 26.36133
1199.835, 26.88086
1200.919, 55.53369
1202.004, 22.87451
1203.089, 29.17969
1204.173, 50.43994
1205.258, 35.34277
1206.342, 57.83203
1207.426, 27.02979
1208.510, 29.94336
1209.594, 18.89697
1210.677, 51.68457
1211.761, 51.37549
1212.844, 77.98682
1213.927, 37.08936
1215.010, 85.22363
1216.093, 3.605469
1217.176, 3.596191
1218.259, 32.17383
1219.341, 80.08154
1220.424, 25.36035
1221.506, 48.18750
1222.588, 90.99756
1223.670, 36.35254
1224.752, 149.7314
1225.834, 132.1377
1226.915, 189.5669
1227.997, 152.0215
1229.078, 196.5005
1230.159, 211.0054
1231.240, 229.5347
1232.321, 214.0898
1233.402, 221.5391
1234.483, 234.2783
1235.563, 191.9131
1236.644, 207.5747
1237.724, 153.2637
1238.804, 214.9805
1239.884, 237.7261
1240.964, 156.4995
1242.044, 281.3027
1243.123, 123.1348
1244.203, 300.9961
1245.282, 233.8882
1246.361, 300.8110
1247.440, 251.7661
1248.519, 313.7529
1249.598, 347.7715
1250.676, 366.8237
1251.755, 420.9092
1252.833, 375.0288
1253.911, 344.1831
1254.989, 437.3721
1256.067, 422.5957
1257.145, 486.8564
1258.223, 564.1528
1259.300, 391.4956
1260.378, 447.8765
1261.455, 518.2954
1262.532, 439.7505
1263.609, 583.2422
1264.686, 566.7710
1265.763, 640.3374
1266.840, 576.9399
1267.916, 635.5796
1268.992, 734.2568
1270.069, 737.9722
1271.145, 775.7241
1272.221, 738.5142
1273.296, 867.3413
1274.372, 803.2070
1275.448, 885.1108
1276.523, 841.0537
1277.598, 927.0352
1278.673, 997.2129
1279.749, 931.2725
1280.823, 900.3706
1281.898, 909.8623
1282.973, 895.0396
1284.047, 835.6235
1285.122, 843.8301
1286.196, 829.1270
1287.270, 669.4644
1288.344, 757.8428
1289.418, 574.2617
1290.491, 549.7217
1291.565, 563.2222
1292.638, 516.2388
1293.712, 556.8223
1294.785, 656.3228
1295.858, 523.8081
1296.931, 458.9272
1298.003, 443.4814
1299.076, 306.2725
1300.149, 462.1060
1301.221, 496.9810
1302.293, 383.4639
1303.365, 375.1895
1304.437, 387.1914
1305.509, 370.8003
1306.581, 356.8872
1307.652, 302.4653
1308.724, 406.8389
1309.795, 256.9419
1310.866, 378.1499
1311.937, 345.3716
1313.008, 227.8208
1314.079, 234.0298
1315.150, 242.4023
1316.220, 284.2642
1317.291, 234.7588
1318.361, 240.9717
1319.431, 302.7485
1320.501, 198.2500
1321.571, 152.4419
1322.641, 128.1006
1323.710, 172.7930
1324.780, 196.5176
1325.849, 60.27441
1326.918, 183.0640
1327.987, 114.8862
1329.056, 55.74121
1330.125, 234.5542
1331.194, 163.1948
1332.263, 55.74414
1333.331, 133.7993
1334.399, 116.8169
1335.467, 179.7178
1336.535, 66.80029
1337.603, 76.91504
1338.671, 57.06250
1339.739, 201.2432
1340.806, 12.45605
1341.874, 66.70264
1342.941, 178.9819
1344.008, 91.29443
1345.075, 42.60498
1346.142, 122.9839
1347.209, 111.9121
1348.275, 125.3579
1349.342, 104.8374
1350.408, 92.35010
1351.475, 78.89746
1352.541, 163.4790
1353.607, 147.0947
1354.673, 152.7451
1355.738, 193.4297
1356.804, 98.14844
1357.869, 234.9028
1358.935, 115.6919
1360.000, 161.5161
1361.065, 222.3677
1362.130, 225.2373
1363.195, 116.1401
1364.259, 181.0708
1365.324, 173.0938
1366.388, 174.6396
1367.453, 204.0415
1368.517, 223.0732
1369.581, 245.4336
1370.645, 183.1636
1371.709, 306.2529
1372.772, 295.3687
1373.836, 337.5137
1374.899, 266.6929
1375.963, 352.9043
1377.026, 241.1504
1378.089, 395.4189
1379.152, 265.7222
1380.214, 259.0591
1381.277, 358.4307
1382.340, 299.8359
1383.402, 260.2759
1384.464, 201.7505
1385.526, 268.2598
1386.588, 177.8037
1387.650, 217.3833
1388.712, 145.9980
1389.774, 151.6484
1390.835, 164.3340
1391.896, 309.0557
1392.958, 99.81299
1394.019, 52.60645
1395.080, 211.4360
1396.141, 130.3018
1397.201, 124.2051
1398.262, 84.14404
1399.323, 34.12061
1400.383, 21.13379
1401.443, 35.18408
1402.503, 9.272461
1403.563, 94.39941
1404.623, 45.56543
1405.683, 45.22754
1406.742, 56.01660
1407.802, 32.30371
1408.861, 81.36572
1409.920, 121.9990
1410.980, 16.59033
1412.039, 38.13477
1413.097, 4.363281
1414.156, 32.91016
1415.215, 128.5068
1416.273, 9.153809
1417.331, 14.85254
1418.390, 56.60547
1419.448, 135.5864
1420.506, 54.25928
1421.564, 35.83643
1422.621, 33.12500
1423.679, 125.8438
1424.736, 72.76074
1425.794, 66.38379
1426.851, 55.59961
1427.908, 27.89258
1428.965, 24.73535
1430.022, 12.28125
1431.079, 70.26318
1432.135, 26.09570
1433.192, 26.64551
1434.248, 24.49902
1435.304, 9.518555
1436.360, 59.16211
1437.416, 13.43066
1438.472, 8.871582
1439.528, 42.68994
1440.583, 50.77588
1441.639, 52.08057
1442.694, 72.43896
1443.749, 98.84619
1444.804, 206.3052
1445.859, 32.81299
1446.914, 63.36865
1447.969, 30.97314
1449.024, 189.6299
1450.078, 247.3462
1451.132, 177.1216
1452.187, 133.9580
1453.241, 262.8428
1454.295, 321.7769
1455.349, 316.7603
1456.402, 260.7935
1457.456, 287.8789
1458.509, 275.0166
1459.563, 313.2036
1460.616, 330.4404
1461.669, 333.7266
1462.722, 295.0630
1463.775, 426.4492
1464.828, 309.8848
1465.880, 444.3716
1466.933, 318.9092
1467.985, 286.4980
1469.037, 295.1387
1470.090, 364.8320
1471.142, 377.5796
1472.193, 399.3789
1473.245, 420.2324
1474.297, 396.1401
1475.348, 368.1025
1476.400, 358.4453
1477.451, 361.4111
1478.502, 370.6768
1479.553, 401.4990
1480.604, 418.7358
1481.655, 472.0269
1482.706, 505.3735
1483.756, 348.7764
1484.807, 463.2349
1485.857, 463.7485
1486.907, 543.4844
1487.957, 425.3091
1489.007, 437.3164
1490.057, 503.3994
1491.106, 478.0776
1492.156, 473.8071
1493.205, 526.8916
1494.255, 529.0713
1495.304, 407.5879
1496.353, 393.5444
1497.402, 384.1914
1498.451, 465.3418
1499.500, 478.8916
1500.548, 464.5693
1501.597, 581.8623
1502.645, 513.5332
1503.693, 530.9907
1504.741, 546.6689
1505.789, 521.4185
1506.837, 541.2393
1507.885, 589.1318
1508.932, 493.0947
1509.980, 559.1279
1511.027, 660.2314
1512.075, 538.4058
1513.122, 546.6484
1514.169, 482.9614
1515.216, 580.3452
1516.262, 481.7974
1517.309, 580.3193
1518.356, 529.9102
1519.402, 455.5693
1520.448, 546.2974
1521.495, 471.0913
1522.541, 462.9517
1523.587, 575.8774
1524.632, 552.8682
1525.678, 447.9209
1526.724, 628.0615
1527.769, 475.4116
1528.814, 319.8936
1529.860, 374.5684
1530.905, 355.6152
1531.950, 272.0176
1532.995, 247.6436
1534.039, 361.4653
1535.084, 351.5210
1536.128, 249.8257
1537.173, 309.3530
1538.217, 260.1162
1539.261, 232.1309
1540.305, 316.4155
1541.349, 271.9912
1542.393, 227.8828
1543.436, 234.1201
1544.480, 147.7388
1545.523, 227.7832
1546.567, 109.3037
1547.610, 253.3501
1548.653, 262.9644
1549.696, 136.1675
1550.739, 202.0088
1551.781, 208.5542
1552.824, 249.8892
1553.867, 155.1167
1554.909, 259.3623
1555.951, 414.7749
1556.993, 387.5308
1558.035, 188.8403
1559.077, 76.99316
1560.119, 128.3779
1561.161, 7.481445
1562.202, 107.1450
1563.243, 145.3223
1564.285, 175.4971
1565.326, 0.0000000E+00
##END=



