##NAMES=Cassiterite
##RRUFFID=R050502
##IDEAL CHEMISTRY=SnO_2_
##LOCALITY=Redruth, Cornwall, England
##OWNER=RRUFF
##SOURCE=California Institute of Technology
##DESCRIPTION=Black crystals associated with colorless quartz and grey stannite.
##STATUS=The identification of this mineral has been confirmed by X-ray diffraction and chemical analysis
##URL=rruff.info/R050502
##MEASURED CHEMISTRY=SnO_2_
##PIN_ID=M00088
##ORIENTATION=Laser parallel to -c* (0 0 -1). Fiducial mark perpendicular to laser is parallel to b [0 1 0]
201.1900, 0.0000000E+00
202.4130, 114.3389
203.6360, 78.30566
204.8590, 7.594727
206.0820, 8.599609
207.3050, 42.31641
208.5270, 4.254883
209.7490, 12.22266
210.9710, 8.134766
212.1930, 130.0176
213.4150, 260.8154
214.6370, 308.4180
215.8580, 397.5352
217.0790, 415.8525
218.3010, 493.1201
219.5210, 619.1240
220.7420, 766.6387
221.9630, 738.6553
223.1830, 880.8438
224.4040, 949.5596
225.6240, 935.4990
226.8440, 1044.250
228.0640, 1053.496
229.2840, 1229.004
230.5030, 1416.595
231.7230, 1660.141
232.9420, 1988.632
234.1610, 2139.084
235.3800, 2560.457
236.5990, 2630.655
237.8170, 2429.456
239.0360, 2341.864
240.2540, 2580.894
241.4720, 2735.146
242.6900, 2733.739
243.9080, 2799.590
245.1250, 2698.094
246.3430, 2502.180
247.5600, 2386.220
248.7770, 2215.026
249.9940, 1821.530
251.2110, 1926.799
252.4280, 1749.914
253.6450, 1722.959
254.8610, 1801.009
256.0770, 1983.131
257.2930, 1946.387
258.5090, 1993.713
259.7250, 1985.281
260.9400, 1966.499
262.1560, 1882.804
263.3710, 1874.680
264.5860, 1807.902
265.8010, 1723.288
267.0160, 1668.229
268.2310, 1511.561
269.4450, 1342.901
270.6600, 1178.127
271.8740, 1011.924
273.0880, 810.3115
274.3020, 707.3252
275.5150, 701.2578
276.7290, 570.9785
277.9420, 623.5586
279.1550, 741.0068
280.3680, 765.0420
281.5810, 778.7236
282.7940, 846.1426
284.0070, 941.0391
285.2190, 1002.491
286.4310, 1097.733
287.6430, 1188.402
288.8550, 1212.271
290.0670, 1309.230
291.2790, 1331.167
292.4900, 1293.698
293.7020, 1267.468
294.9130, 1346.688
296.1240, 1308.627
297.3350, 1368.920
298.5450, 1236.263
299.7560, 1321.650
300.9660, 1255.076
302.1760, 1215.537
303.3860, 1076.029
304.5960, 1034.546
305.8060, 911.0869
307.0150, 1006.649
308.2250, 1042.230
309.4340, 1017.827
310.6430, 846.4385
311.8520, 786.0635
313.0610, 768.6992
314.2700, 695.3555
315.4780, 625.0400
316.6860, 603.7422
317.8940, 649.4355
319.1020, 557.1045
320.3100, 620.7354
321.5180, 479.3223
322.7250, 608.8682
323.9330, 378.3779
325.1400, 448.8516
326.3470, 362.2920
327.5540, 444.7031
328.7600, 300.0889
329.9670, 466.4473
331.1730, 374.7832
332.3800, 327.0986
333.5860, 407.3965
334.7920, 460.6787
335.9970, 298.9414
337.2030, 160.1855
338.4080, 339.4072
339.6140, 388.6182
340.8190, 467.8223
342.0240, 379.9971
343.2290, 435.1543
344.4330, 512.3135
345.6380, 628.3457
346.8420, 532.1270
348.0460, 997.6367
349.2500, 1213.967
350.4540, 1394.492
351.6580, 664.0127
352.8610, 693.6006
354.0650, 520.2012
355.2680, 488.8721
356.4710, 471.5664
357.6740, 361.2734
358.8760, 217.9854
360.0790, 5.689453
361.2810, 9.658203
362.4840, 131.0635
363.6860, 154.5674
364.8880, 259.1768
366.0900, 244.9219
367.2910, 279.8018
368.4930, 183.8281
369.6940, 344.9844
370.8950, 275.3164
372.0960, 320.8096
373.2970, 174.4785
374.4980, 246.2842
375.6980, 246.2451
376.8980, 121.3623
378.0990, 77.59961
379.2990, 65.94727
380.4980, 62.40137
381.6980, 22.04297
382.8980, 41.59277
384.0970, 118.6777
385.2960, 60.89648
386.4950, 281.0488
387.6940, 187.1416
388.8930, 84.96387
390.0920, 327.4629
391.2900, 498.6377
392.4880, 602.3848
393.6860, 437.0557
394.8840, 618.9697
396.0820, 661.6094
397.2800, 698.4609
398.4770, 928.9512
399.6750, 802.3613
400.8720, 990.1797
402.0690, 1191.278
403.2660, 1273.321
404.4620, 1566.312
405.6590, 1584.257
406.8550, 1751.154
408.0510, 1935.004
409.2480, 2271.808
410.4430, 2361.561
411.6390, 2716.275
412.8350, 2869.959
414.0300, 3236.570
415.2250, 3249.158
416.4200, 3499.725
417.6150, 3828.271
418.8100, 4018.802
420.0050, 4196.316
421.1990, 4446.818
422.3940, 4510.306
423.5880, 4851.701
424.7820, 5051.652
425.9750, 5380.193
427.1690, 5546.835
428.3630, 5612.211
429.5560, 5728.920
430.7490, 5673.275
431.9420, 5779.771
433.1350, 5788.162
434.3280, 5677.904
435.5200, 5757.620
436.7130, 5552.447
437.9050, 5553.263
439.0970, 5595.111
440.2890, 5453.973
441.4810, 5649.870
442.6720, 5860.800
443.8640, 6077.765
445.0550, 6409.765
446.2460, 6623.799
447.4370, 7072.869
448.6280, 7390.973
449.8180, 8100.117
451.0090, 8032.294
452.1990, 8528.510
453.3890, 8889.760
454.5790, 9045.051
455.7690, 9522.379
456.9590, 9589.743
458.1480, 9654.149
459.3380, 9829.592
460.5270, 9822.074
461.7160, 9835.598
462.9050, 9893.160
464.0940, 10050.76
465.2820, 9927.411
466.4700, 9901.098
467.6590, 9637.310
468.8470, 9610.083
470.0350, 9244.383
471.2220, 8859.245
472.4100, 8368.810
473.5970, 7735.764
474.7850, 7268.760
475.9720, 6996.353
477.1590, 6263.448
478.3460, 5887.592
479.5320, 5390.247
480.7190, 5203.541
481.9050, 4774.836
483.0910, 4593.181
484.2770, 4378.578
485.4630, 4204.025
486.6490, 4120.526
487.8340, 3958.082
489.0200, 3869.690
490.2050, 3807.326
491.3900, 3735.990
492.5750, 3597.685
493.7600, 3502.413
494.9440, 3371.170
496.1290, 3480.957
497.3130, 3087.774
498.4970, 3242.624
499.6810, 2999.503
500.8650, 2979.413
502.0480, 2693.968
503.2320, 2587.077
504.4150, 2503.318
505.5980, 2393.038
506.7810, 2127.385
507.9640, 1977.272
509.1460, 2056.163
510.3290, 1910.982
511.5110, 1580.944
512.6930, 1442.919
513.8750, 1215.397
515.0570, 1183.159
516.2390, 1164.248
517.4210, 891.9795
518.6020, 846.8682
519.7830, 664.7549
520.9640, 571.5537
522.1450, 435.2510
523.3260, 517.3447
524.5060, 474.8564
525.6870, 531.6104
526.8670, 406.9824
528.0470, 409.0996
529.2270, 411.1611
530.4070, 391.2861
531.5870, 315.0752
532.7660, 390.3311
533.9450, 245.6523
535.1240, 239.0410
536.3030, 299.4980
537.4820, 596.0234
538.6610, 420.6211
539.8390, 507.2861
541.0180, 470.0244
542.1960, 410.8330
543.3740, 393.7148
544.5520, 295.6699
545.7290, 340.7002
546.9070, 255.8047
548.0840, 236.9893
549.2620, 281.2490
550.4390, 282.6025
551.6160, 319.0518
552.7920, 294.0361
553.9690, 237.2578
555.1450, 239.0234
556.3220, 189.9014
557.4980, 169.9053
558.6740, 149.0371
559.8490, 126.0244
561.0250, 208.6719
562.2000, 82.15625
563.3760, 110.7441
564.5510, 58.43359
565.7260, 44.76465
566.9010, 27.86914
568.0750, 62.42773
569.2500, 178.8213
570.4240, 45.69434
571.5980, 116.4814
572.7720, 85.19238
573.9460, 16.82031
575.1200, 67.35547
576.2930, 76.80273
577.4670, 25.83887
578.6400, 36.57910
579.8130, 31.41602
580.9860, 264.3535
582.1590, 260.3877
583.3310, 442.5215
584.5040, 529.7549
585.6760, 622.0859
586.8480, 918.5176
588.0200, 1112.048
589.1920, 1267.679
590.3630, 1614.408
591.5350, 1660.236
592.7060, 2006.166
593.8770, 2327.194
595.0480, 2644.324
596.2190, 2870.552
597.3900, 3146.881
598.5600, 3475.311
599.7310, 3888.840
600.9010, 4236.469
602.0710, 4737.199
603.2410, 5128.029
604.4100, 5364.963
605.5800, 5879.993
606.7490, 6125.126
607.9190, 6743.359
609.0880, 7261.699
610.2570, 7718.141
611.4250, 8155.688
612.5940, 8731.345
613.7620, 9636.119
614.9310, 10380.01
616.0990, 11584.04
617.2670, 12655.17
618.4340, 14541.43
619.6020, 16419.84
620.7690, 19152.35
621.9370, 22183.00
623.1040, 25614.76
624.2710, 29408.62
625.4380, 33053.62
626.6040, 36773.74
627.7710, 39704.97
628.9370, 42237.34
630.1030, 44161.85
631.2690, 45009.48
632.4350, 44619.26
633.6010, 42803.17
634.7660, 39309.20
635.9320, 35512.35
637.0970, 31330.63
638.2620, 26466.03
639.4270, 22378.56
640.5920, 18872.21
641.7560, 16034.97
642.9210, 13811.87
644.0850, 12000.93
645.2490, 10499.17
646.4130, 9073.630
647.5770, 8055.315
648.7400, 7336.248
649.9040, 6824.426
651.0670, 6179.854
652.2300, 5536.486
653.3930, 5166.365
654.5560, 4581.460
655.7190, 4122.794
656.8810, 3699.354
658.0440, 3387.234
659.2060, 3133.198
660.3680, 2939.423
661.5300, 2715.827
662.6910, 2555.394
663.8530, 2317.116
665.0140, 2138.983
666.1750, 2043.999
667.3360, 1800.123
668.4970, 1703.365
669.6580, 1627.707
670.8190, 1565.149
671.9790, 1527.878
673.1390, 1444.363
674.2990, 1467.117
675.4590, 1475.966
676.6190, 1405.911
677.7790, 1274.954
678.9380, 1567.090
680.0970, 1501.327
681.2570, 1559.655
682.4160, 1450.077
683.5740, 1568.592
684.7330, 1772.194
685.8920, 1846.891
687.0500, 1978.430
688.2080, 1992.305
689.3660, 1976.870
690.5240, 2302.783
691.6820, 2215.445
692.8390, 2464.738
693.9960, 2415.146
695.1540, 2512.945
696.3110, 2574.197
697.4680, 2678.754
698.6240, 2540.453
699.7810, 2476.482
700.9370, 2219.378
702.0940, 2228.280
703.2500, 2091.973
704.4060, 2105.980
705.5610, 1955.125
706.7170, 1923.928
707.8720, 1889.777
709.0280, 1833.859
710.1830, 1840.817
711.3380, 1785.799
712.4920, 1781.380
713.6470, 1786.819
714.8020, 1771.796
715.9560, 1969.729
717.1100, 1977.530
718.2640, 1815.399
719.4180, 2043.341
720.5720, 2083.354
721.7250, 1932.431
722.8780, 2165.574
724.0320, 2067.781
725.1850, 2216.054
726.3380, 2153.388
727.4900, 2145.786
728.6430, 2103.245
729.7950, 2194.768
730.9470, 2238.352
732.1000, 2229.994
733.2510, 2208.696
734.4030, 2161.455
735.5550, 2243.273
736.7060, 2387.150
737.8570, 2384.082
739.0090, 2377.066
740.1600, 2540.107
741.3100, 2502.201
742.4610, 2644.347
743.6110, 2509.770
744.7620, 2691.021
745.9120, 2615.347
747.0620, 2681.878
748.2120, 2966.664
749.3610, 2798.661
750.5110, 2998.784
751.6600, 3095.162
752.8090, 3146.943
753.9580, 3103.572
755.1070, 3235.199
756.2560, 3330.721
757.4050, 3590.040
758.5530, 3737.253
759.7010, 4232.445
760.8490, 4623.635
761.9970, 5162.236
763.1450, 5775.561
764.2920, 6669.586
765.4400, 7278.199
766.5870, 8620.558
767.7340, 9664.699
768.8810, 10687.16
770.0280, 11548.17
771.1740, 12501.45
772.3210, 12836.57
773.4670, 13203.54
774.6130, 12872.03
775.7590, 12819.59
776.9050, 12109.69
778.0510, 11153.90
779.1960, 10422.29
780.3420, 9261.238
781.4870, 8291.880
782.6320, 7603.927
783.7770, 6574.465
784.9210, 5802.174
786.0660, 5100.250
787.2100, 4812.089
788.3540, 4321.819
789.4980, 3968.508
790.6420, 3671.839
791.7860, 3540.807
792.9300, 3245.467
794.0730, 3183.035
795.2160, 2906.441
796.3590, 2960.227
797.5020, 2530.746
798.6450, 2382.414
799.7880, 2325.277
800.9300, 2059.630
802.0720, 2046.297
803.2150, 1851.572
804.3560, 1658.665
805.4980, 1576.146
806.6400, 1291.980
807.7810, 1278.449
808.9230, 1127.120
810.0640, 1177.514
811.2050, 868.9199
812.3460, 650.0039
813.4860, 596.3301
814.6270, 472.4521
815.7670, 517.8174
816.9070, 442.0273
818.0470, 454.6963
819.1870, 464.9541
820.3270, 187.6162
821.4670, 112.7910
822.6060, 96.61523
823.7450, 23.47754
824.8840, 76.99512
826.0230, 96.68359
827.1620, 100.7002
828.3010, 91.78320
829.4390, 199.9326
830.5770, 122.1914
831.7150, 165.5303
832.8530, 203.8604
833.9910, 220.4209
835.1290, 194.4424
836.2660, 179.9268
837.4030, 111.8564
838.5410, 108.8721
839.6780, 81.64160
840.8140, 121.8154
841.9510, 72.91797
843.0870, 13.79883
844.2240, 9.791992
845.3600, 119.7793
846.4960, 145.3779
847.6320, 140.8809
848.7680, 119.3467
849.9030, 153.0781
851.0380, 170.3467
852.1740, 189.8076
853.3090, 245.6553
854.4440, 248.0273
855.5780, 287.4854
856.7130, 274.3096
857.8470, 344.8145
858.9820, 258.3779
860.1160, 383.3857
861.2500, 440.3418
862.3830, 373.3408
863.5170, 423.5488
864.6500, 490.6182
865.7840, 438.6768
866.9170, 407.6113
868.0500, 427.5283
869.1830, 404.1045
870.3150, 519.6230
871.4480, 394.6904
872.5800, 478.2617
873.7120, 297.6055
874.8440, 332.8896
875.9760, 338.1133
877.1080, 363.2764
878.2390, 243.6484
879.3710, 130.6895
880.5020, 343.0869
881.6330, 194.1562
882.7640, 165.4404
883.8940, 123.6240
885.0250, 97.34180
886.1550, 56.98926
887.2850, 54.55371
888.4160, 7.035156
889.5450, 19.59180
890.6750, 99.65820
891.8050, 44.16602
892.9340, 54.13086
894.0630, 92.75879
895.1930, 64.56543
896.3220, 42.65820
897.4500, 151.8877
898.5790, 6.631836
899.7070, 33.95508
900.8360, 110.3115
901.9640, 18.50879
903.0920, 60.46680
904.2200, 17.41211
905.3470, 53.82910
906.4750, 8.229492
907.6020, 32.22949
908.7290, 38.59277
909.8560, 29.83789
910.9830, 11.95996
912.1100, 22.77148
913.2360, 68.95801
914.3630, 42.70508
915.4890, 13.53809
916.6150, 42.02930
917.7410, 15.77637
918.8670, 70.83789
919.9920, 24.10938
921.1180, 28.38867
922.2430, 23.01367
923.3680, 3.947266
924.4930, 83.98926
925.6180, 97.13281
926.7420, 205.4082
927.8670, 91.76953
928.9910, 26.64746
930.1150, 6.971680
931.2390, 27.83984
932.3630, 141.0156
933.4860, 47.84766
934.6100, 174.8438
935.7330, 205.2217
936.8560, 106.8408
937.9790, 214.1572
939.1020, 344.0244
940.2250, 284.9180
941.3470, 252.1631
942.4700, 289.8428
943.5920, 199.4297
944.7140, 301.4854
945.8360, 301.4785
946.9570, 347.5195
948.0790, 312.7959
949.2000, 304.2402
950.3220, 344.7266
951.4430, 235.6104
952.5640, 439.4795
953.6840, 322.2256
954.8050, 435.7402
955.9250, 549.5752
957.0460, 391.1475
958.1660, 368.1641
959.2860, 466.0439
960.4050, 498.7520
961.5250, 600.4600
962.6440, 606.6250
963.7640, 778.9170
964.8830, 583.3994
966.0020, 608.6816
967.1210, 523.0020
968.2390, 584.1807
969.3580, 551.1211
970.4760, 627.1924
971.5940, 681.9209
972.7120, 544.2500
973.8300, 436.7891
974.9480, 684.9697
976.0650, 692.4678
977.1830, 581.4795
978.3000, 710.2695
979.4170, 522.6631
980.5340, 500.1768
981.6500, 559.1680
982.7670, 554.5098
983.8830, 480.0566
985.0000, 374.4229
986.1160, 396.5166
987.2320, 393.6797
988.3470, 498.3320
989.4630, 266.6133
990.5780, 299.6562
991.6940, 513.5312
992.8090, 412.1221
993.9240, 541.6250
995.0380, 562.0420
996.1530, 514.3750
997.2680, 452.6211
998.3820, 474.7783
999.4960, 464.8857
1000.610, 483.3770
1001.724, 475.2744
1002.837, 579.0820
1003.951, 580.8057
1005.064, 401.8164
1006.177, 507.3652
1007.291, 667.8643
1008.403, 733.3291
1009.516, 556.6299
1010.629, 594.0273
1011.741, 487.5830
1012.853, 640.9043
1013.965, 453.0928
1015.077, 517.0400
1016.189, 450.9717
1017.300, 459.4863
1018.412, 652.4121
1019.523, 609.8203
1020.634, 710.0820
1021.745, 564.8574
1022.856, 585.9736
1023.966, 635.3926
1025.077, 578.1992
1026.187, 735.5332
1027.297, 637.0020
1028.407, 637.7539
1029.517, 579.2441
1030.627, 645.6250
1031.736, 479.5498
1032.845, 577.5967
1033.955, 641.0078
1035.064, 749.9746
1036.172, 589.5244
1037.281, 599.8076
1038.390, 506.4189
1039.498, 516.1641
1040.606, 504.1807
1041.714, 633.8975
1042.822, 490.5176
1043.930, 562.4082
1045.037, 556.4521
1046.145, 434.2617
1047.252, 468.0830
1048.359, 412.1445
1049.466, 548.1826
1050.573, 362.2480
1051.679, 417.0410
1052.786, 280.3662
1053.892, 242.0020
1054.998, 277.2578
1056.104, 304.1299
1057.210, 291.5791
1058.315, 225.4590
1059.421, 402.0117
1060.526, 357.4316
1061.631, 271.9414
1062.736, 205.9629
1063.841, 278.0928
1064.946, 123.8799
1066.050, 283.1084
1067.154, 205.3203
1068.258, 329.4941
1069.362, 246.0225
1070.466, 285.0840
1071.570, 399.2363
1072.674, 336.6152
1073.777, 228.4141
1074.880, 212.4092
1075.983, 224.4385
1077.086, 197.1143
1078.189, 188.3184
1079.291, 283.7998
1080.394, 179.5605
1081.496, 246.2705
1082.598, 212.0967
1083.700, 332.0547
1084.802, 308.6855
1085.903, 314.9111
1087.005, 362.1484
1088.106, 245.1650
1089.207, 285.2324
1090.308, 154.5791
1091.409, 221.6514
1092.509, 180.1934
1093.610, 73.90234
1094.710, 287.1357
1095.810, 441.3047
1096.910, 126.4336
1098.010, 143.0518
1099.110, 277.6953
1100.209, 210.9199
1101.309, 191.7520
1102.408, 245.8105
1103.507, 240.3379
1104.606, 247.3945
1105.704, 192.0479
1106.803, 335.3154
1107.901, 38.96973
1108.999, 149.4902
1110.097, 331.8271
1111.195, 182.4141
1112.293, 379.7090
1113.391, 180.8975
1114.488, 334.1611
1115.585, 243.9766
1116.682, 265.3125
1117.779, 405.7822
1118.876, 271.6143
1119.973, 132.8711
1121.069, 200.6943
1122.165, 233.7295
1123.261, 249.5293
1124.357, 326.4990
1125.453, 358.1084
1126.549, 395.6963
1127.644, 412.6553
1128.739, 339.0557
1129.835, 478.3672
1130.930, 290.5000
1132.024, 175.8291
1133.119, 310.3564
1134.214, 311.3350
1135.308, 422.9375
1136.402, 202.2979
1137.496, 324.8203
1138.590, 278.9326
1139.684, 264.9756
1140.777, 282.1602
1141.871, 237.2178
1142.964, 177.4131
1144.057, 210.6299
1145.150, 167.2949
1146.243, 255.6533
1147.335, 231.2354
1148.428, 272.8877
1149.520, 101.1426
1150.612, 164.7539
1151.704, 158.5527
1152.796, 203.0889
1153.887, 253.5928
1154.979, 206.0771
1156.070, 102.5498
1157.161, 228.9824
1158.252, 234.6895
1159.343, 180.1328
1160.433, 235.5576
1161.524, 313.9736
1162.614, 301.1562
1163.704, 48.56250
1164.794, 308.9443
1165.884, 199.3281
1166.974, 107.6826
1168.063, 211.0303
1169.153, 49.38672
1170.242, 106.7266
1171.331, 202.0723
1172.420, 77.57812
1173.508, 107.7441
1174.597, 141.0176
1175.685, 75.27930
1176.774, 227.5674
1177.862, 182.6670
1178.950, 71.22754
1180.037, 2.767578
1181.125, 12.43359
1182.212, 55.80957
1183.300, 152.2471
1184.387, 50.21680
1185.474, 24.31250
1186.560, 140.8389
1187.647, 25.76953
1188.733, 122.3613
1189.820, 50.04492
1190.906, 152.0039
1191.992, 186.7881
1193.078, 48.11133
1194.163, 64.03516
1195.249, 37.60547
1196.334, 4.411133
1197.419, 165.8271
1198.504, 30.13086
1199.589, 128.3955
1200.674, 145.2490
1201.758, 226.9219
1202.843, 169.0449
1203.927, 235.6035
1205.011, 45.17188
1206.095, 104.3887
1207.179, 120.6377
1208.262, 39.76367
1209.345, 219.8330
1210.429, 179.2891
1211.512, 113.2920
1212.595, 46.55859
1213.677, 70.66602
1214.760, 98.25586
1215.842, 64.73926
1216.925, 139.2305
1218.007, 74.83594
1219.089, 158.0039
1220.171, 153.9531
1221.252, 231.0820
1222.334, 147.1104
1223.415, 120.9492
1224.496, 49.07422
1225.577, 54.32812
1226.658, 53.75586
1227.738, 176.2979
1228.819, 11.10254
1229.899, 88.96484
1230.979, 98.81055
1232.060, 41.48828
1233.139, 166.3750
1234.219, 33.22363
1235.299, 121.0830
1236.378, 125.6943
1237.457, 102.8438
1238.536, 124.3301
1239.615, 252.7178
1240.694, 85.80371
1241.772, 12.70117
1242.851, 141.3320
1243.929, 122.7822
1245.007, 3.224609
1246.085, 39.45508
1247.163, 32.79297
1248.240, 47.11719
1249.318, 10.15234
1250.395, 15.02148
1251.472, 24.36816
1252.549, 130.8887
1253.626, 117.5332
1254.703, 27.19141
1255.779, 225.8984
1256.855, 39.58691
1257.931, 212.2568
1259.007, 83.91016
1260.083, 169.5459
1261.159, 65.13086
1262.234, 22.22461
1263.310, 174.8096
1264.385, 39.37988
1265.460, 85.93066
1266.535, 155.0938
1267.610, 80.61523
1268.684, 211.0840
1269.758, 80.48730
1270.833, 99.95312
1271.907, 55.22363
1272.981, 149.2344
1274.054, 10.37793
1275.128, 180.3291
1276.201, 219.6465
1277.275, 23.85645
1278.348, 397.2285
1279.421, 239.8828
1280.493, 59.79688
1281.566, 143.6787
1282.638, 140.7412
1283.711, 144.0107
1284.783, 194.0771
1285.855, 119.7041
1286.927, 47.94434
1287.998, 310.2588
1289.070, 259.5439
1290.141, 235.4580
1291.212, 231.0850
1292.283, 178.0596
1293.354, 165.8252
1294.425, 175.5420
1295.495, 141.5293
1296.566, 194.1289
1297.636, 247.4082
1298.706, 263.7246
1299.776, 134.5225
1300.845, 164.3604
1301.915, 101.7324
1302.984, 173.3018
1304.054, 333.0859
1305.123, 97.51172
1306.191, 120.5693
1307.260, 25.43555
1308.329, 179.8291
1309.397, 130.6201
1310.465, 204.6270
1311.534, 223.4355
1312.602, 88.16211
1313.669, 47.33984
1314.737, 272.4629
1315.804, 31.13965
1316.872, 166.2734
1317.939, 79.94824
1319.006, 127.2324
1320.073, 2.938477
1321.139, 162.7861
1322.206, 201.1396
1323.272, 12.47070
1324.338, 154.6855
1325.404, 290.6455
1326.470, 185.3936
1327.536, 108.9062
1328.601, 211.4932
1329.667, 109.1475
1330.732, 34.02246
1331.797, 190.7686
1332.862, 3.625000
1333.926, 157.8477
1334.991, 85.31543
1336.055, 193.8516
1337.120, 95.04688
1338.184, 294.8711
1339.248, 168.6494
1340.311, 96.15039
1341.375, 150.3721
1342.438, 227.6943
1343.502, 181.1289
1344.565, 57.42090
1345.628, 143.0234
1346.691, 280.3535
1347.753, 99.03223
1348.816, 138.6934
1349.878, 116.4521
1350.940, 97.08789
1352.002, 164.6143
1353.064, 202.8467
1354.126, 216.4316
1355.187, 254.8633
1356.248, 212.0957
1357.310, 299.7754
1358.371, 179.7373
1359.431, 203.1885
1360.492, 221.4023
1361.553, 72.13379
1362.613, 207.3174
1363.673, 187.8721
1364.733, 170.4502
1365.793, 170.9102
1366.853, 215.0078
1367.912, 230.6719
1368.972, 352.3047
1370.031, 270.8262
1371.090, 368.3418
1372.149, 312.7666
1373.208, 324.5830
1374.267, 313.6592
1375.325, 402.0986
1376.383, 376.2090
1377.441, 296.8203
1378.499, 211.2422
1379.557, 325.2656
1380.615, 288.7363
1381.672, 243.8984
1382.730, 310.9395
1383.787, 312.4561
1384.844, 186.5518
1385.901, 265.0635
1386.957, 223.3496
1388.014, 92.85449
1389.070, 260.0664
1390.126, 198.1045
1391.182, 180.6045
1392.238, 226.7188
1393.294, 119.0303
1394.349, 35.52539
1395.405, 212.8223
1396.460, 181.3135
1397.515, 169.6152
1398.570, 76.00098
1399.625, 49.20312
1400.679, 97.68945
1401.734, 35.71191
1402.788, 88.19629
1403.842, 32.92969
1404.896, 183.5020
1405.950, 263.3252
1407.003, 275.8164
1408.057, 19.12207
1409.110, 109.9717
1410.163, 61.64844
1411.216, 7.618164
1412.269, 147.3750
1413.322, 69.95117
1414.374, 5.177734
1415.427, 74.65527
1416.479, 81.14062
1417.531, 91.69434
1418.583, 45.13867
1419.634, 68.64258
1420.686, 23.85547
1421.737, 100.3652
1422.788, 90.88672
1423.839, 9.574219
1424.890, 71.97852
1425.941, 8.449219
1426.992, 47.85742
1428.042, 171.7461
1429.092, 191.3613
1430.142, 2.962891
1431.192, 41.74023
1432.242, 210.4355
1433.291, 165.2012
1434.341, 162.6719
1435.390, 242.5586
1436.439, 194.4551
1437.488, 202.9688
1438.537, 186.0020
1439.586, 135.0938
1440.634, 58.21875
1441.682, 208.7422
1442.731, 307.0508
1443.779, 137.6719
1444.826, 305.9453
1445.874, 234.3301
1446.922, 340.9941
1447.969, 267.6680
1449.016, 411.3535
1450.063, 250.8848
1451.110, 326.2773
1452.157, 183.9570
1453.203, 255.6445
1454.250, 221.8672
1455.296, 382.3574
1456.342, 471.7031
1457.388, 493.7324
1458.433, 246.7715
1459.479, 347.1504
1460.524, 308.3320
1461.570, 263.8203
1462.615, 413.0781
1463.660, 205.3281
1464.705, 351.5879
1465.749, 356.5352
1466.794, 426.1777
1467.838, 355.7520
1468.882, 328.6016
1469.926, 441.5625
1470.970, 476.9629
1472.013, 390.4863
1473.057, 464.3262
1474.100, 251.8086
1475.143, 290.6777
1476.186, 222.2129
1477.229, 85.27148
1478.272, 22.34766
1479.314, 300.4414
1480.357, 304.5566
1481.399, 270.6875
1482.441, 455.8340
1483.483, 345.0000
1484.525, 196.1875
1485.566, 472.3945
1486.608, 324.2734
1487.649, 370.8711
1488.690, 367.1387
1489.731, 227.4238
1490.771, 338.4043
1491.812, 217.7930
1492.853, 163.4375
1493.893, 378.2754
1494.933, 383.1816
1495.973, 262.6484
1497.013, 279.8242
1498.052, 204.6895
1499.092, 409.4102
1500.131, 331.2773
1501.170, 531.1445
1502.209, 322.0020
1503.248, 433.8457
1504.287, 262.6758
1505.325, 448.5156
1506.363, 342.3730
1507.402, 480.2363
1508.440, 521.1055
1509.478, 438.9824
1510.515, 412.8672
1511.553, 293.7559
1512.590, 418.6465
1513.627, 533.5410
1514.664, 558.4395
1515.701, 467.3418
1516.738, 473.2422
1517.775, 330.1426
1518.811, 391.0410
1519.847, 364.9355
1520.883, 334.8223
1521.919, 386.6953
1522.955, 433.5527
1523.991, 557.3887
1525.026, 498.2051
1526.061, 527.2129
1527.096, 564.7500
1528.131, 493.4688
1529.166, 343.4863
1530.201, 352.0645
1531.235, 356.7617
1532.270, 406.6348
1533.304, 328.3320
1534.338, 243.5703
1535.372, 214.6348
1536.405, 234.7773
1537.439, 257.0020
1538.472, 159.3184
1539.505, 135.7344
1540.538, 264.2617
1541.571, 222.9121
1542.604, 152.7031
1543.637, 201.6562
1544.669, 161.7910
1545.701, 93.14453
1546.733, 153.7578
1547.765, 58.66602
1548.797, 133.8438
1549.829, 33.28125
1550.860, 161.0137
1551.891, 292.0801
1552.922, 284.5312
1553.953, 247.4180
1554.984, 175.8105
1556.015, 300.7852
1557.045, 127.4160
1558.076, 181.8047
1559.106, 9.093750
1560.136, 110.4688
1561.165, 4.820313
1562.195, 163.5410
1563.225, 55.06445
1564.254, 6.023438
1565.283, 0.0000000E+00
##END=



