##NAMES=Cassiterite
##RRUFFID=R060563
##IDEAL CHEMISTRY=SnO_2_
##LOCALITY=unknown
##OWNER=RRUFF
##SOURCE=Gemological Institute of America
##DESCRIPTION=Dark brown fragment
##STATUS=The identification of this mineral has been confirmed by X-ray diffraction and chemical analysis
##URL=rruff.info/R060563
##MEASURED CHEMISTRY=Sn_1.00_O_2_
##PIN_ID=L01474
##ORIENTATION=Laser parallel to c* (0 0 1). Fiducial mark perpendicular to laser is parallel to a [1 0 0]
114.4400, 0.0000000E+00
115.6710, 100.5044
116.9030, 66.02979
118.1340, 146.3105
119.3650, 168.2856
120.5960, 181.3452
121.8270, 354.2920
123.0580, 276.6270
124.2880, 427.1030
125.5190, 221.4019
126.7490, 69.32227
127.9790, 29.49023
129.2090, 16.90820
130.4390, 2.542480
131.6680, 40.68506
132.8980, 10.11719
134.1270, 92.18652
135.3560, 124.9058
136.5850, 55.95410
137.8140, 59.55615
139.0430, 117.8101
140.2710, 59.02734
141.5000, 162.1699
142.7280, 49.97119
143.9560, 16.57617
145.1840, 101.0801
146.4120, 53.54150
147.6390, 133.5557
148.8670, 127.8560
150.0940, 186.2358
151.3210, 96.54248
152.5490, 122.4727
153.7750, 156.4741
155.0020, 239.5679
156.2290, 154.7485
157.4550, 106.0142
158.6810, 121.3608
159.9080, 66.50830
161.1340, 118.9673
162.3590, 1.496582
163.5850, 43.11523
164.8110, 132.8003
166.0360, 44.55615
167.2610, 220.3833
168.4860, 61.27832
169.7110, 103.2383
170.9360, 121.2593
172.1610, 186.3403
173.3850, 51.48096
174.6100, 25.68213
175.8340, 16.94287
177.0580, 14.26318
178.2820, 1.7578000E-02
179.5050, 2.938965
180.7290, 4.413574
181.9520, 22.85107
183.1760, 5.224609
184.3990, 33.53369
185.6220, 71.77783
186.8450, 37.92139
188.0670, 34.91162
189.2900, 22.84668
190.5120, 15.18213
191.7340, 42.83594
192.9560, 38.10205
194.1780, 16.00195
195.4000, 67.14795
196.6220, 111.3330
197.8430, 122.8159
199.0640, 152.7964
200.2860, 103.0850
201.5070, 109.4092
202.7270, 45.14551
203.9480, 44.39844
205.1690, 20.39355
206.3890, 24.07812
207.6090, 42.58447
208.8290, 30.12500
210.0490, 112.7012
211.2690, 51.31348
212.4890, 102.9424
213.7080, 120.6084
214.9280, 237.3120
216.1470, 177.0537
217.3660, 188.8345
218.5850, 352.6528
219.8030, 329.5059
221.0220, 363.3833
222.2400, 455.2754
223.4590, 390.1567
224.6770, 384.0205
225.8950, 390.9111
227.1120, 357.8286
228.3300, 355.7793
229.5480, 359.7739
230.7650, 377.5068
231.9820, 454.8906
233.1990, 465.0107
234.4160, 525.4893
235.6330, 618.3735
236.8490, 593.6187
238.0660, 601.9067
239.2820, 612.2383
240.4980, 723.6118
241.7140, 824.0278
242.9300, 808.4858
244.1460, 683.9863
245.3610, 532.5298
246.5770, 499.1152
247.7920, 381.7505
249.0070, 300.4556
250.2220, 256.2539
251.4370, 433.1245
252.6510, 345.0366
253.8660, 442.9888
255.0800, 427.9800
256.2940, 429.0103
257.5080, 468.0796
258.7220, 475.8945
259.9360, 471.0117
261.1490, 517.9956
262.3630, 462.7490
263.5760, 447.5522
264.7890, 467.3867
266.0020, 424.2397
267.2150, 410.1060
268.4270, 496.9858
269.6400, 364.8784
270.8520, 431.7368
272.0640, 352.6123
273.2760, 285.5015
274.4880, 258.4043
275.7000, 234.3184
276.9120, 219.2363
278.1230, 208.1792
279.3340, 193.3706
280.5450, 321.3218
281.7560, 215.2793
282.9670, 272.2568
284.1780, 105.2607
285.3880, 250.2383
286.5980, 181.2383
287.8090, 47.27295
289.0190, 163.3462
290.2290, 41.42041
291.4380, 63.57910
292.6480, 5.758789
293.8570, 68.96191
295.0670, 197.1812
296.2760, 139.3481
297.4850, 121.5010
298.6930, 265.6943
299.9020, 154.8936
301.1110, 232.1279
302.3190, 160.4053
303.5270, 305.7422
304.7350, 145.1123
305.9430, 219.5059
307.1510, 111.9321
308.3580, 158.8291
309.5660, 161.2192
310.7730, 157.8408
311.9800, 207.3965
313.1870, 232.9829
314.3940, 298.6006
315.6010, 185.2495
316.8070, 325.9287
318.0130, 217.6396
319.2200, 321.3813
320.4260, 192.1528
321.6310, 249.9414
322.8370, 299.7529
324.0430, 284.1572
325.2480, 380.4956
326.4540, 409.8438
327.6590, 211.2798
328.8640, 276.7622
330.0680, 311.7881
331.2730, 240.6738
332.4780, 318.6372
333.6820, 323.8491
334.8860, 214.9736
336.0900, 304.4150
337.2940, 348.5962
338.4980, 312.9619
339.7010, 313.1997
340.9050, 267.4658
342.1080, 317.7607
343.3110, 296.8218
344.5140, 235.4336
345.7170, 311.8120
346.9200, 330.2183
348.1220, 360.8203
349.3240, 230.1143
350.5270, 325.0635
351.7290, 259.5806
352.9310, 120.1245
354.1320, 242.6968
355.3340, 230.2964
356.5350, 118.9229
357.7370, 148.5767
358.9380, 241.2578
360.1390, 95.96680
361.3400, 57.70264
362.5400, 154.4653
363.7410, 46.25488
364.9410, 91.07080
366.1410, 26.91455
367.3410, 90.78516
368.5410, 142.6821
369.7410, 185.6069
370.9400, 137.5591
372.1400, 48.53857
373.3390, 263.5439
374.5380, 192.5776
375.7370, 95.63770
376.9360, 295.7246
378.1350, 240.2603
379.3330, 187.6357
380.5310, 214.5322
381.7300, 286.2710
382.9280, 243.8921
384.1260, 279.5327
385.3230, 325.4800
386.5210, 282.0767
387.7180, 211.3984
388.9160, 375.7461
390.1130, 404.1191
391.3100, 282.5166
392.5060, 354.9395
393.7030, 361.3877
394.9000, 315.8594
396.0960, 281.3555
397.2920, 403.8760
398.4880, 406.4199
399.6840, 406.9883
400.8800, 311.5811
402.0750, 373.1963
403.2710, 356.8359
404.4660, 452.4990
405.6610, 401.1875
406.8560, 360.9033
408.0510, 341.6426
409.2450, 406.4092
410.4400, 429.2002
411.6340, 379.0166
412.8280, 497.8584
414.0220, 444.7266
415.2160, 361.6201
416.4100, 336.5400
417.6030, 294.4854
418.7970, 431.4561
419.9900, 411.4531
421.1830, 294.4766
422.3760, 361.5254
423.5690, 226.6045
424.7610, 318.7090
425.9540, 270.9551
427.1460, 334.2041
428.3380, 455.3877
429.5300, 473.4580
430.7220, 431.1025
431.9140, 345.3311
433.1050, 369.6680
434.2970, 400.4521
435.4880, 369.9287
436.6790, 432.3896
437.8700, 497.5312
439.0610, 369.4512
440.2510, 297.4414
441.4420, 386.4482
442.6320, 488.4990
443.8220, 369.1367
445.0120, 416.6328
446.2020, 453.1406
447.3910, 579.7207
448.5810, 466.3242
449.7700, 419.9512
450.9600, 470.6016
452.1490, 380.2822
453.3370, 432.9863
454.5260, 339.7129
455.7150, 447.4629
456.9030, 414.2354
458.0910, 464.0312
459.2800, 489.8496
460.4670, 546.6914
461.6550, 657.5557
462.8430, 697.4424
464.0300, 753.3516
465.2180, 862.2842
466.4050, 876.2383
467.5920, 949.2188
468.7790, 1067.223
469.9650, 969.2539
471.1520, 1023.312
472.3380, 1146.396
473.5250, 1025.510
474.7110, 942.6650
475.8970, 979.8506
477.0820, 903.0664
478.2680, 813.3047
479.4540, 767.5684
480.6390, 780.8535
481.8240, 822.1689
483.0090, 798.7334
484.1940, 815.8643
485.3780, 837.2451
486.5630, 840.6465
487.7470, 934.0703
488.9320, 923.5156
490.1160, 994.9824
491.3000, 1107.472
492.4830, 1040.982
493.6670, 1146.267
494.8500, 1180.072
496.0340, 1220.649
497.2170, 1202.249
498.4000, 1170.869
499.5820, 1194.512
500.7650, 1054.175
501.9480, 978.8604
503.1300, 831.5684
504.3120, 888.2979
505.4940, 770.3555
506.6760, 809.8203
507.8580, 658.6152
509.0390, 683.4297
510.2210, 664.2676
511.4020, 607.1270
512.5830, 491.0078
513.7640, 455.0703
514.9450, 372.2021
516.1250, 307.7803
517.3060, 215.7490
518.4860, 114.7383
519.6660, 7.250977
520.8460, 2.223633
522.0260, 14.17773
523.2060, 72.12012
524.3850, 49.07129
525.5650, 48.72363
526.7440, 33.97754
527.9230, 2.925781
529.1020, 30.14258
530.2810, 56.23242
531.4590, 156.3438
532.6380, 184.4766
533.8160, 235.6309
534.9940, 408.8047
536.1720, 414.0020
537.3500, 471.2188
538.5270, 639.4561
539.7050, 756.7158
540.8820, 682.9951
542.0590, 608.2959
543.2360, 595.6182
544.4130, 520.9600
545.5900, 531.3223
546.7660, 418.7061
547.9430, 297.1104
549.1190, 360.5352
550.2950, 481.9795
551.4710, 373.4453
552.6470, 260.9316
553.8220, 339.4375
554.9980, 277.9629
556.1730, 272.5088
557.3480, 226.0762
558.5230, 103.6836
559.6980, 141.3145
560.8730, 143.9639
562.0470, 207.6338
563.2220, 154.3848
564.3960, 54.03223
565.5700, 68.76074
566.7440, 35.49023
567.9170, 54.74316
569.0910, 18.99609
570.2640, 9.245117
571.4380, 60.47754
572.6110, 70.72168
573.7840, 157.9814
574.9570, 7.298828
576.1290, 34.60547
577.3020, 90.91406
578.4740, 121.2480
579.6460, 116.6230
580.8180, 99.03613
581.9900, 80.47949
583.1620, 1.946289
584.3330, 8.599609
585.5040, 30.83887
586.6760, 106.2783
587.8470, 66.24902
589.0180, 134.7939
590.1880, 321.3584
591.3590, 294.9404
592.5290, 319.5400
593.7000, 405.1582
594.8700, 474.7939
596.0400, 503.4492
597.2090, 686.1211
598.3790, 828.8115
599.5490, 925.5205
600.7180, 1184.246
601.8870, 1260.989
603.0560, 1411.750
604.2250, 1581.528
605.3940, 1813.325
606.5620, 2165.139
607.7300, 2343.969
608.8990, 2494.818
610.0670, 2912.684
611.2350, 3114.566
612.4020, 3570.466
613.5700, 4037.383
614.7370, 4475.316
615.9050, 5323.268
617.0720, 5972.235
618.2390, 7098.219
619.4060, 8492.219
620.5720, 10119.24
621.7390, 12107.28
622.9050, 14769.34
624.0710, 18222.42
625.2370, 22321.52
626.4030, 27399.65
627.5690, 32936.80
628.7340, 38923.98
629.9000, 44600.19
631.0650, 48927.41
632.2300, 51418.65
633.3950, 51266.93
634.5600, 47612.23
635.7240, 41688.54
636.8890, 34910.88
638.0530, 28480.27
639.2170, 22826.69
640.3810, 18241.15
641.5450, 14760.67
642.7080, 12122.21
643.8720, 10184.77
645.0350, 8462.339
646.1980, 7130.946
647.3610, 6366.580
648.5240, 5628.234
649.6870, 4725.908
650.8490, 4130.615
652.0120, 3882.372
653.1740, 3399.152
654.3360, 3019.964
655.4980, 2771.795
656.6600, 2556.646
657.8210, 2293.527
658.9830, 2143.426
660.1440, 2031.918
661.3050, 1832.615
662.4660, 1785.831
663.6270, 1577.269
664.7870, 1543.873
665.9480, 1412.501
667.1080, 1314.865
668.2680, 1302.118
669.4280, 1164.686
670.5880, 1237.768
671.7480, 1164.863
672.9070, 1067.973
674.0670, 1120.096
675.2260, 1128.230
676.3850, 1165.380
677.5440, 1068.542
678.7030, 1068.719
679.8610, 1037.907
681.0200, 1081.109
682.1780, 1116.323
683.3360, 1051.552
684.4940, 1175.791
685.6520, 1133.043
686.8090, 1084.308
687.9670, 1313.586
689.1240, 1277.874
690.2810, 1440.177
691.4380, 1411.490
692.5950, 1489.815
693.7520, 1568.153
694.9080, 1526.502
696.0650, 1441.862
697.2210, 1250.116
698.3770, 1199.736
699.5330, 1028.130
700.6880, 786.5342
701.8440, 665.9492
702.9990, 553.3750
704.1550, 350.8115
705.3100, 265.2588
706.4650, 261.5996
707.6190, 152.9746
708.7740, 145.4121
709.9290, 183.0791
711.0830, 195.1680
712.2370, 128.7080
713.3910, 339.5029
714.5450, 230.2344
715.6980, 157.6367
716.8520, 295.0879
718.0050, 259.8945
719.1580, 214.9600
720.3110, 240.9902
721.4640, 209.0400
722.6170, 199.4609
723.7700, 226.5723
724.9220, 170.2412
726.0740, 141.9355
727.2260, 123.5908
728.3780, 85.25684
729.5300, 46.93555
730.6810, 97.62695
731.8330, 7.328125
732.9840, 55.04102
734.1350, 91.76562
735.2860, 47.50195
736.4370, 124.2480
737.5880, 55.00586
738.7380, 104.7744
739.8880, 57.55371
741.0390, 27.34277
742.1890, 189.1416
743.3380, 73.95215
744.4880, 133.7725
745.6380, 163.6035
746.7870, 138.4434
747.9360, 159.2930
749.0850, 236.1533
750.2340, 268.0225
751.3830, 217.9004
752.5310, 237.7891
753.6800, 192.6855
754.8280, 352.5928
755.9760, 492.5088
757.1240, 509.5508
758.2720, 671.3701
759.4190, 1068.313
760.5670, 1222.711
761.7140, 1457.766
762.8610, 1939.380
764.0080, 2075.854
765.1550, 2829.323
766.3020, 3630.186
767.4480, 4197.982
768.5950, 5179.596
769.7410, 6018.459
770.8870, 6802.674
772.0330, 7524.061
773.1780, 8150.306
774.3240, 8250.562
775.4690, 8126.215
776.6140, 7585.163
777.7590, 7304.723
778.9040, 6769.749
780.0490, 5874.564
781.1940, 5310.623
782.3380, 4577.753
783.4820, 3927.087
784.6260, 3561.929
785.7700, 3171.463
786.9140, 2801.761
788.0580, 2638.937
789.2010, 2407.207
790.3450, 2233.939
791.4880, 1957.382
792.6310, 1917.368
793.7730, 1836.883
794.9160, 1631.418
796.0590, 1553.512
797.2010, 1557.605
798.3430, 1517.506
799.4850, 1405.855
800.6270, 1303.457
801.7690, 1152.590
802.9100, 1202.400
804.0520, 1116.972
805.1930, 1031.137
806.3340, 1019.305
807.4750, 848.4697
808.6160, 787.6318
809.7560, 781.7930
810.8970, 691.9521
812.0370, 821.1084
813.1770, 564.2617
814.3170, 455.4131
815.4570, 368.5615
816.5960, 443.7070
817.7360, 312.7305
818.8750, 368.9902
820.0140, 216.1270
821.1530, 189.2607
822.2920, 234.3906
823.4310, 256.5176
824.5690, 127.6416
825.7070, 109.7617
826.8460, 245.8789
827.9840, 125.9912
829.1220, 138.0996
830.2590, 81.20312
831.3970, 129.3027
832.5340, 61.39746
833.6710, 79.51367
834.8080, 2.471680
835.9450, 121.5605
837.0820, 210.5879
838.2190, 49.61035
839.3550, 57.62695
840.4910, 80.63672
841.6270, 71.64258
842.7630, 68.64355
843.8990, 172.6475
845.0350, 299.6592
846.1700, 236.6650
847.3060, 343.6699
848.4410, 343.6846
849.5760, 451.7109
850.7100, 452.7666
851.8450, 452.8213
852.9800, 327.8789
854.1140, 309.9521
855.2480, 311.0488
856.3820, 444.1660
857.5160, 437.3018
858.6500, 452.4492
859.7830, 463.5938
860.9170, 460.7305
862.0500, 387.8701
863.1830, 477.0273
864.3160, 435.1768
865.4480, 526.3184
866.5810, 508.4512
867.7130, 522.5752
868.8460, 393.6914
869.9780, 482.7979
871.1100, 475.8975
872.2410, 319.9873
873.3730, 373.0684
874.5050, 312.1406
875.6360, 287.2031
876.7670, 361.2559
877.8980, 229.3008
879.0290, 181.3340
880.1590, 273.3574
881.2900, 269.3721
882.4200, 251.3760
883.5500, 222.3711
884.6800, 113.3545
885.8100, 163.2695
886.9400, 137.2920
888.0690, 195.2441
889.1990, 109.1875
890.3280, 70.12012
891.4570, 83.04102
892.5860, 50.95215
893.7140, 6.850586
894.8430, 72.72754
895.9710, 2.404297
897.1000, 59.43652
898.2280, 4.734375
899.3560, 29.06836
900.4830, 49.14648
901.6110, 12.58691
902.7380, 16.29980
903.8660, 34.00586
904.9930, 15.64453
906.1200, 10.72656
907.2460, 45.87109
908.3730, 58.45215
909.5000, 9.979492
910.6260, 127.4443
911.7520, 68.00293
912.8780, 13.62695
914.0040, 116.2861
915.1290, 17.03418
916.2550, 119.1787
917.3800, 14.43457
918.5050, 24.38770
919.6300, 16.25293
920.7550, 5.014648
921.8800, 11.08789
923.0040, 36.75586
924.1290, 101.7529
925.2530, 2.677734
926.3770, 40.35059
927.5010, 25.40723
928.6250, 8.970703
929.7480, 24.23730
930.8720, 23.65723
931.9950, 154.3818
933.1180, 34.12109
934.2410, 77.86621
935.3640, 56.37305
936.4860, 0.7626950
937.6090, 48.33887
938.7310, 68.04590
939.8530, 175.6016
940.9750, 190.4502
942.0970, 203.4863
943.2180, 262.0186
944.3400, 196.5879
945.4610, 214.1426
946.5820, 215.6826
947.7030, 204.2070
948.8240, 255.7178
949.9450, 249.2520
951.0650, 352.9004
952.1860, 243.3643
953.3060, 218.8125
954.4260, 143.2471
955.5460, 309.7227
956.6650, 172.1270
957.7850, 281.8018
958.9040, 469.3398
960.0230, 328.7285
961.1420, 340.0713
962.2610, 266.3994
963.3800, 346.7109
964.4990, 361.0088
965.6170, 391.2900
966.7350, 397.5557
967.8530, 443.5059
968.9710, 483.1572
970.0890, 500.1406
971.2070, 510.3457
972.3240, 480.5352
973.4410, 432.7148
974.5580, 608.8799
975.6750, 384.0283
976.7920, 435.1631
977.9090, 532.2812
979.0250, 377.3848
980.1410, 348.4727
981.2580, 398.5459
982.3740, 424.6025
983.4890, 362.6445
984.6050, 403.6709
985.7200, 307.6807
986.8360, 303.6758
987.9510, 279.6543
989.0660, 215.6162
990.1810, 287.5625
991.2950, 224.4922
992.4100, 286.4072
993.5240, 181.3037
994.6390, 233.1836
995.7530, 295.0488
996.8660, 349.8975
997.9800, 391.4873
999.0940, 303.5420
1000.207, 382.3398
1001.320, 484.1211
1002.433, 294.8848
1003.546, 400.6318
1004.659, 377.3633
1005.772, 241.0781
1006.884, 337.7764
1007.996, 395.4580
1009.108, 274.1230
1010.220, 296.7715
1011.332, 230.4023
1012.444, 365.0186
1013.555, 357.6182
1014.666, 460.2197
1015.777, 328.7861
1016.888, 349.3359
1017.999, 284.8691
1019.110, 313.3965
1020.220, 387.9053
1021.331, 317.4023
1022.441, 361.8828
1023.551, 390.5645
1024.661, 312.0205
1025.770, 404.4609
1026.880, 428.7666
1027.989, 420.2881
1029.098, 483.7832
1030.207, 378.7090
1031.316, 412.9736
1032.425, 450.6680
1033.533, 376.4961
1034.642, 423.3203
1035.750, 379.7441
1036.858, 380.0166
1037.966, 323.8809
1039.073, 369.2783
1040.181, 423.4521
1041.288, 404.3105
1042.396, 457.6289
1043.503, 319.6016
1044.610, 342.3916
1045.716, 372.6514
1046.823, 180.2910
1047.929, 290.4561
1049.036, 259.8223
1050.142, 104.9863
1051.248, 265.0176
1052.353, 211.8369
1053.459, 71.17676
1054.564, 261.2295
1055.670, 84.05566
1056.775, 133.9971
1057.880, 18.99805
1058.985, 186.3564
1060.089, 248.9932
1061.194, 34.42090
1062.298, 134.1113
1063.402, 54.61133
1064.506, 138.8359
1065.610, 82.75879
1066.713, 74.86426
1067.817, 67.51074
1068.920, 132.9004
1070.023, 83.17871
1071.126, 44.98145
1072.229, 116.9326
1073.332, 0.3496090
1074.435, 89.19043
1075.537, 157.1064
1076.639, 129.7607
1077.741, 100.5186
1078.843, 147.3340
1079.945, 182.0703
1081.046, 166.9365
1082.148, 150.6816
1083.249, 49.40820
1084.350, 244.1299
1085.451, 260.9502
1086.551, 270.6865
1087.652, 81.39551
1088.752, 117.0938
1089.853, 37.78906
1090.953, 54.47461
1092.053, 86.40039
1093.152, 129.0254
1094.252, 158.6797
1095.351, 131.3242
1096.451, 131.9639
1097.550, 140.6006
1098.649, 215.2627
1099.748, 115.7119
1100.846, 241.1904
1101.945, 315.0771
1103.043, 340.0967
1104.141, 169.9092
1105.239, 252.9512
1106.337, 233.7861
1107.434, 210.4521
1108.532, 327.7568
1109.629, 185.9053
1110.726, 154.1143
1111.823, 380.6738
1112.920, 251.2266
1114.017, 321.7686
1115.113, 194.3027
1116.210, 273.8291
1117.306, 203.3457
1118.402, 354.8555
1119.498, 448.3564
1120.593, 243.8486
1121.689, 355.3330
1122.784, 264.8096
1123.879, 319.2783
1124.974, 260.7383
1126.069, 290.1904
1127.164, 238.6357
1128.259, 233.0713
1129.353, 216.5010
1130.447, 251.9219
1131.541, 259.3350
1132.635, 262.7402
1133.729, 242.1387
1134.822, 298.5303
1135.916, 146.9150
1137.009, 223.3018
1138.102, 289.6816
1139.195, 130.1416
1140.288, 240.5068
1141.380, 316.8779
1142.473, 176.2295
1143.565, 139.5742
1144.657, 167.9111
1145.749, 70.24219
1146.841, 297.5664
1147.932, 275.8838
1149.024, 241.2725
1150.115, 159.7783
1151.206, 111.0967
1152.297, 137.8213
1153.388, 311.1602
1154.479, 25.99805
1155.569, 224.4316
1156.659, 132.7490
1157.750, 108.0596
1158.839, 132.3643
1159.929, 47.66699
1161.019, 160.9639
1162.108, 162.2666
1163.198, 212.5654
1164.287, 189.8662
1165.376, 236.1631
1166.465, 210.5449
1167.553, 118.7832
1168.642, 149.0918
1169.730, 94.40820
1170.818, 35.72461
1171.906, 262.0439
1172.994, 6.358398
1174.082, 76.66797
1175.170, 17.98145
1176.257, 192.3291
1177.344, 142.6973
1178.431, 131.0713
1179.518, 217.4785
1180.605, 52.89355
1181.691, 105.2471
1182.778, 148.6553
1183.864, 55.07422
1184.950, 0.6718750
1186.036, 92.75098
1187.122, 9.935547
1188.207, 22.49219
1189.292, 142.4375
1190.378, 202.8975
1191.463, 1.628906
1192.548, 212.0957
1193.632, 91.56738
1194.717, 3.901367
1195.801, 79.38184
1196.886, 74.83008
1197.970, 101.2490
1199.054, 148.6348
1200.137, 44.12598
1201.221, 125.1006
1202.305, 53.55371
1203.388, 150.0908
1204.471, 39.57715
1205.554, 18.94141
1206.637, 122.6904
1207.719, 71.60742
1208.802, 34.90137
1209.884, 233.1904
1210.966, 25.86133
1212.048, 52.14355
1213.130, 169.4219
1214.212, 141.0508
1215.293, 36.01660
1216.374, 53.28223
1217.456, 159.5439
1218.536, 135.7461
1219.617, 229.7529
1220.698, 73.71582
1221.778, 18.79883
1222.859, 45.01074
1223.939, 153.2480
1225.019, 91.48242
1226.099, 77.44238
1227.178, 263.1182
1228.258, 49.34180
1229.337, 68.56250
1230.417, 164.7803
1231.496, 143.2012
1232.574, 70.41113
1233.653, 101.8418
1234.732, 8.955078
1235.810, 216.2324
1236.888, 177.4180
1237.966, 104.5996
1239.044, 208.7764
1240.122, 198.9492
1241.199, 177.1191
1242.277, 201.2852
1243.354, 196.4492
1244.431, 99.60742
1245.508, 147.7627
1246.585, 117.9150
1247.661, 86.06445
1248.738, 245.2100
1249.814, 176.3516
1250.890, 191.4912
1251.966, 166.6260
1253.042, 193.7578
1254.117, 141.8867
1255.193, 139.0127
1256.268, 168.1357
1257.343, 96.25488
1258.418, 103.3711
1259.493, 213.4854
1260.567, 159.5957
1261.642, 100.7021
1262.716, 157.8066
1263.790, 239.9082
1264.864, 190.0078
1265.938, 227.5098
1267.011, 104.6025
1268.085, 28.69336
1269.158, 135.7803
1270.231, 45.86426
1271.304, 62.94531
1272.377, 65.02539
1273.450, 66.10059
1274.522, 251.1738
1275.594, 115.2256
1276.666, 152.2939
1277.738, 37.18848
1278.810, 23.74805
1279.882, 142.2939
1280.953, 8.696289
1282.025, 202.9990
1283.096, 7.028320
1284.167, 3.166016
1285.238, 187.8428
1286.308, 152.8477
1287.379, 222.8516
1288.449, 91.85254
1289.519, 69.74805
1290.589, 262.8438
1291.659, 145.3125
1292.729, 186.3047
1293.798, 59.29590
1294.868, 212.2852
1295.937, 201.2705
1297.006, 164.2559
1298.075, 204.2393
1299.143, 182.2197
1300.212, 169.0645
1301.280, 164.1270
1302.348, 194.7725
1303.416, 214.7480
1304.484, 253.1064
1305.552, 205.4697
1306.620, 339.4424
1307.687, 299.4141
1308.754, 316.7246
1309.821, 253.3047
1310.888, 204.2744
1311.955, 167.2432
1313.021, 73.17383
1314.088, 191.6973
1315.154, 106.6768
1316.220, 203.6523
1317.286, 137.4648
1318.352, 135.4482
1319.417, 138.4316
1320.483, 85.91309
1321.548, 89.90820
1322.613, 63.89844
1323.678, 56.13867
1324.743, 61.04688
1325.807, 50.57422
1326.872, 87.56055
1327.936, 81.86426
1329.000, 126.4688
1330.064, 130.4746
1331.128, 94.90625
1332.191, 58.26758
1333.255, 52.25488
1334.318, 172.9941
1335.381, 26.05566
1336.444, 97.00488
1337.507, 110.8848
1338.569, 69.18066
1339.632, 69.61523
1340.694, 186.5039
1341.756, 24.60059
1342.818, 58.71094
1343.880, 77.06836
1344.941, 144.9209
1346.003, 48.79199
1347.064, 28.33789
1348.125, 21.52539
1349.186, 45.38770
1350.247, 120.0898
1351.308, 56.90430
1352.368, 13.76855
1353.428, 12.36816
1354.489, 24.50781
1355.549, 92.34570
1356.608, 44.16504
1357.668, 70.00293
1358.727, 53.15820
1359.787, 75.66602
1360.846, 2.508789
1361.905, 70.31641
1362.964, 141.9502
1364.022, 129.7441
1365.081, 103.4951
1366.139, 158.2393
1367.197, 51.98047
1368.255, 88.72363
1369.313, 105.4668
1370.371, 47.19727
1371.428, 107.6279
1372.486, 214.6582
1373.543, 143.3906
1374.600, 191.1221
1375.657, 151.8535
1376.713, 185.5840
1377.770, 112.3154
1378.826, 44.04785
1379.882, 218.7803
1380.938, 136.5137
1381.994, 163.2471
1383.050, 211.9795
1384.106, 265.7139
1385.161, 262.8467
1386.216, 109.1797
1387.271, 242.9131
1388.326, 82.64551
1389.381, 17.37891
1390.435, 148.1133
1391.490, 163.8486
1392.544, 47.41504
1393.598, 122.3115
1394.652, 8.041992
1395.705, 94.68555
1396.759, 206.4180
1397.812, 94.14160
1398.866, 161.4990
1399.919, 50.62012
1400.972, 152.3623
1402.024, 150.1094
1403.077, 181.6875
1404.129, 88.39062
1405.181, 71.28711
1406.233, 76.84277
1407.285, 114.4121
1408.337, 33.07520
1409.389, 18.64844
1410.440, 168.8730
1411.491, 92.50098
1412.542, 55.24902
1413.593, 84.00586
1414.644, 81.77148
1415.695, 35.54492
1416.745, 31.66895
1417.795, 17.87793
1418.845, 116.9219
1419.895, 69.73438
1420.945, 15.55957
1421.995, 79.39941
1423.044, 23.25293
1424.093, 129.1240
1425.142, 134.0117
1426.191, 143.9170
1427.240, 5.156250
1428.289, 70.78906
1429.337, 106.7607
1430.385, 302.7559
1431.433, 49.77832
1432.481, 192.8291
1433.529, 184.9102
1434.577, 78.02441
1435.624, 225.1748
1436.672, 200.3633
1437.719, 136.5967
1438.766, 179.8760
1439.812, 318.5029
1440.859, 314.9297
1441.905, 245.4395
1442.952, 220.9775
1443.998, 224.2861
1445.044, 306.5195
1446.090, 252.6514
1447.135, 193.7422
1448.181, 417.7227
1449.226, 408.7061
1450.271, 349.6895
1451.316, 314.6729
1452.361, 377.6738
1453.405, 374.7783
1454.450, 313.9219
1455.494, 383.1064
1456.538, 326.5547
1457.582, 314.0029
1458.626, 330.0762
1459.670, 333.1865
1460.713, 331.3369
1461.757, 346.5400
1462.800, 435.5518
1463.843, 375.1553
1464.886, 428.2510
1465.928, 467.5781
1466.971, 370.3818
1468.013, 487.4619
1469.055, 465.5537
1470.097, 386.6553
1471.139, 470.7646
1472.181, 447.8818
1473.222, 374.0068
1474.263, 416.1406
1475.305, 533.2842
1476.346, 262.4365
1477.386, 426.5996
1478.427, 281.7725
1479.468, 369.9561
1480.508, 291.1494
1481.548, 292.3555
1482.588, 465.2080
1483.628, 402.3965
1484.668, 425.5986
1485.707, 496.8135
1486.747, 455.2881
1487.786, 453.2764
1488.825, 450.2676
1489.864, 512.7812
1490.902, 536.9160
1491.941, 570.0127
1492.979, 563.1279
1494.017, 584.9004
1495.055, 586.8232
1496.093, 602.9297
1497.131, 616.0430
1498.168, 637.1631
1499.206, 677.2900
1500.243, 634.2754
1501.280, 623.4072
1502.317, 572.5420
1503.354, 780.6777
1504.390, 675.8096
1505.426, 797.9355
1506.463, 646.0137
1507.499, 796.0742
1508.535, 534.1211
1509.570, 641.1582
1510.606, 783.1953
1511.641, 685.2324
1512.676, 793.2715
1513.711, 683.3037
1514.746, 656.4395
1515.781, 646.6709
1516.816, 647.9463
1517.850, 659.2549
1518.884, 760.6387
1519.918, 722.0830
1520.952, 813.5400
1521.986, 743.0098
1523.019, 755.4922
1524.053, 584.9883
1525.086, 704.4971
1526.119, 476.0186
1527.152, 816.5957
1528.185, 587.2305
1529.217, 544.8838
1530.250, 677.6514
1531.282, 437.8291
1532.314, 634.0918
1533.346, 455.4531
1534.377, 511.9229
1535.409, 364.4668
1536.440, 348.8066
1537.472, 482.8145
1538.503, 351.6260
1539.534, 375.5459
1540.564, 480.5879
1541.595, 384.7646
1542.625, 303.0918
1543.656, 479.5762
1544.686, 275.2256
1545.716, 323.0508
1546.745, 376.0635
1547.775, 324.2900
1548.804, 425.7520
1549.834, 377.1084
1550.863, 258.4971
1551.892, 311.8086
1552.920, 300.4268
1553.949, 242.3828
1554.977, 302.7168
1556.006, 157.4727
1557.034, 299.6992
1558.062, 132.4570
1559.089, 174.8125
1560.117, 59.85059
1561.144, 116.6641
1562.172, 64.79785
1563.199, 24.87891
1564.226, 48.12109
1565.252, 56.62500
1566.279, 155.9736
1567.305, 26.27637
1568.332, 24.49414
1569.358, 106.0430
1570.384, 0.0000000E+00
##END=



