##NAMES=Catapleiite
##RRUFFID=R040005
##IDEAL CHEMISTRY=Na_2_Zr^4+^Si_3_O_9_&#183;2H_2_O
##LOCALITY=Langesundsfjord Eikaholmen Vestfold, Norway
##OWNER=RRUFF
##SOURCE=University of Arizona Mineral Museum
##DESCRIPTION=Brown thin tabular crystal
##STATUS=The identification of this mineral has been confirmed by X-ray diffraction and chemical analysis
##URL=rruff.info/R040005
##MEASURED CHEMISTRY=(Na_1.28_Ca_0.36_[box]_0.36_)_Σ=2_Zr_1.00_Si_3.00_O_9_·2H_2_O
##PIN_ID=L00558
##ORIENTATION=Laser parallel to a* (1 0 0). Fiducial mark perpendicular to laser is parallel to -b [0 -1 0]
151.3210, 0.0000000E+00
152.5490, 0.8339840
153.7750, 74.61914
155.0020, 57.52930
156.2290, 83.40820
157.4550, 25.22266
158.6810, 122.7656
159.9080, 64.11523
161.1340, 371.3301
162.3590, 177.7773
163.5850, 343.6484
164.8110, 344.3359
166.0360, 477.4199
167.2610, 436.9570
168.4860, 572.7852
169.7110, 656.3320
170.9360, 752.6484
172.1610, 908.7930
173.3850, 885.2305
174.6100, 1115.641
175.8340, 1085.928
177.0580, 1498.291
178.2820, 1353.672
179.5050, 1567.824
180.7290, 1769.369
181.9520, 1888.348
183.1760, 1920.230
184.3990, 1988.150
185.6220, 2158.795
186.8450, 2284.969
188.0670, 2441.727
189.2900, 2772.951
190.5120, 2883.611
191.7340, 3097.307
192.9560, 3542.098
194.1780, 3660.117
195.4000, 3669.473
196.6220, 4022.338
197.8430, 4117.338
199.0640, 4283.734
200.2860, 4570.193
201.5070, 4758.895
202.7270, 5121.412
203.9480, 5157.160
205.1690, 5215.486
206.3890, 5508.148
207.6090, 5433.465
208.8290, 5859.148
210.0490, 5769.826
211.2690, 5777.086
212.4890, 6058.543
213.7080, 5901.391
214.9280, 5631.887
216.1470, 5505.268
217.3660, 5094.979
218.5850, 4602.584
219.8030, 4632.822
221.0220, 4044.090
222.2400, 3606.361
223.4590, 3528.230
224.6770, 3091.314
225.8950, 2854.613
227.1120, 2468.371
228.3300, 2477.512
229.5480, 2036.943
230.7650, 1856.799
231.9820, 1842.443
233.1990, 1637.576
234.4160, 1435.629
235.6330, 1332.252
236.8490, 1236.111
238.0660, 1208.617
239.2820, 1141.977
240.4980, 936.9258
241.7140, 898.0293
242.9300, 801.8301
244.1460, 620.8711
245.3610, 682.1816
246.5770, 688.5508
247.7920, 665.9668
249.0070, 768.4180
250.2220, 584.8984
251.4370, 415.4043
252.6510, 502.9219
253.8660, 272.4434
255.0800, 305.9570
256.2940, 536.4531
257.5080, 534.9141
258.7220, 625.3262
259.9360, 504.6738
261.1490, 433.9570
262.3630, 310.1719
263.5760, 229.3164
264.7890, 150.3984
266.0020, 251.4141
267.2150, 211.3652
268.4270, 138.2520
269.6400, 266.0781
270.8520, 64.15234
272.0640, 40.54492
273.2760, 23.81641
274.4880, 26.24609
275.7000, 262.7539
276.9120, 157.3496
278.1230, 145.0059
279.3340, 78.71484
280.5450, 95.07812
281.7560, 147.3984
282.9670, 117.3867
284.1780, 133.9531
285.3880, 155.8086
286.5980, 125.3828
287.8090, 150.1309
289.0190, 157.5215
290.2290, 159.0039
291.4380, 19.23438
292.6480, 22.80469
293.8570, 118.8750
295.0670, 57.59180
296.2760, 75.84570
297.4850, 68.05469
298.6930, 201.5254
299.9020, 350.5020
301.1110, 195.4512
302.3190, 326.4570
303.5270, 282.8652
304.7350, 161.8945
305.9430, 321.8945
307.1510, 472.8516
308.3580, 405.7539
309.5660, 334.5859
310.7730, 409.3379
311.9800, 487.0059
313.1870, 575.5820
314.3940, 539.0566
315.6010, 584.4199
316.8070, 560.6660
318.0130, 645.7930
319.2200, 438.7930
320.4260, 662.6738
321.6310, 750.4277
322.8370, 589.0625
324.0430, 896.5684
325.2480, 625.9531
326.4540, 890.2109
327.6590, 449.3359
328.8640, 647.3066
330.0680, 869.1152
331.2730, 816.7500
332.4780, 647.2012
333.6820, 671.4727
334.8860, 810.5723
336.0900, 1022.539
337.2940, 878.3203
338.4980, 795.9531
339.7010, 821.1582
340.9050, 849.9922
342.1080, 826.5059
343.3110, 907.5996
344.5140, 899.5762
345.7170, 937.6348
346.9200, 1102.361
348.1220, 971.6582
349.3240, 1170.318
350.5270, 1126.658
351.7290, 1230.881
352.9310, 1311.998
354.1320, 1220.887
355.3340, 1411.658
356.5350, 1363.209
357.7370, 1312.527
358.9380, 1357.449
360.1390, 1362.619
361.3400, 1488.213
362.5400, 1431.111
363.7410, 1481.674
364.9410, 1461.928
366.1410, 1475.855
367.3410, 1370.648
368.5410, 1348.307
369.7410, 1346.832
370.9400, 1207.312
372.1400, 1339.756
373.3390, 1255.145
374.5380, 1094.508
375.7370, 1180.842
376.9360, 978.1465
378.1350, 1004.436
379.3330, 1014.705
380.5310, 1010.959
381.7300, 907.2090
382.9280, 899.4414
384.1260, 862.0957
385.3230, 828.8750
386.5210, 822.1172
387.7180, 870.3457
388.9160, 884.8398
390.1130, 916.3984
391.3100, 772.4531
392.5060, 963.2051
393.7030, 973.4238
394.9000, 941.8867
396.0960, 713.5879
397.2920, 957.8672
398.4880, 928.5176
399.6840, 751.5137
400.8800, 784.0059
402.0750, 799.2461
403.2710, 859.4336
404.4660, 905.8496
405.6610, 898.9727
406.8560, 885.1328
408.0510, 985.7246
409.2450, 976.1309
410.4400, 762.9199
411.6340, 1065.262
412.8280, 878.6211
414.0220, 1247.648
415.2160, 1085.949
416.4100, 1136.324
417.6030, 1221.400
418.7970, 1266.412
419.9900, 1417.689
421.1830, 1302.654
422.3760, 1737.486
423.5690, 1513.555
424.7610, 1373.695
425.9540, 1613.625
427.1460, 1864.516
428.3380, 2237.441
429.5300, 2102.084
430.7220, 2621.740
431.9140, 2381.932
433.1050, 2743.752
434.2970, 2806.582
435.4880, 3174.432
436.6790, 3314.025
437.8700, 3426.016
439.0610, 3561.688
440.2510, 3488.105
441.4420, 3566.230
442.6320, 3484.246
443.8220, 3507.457
445.0120, 3059.338
446.2020, 3234.279
447.3910, 3043.818
448.5810, 2573.195
449.7700, 2472.975
450.9600, 2200.455
452.1490, 1673.609
453.3370, 1758.361
454.5260, 1585.447
455.7150, 1165.816
456.9030, 1280.512
458.0910, 1025.014
459.2800, 1002.666
460.4670, 662.1797
461.6550, 524.0059
462.8430, 737.0645
464.0300, 739.8848
465.2180, 751.7637
466.4050, 416.1992
467.5920, 548.0078
468.7790, 551.5234
469.9650, 281.2676
471.1520, 401.9727
472.3380, 450.4766
473.5250, 298.1191
474.7110, 238.7344
475.8970, 239.1387
477.0820, 603.6113
478.2680, 197.1348
479.4540, 233.6289
480.6390, 287.0938
481.8240, 38.53125
483.0090, 82.93555
484.1940, 128.3066
485.3780, 282.6504
486.5630, 307.9668
487.7470, 139.2578
488.9320, 213.5234
490.1160, 27.76367
491.3000, 127.9727
492.4830, 176.1562
493.6670, 248.3145
494.8500, 320.9629
496.0340, 334.5664
497.2170, 443.6582
498.4000, 478.6172
499.5820, 511.7773
500.7650, 588.8066
501.9480, 509.8184
503.1300, 520.8145
504.3120, 411.7949
505.4940, 498.7617
506.6760, 588.7188
507.8580, 849.6621
509.0390, 881.0156
510.2210, 977.5195
511.4020, 1090.434
512.5830, 1102.340
513.7640, 1271.236
514.9450, 1417.123
516.1250, 1446.004
517.3060, 1519.875
518.4860, 1496.738
519.6660, 1482.080
520.8460, 1341.711
522.0260, 1399.199
523.2060, 1271.594
524.3850, 1243.414
525.5650, 1278.678
526.7440, 1093.162
527.9230, 1098.301
529.1020, 1206.191
530.2810, 875.9590
531.4590, 916.0391
532.6380, 831.1152
533.8160, 903.7578
534.9940, 751.3496
536.1720, 672.3750
537.3500, 523.2109
538.5270, 610.3574
539.7050, 368.4668
540.8820, 334.6914
542.0590, 580.6055
543.2360, 321.0156
544.4130, 624.7891
545.5900, 453.7871
546.7660, 364.8848
547.9430, 219.2891
549.1190, 163.4824
550.2950, 368.2148
551.4710, 489.2109
552.6470, 496.7695
553.8220, 433.3984
554.9980, 425.5957
556.1730, 231.2051
557.3480, 643.0410
558.5230, 419.9473
559.6980, 625.4785
560.8730, 734.8105
562.0470, 833.6094
563.2220, 984.6816
564.3960, 1302.561
565.5700, 1374.232
566.7440, 1459.312
567.9170, 1528.439
569.0910, 1947.490
570.2640, 2026.162
571.4380, 2281.867
572.6110, 2489.074
573.7840, 2619.328
574.9570, 2582.629
576.1290, 2415.977
577.3020, 2593.322
578.4740, 2350.430
579.6460, 2360.619
580.8180, 1930.992
581.9900, 1804.355
583.1620, 1638.742
584.3330, 1261.115
585.5040, 1116.473
586.6760, 1092.381
587.8470, 881.7168
589.0180, 529.0449
590.1880, 529.3633
591.3590, 493.6602
592.5290, 624.9648
593.7000, 323.2461
594.8700, 300.5352
596.0400, 401.8125
597.2090, 272.0684
598.3790, 387.3027
599.5490, 343.5234
600.7180, 224.7227
601.8870, 379.9004
603.0560, 103.0547
604.2250, 314.1777
605.3940, 486.2773
606.5620, 397.3535
607.7300, 437.4082
608.8990, 513.4375
610.0670, 482.4590
611.2350, 497.4531
612.4020, 668.4316
613.5700, 736.3867
614.7370, 977.3223
615.9050, 861.2324
617.0720, 1150.121
618.2390, 1210.988
619.4060, 1191.801
620.5720, 1517.623
621.7390, 1718.424
622.9050, 2234.488
624.0710, 2194.773
625.2370, 2645.234
626.4030, 3210.945
627.5690, 3516.635
628.7340, 4065.102
629.9000, 4317.000
631.0650, 4555.656
632.2300, 4877.041
633.3950, 4845.617
634.5600, 5240.178
635.7240, 4364.715
636.8890, 3835.232
638.0530, 3868.727
639.2170, 3047.203
640.3810, 2659.656
641.5450, 1862.088
642.7080, 1919.502
643.8720, 1583.893
645.0350, 1409.748
646.1980, 909.0996
647.3610, 1028.430
648.5240, 588.7422
649.6870, 589.0332
650.8490, 398.3008
652.0120, 393.5508
653.1740, 345.0996
654.3360, 382.9902
655.4980, 299.1777
656.6600, 193.3477
657.8210, 173.4961
658.9830, 280.6250
660.1440, 138.7344
661.3050, 111.8203
662.4660, 33.88281
663.6270, 214.9355
664.7870, 71.93164
665.9480, 62.89453
667.1080, 97.17578
668.2680, 86.63867
669.4280, 244.4258
670.5880, 96.80859
671.7480, 41.84766
672.9070, 42.53516
674.0670, 71.56836
675.2260, 0.8691410
676.3850, 171.7539
677.5440, 336.5254
678.7030, 65.53320
679.8610, 131.6348
681.0200, 130.1348
682.1780, 72.11523
683.3360, 3.537109
684.4940, 0.8632810
685.6520, 68.67578
686.8090, 25.81641
687.9670, 104.3750
689.1240, 15.21289
690.2810, 70.94727
691.4380, 80.77539
692.5950, 79.22461
693.7520, 139.7246
694.9080, 197.1992
696.0650, 39.10938
697.2210, 247.9316
698.3770, 22.75586
699.5330, 61.59766
700.6880, 126.5625
701.8440, 13.10742
702.9990, 191.6289
704.1550, 31.19727
705.3100, 110.2207
706.4650, 108.6172
707.6190, 144.3984
708.7740, 27.05078
709.9290, 9.195313
711.0830, 182.0664
712.2370, 266.3164
713.3910, 249.5469
714.5450, 150.7637
715.6980, 307.9629
716.8520, 34.85156
718.0050, 68.98633
719.1580, 306.0781
720.3110, 119.1543
721.4640, 295.2188
722.6170, 338.2656
723.7700, 289.4531
724.9220, 74.34961
726.0740, 204.3477
727.2260, 344.6758
728.3780, 506.6641
729.5300, 526.7461
730.6810, 406.2031
731.8330, 581.1328
732.9840, 492.1328
734.1350, 541.8867
735.2860, 306.7812
736.4370, 316.7656
737.5880, 504.3594
738.7380, 443.2227
739.8880, 612.0742
741.0390, 705.9180
742.1890, 651.6172
743.3380, 367.4414
744.4880, 570.2578
745.6380, 381.0625
746.7870, 247.8633
747.9360, 431.8320
749.0850, 510.6172
750.2340, 344.3945
751.3830, 363.1641
752.5310, 484.3203
753.6800, 389.0781
754.8280, 366.8320
755.9760, 421.5781
757.1240, 317.3242
758.2720, 298.0625
759.4190, 259.8008
760.5670, 203.5352
761.7140, 216.4453
762.8610, 297.0000
764.0080, 235.7305
765.1550, 268.4648
766.3020, 294.1953
767.4480, 256.9258
768.5950, 333.6602
769.7410, 369.3906
770.8870, 368.1289
772.0330, 307.8633
773.1780, 383.4844
774.3240, 303.3477
775.4690, 472.0898
776.6140, 427.8398
777.7590, 434.5898
778.9040, 364.3477
780.0490, 193.1094
781.1940, 272.8750
782.3380, 46.64844
783.4820, 365.4180
784.6260, 157.1953
785.7700, 232.9805
786.9140, 121.7734
788.0580, 279.5742
789.2010, 343.3828
790.3450, 80.20312
791.4880, 508.0312
792.6310, 256.8711
793.7730, 297.7188
794.9160, 127.5781
796.0590, 353.4492
797.2010, 345.3320
798.3430, 97.95312
799.4850, 495.2109
800.6270, 55.56641
801.7690, 65.50000
802.9100, 231.0000
804.0520, 471.2852
805.1930, 245.9180
806.3340, 194.8125
807.4750, 141.8320
808.6160, 314.5547
809.7560, 174.2891
810.8970, 54.52734
812.0370, 477.6953
813.1770, 206.5039
814.3170, 139.5117
815.4570, 509.2227
816.5960, 223.9922
817.7360, 220.6719
818.8750, 304.6836
820.0140, 29.21484
821.1530, 64.40234
822.2920, 219.3828
823.4310, 206.2812
824.5690, 522.8945
825.7070, 220.7461
826.8460, 96.08984
827.9840, 374.1953
829.1220, 24.22266
830.2590, 16.30859
831.3970, 90.31641
832.5340, 42.93750
833.6710, 33.59375
834.8080, 101.8438
835.9450, 48.71875
837.0820, 22.14453
838.2190, 54.64844
839.3550, 4.265625
840.4910, 26.82422
841.6270, 35.35938
842.7630, 139.2227
843.8990, 83.86719
845.0350, 109.8008
846.1700, 55.28125
847.3060, 58.29297
848.4410, 131.4609
849.5760, 140.8633
850.7100, 76.95312
851.8450, 116.2734
852.9800, 40.64844
854.1140, 33.67188
855.2480, 73.96484
856.3820, 173.4961
857.5160, 30.07812
858.6500, 88.71484
859.7830, 52.59375
860.9170, 77.81250
862.0500, 29.37109
863.1830, 93.78906
864.3160, 3.089844
865.4480, 156.0234
866.5810, 187.9805
867.7130, 247.0273
868.8460, 174.9062
869.9780, 80.82031
871.1100, 105.3086
872.2410, 5.500000
873.3730, 78.24609
874.5050, 186.0547
875.6360, 210.4180
876.7670, 33.84766
877.8980, 90.34766
879.0290, 17.91797
880.1590, 20.56250
881.2900, 216.2617
882.4200, 46.03906
883.5500, 99.12109
884.6800, 87.76562
885.8100, 75.72656
886.9400, 60.75391
888.0690, 28.14453
889.1990, 104.0273
890.3280, 179.2656
891.4570, 140.5781
892.5860, 148.9609
893.7140, 179.4180
894.8430, 185.9492
895.9710, 334.5547
897.1000, 146.2383
898.2280, 130.9961
899.3560, 242.2070
900.4830, 359.7383
901.6110, 499.7227
902.7380, 588.7852
903.8660, 703.9609
904.9930, 733.1406
906.1200, 946.4375
907.2460, 1026.812
908.3730, 1234.266
909.5000, 1354.820
910.6260, 1350.453
911.7520, 1417.168
912.8780, 1681.965
914.0040, 1451.840
915.1290, 1359.801
916.2550, 1622.844
917.3800, 1730.969
918.5050, 1818.699
919.6300, 1925.992
920.7550, 2227.371
921.8800, 2316.836
923.0040, 2188.387
924.1290, 2565.023
925.2530, 2774.742
926.3770, 2929.578
927.5010, 3245.523
928.6250, 3298.562
929.7480, 3681.691
930.8720, 3682.906
931.9950, 3974.215
933.1180, 3967.641
934.2410, 4092.156
935.3640, 4273.762
936.4860, 4217.434
937.6090, 4169.234
938.7310, 4152.367
939.8530, 4059.133
940.9750, 3883.270
942.0970, 3731.504
943.2180, 3392.828
944.3400, 3054.293
945.4610, 3140.863
946.5820, 2507.121
947.7030, 2547.945
948.8240, 2474.883
949.9450, 2275.977
951.0650, 1973.277
952.1860, 2042.715
953.3060, 1823.297
954.4260, 1821.977
955.5460, 1887.797
956.6650, 1787.770
957.7850, 1917.902
958.9040, 1747.133
960.0230, 1778.500
961.1420, 1765.023
962.2610, 2012.668
963.3800, 1975.445
964.4990, 1908.438
965.6170, 2213.453
966.7350, 2204.621
967.8530, 2470.883
968.9710, 2808.172
970.0890, 2832.727
971.2070, 3069.387
972.3240, 3434.586
973.4410, 3850.480
974.5580, 4279.465
975.6750, 4303.906
976.7920, 4999.164
977.9090, 5401.520
979.0250, 6156.578
980.1410, 6960.836
981.2580, 7851.074
982.3740, 8652.859
983.4890, 9825.742
984.6050, 10867.03
985.7200, 11873.81
986.8360, 13341.98
987.9510, 14597.27
989.0660, 16090.96
990.1810, 17594.50
991.2950, 18758.13
992.4100, 20140.87
993.5240, 21350.70
994.6390, 22752.48
995.7530, 23749.67
996.8660, 24906.67
997.9800, 25770.64
999.0940, 26148.06
1000.207, 26313.64
1001.320, 26253.69
1002.433, 25779.84
1003.546, 25314.64
1004.659, 24540.10
1005.772, 23370.91
1006.884, 22479.02
1007.996, 21201.61
1009.108, 19778.06
1010.220, 18680.93
1011.332, 17439.48
1012.444, 16181.98
1013.555, 15231.93
1014.666, 14038.97
1015.777, 13120.15
1016.888, 12185.44
1017.999, 10994.68
1019.110, 10252.21
1020.220, 9725.863
1021.331, 8412.617
1022.441, 8139.082
1023.551, 7056.039
1024.661, 6819.121
1025.770, 6260.301
1026.880, 5541.594
1027.989, 5634.984
1029.098, 5067.488
1030.207, 4579.094
1031.316, 4630.789
1032.425, 3944.594
1033.533, 3919.496
1034.642, 3571.500
1035.750, 3631.625
1036.858, 3366.844
1037.966, 3224.164
1039.073, 3069.578
1040.181, 2944.098
1041.288, 2935.711
1042.396, 2973.082
1043.503, 2923.934
1044.610, 2968.891
1045.716, 2857.938
1046.823, 2933.086
1047.929, 2601.379
1049.036, 2553.770
1050.142, 2521.250
1051.248, 2484.828
1052.353, 2485.508
1053.459, 2099.277
1054.564, 2223.141
1055.670, 1948.094
1056.775, 1841.141
1057.880, 1757.273
1058.985, 1596.867
1060.089, 1647.355
1061.194, 1394.992
1062.298, 1342.469
1063.402, 1360.039
1064.506, 1397.691
1065.610, 1319.367
1066.713, 1318.699
1067.817, 1243.168
1068.920, 1171.219
1070.023, 1212.363
1071.126, 1019.590
1072.229, 1083.902
1073.332, 1234.297
1074.435, 1153.781
1075.537, 1484.348
1076.639, 1441.992
1077.741, 1639.719
1078.843, 1797.527
1079.945, 2102.422
1081.046, 2322.402
1082.148, 2750.461
1083.249, 2773.598
1084.350, 3216.871
1085.451, 3445.148
1086.551, 3443.508
1087.652, 3763.988
1088.752, 3850.477
1089.853, 3823.078
1090.953, 3657.719
1092.053, 3476.613
1093.152, 3282.945
1094.252, 3267.805
1095.351, 3149.727
1096.451, 2959.711
1097.550, 2863.785
1098.649, 2660.922
1099.748, 2295.125
1100.846, 2003.387
1101.945, 1674.719
1103.043, 1555.109
1104.141, 1363.559
1105.239, 1198.082
1106.337, 1094.664
1107.434, 1041.648
1108.532, 888.3633
1109.629, 605.1328
1110.726, 484.9570
1111.823, 603.8516
1112.920, 263.8125
1114.017, 405.8477
1115.113, 239.9336
1116.210, 201.0781
1117.306, 308.2852
1118.402, 384.5469
1119.498, 205.9062
1120.593, 245.3242
1121.689, 345.7812
1122.784, 260.2617
1123.879, 253.7930
1124.974, 277.3828
1126.069, 346.0273
1127.164, 21.75391
1128.259, 60.46484
1129.353, 268.8789
1130.447, 54.26562
1131.541, 296.4883
1132.635, 354.4297
1133.729, 32.56250
1134.822, 184.6367
1135.916, 145.6914
1137.009, 348.8477
1138.102, 562.0469
1139.195, 300.2812
1140.288, 225.9336
1141.380, 272.2500
1142.473, 54.47656
1143.565, 348.1328
1144.657, 339.1562
1145.749, 141.6016
1146.841, 346.0273
1147.932, 276.9375
1149.024, 23.05078
1150.115, 87.27344
1151.206, 201.8828
1152.297, 407.4609
1153.388, 241.5000
1154.479, 161.5234
1155.569, 130.0195
1156.659, 106.9766
1157.750, 375.0117
1158.839, 238.2070
1159.929, 89.66797
1161.019, 286.8477
1162.108, 137.3281
1163.198, 242.7070
1164.287, 273.5234
1165.376, 206.5547
1166.465, 247.2500
1167.553, 355.9023
1168.642, 361.0703
1169.730, 43.02344
1170.818, 290.0312
1171.906, 179.4492
1172.994, 113.2461
1174.082, 301.8086
1175.170, 378.1055
1176.257, 50.10547
1177.344, 22.99219
1178.431, 61.16016
1179.518, 245.1562
1180.605, 411.2031
1181.691, 194.8477
1182.778, 242.6797
1183.864, 213.8867
1184.950, 131.8203
1186.036, 220.0430
1187.122, 311.2109
1188.207, 381.2852
1189.292, 150.6602
1190.378, 104.6641
1191.463, 60.70703
1192.548, 385.2305
1193.632, 218.2266
1194.717, 56.73047
1195.801, 153.8125
1196.886, 133.1211
1197.970, 239.6328
1199.054, 155.9414
1200.137, 87.76562
1201.221, 20.10547
1202.305, 25.22266
1203.388, 20.41406
1204.471, 124.5898
1205.554, 84.73438
1206.637, 223.6797
1207.719, 265.2227
1208.802, 245.1523
1209.884, 285.2422
1210.966, 165.1406
1212.048, 232.9453
1213.130, 97.72266
1214.212, 10.36719
1215.293, 20.20703
1216.374, 148.6016
1217.456, 10.59375
1218.536, 158.0391
1219.617, 156.8516
1220.698, 249.9453
1221.778, 28.99219
1222.859, 53.92969
1223.939, 210.3125
1225.019, 75.87891
1226.099, 523.0703
1227.178, 224.0156
1228.258, 240.1523
1229.337, 168.2656
1230.417, 45.36328
1231.496, 159.4922
1232.574, 256.7070
1233.653, 115.7070
1234.732, 70.16797
1235.810, 51.37891
1236.888, 84.16797
1237.966, 184.0430
1239.044, 247.1250
1240.122, 134.9922
1241.199, 227.8984
1242.277, 147.5820
1243.354, 148.2109
1244.431, 154.7422
1245.508, 144.0664
1246.585, 76.52734
1247.661, 90.06250
1248.738, 27.63672
1249.814, 73.00391
1250.890, 41.88672
1251.966, 100.8906
1253.042, 263.1367
1254.117, 148.5469
1255.193, 172.1367
1256.268, 80.73438
1257.343, 94.22656
1258.418, 102.1875
1259.493, 84.31641
1260.567, 63.06641
1261.642, 187.9180
1262.716, 150.5625
1263.790, 99.70703
1264.864, 50.71875
1265.938, 332.6523
1267.011, 223.2305
1268.085, 189.6797
1269.158, 115.0977
1270.231, 180.1094
1271.304, 56.96875
1272.377, 43.50000
1273.450, 129.5859
1274.522, 184.3047
1275.594, 36.59766
1276.666, 10.78125
1277.738, 3.808594
1278.810, 22.13281
1279.882, 0.5273440
1280.953, 106.8711
1282.025, 92.14453
1283.096, 145.3477
1284.167, 8.035156
1285.238, 146.0781
1286.308, 24.79688
1287.379, 154.8867
1288.449, 36.71484
1289.519, 165.3203
1290.589, 151.2617
1291.659, 109.9414
1292.729, 140.0195
1293.798, 90.78906
1294.868, 21.18750
1295.937, 162.1094
1297.006, 137.1719
1298.075, 295.1680
1299.143, 106.1406
1300.212, 63.17969
1301.280, 213.9844
1302.348, 27.78906
1303.416, 40.82812
1304.484, 331.3477
1305.552, 125.6172
1306.620, 89.00000
1307.687, 125.4414
1308.754, 287.5859
1309.821, 211.7891
1310.888, 97.83203
1311.955, 264.7656
1313.021, 197.9023
1314.088, 270.8867
1315.154, 186.9102
1316.220, 315.5625
1317.286, 431.1641
1318.352, 432.3320
1319.417, 436.2695
1320.483, 387.5156
1321.548, 310.2539
1322.613, 235.5273
1323.678, 115.7617
1324.743, 88.93750
1325.807, 1.050781
1326.872, 46.35156
1327.936, 347.6953
1329.000, 170.6289
1330.064, 281.3359
1331.128, 341.9805
1332.191, 111.6680
1333.255, 281.1836
1334.318, 316.8945
1335.381, 236.2891
1336.444, 310.6133
1337.507, 414.8711
1338.569, 185.0742
1339.632, 346.1875
1340.694, 353.7617
1341.756, 449.3086
1342.818, 453.6289
1343.880, 448.5469
1344.941, 342.7500
1346.003, 457.4297
1347.064, 234.1055
1348.125, 330.6719
1349.186, 170.2070
1350.247, 251.1680
1351.308, 523.9805
1352.368, 304.2617
1353.428, 405.4805
1354.489, 70.62891
1355.549, 479.6836
1356.608, 506.7734
1357.668, 395.6953
1358.727, 384.5430
1359.787, 358.3320
1360.846, 476.0469
1361.905, 197.6992
1362.964, 344.2734
1364.022, 295.7891
1365.081, 202.9023
1366.139, 338.2891
1367.197, 384.5938
1368.255, 368.0430
1369.313, 429.5938
1370.371, 252.7070
1371.428, 247.7500
1372.486, 275.7188
1373.543, 169.4766
1374.600, 244.9141
1375.657, 159.6445
1376.713, 200.3086
1377.770, 393.8398
1378.826, 308.3125
1379.882, 426.7578
1380.938, 97.13672
1381.994, 327.4453
1383.050, 561.6719
1384.106, 249.8086
1385.161, 315.8750
1386.216, 409.3555
1387.271, 111.7891
1388.326, 186.3789
1389.381, 385.2266
1390.435, 449.0195
1391.490, 212.5977
1392.544, 454.3320
1393.598, 339.9453
1394.652, 360.5000
1395.705, 459.9922
1396.759, 195.0430
1397.812, 224.8008
1398.866, 282.1875
1399.919, 368.1797
1400.972, 325.8008
1402.024, 263.8398
1403.077, 298.9453
1404.129, 325.5312
1405.181, 364.1289
1406.233, 336.1953
1407.285, 295.3008
1408.337, 309.6289
1409.389, 149.9609
1410.440, 213.2930
1411.491, 289.1172
1412.542, 176.6055
1413.593, 256.0586
1414.644, 303.0938
1415.695, 333.8359
1416.745, 311.5391
1417.795, 215.5000
1418.845, 195.2344
1419.895, 230.7930
1420.945, 137.8203
1421.995, 179.1523
1423.044, 379.4961
1424.093, 355.6328
1425.142, 520.0508
1426.191, 26.05078
1427.240, 517.4062
1428.289, 308.0703
1429.337, 1015.676
1430.385, 448.1250
1431.433, 21.83594
1432.481, 371.6406
1433.529, 111.1250
1434.577, 357.7461
1435.624, 286.2930
1436.672, 308.1992
1437.719, 405.8164
1438.766, 249.6953
1439.812, 268.7578
1440.859, 243.4727
1441.905, 49.51953
1442.952, 341.1641
1443.998, 310.9297
1445.044, 252.2969
1446.090, 175.0664
1447.135, 236.1016
1448.181, 326.7734
1449.226, 297.7031
1450.271, 473.7930
1451.316, 408.0352
1452.361, 507.8359
1453.405, 310.5000
1454.450, 253.3633
1455.494, 342.6094
1456.538, 382.2031
1457.582, 265.0664
1458.626, 415.6445
1459.670, 227.7852
1460.713, 522.5938
1461.757, 413.3164
1462.800, 298.2578
1463.843, 494.5781
1464.886, 345.8359
1465.928, 159.3047
1466.971, 151.3828
1468.013, 107.8984
1469.055, 274.0898
1470.097, 451.1758
1471.139, 320.8320
1472.181, 622.6172
1473.222, 344.2773
1474.263, 267.2500
1475.305, 13.83203
1476.346, 416.8281
1477.386, 382.0430
1478.427, 463.7422
1479.468, 411.1250
1480.508, 379.9727
1481.548, 229.3047
1482.588, 252.6641
1483.628, 380.8086
1484.668, 266.6523
1485.707, 359.8984
1486.747, 430.2891
1487.786, 408.9102
1488.825, 316.0859
1489.864, 389.2344
1490.902, 437.8789
1491.941, 277.3125
1492.979, 191.7188
1494.017, 151.0469
1495.055, 590.9531
1496.093, 377.0820
1497.131, 646.4844
1498.168, 210.2617
1499.206, 150.2422
1500.243, 370.3203
1501.280, 216.9219
1502.317, 242.8359
1503.354, 506.5195
1504.390, 403.2031
1505.426, 306.0273
1506.463, 385.0547
1507.499, 318.5234
1508.535, 228.2383
1509.570, 470.3047
1510.606, 339.3398
1511.641, 279.9570
1512.676, 394.7070
1513.711, 528.0898
1514.746, 376.7461
1515.781, 342.0898
1516.816, 347.0078
1517.850, 551.4570
1518.884, 633.8633
1519.918, 331.7227
1520.952, 308.7852
1521.986, 109.9922
1523.019, 226.1758
1524.053, 258.4453
1525.086, 317.6211
1526.119, 371.6680
1527.152, 340.7852
1528.185, 395.0469
1529.217, 330.3164
1530.250, 222.5938
1531.282, 115.8516
1532.314, 85.10547
1533.346, 401.5430
1534.377, 390.7656
1535.409, 366.6953
1536.440, 103.8438
1537.472, 193.2148
1538.503, 264.8516
1539.534, 392.4727
1540.564, 332.2266
1541.595, 307.0391
1542.625, 365.8945
1543.656, 128.6797
1544.686, 406.5273
1545.716, 351.3984
1546.745, 348.4414
1547.775, 118.5586
1548.804, 88.00781
1549.834, 343.5273
1550.863, 255.1641
1551.892, 280.8594
1552.920, 460.4883
1553.949, 465.3320
1554.977, 552.8281
1556.006, 487.6602
1557.034, 654.8320
1558.062, 532.6523
1559.089, 510.9492
1560.117, 475.9844
1561.144, 89.70312
1562.172, 345.3633
1563.199, 12.47656
1564.226, 467.1523
1565.252, 53.95703
1566.279, 275.0039
1567.305, 64.51172
1568.332, 90.78125
1569.358, 0.7890630
1570.384, 31.69141
1571.409, 0.0000000E+00
##END=



