##NAMES=Catapleiite
##RRUFFID=R060198
##IDEAL CHEMISTRY=Na_2_Zr^4+^Si_3_O_9_&#183;2H_2_O
##LOCALITY=Mont Saint-Hilaire, Rouville County, Quebec, Canada
##OWNER=RRUFF
##SOURCE=Royal Ontario Museum
##DESCRIPTION=Tan colored pseudohexagonal tabular crystals
##STATUS=The identification of this mineral has been confirmed by X-ray diffraction and chemical analysis
##URL=rruff.info/R060198
##MEASURED CHEMISTRY=(Na_1.92_Ca_0.04_[box]_0.04_)_Σ=2_Zr_1.00_Si_3.00_O_9_·2H_2_O
##PIN_ID=L01561
##ORIENTATION=Laser parallel to b* (0 1 0). Fiducial mark perpendicular to laser is parallel to c [0 0 1]
95.94800, 0.0000000E+00
97.18200, 90.36426
98.41600, 52.19238
99.64900, 59.48242
100.8830, 20.43359
102.1160, 42.24512
103.3490, 115.4082
104.5820, 211.7559
105.8150, 497.7402
107.0470, 872.5830
108.2800, 1430.627
109.5120, 1887.117
110.7440, 1419.282
111.9760, 1058.462
113.2080, 1029.253
114.4400, 1228.814
115.6710, 1362.539
116.9030, 1470.511
118.1340, 1479.357
119.3650, 1303.773
120.5960, 1129.226
121.8270, 973.2324
123.0580, 955.3398
124.2880, 932.6260
125.5190, 1026.486
126.7490, 1054.998
127.9790, 1208.118
129.2090, 1322.228
130.4390, 1446.848
131.6680, 1590.559
132.8980, 1870.870
134.1270, 1784.291
135.3560, 2025.875
136.5850, 2084.613
137.8140, 2451.398
139.0430, 2678.357
140.2710, 2807.740
141.5000, 2939.837
142.7280, 3213.439
143.9560, 3363.180
145.1840, 3448.090
146.4120, 3775.302
147.6390, 3884.936
148.8670, 4215.102
150.0940, 4286.893
151.3210, 4283.400
152.5490, 4460.642
153.7750, 4578.857
155.0020, 4545.939
156.2290, 4461.029
157.4550, 4344.252
158.6810, 4225.438
159.9080, 4047.375
161.1340, 3922.426
162.3590, 3749.611
163.5850, 3605.490
164.8110, 3363.976
166.0360, 3158.762
167.2610, 2939.247
168.4860, 2861.398
169.7110, 2648.760
170.9360, 2484.826
172.1610, 2252.296
173.3850, 2111.561
174.6100, 1982.084
175.8340, 1895.320
177.0580, 1783.723
178.2820, 1473.977
179.5050, 1511.982
180.7290, 1462.026
181.9520, 1293.806
183.1760, 1366.382
184.3990, 1263.424
185.6220, 1217.127
186.8450, 1336.108
188.0670, 1325.184
189.2900, 1459.889
190.5120, 1665.073
191.7340, 1666.570
192.9560, 1774.095
194.1780, 1717.635
195.4000, 1766.182
196.6220, 1961.727
197.8430, 2042.264
199.0640, 2049.784
200.2860, 2264.282
201.5070, 2367.755
202.7270, 2522.196
203.9480, 2387.595
205.1690, 2272.942
206.3890, 2212.226
207.6090, 2120.428
208.8290, 2008.537
210.0490, 1986.540
211.2690, 1777.434
212.4890, 1777.214
213.7080, 1695.873
214.9280, 1606.088
216.1470, 1564.344
217.3660, 1435.523
218.5850, 1102.351
219.8030, 1046.631
221.0220, 827.7095
222.2400, 625.1924
223.4590, 575.9912
224.6770, 514.0146
225.8950, 425.2285
227.1120, 317.9629
228.3300, 240.9858
229.5480, 110.9102
230.7650, 5.261719
231.9820, 66.47119
233.1990, 1.901367
234.4160, 21.61230
235.6330, 49.00684
236.8490, 61.17383
238.0660, 94.88525
239.2820, 78.20215
240.4980, 70.77490
241.7140, 159.6655
242.9300, 107.1372
244.1460, 93.22998
245.3610, 177.1650
246.5770, 115.9316
247.7920, 271.0234
249.0070, 162.6948
250.2220, 297.3867
251.4370, 149.1689
252.6510, 106.0303
253.8660, 157.9819
255.0800, 34.05957
256.2940, 46.24561
257.5080, 47.55664
258.7220, 231.9966
259.9360, 101.3604
261.1490, 295.7720
262.3630, 42.97803
263.5760, 99.96631
264.7890, 94.10693
266.0020, 32.44922
267.2150, 79.98193
268.4270, 109.7202
269.6400, 127.6733
270.8520, 103.8462
272.0640, 69.76807
273.2760, 138.7866
274.4880, 18.43994
275.7000, 41.51074
276.9120, 164.3389
278.1230, 150.0122
279.3340, 310.4961
280.5450, 296.7847
281.7560, 438.8628
282.9670, 534.7295
284.1780, 695.3896
285.3880, 843.8452
286.5980, 979.0947
287.8090, 1031.140
289.0190, 1400.987
290.2290, 1497.644
291.4380, 1526.118
292.6480, 1669.417
293.8570, 1670.548
295.0670, 1802.517
296.2760, 1741.330
297.4850, 1618.993
298.6930, 1759.510
299.9020, 1751.888
301.1110, 1699.128
302.3190, 1684.238
303.5270, 1662.288
304.7350, 1617.078
305.9430, 1633.798
307.1510, 1579.373
308.3580, 1582.783
309.5660, 1526.928
310.7730, 1430.811
311.9800, 1485.401
313.1870, 1480.704
314.3940, 1356.679
315.6010, 1254.279
316.8070, 1207.514
318.0130, 1269.337
319.2200, 1149.723
320.4260, 1152.785
321.6310, 1001.562
322.8370, 1016.108
324.0430, 1015.553
325.2480, 976.8862
326.4540, 917.3579
327.6590, 878.3721
328.8640, 735.3945
330.0680, 725.7993
331.2730, 620.9990
332.4780, 469.0669
333.6820, 412.0630
334.8860, 407.0024
336.0900, 293.8984
337.2940, 283.7583
338.4980, 263.5815
339.7010, 323.3677
340.9050, 125.1177
342.1080, 119.8286
343.3110, 144.5005
344.5140, 267.2266
345.7170, 152.8252
346.9200, 113.3872
348.1220, 204.9111
349.3240, 140.3999
350.5270, 189.2144
351.7290, 258.2744
352.9310, 250.6631
354.1320, 311.0195
355.3340, 350.3477
356.5350, 534.6475
357.7370, 480.9238
358.9380, 518.1753
360.1390, 680.4014
361.3400, 627.5967
362.5400, 600.7598
363.7410, 651.8901
364.9410, 632.5977
366.1410, 864.0430
367.3410, 737.2827
368.5410, 761.3057
369.7410, 957.0610
370.9400, 701.4414
372.1400, 816.9526
373.3390, 857.7021
374.5380, 761.0566
375.7370, 801.2725
376.9360, 760.3374
378.1350, 792.0513
379.3330, 782.3076
380.5310, 795.3525
381.7300, 744.7334
382.9280, 712.2070
384.1260, 635.8862
385.3230, 697.1929
386.5210, 657.0889
387.7180, 707.2891
388.9160, 641.3628
390.1130, 547.1748
391.3100, 580.8301
392.5060, 709.7651
393.7030, 654.4863
394.9000, 696.7393
396.0960, 641.2798
397.2920, 815.5156
398.4880, 777.4766
399.6840, 981.2095
400.8800, 1002.173
402.0750, 1190.044
403.2710, 1351.693
404.4660, 1436.541
405.6610, 1718.661
406.8560, 1994.717
408.0510, 2195.261
409.2450, 2608.172
410.4400, 3177.957
411.6340, 3493.764
412.8280, 4376.712
414.0220, 5029.546
415.2160, 5834.899
416.4100, 7065.864
417.6030, 8323.090
418.7970, 9946.152
419.9900, 11513.56
421.1830, 13219.21
422.3760, 15068.70
423.5690, 16809.71
424.7610, 17838.61
425.9540, 18932.22
427.1460, 19299.24
428.3380, 19280.92
429.5300, 18522.80
430.7220, 17594.68
431.9140, 16222.54
433.1050, 14920.39
434.2970, 13362.22
435.4880, 11646.05
436.6790, 10132.87
437.8700, 8750.687
439.0610, 7725.496
440.2510, 6694.300
441.4420, 5917.098
442.6320, 5048.891
443.8220, 4576.681
445.0120, 3926.468
446.2020, 3435.253
447.3910, 3110.037
448.5810, 2713.820
449.7700, 2522.604
450.9600, 2188.387
452.1490, 1929.172
453.3370, 1816.958
454.5260, 1550.749
455.7150, 1576.545
456.9030, 1430.347
458.0910, 1298.157
459.2800, 1159.977
460.4670, 1047.573
461.6550, 954.6538
462.8430, 835.5132
464.0300, 750.3896
465.2180, 652.2832
466.4050, 629.1968
467.5920, 544.1299
468.7790, 428.0825
469.9650, 554.0566
471.1520, 392.0522
472.3380, 414.0723
473.5250, 394.1162
474.7110, 303.1855
475.8970, 240.7251
477.0820, 226.0806
478.2680, 209.4692
479.4540, 172.4390
480.6390, 216.4307
481.8240, 77.39453
483.0090, 172.6631
484.1940, 173.1328
485.3780, 78.63916
486.5630, 11.64258
487.7470, 125.6670
488.9320, 167.5757
490.1160, 157.4121
491.3000, 61.72559
492.4830, 135.8760
493.6670, 65.33496
494.8500, 213.1963
496.0340, 231.1064
497.2170, 43.36377
498.4000, 175.8711
499.5820, 218.9951
500.7650, 185.1743
501.9480, 277.4287
503.1300, 417.7705
504.3120, 404.1748
505.4940, 500.6494
506.6760, 643.2212
507.8580, 628.8516
509.0390, 615.5630
510.2210, 759.3354
511.4020, 904.1831
512.5830, 1059.125
513.7640, 1195.137
514.9450, 1424.251
516.1250, 1396.472
517.3060, 1665.793
518.4860, 1668.230
519.6660, 1870.789
520.8460, 1986.444
522.0260, 1962.201
523.2060, 2168.109
524.3850, 2187.108
525.5650, 2335.245
526.7440, 2204.500
527.9230, 2307.857
529.1020, 2201.355
530.2810, 2190.980
531.4590, 2331.777
532.6380, 2278.184
533.8160, 2215.471
534.9940, 2264.729
536.1720, 2217.980
537.3500, 2247.660
538.5270, 2351.108
539.7050, 2320.714
540.8820, 2388.468
542.0590, 2460.918
543.2360, 2487.906
544.4130, 2507.860
545.5900, 2686.980
546.7660, 2790.025
547.9430, 2925.124
549.1190, 3260.264
550.2950, 3448.559
551.4710, 3712.230
552.6470, 4086.794
553.8220, 4582.466
554.9980, 5368.049
556.1730, 6001.071
557.3480, 6956.091
558.5230, 8165.918
559.6980, 9134.995
560.8730, 10521.25
562.0470, 12041.29
563.2220, 13828.22
564.3960, 15529.92
565.5700, 17282.25
566.7440, 18594.81
567.9170, 19884.81
569.0910, 20701.22
570.2640, 21336.52
571.4380, 21330.85
572.6110, 20507.20
573.7840, 19702.58
574.9570, 17975.99
576.1290, 16148.42
577.3020, 14353.87
578.4740, 12522.35
579.6460, 10772.85
580.8180, 9098.379
581.9900, 7629.928
583.1620, 6229.501
584.3330, 5250.098
585.5040, 4508.719
586.6760, 3723.361
587.8470, 3133.027
589.0180, 2540.716
590.1880, 2280.426
591.3590, 1848.158
592.5290, 1644.912
593.7000, 1414.688
594.8700, 1361.483
596.0400, 1122.301
597.2090, 1073.139
598.3790, 1055.997
599.5490, 969.8760
600.7180, 969.7495
601.8870, 928.6909
603.0560, 957.6279
604.2250, 957.5830
605.3940, 981.5576
606.5620, 1142.550
607.7300, 1204.560
608.8990, 1472.588
610.0670, 1815.633
611.2350, 2051.694
612.4020, 2351.772
613.5700, 2990.867
614.7370, 3435.978
615.9050, 4303.102
617.0720, 5257.510
618.2390, 6462.824
619.4060, 7954.189
620.5720, 9848.473
621.7390, 12102.16
622.9050, 14400.45
624.0710, 16446.71
625.2370, 18233.38
626.4030, 19290.49
627.5690, 19598.79
628.7340, 19391.88
629.9000, 18341.52
631.0650, 16732.30
632.2300, 14958.41
633.3950, 12721.52
634.5600, 10628.15
635.7240, 8812.642
636.8890, 7071.414
638.0530, 5645.140
639.2170, 4524.218
640.3810, 3537.867
641.5450, 2878.256
642.7080, 2406.631
643.8720, 1802.335
645.0350, 1490.404
646.1980, 1275.239
647.3610, 1019.589
648.5240, 935.2715
649.6870, 867.5581
650.8490, 632.7363
652.0120, 467.3813
653.1740, 431.8906
654.3360, 405.0088
655.4980, 301.2773
656.6600, 273.2485
657.8210, 148.5557
658.9830, 90.73828
660.1440, 133.1108
661.3050, 165.9199
662.4660, 139.7402
663.6270, 106.7812
664.7870, 84.07373
665.9480, 61.62207
667.1080, 15.24609
668.2680, 12.66162
669.4280, 7.396973
670.5880, 34.97266
671.7480, 47.54736
672.9070, 6.678711
674.0670, 5.217285
675.2260, 56.21631
676.3850, 56.89355
677.5440, 1.565918
678.7030, 65.41162
679.8610, 28.77490
681.0200, 37.76562
682.1780, 28.95166
683.3360, 61.63330
684.4940, 32.27979
685.6520, 93.88916
686.8090, 65.46240
687.9670, 105.0000
689.1240, 60.49951
690.2810, 4.960938
691.4380, 42.37988
692.5950, 40.75830
693.7520, 89.09668
694.9080, 19.60547
696.0650, 16.36230
697.2210, 67.17383
698.3770, 12.06592
699.5330, 34.01318
700.6880, 6.025879
701.8440, 74.09277
702.9990, 52.24902
704.1550, 78.51611
705.3100, 33.23633
706.4650, 35.09082
707.6190, 91.50928
708.7740, 237.0366
709.9290, 196.9146
711.0830, 245.1992
712.2370, 215.4546
713.3910, 231.8276
714.5450, 235.1538
715.6980, 315.4346
716.8520, 351.6685
718.0050, 380.8555
719.1580, 505.9961
720.3110, 520.0898
721.4640, 738.1357
722.6170, 644.1343
723.7700, 784.0840
724.9220, 971.9868
726.0740, 1109.841
727.2260, 1238.576
728.3780, 1329.404
729.5300, 1454.113
730.6810, 1531.937
731.8330, 1589.382
732.9840, 1699.943
734.1350, 1665.454
735.2860, 1641.916
736.4370, 1614.327
737.5880, 1631.688
738.7380, 1496.999
739.8880, 1517.258
741.0390, 1352.468
742.1890, 1102.626
743.3380, 1032.734
744.4880, 1052.791
745.6380, 768.7959
746.7870, 706.7500
747.9360, 723.6519
749.0850, 570.5024
750.2340, 567.3008
751.3830, 373.0474
752.5310, 354.7417
753.6800, 390.3833
754.8280, 135.9731
755.9760, 163.5078
757.1240, 155.9883
758.2720, 25.41504
759.4190, 89.76562
760.5670, 191.0596
761.7140, 55.29932
762.8610, 110.4741
764.0080, 33.40820
765.1550, 21.39697
766.3020, 15.48730
767.4480, 71.67627
768.5950, 72.99365
769.7410, 125.4409
770.8870, 109.0449
772.0330, 148.7993
773.1780, 18.72217
774.3240, 70.74854
775.4690, 37.90283
776.6140, 91.16992
777.7590, 20.57764
778.9040, 96.08789
780.0490, 143.7407
781.1940, 53.56201
782.3380, 75.50293
783.4820, 183.5762
784.6260, 32.83643
785.7700, 118.2065
786.9140, 32.72998
788.0580, 79.36084
789.2010, 151.1240
790.3450, 54.05762
791.4880, 160.1089
792.6310, 163.3335
793.7730, 111.7334
794.9160, 70.28027
796.0590, 164.9512
797.2010, 9.796387
798.3430, 65.73291
799.4850, 174.7896
800.6270, 60.02246
801.7690, 93.37158
802.9100, 40.85303
804.0520, 16.56152
805.1930, 52.09668
806.3340, 42.86230
807.4750, 74.73242
808.6160, 68.23584
809.7560, 4.340332
810.8970, 6.759766
812.0370, 132.9253
813.1770, 90.68311
814.3170, 58.39111
815.4570, 156.8286
816.5960, 254.4414
817.7360, 69.85693
818.8750, 137.8315
820.0140, 234.1934
821.1530, 229.6250
822.2920, 190.8857
823.4310, 320.2310
824.5690, 260.5176
825.7070, 417.7783
826.8460, 372.9341
827.9840, 322.7666
829.1220, 628.7378
830.2590, 632.6494
831.3970, 706.7056
832.5340, 767.3828
833.6710, 719.1152
834.8080, 766.8506
835.9450, 812.8062
837.0820, 758.4023
838.2190, 800.2515
839.3550, 759.2153
840.4910, 654.4219
841.6270, 584.9971
842.7630, 614.3379
843.8990, 520.2388
845.0350, 540.5039
846.1700, 597.3262
847.3060, 543.8843
848.4410, 543.4111
849.5760, 519.9062
850.7100, 470.3711
851.8450, 645.8052
852.9800, 608.2100
854.1140, 574.9937
855.2480, 553.9316
856.3820, 433.2490
857.5160, 498.5386
858.6500, 406.8008
859.7830, 452.0356
860.9170, 435.2437
862.0500, 399.4258
863.1830, 376.5815
864.3160, 464.7124
865.4480, 505.8184
866.5810, 469.8994
867.7130, 435.9570
868.8460, 467.9912
869.9780, 416.0010
871.1100, 451.0527
872.2410, 488.9561
873.3730, 484.9009
874.5050, 585.8232
875.6360, 568.7266
876.7670, 419.6084
877.8980, 628.4707
879.0290, 576.3145
880.1590, 699.1387
881.2900, 623.9443
882.4200, 651.7329
883.5500, 745.5034
884.6800, 830.2578
885.8100, 829.9951
886.9400, 894.7168
888.0690, 843.4229
889.1990, 925.1138
890.3280, 967.7910
891.4570, 1123.189
892.5860, 1118.686
893.7140, 1269.132
894.8430, 1193.672
895.9710, 1518.809
897.1000, 1517.354
898.2280, 1625.940
899.3560, 1883.120
900.4830, 2142.875
901.6110, 2311.341
902.7380, 2653.138
903.8660, 3122.372
904.9930, 3622.491
906.1200, 4004.289
907.2460, 4730.092
908.3730, 5128.380
909.5000, 5830.820
910.6260, 6524.982
911.7520, 7199.199
912.8780, 7958.070
914.0040, 8645.378
915.1290, 9409.946
916.2550, 10823.54
917.3800, 12139.80
918.5050, 13933.70
919.6300, 16276.84
920.7550, 18956.47
921.8800, 22360.77
923.0040, 26248.48
924.1290, 30811.31
925.2530, 35595.69
926.3770, 40654.20
927.5010, 45358.11
928.6250, 49777.89
929.7480, 52621.96
930.8720, 54318.73
931.9950, 54658.63
933.1180, 53865.36
934.2410, 50923.67
935.3640, 47682.22
936.4860, 43647.08
937.6090, 38685.94
938.7310, 34239.23
939.8530, 30317.16
940.9750, 26422.99
942.0970, 23289.50
943.2180, 20582.13
944.3400, 18386.97
945.4610, 16436.38
946.5820, 14868.78
947.7030, 13244.10
948.8240, 11712.30
949.9450, 10223.45
951.0650, 8758.990
952.1860, 7460.603
953.3060, 6193.019
954.4260, 5109.764
955.5460, 4437.565
956.6650, 3728.430
957.7850, 3253.351
958.9040, 2753.311
960.0230, 2522.340
961.1420, 2296.427
962.2610, 1985.562
963.3800, 1809.748
964.4990, 1667.989
965.6170, 1449.307
966.7350, 1227.662
967.8530, 1124.079
968.9710, 1050.561
970.0890, 1168.101
971.2070, 1113.690
972.3240, 1047.333
973.4410, 1216.052
974.5580, 1181.834
975.6750, 1170.700
976.7920, 1294.617
977.9090, 1271.576
979.0250, 1380.241
980.1410, 1601.652
981.2580, 1650.756
982.3740, 1850.902
983.4890, 2157.092
984.6050, 2168.324
985.7200, 2598.607
986.8360, 2902.934
987.9510, 3600.306
989.0660, 4105.720
990.1810, 4839.186
991.2950, 5638.705
992.4100, 6679.271
993.5240, 8035.883
994.6390, 9114.539
995.7530, 10447.24
996.8660, 11874.99
997.9800, 13237.79
999.0940, 14748.63
1000.207, 15873.52
1001.320, 16652.46
1002.433, 17420.45
1003.546, 17786.46
1004.659, 17805.56
1005.772, 17882.69
1006.884, 17431.88
1007.996, 16799.11
1009.108, 16142.40
1010.220, 15337.73
1011.332, 14285.11
1012.444, 13283.54
1013.555, 12415.03
1014.666, 11216.56
1015.777, 10358.14
1016.888, 9271.770
1017.999, 8467.453
1019.110, 7531.182
1020.220, 6799.964
1021.331, 5848.797
1022.441, 5128.683
1023.551, 4729.617
1024.661, 4073.604
1025.770, 3695.642
1026.880, 3234.734
1027.989, 2992.879
1029.098, 2650.088
1030.207, 2590.351
1031.316, 2279.667
1032.425, 2098.042
1033.533, 1919.471
1034.642, 1858.982
1035.750, 1858.570
1036.858, 1798.234
1037.966, 1746.989
1039.073, 1654.835
1040.181, 1540.787
1041.288, 1515.840
1042.396, 1480.003
1043.503, 1460.245
1044.610, 1244.580
1045.716, 1224.297
1046.823, 902.1875
1047.929, 918.7812
1049.036, 766.4717
1050.142, 825.3135
1051.248, 685.2031
1052.353, 547.2480
1053.459, 520.3506
1054.564, 461.5352
1055.670, 499.3477
1056.775, 346.1113
1057.880, 431.5723
1058.985, 471.1455
1060.089, 304.7285
1061.194, 470.3965
1062.298, 392.6064
1063.402, 321.0645
1064.506, 375.5322
1065.610, 409.3613
1066.713, 467.8193
1067.817, 449.0703
1068.920, 430.2393
1070.023, 583.2207
1071.126, 652.4912
1072.229, 618.0693
1073.332, 690.5557
1074.435, 763.4082
1075.537, 906.9531
1076.639, 1084.331
1077.741, 1341.013
1078.843, 1516.561
1079.945, 1853.841
1081.046, 2066.331
1082.148, 2278.569
1083.249, 2641.074
1084.350, 3127.879
1085.451, 3445.596
1086.551, 3606.554
1087.652, 3878.213
1088.752, 3769.049
1089.853, 3830.297
1090.953, 3499.047
1092.053, 3191.711
1093.152, 2797.281
1094.252, 2710.394
1095.351, 2247.115
1096.451, 1967.835
1097.550, 1625.871
1098.649, 1508.773
1099.748, 1250.773
1100.846, 991.8311
1101.945, 755.8438
1103.043, 721.1807
1104.141, 534.2871
1105.239, 491.2725
1106.337, 394.4248
1107.434, 315.0234
1108.532, 228.9297
1109.629, 180.1836
1110.726, 184.4688
1111.823, 195.7871
1112.920, 216.1572
1114.017, 251.5391
1115.113, 311.3408
1116.210, 405.3984
1117.306, 454.8818
1118.402, 640.3867
1119.498, 712.0908
1120.593, 831.6035
1121.689, 853.0400
1122.784, 903.5898
1123.879, 992.2402
1124.974, 871.9189
1126.069, 716.6250
1127.164, 704.3594
1128.259, 551.1201
1129.353, 361.9277
1130.447, 376.7412
1131.541, 135.5811
1132.635, 317.4473
1133.729, 191.3379
1134.822, 277.2539
1135.916, 167.1943
1137.009, 203.1592
1138.102, 312.9941
1139.195, 333.0059
1140.288, 336.0410
1141.380, 277.0986
1142.473, 260.1787
1143.565, 285.2822
1144.657, 201.4053
1145.749, 303.5508
1146.841, 257.7168
1147.932, 277.9023
1149.024, 204.1084
1150.115, 285.3350
1151.206, 260.6035
1152.297, 195.9404
1153.388, 215.2334
1154.479, 141.5537
1155.569, 220.8955
1156.659, 179.2754
1157.750, 132.7812
1158.839, 158.2266
1159.929, 155.9590
1161.019, 122.4717
1162.108, 148.0273
1163.198, 148.6240
1164.287, 108.4297
1165.376, 118.7256
1166.465, 64.00977
1167.553, 98.71875
1168.642, 18.45312
1169.730, 12.20605
1170.818, 30.78320
1171.906, 184.7500
1172.994, 59.54004
1174.082, 93.33887
1175.170, 84.41699
1176.257, 19.76660
1177.344, 22.94629
1178.431, 72.96777
1179.518, 70.79785
1180.605, 0.3173830
1181.691, 75.76270
1182.778, 2.392578
1183.864, 93.45410
1184.950, 115.3086
1186.036, 73.83301
1187.122, 46.99805
1188.207, 68.91113
1189.292, 116.8008
1190.378, 31.34180
1191.463, 29.44629
1192.548, 38.59668
1193.632, 79.81152
1194.717, 57.60645
1195.801, 60.82275
1196.886, 29.95508
1197.970, 42.95410
1199.054, 16.16504
1200.137, 30.44824
1201.221, 118.8340
1202.305, 72.28516
1203.388, 115.7803
1204.471, 16.65625
1205.554, 48.91602
1206.637, 38.52344
1207.719, 18.16406
1208.802, 84.83008
1209.884, 77.55469
1210.966, 11.33691
1212.048, 135.1445
1213.130, 57.04199
1214.212, 106.9893
1215.293, 6.014648
1216.374, 152.0674
1217.456, 49.22363
1218.536, 81.43164
1219.617, 53.70947
1220.698, 28.95654
1221.778, 103.3950
1222.859, 35.83105
1223.939, 10.31689
1225.019, 1.841797
1226.099, 31.40186
1227.178, 98.01318
1228.258, 102.2881
1229.337, 13.42676
1230.417, 28.18701
1231.496, 109.9980
1232.574, 46.16650
1233.653, 62.31348
1234.732, 66.55859
1235.810, 141.4912
1236.888, 40.47705
1237.966, 22.48682
1239.044, 101.4160
1240.122, 84.32568
1241.199, 112.2163
1242.277, 83.08691
1243.354, 90.93555
1244.431, 111.7637
1245.508, 220.5688
1246.585, 53.35254
1247.661, 211.1035
1248.738, 155.8306
1249.814, 154.5356
1250.890, 63.21777
1251.966, 39.86670
1253.042, 148.4761
1254.117, 140.0591
1255.193, 193.6206
1256.268, 160.1592
1257.343, 215.6733
1258.418, 133.1626
1259.493, 145.6294
1260.567, 162.0708
1261.642, 183.4858
1262.716, 244.8765
1263.790, 166.2402
1264.864, 158.5786
1265.938, 245.8887
1267.011, 66.17139
1268.085, 174.4121
1269.158, 203.6270
1270.231, 295.8140
1271.304, 270.9756
1272.377, 179.1089
1273.450, 202.2148
1274.522, 190.2925
1275.594, 247.3413
1276.666, 237.3623
1277.738, 257.3535
1278.810, 206.3159
1279.882, 194.6367
1280.953, 187.8521
1282.025, 252.3955
1283.096, 233.1099
1284.167, 253.1479
1285.238, 267.6494
1286.308, 205.1157
1287.379, 257.4526
1288.449, 190.7632
1289.519, 344.3853
1290.589, 302.1621
1291.659, 314.9873
1292.729, 217.8501
1293.798, 218.3472
1294.868, 307.9839
1295.937, 415.3364
1297.006, 282.9482
1298.075, 346.7139
1299.143, 333.4990
1300.212, 387.2993
1301.280, 299.8540
1302.348, 348.1514
1303.416, 238.3384
1304.484, 334.6680
1305.552, 334.5591
1306.620, 281.3838
1307.687, 311.5132
1308.754, 295.6079
1309.821, 252.5244
1310.888, 346.4395
1311.955, 336.3481
1313.021, 355.5430
1314.088, 363.2632
1315.154, 384.7939
1316.220, 297.1255
1317.286, 303.8125
1318.352, 313.4604
1319.417, 302.5635
1320.483, 311.5049
1321.548, 410.0200
1322.613, 242.0396
1323.678, 428.1021
1324.743, 254.8799
1325.807, 250.0674
1326.872, 287.5137
1327.936, 302.1211
1329.000, 352.9663
1330.064, 374.5820
1331.128, 402.9336
1332.191, 377.4048
1333.255, 509.5576
1334.318, 587.8213
1335.381, 537.5293
1336.444, 563.2236
1337.507, 557.3086
1338.569, 527.7344
1339.632, 551.4473
1340.694, 578.4316
1341.756, 621.1670
1342.818, 619.3389
1343.880, 693.1748
1344.941, 600.5088
1346.003, 570.1572
1347.064, 501.6445
1348.125, 524.6875
1349.186, 548.3359
1350.247, 614.1191
1351.308, 598.8496
1352.368, 679.1328
1353.428, 571.8184
1354.489, 759.5215
1355.549, 730.9180
1356.608, 856.4629
1357.668, 1032.922
1358.727, 1017.334
1359.787, 1164.804
1360.846, 1247.960
1361.905, 1271.357
1362.964, 1254.887
1364.022, 1230.258
1365.081, 962.1807
1366.139, 1080.787
1367.197, 835.0303
1368.255, 875.1855
1369.313, 754.4902
1370.371, 707.4297
1371.428, 603.3037
1372.486, 589.1240
1373.543, 429.8711
1374.600, 393.5693
1375.657, 451.2490
1376.713, 481.8984
1377.770, 369.7197
1378.826, 452.5049
1379.882, 535.3975
1380.938, 374.9199
1381.994, 413.6758
1383.050, 419.7363
1384.106, 471.2197
1385.161, 445.8330
1386.216, 565.7939
1387.271, 558.3770
1388.326, 568.7842
1389.381, 554.3633
1390.435, 778.6240
1391.490, 809.8574
1392.544, 888.0596
1393.598, 893.3242
1394.652, 1026.085
1395.705, 1022.447
1396.759, 1033.921
1397.812, 1050.399
1398.866, 951.5547
1399.919, 761.8594
1400.972, 562.9688
1402.024, 537.9854
1403.077, 484.2070
1404.129, 409.1807
1405.181, 273.1826
1406.233, 150.0215
1407.285, 72.75586
1408.337, 116.6748
1409.389, 36.18164
1410.440, 96.82715
1411.491, 15.55859
1412.542, 15.84473
1413.593, 21.58301
1414.644, 62.93945
1415.695, 89.22656
1416.745, 40.40332
1417.795, 42.10059
1418.845, 27.14258
1419.895, 38.83594
1420.945, 6.084961
1421.995, 38.18359
1423.044, 4.229492
1424.093, 58.89453
1425.142, 132.1777
1426.191, 125.0908
1427.240, 154.9688
1428.289, 206.8096
1429.337, 223.5986
1430.385, 179.0820
1431.433, 202.7441
1432.481, 190.1797
1433.529, 197.0684
1434.577, 195.8955
1435.624, 223.4482
1436.672, 256.7822
1437.719, 195.3291
1438.766, 66.85156
1439.812, 163.2012
1440.859, 145.6738
1441.905, 362.1230
1442.952, 278.4746
1443.998, 332.7031
1445.044, 299.9014
1446.090, 380.4316
1447.135, 359.0186
1448.181, 349.1514
1449.226, 419.4004
1450.271, 425.4404
1451.316, 375.8408
1452.361, 397.3574
1453.405, 344.9033
1454.450, 346.4365
1455.494, 384.9727
1456.538, 275.5430
1457.582, 302.1777
1458.626, 398.8652
1459.670, 301.6387
1460.713, 352.4766
1461.757, 239.3398
1462.800, 340.2568
1463.843, 272.1914
1464.886, 355.1914
1465.928, 450.2139
1466.971, 434.2246
1468.013, 463.6465
1469.055, 317.2920
1470.097, 427.3604
1471.139, 349.3994
1472.181, 316.4131
1473.222, 388.4043
1474.263, 316.3877
1475.305, 311.7568
1476.346, 327.3145
1477.386, 277.2695
1478.427, 249.1992
1479.468, 298.1074
1480.508, 358.7637
1481.548, 349.4082
1482.588, 355.5098
1483.628, 371.5654
1484.668, 316.4072
1485.707, 312.2305
1486.747, 308.0400
1487.786, 221.8369
1488.825, 246.6240
1489.864, 351.8125
1490.902, 330.1475
1491.941, 189.0166
1492.979, 208.9551
1494.017, 116.5566
1495.055, 255.5928
1496.093, 187.8330
1497.131, 135.0752
1498.168, 207.8584
1499.206, 150.6748
1500.243, 231.4482
1501.280, 141.5166
1502.317, 79.51660
1503.354, 89.51660
1504.390, 63.86523
1505.426, 159.0488
1506.463, 59.35254
1507.499, 17.60742
1508.535, 108.8594
1509.570, 70.10547
1510.606, 14.33105
1511.641, 61.51855
1512.676, 95.65527
1513.711, 46.73730
1514.746, 148.7568
1515.781, 129.7100
1516.816, 115.5840
1517.850, 89.37305
1518.884, 20.06641
1519.918, 48.66016
1520.952, 26.14355
1521.986, 20.63574
1523.019, 71.75879
1524.053, 30.87695
1525.086, 63.86035
1526.119, 76.69922
1527.152, 24.38770
1528.185, 66.91406
1529.217, 50.26758
1530.250, 78.43945
1531.282, 109.5410
1532.314, 21.86328
1533.346, 13.88184
1534.377, 164.7627
1535.409, 210.7705
1536.440, 45.79395
1537.472, 220.4834
1538.503, 124.4785
1539.534, 136.0703
1540.564, 106.8594
1541.595, 284.0986
1542.625, 289.0645
1543.656, 443.5596
1544.686, 545.5947
1545.716, 484.5352
1546.745, 505.6318
1547.775, 291.2998
1548.804, 335.8906
1549.834, 241.1895
1550.863, 256.7881
1551.892, 358.6338
1552.920, 320.6318
1553.949, 329.6973
1554.977, 307.5820
1556.006, 436.4580
1557.034, 164.3828
1558.062, 17.09668
1559.089, 77.97656
1560.117, 219.0664
1561.144, 110.3408
1562.172, 71.06445
1563.199, 7.627930
1564.226, 123.9941
1565.252, 110.8984
1566.279, 244.7773
1567.305, 139.7500
1568.332, 108.9443
1569.358, 4.0038999E-02
1570.384, 0.0000000E+00
##END=



