##NAMES=Catapleiite
##RRUFFID=R040005
##IDEAL CHEMISTRY=Na_2_Zr^4+^Si_3_O_9_&#183;2H_2_O
##LOCALITY=Langesundsfjord Eikaholmen Vestfold, Norway
##OWNER=RRUFF
##SOURCE=University of Arizona Mineral Museum
##DESCRIPTION=Brown thin tabular crystal
##STATUS=The identification of this mineral has been confirmed by X-ray diffraction and chemical analysis
##URL=rruff.info/R040005
##MEASURED CHEMISTRY=(Na_1.28_Ca_0.36_[box]_0.36_)_Σ=2_Zr_1.00_Si_3.00_O_9_·2H_2_O
##PIN_ID=L01591
##ORIENTATION=Laser parallel to b* (0 1 0). Fiducial mark perpendicular to laser is parallel to -c [0 0 -1]
120.5960, 0.0000000E+00
121.8270, 109.1035
123.0580, 348.2773
124.2880, 178.7520
125.5190, 65.51367
126.7490, 38.00781
127.9790, 217.1758
129.2090, 129.2090
130.4390, 339.2988
131.6680, 216.1699
132.8980, 135.6270
134.1270, 150.1797
135.3560, 238.2695
136.5850, 459.4980
137.8140, 485.7051
139.0430, 811.8555
140.2710, 690.2910
141.5000, 800.4551
142.7280, 707.3555
143.9560, 783.4844
145.1840, 859.2578
146.4120, 1011.207
147.6390, 903.9746
148.8670, 949.3086
150.0940, 1189.211
151.3210, 1286.061
152.5490, 949.0586
153.7750, 1046.363
155.0020, 1072.273
156.2290, 1098.145
157.4550, 1114.045
158.6810, 905.3555
159.9080, 1057.549
161.1340, 1004.949
162.3590, 882.6914
163.5850, 1335.797
164.8110, 1453.773
166.0360, 1380.900
167.2610, 1445.027
168.4860, 1349.121
169.7110, 1444.172
170.9360, 1621.207
172.1610, 1567.346
173.3850, 1830.695
174.6100, 1832.398
175.8340, 1850.533
177.0580, 1928.195
178.2820, 2124.043
179.5050, 2261.340
180.7290, 2371.842
181.9520, 1972.695
183.1760, 2408.549
184.3990, 2473.553
185.6220, 2583.785
186.8450, 3037.240
188.0670, 3162.904
189.2900, 3314.172
190.5120, 3417.070
191.7340, 3553.881
192.9560, 3760.217
194.1780, 3946.158
195.4000, 4232.211
196.6220, 4361.471
197.8430, 4672.301
199.0640, 5016.740
200.2860, 5192.879
201.5070, 5418.617
202.7270, 5603.449
203.9480, 5684.137
205.1690, 5718.848
206.3890, 5781.736
207.6090, 5872.375
208.8290, 5862.814
210.0490, 5979.881
211.2690, 6116.250
212.4890, 5713.645
213.7080, 5768.086
214.9280, 5451.383
216.1470, 5102.518
217.3660, 4722.479
218.5850, 4542.238
219.8030, 4022.672
221.0220, 3824.938
222.2400, 3520.523
223.4590, 3153.783
224.6770, 3072.008
225.8950, 2534.553
227.1120, 2226.395
228.3300, 2108.576
229.5480, 1907.562
230.7650, 1655.475
231.9820, 1537.291
233.1990, 1427.000
234.4160, 1319.584
235.6330, 1246.031
236.8490, 1145.053
238.0660, 936.4805
239.2820, 922.4746
240.4980, 875.3223
241.7140, 662.0176
242.9300, 726.5645
244.1460, 594.9668
245.3610, 651.2285
246.5770, 549.3477
247.7920, 472.3320
249.0070, 565.1816
250.2220, 339.8984
251.4370, 258.4844
252.6510, 456.9219
253.8660, 178.2012
255.0800, 232.3145
256.2940, 90.25586
257.5080, 508.0156
258.7220, 681.5957
259.9360, 478.9727
261.1490, 269.1367
262.3630, 47.08203
263.5760, 63.87891
264.7890, 92.51953
266.0020, 155.2012
267.2150, 141.4395
268.4270, 11.68555
269.6400, 0.9960940
270.8520, 80.63867
272.0640, 169.0508
273.2760, 188.9492
274.4880, 91.72266
275.7000, 266.9629
276.9120, 188.1250
278.1230, 337.4980
279.3340, 186.3789
280.5450, 147.4434
281.7560, 109.5586
282.9670, 28.90430
284.1780, 204.4668
285.3880, 74.29297
286.5980, 186.3555
287.8090, 162.6973
289.0190, 229.3125
290.2290, 135.2285
291.4380, 56.53125
292.6480, 141.1250
293.8570, 203.4473
295.0670, 151.5488
296.2760, 281.4258
297.4850, 341.0879
298.6930, 327.5352
299.9020, 470.7656
301.1110, 443.7793
302.3190, 443.5781
303.5270, 679.1504
304.7350, 595.4941
305.9430, 565.5938
307.1510, 890.4316
308.3580, 725.0137
309.5660, 689.3223
310.7730, 928.3691
311.9800, 916.1602
313.1870, 1021.707
314.3940, 1261.021
315.6010, 1183.111
316.8070, 1226.990
318.0130, 1086.662
319.2200, 1111.135
320.4260, 1216.412
321.6310, 1203.508
322.8370, 1221.422
324.0430, 1343.156
325.2480, 1260.695
326.4540, 1346.037
327.6590, 1230.172
328.8640, 1161.098
330.0680, 1244.807
331.2730, 1209.293
332.4780, 1099.553
333.6820, 1190.559
334.8860, 1312.330
336.0900, 1291.930
337.2940, 1234.287
338.4980, 1298.957
339.7010, 1225.873
340.9050, 1330.143
342.1080, 1340.006
343.3110, 1361.607
344.5140, 1309.424
345.7170, 1312.889
346.9200, 1368.992
348.1220, 1412.752
349.3240, 1406.168
350.5270, 1523.188
351.7290, 1548.908
352.9310, 1591.990
354.1320, 1724.939
355.3340, 1666.281
356.5350, 1741.521
357.7370, 1763.676
358.9380, 1935.746
360.1390, 1840.744
361.3400, 2004.672
362.5400, 1962.543
363.7410, 2089.363
364.9410, 2150.135
366.1410, 2163.857
367.3410, 2118.533
368.5410, 2023.162
369.7410, 2166.750
370.9400, 2254.291
372.1400, 2157.783
373.3390, 2000.230
374.5380, 1906.635
375.7370, 1845.996
376.9360, 1992.312
378.1350, 1872.588
379.3330, 1928.656
380.5310, 1770.389
381.7300, 1816.676
382.9280, 1837.070
384.1260, 1882.385
385.3230, 1917.502
386.5210, 1984.709
387.7180, 1884.166
388.9160, 2039.891
390.1130, 2068.000
391.3100, 2246.352
392.5060, 2184.062
393.7030, 2279.574
394.9000, 2348.199
396.0960, 2324.869
397.2920, 2342.559
398.4880, 2400.617
399.6840, 2474.609
400.8800, 2485.631
402.0750, 2628.830
403.2710, 2642.070
404.4660, 3002.061
405.6610, 3058.180
406.8560, 3157.391
408.0510, 3419.277
409.2450, 3432.566
410.4400, 3662.053
411.6340, 3807.492
412.8280, 3936.871
414.0220, 4140.000
415.2160, 4561.979
416.4100, 4736.379
417.6030, 5408.629
418.7970, 5679.998
419.9900, 6193.385
421.1830, 6485.734
422.3760, 7216.740
423.5690, 7656.229
424.7610, 8630.182
425.9540, 9019.525
427.1460, 9484.906
428.3380, 10048.25
429.5300, 10491.74
430.7220, 11012.21
431.9140, 11394.16
433.1050, 11435.94
434.2970, 11622.62
435.4880, 11174.23
436.6790, 11159.00
437.8700, 10961.51
439.0610, 10534.33
440.2510, 10265.61
441.4420, 9965.350
442.6320, 9064.932
443.8220, 8802.693
445.0120, 8182.197
446.2020, 7513.996
447.3910, 6947.037
448.5810, 6198.686
449.7700, 5626.840
450.9600, 4894.314
452.1490, 4393.059
453.3370, 4068.617
454.5260, 3539.145
455.7150, 3388.584
456.9030, 2979.439
458.0910, 2622.219
459.2800, 2475.691
460.4670, 2273.320
461.6550, 1988.336
462.8430, 2007.430
464.0300, 1629.939
465.2180, 1669.373
466.4050, 1410.861
467.5920, 1378.381
468.7790, 1194.869
469.9650, 1049.330
471.1520, 903.7656
472.3380, 987.9102
473.5250, 1055.291
474.7110, 958.6113
475.8970, 834.4609
477.0820, 1032.680
478.2680, 853.9688
479.4540, 850.2422
480.6390, 688.4941
481.8240, 805.7285
483.0090, 465.9609
484.1940, 705.1758
485.3780, 540.3750
486.5630, 518.5703
487.7470, 475.7559
488.9320, 437.6309
490.1160, 389.1250
491.3000, 478.3047
492.4830, 448.4805
493.6670, 554.6523
494.8500, 521.8262
496.0340, 530.9980
497.2170, 455.1875
498.4000, 501.4141
499.5820, 717.6426
500.7650, 523.8828
501.9480, 751.1250
503.1300, 710.3828
504.3120, 770.6426
505.4940, 793.9316
506.6760, 912.2637
507.8580, 865.6055
509.0390, 1091.949
510.2210, 1026.295
511.4020, 992.6641
512.5830, 1310.037
513.7640, 1399.422
514.9450, 1450.809
516.1250, 1455.201
517.3060, 1425.604
518.4860, 1770.041
519.6660, 1586.480
520.8460, 1573.945
522.0260, 1312.467
523.2060, 1334.008
524.3850, 1353.016
525.5650, 1269.195
526.7440, 1218.152
527.9230, 1195.965
529.1020, 1108.824
530.2810, 1053.543
531.4590, 912.2871
532.6380, 692.0059
533.8160, 835.9180
534.9940, 670.9688
536.1720, 490.4258
537.3500, 541.2734
538.5270, 523.9492
539.7050, 269.0156
540.8820, 470.6992
542.0590, 370.8125
543.2360, 266.8906
544.4130, 384.8809
545.5900, 111.0273
546.7660, 179.1445
547.9430, 82.08008
549.1190, 116.1719
550.2950, 111.0742
551.4710, 302.9414
552.6470, 2.191406
553.8220, 205.3613
554.9980, 163.1152
556.1730, 355.8418
557.3480, 335.9727
558.5230, 297.7500
559.6980, 306.5176
560.8730, 336.9766
562.0470, 215.1016
563.2220, 584.3379
564.3960, 703.3965
565.5700, 771.2168
566.7440, 698.0664
567.9170, 829.8379
569.0910, 1204.473
570.2640, 1028.363
571.4380, 1192.033
572.6110, 1385.438
573.7840, 1161.215
574.9570, 1119.312
576.1290, 1251.867
577.3020, 1386.236
578.4740, 1269.498
579.6460, 1190.473
580.8180, 1135.951
581.9900, 1189.311
583.1620, 1059.934
584.3330, 1106.455
585.5040, 863.9316
586.6760, 819.3457
587.8470, 678.7773
589.0180, 593.2109
590.1880, 698.6543
591.3590, 712.1074
592.5290, 678.5645
593.7000, 732.0273
594.8700, 849.4961
596.0400, 715.9668
597.2090, 886.7422
598.3790, 930.2344
599.5490, 1086.729
600.7180, 1028.240
601.8870, 1089.879
603.0560, 1293.268
604.2250, 1134.795
605.3940, 1227.318
606.5620, 1319.850
607.7300, 1530.377
608.8990, 1748.900
610.0670, 1875.441
611.2350, 2083.980
612.4020, 2367.541
613.5700, 2512.096
614.7370, 2846.652
615.9050, 3373.266
617.0720, 3713.836
618.2390, 4445.416
619.4060, 4897.814
620.5720, 5668.396
621.7390, 6265.980
622.9050, 7581.971
624.0710, 8465.543
625.2370, 9586.109
626.4030, 10997.96
627.5690, 11939.52
628.7340, 12904.79
629.9000, 13785.95
631.0650, 14186.48
632.2300, 13927.01
633.3950, 13212.53
634.5600, 12146.05
635.7240, 11094.55
636.8890, 9608.314
638.0530, 8314.086
639.2170, 7300.570
640.3810, 5855.283
641.5450, 4866.748
642.7080, 3752.096
643.8720, 3090.543
645.0350, 2680.445
646.1980, 2143.992
647.3610, 1659.746
648.5240, 1453.150
649.6870, 1109.543
650.8490, 940.2363
652.0120, 845.6387
653.1740, 751.5684
654.3360, 659.9141
655.4980, 640.6230
656.6600, 299.2266
657.8210, 420.0039
658.9830, 230.2930
660.1440, 211.9199
661.3050, 237.5781
662.4660, 289.7031
663.6270, 21.13672
664.7870, 2.654297
665.9480, 83.92773
667.1080, 56.20117
668.2680, 156.7773
669.4280, 172.8633
670.5880, 199.4863
671.7480, 14.37695
672.9070, 128.2695
674.0670, 62.72852
675.2260, 9.212891
676.3850, 151.8730
677.5440, 31.67188
678.7030, 130.2812
679.8610, 12.01562
681.0200, 129.2773
682.1780, 185.3242
683.3360, 13.54492
684.4940, 332.3730
685.6520, 37.95508
686.8090, 49.49023
687.9670, 82.09375
689.1240, 2.218750
690.2810, 40.48438
691.4380, 49.72461
692.5950, 146.5176
693.7520, 109.5684
694.9080, 126.8555
696.0650, 50.98438
697.2210, 75.91797
698.3770, 152.9102
699.5330, 146.0312
700.6880, 153.9160
701.8440, 185.3203
702.9990, 52.20508
704.1550, 141.8262
705.3100, 92.57422
706.4650, 86.57617
707.6190, 153.6914
708.7740, 89.77344
709.9290, 67.17383
711.0830, 2.785156
712.2370, 1.015625
713.3910, 126.8555
714.5450, 61.66211
715.6980, 84.43359
716.8520, 118.1680
718.0050, 49.14258
719.1580, 84.04102
720.3110, 117.6660
721.4640, 123.2520
722.6170, 33.19336
723.7700, 88.27539
724.9220, 183.7109
726.0740, 310.1113
727.2260, 187.4785
728.3780, 247.8086
729.5300, 332.1074
730.6810, 159.3711
731.8330, 296.6016
732.9840, 184.7969
734.1350, 189.9590
735.2860, 71.34961
736.4370, 120.7715
737.5880, 313.7832
738.7380, 274.9160
739.8880, 290.9023
741.0390, 395.2695
742.1890, 420.0371
743.3380, 405.0156
744.4880, 157.8691
745.6380, 258.6855
746.7870, 346.4688
747.9360, 311.2754
749.0850, 446.9902
750.2340, 327.9316
751.3830, 309.5781
752.5310, 212.5273
753.6800, 121.4297
754.8280, 385.4883
755.9760, 154.6172
757.1240, 87.48438
758.2720, 309.9141
759.4190, 158.3594
760.5670, 43.72266
761.7140, 140.0293
762.8610, 204.4180
764.0080, 72.65625
765.1550, 322.8496
766.3020, 60.00977
767.4480, 95.11719
768.5950, 240.1875
769.7410, 240.2227
770.8870, 281.2285
772.0330, 229.1992
773.1780, 290.1426
774.3240, 23.05078
775.4690, 61.10156
776.6140, 130.6387
777.7590, 44.34961
778.9040, 145.0039
780.0490, 28.63086
781.1940, 180.2012
782.3380, 36.25781
783.4820, 63.80664
784.6260, 64.53906
785.7700, 172.8438
786.9140, 208.1191
788.0580, 2.632813
789.2010, 116.5469
790.3450, 54.69531
791.4880, 169.8027
792.6310, 92.87891
793.7730, 59.92383
794.9160, 44.06836
796.0590, 162.8535
797.2010, 8.253906
798.3430, 145.4277
799.4850, 18.26758
800.6270, 61.09180
801.7690, 200.0312
802.9100, 86.03125
804.0520, 166.0801
805.1930, 88.82812
806.3340, 288.4766
807.4750, 68.75977
808.6160, 90.01172
809.7560, 147.7227
810.8970, 163.2988
812.0370, 123.1836
813.1770, 144.6582
814.3170, 85.25000
815.4570, 65.98828
816.5960, 123.8340
817.7360, 270.0859
818.8750, 156.9160
820.0140, 123.1895
821.1530, 233.7480
822.2920, 22.52930
823.4310, 126.3340
824.5690, 179.3320
825.7070, 112.2051
826.8460, 270.2969
827.9840, 71.48438
829.1220, 20.75195
830.2590, 133.4102
831.3970, 219.9082
832.5340, 138.4746
833.6710, 231.3457
834.8080, 220.3711
835.9450, 227.1406
837.0820, 269.3926
838.2190, 229.1289
839.3550, 224.4336
840.4910, 157.3398
841.6270, 164.5625
842.7630, 79.83594
843.8990, 25.26367
845.0350, 146.8828
846.1700, 239.3477
847.3060, 132.0957
848.4410, 80.78906
849.5760, 169.0273
850.7100, 229.6328
851.8450, 27.86328
852.9800, 219.3457
854.1140, 6.029297
855.2480, 150.0938
856.3820, 95.34570
857.5160, 15.93359
858.6500, 9.529297
859.7830, 71.75586
860.9170, 36.29883
862.0500, 73.41797
863.1830, 52.56836
864.3160, 123.2207
865.4480, 143.8887
866.5810, 190.5703
867.7130, 68.26758
868.8460, 24.98047
869.9780, 185.7090
871.1100, 12.54297
872.2410, 106.0840
873.3730, 41.33789
874.5050, 127.0547
875.6360, 20.15039
876.7670, 87.09375
877.8980, 72.33984
879.0290, 3.585938
880.1590, 78.81250
881.2900, 38.96484
882.4200, 108.7637
883.5500, 159.4121
884.6800, 9.390625
885.8100, 166.7852
886.9400, 40.01953
888.0690, 22.15039
889.1990, 148.3008
890.3280, 32.50586
891.4570, 106.6465
892.5860, 100.7305
893.7140, 67.27539
894.8430, 57.82617
895.9710, 165.0938
897.1000, 286.6250
898.2280, 8.392578
899.3560, 264.6211
900.4830, 368.3770
901.6110, 343.4570
902.7380, 425.8496
903.8660, 332.3848
904.9930, 501.5723
906.1200, 368.7949
907.2460, 684.0547
908.3730, 767.3555
909.5000, 768.6953
910.6260, 768.8145
911.7520, 730.9492
912.8780, 866.4082
914.0040, 864.1309
915.1290, 914.0723
916.2550, 1016.908
917.3800, 1045.535
918.5050, 1217.746
919.6300, 1387.346
920.7550, 1414.773
921.8800, 1647.588
923.0040, 1738.539
924.1290, 1595.047
925.2530, 1976.971
926.3770, 2062.404
927.5010, 2166.463
928.6250, 2405.197
929.7480, 2513.072
930.8720, 2687.812
931.9950, 2815.078
933.1180, 2916.049
934.2410, 2811.025
935.3640, 2886.580
936.4860, 2863.867
937.6090, 2780.418
938.7310, 2813.529
939.8530, 2651.182
940.9750, 2786.475
942.0970, 2609.311
943.2180, 2577.693
944.3400, 2292.652
945.4610, 2032.139
946.5820, 1943.328
947.7030, 1789.609
948.8240, 1765.963
949.9450, 1598.033
951.0650, 1604.383
952.1860, 1582.994
953.3060, 1508.678
954.4260, 1280.473
955.5460, 1423.420
956.6650, 1636.357
957.7850, 1444.221
958.9040, 1360.320
960.0230, 1460.525
961.1420, 1745.834
962.2610, 1686.238
963.3800, 1853.719
964.4990, 1900.537
965.6170, 2130.197
966.7350, 2218.951
967.8530, 2356.777
968.9710, 2717.680
970.0890, 2897.689
971.2070, 3299.824
972.3240, 3850.084
973.4410, 4201.469
974.5580, 4668.996
975.6750, 5259.629
976.7920, 5910.396
977.9090, 6472.277
979.0250, 7450.234
980.1410, 8187.268
981.2580, 9265.410
982.3740, 10804.66
983.4890, 11609.69
984.6050, 14009.15
985.7200, 15072.72
986.8360, 17196.37
987.9510, 19267.09
989.0660, 21451.63
990.1810, 23522.31
991.2950, 25668.32
992.4100, 28110.40
993.5240, 30251.58
994.6390, 32513.89
995.7530, 34300.32
996.8660, 35876.88
997.9800, 37589.61
999.0940, 38163.40
1000.207, 38827.34
1001.320, 38958.37
1002.433, 38390.46
1003.546, 37915.65
1004.659, 36575.93
1005.772, 35444.02
1006.884, 34034.16
1007.996, 32178.78
1009.108, 30414.32
1010.220, 28592.05
1011.332, 26834.47
1012.444, 24840.56
1013.555, 27557.53
1014.666, 21500.67
1015.777, 22741.89
1016.888, 17963.21
1017.999, 16518.58
1019.110, 15188.09
1020.220, 13763.44
1021.331, 12453.14
1022.441, 11736.59
1023.551, 10455.14
1024.661, 9980.609
1025.770, 8835.078
1026.880, 8266.877
1027.989, 7786.154
1029.098, 7225.469
1030.207, 6780.938
1031.316, 6448.543
1032.425, 6238.127
1033.533, 5843.969
1034.642, 5619.906
1035.750, 5488.928
1036.858, 5667.066
1037.966, 5256.301
1039.073, 5213.619
1040.181, 5212.023
1041.288, 4895.514
1042.396, 4879.766
1043.503, 4994.770
1044.610, 4587.539
1045.716, 4850.455
1046.823, 4626.479
1047.929, 4405.619
1049.036, 4285.848
1050.142, 4038.180
1051.248, 4097.598
1052.353, 4001.135
1053.459, 3733.793
1054.564, 3641.545
1055.670, 3488.385
1056.775, 3366.328
1057.880, 3321.373
1058.985, 3382.506
1060.089, 3277.859
1061.194, 3308.203
1062.298, 3187.426
1063.402, 3283.910
1064.506, 3259.516
1065.610, 3191.426
1066.713, 3508.230
1067.817, 3743.195
1068.920, 3726.236
1070.023, 4166.406
1071.126, 4262.652
1072.229, 4826.088
1073.332, 5389.484
1074.435, 5872.920
1075.537, 6657.969
1076.639, 7462.613
1077.741, 8492.430
1078.843, 9551.930
1079.945, 10802.92
1081.046, 12356.03
1082.148, 13733.94
1083.249, 15232.36
1084.350, 16718.74
1085.451, 18404.20
1086.551, 19273.98
1087.652, 19991.59
1088.752, 20616.31
1089.853, 20371.12
1090.953, 19666.76
1092.053, 18758.35
1093.152, 17940.38
1094.252, 16141.18
1095.351, 15177.61
1096.451, 13844.86
1097.550, 12326.09
1098.649, 11139.17
1099.748, 9956.641
1100.846, 8802.178
1101.945, 8064.787
1103.043, 7085.463
1104.141, 6245.201
1105.239, 5512.006
1106.337, 4881.506
1107.434, 4556.107
1108.532, 3910.748
1109.629, 3552.803
1110.726, 3156.918
1111.823, 2762.096
1112.920, 2697.098
1114.017, 2309.393
1115.113, 2255.734
1116.210, 2170.658
1117.306, 2049.232
1118.402, 1796.771
1119.498, 1998.805
1120.593, 2081.453
1121.689, 2191.785
1122.784, 1793.881
1123.879, 1917.719
1124.974, 1506.830
1126.069, 1295.691
1127.164, 1256.391
1128.259, 962.3496
1129.353, 774.9062
1130.447, 695.0508
1131.541, 453.6582
1132.635, 461.0469
1133.729, 464.7227
1134.822, 474.5391
1135.916, 566.7910
1137.009, 636.5039
1138.102, 588.3848
1139.195, 725.6133
1140.288, 485.4180
1141.380, 586.0703
1142.473, 582.1816
1143.565, 581.4570
1144.657, 535.7324
1145.749, 831.6543
1146.841, 539.5371
1147.932, 687.3418
1149.024, 604.4121
1150.115, 555.4453
1151.206, 732.8164
1152.297, 567.5508
1153.388, 692.6953
1154.479, 555.4727
1155.569, 807.6328
1156.659, 726.4766
1157.750, 654.4883
1158.839, 688.1094
1159.929, 623.5078
1161.019, 511.1875
1162.108, 499.9355
1163.198, 484.6328
1164.287, 653.2480
1165.376, 478.8457
1166.465, 638.4141
1167.553, 537.7773
1168.642, 730.8477
1169.730, 629.5508
1170.818, 533.2363
1171.906, 621.8672
1172.994, 788.1953
1174.082, 780.0371
1175.170, 671.8164
1176.257, 540.0273
1177.344, 604.0684
1178.431, 404.2793
1179.518, 494.3984
1180.605, 497.5918
1181.691, 494.6094
1182.778, 522.6699
1183.864, 497.6035
1184.950, 363.4121
1186.036, 132.6094
1187.122, 250.8945
1188.207, 60.72266
1189.292, 90.77539
1190.378, 180.6152
1191.463, 80.45312
1192.548, 107.3691
1193.632, 154.5957
1194.717, 83.45312
1195.801, 15.81055
1196.886, 46.27148
1197.970, 4.330078
1199.054, 80.16211
1200.137, 33.95703
1201.221, 25.77930
1202.305, 1.283203
1203.388, 72.40039
1204.471, 93.46094
1205.554, 200.5117
1206.637, 226.0605
1207.719, 57.73633
1208.802, 102.3398
1209.884, 65.23438
1210.966, 75.08789
1212.048, 29.94531
1213.130, 4.492188
1214.212, 109.9590
1215.293, 185.9297
1216.374, 40.66211
1217.456, 113.7109
1218.536, 46.30859
1219.617, 13.86133
1220.698, 23.27539
1221.778, 63.66602
1222.859, 170.7422
1223.939, 80.81250
1225.019, 5.488281
1226.099, 92.52734
1227.178, 132.3418
1228.258, 92.01953
1229.337, 133.8672
1230.417, 155.8262
1231.496, 213.5254
1232.574, 202.3184
1233.653, 217.3242
1234.732, 90.42383
1235.810, 3.742188
1236.888, 2.943359
1237.966, 20.01953
1239.044, 150.7832
1240.122, 157.6895
1241.199, 83.68555
1242.277, 81.68945
1243.354, 80.85547
1244.431, 80.63281
1245.508, 13.84961
1246.585, 77.76758
1247.661, 112.5293
1248.738, 21.91406
1249.814, 208.1387
1250.890, 61.61719
1251.966, 9.593750
1253.042, 205.7070
1254.117, 16.06641
1255.193, 73.59570
1256.268, 83.99609
1257.343, 196.8828
1258.418, 187.6758
1259.493, 105.3867
1260.567, 183.2285
1261.642, 129.9043
1262.716, 171.5859
1263.790, 228.6992
1264.864, 53.78516
1265.938, 80.21094
1267.011, 59.88672
1268.085, 18.03711
1269.158, 95.62305
1270.231, 142.4336
1271.304, 54.43555
1272.377, 21.61523
1273.450, 67.04297
1274.522, 127.5605
1275.594, 179.4688
1276.666, 87.76562
1277.738, 22.91797
1278.810, 164.5801
1279.882, 127.9648
1280.953, 23.62695
1282.025, 253.9551
1283.096, 122.2949
1284.167, 5.269531
1285.238, 12.75781
1286.308, 83.25195
1287.379, 160.1914
1288.449, 213.9062
1289.519, 46.46094
1290.589, 71.84570
1291.659, 202.4844
1292.729, 131.8633
1293.798, 220.4727
1294.868, 237.0000
1295.937, 23.99219
1297.006, 174.6484
1298.075, 232.4805
1299.143, 245.9180
1300.212, 301.8340
1301.280, 118.5586
1302.348, 233.1484
1303.416, 255.8574
1304.484, 42.46094
1305.552, 28.12695
1306.620, 47.00195
1307.687, 226.1348
1308.754, 149.2402
1309.821, 251.7109
1310.888, 247.7441
1311.955, 172.6582
1313.021, 374.5039
1314.088, 242.3770
1315.154, 58.22852
1316.220, 363.8496
1317.286, 280.4121
1318.352, 443.9121
1319.417, 341.3516
1320.483, 308.7285
1321.548, 271.0469
1322.613, 147.3164
1323.678, 215.4922
1324.743, 140.3711
1325.807, 195.3945
1326.872, 364.3281
1327.936, 117.2266
1329.000, 385.0547
1330.064, 204.8223
1331.128, 442.4551
1332.191, 337.1504
1333.255, 325.8535
1334.318, 363.9551
1335.381, 469.4766
1336.444, 275.8750
1337.507, 118.0723
1338.569, 219.3457
1339.632, 260.6797
1340.694, 459.0625
1341.756, 210.0957
1342.818, 259.0586
1343.880, 383.9570
1344.941, 149.5488
1346.003, 197.3164
1347.064, 201.0176
1348.125, 268.6523
1349.186, 313.4727
1350.247, 341.3613
1351.308, 334.8086
1352.368, 348.5078
1353.428, 230.5586
1354.489, 437.8086
1355.549, 316.0879
1356.608, 101.4961
1357.668, 420.5117
1358.727, 157.8379
1359.787, 457.7129
1360.846, 509.9004
1361.905, 329.9766
1362.964, 467.6523
1364.022, 388.6270
1365.081, 350.5039
1366.139, 369.1445
1367.197, 338.5508
1368.255, 311.8867
1369.313, 412.1484
1370.371, 433.5801
1371.428, 522.7188
1372.486, 371.8926
1373.543, 420.8887
1374.600, 387.5020
1375.657, 353.3926
1376.713, 433.3984
1377.770, 371.1230
1378.826, 353.1504
1379.882, 364.4375
1380.938, 296.9863
1381.994, 289.6211
1383.050, 226.7363
1384.106, 281.3867
1385.161, 291.7695
1386.216, 426.7383
1387.271, 419.9199
1388.326, 161.6309
1389.381, 27.48438
1390.435, 156.4824
1391.490, 85.42773
1392.544, 123.4492
1393.598, 164.9961
1394.652, 317.3555
1395.705, 173.3652
1396.759, 314.9316
1397.812, 258.5137
1398.866, 122.6230
1399.919, 344.5664
1400.972, 121.5020
1402.024, 191.8574
1403.077, 143.6055
1404.129, 351.9668
1405.181, 240.0410
1406.233, 255.1523
1407.285, 37.90820
1408.337, 233.2988
1409.389, 218.2578
1410.440, 291.5645
1411.491, 161.6191
1412.542, 145.8418
1413.593, 228.8809
1414.644, 46.30469
1415.695, 334.9297
1416.745, 239.2559
1417.795, 405.4961
1418.845, 191.8750
1419.895, 212.0586
1420.945, 152.3477
1421.995, 312.6445
1423.044, 114.1562
1424.093, 288.9004
1425.142, 124.9844
1426.191, 318.9805
1427.240, 198.0020
1428.289, 327.2949
1429.337, 216.0488
1430.385, 6.169922
1431.433, 9.853516
1432.481, 119.6055
1433.529, 75.85938
1434.577, 326.1738
1435.624, 139.3809
1436.672, 228.2070
1437.719, 245.5488
1438.766, 455.9219
1439.812, 60.39844
1440.859, 207.4570
1441.905, 279.5879
1442.952, 243.9414
1443.998, 305.0312
1445.044, 345.3848
1446.090, 370.6270
1447.135, 471.5156
1448.181, 224.4219
1449.226, 328.3926
1450.271, 245.6504
1451.316, 309.2578
1452.361, 335.5527
1453.405, 404.8125
1454.450, 332.9785
1455.494, 349.0156
1456.538, 248.7090
1457.582, 297.4160
1458.626, 275.8594
1459.670, 216.7012
1460.713, 367.9121
1461.757, 199.7910
1462.800, 100.0898
1463.843, 319.6152
1464.886, 22.89844
1465.928, 197.0918
1466.971, 166.4609
1468.013, 294.5098
1469.055, 211.7402
1470.097, 272.5957
1471.139, 329.9805
1472.181, 448.9727
1473.222, 253.8672
1474.263, 326.8105
1475.305, 248.5430
1476.346, 478.1562
1477.386, 196.4102
1478.427, 402.6875
1479.468, 220.7227
1480.508, 390.7461
1481.548, 220.8223
1482.588, 307.6816
1483.628, 76.33398
1484.668, 169.0469
1485.707, 74.37109
1486.747, 83.26172
1487.786, 461.6348
1488.825, 344.9121
1489.864, 241.8086
1490.902, 9.074219
1491.941, 239.9473
1492.979, 302.2617
1494.017, 471.0000
1495.055, 455.0645
1496.093, 184.9668
1497.131, 123.4277
1498.168, 212.7578
1499.206, 85.21484
1500.243, 274.2812
1501.280, 18.45898
1502.317, 378.5586
1503.354, 310.1523
1504.390, 262.7422
1505.426, 122.9629
1506.463, 153.2148
1507.499, 293.2383
1508.535, 248.5000
1509.570, 226.7188
1510.606, 73.85547
1511.641, 173.0410
1512.676, 159.2305
1513.711, 31.65234
1514.746, 173.4199
1515.781, 239.4688
1516.816, 194.5176
1517.850, 184.4531
1518.884, 285.7168
1519.918, 309.3008
1520.952, 72.18945
1521.986, 399.0293
1523.019, 121.8242
1524.053, 142.5645
1525.086, 226.2598
1526.119, 79.95117
1527.152, 60.34961
1528.185, 123.4199
1529.217, 247.1680
1530.250, 118.0195
1531.282, 344.8516
1532.314, 249.2227
1533.346, 142.1465
1534.377, 121.0996
1535.409, 61.77930
1536.440, 143.9395
1537.472, 172.8652
1538.503, 352.1484
1539.534, 247.0898
1540.564, 326.6035
1541.595, 125.3457
1542.625, 262.6621
1543.656, 317.2207
1544.686, 107.2480
1545.716, 350.3555
1546.745, 73.85352
1547.775, 182.0117
1548.804, 291.1875
1549.834, 177.7734
1550.863, 421.1133
1551.892, 354.4590
1552.920, 112.8555
1553.949, 316.3281
1554.977, 328.5996
1556.006, 286.7812
1557.034, 294.6914
1558.062, 113.8945
1559.089, 196.1133
1560.117, 8.205078
1561.144, 48.49609
1562.172, 281.2109
1563.199, 249.2070
1564.226, 246.6152
1565.252, 29.60352
1566.279, 70.10156
1567.305, 135.0371
1568.332, 63.16797
1569.358, 81.10156
1570.384, 0.6835940
1571.409, 0.0000000E+00
##END=



