##NAMES=Catapleiite
##RRUFFID=R060198
##IDEAL CHEMISTRY=Na_2_Zr^4+^Si_3_O_9_&#183;2H_2_O
##LOCALITY=Mont Saint-Hilaire, Rouville County, Quebec, Canada
##OWNER=RRUFF
##SOURCE=Royal Ontario Museum
##DESCRIPTION=Tan colored pseudohexagonal tabular crystals
##STATUS=The identification of this mineral has been confirmed by X-ray diffraction and chemical analysis
##URL=rruff.info/R060198
##MEASURED CHEMISTRY=(Na_1.92_Ca_0.04_[box]_0.04_)_Σ=2_Zr_1.00_Si_3.00_O_9_·2H_2_O
##PIN_ID=L00848
##ORIENTATION=Laser parallel to (1 0 1). Fiducial mark perpendicular to laser is parallel to b [0 1 0]
95.94800, 0.0000000E+00
97.18200, 21.78809
98.41600, 198.6260
99.64900, 55.04004
100.8830, 8.333984
102.1160, 16.29102
103.3490, 116.3477
104.5820, 382.9639
105.8150, 657.2900
107.0470, 1075.732
108.2800, 1616.031
109.5120, 1586.783
110.7440, 793.4961
111.9760, 797.7207
113.2080, 851.0869
114.4400, 1004.454
115.6710, 1217.158
116.9030, 1155.520
118.1340, 1001.437
119.3650, 883.7734
120.5960, 1048.100
121.8270, 998.0215
123.0580, 1179.238
124.2880, 1189.532
125.5190, 1017.743
126.7490, 1282.756
127.9790, 1251.488
129.2090, 1481.894
130.4390, 1467.260
131.6680, 1535.985
132.8980, 1567.957
134.1270, 1714.896
135.3560, 1958.820
136.5850, 1993.814
137.8140, 2206.869
139.0430, 2327.573
140.2710, 2418.556
141.5000, 2528.568
142.7280, 2689.487
143.9560, 2793.992
145.1840, 2968.680
146.4120, 3128.185
147.6390, 3309.351
148.8670, 3482.733
150.0940, 3644.050
151.3210, 3835.368
152.5490, 3847.753
153.7750, 3859.262
155.0020, 3951.939
156.2290, 3913.853
157.4550, 3966.095
158.6810, 3766.719
159.9080, 3817.729
161.1340, 3661.107
162.3590, 3553.541
163.5850, 3365.732
164.8110, 3238.271
166.0360, 3190.719
167.2610, 2820.950
168.4860, 2745.188
169.7110, 2500.204
170.9360, 2433.716
172.1610, 2394.248
173.3850, 2213.746
174.6100, 2250.121
175.8340, 2175.883
177.0580, 2228.208
178.2820, 2103.120
179.5050, 2122.170
180.7290, 1948.296
181.9520, 2132.447
183.1760, 2167.486
184.3990, 2301.688
185.6220, 2374.283
186.8450, 2574.348
188.0670, 2584.925
189.2900, 2654.389
190.5120, 2942.005
191.7340, 2987.338
192.9560, 3099.698
194.1780, 3453.078
195.4000, 3570.471
196.6220, 3778.870
197.8430, 3940.270
199.0640, 4120.664
200.2860, 4356.048
201.5070, 4612.420
202.7270, 4677.772
203.9480, 4730.107
205.1690, 4447.413
206.3890, 4249.691
207.6090, 4307.922
208.8290, 4073.335
210.0490, 3976.563
211.2690, 3909.593
212.4890, 3514.543
213.7080, 3281.714
214.9280, 2995.574
216.1470, 2681.233
217.3660, 2370.436
218.5850, 2167.545
219.8030, 1737.383
221.0220, 1611.204
222.2400, 1422.084
223.4590, 1027.958
224.6770, 972.6763
225.8950, 867.5317
227.1120, 735.3130
228.3300, 629.0195
229.5480, 509.6929
230.7650, 339.2183
231.9820, 288.7124
233.1990, 236.1382
234.4160, 159.4971
235.6330, 216.7886
236.8490, 114.0015
238.0660, 119.1172
239.2820, 62.12451
240.4980, 20.98535
241.7140, 10.25000
242.9300, 27.74854
244.1460, 143.6836
245.3610, 99.86963
246.5770, 231.1030
247.7920, 149.2754
249.0070, 190.0420
250.2220, 53.29395
251.4370, 163.5654
252.6510, 190.9058
253.8660, 211.3359
255.0800, 70.87744
256.2940, 117.5049
257.5080, 42.76025
258.7220, 43.08008
259.9360, 10.19287
261.1490, 14.07471
262.3630, 23.00879
263.5760, 34.08398
264.7890, 86.53564
266.0020, 67.00977
267.2150, 140.6318
268.4270, 164.4224
269.6400, 113.3921
270.8520, 123.5249
272.0640, 142.8252
273.2760, 65.29688
274.4880, 28.08008
275.7000, 24.33301
276.9120, 13.45996
278.1230, 132.4580
279.3340, 194.3340
280.5450, 183.0776
281.7560, 433.6748
282.9670, 383.1240
284.1780, 562.4238
285.3880, 724.5723
286.5980, 754.5664
287.8090, 981.4062
289.0190, 974.0977
290.2290, 1226.643
291.4380, 1275.052
292.6480, 1195.327
293.8570, 1332.476
295.0670, 1339.503
296.2760, 1253.413
297.4850, 1329.210
298.6930, 1267.896
299.9020, 1189.479
301.1110, 1082.959
302.3190, 961.3423
303.5270, 1017.628
304.7350, 913.8208
305.9430, 897.9248
307.1510, 907.9395
308.3580, 844.8667
309.5660, 855.6899
310.7730, 882.3955
311.9800, 759.9741
313.1870, 703.4131
314.3940, 676.6587
315.6010, 649.6841
316.8070, 638.3921
318.0130, 627.7251
319.2200, 561.7598
320.4260, 553.3047
321.6310, 599.8516
322.8370, 546.0552
324.0430, 569.1309
325.2480, 676.0562
326.4540, 662.7842
327.6590, 663.2817
328.8640, 495.5249
330.0680, 532.5234
331.2730, 518.3843
332.4780, 541.3252
333.6820, 319.0254
334.8860, 380.6787
336.0900, 272.2988
337.2940, 381.8931
338.4980, 246.4644
339.7010, 230.1128
340.9050, 312.6318
342.1080, 167.1265
343.3110, 140.5942
344.5140, 295.0352
345.7170, 285.4517
346.9200, 296.8452
348.1220, 257.2148
349.3240, 282.5615
350.5270, 289.8843
351.7290, 455.1851
352.9310, 491.4673
354.1320, 541.7295
355.3340, 579.9731
356.5350, 749.1982
357.7370, 813.4077
358.9380, 954.5986
360.1390, 1028.773
361.3400, 1023.925
362.5400, 1002.054
363.7410, 985.1592
364.9410, 1046.240
366.1410, 1051.298
367.3410, 1089.337
368.5410, 988.3574
369.7410, 939.3638
370.9400, 873.3613
372.1400, 876.3496
373.3390, 834.8076
374.5380, 830.1938
375.7370, 804.6055
376.9360, 772.1133
378.1350, 773.2261
379.3330, 723.9932
380.5310, 693.4980
381.7300, 648.6426
382.9280, 616.9429
384.1260, 526.9863
385.3230, 534.6646
386.5210, 628.6187
387.7180, 516.2378
388.9160, 520.5830
390.1130, 481.6885
391.3100, 640.5674
392.5060, 552.6265
393.7030, 546.1548
394.9000, 711.2695
396.0960, 597.4668
397.2920, 565.9648
398.4880, 599.1904
399.6840, 643.2383
400.8800, 686.4756
402.0750, 811.0254
403.2710, 904.6973
404.4660, 1013.834
405.6610, 1266.202
406.8560, 1480.292
408.0510, 1795.710
409.2450, 2167.844
410.4400, 2493.212
411.6340, 2841.973
412.8280, 3413.256
414.0220, 4031.758
415.2160, 4833.659
416.4100, 5633.369
417.6030, 6756.976
418.7970, 7633.250
419.9900, 8962.397
421.1830, 10247.03
422.3760, 11430.47
423.5690, 12609.51
424.7610, 13283.46
425.9540, 13630.84
427.1460, 13809.01
428.3380, 13330.92
429.5300, 12654.19
430.7220, 11588.46
431.9140, 10411.72
433.1050, 9271.968
434.2970, 8146.214
435.4880, 7081.452
436.6790, 6195.687
437.8700, 5379.916
439.0610, 4614.143
440.2510, 4145.365
441.4420, 3584.586
442.6320, 3169.804
443.8220, 2735.019
445.0120, 2305.234
446.2020, 2244.447
447.3910, 1901.661
448.5810, 1619.875
449.7700, 1532.088
450.9600, 1334.304
452.1490, 1167.520
453.3370, 1132.738
454.5260, 951.9590
455.7150, 856.6152
456.9030, 808.8311
458.0910, 632.6416
459.2800, 670.8789
460.4670, 576.1240
461.6550, 413.3760
462.8430, 469.5547
464.0300, 330.7275
465.2180, 274.0137
466.4050, 262.2168
467.5920, 248.5312
468.7790, 204.8604
469.9650, 161.2041
471.1520, 312.5654
472.3380, 311.7324
473.5250, 48.09375
474.7110, 26.56348
475.8970, 111.8721
477.0820, 114.4648
478.2680, 87.35840
479.4540, 102.8438
480.6390, 38.83105
481.8240, 16.70410
483.0090, 15.73730
484.1940, 44.57031
485.3780, 36.83887
486.5630, 48.06250
487.7470, 113.9873
488.9320, 92.52148
490.1160, 22.98926
491.3000, 88.94922
492.4830, 83.06250
493.6670, 70.27832
494.8500, 148.2363
496.0340, 43.22070
497.2170, 234.2637
498.4000, 201.3594
499.5820, 179.4990
500.7650, 272.6934
501.9480, 249.9424
503.1300, 358.2305
504.3120, 445.5908
505.4940, 509.3877
506.6760, 574.5420
507.8580, 727.1182
509.0390, 853.7617
510.2210, 1028.475
511.4020, 1156.236
512.5830, 1313.824
513.7640, 1421.900
514.9450, 1590.812
516.1250, 1782.776
517.3060, 1857.818
518.4860, 2002.935
519.6660, 2076.104
520.8460, 2095.797
522.0260, 2119.116
523.2060, 2217.485
524.3850, 2174.553
525.5650, 2170.118
526.7440, 2195.749
527.9230, 2039.472
529.1020, 2194.708
530.2810, 2119.573
531.4590, 1983.875
532.6380, 1933.062
533.8160, 1888.312
534.9940, 1727.695
536.1720, 1860.355
537.3500, 1761.269
538.5270, 1884.439
539.7050, 1679.923
540.8820, 1810.858
542.0590, 1744.229
543.2360, 1962.184
544.4130, 1970.344
545.5900, 2095.398
546.7660, 2098.559
547.9430, 2346.726
549.1190, 2538.643
550.2950, 2660.356
551.4710, 2954.764
552.6470, 3241.402
553.8220, 3760.262
554.9980, 4446.133
556.1730, 5069.662
557.3480, 5924.918
558.5230, 6824.098
559.6980, 7694.021
560.8730, 8804.632
562.0470, 9919.732
563.2220, 11018.54
564.3960, 12313.90
565.5700, 13318.46
566.7440, 14120.67
567.9170, 14796.18
569.0910, 15072.62
570.2640, 15044.57
571.4380, 14722.65
572.6110, 14083.87
573.7840, 13075.10
574.9570, 11796.36
576.1290, 10092.62
577.3020, 8852.899
578.4740, 7678.189
579.6460, 6311.496
580.8180, 5258.816
581.9900, 4466.150
583.1620, 3567.498
584.3330, 3038.858
585.5040, 2513.232
586.6760, 2059.617
587.8470, 1842.016
589.0180, 1399.428
590.1880, 1333.851
591.3590, 1104.285
592.5290, 956.7305
593.7000, 921.1875
594.8700, 845.6562
596.0400, 675.1348
597.2090, 538.6240
598.3790, 586.1230
599.5490, 497.6318
600.7180, 615.1504
601.8870, 606.6787
603.0560, 753.2168
604.2250, 741.7637
605.3940, 795.3184
606.5620, 887.8818
607.7300, 941.4551
608.8990, 1152.035
610.0670, 1389.463
611.2350, 1656.217
612.4020, 2049.818
613.5700, 2510.428
614.7370, 2958.042
615.9050, 3740.479
617.0720, 4533.713
618.2390, 5644.615
619.4060, 6929.607
620.5720, 8280.823
621.7390, 9843.874
622.9050, 11812.38
624.0710, 13344.52
625.2370, 14636.76
626.4030, 15244.57
627.5690, 15352.82
628.7340, 14554.67
629.9000, 13298.97
631.0650, 11661.89
632.2300, 10018.19
633.3950, 8425.734
634.5600, 6854.436
635.7240, 5378.355
636.8890, 4493.994
638.0530, 3491.602
639.2170, 2916.865
640.3810, 2354.994
641.5450, 2001.795
642.7080, 1538.319
643.8720, 1137.430
645.0350, 1044.470
646.1980, 865.5986
647.3610, 645.2578
648.5240, 574.2549
649.6870, 275.4580
650.8490, 355.2871
652.0120, 230.8232
653.1740, 343.0781
654.3360, 117.0596
655.4980, 184.2617
656.6600, 221.3984
657.8210, 73.20020
658.9830, 70.71484
660.1440, 20.75391
661.3050, 25.70312
662.4660, 36.88770
663.6270, 20.08301
664.7870, 130.3662
665.9480, 109.5889
667.1080, 61.33496
668.2680, 33.84961
669.4280, 72.76660
670.5880, 1.997070
671.7480, 39.83691
672.9070, 45.32520
674.0670, 50.83008
675.2260, 16.34082
676.3850, 1.968750
677.5440, 70.27539
678.7030, 33.10059
679.8610, 16.78125
681.0200, 2.257813
682.1780, 137.8984
683.3360, 68.16406
684.4940, 112.3418
685.6520, 7.101563
686.8090, 27.29297
687.9670, 56.47266
689.1240, 25.08789
690.2810, 117.5791
691.4380, 81.03223
692.5950, 13.44336
693.7520, 110.8096
694.9080, 17.86426
696.0650, 23.40137
697.2210, 63.62207
698.3770, 144.7969
699.5330, 28.06934
700.6880, 18.00586
701.8440, 9.995117
702.9990, 82.94238
704.1550, 43.84473
705.3100, 136.6982
706.4650, 68.50684
707.6190, 95.26855
708.7740, 18.98340
709.9290, 166.6445
711.0830, 177.2627
712.2370, 199.8330
713.3910, 180.3604
714.5450, 338.8408
715.6980, 411.2754
716.8520, 403.6650
718.0050, 436.0068
719.1580, 573.3027
720.3110, 577.5527
721.4640, 690.7549
722.6170, 757.9111
723.7700, 659.0186
724.9220, 888.0791
726.0740, 870.0938
727.2260, 891.0586
728.3780, 1093.978
729.5300, 1073.848
730.6810, 1293.670
731.8330, 1222.442
732.9840, 1366.167
734.1350, 1341.845
735.2860, 1343.472
736.4370, 1317.051
737.5880, 1173.580
738.7380, 1101.061
739.8880, 1076.492
741.0390, 921.9141
742.1890, 899.2061
743.3380, 676.4883
744.4880, 626.7217
745.6380, 513.9053
746.7870, 556.0381
747.9360, 434.1221
749.0850, 426.1543
750.2340, 269.1367
751.3830, 416.0703
752.5310, 226.9512
753.6800, 215.7822
754.8280, 64.56250
755.9760, 147.2871
757.1240, 127.9590
758.2720, 76.57617
759.4190, 118.1377
760.5670, 51.64453
761.7140, 103.0908
762.8610, 80.48145
764.0080, 27.18359
765.1550, 15.05176
766.3020, 23.21289
767.4480, 65.69922
768.5950, 11.73047
769.7410, 76.14746
770.8870, 53.03223
772.0330, 55.32422
773.1780, 48.26953
774.3240, 70.20020
775.4690, 53.79199
776.6140, 16.49805
777.7590, 62.29688
778.9040, 57.21387
780.0490, 5.246094
781.1940, 126.3652
782.3380, 109.6367
783.4820, 207.0488
784.6260, 56.65430
785.7700, 110.3740
786.9140, 114.2354
788.0580, 45.23926
789.2010, 25.35059
790.3450, 37.53906
791.4880, 65.86816
792.6310, 54.29297
793.7730, 133.8281
794.9160, 113.5156
796.0590, 30.34375
797.2010, 127.2656
798.3430, 79.77930
799.4850, 12.96777
800.6270, 123.2422
801.7690, 227.2686
802.9100, 33.87988
804.0520, 59.58398
805.1930, 14.39355
806.3340, 21.27539
807.4750, 29.32422
808.6160, 39.88477
809.7560, 36.77246
810.8970, 21.57227
812.0370, 5.719727
813.1770, 25.24316
814.3170, 24.98535
815.4570, 8.003906
816.5960, 38.76172
817.7360, 91.13184
818.8750, 22.90918
820.0140, 20.49316
821.1530, 19.31348
822.2920, 75.02734
823.4310, 82.13379
824.5690, 61.29492
825.7070, 99.71875
826.8460, 198.3672
827.9840, 263.3535
829.1220, 298.1387
830.2590, 351.5908
831.3970, 508.4053
832.5340, 490.4414
833.6710, 536.7969
834.8080, 583.2754
835.9450, 553.0986
837.0820, 486.1221
838.2190, 481.7227
839.3550, 420.6211
840.4910, 321.9609
841.6270, 308.0977
842.7630, 310.5801
843.8990, 365.7363
845.0350, 197.9648
846.1700, 359.7842
847.3060, 249.2119
848.4410, 392.6084
849.5760, 268.9727
850.7100, 307.3076
851.8450, 274.6123
852.9800, 209.8867
854.1140, 331.1318
855.2480, 363.3477
856.3820, 298.5352
857.5160, 302.6934
858.6500, 166.8252
859.7830, 316.9297
860.9170, 168.0068
862.0500, 114.0576
863.1830, 142.0820
864.3160, 267.0811
865.4480, 254.0547
866.5810, 316.0039
867.7130, 150.9277
868.8460, 196.8281
869.9780, 171.7061
871.1100, 269.5596
872.2410, 328.3916
873.3730, 320.2012
874.5050, 217.9883
875.6360, 206.7549
876.7670, 267.4990
877.8980, 287.2246
879.0290, 137.9277
880.1590, 248.6133
881.2900, 260.2783
882.4200, 391.9258
883.5500, 414.6445
884.6800, 459.4453
885.8100, 492.7578
886.9400, 473.3340
888.0690, 522.8945
889.1990, 417.4375
890.3280, 563.9658
891.4570, 774.8701
892.5860, 546.1035
893.7140, 682.2393
894.8430, 676.1445
895.9710, 923.2070
897.1000, 851.7021
898.2280, 1133.673
899.3560, 1234.535
900.4830, 1438.816
901.6110, 1674.663
902.7380, 1909.903
903.8660, 2170.688
904.9930, 2700.836
906.1200, 3173.632
907.2460, 3616.166
908.3730, 4304.543
909.5000, 4843.693
910.6260, 5436.115
911.7520, 5909.561
912.8780, 6448.352
914.0040, 6961.264
915.1290, 7720.500
916.2550, 8863.006
917.3800, 10373.92
918.5050, 11874.90
919.6300, 13983.79
920.7550, 16277.15
921.8800, 19183.16
923.0040, 22477.96
924.1290, 25952.13
925.2530, 29732.59
926.3770, 34103.32
927.5010, 37424.34
928.6250, 40838.13
929.7480, 42811.98
930.8720, 43924.17
931.9950, 43659.64
933.1180, 41905.09
934.2410, 39271.62
935.3640, 36183.47
936.4860, 32411.50
937.6090, 28444.10
938.7310, 25170.96
939.8530, 21738.30
940.9750, 19227.57
942.0970, 16827.03
943.2180, 15124.88
944.3400, 13630.12
945.4610, 12575.36
946.5820, 11491.30
947.7030, 10168.87
948.8240, 8869.345
949.9450, 7698.709
951.0650, 6567.637
952.1860, 5235.430
953.3060, 4488.510
954.4260, 3717.977
955.5460, 3269.812
956.6650, 2813.730
957.7850, 2403.263
958.9040, 2199.559
960.0230, 1993.827
961.1420, 1877.330
962.2610, 1516.910
963.3800, 1503.557
964.4990, 1385.238
965.6170, 1490.966
966.7350, 1340.749
967.8530, 1215.590
968.9710, 1259.499
970.0890, 1157.461
971.2070, 1151.468
972.3240, 1354.520
973.4410, 1361.615
974.5580, 1570.749
975.6750, 1682.917
976.7920, 1914.123
977.9090, 2164.361
979.0250, 2424.635
980.1410, 2608.947
981.2580, 2928.299
982.3740, 3241.685
983.4890, 3816.104
984.6050, 4256.565
985.7200, 4935.062
986.8360, 5801.740
987.9510, 6865.174
989.0660, 8035.786
990.1810, 9516.439
991.2950, 11332.13
992.4100, 13253.86
993.5240, 15476.62
994.6390, 17995.43
995.7530, 20311.27
996.8660, 22710.16
997.9800, 25357.10
999.0940, 27603.08
1000.207, 29429.10
1001.320, 30998.16
1002.433, 31891.26
1003.546, 32000.40
1004.659, 32356.57
1005.772, 31636.79
1006.884, 30483.05
1007.996, 29405.36
1009.108, 27646.71
1010.220, 26146.10
1011.332, 24218.54
1012.444, 22419.01
1013.555, 20521.54
1014.666, 18849.10
1015.777, 17004.34
1016.888, 15037.35
1017.999, 13545.04
1019.110, 11886.76
1020.220, 10415.55
1021.331, 9227.371
1022.441, 8129.244
1023.551, 7212.152
1024.661, 6413.107
1025.770, 5617.107
1026.880, 5184.156
1027.989, 4530.252
1029.098, 4110.392
1030.207, 3884.583
1031.316, 3583.823
1032.425, 3354.111
1033.533, 3202.446
1034.642, 3204.850
1035.750, 2797.310
1036.858, 2912.824
1037.966, 2933.418
1039.073, 2732.082
1040.181, 2530.788
1041.288, 2439.570
1042.396, 2186.429
1043.503, 2070.247
1044.610, 1843.328
1045.716, 1776.361
1046.823, 1663.496
1047.929, 1497.710
1049.036, 1295.000
1050.142, 1124.617
1051.248, 1013.807
1052.353, 1069.611
1053.459, 820.2783
1054.564, 941.0254
1055.670, 874.0215
1056.775, 866.7930
1057.880, 728.4209
1058.985, 638.0146
1060.089, 676.3047
1061.194, 624.5254
1062.298, 625.1611
1063.402, 742.7109
1064.506, 636.1914
1065.610, 646.0840
1066.713, 664.3496
1067.817, 603.9668
1068.920, 727.7578
1070.023, 791.6260
1071.126, 842.4238
1072.229, 802.7051
1073.332, 801.1221
1074.435, 998.2979
1075.537, 1144.146
1076.639, 1369.674
1077.741, 1581.199
1078.843, 1807.799
1079.945, 2076.202
1081.046, 2449.193
1082.148, 2756.462
1083.249, 3171.606
1084.350, 3283.019
1085.451, 3594.329
1086.551, 3629.007
1087.652, 3983.478
1088.752, 3845.575
1089.853, 3684.393
1090.953, 3277.521
1092.053, 3035.438
1093.152, 2734.391
1094.252, 2434.595
1095.351, 2247.137
1096.451, 1923.451
1097.550, 1562.305
1098.649, 1360.553
1099.748, 1218.623
1100.846, 893.9746
1101.945, 841.9473
1103.043, 698.8711
1104.141, 615.1514
1105.239, 582.4609
1106.337, 424.8008
1107.434, 196.1699
1108.532, 458.5693
1109.629, 168.9971
1110.726, 107.4541
1111.823, 210.1777
1112.920, 137.6924
1114.017, 173.2344
1115.113, 267.8037
1116.210, 281.9160
1117.306, 519.5410
1118.402, 775.9297
1119.498, 1043.947
1120.593, 1171.661
1121.689, 1253.969
1122.784, 1324.646
1123.879, 1195.429
1124.974, 1033.539
1126.069, 819.3721
1127.164, 584.4141
1128.259, 328.6777
1129.353, 294.6855
1130.447, 270.1709
1131.541, 297.1230
1132.635, 140.0996
1133.729, 56.09961
1134.822, 169.1201
1135.916, 153.1641
1137.009, 226.2295
1138.102, 204.7568
1139.195, 129.4170
1140.288, 173.5879
1141.380, 222.7373
1142.473, 183.9434
1143.565, 226.1338
1144.657, 159.3428
1145.749, 189.5947
1146.841, 287.0625
1147.932, 196.3281
1149.024, 162.6436
1150.115, 109.9473
1151.206, 180.5811
1152.297, 147.9189
1153.388, 143.9473
1154.479, 99.66602
1155.569, 90.06934
1156.659, 167.5166
1157.750, 76.68164
1158.839, 127.1875
1159.929, 224.8311
1161.019, 48.31934
1162.108, 99.09180
1163.198, 174.7852
1164.287, 163.4150
1165.376, 173.0596
1166.465, 224.7178
1167.553, 52.38770
1168.642, 13.08398
1169.730, 100.2070
1170.818, 165.4844
1171.906, 31.18555
1172.994, 187.8984
1174.082, 77.62109
1175.170, 121.4160
1176.257, 42.19922
1177.344, 67.53809
1178.431, 54.28418
1179.518, 37.03906
1180.605, 47.04004
1181.691, 39.71484
1182.778, 37.95215
1183.864, 124.8193
1184.950, 145.2588
1186.036, 6.788086
1187.122, 30.00781
1188.207, 22.79883
1189.292, 18.90918
1190.378, 34.84668
1191.463, 72.66211
1192.548, 61.58496
1193.632, 35.14453
1194.717, 15.87207
1195.801, 54.40039
1196.886, 38.69727
1197.970, 210.0127
1199.054, 114.4336
1200.137, 86.08789
1201.221, 187.3945
1202.305, 0.9746090
1203.388, 24.56348
1204.471, 33.82910
1205.554, 65.78418
1206.637, 1.562500
1207.719, 7.510742
1208.802, 136.7734
1209.884, 45.47559
1210.966, 72.28418
1212.048, 106.0928
1213.130, 3.0273000E-02
1214.212, 103.8613
1215.293, 52.33203
1216.374, 43.17383
1217.456, 1.161133
1218.536, 11.12988
1219.617, 94.08398
1220.698, 101.9707
1221.778, 80.89941
1222.859, 62.75879
1223.939, 49.39160
1225.019, 116.5908
1226.099, 22.12207
1227.178, 22.18066
1228.258, 58.51953
1229.337, 37.91309
1230.417, 104.3545
1231.496, 32.87988
1232.574, 14.45117
1233.653, 63.93848
1234.732, 103.3135
1235.810, 154.6768
1236.888, 201.0244
1237.966, 55.36035
1239.044, 59.68066
1240.122, 85.55566
1241.199, 44.27539
1242.277, 166.5469
1243.354, 154.8027
1244.431, 197.0420
1245.508, 42.26758
1246.585, 68.47168
1247.661, 39.65918
1248.738, 52.82129
1249.814, 72.96289
1250.890, 51.40527
1251.966, 150.1836
1253.042, 86.26367
1254.117, 63.32520
1255.193, 194.3662
1256.268, 72.38867
1257.343, 37.39453
1258.418, 23.36816
1259.493, 63.30176
1260.567, 136.2256
1261.642, 107.1299
1262.716, 214.0137
1263.790, 143.8779
1264.864, 223.7227
1265.938, 193.5449
1267.011, 48.34668
1268.085, 77.11523
1269.158, 115.8691
1270.231, 163.5996
1271.304, 65.30957
1272.377, 141.9873
1273.450, 155.6426
1274.522, 102.2764
1275.594, 144.8857
1276.666, 172.4717
1277.738, 139.0371
1278.810, 213.6367
1279.882, 42.22559
1280.953, 206.7031
1282.025, 240.7979
1283.096, 155.2266
1284.167, 248.2402
1285.238, 326.4668
1286.308, 103.5996
1287.379, 202.4229
1288.449, 154.4561
1289.519, 100.8154
1290.589, 145.6660
1291.659, 176.9336
1292.729, 273.9658
1293.798, 370.4326
1294.868, 363.8984
1295.937, 335.9990
1297.006, 362.3916
1298.075, 258.4365
1299.143, 239.7051
1300.212, 260.6934
1301.280, 290.7432
1302.348, 246.6748
1303.416, 205.5781
1304.484, 139.4512
1305.552, 300.3252
1306.620, 226.1348
1307.687, 251.6543
1308.754, 191.4053
1309.821, 294.8623
1310.888, 73.25293
1311.955, 350.8975
1313.021, 147.5078
1314.088, 197.0811
1315.154, 349.4648
1316.220, 166.1348
1317.286, 212.9873
1318.352, 302.9111
1319.417, 230.1846
1320.483, 332.5723
1321.548, 348.4268
1322.613, 284.7529
1323.678, 309.1328
1324.743, 249.9805
1325.807, 261.6006
1326.872, 263.9248
1327.936, 289.1094
1329.000, 258.2812
1330.064, 256.4238
1331.128, 226.5039
1332.191, 241.3037
1333.255, 303.3770
1334.318, 317.8057
1335.381, 379.5742
1336.444, 252.5068
1337.507, 345.1074
1338.569, 304.0645
1339.632, 485.4639
1340.694, 309.6191
1341.756, 475.9209
1342.818, 389.9795
1343.880, 441.1553
1344.941, 487.9824
1346.003, 417.0459
1347.064, 455.5010
1348.125, 527.2656
1349.186, 683.7588
1350.247, 617.4795
1351.308, 667.1816
1352.368, 606.6465
1353.428, 727.7861
1354.489, 716.1660
1355.549, 908.1123
1356.608, 933.7139
1357.668, 993.3789
1358.727, 1024.863
1359.787, 1335.744
1360.846, 1393.590
1361.905, 1286.092
1362.964, 1052.574
1364.022, 1196.038
1365.081, 904.5186
1366.139, 808.9395
1367.197, 673.2783
1368.255, 685.5547
1369.313, 582.5674
1370.371, 457.7959
1371.428, 354.1504
1372.486, 371.4512
1373.543, 257.5234
1374.600, 278.7217
1375.657, 396.1855
1376.713, 401.8389
1377.770, 346.8018
1378.826, 290.2510
1379.882, 406.1445
1380.938, 325.0186
1381.994, 316.8428
1383.050, 404.6738
1384.106, 369.6797
1385.161, 239.0889
1386.216, 359.7754
1387.271, 226.5303
1388.326, 429.2617
1389.381, 455.2305
1390.435, 395.0078
1391.490, 668.6777
1392.544, 781.3291
1393.598, 936.9580
1394.652, 913.8457
1395.705, 935.1621
1396.759, 980.9014
1397.812, 765.4482
1398.866, 700.9385
1399.919, 507.5947
1400.972, 420.1172
1402.024, 418.4219
1403.077, 515.8467
1404.129, 318.7520
1405.181, 178.0986
1406.233, 176.0703
1407.285, 493.1270
1408.337, 77.43555
1409.389, 199.7207
1410.440, 2.171875
1411.491, 65.58398
1412.542, 65.91309
1413.593, 44.63477
1414.644, 68.47656
1415.695, 169.4434
1416.745, 15.46289
1417.795, 54.72070
1418.845, 15.09082
1419.895, 113.9561
1420.945, 107.8008
1421.995, 219.5605
1423.044, 12.70801
1424.093, 331.9814
1425.142, 125.6445
1426.191, 239.2832
1427.240, 164.8809
1428.289, 238.4512
1429.337, 314.8779
1430.385, 221.0215
1431.433, 417.2441
1432.481, 188.6855
1433.529, 59.09863
1434.577, 246.5742
1435.624, 278.9395
1436.672, 23.31445
1437.719, 189.4297
1438.766, 241.7139
1439.812, 218.3184
1440.859, 279.3975
1441.905, 349.6191
1442.952, 383.4814
1443.998, 453.5127
1445.044, 399.6914
1446.090, 415.7217
1447.135, 320.7051
1448.181, 336.8008
1449.226, 345.8652
1450.271, 233.9678
1451.316, 241.1377
1452.361, 278.3662
1453.405, 219.5723
1454.450, 297.7773
1455.494, 280.9902
1456.538, 384.2275
1457.582, 474.5215
1458.626, 343.8701
1459.670, 343.2090
1460.713, 412.5254
1461.757, 355.8818
1462.800, 430.2285
1463.843, 330.6553
1464.886, 288.1055
1465.928, 355.6348
1466.971, 302.2363
1468.013, 305.8291
1469.055, 355.3994
1470.097, 485.9463
1471.139, 402.4746
1472.181, 429.9854
1473.222, 306.4756
1474.263, 343.9531
1475.305, 446.4238
1476.346, 339.8877
1477.386, 347.3389
1478.427, 241.7715
1479.468, 411.2158
1480.508, 157.6279
1481.548, 21.02637
1482.588, 422.4131
1483.628, 158.7939
1484.668, 157.1514
1485.707, 355.5039
1486.747, 224.8545
1487.786, 349.2002
1488.825, 344.4463
1489.864, 172.6787
1490.902, 263.0381
1491.941, 323.6006
1492.979, 286.8076
1494.017, 339.5000
1495.055, 133.7793
1496.093, 93.00586
1497.131, 100.1729
1498.168, 37.32227
1499.206, 103.8760
1500.243, 97.92480
1501.280, 182.5459
1502.317, 317.1777
1503.354, 249.4619
1504.390, 246.2217
1505.426, 256.7725
1506.463, 70.33984
1507.499, 159.9170
1508.535, 12.49902
1509.570, 236.0967
1510.606, 130.6875
1511.641, 47.74219
1512.676, 214.8008
1513.711, 72.31348
1514.746, 112.7959
1515.781, 223.2422
1516.816, 219.6475
1517.850, 148.0117
1518.884, 7.327148
1519.918, 28.41602
1520.952, 80.78125
1521.986, 195.9141
1523.019, 175.9844
1524.053, 93.98438
1525.086, 119.9121
1526.119, 108.5176
1527.152, 245.1084
1528.185, 24.18359
1529.217, 128.6797
1530.250, 9.075195
1531.282, 114.2666
1532.314, 193.0078
1533.346, 182.8535
1534.377, 73.76367
1535.409, 116.8262
1536.440, 44.53516
1537.472, 210.8887
1538.503, 318.4590
1539.534, 278.9531
1540.564, 301.8926
1541.595, 445.1973
1542.625, 612.8066
1543.656, 857.0332
1544.686, 848.5625
1545.716, 619.3887
1546.745, 393.0625
1547.775, 383.8340
1548.804, 298.5391
1549.834, 253.9980
1550.863, 399.3457
1551.892, 386.8672
1552.920, 379.0000
1553.949, 298.7598
1554.977, 283.3633
1556.006, 222.8809
1557.034, 214.0996
1558.062, 66.97070
1559.089, 49.73633
1560.117, 8.458984
1561.144, 134.5430
1562.172, 175.9590
1563.199, 123.0449
1564.226, 214.7520
1565.252, 269.5312
1566.279, 71.83203
1567.305, 296.3750
1568.332, 1.443359
1569.358, 289.3359
1570.384, 0.0000000E+00
##END=



