##NAMES=Celestine
##RRUFFID=R050008
##IDEAL CHEMISTRY=SrS^6+^O_4_
##LOCALITY=Scofield Quarry, Maybee, Monroe County, Michigan, USA
##OWNER=RRUFF
##SOURCE=Eugene Schlepp
##DESCRIPTION=Pale blue tabular crystals
##STATUS=The identification of this mineral has been confirmed by X-ray diffraction and chemical analysis
##URL=rruff.info/R050008
##MEASURED CHEMISTRY=Sr_1.00_S_1.00_O_4_
##PIN_ID=M00399
##ORIENTATION=Laser parallel to b* (0 1 0). Fiducial mark perpendicular to laser is parallel to -c [0 0 -1]
50.167, 0.000
51.575, 3.799
52.984, 27.643
54.392, 63.460
55.799, 56.160
57.207, 123.886
58.614, 111.491
60.021, 117.612
61.428, 143.577
62.834, 163.248
64.240, 211.171
65.646, 198.882
67.052, 234.020
68.458, 196.680
69.863, 198.791
71.268, 178.610
72.673, 169.647
74.077, 184.309
75.481, 170.326
76.885, 116.401
78.289, 108.540
79.693, 66.717
81.096, 58.903
82.499, 41.262
83.902, 24.220
85.304, 17.360
86.706, 5.463
88.108, 0.473
89.510, 16.451
90.912, 12.466
92.313, 6.603
93.714, 10.280
95.115, 13.013
96.515, 23.048
97.916, 22.002
99.316, 17.319
100.715, 45.571
102.115, 69.967
103.514, 63.887
104.913, 140.555
106.312, 197.214
107.711, 186.746
109.109, 177.228
110.507, 100.429
111.905, 63.405
113.303, 67.419
114.700, 73.351
116.097, 67.448
117.494, 89.598
118.891, 99.636
120.287, 90.328
121.683, 113.978
123.079, 143.584
124.475, 178.149
125.870, 211.679
127.265, 235.166
128.660, 235.611
130.055, 230.014
131.449, 213.737
132.843, 187.880
134.237, 157.726
135.631, 132.057
137.024, 108.724
138.417, 71.616
139.810, 75.820
141.203, 64.641
142.596, 36.888
143.988, 46.702
145.380, 63.886
146.771, 34.776
148.163, 52.789
149.554, 39.043
150.945, 51.919
152.336, 33.445
153.726, 46.374
155.117, 54.864
156.507, 51.755
157.896, 57.402
159.286, 62.376
160.675, 59.678
162.064, 53.823
163.453, 61.138
164.842, 55.983
166.230, 58.545
167.618, 60.124
169.006, 62.083
170.393, 74.986
171.781, 80.019
173.168, 89.040
174.555, 78.023
175.941, 67.025
177.328, 69.974
178.714, 80.972
180.100, 61.708
181.485, 60.532
182.871, 47.290
184.256, 63.065
185.641, 58.761
187.025, 55.686
188.410, 87.216
189.794, 103.812
191.178, 117.420
192.562, 154.988
193.945, 189.582
195.328, 218.043
196.711, 286.583
198.094, 287.076
199.476, 296.837
200.859, 304.298
202.241, 265.675
203.623, 240.948
205.004, 171.270
206.385, 104.591
207.766, 93.858
209.147, 96.094
210.528, 48.325
211.908, 40.540
213.288, 23.747
214.668, 11.053
216.048, 0.834
217.427, 15.721
218.806, 4.299
220.185, 16.877
221.564, 6.546
222.942, 4.954
224.320, 24.587
225.698, 1.822
227.076, 12.818
228.453, 5.482
229.830, 1.730
231.207, 0.066
232.584, 10.098
233.960, 6.783
235.337, 11.278
236.713, 3.771
238.088, 0.899
239.464, 3.090
240.839, 7.305
242.214, 22.458
243.589, 6.210
244.964, 2.951
246.338, 7.681
247.712, 10.615
249.086, 7.002
250.459, 2.507
251.833, 4.939
253.206, 4.837
254.579, 6.124
255.951, 0.919
257.324, 4.286
258.696, 10.513
260.068, 4.155
261.439, 11.158
262.811, 14.556
264.182, 7.930
265.553, 10.247
266.924, 2.714
268.294, 2.234
269.665, 11.739
271.035, 17.230
272.404, 9.708
273.774, 4.173
275.143, 3.428
276.512, 11.065
277.881, 1.494
279.250, 7.087
280.618, 2.319
281.986, 0.286
283.354, 6.903
284.721, 8.467
286.089, 25.827
287.456, 22.179
288.823, 15.522
290.190, 11.856
291.556, 6.181
292.922, 9.497
294.288, 4.805
295.654, 5.105
297.019, 11.395
298.385, 11.665
299.750, 0.921
301.114, 13.164
302.479, 3.390
303.843, 0.413
305.207, 6.764
306.571, 24.892
307.935, 18.883
309.298, 14.898
310.661, 7.966
312.024, 15.890
313.387, 14.882
314.749, 14.795
316.111, 7.753
317.473, 20.607
318.835, 12.516
320.196, 3.453
321.558, 2.633
322.919, 25.297
324.279, 31.241
325.640, 24.169
327.000, 15.067
328.360, 7.989
329.720, 24.883
331.080, 19.777
332.439, 16.667
333.798, 20.560
335.157, 6.503
336.516, 18.443
337.874, 32.377
339.232, 18.305
340.590, 12.196
341.948, 37.095
343.305, 0.005
344.662, 18.861
346.019, 6.292
347.376, 12.495
348.733, 22.345
350.089, 25.173
351.445, 23.983
352.801, 38.857
354.156, 32.726
355.512, 37.592
356.867, 19.453
358.222, 36.311
359.576, 17.164
360.931, 27.014
362.285, 33.860
363.639, 31.701
364.992, 35.107
366.346, 43.373
367.699, 30.205
369.052, 40.034
370.405, 33.860
371.757, 37.684
373.110, 51.505
374.462, 39.251
375.814, 33.964
377.165, 25.605
378.516, 25.617
379.868, 35.406
381.218, 27.981
382.569, 24.424
383.920, 17.991
385.270, 36.828
386.620, 32.258
387.969, 30.947
389.319, 41.274
390.668, 38.689
392.017, 49.099
393.366, 37.405
394.714, 37.605
396.063, 28.051
397.411, 39.821
398.759, 59.267
400.106, 42.278
401.454, 50.415
402.801, 38.416
404.148, 24.154
405.495, 54.667
406.841, 49.048
408.187, 53.385
409.533, 62.866
410.879, 54.408
412.224, 45.794
413.570, 36.123
414.915, 64.484
416.260, 43.432
417.604, 35.816
418.949, 76.040
420.293, 70.438
421.637, 63.889
422.980, 71.984
424.324, 80.453
425.667, 95.940
427.010, 99.381
428.353, 109.192
429.695, 120.215
431.037, 125.626
432.379, 140.093
433.721, 154.581
435.063, 163.031
436.404, 205.435
437.745, 220.831
439.086, 257.287
440.427, 307.666
441.767, 379.626
443.108, 435.010
444.448, 517.357
445.787, 707.340
447.127, 959.775
448.466, 1299.282
449.805, 1899.773
451.144, 2637.234
452.482, 3626.679
453.821, 4615.094
455.159, 5200.526
456.497, 5626.930
457.834, 6447.015
459.172, 6362.774
460.509, 7603.211
461.846, 8493.582
463.183, 8755.027
464.519, 6966.423
465.856, 5028.784
467.192, 3401.208
468.527, 2322.712
469.863, 1634.193
471.198, 1156.656
472.534, 872.092
473.868, 678.564
475.203, 528.034
476.538, 450.507
477.872, 329.954
479.206, 320.456
480.540, 260.927
481.873, 233.360
483.206, 200.696
484.539, 155.223
485.872, 134.776
487.205, 116.355
488.537, 101.605
489.869, 100.244
491.201, 97.774
492.533, 99.283
493.864, 110.780
495.196, 88.298
496.527, 85.758
497.857, 69.268
499.188, 78.841
500.518, 68.355
501.848, 47.845
503.178, 63.441
504.508, 48.881
505.837, 52.404
507.166, 32.665
508.495, 54.169
509.824, 56.715
511.153, 40.275
512.481, 25.830
513.809, 41.437
515.137, 50.030
516.464, 25.639
517.792, 30.182
519.119, 42.793
520.446, 19.332
521.772, 18.912
523.099, 23.523
524.425, 28.127
525.751, 27.741
527.077, 21.355
528.402, 22.715
529.728, 11.578
531.053, 18.197
532.377, 12.816
533.702, 10.436
535.027, 17.055
536.351, 2.673
537.675, 19.273
538.998, 23.885
540.322, 15.514
541.645, 20.145
542.968, 4.766
544.291, 29.363
545.613, 30.003
546.936, 17.674
548.258, 18.323
549.580, 12.006
550.902, 1.662
552.223, 6.318
553.544, 9.981
554.865, 9.641
556.186, 14.352
557.507, 4.018
558.827, 5.259
560.147, 8.428
561.467, 16.103
562.786, 19.856
564.106, 2.585
565.425, 8.413
566.744, 14.390
568.063, 6.918
569.381, 8.817
570.700, 1.520
572.018, 15.250
573.335, 14.005
574.653, 3.287
575.970, 5.736
577.288, 14.448
578.604, 9.199
579.921, 10.987
581.238, 5.743
582.554, 29.487
583.870, 10.232
585.186, 4.971
586.501, 29.715
587.817, 5.434
589.132, 19.174
590.447, 28.899
591.761, 12.619
593.076, 28.524
594.390, 24.281
595.704, 25.001
597.018, 28.339
598.331, 27.541
599.645, 35.290
600.958, 45.941
602.271, 54.815
603.583, 73.539
604.896, 94.271
606.208, 108.095
607.520, 117.830
608.832, 137.556
610.143, 174.292
611.455, 206.017
612.766, 274.752
614.077, 343.534
615.387, 494.356
616.698, 719.089
618.008, 1011.814
619.318, 1429.583
620.628, 1635.489
621.937, 1740.895
623.247, 1734.092
624.556, 1711.817
625.865, 1603.798
627.173, 1541.364
628.482, 1260.109
629.790, 1042.022
631.098, 835.446
632.405, 698.418
633.713, 668.731
635.020, 785.085
636.327, 978.812
637.634, 1428.995
638.941, 1869.742
640.247, 2182.494
641.553, 2057.241
642.859, 1518.016
644.165, 1033.731
645.471, 753.444
646.776, 555.157
648.081, 527.016
649.386, 475.739
650.691, 537.455
651.995, 666.027
653.299, 852.741
654.603, 1205.451
655.907, 1596.900
657.210, 1979.612
658.514, 2098.313
659.817, 1778.452
661.120, 1372.150
662.422, 911.124
663.725, 647.827
665.027, 440.894
666.329, 317.588
667.630, 222.280
668.932, 183.979
670.233, 148.697
671.534, 105.384
672.835, 86.839
674.136, 96.661
675.436, 57.018
676.737, 62.696
678.036, 72.373
679.336, 67.427
680.636, 56.119
681.935, 49.955
683.234, 53.623
684.533, 38.290
685.832, 39.015
687.130, 19.096
688.428, 35.099
689.726, 26.755
691.024, 43.408
692.322, 29.059
693.619, 19.708
694.916, 24.824
696.213, 21.736
697.510, 15.572
698.806, 26.770
700.102, 23.828
701.398, 21.461
702.694, 7.091
703.990, 15.718
705.285, 6.342
706.580, 16.963
707.875, 26.581
709.170, 13.196
710.464, 18.808
711.758, 2.417
713.052, 17.472
714.346, 2.513
715.640, 12.308
716.933, 16.038
718.226, 1.630
719.519, 5.817
720.812, 1.432
722.105, 0.988
723.397, 21.771
724.689, 7.257
725.981, 17.592
727.272, 12.916
728.564, 7.918
729.855, 31.475
731.146, 0.002
732.437, 31.544
733.727, 10.170
735.017, 5.708
736.308, 9.243
737.597, 12.773
738.887, 12.490
740.176, 13.825
741.466, 13.769
742.755, 20.284
744.043, 14.795
745.332, 18.302
746.620, 19.805
747.908, 3.304
749.196, 10.798
750.484, 21.288
751.771, 6.774
753.059, 13.256
754.346, 12.734
755.633, 24.208
756.919, 6.678
758.206, 20.143
759.492, 17.605
760.778, 6.062
762.063, 16.515
763.349, 24.964
764.634, 16.410
765.919, 35.851
767.204, 16.289
768.489, 7.722
769.773, 6.151
771.057, 16.576
772.341, 18.996
773.625, 8.413
774.909, 3.825
776.192, 4.768
777.475, 17.371
778.758, 26.010
780.041, 10.613
781.323, 7.751
782.605, 12.110
783.887, 3.466
785.169, 5.184
786.451, 2.156
787.732, 3.510
789.013, 4.185
790.294, 14.130
791.575, 1.558
792.856, 8.745
794.136, 8.045
795.416, 8.341
796.696, 6.632
797.976, 22.919
799.255, 19.202
800.534, 20.482
801.813, 3.758
803.092, 11.028
804.371, 12.295
805.649, 8.442
806.927, 11.810
808.205, 12.059
809.483, 6.697
810.760, 10.538
812.037, 12.768
813.315, 2.005
814.591, 17.215
815.868, 0.431
817.144, 9.641
818.421, 17.153
819.697, 23.038
820.972, 13.225
822.248, 8.409
823.523, 5.589
824.798, 15.766
826.073, 8.061
827.348, 2.102
828.623, 6.740
829.897, 36.408
831.171, 9.554
832.445, 2.305
833.718, 4.831
834.992, 15.038
836.265, 7.080
837.538, 6.195
838.811, 13.693
840.083, 3.594
841.356, 2.502
842.628, 9.584
843.900, 5.667
845.171, 10.747
846.443, 17.823
847.714, 5.103
848.985, 2.037
850.256, 0.976
851.527, 6.920
852.797, 4.872
854.067, 5.169
855.337, 5.207
856.607, 10.334
857.876, 20.245
859.146, 14.241
860.415, 13.268
861.684, 8.293
862.953, 3.309
864.221, 7.329
865.489, 6.706
866.757, 6.695
868.025, 3.746
869.293, 1.762
870.560, 7.233
871.828, 9.849
873.095, 16.909
874.361, 0.925
875.628, 3.391
876.894, 9.576
878.160, 13.502
879.426, 13.549
880.692, 8.627
881.958, 3.266
883.223, 12.205
884.488, 0.830
885.753, 2.235
887.018, 2.659
888.282, 7.516
889.546, 2.403
890.810, 7.303
892.074, 0.200
893.338, 9.899
894.601, 3.995
895.864, 1.912
897.127, 24.807
898.390, 25.716
899.652, 23.628
900.915, 34.354
902.177, 16.228
903.439, 20.137
904.700, 27.972
905.962, 25.853
907.223, 8.732
908.484, 17.636
909.745, 11.462
911.006, 8.365
912.266, 7.261
913.526, 27.066
914.786, 33.957
916.046, 35.857
917.306, 23.746
918.565, 15.645
919.824, 46.534
921.083, 35.376
922.342, 46.177
923.600, 24.067
924.859, 8.964
926.117, 53.816
927.375, 31.532
928.632, 31.747
929.890, 46.171
931.147, 46.067
932.404, 45.327
933.661, 49.762
934.918, 38.637
936.174, 39.344
937.430, 32.540
938.686, 57.187
939.942, 43.493
941.198, 55.759
942.453, 57.650
943.708, 41.087
944.963, 32.959
946.218, 17.826
947.472, 24.247
948.727, 47.544
949.981, 46.448
951.235, 42.354
952.488, 64.261
953.742, 67.022
954.995, 76.919
956.248, 87.823
957.501, 119.870
958.754, 68.776
960.006, 96.686
961.258, 77.857
962.510, 104.766
963.762, 112.685
965.014, 110.168
966.265, 141.090
967.516, 140.738
968.767, 159.657
970.018, 168.213
971.269, 184.143
972.519, 251.075
973.769, 279.001
975.019, 348.907
976.269, 346.846
977.518, 350.016
978.767, 360.820
980.017, 439.089
981.265, 457.037
982.514, 529.987
983.762, 549.561
985.011, 685.499
986.259, 783.292
987.507, 833.254
988.754, 1046.217
990.002, 1252.123
991.249, 1665.674
992.496, 2154.304
993.743, 2910.282
994.989, 4613.264
996.236, 7493.249
997.482, 14761.236
998.728, 32209.758
999.974, 53428.484
1001.219, 60137.293
1002.464, 41825.727
1003.710, 21194.312
1004.954, 11663.328
1006.199, 6526.344
1007.444, 4154.362
1008.688, 2836.385
1009.932, 2060.411
1011.176, 1578.442
1012.420, 1237.476
1013.663, 1018.514
1014.906, 891.557
1016.149, 751.154
1017.392, 626.766
1018.635, 593.568
1019.877, 494.493
1021.120, 433.558
1022.362, 414.031
1023.603, 358.075
1024.845, 352.154
1026.086, 296.055
1027.328, 289.144
1028.569, 254.475
1029.809, 221.818
1031.050, 223.490
1032.290, 185.609
1033.530, 191.734
1034.770, 154.866
1036.010, 155.919
1037.250, 136.061
1038.489, 135.207
1039.728, 131.358
1040.967, 111.515
1042.206, 109.674
1043.444, 109.415
1044.683, 101.587
1045.921, 93.764
1047.159, 88.946
1048.396, 71.134
1049.634, 106.328
1050.871, 89.527
1052.108, 74.739
1053.345, 66.964
1054.582, 52.195
1055.818, 75.431
1057.054, 80.673
1058.290, 44.923
1059.526, 63.183
1060.762, 20.452
1061.997, 17.729
1063.232, 40.016
1064.467, 44.310
1065.702, 61.610
1066.937, 52.916
1068.171, 37.227
1069.405, 45.543
1070.639, 13.865
1071.873, 11.195
1073.107, 52.530
1074.340, 32.870
1075.573, 33.216
1076.806, 48.568
1078.039, 38.929
1079.272, 62.302
1080.504, 54.680
1081.736, 41.070
1082.968, 66.467
1084.200, 91.871
1085.431, 81.282
1086.663, 107.701
1087.894, 145.127
1089.125, 253.561
1090.355, 249.003
1091.586, 383.515
1092.816, 589.976
1094.046, 647.443
1095.276, 623.917
1096.506, 507.397
1097.735, 368.884
1098.965, 291.375
1100.194, 247.873
1101.423, 220.375
1102.651, 241.885
1103.880, 280.401
1105.108, 379.922
1106.336, 483.453
1107.564, 588.989
1108.792, 754.534
1110.019, 784.087
1111.246, 817.645
1112.473, 728.210
1113.700, 540.783
1114.927, 412.362
1116.153, 320.948
1117.380, 229.540
1118.606, 171.143
1119.831, 142.752
1121.057, 125.367
1122.283, 139.988
1123.508, 110.614
1124.733, 96.246
1125.958, 83.890
1127.182, 93.537
1128.407, 72.193
1129.631, 96.854
1130.855, 93.805
1132.079, 121.479
1133.302, 124.159
1134.526, 153.850
1135.749, 155.546
1136.972, 191.248
1138.195, 236.155
1139.417, 231.875
1140.640, 309.796
1141.862, 356.554
1143.084, 391.291
1144.305, 483.081
1145.527, 546.829
1146.748, 676.696
1147.970, 872.458
1149.191, 1081.226
1150.411, 1502.633
1151.632, 1991.416
1152.852, 2564.204
1154.072, 3386.997
1155.292, 3971.795
1156.512, 4269.676
1157.732, 4460.483
1158.951, 4127.296
1160.170, 4218.115
1161.389, 3651.937
1162.608, 3047.765
1163.826, 2606.599
1165.045, 1953.440
1166.263, 1607.287
1167.481, 1254.884
1168.699, 973.741
1169.916, 831.605
1171.134, 656.479
1172.351, 572.357
1173.568, 491.240
1174.784, 366.182
1176.001, 362.077
1177.217, 357.619
1178.433, 310.529
1179.649, 310.602
1180.865, 332.688
1182.081, 328.610
1183.296, 405.537
1184.511, 433.467
1185.726, 595.402
1186.941, 719.340
1188.155, 785.453
1189.370, 792.400
1190.584, 678.352
1191.798, 549.308
1193.011, 442.267
1194.225, 325.525
1195.438, 249.492
1196.651, 221.463
1197.864, 145.339
1199.077, 129.105
1200.290, 125.086
1201.502, 106.070
1202.714, 107.319
1203.926, 70.898
1205.138, 70.746
1206.349, 57.738
1207.561, 47.599
1208.772, 87.380
1209.983, 51.667
1211.194, 57.972
1212.404, 64.998
1213.614, 39.013
1214.825, 66.059
1216.034, 56.079
1217.244, 49.478
1218.454, 69.503
1219.663, 63.531
1220.872, 37.561
1222.081, 43.594
1223.290, 44.671
1224.498, 41.856
1225.707, 46.928
1226.915, 45.397
1228.123, 45.448
1229.331, 44.037
1230.538, 28.086
1231.746, 22.137
1232.953, 23.189
1234.160, 32.276
1235.366, 26.332
1236.573, 4.827
1237.779, 15.723
1238.986, 4.827
1240.192, 18.271
1241.397, 40.340
1242.603, 28.493
1243.808, 34.569
1245.013, 25.647
1246.218, 24.729
1247.423, 30.010
1248.628, 31.098
1249.832, 27.188
1251.036, 43.302
1252.240, 29.399
1253.444, 37.998
1254.648, 35.101
1255.851, 59.206
1257.054, 19.319
1258.257, 40.657
1259.460, 12.769
1260.663, 10.038
1261.865, 16.153
1263.067, 12.276
1264.269, 16.146
1265.471, 13.517
1266.673, 19.636
1267.874, 13.758
1269.075, 9.883
1270.276, 0.009
1271.477, 22.137
1272.678, 32.268
1273.878, 21.400
1275.078, 9.470
1276.278, 10.661
1277.478, 10.794
1278.678, 9.922
1279.877, 33.042
1281.077, 17.163
1282.276, 6.634
1283.475, 33.488
1284.673, 6.378
1285.872, 1.256
1287.070, 21.889
1288.268, 1.988
1289.466, 34.145
1290.664, 3.742
1291.861, 2.358
1293.058, 4.453
1294.255, 13.464
1295.452, 21.604
1296.649, 24.668
1297.846, 14.732
1299.042, 7.796
1300.238, 2.143
1301.434, 7.918
1302.630, 30.978
1303.825, 5.037
1305.020, 2.092
1306.216, 41.142
1307.411, 7.191
1308.605, 39.240
1309.800, 35.277
1310.994, 12.690
1312.188, 33.337
1313.382, 14.364
1314.576, 11.387
1315.770, 15.409
1316.963, 2.430
1318.156, 16.556
1319.349, 24.451
1320.542, 25.547
1321.735, 16.445
1322.927, 1.566
1324.119, 1.580
1325.311, 16.402
1326.503, 12.382
1327.695, 15.119
1328.886, 10.331
1330.077, 15.301
1331.268, 0.733
1332.459, 4.228
1333.650, 6.186
1334.840, 18.139
1336.030, 29.088
1337.220, 1.967
1338.410, 21.975
1339.600, 13.913
1340.789, 27.153
1341.979, 25.198
1343.168, 10.715
1344.357, 5.624
1345.545, 0.470
1346.734, 5.568
1347.922, 9.672
1349.110, 11.782
1350.298, 9.546
1351.486, 8.081
1352.674, 0.024
1353.861, 0.159
1355.048, 6.704
1356.235, 9.561
1357.422, 6.415
1358.608, 16.267
1359.795, 0.884
1360.981, 14.960
1362.167, 15.801
1363.353, 13.640
1364.538, 20.476
1365.724, 7.310
1366.909, 4.136
1368.094, 10.958
1369.279, 0.214
1370.463, 6.601
1371.648, 2.459
1372.832, 13.348
1374.016, 18.153
1375.200, 41.956
1376.384, 9.739
1377.567, 16.514
1378.750, 5.722
1379.933, 1.031
1381.116, 10.128
1382.299, 1.284
1383.481, 30.440
1384.664, 9.595
1385.846, 35.748
1387.028, 30.901
1388.210, 41.050
1389.391, 7.197
1390.572, 31.342
1391.754, 37.483
1392.935, 16.623
1394.115, 31.762
1395.296, 1.899
1396.476, 32.031
1397.656, 22.166
1398.837, 20.970
1400.016, 9.098
1401.196, 41.224
1402.375, 12.115
1403.555, 32.000
1404.734, 23.084
1405.912, 25.139
1407.091, 34.112
1408.270, 25.430
1409.448, 31.528
1410.626, 28.624
1411.804, 27.619
1412.982, 46.712
1414.159, 49.803
1415.336, 51.894
1416.514, 56.287
1417.690, 48.332
1418.867, 54.133
1420.044, 36.736
1421.220, 27.477
1422.396, 36.279
1423.572, 17.062
1424.748, 39.084
1425.924, 25.106
1427.099, 38.869
1428.274, 23.886
1429.449, 30.448
1430.624, 26.459
1431.799, 20.824
1432.973, 28.388
1434.147, 28.108
1435.322, 37.971
1436.495, 48.098
1437.669, 54.942
1438.843, 66.724
1440.016, 62.474
1441.189, 28.604
1442.362, 38.387
1443.535, 31.089
1444.707, 45.589
1445.880, 39.476
1447.052, 41.185
1448.224, 63.909
1449.396, 66.565
1450.567, 43.722
1451.739, 66.520
1452.910, 58.973
1454.081, 48.568
1455.252, 45.718
1456.422, 38.386
1457.593, 39.978
1458.763, 32.074
1459.933, 45.498
1461.103, 54.367
1462.273, 59.365
1463.442, 43.686
1464.611, 47.999
1465.781, 32.284
1466.949, 24.533
1468.118, 57.739
1469.287, 12.924
1470.455, 37.082
1471.623, 69.271
1472.791, 38.182
1473.959, 40.253
1475.127, 36.249
1476.294, 33.269
1477.461, 37.409
1478.628, 20.652
1479.795, 26.931
1480.962, 22.189
1482.128, 3.422
1483.295, 28.643
1484.461, 21.877
1485.627, 15.121
1486.792, 24.415
1487.958, 45.694
1489.123, 9.958
1490.288, 40.249
1491.453, 31.559
1492.618, 1.128
1493.783, 35.183
1494.947, 5.501
1496.111, 7.829
1497.275, 52.185
1498.439, 11.575
1499.603, 30.990
1500.766, 23.420
1501.930, 19.632
1503.093, 25.089
1504.256, 7.565
1505.418, 32.068
1506.581, 17.224
1507.743, 30.615
1508.905, 3.051
1510.067, 47.484
1511.229, 1.080
1512.391, 23.347
1513.552, 48.853
1514.713, 20.289
1515.874, 28.636
1517.035, 1.713
1518.196, 9.213
1519.356, 0.000
##END=



