##NAMES=Cerussite
##RRUFFID=R060017
##IDEAL CHEMISTRY=Pb^2+^CO_3_
##LOCALITY=Gonessa, Sardinia, Italy
##OWNER=RRUFF
##SOURCE=American Museum of Natural History
##DESCRIPTION=White reticulated composite
##STATUS=The identification of this mineral has been confirmed by X-ray diffraction and chemical analysis
##URL=rruff.info/R060017
##MEASURED CHEMISTRY=Pb_1.00_CO_3_ C not measured but estimated by difference and stoichiometry
##PIN_ID=M00261
##ORIENTATION=Laser parallel to a* (1 0 0). Fiducial mark perpendicular to laser is parallel to b [0 1 0]
51.43100, 0.0000000E+00
52.67100, 111.1755
53.91000, 207.0214
55.14900, 164.8087
56.38700, 44.77905
57.62600, 16.29810
58.86400, 16.41956
60.10300, 20.85400
61.34100, 7.032227
62.57900, 23.18616
63.81700, 6.374512
65.05400, 155.5027
66.29200, 292.6887
67.52900, 531.5479
68.76700, 840.5435
70.00400, 1228.220
71.24100, 1800.179
72.47700, 2209.046
73.71400, 2552.485
74.95100, 2846.200
76.18700, 3064.936
77.42300, 3150.470
78.65900, 3438.612
79.89500, 3676.192
81.13100, 4066.062
82.36700, 4317.095
83.60200, 4754.171
84.83700, 5250.188
86.07200, 5655.051
87.30800, 6161.674
88.54200, 6600.975
89.77700, 6950.832
91.01200, 7491.103
92.24600, 7977.679
93.48000, 8380.475
94.71400, 8612.425
95.94800, 9130.470
97.18200, 9189.565
98.41600, 9613.672
99.64900, 9821.750
100.8830, 9668.776
102.1160, 9602.715
103.3490, 9626.545
104.5820, 9436.245
105.8150, 9448.796
107.0470, 8810.180
108.2800, 8491.382
109.5120, 8127.378
110.7440, 8265.156
111.9760, 8326.695
113.2080, 8703.983
114.4400, 9000.004
115.6710, 9408.751
116.9030, 9702.205
118.1340, 9892.352
119.3650, 10356.17
120.5960, 10590.66
121.8270, 11037.79
123.0580, 11513.56
124.2880, 12017.95
125.5190, 12754.81
126.7490, 12974.69
127.9790, 13453.56
129.2090, 13435.45
130.4390, 13653.44
131.6680, 13423.60
132.8980, 12999.96
134.1270, 12988.56
135.3560, 12209.44
136.5850, 11679.60
137.8140, 11059.04
139.0430, 10632.79
140.2710, 10146.91
141.5000, 9665.354
142.7280, 9406.154
143.9560, 9148.294
145.1840, 8963.795
146.4120, 8605.660
147.6390, 8425.896
148.8670, 8289.476
150.0940, 7945.418
151.3210, 7589.745
152.5490, 7369.434
153.7750, 6949.481
155.0020, 6687.939
156.2290, 6478.772
157.4550, 6196.008
158.6810, 6011.664
159.9080, 5801.682
161.1340, 5685.064
162.3590, 5523.822
163.5850, 5494.964
164.8110, 5443.469
166.0360, 5320.301
167.2610, 5451.453
168.4860, 5489.958
169.7110, 5359.773
170.9360, 5216.941
172.1610, 5289.466
173.3850, 5106.322
174.6100, 5179.575
175.8340, 5097.135
177.0580, 4879.086
178.2820, 4728.362
179.5050, 4592.929
180.7290, 4405.645
181.9520, 4276.895
183.1760, 4079.425
184.3990, 4000.148
185.6220, 3847.131
186.8450, 3723.371
188.0670, 3648.875
189.2900, 3666.656
190.5120, 3451.743
191.7340, 3460.099
192.9560, 3246.703
194.1780, 3309.547
195.4000, 3225.634
196.6220, 3292.958
197.8430, 3233.517
199.0640, 3092.507
200.2860, 2929.967
201.5070, 2993.952
202.7270, 2757.576
203.9480, 2599.908
205.1690, 2637.462
206.3890, 2615.438
207.6090, 2620.543
208.8290, 2496.645
210.0490, 2428.230
211.2690, 2430.611
212.4890, 2409.616
213.7080, 2272.168
214.9280, 2250.236
216.1470, 2355.492
217.3660, 2155.745
218.5850, 2211.234
219.8030, 2040.553
221.0220, 2072.923
222.2400, 2028.700
223.4590, 1949.868
224.6770, 2073.963
225.8950, 2048.867
227.1120, 1956.791
228.3300, 2063.253
229.5480, 1897.182
230.7650, 1965.475
231.9820, 1890.216
233.1990, 1835.238
234.4160, 1828.405
235.6330, 1815.762
236.8490, 1796.794
238.0660, 1854.891
239.2820, 1797.190
240.4980, 1818.434
241.7140, 1846.338
242.9300, 1685.706
244.1460, 1797.062
245.3610, 1678.470
246.5770, 1572.922
247.7920, 1564.943
249.0070, 1463.215
250.2220, 1477.075
251.4370, 1294.702
252.6510, 1375.680
253.8660, 1300.871
255.0800, 1302.927
256.2940, 1334.905
257.5080, 1233.171
258.7220, 1230.336
259.9360, 1082.668
261.1490, 1106.154
262.3630, 1042.168
263.5760, 888.5605
264.7890, 1037.035
266.0020, 984.7891
267.2150, 998.9893
268.4270, 845.3564
269.6400, 776.5254
270.8520, 850.0439
272.0640, 804.2109
273.2760, 855.4287
274.4880, 782.5186
275.7000, 837.5166
276.9120, 686.5898
278.1230, 708.5264
279.3340, 717.8799
280.5450, 658.8203
281.7560, 644.2666
282.9670, 634.4023
284.1780, 610.9873
285.3880, 606.5781
286.5980, 577.3281
287.8090, 558.3438
289.0190, 516.5459
290.2290, 455.8721
291.4380, 621.9473
292.6480, 417.9600
293.8570, 533.0557
295.0670, 518.4277
296.2760, 418.4355
297.4850, 442.6074
298.6930, 493.2900
299.9020, 443.3760
301.1110, 430.4062
302.3190, 446.1436
303.5270, 527.8184
304.7350, 404.2012
305.9430, 348.3652
307.1510, 218.5684
308.3580, 355.3486
309.5660, 283.6289
310.7730, 448.0605
311.9800, 281.2236
313.1870, 337.1982
314.3940, 307.6133
315.6010, 373.1426
316.8070, 327.8066
318.0130, 195.5996
319.2200, 335.5029
320.4260, 274.6729
321.6310, 202.8193
322.8370, 372.3086
324.0430, 294.6797
325.2480, 175.6953
326.4540, 180.5068
327.6590, 115.1992
328.8640, 87.01855
330.0680, 220.1250
331.2730, 92.70508
332.4780, 148.8174
333.6820, 244.0283
334.8860, 39.33887
336.0900, 193.7461
337.2940, 227.7598
338.4980, 289.3584
339.7010, 213.0527
340.9050, 203.8389
342.1080, 102.0918
343.3110, 2.938477
344.5140, 166.1924
345.7170, 116.4873
346.9200, 64.59668
348.1220, 9.159180
349.3240, 181.7412
350.5270, 158.7070
351.7290, 3.237305
352.9310, 161.0352
354.1320, 35.45508
355.3340, 124.8301
356.5350, 109.0869
357.7370, 24.15723
358.9380, 77.13477
360.1390, 52.42480
361.3400, 77.19238
362.5400, 56.65039
363.7410, 32.72168
364.9410, 149.4590
366.1410, 142.4600
367.3410, 68.05078
368.5410, 39.99707
369.7410, 17.56738
370.9400, 150.7568
372.1400, 52.46973
373.3390, 61.00000
374.5380, 0.5332030
375.7370, 97.93457
376.9360, 10.26855
378.1350, 12.50000
379.3330, 69.73730
380.5310, 2.641602
381.7300, 109.2979
382.9280, 14.56250
384.1260, 72.09180
385.3230, 60.77930
386.5210, 43.71289
387.7180, 1.443359
388.9160, 37.95215
390.1130, 29.07812
391.3100, 73.04688
392.5060, 71.67871
393.7030, 13.49707
394.9000, 65.45605
396.0960, 11.47559
397.2920, 57.59277
398.4880, 110.1660
399.6840, 127.2900
400.8800, 18.75586
402.0750, 36.29688
403.2710, 175.2012
404.4660, 29.01758
405.6610, 92.35352
406.8560, 119.5811
408.0510, 64.73926
409.2450, 38.97559
410.4400, 15.78125
411.6340, 42.88672
412.8280, 58.04688
414.0220, 61.31934
415.2160, 45.97168
416.4100, 90.91602
417.6030, 31.82129
418.7970, 49.72656
419.9900, 45.48242
421.1830, 75.77051
422.3760, 14.38770
423.5690, 2.588867
424.7610, 74.91992
425.9540, 64.56348
427.1460, 16.13574
428.3380, 79.37598
429.5300, 12.04004
430.7220, 39.37207
431.9140, 61.08789
433.1050, 11.70801
434.2970, 68.78809
435.4880, 7.021484
436.6790, 53.34668
437.8700, 164.6309
439.0610, 25.17480
440.2510, 26.67188
441.4420, 106.5635
442.6320, 118.8252
443.8220, 112.8916
445.0120, 34.63770
446.2020, 43.85254
447.3910, 209.1309
448.5810, 12.43457
449.7700, 8.774414
450.9600, 134.3330
452.1490, 22.16797
453.3370, 23.35059
454.5260, 92.98242
455.7150, 19.24023
456.9030, 88.53223
458.0910, 197.3027
459.2800, 92.16699
460.4670, 95.23535
461.6550, 213.3799
462.8430, 88.47168
464.0300, 123.0039
465.2180, 47.53711
466.4050, 156.1309
467.5920, 5.233398
468.7790, 17.25488
469.9650, 153.3838
471.1520, 29.49219
472.3380, 118.1826
473.5250, 85.90820
474.7110, 251.7061
475.8970, 177.4883
477.0820, 164.3027
478.2680, 198.1475
479.4540, 100.0361
480.6390, 191.9521
481.8240, 141.8994
483.0090, 227.8750
484.1940, 115.8818
485.3780, 204.9141
486.5630, 218.9346
487.7470, 195.0381
488.9320, 110.2012
490.1160, 77.49219
491.3000, 37.59082
492.4830, 238.9658
493.6670, 108.1533
494.8500, 184.3037
496.0340, 197.5371
497.2170, 119.7910
498.4000, 134.0615
499.5820, 155.3457
500.7650, 201.6504
501.9480, 152.9707
503.1300, 211.6133
504.3120, 146.7461
505.4940, 119.1055
506.6760, 13.92188
507.8580, 117.3994
509.0390, 142.7246
510.2210, 256.0547
511.4020, 159.8418
512.5830, 115.9336
513.7640, 197.6191
514.9450, 189.1875
516.1250, 233.5615
517.3060, 73.24023
518.4860, 253.6758
519.6660, 247.9092
520.8460, 79.60645
522.0260, 176.5420
523.2060, 230.1299
524.3850, 85.74609
525.5650, 204.2871
526.7440, 299.0908
527.9230, 208.2559
529.1020, 197.6367
530.2810, 221.9805
531.4590, 145.5186
532.6380, 76.24707
533.8160, 79.85840
534.9940, 170.9766
536.1720, 82.95996
537.3500, 163.3877
538.5270, 249.6787
539.7050, 230.9717
540.8820, 133.6113
542.0590, 61.52734
543.2360, 111.7744
544.4130, 160.0010
545.5900, 126.2012
546.7660, 173.7432
547.9430, 129.1299
549.1190, 200.7490
550.2950, 215.4668
551.4710, 184.0859
552.6470, 215.4316
553.8220, 263.7812
554.9980, 255.4990
556.1730, 200.0342
557.3480, 217.0840
558.5230, 101.2471
559.6980, 102.9678
560.8730, 88.55664
562.0470, 107.7051
563.2220, 119.0391
564.3960, 115.1074
565.5700, 295.1670
566.7440, 214.7305
567.9170, 150.2773
569.0910, 147.9131
570.2640, 19.40527
571.4380, 240.8936
572.6110, 48.07812
573.7840, 164.9014
574.9570, 32.05371
576.1290, 215.4814
577.3020, 173.2197
578.4740, 133.4238
579.6460, 159.4043
580.8180, 264.4346
581.9900, 388.5635
583.1620, 108.4561
584.3330, 308.7695
585.5040, 160.5742
586.6760, 195.1816
587.8470, 193.5430
589.0180, 183.2295
590.1880, 165.2588
591.3590, 245.4131
592.5290, 156.0654
593.7000, 250.7031
594.8700, 176.3496
596.0400, 243.6475
597.2090, 243.4033
598.3790, 176.0654
599.5490, 172.6504
600.7180, 35.23535
601.8870, 157.9209
603.0560, 37.43262
604.2250, 479.2979
605.3940, 140.7578
606.5620, 285.3389
607.7300, 304.9893
608.8990, 189.9297
610.0670, 290.1533
611.2350, 113.7344
612.4020, 280.1562
613.5700, 306.5957
614.7370, 230.3711
615.9050, 254.7051
617.0720, 407.0254
618.2390, 456.5059
619.4060, 392.7383
620.5720, 388.3848
621.7390, 337.9180
622.9050, 394.1758
624.0710, 386.1377
625.2370, 440.2100
626.4030, 409.6309
627.5690, 477.1201
628.7340, 247.6992
629.9000, 224.3057
631.0650, 248.9521
632.2300, 206.4531
633.3950, 262.7500
634.5600, 355.2725
635.7240, 478.8643
636.8890, 365.4746
638.0530, 315.8594
639.2170, 410.8555
640.3810, 452.6045
641.5450, 302.7471
642.7080, 338.4834
643.8720, 403.5127
645.0350, 384.0244
646.1980, 488.8623
647.3610, 467.0596
648.5240, 306.6279
649.6870, 418.0312
650.8490, 305.9922
652.0120, 159.9590
653.1740, 267.4082
654.3360, 225.9551
655.4980, 281.9688
656.6600, 117.8877
657.8210, 202.8418
658.9830, 254.8877
660.1440, 195.8682
661.3050, 230.9902
662.4660, 202.4209
663.6270, 293.2227
664.7870, 208.3838
665.9480, 216.0811
667.1080, 209.6934
668.2680, 304.3906
669.4280, 346.9258
670.5880, 350.9863
671.7480, 419.5283
672.9070, 503.9961
674.0670, 349.5908
675.2260, 399.6367
676.3850, 609.2920
677.5440, 387.1172
678.7030, 444.8291
679.8610, 332.5010
681.0200, 424.5889
682.1780, 394.5527
683.3360, 408.0879
684.4940, 311.7275
685.6520, 508.7207
686.8090, 145.7109
687.9670, 358.7949
689.1240, 221.2695
690.2810, 388.8730
691.4380, 270.0977
692.5950, 409.6758
693.7520, 436.3594
694.9080, 287.0400
696.0650, 349.4639
697.2210, 366.0645
698.3770, 175.6621
699.5330, 111.3047
700.6880, 159.5957
701.8440, 170.3965
702.9990, 169.4180
704.1550, 120.3486
705.3100, 134.9668
706.4650, 246.4541
707.6190, 180.0625
708.7740, 46.62695
709.9290, 208.0781
711.0830, 217.6484
712.2370, 37.55371
713.3910, 218.3828
714.5450, 86.70801
715.6980, 220.1611
716.8520, 133.1367
718.0050, 52.45410
719.1580, 128.6660
720.3110, 221.8076
721.4640, 163.2744
722.6170, 20.05859
723.7700, 161.5186
724.9220, 22.61133
726.0740, 173.5908
727.2260, 225.7617
728.3780, 244.8135
729.5300, 183.6611
730.6810, 197.6953
731.8330, 128.8145
732.9840, 123.2207
734.1350, 90.20312
735.2860, 11.58594
736.4370, 57.95215
737.5880, 312.8633
738.7380, 184.7119
739.8880, 148.4795
741.0390, 231.1045
742.1890, 97.81250
743.3380, 343.1045
744.4880, 115.4229
745.6380, 34.87598
746.7870, 168.1328
747.9360, 47.05664
749.0850, 136.3242
750.2340, 29.57324
751.3830, 155.9287
752.5310, 289.1660
753.6800, 202.3486
754.8280, 184.5732
755.9760, 137.7881
757.1240, 26.00781
758.2720, 53.16309
759.4190, 119.3223
760.5670, 208.4697
761.7140, 63.61035
762.8610, 124.7383
764.0080, 50.14258
765.1550, 113.0107
766.3020, 100.0771
767.4480, 14.89844
768.5950, 150.5039
769.7410, 89.51172
770.8870, 133.3379
772.0330, 8.365234
773.1780, 0.5244140
774.3240, 79.06641
775.4690, 21.76855
776.6140, 83.39062
777.7590, 36.09180
778.9040, 146.2607
780.0490, 160.2021
781.1940, 166.1387
782.3380, 236.0674
783.4820, 250.9951
784.6260, 51.18750
785.7700, 292.1309
786.9140, 115.1914
788.0580, 229.0791
789.2010, 73.01074
790.3450, 163.1953
791.4880, 56.12109
792.6310, 9.895508
793.7730, 209.7949
794.9160, 148.3486
796.0590, 9.884766
797.2010, 141.7705
798.3430, 128.3398
799.4850, 294.1992
800.6270, 20.93848
801.7690, 149.8086
802.9100, 197.5078
804.0520, 31.26465
805.1930, 220.9521
806.3340, 252.8086
807.4750, 85.66211
808.6160, 163.7285
809.7560, 163.8672
810.8970, 234.7246
812.0370, 236.7559
813.1770, 262.6230
814.3170, 279.1680
815.4570, 309.5879
816.5960, 304.9629
817.7360, 307.4629
818.8750, 347.7031
820.0140, 353.8066
821.1530, 373.6973
822.2920, 472.5859
823.4310, 518.4824
824.5690, 698.8066
825.7070, 737.7051
826.8460, 909.9453
827.9840, 1279.836
829.1220, 1509.750
830.2590, 2182.771
831.3970, 2553.650
832.5340, 3124.531
833.6710, 3576.406
834.8080, 3930.281
835.9450, 4166.883
837.0820, 3990.871
838.2190, 3460.387
839.3550, 2449.008
840.4910, 1486.639
841.6270, 1084.848
842.7630, 623.0645
843.8990, 513.9824
845.0350, 477.7246
846.1700, 246.9277
847.3060, 297.8535
848.4410, 434.7793
849.5760, 517.0215
850.7100, 241.9590
851.8450, 426.0137
852.9800, 380.9629
854.1140, 301.5000
855.2480, 403.2715
856.3820, 364.4023
857.5160, 494.3535
858.6500, 246.1562
859.7830, 415.2715
860.9170, 316.0801
862.0500, 337.5059
863.1830, 249.3652
864.3160, 219.3145
865.4480, 343.2637
866.5810, 290.1719
867.7130, 358.1211
868.8460, 254.7031
869.9780, 142.2402
871.1100, 138.5059
872.2410, 146.6172
873.3730, 216.4922
874.5050, 177.4375
875.6360, 83.35547
876.7670, 277.1484
877.8980, 206.1191
879.0290, 185.5723
880.1590, 242.5547
881.2900, 60.17188
882.4200, 206.9336
883.5500, 234.8574
884.6800, 107.8047
885.8100, 10.61523
886.9400, 71.37695
888.0690, 206.2812
889.1990, 130.2930
890.3280, 156.3027
891.4570, 131.3105
892.5860, 176.1465
893.7140, 159.2383
894.8430, 188.4688
895.9710, 198.1699
897.1000, 224.2012
898.2280, 185.5391
899.3560, 147.3770
900.4830, 66.22852
901.6110, 193.9961
902.7380, 105.6602
903.8660, 5.365234
904.9930, 106.5859
906.1200, 250.1777
907.2460, 137.0645
908.3730, 55.77734
909.5000, 10.65820
910.6260, 20.25195
911.7520, 28.11133
912.8780, 49.37891
914.0040, 22.51953
915.1290, 136.4766
916.2550, 168.5020
917.3800, 118.5566
918.5050, 217.6211
919.6300, 8.687500
920.7550, 106.0605
921.8800, 43.12695
923.0040, 111.0176
924.1290, 121.0098
925.2530, 163.5176
926.3770, 125.5273
927.5010, 79.08984
928.6250, 124.7207
929.7480, 110.7383
930.8720, 22.29492
931.9950, 217.6230
933.1180, 108.6211
934.2410, 88.58398
935.3640, 41.72461
936.4860, 180.8926
937.6090, 118.9766
938.7310, 178.1191
939.8530, 228.4570
940.9750, 100.6035
942.0970, 242.7559
943.2180, 8.585938
944.3400, 53.24023
945.4610, 182.9199
946.5820, 21.08008
947.7030, 256.2383
948.8240, 45.40039
949.9450, 22.56250
951.0650, 72.27539
952.1860, 108.8535
953.3060, 204.9824
954.4260, 5.109375
955.5460, 100.2383
956.6650, 96.36719
957.7850, 59.49414
958.9040, 256.6191
960.0230, 217.7500
961.1420, 6.121094
962.2610, 334.0020
963.3800, 48.12891
964.4990, 22.25195
965.6170, 184.3867
966.7350, 203.8535
967.8530, 176.9824
968.9710, 113.1133
970.0890, 167.6230
971.2070, 157.3984
972.3240, 217.5430
973.4410, 165.6914
974.5580, 136.8379
975.6750, 93.98438
976.7920, 44.86523
977.9090, 45.26758
979.0250, 192.4844
980.1410, 265.6289
981.2580, 202.7832
982.3740, 278.9316
983.4890, 156.0820
984.6050, 96.23828
985.7200, 166.3906
986.8360, 79.54883
987.9510, 115.7031
989.0660, 12.85742
990.1810, 33.62695
991.2950, 78.29102
992.4100, 64.49023
993.5240, 191.7559
994.6390, 247.0234
995.7530, 277.2988
996.8660, 265.5898
997.9800, 335.8887
999.0940, 382.9746
1000.207, 320.5547
1001.320, 455.8730
1002.433, 355.1641
1003.546, 229.4570
1004.659, 246.7480
1005.772, 344.0391
1006.884, 193.3359
1007.996, 163.6348
1009.108, 315.9336
1010.220, 205.1367
1011.332, 374.2539
1012.444, 107.5488
1013.555, 244.8555
1014.666, 239.1465
1015.777, 194.2559
1016.888, 71.54688
1017.999, 145.7969
1019.110, 209.2832
1020.220, 255.0801
1021.331, 249.2598
1022.441, 300.7520
1023.551, 334.3867
1024.661, 369.0762
1025.770, 406.3535
1026.880, 474.7910
1027.989, 485.0723
1029.098, 468.3574
1030.207, 511.3203
1031.316, 464.9766
1032.425, 604.3633
1033.533, 383.6367
1034.642, 362.8438
1035.750, 351.1270
1036.858, 506.4062
1037.966, 413.2441
1039.073, 718.5234
1040.181, 566.8027
1041.288, 1012.076
1042.396, 1517.252
1043.503, 2087.939
1044.610, 4239.818
1045.716, 8616.795
1046.823, 17321.96
1047.929, 22849.11
1049.036, 26900.79
1050.142, 35771.05
1051.248, 41812.30
1052.353, 44910.55
1053.459, 42982.95
1054.564, 34987.20
1055.670, 22174.44
1056.775, 10342.27
1057.880, 4345.496
1058.985, 2115.719
1060.089, 1115.938
1061.194, 810.2227
1062.298, 662.8594
1063.402, 543.7168
1064.506, 426.4434
1065.610, 393.0801
1066.713, 313.5684
1067.817, 362.2656
1068.920, 302.3555
1070.023, 284.5352
1071.126, 301.7109
1072.229, 275.2754
1073.332, 367.4395
1074.435, 355.2520
1075.537, 379.4004
1076.639, 373.3945
1077.741, 185.8477
1078.843, 219.9746
1079.945, 262.9375
1081.046, 101.6582
1082.148, 269.7012
1083.249, 311.6445
1084.350, 360.2305
1085.451, 362.3086
1086.551, 320.3789
1087.652, 151.2246
1088.752, 264.2793
1089.853, 135.3301
1090.953, 246.3691
1092.053, 269.4004
1093.152, 194.4258
1094.252, 105.0938
1095.351, 252.1035
1096.451, 135.0801
1097.550, 166.3477
1098.649, 21.33398
1099.748, 296.3105
1100.846, 250.2773
1101.945, 364.6230
1103.043, 143.5742
1104.141, 325.5137
1105.239, 389.4473
1106.337, 319.3730
1107.434, 372.2910
1108.532, 333.2012
1109.629, 186.2402
1110.726, 52.11133
1111.823, 136.8086
1112.920, 328.6855
1114.017, 367.5527
1115.113, 257.4102
1116.210, 623.2637
1117.306, 650.1035
1118.402, 304.9375
1119.498, 579.7617
1120.593, 340.5781
1121.689, 476.2441
1122.784, 617.0488
1123.879, 397.2109
1124.974, 81.40820
1126.069, 354.1797
1127.164, 161.6191
1128.259, 257.7168
1129.353, 185.6523
1130.447, 182.3867
1131.541, 66.11133
1132.635, 77.82617
1133.729, 137.5293
1134.822, 162.2246
1135.916, 167.9102
1137.009, 171.3262
1138.102, 225.2500
1139.195, 129.9062
1140.288, 124.5547
1141.380, 93.19141
1142.473, 0.8183590
1143.565, 148.4199
1144.657, 73.01172
1145.749, 104.5938
1146.841, 182.1680
1147.932, 104.7324
1149.024, 15.28516
1150.115, 22.17969
1151.206, 15.31836
1152.297, 117.7988
1153.388, 14.27148
1154.479, 100.7266
1155.569, 138.1680
1156.659, 159.6055
1157.750, 38.96680
1158.839, 110.4141
1159.929, 172.7852
1161.019, 79.85156
1162.108, 25.44336
1163.198, 37.72461
1164.287, 95.99805
1165.376, 104.2637
1166.465, 67.51758
1167.553, 164.7656
1168.642, 47.00586
1169.730, 199.2363
1170.818, 220.4590
1171.906, 76.67578
1172.994, 229.8809
1174.082, 53.08008
1175.170, 0.7265630
1176.257, 70.55273
1177.344, 105.5684
1178.431, 28.68164
1179.518, 1.214844
1180.605, 133.8691
1181.691, 70.94531
1182.778, 160.0137
1183.864, 15.07422
1184.950, 119.1230
1186.036, 22.16602
1187.122, 21.80273
1188.207, 81.22656
1189.292, 222.2500
1190.378, 107.2656
1191.463, 69.27344
1192.548, 53.70898
1193.632, 73.73633
1194.717, 95.96875
1195.801, 97.62500
1196.886, 33.17969
1197.970, 57.42773
1199.054, 105.2773
1200.137, 75.97852
1201.221, 136.6719
1202.305, 6.361328
1203.388, 109.0391
1204.471, 0.7089840
1205.554, 96.36719
1206.637, 70.98242
1207.719, 16.37891
1208.802, 175.2109
1209.884, 14.79883
1210.966, 1.619141
1212.048, 138.9473
1213.130, 29.51172
1214.212, 161.0723
1215.293, 186.6426
1216.374, 103.2051
1217.456, 120.7676
1218.536, 54.32422
1219.617, 184.8770
1220.698, 162.4258
1221.778, 269.9707
1222.859, 282.5098
1223.939, 240.0469
1225.019, 96.58008
1226.099, 240.1113
1227.178, 40.36328
1228.258, 50.13672
1229.337, 16.30273
1230.417, 51.79688
1231.496, 42.71289
1232.574, 127.7559
1233.653, 228.2168
1234.732, 125.6777
1235.810, 226.1348
1236.888, 218.5938
1237.966, 125.0449
1239.044, 7.496094
1240.122, 78.95508
1241.199, 55.67188
1242.277, 130.7578
1243.354, 166.1836
1244.431, 216.6113
1245.508, 164.0371
1246.585, 166.4590
1247.661, 88.88477
1248.738, 268.3066
1249.814, 211.7266
1250.890, 220.1484
1251.966, 146.4297
1253.042, 36.07617
1254.117, 105.7402
1255.193, 133.5430
1256.268, 44.16602
1257.343, 12.89062
1258.418, 55.61914
1259.493, 225.6328
1260.567, 243.8848
1261.642, 214.0645
1262.716, 364.2969
1263.790, 164.5547
1264.864, 302.8125
1265.938, 170.0723
1267.011, 237.3379
1268.085, 59.60156
1269.158, 48.86914
1270.231, 102.1406
1271.304, 41.41211
1272.377, 76.20703
1273.450, 27.14453
1274.522, 93.41211
1275.594, 27.71094
1276.666, 8.009766
1277.738, 224.3145
1278.810, 143.6602
1279.882, 94.77734
1280.953, 232.1562
1282.025, 57.48047
1283.096, 258.8457
1284.167, 91.18164
1285.238, 147.5234
1286.308, 131.8750
1287.379, 183.0645
1288.449, 172.9004
1289.519, 98.79883
1290.589, 155.4941
1291.659, 88.50586
1292.729, 85.79297
1293.798, 123.6719
1294.868, 202.6191
1295.937, 172.0469
1297.006, 197.4863
1298.075, 189.8789
1299.143, 207.3359
1300.212, 183.8027
1301.280, 218.2812
1302.348, 162.6914
1303.416, 195.3418
1304.484, 129.2988
1305.552, 199.9883
1306.620, 348.5254
1307.687, 311.9805
1308.754, 377.1270
1309.821, 49.70703
1310.888, 385.3203
1311.955, 245.9492
1313.021, 250.1680
1314.088, 338.8262
1315.154, 555.3750
1316.220, 375.5215
1317.286, 541.2305
1318.352, 474.9492
1319.417, 469.6816
1320.483, 347.4297
1321.548, 302.7695
1322.613, 275.3691
1323.678, 251.6465
1324.743, 233.3398
1325.807, 282.1191
1326.872, 285.4199
1327.936, 225.2324
1329.000, 298.0566
1330.064, 332.8926
1331.128, 132.3379
1332.191, 60.19531
1333.255, 277.4082
1334.318, 218.2871
1335.381, 307.1074
1336.444, 314.4043
1337.507, 367.3223
1338.569, 347.2480
1339.632, 84.58398
1340.694, 424.5391
1341.756, 250.5117
1342.818, 125.4961
1343.880, 325.4961
1344.941, 567.5117
1346.003, 290.5391
1347.064, 412.5840
1348.125, 451.6445
1349.186, 362.7207
1350.247, 657.8125
1351.308, 753.9199
1352.368, 540.0449
1353.428, 659.1895
1354.489, 911.3496
1355.549, 953.1211
1356.608, 1117.320
1357.668, 1077.539
1358.727, 1073.777
1359.787, 1308.646
1360.846, 1381.924
1361.905, 1457.602
1362.964, 1512.539
1364.022, 1589.877
1365.081, 1673.238
1366.139, 1702.619
1367.197, 1841.912
1368.255, 1915.445
1369.313, 2144.078
1370.371, 2200.549
1371.428, 2450.043
1372.486, 2480.555
1373.543, 2578.092
1374.600, 2797.652
1375.657, 2494.238
1376.713, 2514.846
1377.770, 2357.477
1378.826, 2018.135
1379.882, 1748.752
1380.938, 1534.082
1381.994, 1290.398
1383.050, 1117.154
1384.106, 1091.260
1385.161, 912.7227
1386.216, 862.3613
1387.271, 539.2168
1388.326, 658.1035
1389.381, 523.0176
1390.435, 393.9551
1391.490, 392.9258
1392.544, 393.9238
1393.598, 363.9512
1394.652, 327.0098
1395.705, 449.0977
1396.759, 283.2188
1397.812, 245.3691
1398.866, 252.5527
1399.919, 405.7793
1400.972, 342.0371
1402.024, 464.2969
1403.077, 529.6250
1404.129, 458.9883
1405.181, 437.3867
1406.233, 442.8281
1407.285, 406.3203
1408.337, 594.8555
1409.389, 713.4277
1410.440, 586.0469
1411.491, 646.7012
1412.542, 616.3984
1413.593, 692.1387
1414.644, 813.9395
1415.695, 680.7832
1416.745, 686.7148
1417.795, 661.6758
1418.845, 847.6895
1419.895, 777.7520
1420.945, 869.8633
1421.995, 924.0254
1423.044, 963.2383
1424.093, 737.5059
1425.142, 953.7793
1426.191, 925.1074
1427.240, 808.4922
1428.289, 908.9336
1429.337, 833.4336
1430.385, 1180.998
1431.433, 875.6309
1432.481, 1124.445
1433.529, 986.1973
1434.577, 1085.012
1435.624, 1227.371
1436.672, 1247.730
1437.719, 1346.770
1438.766, 1460.887
1439.812, 1304.090
1440.859, 1510.627
1441.905, 1680.963
1442.952, 1696.906
1443.998, 1604.803
1445.044, 1957.498
1446.090, 1808.074
1447.135, 2000.576
1448.181, 2102.963
1449.226, 2264.498
1450.271, 2539.141
1451.316, 2410.844
1452.361, 2668.584
1453.405, 2790.363
1454.450, 2675.211
1455.494, 3185.135
1456.538, 3218.102
1457.582, 3325.113
1458.626, 3325.164
1459.670, 3518.924
1460.713, 3617.383
1461.757, 3854.555
1462.800, 4148.768
1463.843, 4231.023
1464.886, 4433.352
1465.928, 4778.717
1466.971, 4574.154
1468.013, 4934.637
1469.055, 4688.162
1470.097, 5066.734
1471.139, 5031.371
1472.181, 5164.070
1473.222, 5121.812
1474.263, 5360.605
1475.305, 5347.443
1476.346, 5278.379
1477.386, 5116.457
1478.427, 4987.633
1479.468, 4774.889
1480.508, 4616.867
1481.548, 4486.602
1482.588, 4292.041
1483.628, 4123.537
1484.668, 4045.088
1485.707, 3639.697
1486.747, 3337.363
1487.786, 3302.059
1488.825, 2866.814
1489.864, 2715.623
1490.902, 2419.492
1491.941, 2302.414
1492.979, 2110.393
1494.017, 1721.426
1495.055, 1698.498
1496.093, 1607.623
1497.131, 1253.797
1498.168, 1151.023
1499.206, 1036.297
1500.243, 1172.619
1501.280, 982.9883
1502.317, 859.4023
1503.354, 751.8594
1504.390, 716.3105
1505.426, 830.7617
1506.463, 422.2422
1507.499, 623.7500
1508.535, 493.2988
1509.570, 404.9023
1510.606, 470.5957
1511.641, 464.3945
1512.676, 510.2949
1513.711, 459.3047
1514.746, 301.4160
1515.781, 403.6367
1516.816, 360.9727
1517.850, 382.4199
1518.884, 138.9805
1519.918, 255.6641
1520.952, 223.4648
1521.986, 229.3887
1523.019, 262.4375
1524.053, 64.61328
1525.086, 207.9160
1526.119, 83.65430
1527.152, 187.8984
1528.185, 106.5840
1529.217, 202.4023
1530.250, 258.3574
1531.282, 163.4590
1532.314, 68.70508
1533.346, 209.1035
1534.377, 129.6621
1535.409, 293.3867
1536.440, 258.2871
1537.472, 300.3711
1538.503, 124.6543
1539.534, 115.1543
1540.564, 41.11133
1541.595, 454.8672
1542.625, 215.1035
1543.656, 226.6074
1544.686, 43.38867
1545.716, 125.4668
1546.745, 189.8496
1547.775, 302.5508
1548.804, 203.6699
1549.834, 73.54297
1550.863, 132.7461
1551.892, 537.3047
1552.920, 355.2324
1553.949, 177.5547
1554.977, 389.2949
1556.006, 17.88867
1557.034, 215.8887
1558.062, 478.2617
1559.089, 22.98633
1560.117, 42.41211
1561.144, 490.2715
1562.172, 124.6484
1563.199, 215.5098
1564.226, 98.14648
1565.252, 225.9531
1566.279, 283.5176
1567.305, 159.9629
1568.332, 295.7363
1569.358, 98.58203
1570.384, 0.0000000E+00
##END=



