##NAMES=Cerussite
##RRUFFID=R050174
##IDEAL CHEMISTRY=Pb^2+^CO_3_
##LOCALITY=Tsumeb mine, Tsumeb, Otavi District, Oshikoto, Namibia
##OWNER=RRUFF
##SOURCE=Marcus Origlieri
##DESCRIPTION=Colorless single crystal
##STATUS=The identification of this mineral has been confirmed by X-ray diffraction and chemical analysis
##URL=rruff.info/R050174
##MEASURED CHEMISTRY=Pb_1.00_CO_3_ ; C not measured but estimated by difference and stoichiometry
##PIN_ID=L01652
##ORIENTATION=Laser parallel to -b* (0 -1 0). Fiducial mark perpendicular to laser is parallel to c [0 0 1]
51.43100, 0.0000000E+00
52.67100, 33.27899
53.91000, 36.74109
55.14900, 58.95544
56.38700, 9.962006
57.62600, 23.01477
58.86400, 6.667480
60.10300, 22.03217
61.34100, 41.04059
62.57900, 187.2065
63.81700, 352.9113
65.05400, 692.6995
66.29200, 1044.195
67.52900, 1497.084
68.76700, 2053.108
70.00400, 2648.049
71.24100, 3348.724
72.47700, 4260.967
73.71400, 5073.630
74.95100, 5972.583
76.18700, 6415.711
77.42300, 6300.921
78.65900, 5924.125
79.89500, 5518.246
81.13100, 4941.217
82.36700, 4606.974
83.60200, 4222.470
84.83700, 3897.656
86.07200, 3718.497
87.30800, 3598.966
88.54200, 3422.036
89.77700, 3346.661
91.01200, 3262.786
92.24600, 3248.372
93.48000, 3203.386
94.71400, 3197.798
95.94800, 3124.586
97.18200, 3115.729
98.41600, 3247.210
99.64900, 3327.014
100.8830, 3327.125
102.1160, 3616.530
103.3490, 3792.216
104.5820, 3853.172
105.8150, 3788.385
107.0470, 3569.844
108.2800, 3337.539
109.5120, 2818.457
110.7440, 2480.591
111.9760, 2063.929
113.2080, 1897.464
114.4400, 1696.192
115.6710, 1652.151
116.9030, 1554.339
118.1340, 1494.706
119.3650, 1502.273
120.5960, 1637.091
121.8270, 1672.190
123.0580, 1712.524
124.2880, 1942.083
125.5190, 2001.819
126.7490, 2248.520
127.9790, 2389.195
129.2090, 2568.841
130.4390, 2907.532
131.6680, 3121.266
132.8980, 3218.061
134.1270, 3382.896
135.3560, 3305.775
136.5850, 3167.719
137.8140, 2918.736
139.0430, 2574.840
140.2710, 2397.017
141.5000, 2120.284
142.7280, 1956.621
143.9560, 1783.030
145.1840, 1644.596
146.4120, 1545.113
147.6390, 1470.790
148.8670, 1387.539
150.0940, 1309.813
151.3210, 1241.032
152.5490, 1173.253
153.7750, 1110.297
155.0020, 1063.414
156.2290, 1010.592
157.4550, 901.8384
158.6810, 810.1479
159.9080, 774.5149
161.1340, 731.9316
162.3590, 685.3932
163.5850, 668.1136
164.8110, 629.5031
166.0360, 630.0414
167.2610, 585.6768
168.4860, 559.3514
169.7110, 564.0630
170.9360, 554.8108
172.1610, 535.5940
173.3850, 525.4114
174.6100, 599.2627
175.8340, 585.1733
177.0580, 619.1733
178.2820, 613.5104
179.5050, 627.0653
180.7290, 676.6261
181.9520, 698.9792
183.1760, 683.2168
184.3990, 672.1082
185.6220, 712.4084
186.8450, 757.3751
188.0670, 764.3391
189.2900, 847.5520
190.5120, 893.6145
191.7340, 930.8654
192.9560, 1034.623
194.1780, 1135.961
195.4000, 1140.395
196.6220, 1274.675
197.8430, 1319.977
199.0640, 1487.405
200.2860, 1485.575
201.5070, 1631.505
202.7270, 1794.720
203.9480, 1880.201
205.1690, 2017.460
206.3890, 2167.480
207.6090, 2237.096
208.8290, 2363.908
210.0490, 2548.726
211.2690, 2614.418
212.4890, 2674.555
213.7080, 2850.416
214.9280, 2969.850
216.1470, 2948.381
217.3660, 2941.044
218.5850, 2771.229
219.8030, 2667.860
221.0220, 2426.053
222.2400, 2228.014
223.4590, 1940.213
224.6770, 1821.603
225.8950, 1559.999
227.1120, 1495.599
228.3300, 1303.859
229.5480, 1137.817
230.7650, 1114.273
231.9820, 1029.400
233.1990, 937.7239
234.4160, 901.0536
235.6330, 793.9014
236.8490, 755.8403
238.0660, 740.1289
239.2820, 704.1072
240.4980, 664.4440
241.7140, 616.5410
242.9300, 579.0059
244.1460, 556.6320
245.3610, 513.4626
246.5770, 490.9152
247.7920, 431.6685
249.0070, 405.5424
250.2220, 416.3909
251.4370, 384.3431
252.6510, 329.7796
253.8660, 337.1128
255.0800, 312.1846
256.2940, 288.8467
257.5080, 249.3182
258.7220, 240.3278
259.9360, 231.9039
261.1490, 191.5861
262.3630, 187.3342
263.5760, 199.3972
264.7890, 183.8425
266.0020, 196.9025
267.2150, 132.9363
268.4270, 150.7957
269.6400, 151.7244
270.8520, 105.4489
272.0640, 114.1653
273.2760, 80.98773
274.4880, 86.96600
275.7000, 51.70892
276.9120, 82.70563
278.1230, 99.61914
279.3340, 104.5211
280.5450, 62.38763
281.7560, 41.38373
282.9670, 70.17279
284.1780, 56.96936
285.3880, 55.77173
286.5980, 19.57953
287.8090, 59.39349
289.0190, 24.24475
290.2290, 40.06812
291.4380, 34.89496
292.6480, 27.72473
293.8570, 20.55707
295.0670, 4.428223
296.2760, 18.26404
297.4850, 0.1010130
298.6930, 1.968201
299.9020, 4.229614
301.1110, 0.3569950
302.3190, 20.48969
303.5270, 36.53424
304.7350, 46.16656
305.9430, 10.83496
307.1510, 26.96295
308.3580, 33.15125
309.5660, 7.653625
310.7730, 16.49670
311.9800, 6.300598
313.1870, 10.87140
314.3940, 11.08118
315.6010, 22.29651
316.8070, 36.51910
318.0130, 6.248047
319.2200, 17.98962
320.4260, 14.23419
321.6310, 14.48651
322.8370, 55.74731
324.0430, 43.62195
325.2480, 51.33759
326.4540, 46.66803
327.6590, 43.01599
328.8640, 38.38055
330.0680, 33.50677
331.2730, 30.15125
332.4780, 29.53540
333.6820, 27.94031
334.8860, 39.42120
336.0900, 29.85809
337.2940, 36.59906
338.4980, 10.07031
339.7010, 41.43011
340.9050, 46.06110
342.1080, 47.72156
343.3110, 2.425781
344.5140, 19.12183
345.7170, 4.262451
346.9200, 15.39813
348.1220, 23.08112
349.3240, 6.766296
350.5270, 20.55493
351.7290, 40.11676
352.9310, 32.80536
354.1320, 8.521484
355.3340, 22.18225
356.5350, 8.851929
357.7370, 17.57916
358.9380, 14.67902
360.1390, 19.93567
361.3400, 22.19110
362.5400, 10.55548
363.7410, 1.682373
364.9410, 14.90936
366.1410, 15.86975
367.3410, 40.32977
368.5410, 18.47516
369.7410, 0.6972660
370.9400, 21.85388
372.1400, 9.863708
373.3390, 2.737793
374.5380, 8.368347
375.7370, 18.45929
376.9360, 15.95361
378.1350, 18.30792
379.3330, 8.654663
380.5310, 8.688293
381.7300, 3.703369
382.9280, 6.155518
384.1260, 16.84088
385.3230, 2.789795
386.5210, 6.714783
387.7180, 28.74463
388.9160, 24.68060
390.1130, 11.61676
391.3100, 7.469299
392.5060, 29.32678
393.7030, 32.13330
394.9000, 7.923340
396.0960, 62.68719
397.2920, 23.43854
398.4880, 32.17474
399.6840, 18.94922
400.8800, 24.65125
402.0750, 39.44653
403.2710, 68.16223
404.4660, 23.79846
405.6610, 23.55450
406.8560, 44.20209
408.0510, 33.69824
409.2450, 47.40149
410.4400, 49.95221
411.6340, 60.49384
412.8280, 58.01965
414.0220, 74.63928
415.2160, 92.22235
416.4100, 69.67859
417.6030, 61.25238
418.7970, 90.67297
419.9900, 63.07983
421.1830, 69.46954
422.3760, 71.85345
423.5690, 76.27509
424.7610, 68.62103
425.9540, 93.95972
427.1460, 105.5355
428.3380, 108.8334
429.5300, 92.11633
430.7220, 105.7050
431.9140, 89.13110
433.1050, 103.3672
434.2970, 113.5875
435.4880, 102.1368
436.6790, 112.4475
437.8700, 93.15332
439.0610, 108.3097
440.2510, 111.4500
441.4420, 96.55908
442.6320, 102.6594
443.8220, 110.6979
445.0120, 98.75928
446.2020, 89.46765
447.3910, 96.69165
448.5810, 119.5116
449.7700, 96.35645
450.9600, 124.7718
452.1490, 121.9345
453.3370, 97.99414
454.5260, 115.6138
455.7150, 100.6000
456.9030, 116.6227
458.0910, 109.3016
459.2800, 109.6204
460.4670, 111.3422
461.6550, 129.1879
462.8430, 123.0622
464.0300, 118.2499
465.2180, 121.6730
466.4050, 111.2365
467.5920, 110.2821
468.7790, 119.8616
469.9650, 110.6253
471.1520, 126.5185
472.3380, 97.66290
473.5250, 105.9187
474.7110, 91.28546
475.8970, 89.62573
477.0820, 97.98962
478.2680, 84.45947
479.4540, 108.8235
480.6390, 84.54022
481.8240, 81.12195
483.0090, 109.4468
484.1940, 104.4316
485.3780, 121.2515
486.5630, 105.4652
487.7470, 75.77979
488.9320, 82.20105
490.1160, 101.6044
491.3000, 108.5336
492.4830, 116.2942
493.6670, 119.7360
494.8500, 102.4747
496.0340, 74.57709
497.2170, 98.87152
498.4000, 71.46790
499.5820, 98.78149
500.7650, 89.52100
501.9480, 83.82410
503.1300, 82.15662
504.3120, 83.96887
505.4940, 93.37903
506.6760, 91.93805
507.8580, 103.0287
509.0390, 107.4385
510.2210, 85.76721
511.4020, 82.25391
512.5830, 83.45673
513.7640, 57.52222
514.9450, 86.98950
516.1250, 74.83514
517.3060, 94.23358
518.4860, 90.99854
519.6660, 88.30280
520.8460, 76.26880
522.0260, 75.44751
523.2060, 67.59125
524.3850, 49.40485
525.5650, 58.56287
526.7440, 62.90228
527.9230, 74.49628
529.1020, 46.25854
530.2810, 52.88593
531.4590, 50.33380
532.6380, 57.18323
533.8160, 51.75433
534.9940, 59.22577
536.1720, 61.44293
537.3500, 60.17194
538.5270, 64.13446
539.7050, 52.21576
540.8820, 44.57281
542.0590, 49.35229
543.2360, 37.33459
544.4130, 41.78937
545.5900, 53.68744
546.7660, 34.48865
547.9430, 40.23145
549.1190, 40.51782
550.2950, 42.72394
551.4710, 43.17224
552.6470, 41.70947
553.8220, 41.40790
554.9980, 30.99481
556.1730, 32.50061
557.3480, 43.76031
558.5230, 30.45160
559.6980, 44.04907
560.8730, 47.05121
562.0470, 56.60376
563.2220, 41.21753
564.3960, 36.01367
565.5700, 43.68201
566.7440, 41.19427
567.9170, 20.91187
569.0910, 42.62567
570.2640, 69.43250
571.4380, 17.23737
572.6110, 24.91718
573.7840, 50.55542
574.9570, 66.23297
576.1290, 66.44696
577.3020, 57.53424
578.4740, 65.17328
579.6460, 51.76788
580.8180, 50.39191
581.9900, 39.00861
583.1620, 48.58832
584.3330, 40.19043
585.5040, 36.78619
586.6760, 36.34387
587.8470, 32.80542
589.0180, 33.33490
590.1880, 38.91467
591.3590, 34.25989
592.5290, 39.00409
593.7000, 23.57214
594.8700, 44.08539
596.0400, 26.64154
597.2090, 9.156799
598.3790, 39.69855
599.5490, 35.23553
600.7180, 40.76947
601.8870, 40.30298
603.0560, 12.83063
604.2250, 25.35376
605.3940, 28.87280
606.5620, 20.38837
607.7300, 40.90820
608.8990, 38.43073
610.0670, 31.95801
611.2350, 60.48926
612.4020, 19.02539
613.5700, 46.54858
614.7370, 34.08936
615.9050, 43.59430
617.0720, 51.09448
618.2390, 44.63953
619.4060, 54.11053
620.5720, 86.66431
621.7390, 82.17432
622.9050, 99.63208
624.0710, 76.19269
625.2370, 60.76117
626.4030, 64.33771
627.5690, 68.91205
628.7340, 76.40875
629.9000, 60.95844
631.0650, 35.53278
632.2300, 63.11053
633.3950, 53.68823
634.5600, 65.26318
635.7240, 83.84656
636.8890, 67.40479
638.0530, 33.99274
639.2170, 43.53699
640.3810, 45.13159
641.5450, 49.73053
642.7080, 59.32819
643.8720, 32.92297
645.0350, 25.51471
646.1980, 31.11023
647.3610, 33.70648
648.5240, 21.30127
649.6870, 7.901672
650.8490, 4.501282
652.0120, 19.09943
653.1740, 22.70282
654.3360, 25.17072
655.4980, 13.77808
656.6600, 14.39294
657.8210, 33.00568
658.9830, 17.61816
660.1440, 29.23138
661.3050, 27.84485
662.4660, 12.46082
663.6270, 25.07928
664.7870, 39.55438
665.9480, 59.15363
667.1080, 96.78485
668.2680, 146.4213
669.4280, 121.9397
670.5880, 137.5334
671.7480, 180.1116
672.9070, 320.9485
674.0670, 620.5992
675.2260, 1023.253
676.3850, 887.9081
677.5440, 636.5692
678.7030, 369.2287
679.8610, 210.8858
681.0200, 237.4905
682.1780, 264.1499
683.3360, 422.6975
684.4940, 369.3097
685.6520, 239.9871
686.8090, 146.5276
687.9670, 55.15698
689.1240, 18.79449
690.2810, 45.46094
691.4380, 1.136597
692.5950, 2.804565
693.7520, 12.47260
694.9080, 8.030884
696.0650, 4.389282
697.2210, 14.30170
698.3770, 0.1402590
699.5330, 6.445496
700.6880, 2.247131
701.8440, 5.940491
702.9990, 22.37616
704.1550, 3.250793
705.3100, 18.93762
706.4650, 40.61542
707.6190, 7.044739
708.7740, 3.263367
709.9290, 3.572327
711.0830, 10.79761
712.2370, 37.31476
713.3910, 4.007690
714.5450, 26.70093
715.6980, 35.39453
716.8520, 28.09064
718.0050, 13.78729
719.1580, 44.48578
720.3110, 77.18494
721.4640, 67.88440
722.6170, 54.58496
723.7700, 56.28638
724.9220, 95.98273
726.0740, 86.67963
727.2260, 87.35303
728.3780, 57.03528
729.5300, 70.74146
730.6810, 71.44000
731.8330, 79.14819
732.9840, 80.74799
734.1350, 52.46881
735.2860, 69.12207
736.4370, 64.52911
737.5880, 33.24377
738.7380, 41.95947
739.8880, 19.67627
741.0390, 52.39404
742.1890, 30.99152
743.3380, 37.66559
744.4880, 43.37378
745.6380, 42.50470
746.7870, 51.64093
747.9360, 49.46344
749.0850, 47.72577
750.2340, 48.27301
751.3830, 40.07227
752.5310, 35.83319
753.6800, 31.56976
754.8280, 14.32330
755.9760, 19.08557
757.1240, 14.93085
758.2720, 21.93817
759.4190, 19.76532
760.5670, 19.66333
761.7140, 30.40820
762.8610, 8.228027
764.0080, 40.96967
765.1550, 32.71216
766.3020, 5.461243
767.4480, 11.20605
768.5950, 36.95190
769.7410, 41.69867
770.8870, 48.44641
772.0330, 40.40118
773.1780, 37.15070
774.3240, 36.90118
775.4690, 31.65265
776.6140, 27.40497
777.7590, 23.15833
778.9040, 17.84937
780.0490, 18.99060
781.1940, 6.766907
782.3380, 25.52850
783.4820, 19.29156
784.6260, 38.04980
785.7700, 32.60608
786.9140, 54.57428
788.0580, 33.25934
789.2010, 3.672424
790.3450, 22.49817
791.4880, 19.26117
792.6310, 60.02551
793.7730, 1.772644
794.9160, 4.529724
796.0590, 52.29620
797.2010, 13.06335
798.3430, 23.83118
799.4850, 28.59973
800.6270, 33.35193
801.7690, 31.29352
802.9100, 20.89301
804.0520, 21.66504
805.1930, 6.437744
806.3340, 1.210938
807.4750, 9.261536
808.6160, 4.036743
809.7560, 7.187378
810.8970, 1.412537
812.0370, 18.36261
813.1770, 8.138306
814.3170, 25.91449
815.4570, 26.68536
816.5960, 12.46826
817.7360, 24.80872
818.8750, 39.91644
820.0140, 23.69513
821.1530, 7.714539
822.2920, 47.49487
823.4310, 29.80255
824.5690, 65.58398
825.7070, 88.36591
826.8460, 74.29156
827.9840, 60.07428
829.1220, 78.79834
830.2590, 112.5536
831.3970, 119.3373
832.5340, 266.1329
833.6710, 258.7522
834.8080, 276.5373
835.9450, 398.2605
837.0820, 616.8542
838.2190, 980.6116
839.3550, 1370.413
840.4910, 1257.509
841.6270, 969.2788
842.7630, 618.0660
843.8990, 386.7223
845.0350, 223.5042
846.1700, 158.1851
847.3060, 90.97772
848.4410, 102.7682
849.5760, 39.83752
850.7100, 57.61365
851.8450, 42.40509
852.9800, 37.66046
854.1140, 53.45197
855.2480, 31.49768
856.3820, 65.29138
857.5160, 31.10730
858.6500, 41.90088
859.7830, 24.69434
860.9170, 49.48779
862.0500, 49.28180
863.1830, 11.07581
864.3160, 28.86981
865.4480, 25.66376
866.5810, 39.45752
867.7130, 16.25220
868.8460, 10.04657
869.9780, 10.92065
871.1100, 17.94257
872.2410, 4.738953
873.3730, 44.53748
874.5050, 42.33795
875.6360, 26.14081
876.7670, 42.66852
877.8980, 2.246277
879.0290, 33.56384
880.1590, 41.37390
881.2900, 19.18469
882.4200, 36.99872
883.5500, 37.81238
884.6800, 17.62573
885.8100, 7.554504
886.9400, 3.688965
888.0690, 0.1256710
889.1990, 5.939514
890.3280, 2.260498
891.4570, 0.5656740
892.5860, 2.622314
893.7140, 5.810120
894.8430, 2.000671
895.9710, 3.708130
897.1000, 6.624268
898.2280, 1.563293
899.3560, 8.249023
900.4830, 10.06061
901.6110, 6.871582
902.7380, 29.68195
903.8660, 12.49286
904.9930, 34.30316
906.1200, 13.11273
907.2460, 4.078430
908.3730, 14.72778
909.5000, 12.53326
910.6260, 17.33942
911.7520, 27.14484
912.8780, 26.94946
914.0040, 7.753296
915.1290, 5.443787
916.2550, 4.355469
917.3800, 8.156433
918.5050, 8.084167
919.6300, 10.03705
920.7550, 18.55890
921.8800, 8.357849
923.0040, 17.15588
924.1290, 20.95398
925.2530, 0.2465820
926.3770, 32.55109
927.5010, 26.34790
928.6250, 26.14355
929.7480, 8.934631
930.8720, 19.72833
931.9950, 27.52130
933.1180, 49.31311
934.2410, 60.10388
935.3640, 62.21960
936.4860, 38.68341
937.6090, 45.47467
938.7310, 57.26770
939.8530, 13.06079
940.9750, 19.85278
942.0970, 3.361145
943.2180, 12.43353
944.3400, 19.22705
945.4610, 29.82574
946.5820, 27.58502
947.7030, 39.37476
948.8240, 17.16315
949.9450, 11.95038
951.0650, 34.73615
952.1860, 7.479370
953.3060, 3.701111
954.4260, 13.07306
955.5460, 2.154114
956.6650, 30.61517
957.7850, 6.617004
958.9040, 27.14478
960.0230, 14.90509
961.1420, 0.3359990
962.2610, 19.41998
963.3800, 32.17450
964.4990, 8.927856
965.6170, 13.67969
966.7350, 7.430115
967.8530, 26.17877
968.9710, 15.66644
970.0890, 15.67419
971.2070, 4.426208
972.3240, 11.17743
973.4410, 5.927124
974.5580, 5.324951
975.6750, 11.42200
976.7920, 23.16742
977.9090, 11.08881
979.0250, 14.64685
980.1410, 39.38092
981.2580, 1.113770
982.3740, 32.84424
983.4890, 1.426941
984.6050, 15.29755
985.7200, 37.03516
986.8360, 4.243835
987.9510, 28.47144
989.0660, 0.8151250
990.1810, 20.38086
991.2950, 9.088318
992.4100, 25.79382
993.5240, 40.49744
994.6390, 21.19916
995.7530, 57.03619
996.8660, 40.73419
997.9800, 44.43024
999.0940, 57.12445
1000.207, 27.81683
1001.320, 22.70026
1002.433, 21.38873
1003.546, 0.9247440
1004.659, 26.75696
1005.772, 21.93982
1006.884, 56.75061
1007.996, 39.91162
1009.108, 39.16870
1010.220, 47.84015
1011.332, 34.41986
1012.444, 42.00525
1013.555, 32.67023
1014.666, 21.55225
1015.777, 21.95123
1016.888, 39.60931
1017.999, 34.26514
1019.110, 46.52167
1020.220, 10.81622
1021.331, 50.31873
1022.441, 36.93317
1023.551, 63.57074
1024.661, 45.20312
1025.770, 57.81262
1026.880, 96.70282
1027.989, 87.11572
1029.098, 123.5374
1030.207, 131.7535
1031.316, 189.3745
1032.425, 320.1630
1033.533, 313.7839
1034.642, 272.4025
1035.750, 140.0130
1036.858, 154.9013
1037.966, 154.5121
1039.073, 163.1205
1040.181, 219.7262
1041.288, 305.1232
1042.396, 365.7237
1043.503, 480.6448
1044.610, 572.2402
1045.716, 826.8330
1046.823, 1478.423
1047.929, 2950.005
1049.036, 5805.272
1050.142, 8570.458
1051.248, 8353.386
1052.353, 9892.959
1053.459, 17138.53
1054.564, 36235.11
1055.670, 56311.68
1056.775, 51028.35
1057.880, 30869.04
1058.985, 13568.54
1060.089, 5488.094
1061.194, 2500.650
1062.298, 1308.203
1063.402, 807.7480
1064.506, 549.3228
1065.610, 422.8680
1066.713, 313.4105
1067.817, 230.9504
1068.920, 210.7490
1070.023, 189.8416
1071.126, 152.0128
1072.229, 119.8059
1073.332, 129.3323
1074.435, 117.9706
1075.537, 101.8348
1076.639, 121.3528
1077.741, 72.86810
1078.843, 74.38147
1079.945, 121.8922
1081.046, 89.40002
1082.148, 83.90515
1083.249, 78.40741
1084.350, 95.90692
1085.451, 71.84076
1086.551, 88.05188
1087.652, 60.54315
1088.752, 76.79187
1089.853, 70.79364
1090.953, 81.23383
1092.053, 73.71429
1093.152, 63.19214
1094.252, 78.52411
1095.351, 88.99670
1096.451, 112.4667
1097.550, 53.91864
1098.649, 77.38342
1099.748, 77.82336
1100.846, 55.39423
1101.945, 74.85132
1103.043, 29.76501
1104.141, 69.17700
1105.239, 54.61829
1106.337, 58.03467
1107.434, 80.98206
1108.532, 48.41565
1109.629, 48.85455
1110.726, 43.64258
1111.823, 91.07642
1112.920, 33.50769
1114.017, 23.81860
1115.113, 54.24493
1116.210, 22.39081
1117.306, 13.81232
1118.402, 52.23114
1119.498, 63.18378
1120.593, 45.59790
1121.689, 0.2446290
1122.784, 18.16046
1123.879, 28.54089
1124.974, 24.94141
1126.069, 16.33954
1127.164, 6.735474
1128.259, 26.12787
1129.353, 41.51794
1130.447, 16.90582
1131.541, 37.29163
1132.635, 4.675171
1133.729, 14.05469
1134.822, 27.43207
1135.916, 38.50061
1137.009, 0.1262210
1138.102, 3.241150
1139.195, 1.395752
1140.288, 3.039063
1141.380, 23.31042
1142.473, 24.34204
1143.565, 26.98718
1144.657, 48.31482
1145.749, 2.640564
1146.841, 6.037720
1147.932, 33.27563
1149.024, 40.58710
1150.115, 20.10321
1151.206, 12.19080
1152.297, 10.43530
1153.388, 27.72809
1154.479, 24.01929
1155.569, 7.308777
1156.659, 15.59644
1157.750, 1.117432
1158.839, 5.164124
1159.929, 9.555237
1161.019, 7.544922
1162.108, 7.980835
1163.198, 0.2435910
1164.287, 19.50287
1165.376, 35.76062
1166.465, 14.01697
1167.553, 0.7281490
1168.642, 21.52283
1169.730, 10.77228
1170.818, 28.02045
1171.906, 39.26727
1172.994, 7.513855
1174.082, 2.240906
1175.170, 9.000061
1176.257, 13.23987
1177.344, 31.47852
1178.431, 5.715942
1179.518, 26.95239
1180.605, 7.810852
1181.691, 3.580627
1182.778, 30.64520
1183.864, 31.87012
1184.950, 10.09406
1186.036, 22.31714
1187.122, 0.4607540
1188.207, 0.2409060
1189.292, 21.97693
1190.378, 11.19427
1191.463, 10.41083
1192.548, 4.626709
1193.632, 17.84192
1194.717, 1.056458
1195.801, 22.26984
1196.886, 8.482727
1197.970, 2.695007
1199.054, 4.093262
1200.137, 9.238831
1201.221, 10.68164
1202.305, 4.484863
1203.388, 1.708923
1204.471, 1.705139
1205.554, 26.90619
1206.637, 1.272278
1207.719, 15.45050
1208.802, 33.62836
1209.884, 9.805908
1210.966, 7.983276
1212.048, 38.16052
1213.130, 15.33752
1214.212, 39.51440
1215.293, 34.69122
1216.374, 1.129578
1217.456, 7.050415
1218.536, 3.230408
1219.617, 10.41156
1220.698, 25.59283
1221.778, 25.77643
1222.859, 25.96014
1223.939, 23.14404
1225.019, 6.328857
1226.099, 42.51398
1227.178, 25.69928
1228.258, 12.88501
1229.337, 41.07104
1230.417, 3.742432
1231.496, 37.44324
1232.574, 28.37061
1233.653, 7.803284
1234.732, 14.97784
1235.810, 12.15497
1236.888, 30.33282
1237.966, 13.51355
1239.044, 8.694946
1240.122, 7.122986
1241.199, 23.06140
1242.277, 38.24652
1243.354, 25.43250
1244.431, 11.61981
1245.508, 53.80811
1246.585, 19.99854
1247.661, 48.17590
1248.738, 25.36902
1249.814, 34.56519
1250.890, 38.13776
1251.966, 19.47534
1253.042, 42.67609
1254.117, 37.87823
1255.193, 43.08160
1256.268, 46.65533
1257.343, 45.86456
1258.418, 44.56299
1259.493, 44.77209
1260.567, 43.98267
1261.642, 35.19476
1262.716, 56.21521
1263.790, 57.43036
1264.864, 54.64728
1265.938, 81.86847
1267.011, 49.67755
1268.085, 49.67578
1269.158, 31.41815
1270.231, 72.06427
1271.304, 55.29572
1272.377, 61.61896
1273.450, 88.85455
1274.522, 76.09241
1275.594, 92.28308
1276.666, 74.61682
1277.738, 100.8615
1278.810, 93.10852
1279.882, 86.75494
1280.953, 112.0071
1282.025, 63.26196
1283.096, 71.51947
1284.167, 98.77954
1285.238, 79.02942
1286.308, 93.29504
1287.379, 107.1985
1288.449, 67.41913
1289.519, 100.8149
1290.589, 137.3469
1291.659, 115.6294
1292.729, 97.67108
1293.798, 142.9599
1294.868, 97.25201
1295.937, 117.5472
1297.006, 160.5709
1298.075, 116.8728
1299.143, 126.1781
1300.212, 158.4868
1301.280, 213.7991
1302.348, 204.1148
1303.416, 180.1108
1304.484, 195.4339
1305.552, 200.7606
1306.620, 225.0913
1307.687, 204.4256
1308.754, 267.7640
1309.821, 196.4817
1310.888, 257.4772
1311.955, 255.8278
1313.021, 270.1825
1314.088, 306.5413
1315.154, 305.9044
1316.220, 299.1431
1317.286, 334.4015
1318.352, 302.7773
1319.417, 325.1578
1320.483, 366.5448
1321.548, 368.9338
1322.613, 332.3258
1323.678, 354.6938
1324.743, 336.0919
1325.807, 335.4930
1326.872, 360.8973
1327.936, 370.0435
1329.000, 348.8964
1330.064, 377.6713
1331.128, 358.8251
1332.191, 377.2465
1333.255, 354.5566
1334.318, 394.3656
1335.381, 369.7980
1336.444, 403.2340
1337.507, 414.6740
1338.569, 429.1178
1339.632, 444.0615
1340.694, 453.6432
1341.756, 453.4731
1342.818, 472.9330
1343.880, 459.3972
1344.941, 464.8189
1346.003, 499.2916
1347.064, 526.7684
1348.125, 574.2497
1349.186, 625.7352
1350.247, 651.2252
1351.308, 759.7200
1352.368, 753.2190
1353.428, 803.7229
1354.489, 914.2311
1355.549, 984.7439
1356.608, 1117.262
1357.668, 1160.784
1358.727, 1263.200
1359.787, 1359.732
1360.846, 1434.810
1361.905, 1496.352
1362.964, 1574.260
1364.022, 1650.901
1365.081, 1690.458
1366.139, 1727.021
1367.197, 1751.588
1368.255, 1813.941
1369.313, 1860.519
1370.371, 1944.582
1371.428, 2031.690
1372.486, 2160.284
1373.543, 2270.884
1374.600, 2441.641
1375.657, 2567.251
1376.713, 2593.866
1377.770, 2519.488
1378.826, 2483.115
1379.882, 2374.777
1380.938, 2161.417
1381.994, 1961.062
1383.050, 1780.714
1384.106, 1577.392
1385.161, 1427.107
1386.216, 1222.776
1387.271, 1083.550
1388.326, 957.1324
1389.381, 819.8193
1390.435, 693.5135
1391.490, 598.2563
1392.544, 518.2261
1393.598, 446.0397
1394.652, 418.9426
1395.705, 367.6714
1396.759, 335.4087
1397.812, 304.0955
1398.866, 273.6718
1399.919, 257.6772
1400.972, 236.4525
1402.024, 242.2349
1403.077, 247.0253
1404.129, 204.8263
1405.181, 223.6344
1406.233, 214.4440
1407.285, 224.2678
1408.337, 224.9890
1409.389, 220.9376
1410.440, 220.7839
1411.491, 215.6355
1412.542, 205.4950
1413.593, 187.3624
1414.644, 196.2389
1415.695, 182.6487
1416.745, 181.5442
1417.795, 233.4513
1418.845, 187.3669
1419.895, 254.2915
1420.945, 247.2133
1421.995, 239.1436
1423.044, 225.0824
1424.093, 222.8633
1425.142, 255.9888
1426.191, 223.9553
1427.240, 241.9310
1428.289, 263.9160
1429.337, 235.9109
1430.385, 241.9448
1431.433, 202.9612
1432.481, 185.0006
1433.529, 172.0177
1434.577, 165.1115
1435.624, 148.0879
1436.672, 166.2521
1437.719, 129.3556
1438.766, 143.4584
1439.812, 154.5438
1440.859, 125.6565
1441.905, 141.7578
1442.952, 94.86389
1443.998, 131.9781
1445.044, 86.17578
1446.090, 93.78503
1447.135, 65.38501
1448.181, 65.21375
1449.226, 65.05103
1450.271, 56.89600
1451.316, 55.75415
1452.361, 79.63062
1453.405, 52.51746
1454.450, 44.42847
1455.494, 25.34827
1456.538, 60.27698
1457.582, 88.21472
1458.626, 71.16150
1459.670, 76.11829
1460.713, 64.08423
1461.757, 88.05945
1462.800, 26.04407
1463.843, 70.03809
1464.886, 54.04163
1465.928, 39.05554
1466.971, 64.08740
1468.013, 32.13440
1469.055, 16.18909
1470.097, 14.25391
1471.139, 13.33142
1472.181, 54.41931
1473.222, 26.51770
1474.263, 29.62451
1475.305, 43.74182
1476.346, 9.869507
1477.386, 37.00757
1478.427, 39.15588
1479.468, 21.31421
1480.508, 40.48315
1481.548, 29.66284
1482.588, 3.851074
1483.628, 42.04480
1484.668, 28.24915
1485.707, 77.46399
1486.747, 15.68921
1487.786, 18.07532
1488.825, 27.17029
1489.864, 13.42627
1490.902, 32.69226
1491.941, 16.96826
1492.979, 21.25439
1494.017, 11.54663
1495.055, 14.84497
1496.093, 15.15247
1497.131, 25.46948
1498.168, 3.795776
1499.206, 7.868652
1500.243, 5.475952
1501.280, 17.82898
1502.317, 3.190186
1503.354, 7.559204
1504.390, 2.064453
1505.426, 26.31860
1506.463, 7.708618
1507.499, 23.10559
1508.535, 1.491333
1509.570, 3.085938
1510.606, 5.339478
1511.641, 10.78381
1512.676, 27.24683
1513.711, 37.72839
1514.746, 12.22852
1515.781, 2.252441
1516.816, 9.714355
1517.850, 10.15686
1518.884, 35.42029
1519.918, 8.017212
1520.952, 14.63403
1521.986, 13.27063
1523.019, 4.927612
1524.053, 11.79407
1525.086, 34.30371
1526.119, 13.02368
1527.152, 26.76538
1528.185, 19.52954
1529.217, 17.88983
1530.250, 54.76526
1531.282, 15.56500
1532.314, 36.38806
1533.346, 34.23505
1534.377, 16.10718
1535.409, 86.47870
1536.440, 38.38824
1537.472, 43.32526
1538.503, 25.18768
1539.534, 11.81873
1540.564, 35.91455
1541.595, 41.96521
1542.625, 30.05042
1543.656, 10.97864
1544.686, 74.56866
1545.716, 62.64917
1546.745, 52.75793
1547.775, 48.89447
1548.804, 41.97357
1549.834, 18.24939
1550.863, 37.50293
1551.892, 52.82672
1552.920, 58.18634
1553.949, 13.61792
1554.977, 33.09515
1556.006, 12.30634
1557.034, 40.58069
1558.062, 6.978394
1559.089, 22.51263
1560.117, 16.08478
1561.144, 18.69214
1562.172, 23.31744
1563.199, 31.49408
1564.226, 30.13727
1565.252, 37.81360
1566.279, 65.76117
1567.305, 63.44861
1568.332, 29.99200
1569.358, 0.2048950
1570.384, 0.0000000E+00
##END=



