##NAMES=Cerussite
##RRUFFID=R060017
##IDEAL CHEMISTRY=Pb^2+^CO_3_
##LOCALITY=Gonessa, Sardinia, Italy
##OWNER=RRUFF
##SOURCE=American Museum of Natural History
##DESCRIPTION=White reticulated composite
##STATUS=The identification of this mineral has been confirmed by X-ray diffraction and chemical analysis
##URL=rruff.info/R060017
##MEASURED CHEMISTRY=Pb_1.00_CO_3_ C not measured but estimated by difference and stoichiometry
##PIN_ID=M00430
##ORIENTATION=Laser parallel to c* (0 0 1). Fiducial mark perpendicular to laser is parallel to a [1 0 0]
51.43100, 0.0000000E+00
52.67100, 124.2244
53.91000, 201.2275
55.14900, 140.2361
56.38700, 13.65442
57.62600, 116.1626
58.86400, 133.6467
60.10300, 643.4099
61.34100, 1360.077
62.57900, 2352.527
63.81700, 3646.292
65.05400, 5063.381
66.29200, 6933.182
67.52900, 8385.383
68.76700, 9541.926
70.00400, 10242.92
71.24100, 10103.62
72.47700, 9830.343
73.71400, 9017.478
74.95100, 8031.512
76.18700, 7362.989
77.42300, 6652.515
78.65900, 6097.749
79.89500, 5739.390
81.13100, 5471.016
82.36700, 5457.926
83.60200, 5428.460
84.83700, 5685.620
86.07200, 6066.265
87.30800, 6524.261
88.54200, 6935.464
89.77700, 7581.521
91.01200, 8523.705
92.24600, 8996.379
93.48000, 9629.580
94.71400, 10459.20
95.94800, 10978.16
97.18200, 11591.38
98.41600, 12111.79
99.64900, 12504.31
100.8830, 12570.90
102.1160, 12968.50
103.3490, 12859.05
104.5820, 12847.51
105.8150, 12721.87
107.0470, 12625.11
108.2800, 12417.14
109.5120, 12373.99
110.7440, 12481.74
111.9760, 12522.38
113.2080, 12732.09
114.4400, 12642.82
115.6710, 12479.39
116.9030, 12285.71
118.1340, 11967.81
119.3650, 11723.80
120.5960, 11323.62
121.8270, 10680.15
123.0580, 10146.35
124.2880, 9787.123
125.5190, 9292.174
126.7490, 8917.065
127.9790, 8647.795
129.2090, 8614.440
130.4390, 8465.092
131.6680, 8236.810
132.8980, 8035.632
134.1270, 7626.587
135.3560, 7240.717
136.5850, 7053.158
137.8140, 6791.845
139.0430, 6668.725
140.2710, 6595.862
141.5000, 6530.239
142.7280, 6406.832
143.9560, 6275.639
145.1840, 6157.647
146.4120, 6022.875
147.6390, 5890.296
148.8670, 5640.903
150.0940, 5436.695
151.3210, 5142.310
152.5490, 4734.889
153.7750, 4469.267
155.0020, 4102.834
156.2290, 3701.587
157.4550, 3531.537
158.6810, 3395.674
159.9080, 3195.194
161.1340, 3119.873
162.3590, 3143.516
163.5850, 3159.545
164.8110, 3255.889
166.0360, 3225.864
167.2610, 3163.107
168.4860, 3263.702
169.7110, 3518.471
170.9360, 3490.003
172.1610, 3458.206
173.3850, 3439.711
174.6100, 3423.437
175.8340, 3211.133
177.0580, 3146.964
178.2820, 2936.667
179.5050, 2889.961
180.7290, 2733.692
181.9520, 2554.105
183.1760, 2476.535
184.3990, 2391.058
185.6220, 2270.387
186.8450, 2235.299
188.0670, 2243.750
189.2900, 2251.063
190.5120, 2277.701
191.7340, 2319.533
192.9560, 2367.061
194.1780, 2468.068
195.4000, 2535.111
196.6220, 2689.838
197.8430, 2884.158
199.0640, 2961.797
200.2860, 3166.015
201.5070, 3258.300
202.7270, 3475.895
203.9480, 3629.592
205.1690, 3715.889
206.3890, 3908.613
207.6090, 3972.180
208.8290, 4136.953
210.0490, 4168.153
211.2690, 4378.065
212.4890, 4488.657
213.7080, 4675.401
214.9280, 4577.649
216.1470, 4664.682
217.3660, 4602.277
218.5850, 4605.706
219.8030, 4525.334
221.0220, 4409.928
222.2400, 4266.189
223.4590, 4113.247
224.6770, 3917.959
225.8950, 3734.999
227.1120, 3500.505
228.3300, 3392.597
229.5480, 3136.599
230.7650, 2902.972
231.9820, 2534.647
233.1990, 2398.196
234.4160, 2286.907
235.6330, 2062.618
236.8490, 1933.009
238.0660, 1856.387
239.2820, 1770.848
240.4980, 1537.627
241.7140, 1496.966
242.9300, 1355.394
244.1460, 1177.946
245.3610, 1070.618
246.5770, 1040.403
247.7920, 858.8291
249.0070, 788.2344
250.2220, 628.4795
251.4370, 658.9502
252.6510, 555.2285
253.8660, 510.5918
255.0800, 481.0005
256.2940, 372.4834
257.5080, 407.2393
258.7220, 263.2178
259.9360, 240.9434
261.1490, 176.3794
262.3630, 178.9233
263.5760, 50.41064
264.7890, 86.03955
266.0020, 126.3311
267.2150, 105.6626
268.4270, 116.3652
269.6400, 13.02979
270.8520, 108.2422
272.0640, 91.95410
273.2760, 69.81885
274.4880, 14.24854
275.7000, 84.89209
276.9120, 24.28906
278.1230, 5.111816
279.3340, 46.51465
280.5450, 28.40088
281.7560, 71.77930
282.9670, 81.77246
284.1780, 92.71045
285.3880, 10.68213
286.5980, 113.4082
287.8090, 85.60400
289.0190, 70.27930
290.2290, 156.5918
291.4380, 43.25586
292.6480, 123.9702
293.8570, 168.2690
295.0670, 117.5908
296.2760, 150.2686
297.4850, 143.7134
298.6930, 114.2607
299.9020, 85.99023
301.1110, 143.1123
302.3190, 106.7588
303.5270, 92.84473
304.7350, 42.61914
305.9430, 52.09717
307.1510, 76.43164
308.3580, 62.00293
309.5660, 71.26758
310.7730, 70.27344
311.9800, 72.08936
313.1870, 59.10400
314.3940, 79.22900
315.6010, 117.3560
316.8070, 117.5830
318.0130, 101.8843
319.2200, 129.7500
320.4260, 52.66846
321.6310, 156.2881
322.8370, 60.59424
324.0430, 69.25537
325.2480, 30.29639
326.4540, 46.15918
327.6590, 67.83301
328.8640, 85.82080
330.0680, 57.91406
331.2730, 81.11230
332.4780, 28.40869
333.6820, 79.70312
334.8860, 18.81836
336.0900, 26.72852
337.2940, 54.36426
338.4980, 28.08936
339.7010, 35.11035
340.9050, 88.24219
342.1080, 48.36182
343.3110, 34.95264
344.5140, 54.99121
345.7170, 7.939453
346.9200, 73.32910
348.1220, 75.56543
349.3240, 9.827637
350.5270, 20.97461
351.7290, 26.07568
352.9310, 71.83984
354.1320, 31.45508
355.3340, 33.90771
356.5350, 60.98389
357.7370, 49.04834
358.9380, 53.09473
360.1390, 114.1196
361.3400, 49.16943
362.5400, 22.15771
363.7410, 58.89844
364.9410, 37.01416
366.1410, 39.91650
367.3410, 50.70654
368.5410, 98.43018
369.7410, 142.1221
370.9400, 46.78906
372.1400, 22.43018
373.3390, 143.4580
374.5380, 52.14502
375.7370, 139.6064
376.9360, 160.3716
378.1350, 91.94043
379.3330, 181.3770
380.5310, 154.6821
381.7300, 166.9629
382.9280, 132.0073
384.1260, 129.3931
385.3230, 213.6616
386.5210, 232.8613
387.7180, 247.9365
388.9160, 283.2393
390.1130, 252.5337
391.3100, 192.8184
392.5060, 203.6157
393.7030, 172.4746
394.9000, 170.4248
396.0960, 282.1758
397.2920, 269.1025
398.4880, 253.7700
399.6840, 199.8833
400.8800, 246.4551
402.0750, 236.1274
403.2710, 203.5542
404.4660, 223.1143
405.6610, 179.8081
406.8560, 232.2983
408.0510, 229.6025
409.2450, 133.8076
410.4400, 294.0005
411.6340, 295.5024
412.8280, 248.8936
414.0220, 275.8462
415.2160, 250.8735
416.4100, 245.9644
417.6030, 199.8613
418.7970, 238.5488
419.9900, 261.0405
421.1830, 294.6128
422.3760, 301.3042
423.5690, 253.9668
424.7610, 289.0996
425.9540, 265.3325
427.1460, 258.2085
428.3380, 327.2188
429.5300, 276.4844
430.7220, 283.6172
431.9140, 328.9678
433.1050, 294.6992
434.2970, 325.1523
435.4880, 339.9043
436.6790, 290.4546
437.8700, 287.5815
439.0610, 242.0732
440.2510, 290.7925
441.4420, 294.7637
442.6320, 313.1387
443.8220, 256.0967
445.0120, 295.4790
446.2020, 191.6816
447.3910, 303.9648
448.5810, 255.0835
449.7700, 274.7197
450.9600, 274.3491
452.1490, 247.2866
453.3370, 342.6777
454.5260, 285.0728
455.7150, 312.5142
456.9030, 395.9209
458.0910, 306.2334
459.2800, 356.6860
460.4670, 317.7021
461.6550, 326.2559
462.8430, 282.2134
464.0300, 202.8564
465.2180, 241.8276
466.4050, 272.6919
467.5920, 202.9409
468.7790, 292.3857
469.9650, 245.4351
471.1520, 279.2026
472.3380, 276.7495
473.5250, 304.0571
474.7110, 298.7808
475.8970, 245.5605
477.0820, 280.6738
478.2680, 300.7793
479.4540, 280.4106
480.6390, 370.3618
481.8240, 270.5674
483.0090, 279.7280
484.1940, 205.7227
485.3780, 202.4370
486.5630, 286.0410
487.7470, 258.9351
488.9320, 205.2354
490.1160, 345.7451
491.3000, 185.8945
492.4830, 224.6523
493.6670, 238.8018
494.8500, 146.0244
496.0340, 156.8550
497.2170, 170.9907
498.4000, 242.0767
499.5820, 259.0874
500.7650, 348.4951
501.9480, 230.9038
503.1300, 215.9917
504.3120, 222.2373
505.4940, 238.8516
506.6760, 197.7646
507.8580, 186.6626
509.0390, 199.5254
510.2210, 206.8125
511.4020, 262.6157
512.5830, 212.3447
513.7640, 191.0957
514.9450, 122.2456
516.1250, 154.6914
517.3060, 87.95703
518.4860, 71.09473
519.6660, 148.5210
520.8460, 161.9385
522.0260, 242.5015
523.2060, 180.5181
524.3850, 93.67383
525.5650, 138.8613
526.7440, 146.8389
527.9230, 154.3599
529.1020, 174.8887
530.2810, 127.3843
531.4590, 154.8423
532.6380, 105.2656
533.8160, 83.11914
534.9940, 175.0615
536.1720, 139.2275
537.3500, 188.2275
538.5270, 127.4741
539.7050, 174.6870
540.8820, 104.8179
542.0590, 212.0811
543.2360, 133.0269
544.4130, 71.78320
545.5900, 132.8174
546.7660, 113.1641
547.9430, 123.4199
549.1190, 149.7485
550.2950, 161.9468
551.4710, 140.2500
552.6470, 147.2021
553.8220, 101.1343
554.9980, 123.3647
556.1730, 127.9219
557.3480, 110.0317
558.5230, 129.9814
559.6980, 122.5015
560.8730, 60.52100
562.0470, 104.4980
563.2220, 112.8872
564.3960, 59.29736
565.5700, 227.9585
566.7440, 133.1870
567.9170, 187.9390
569.0910, 67.78027
570.2640, 130.3335
571.4380, 64.14893
572.6110, 139.0889
573.7840, 118.4590
574.9570, 138.4985
576.1290, 61.82617
577.3020, 26.18506
578.4740, 44.10547
579.6460, 103.0273
580.8180, 31.28418
581.9900, 106.2837
583.1620, 70.36377
584.3330, 27.60254
585.5040, 239.2090
586.6760, 3.314453
587.8470, 169.8296
589.0180, 129.0068
590.1880, 223.6436
591.3590, 82.51709
592.5290, 119.3931
593.7000, 99.31006
594.8700, 79.55615
596.0400, 46.54443
597.2090, 106.8428
598.3790, 91.07031
599.5490, 22.59961
600.7180, 85.70703
601.8870, 107.9331
603.0560, 79.23096
604.2250, 168.3779
605.3940, 98.67383
606.5620, 119.5781
607.7300, 128.7808
608.8990, 36.31152
610.0670, 169.5967
611.2350, 77.62646
612.4020, 182.9121
613.5700, 31.21875
614.7370, 136.5352
615.9050, 150.9209
617.0720, 190.1528
618.2390, 142.6245
619.4060, 230.0781
620.5720, 254.5596
621.7390, 184.9604
622.9050, 145.3525
624.0710, 208.7026
625.2370, 131.7847
626.4030, 224.8340
627.5690, 261.3491
628.7340, 209.4702
629.9000, 233.6294
631.0650, 186.1147
632.2300, 118.1797
633.3950, 181.6738
634.5600, 207.0591
635.7240, 171.7769
636.8890, 185.6426
638.0530, 184.6602
639.2170, 234.0391
640.3810, 304.4141
641.5450, 229.7886
642.7080, 145.1753
643.8720, 27.52051
645.0350, 49.90186
646.1980, 30.30273
647.3610, 123.7959
648.5240, 127.2969
649.6870, 47.85645
650.8490, 200.2993
652.0120, 117.7393
653.1740, 28.17529
654.3360, 130.8975
655.4980, 82.93359
656.6600, 143.2114
657.8210, 156.6636
658.9830, 275.7734
660.1440, 342.0400
661.3050, 449.3906
662.4660, 556.6240
663.6270, 600.4141
664.7870, 753.0537
665.9480, 873.2822
667.1080, 926.7456
668.2680, 826.1675
669.4280, 992.5713
670.5880, 881.7036
671.7480, 1128.015
672.9070, 1090.864
674.0670, 945.0269
675.2260, 833.4297
676.3850, 712.6943
677.5440, 728.1016
678.7030, 802.3599
679.8610, 704.7568
681.0200, 716.7231
682.1780, 461.1162
683.3360, 456.4839
684.4940, 309.9214
685.6520, 284.1709
686.8090, 236.2358
687.9670, 247.4468
689.1240, 237.3315
690.2810, 232.8564
691.4380, 245.5425
692.5950, 253.9287
693.7520, 235.9849
694.9080, 267.2817
696.0650, 83.60107
697.2210, 127.8037
698.3770, 73.14795
699.5330, 107.4766
700.6880, 114.9492
701.8440, 108.3296
702.9990, 108.6255
704.1550, 117.3062
705.3100, 31.74316
706.4650, 88.16748
707.6190, 6.604980
708.7740, 21.49316
709.9290, 122.9258
711.0830, 41.79980
712.2370, 80.23975
713.3910, 38.64453
714.5450, 95.08496
715.6980, 134.9897
716.8520, 205.3604
718.0050, 128.0640
719.1580, 91.42285
720.3110, 97.96631
721.4640, 88.36621
722.6170, 46.82227
723.7700, 180.8296
724.9220, 120.2720
726.0740, 127.5435
727.2260, 103.0317
728.3780, 78.48047
729.5300, 108.9302
730.6810, 78.24268
731.8330, 57.30615
732.9840, 73.11523
734.1350, 75.56152
735.2860, 21.53467
736.4370, 107.9634
737.5880, 8.443848
738.7380, 20.87354
739.8880, 53.54639
741.0390, 27.28320
742.1890, 99.61182
743.3380, 129.0874
744.4880, 77.51270
745.6380, 90.09570
746.7870, 95.88574
747.9360, 110.6709
749.0850, 102.0947
750.2340, 96.86768
751.3830, 77.35547
752.5310, 67.68311
753.6800, 34.11426
754.8280, 47.66260
755.9760, 17.11084
757.1240, 19.56543
758.2720, 14.59082
759.4190, 36.32129
760.5670, 39.72266
761.7140, 145.2866
762.8610, 34.68311
764.0080, 120.3428
765.1550, 6.954102
766.3020, 61.41943
767.4480, 82.06299
768.5950, 16.42578
769.7410, 102.1489
770.8870, 9.506836
772.0330, 55.44727
773.1780, 111.9448
774.3240, 88.29688
775.4690, 56.72363
776.6140, 108.1675
777.7590, 63.51562
778.9040, 97.86133
780.0490, 89.34473
781.1940, 112.6841
782.3380, 170.8501
783.4820, 158.1162
784.6260, 27.18555
785.7700, 18.51270
786.9140, 21.83594
788.0580, 91.27979
789.2010, 174.5952
790.3450, 62.77588
791.4880, 81.16650
792.6310, 42.10205
793.7730, 103.3691
794.9160, 171.6328
796.0590, 85.03467
797.2010, 134.3027
798.3430, 127.5674
799.4850, 19.82910
800.6270, 174.0859
801.7690, 52.33936
802.9100, 103.8091
804.0520, 18.06006
805.1930, 34.30615
806.3340, 115.5493
807.4750, 69.78809
808.6160, 121.1724
809.7560, 101.5312
810.8970, 15.15430
812.0370, 88.42773
813.1770, 59.74854
814.3170, 118.1646
815.4570, 43.38135
816.5960, 145.6387
817.7360, 45.84717
818.8750, 122.3232
820.0140, 31.70654
821.1530, 88.90576
822.2920, 164.1045
823.4310, 104.7056
824.5690, 99.89941
825.7070, 183.7793
826.8460, 450.9663
827.9840, 409.0063
829.1220, 714.1846
830.2590, 810.5195
831.3970, 904.5591
832.5340, 964.0361
833.6710, 1008.224
834.8080, 1192.816
835.9450, 1214.112
837.0820, 942.3530
838.2190, 1035.710
839.3550, 682.0029
840.4910, 455.8105
841.6270, 266.5552
842.7630, 200.6489
843.8990, 184.7798
845.0350, 229.0503
846.1700, 91.05029
847.3060, 150.5693
848.4410, 137.8564
849.5760, 118.2324
850.7100, 179.2905
851.8450, 111.3892
852.9800, 191.4854
854.1140, 116.5791
855.2480, 144.6709
856.3820, 87.75781
857.5160, 135.8428
858.6500, 4.921387
859.7830, 2.826660
860.9170, 176.2407
862.0500, 35.30273
863.1830, 65.36328
864.3160, 213.6274
865.4480, 75.67529
866.5810, 77.71826
867.7130, 181.7637
868.8460, 141.4243
869.9780, 35.45801
871.1100, 147.4854
872.2410, 80.41309
873.3730, 56.43848
874.5050, 12.32031
875.6360, 10.59570
876.7670, 9.671875
877.8980, 114.6240
879.0290, 63.82520
880.1590, 160.8281
881.2900, 66.17676
882.4200, 113.7764
883.5500, 41.78516
884.6800, 114.7378
885.8100, 37.31689
886.9400, 62.60010
888.0690, 119.5513
889.1990, 6.467285
890.3280, 47.32861
891.4570, 71.23779
892.5860, 69.01172
893.7140, 5.211914
894.8430, 11.53369
895.9710, 173.3599
897.1000, 41.21680
898.2280, 148.1074
899.3560, 19.93555
900.4830, 29.80908
901.6110, 25.51172
902.7380, 51.62207
903.8660, 143.4863
904.9930, 7.213379
906.1200, 155.0630
907.2460, 22.25781
908.3730, 46.56152
909.5000, 110.3745
910.6260, 64.17969
911.7520, 59.97754
912.8780, 154.7656
914.0040, 98.55029
915.1290, 45.65967
916.2550, 127.0957
917.3800, 13.15820
918.5050, 43.41162
919.6300, 131.3013
920.7550, 140.8862
921.8800, 116.4346
923.0040, 30.99854
924.1290, 131.7100
925.2530, 7.561035
926.3770, 195.1504
927.5010, 95.54688
928.6250, 100.1797
929.7480, 176.8672
930.8720, 50.55273
931.9950, 118.2285
933.1180, 146.8965
934.2410, 117.5615
935.3640, 110.0605
936.4860, 188.7080
937.6090, 33.32520
938.7310, 168.9570
939.8530, 87.41406
940.9750, 107.9316
942.0970, 173.5381
943.2180, 51.13477
944.3400, 56.72070
945.4610, 67.29688
946.5820, 29.79883
947.7030, 63.73926
948.8240, 40.27246
949.9450, 173.8203
951.0650, 77.29883
952.1860, 102.8467
953.3060, 26.31934
954.4260, 45.84570
955.5460, 90.23340
956.6650, 162.7373
957.7850, 11.23047
958.9040, 130.7119
960.0230, 0.7138670
961.1420, 100.7500
962.2610, 50.79785
963.3800, 130.6113
964.4990, 53.00977
965.6170, 2.603516
966.7350, 24.90723
967.8530, 86.27246
968.9710, 10.63574
970.0890, 59.03418
971.2070, 71.32129
972.3240, 43.64648
973.4410, 57.95898
974.5580, 13.74121
975.6750, 3.532227
976.7920, 83.78809
977.9090, 161.0332
979.0250, 18.27441
980.1410, 108.5010
981.2580, 16.71680
982.3740, 45.01953
983.4890, 33.20703
984.6050, 223.3818
985.7200, 123.5439
986.8360, 193.6963
987.9510, 201.8359
989.0660, 210.9629
990.1810, 273.0791
991.2950, 171.1816
992.4100, 111.2734
993.5240, 53.44824
994.6390, 213.0518
995.7530, 197.2871
996.8660, 145.1641
997.9800, 46.27344
999.0940, 114.2891
1000.207, 214.5527
1001.320, 118.2900
1002.433, 163.5303
1003.546, 227.5068
1004.659, 220.4189
1005.772, 157.3691
1006.884, 194.2500
1007.996, 150.2656
1009.108, 34.17969
1010.220, 90.77441
1011.332, 151.3457
1012.444, 57.21582
1013.555, 158.0176
1014.666, 114.8604
1015.777, 252.5312
1016.888, 84.54785
1017.999, 210.8643
1019.110, 127.6533
1020.220, 121.0391
1021.331, 89.80469
1022.441, 265.2598
1023.551, 352.2598
1024.661, 415.8486
1025.770, 468.1934
1026.880, 499.2803
1027.989, 522.1836
1029.098, 481.5391
1030.207, 576.9824
1031.316, 470.4043
1032.425, 414.0645
1033.533, 456.4180
1034.642, 512.2773
1035.750, 505.3428
1036.858, 642.8691
1037.966, 626.2520
1039.073, 875.4590
1040.181, 1036.999
1041.288, 1418.951
1042.396, 2168.990
1043.503, 3467.487
1044.610, 6843.012
1045.716, 15427.38
1046.823, 32347.93
1047.929, 40807.53
1049.036, 40566.82
1050.142, 47272.22
1051.248, 51200.59
1052.353, 51247.00
1053.459, 46126.45
1054.564, 35623.57
1055.670, 21815.38
1056.775, 10442.89
1057.880, 4453.057
1058.985, 2190.480
1060.089, 1349.820
1061.194, 979.0996
1062.298, 721.3867
1063.402, 574.3906
1064.506, 445.4863
1065.610, 445.9863
1066.713, 297.4707
1067.817, 347.6562
1068.920, 301.8604
1070.023, 290.3906
1071.126, 207.6123
1072.229, 180.2686
1073.332, 169.2939
1074.435, 170.1777
1075.537, 171.6172
1076.639, 229.5312
1077.741, 263.4531
1078.843, 296.4023
1079.945, 255.7148
1081.046, 228.7822
1082.148, 180.5459
1083.249, 186.9375
1084.350, 180.9150
1085.451, 127.8525
1086.551, 156.5068
1087.652, 199.2334
1088.752, 198.1250
1089.853, 221.2764
1090.953, 160.7314
1092.053, 103.7031
1093.152, 238.8408
1094.252, 127.6504
1095.351, 216.5879
1096.451, 187.3672
1097.550, 124.1729
1098.649, 88.87402
1099.748, 270.7363
1100.846, 177.3037
1101.945, 336.5703
1103.043, 196.1133
1104.141, 173.6914
1105.239, 237.1387
1106.337, 254.6279
1107.434, 210.3525
1108.532, 134.5850
1109.629, 145.1416
1110.726, 219.1738
1111.823, 248.3477
1112.920, 149.8916
1114.017, 89.01953
1115.113, 130.3262
1116.210, 117.5557
1117.306, 196.1484
1118.402, 136.6162
1119.498, 224.0684
1120.593, 236.5059
1121.689, 200.9297
1122.784, 166.3369
1123.879, 186.7295
1124.974, 43.10840
1126.069, 200.2920
1127.164, 61.64355
1128.259, 116.9775
1129.353, 73.29688
1130.447, 221.3906
1131.541, 49.68164
1132.635, 5.954102
1133.729, 48.19824
1134.822, 202.4258
1135.916, 69.63770
1137.009, 109.8379
1138.102, 1.022461
1139.195, 18.82422
1140.288, 42.28906
1141.380, 95.05566
1142.473, 196.0898
1143.565, 263.1631
1144.657, 228.5420
1145.749, 87.07812
1146.841, 130.1113
1147.932, 43.14941
1149.024, 13.88867
1150.115, 99.09863
1151.206, 175.0742
1152.297, 64.04688
1153.388, 16.03516
1154.479, 15.11230
1155.569, 107.7773
1156.659, 92.65430
1157.750, 92.51953
1158.839, 11.37207
1159.929, 69.20801
1161.019, 67.96680
1162.108, 7.204102
1163.198, 60.53125
1164.287, 66.25391
1165.376, 17.03418
1166.465, 5.353516
1167.553, 48.30078
1168.642, 8.943359
1169.730, 56.56836
1170.818, 62.18262
1171.906, 54.78516
1172.994, 9.384766
1174.082, 136.9678
1175.170, 25.54004
1176.257, 95.10254
1177.344, 0.3447270
1178.431, 33.81348
1179.518, 48.68066
1180.605, 94.17773
1181.691, 50.33398
1182.778, 26.11426
1183.864, 21.56543
1184.950, 14.99414
1186.036, 26.57715
1187.122, 42.19141
1188.207, 81.84375
1189.292, 100.4443
1190.378, 16.72852
1191.463, 117.0039
1192.548, 23.27051
1193.632, 19.47070
1194.717, 79.76367
1195.801, 2.990234
1196.886, 13.79395
1197.970, 27.40234
1199.054, 10.59082
1200.137, 0.9082030
1201.221, 6.0547002E-02
1202.305, 4.901367
1203.388, 3.524414
1204.471, 9.381836
1205.554, 30.51270
1206.637, 24.75684
1207.719, 22.33398
1208.802, 11.86719
1209.884, 11.02539
1210.966, 36.38184
1212.048, 81.84277
1213.130, 57.81250
1214.212, 20.81836
1215.293, 62.16016
1216.374, 32.13477
1217.456, 17.10449
1218.536, 32.07031
1219.617, 8.188477
1220.698, 104.9834
1221.778, 43.06641
1222.859, 34.76367
1223.939, 68.68945
1225.019, 31.60938
1226.099, 118.5439
1227.178, 8.526367
1228.258, 42.60059
1229.337, 15.82617
1230.417, 44.92383
1231.496, 152.9570
1232.574, 74.83691
1233.653, 116.7148
1234.732, 2.589844
1235.810, 51.46484
1236.888, 24.33691
1237.966, 83.21582
1239.044, 1.095703
1240.122, 43.02637
1241.199, 60.83496
1242.277, 70.69824
1243.354, 102.5605
1244.431, 150.3213
1245.508, 44.18457
1246.585, 7.952148
1247.661, 36.91016
1248.738, 110.7705
1249.814, 146.6318
1250.890, 135.4941
1251.966, 8.355469
1253.042, 159.2178
1254.117, 21.08105
1255.193, 151.5088
1256.268, 2.374023
1257.343, 119.0596
1258.418, 100.9287
1259.493, 63.67969
1260.567, 22.55176
1261.642, 234.1670
1262.716, 84.29785
1263.790, 24.91504
1264.864, 163.7969
1265.938, 54.57129
1267.011, 173.4590
1268.085, 198.4082
1269.158, 163.2559
1270.231, 196.7480
1271.304, 133.6543
1272.377, 163.5645
1273.450, 128.4795
1274.522, 256.3994
1275.594, 349.3252
1276.666, 329.2578
1277.738, 290.9941
1278.810, 351.2725
1279.882, 308.2217
1280.953, 287.1768
1282.025, 289.0693
1283.096, 386.3330
1284.167, 343.6846
1285.238, 395.6689
1286.308, 486.6602
1287.379, 322.6719
1288.449, 413.7441
1289.519, 488.7588
1290.589, 476.0098
1291.659, 410.1113
1292.729, 410.1416
1293.798, 360.2119
1294.868, 401.6484
1295.937, 549.1992
1297.006, 466.2422
1298.075, 575.5439
1299.143, 531.6572
1300.212, 747.7959
1301.280, 561.9365
1302.348, 748.4268
1303.416, 669.6035
1304.484, 805.6777
1305.552, 797.8799
1306.620, 760.0049
1307.687, 851.0762
1308.754, 918.3193
1309.821, 829.5879
1310.888, 971.7734
1311.955, 947.9990
1313.021, 865.2256
1314.088, 982.7783
1315.154, 1015.653
1316.220, 917.5977
1317.286, 965.1074
1318.352, 1075.496
1319.417, 1205.835
1320.483, 1108.254
1321.548, 1186.664
1322.613, 1163.351
1323.678, 1288.805
1324.743, 1129.985
1325.807, 1167.180
1326.872, 1216.664
1327.936, 1340.127
1329.000, 1382.261
1330.064, 1319.481
1331.128, 1400.629
1332.191, 1391.957
1333.255, 1438.510
1334.318, 1535.079
1335.381, 1552.662
1336.444, 1557.259
1337.507, 1511.868
1338.569, 1538.842
1339.632, 1823.317
1340.694, 1785.997
1341.756, 1960.244
1342.818, 2057.863
1343.880, 2209.562
1344.941, 2607.279
1346.003, 2711.013
1347.064, 2934.764
1348.125, 3378.254
1349.186, 3689.038
1350.247, 3931.713
1351.308, 4403.532
1352.368, 4823.370
1353.428, 5365.227
1354.489, 5995.101
1355.549, 6598.791
1356.608, 7030.881
1357.668, 7344.373
1358.727, 7864.449
1359.787, 8130.423
1360.846, 8044.415
1361.905, 7930.426
1362.964, 7710.459
1364.022, 7411.514
1365.081, 7042.590
1366.139, 6628.688
1367.197, 6272.798
1368.255, 6056.479
1369.313, 5780.642
1370.371, 5457.827
1371.428, 5339.034
1372.486, 5008.264
1373.543, 4583.518
1374.600, 4570.684
1375.657, 4093.980
1376.713, 3836.303
1377.770, 3439.649
1378.826, 2968.017
1379.882, 2718.410
1380.938, 2550.826
1381.994, 2236.266
1383.050, 1913.731
1384.106, 1652.219
1385.161, 1388.734
1386.216, 1250.275
1387.271, 977.8398
1388.326, 894.4316
1389.381, 855.0508
1390.435, 810.7031
1391.490, 679.3838
1392.544, 638.0918
1393.598, 575.8281
1394.652, 561.5918
1395.705, 646.3936
1396.759, 549.2373
1397.812, 433.1123
1398.866, 404.0186
1399.919, 503.9531
1400.972, 505.9189
1402.024, 354.9170
1403.077, 428.9941
1404.129, 390.2354
1405.181, 463.1504
1406.233, 466.2891
1407.285, 444.4629
1408.337, 609.6709
1409.389, 611.9150
1410.440, 680.2832
1411.491, 591.6201
1412.542, 640.9932
1413.593, 702.0264
1414.644, 626.4746
1415.695, 610.9658
1416.745, 638.8535
1417.795, 718.4502
1418.845, 827.5879
1419.895, 770.2773
1420.945, 771.0098
1421.995, 812.1572
1423.044, 797.3164
1424.093, 830.5234
1425.142, 798.4619
1426.191, 756.4473
1427.240, 679.4805
1428.289, 661.5674
1429.337, 791.7051
1430.385, 725.8975
1431.433, 804.0566
1432.481, 740.2500
1433.529, 753.4404
1434.577, 696.6914
1435.624, 625.6367
1436.672, 823.9795
1437.719, 707.3828
1438.766, 783.8291
1439.812, 704.3164
1440.859, 821.0195
1441.905, 939.3896
1442.952, 895.7812
1443.998, 1020.180
1445.044, 1061.520
1446.090, 1052.831
1447.135, 1090.146
1448.181, 1255.378
1449.226, 1158.651
1450.271, 1241.973
1451.316, 1424.332
1452.361, 1313.735
1453.405, 1645.178
1454.450, 1622.657
1455.494, 1718.174
1456.538, 1781.745
1457.582, 1886.108
1458.626, 1935.180
1459.670, 2166.970
1460.713, 2201.805
1461.757, 2365.692
1462.800, 2363.632
1463.843, 2512.614
1464.886, 2613.652
1465.928, 2582.761
1466.971, 2820.923
1468.013, 2985.129
1469.055, 2933.381
1470.097, 3050.679
1471.139, 3022.039
1472.181, 3143.447
1473.222, 3125.901
1474.263, 3075.404
1475.305, 3302.956
1476.346, 3185.557
1477.386, 3176.203
1478.427, 2943.900
1479.468, 2813.646
1480.508, 2784.443
1481.548, 2714.287
1482.588, 2532.182
1483.628, 2422.128
1484.668, 2415.123
1485.707, 2072.169
1486.747, 1839.265
1487.786, 1791.409
1488.825, 1606.604
1489.864, 1661.849
1490.902, 1448.143
1491.941, 1319.483
1492.979, 1176.855
1494.017, 1132.255
1495.055, 840.6973
1496.093, 884.1611
1497.131, 716.6689
1498.168, 724.2168
1499.206, 595.8057
1500.243, 589.4326
1501.280, 467.0967
1502.317, 328.7969
1503.354, 414.5361
1504.390, 425.2695
1505.426, 443.0361
1506.463, 400.8301
1507.499, 282.6582
1508.535, 353.5244
1509.570, 395.4297
1510.606, 365.4121
1511.641, 199.4834
1512.676, 168.6436
1513.711, 138.8965
1514.746, 70.23926
1515.781, 144.6738
1516.816, 9.201172
1517.850, 93.81934
1518.884, 55.53027
1519.918, 78.33594
1520.952, 85.23535
1521.986, 44.62109
1523.019, 166.3242
1524.053, 34.51562
1525.086, 45.80664
1526.119, 169.1992
1527.152, 5.303711
1528.185, 2.297852
1529.217, 183.0078
1530.250, 39.82910
1531.282, 106.7617
1532.314, 154.8105
1533.346, 138.9824
1534.377, 5.718750
1535.409, 84.71289
1536.440, 127.2852
1537.472, 61.99512
1538.503, 86.88281
1539.534, 136.9316
1540.564, 10.83887
1541.595, 95.58301
1542.625, 30.79883
1543.656, 180.0264
1544.686, 130.0625
1545.716, 15.31836
1546.745, 58.80469
1547.775, 74.53223
1548.804, 126.5127
1549.834, 137.1064
1550.863, 75.99512
1551.892, 182.8145
1552.920, 73.41309
1553.949, 121.8652
1554.977, 125.4668
1556.006, 50.34277
1557.034, 91.94141
1558.062, 61.82031
1559.089, 21.38867
1560.117, 213.1846
1561.144, 108.4072
1562.172, 202.9883
1563.199, 157.9102
1564.226, 50.05273
1565.252, 183.8662
1566.279, 208.1045
1567.305, 109.7178
1568.332, 38.56152
1569.358, 153.7803
1570.384, 0.0000000E+00
##END=



