##NAMES=Cerussite
##RRUFFID=R050174
##IDEAL CHEMISTRY=Pb^2+^CO_3_
##LOCALITY=Tsumeb mine, Tsumeb, Otavi District, Oshikoto, Namibia
##OWNER=RRUFF
##SOURCE=Marcus Origlieri
##DESCRIPTION=Colorless single crystal
##STATUS=The identification of this mineral has been confirmed by X-ray diffraction and chemical analysis
##URL=rruff.info/R050174
##MEASURED CHEMISTRY=Pb_1.00_CO_3_ ; C not measured but estimated by difference and stoichiometry
##PIN_ID=L01652
##ORIENTATION=Laser parallel to -b* (0 -1 0). Fiducial mark perpendicular to laser is parallel to c [0 0 1]
51.43100, 0.0000000E+00
52.67100, 8.210693
53.91000, 18.77197
55.14900, 37.56384
56.38700, 36.68893
57.62600, 15.54843
58.86400, 12.82712
60.10300, 5.243927
61.34100, 2.812622
62.57900, 12.02866
63.81700, 5.699188
65.05400, 13.05139
66.29200, 17.11279
67.52900, 33.05725
68.76700, 54.80322
70.00400, 65.28040
71.24100, 79.42761
72.47700, 61.18713
73.71400, 109.5066
74.95100, 148.3400
76.18700, 186.6472
77.42300, 246.3931
78.65900, 286.5468
79.89500, 385.0806
81.13100, 431.9702
82.36700, 555.1935
83.60200, 662.7308
84.83700, 760.5646
86.07200, 955.6794
87.30800, 1123.062
88.54200, 1392.702
89.77700, 1652.582
91.01200, 1901.679
92.24600, 2202.974
93.48000, 2449.457
94.71400, 2654.115
95.94800, 2932.941
97.18200, 3093.926
98.41600, 3264.065
99.64900, 3564.353
100.8830, 3851.782
102.1160, 4362.350
103.3490, 4894.049
104.5820, 5228.877
105.8150, 5316.412
107.0470, 5428.897
108.2800, 5069.083
109.5120, 4536.381
110.7440, 3988.787
111.9760, 3463.298
113.2080, 3184.912
114.4400, 3070.624
115.6710, 3043.432
116.9030, 2983.333
118.1340, 3130.333
119.3650, 3349.432
120.5960, 3486.620
121.8270, 3827.894
123.0580, 4170.281
124.2880, 4492.785
125.5190, 5025.369
126.7490, 5451.953
127.9790, 6007.534
129.2090, 6704.105
130.4390, 7341.676
131.6680, 7855.279
132.8980, 8534.915
134.1270, 8930.578
135.3560, 9054.284
136.5850, 9017.022
137.8140, 8487.805
139.0430, 7875.631
140.2710, 7203.517
141.5000, 6511.463
142.7280, 5950.445
143.9560, 5572.473
145.1840, 5109.564
146.4120, 4715.713
147.6390, 4426.899
148.8670, 4139.130
150.0940, 3970.413
151.3210, 3771.742
152.5490, 3578.106
153.7750, 3384.511
155.0020, 3183.961
156.2290, 2957.456
157.4550, 2756.994
158.6810, 2514.568
159.9080, 2354.178
161.1340, 2175.832
162.3590, 2023.519
163.5850, 1902.241
164.8110, 1805.009
166.0360, 1646.819
167.2610, 1612.665
168.4860, 1522.543
169.7110, 1496.450
170.9360, 1449.389
172.1610, 1405.365
173.3850, 1382.375
174.6100, 1348.088
175.8340, 1299.498
177.0580, 1314.600
178.2820, 1274.731
179.5050, 1288.888
180.7290, 1225.070
181.9520, 1209.323
183.1760, 1141.565
184.3990, 1136.592
185.6220, 1111.045
186.8450, 1032.352
188.0670, 1006.682
189.2900, 988.4399
190.5120, 937.8459
191.7340, 930.2379
192.9560, 860.6370
194.1780, 795.5609
195.4000, 833.9962
196.6220, 818.4802
197.8430, 800.8999
199.0640, 782.7167
200.2860, 791.4595
201.5070, 760.1227
202.7270, 721.8349
203.9480, 744.4218
205.1690, 741.6764
206.3890, 711.3793
207.6090, 650.7029
208.8290, 577.1393
210.0490, 645.2543
211.2690, 618.3483
212.4890, 616.5956
213.7080, 547.9391
214.9280, 605.3547
216.1470, 543.3758
217.3660, 565.6820
218.5850, 504.5925
219.8030, 483.2598
221.0220, 494.0060
222.2400, 488.7963
223.4590, 487.0107
224.6770, 460.8842
225.8950, 466.0092
227.1120, 464.4012
228.3300, 414.9549
229.5480, 404.2562
230.7650, 409.6415
231.9820, 396.7648
233.1990, 397.9242
234.4160, 361.1184
235.6330, 419.6255
236.8490, 375.9408
238.0660, 396.0179
239.2820, 370.5992
240.4980, 310.9501
241.7140, 356.3293
242.9300, 384.7368
244.1460, 337.1732
245.3610, 321.3178
246.5770, 356.8053
247.7920, 281.1149
249.0070, 316.1263
250.2220, 284.6882
251.4370, 278.2726
252.6510, 260.8788
253.8660, 245.5415
255.0800, 240.4753
256.2940, 232.2233
257.5080, 230.6816
258.7220, 250.4249
259.9360, 250.1591
261.1490, 218.6069
262.3630, 189.3774
263.5760, 196.2253
264.7890, 177.1661
266.0020, 134.0319
267.2150, 164.0457
268.4270, 167.5873
269.6400, 137.6850
270.8520, 187.5720
272.0640, 133.5565
273.2760, 134.4751
274.4880, 144.5538
275.7000, 142.3734
276.9120, 101.9692
278.1230, 127.4161
279.3340, 93.74408
280.5450, 105.0045
281.7560, 101.1008
282.9670, 76.17114
284.1780, 61.22467
285.3880, 61.78302
286.5980, 86.34711
287.8090, 60.42590
289.0190, 83.01532
290.2290, 79.11835
291.4380, 52.35803
292.6480, 57.48279
293.8570, 41.33136
295.0670, 76.63171
296.2760, 33.78668
297.4850, 42.95117
298.6930, 67.19934
299.9020, 60.38214
301.1110, 54.57379
302.3190, 48.98804
303.5270, 45.25879
304.7350, 39.62317
305.9430, 19.70020
307.1510, 23.93274
308.3580, 17.17285
309.5660, 2.817871
310.7730, 44.59973
311.9800, 13.97742
313.1870, 19.25153
314.3940, 48.81714
315.6010, 26.89478
316.8070, 2.395996
318.0130, 9.307190
319.2200, 12.99438
320.4260, 45.30157
321.6310, 24.61420
322.8370, 28.93201
324.0430, 13.74500
325.2480, 5.415955
326.4540, 2.082703
327.6590, 3.254578
328.8640, 17.59631
330.0680, 7.938782
331.2730, 1.715515
332.4780, 28.36584
333.6820, 18.01648
334.8860, 28.35358
336.0900, 3.320740
337.2940, 26.97028
338.4980, 19.62549
339.7010, 14.28741
340.9050, 15.04694
342.1080, 26.62048
343.3110, 8.706238
344.5140, 0.9555050
345.7170, 17.39404
346.9200, 3.244324
348.1220, 16.12823
349.3240, 0.5131840
350.5270, 31.91144
351.7290, 3.321411
352.9310, 15.25525
354.1320, 31.82654
355.3340, 28.60101
356.5350, 22.96173
357.7370, 21.47522
358.9380, 8.920715
360.1390, 12.62592
361.3400, 17.10583
362.5400, 6.649902
363.7410, 10.80975
364.9410, 1.276123
366.1410, 1.748352
367.3410, 27.77399
368.5410, 3.697266
369.7410, 2.826050
370.9400, 27.34650
372.1400, 9.874817
373.3390, 23.40369
374.5380, 3.939453
375.7370, 8.526123
376.9360, 10.99585
378.1350, 11.46948
379.3330, 22.05292
380.5310, 17.58325
381.7300, 12.11993
382.9280, 20.66077
384.1260, 20.79004
385.3230, 8.271484
386.5210, 8.912048
387.7180, 14.81018
388.9160, 26.72870
390.1130, 17.71979
391.3100, 9.829773
392.5060, 3.384888
393.7030, 42.73761
394.9000, 19.18109
396.0960, 19.64270
397.2920, 0.6417850
398.4880, 13.92261
399.6840, 18.55664
400.8800, 24.63983
402.0750, 10.75067
403.2710, 14.25903
404.4660, 4.309998
405.6610, 16.32178
406.8560, 10.92316
408.0510, 8.533569
409.2450, 12.79126
410.4400, 8.240601
411.6340, 2.285645
412.8280, 7.600464
414.0220, 22.01428
415.2160, 13.33289
416.4100, 34.82806
417.6030, 11.84888
418.7970, 3.707825
419.9900, 0.7698360
421.1830, 4.367126
422.3760, 7.750488
423.5690, 10.25684
424.7610, 16.63538
425.9540, 19.12335
427.1460, 21.80414
428.3380, 27.18182
429.5300, 25.57288
430.7220, 31.94775
431.9140, 6.332397
433.1050, 38.08942
434.2970, 4.459656
435.4880, 63.94135
436.6790, 49.29474
437.8700, 0.6553340
439.0610, 45.99280
440.2510, 30.32800
441.4420, 22.66064
442.6320, 42.98993
443.8220, 48.31659
445.0120, 17.64069
446.2020, 24.95990
447.3910, 38.27576
448.5810, 43.58868
449.7700, 45.92657
450.9600, 53.23376
452.1490, 5.594177
453.3370, 21.85522
454.5260, 24.75812
455.7150, 60.80133
456.9030, 19.11432
458.0910, 53.60809
459.2800, 41.19421
460.4670, 36.46454
461.6550, 90.57831
462.8430, 66.84174
464.0300, 60.12006
465.2180, 67.37646
466.4050, 42.63708
467.5920, 67.19214
468.7790, 67.35315
469.9650, 76.56427
471.1520, 75.80469
472.3380, 74.05371
473.5250, 60.28656
474.7110, 89.53955
475.8970, 92.84326
477.0820, 60.55743
478.2680, 86.82196
479.4540, 78.97113
480.6390, 83.26013
481.8240, 83.85022
483.0090, 90.63788
484.1940, 61.83643
485.3780, 73.06635
486.5630, 102.2574
487.7470, 72.41357
488.9320, 83.59692
490.1160, 64.68860
491.3000, 100.8639
492.4830, 69.02411
493.6670, 87.19122
494.8500, 102.3541
496.0340, 71.94012
497.2170, 82.70508
498.4000, 100.8550
499.5820, 50.02039
500.7650, 61.17731
501.9480, 55.31409
503.1300, 30.92664
504.3120, 62.29608
505.4940, 77.11780
506.6760, 48.23608
507.8580, 50.36029
509.0390, 72.45441
510.2210, 66.27380
511.4020, 62.37390
512.5830, 55.26404
513.7640, 45.92645
514.9450, 65.46509
516.1250, 54.29230
517.3060, 71.09967
518.4860, 50.17230
519.6660, 49.24042
520.8460, 37.36469
522.0260, 46.14441
523.2060, 87.14355
524.3850, 41.40771
525.5650, 53.19788
526.7440, 28.23883
527.9230, 17.27502
529.1020, 7.305115
530.2810, 67.32660
531.4590, 41.66125
532.6380, 41.67383
533.8160, 72.88428
534.9940, 0.4122310
536.1720, 43.40540
537.3500, 28.39410
538.5270, 11.37823
539.7050, 18.96069
540.8820, 14.93250
542.0590, 7.898193
543.2360, 4.909973
544.4130, 21.00720
545.5900, 31.94739
546.7660, 12.18738
547.9430, 6.117126
549.1190, 47.98053
550.2950, 3.236755
551.4710, 25.62897
552.6470, 22.36859
553.8220, 2.580078
554.9980, 28.24365
556.1730, 4.872559
557.3480, 18.91919
558.5230, 0.2143550
559.6980, 23.49847
560.8730, 18.47968
562.0470, 9.693604
563.2220, 43.06464
564.3960, 14.39081
565.5700, 43.96771
566.7440, 6.654358
567.9170, 15.43518
569.0910, 58.55463
570.2640, 25.36621
571.4380, 67.30902
572.6110, 26.11810
573.7840, 3.417786
574.9570, 17.20917
576.1290, 19.87018
577.3020, 26.65979
578.4740, 24.43774
579.6460, 30.59460
580.8180, 36.11304
581.9900, 40.87909
583.1620, 31.56671
584.3330, 37.32489
585.5040, 37.07922
586.6760, 54.61566
587.8470, 35.30005
589.0180, 31.04285
590.1880, 20.78180
591.3590, 32.51672
592.5290, 17.24774
593.7000, 36.21295
594.8700, 2.943787
596.0400, 5.343140
597.2090, 19.36066
598.3790, 5.775818
599.5490, 32.47504
600.7180, 48.17395
601.8870, 51.86926
603.0560, 55.12915
604.2250, 20.25098
605.3940, 34.93628
606.5620, 22.62372
607.7300, 3.697876
608.8990, 31.51855
610.0670, 57.18701
611.2350, 50.85474
612.4020, 21.51910
613.5700, 40.17999
614.7370, 14.83728
615.9050, 33.54828
617.0720, 42.20404
618.2390, 40.85901
619.4060, 62.51514
620.5720, 43.16827
621.7390, 28.82251
622.9050, 69.47632
624.0710, 27.12897
625.2370, 29.78070
626.4030, 23.43365
627.5690, 42.08337
628.7340, 39.73022
629.9000, 35.37628
631.0650, 45.01996
632.2300, 45.26392
633.3950, 44.29785
634.5600, 50.93549
635.7240, 50.57007
636.8890, 42.20435
638.0530, 39.84192
639.2170, 35.47650
640.3810, 18.11792
641.5450, 62.75623
642.7080, 17.39166
643.8720, 51.96259
645.0350, 47.59833
646.1980, 39.23279
647.3610, 13.86450
648.5240, 51.49329
649.6870, 8.119446
650.8490, 39.74829
652.0120, 43.37445
653.1740, 43.99902
654.3360, 21.62726
655.4980, 21.25562
656.6600, 13.88696
657.8210, 29.51947
658.9830, 44.14935
660.1440, 10.77661
661.3050, 24.40070
662.4660, 55.02814
663.6270, 28.65808
664.7870, 18.28918
665.9480, 45.92371
667.1080, 53.52783
668.2680, 79.97327
669.4280, 54.16119
670.5880, 72.78595
671.7480, 107.4161
672.9070, 91.04395
674.0670, 174.6732
675.2260, 250.6221
676.3850, 276.2593
677.5440, 188.8777
678.7030, 155.2424
679.8610, 157.7550
681.0200, 246.1970
682.1780, 410.4686
683.3360, 660.1440
684.4940, 706.7003
685.6520, 539.3321
686.8090, 336.7586
687.9670, 147.0278
689.1240, 98.65796
690.2810, 61.45233
691.4380, 11.05286
692.5950, 17.62610
693.7520, 21.78180
694.9080, 59.40637
696.0650, 47.12451
697.2210, 54.66321
698.3770, 33.67401
699.5330, 60.25928
700.6880, 21.80389
701.8440, 24.22333
702.9990, 14.14795
704.1550, 10.34991
705.3100, 16.02789
706.4650, 16.28918
707.6190, 6.213013
708.7740, 29.39520
709.9290, 2.012817
711.0830, 8.591858
712.2370, 31.18378
713.3910, 23.39819
714.5450, 17.91553
715.6980, 7.474548
716.8520, 22.07806
718.0050, 16.67102
719.1580, 41.27985
720.3110, 59.88776
721.4640, 20.49469
722.6170, 37.10114
723.7700, 39.70667
724.9220, 35.31128
726.0740, 34.91614
727.2260, 19.52051
728.3780, 64.12402
729.5300, 64.69891
730.6810, 71.30084
731.8330, 37.84583
732.9840, 6.550354
734.1350, 26.43896
735.2860, 55.28345
736.4370, 21.89575
737.5880, 45.39594
738.7380, 21.99677
739.8880, 41.59698
741.0390, 30.19659
742.1890, 14.79889
743.3380, 40.37903
744.4880, 5.977051
745.6380, 19.61975
746.7870, 11.32733
747.9360, 16.26428
749.0850, 41.43579
750.2340, 34.02649
751.3830, 27.61859
752.5310, 51.20856
753.6800, 0.1705320
754.8280, 29.55273
755.9760, 33.16260
757.1240, 15.75049
758.2720, 13.33801
759.4190, 26.92529
760.5670, 45.51215
761.7140, 36.10034
762.8610, 36.20801
764.0080, 43.79395
765.1550, 38.37970
766.3020, 31.59595
767.4480, 49.11298
768.5950, 15.69788
769.7410, 17.29315
770.8870, 20.87775
772.0330, 24.19073
773.1780, 29.77496
774.3240, 44.36884
775.4690, 39.85986
776.6140, 41.53662
777.7590, 35.35455
778.9040, 39.92236
780.0490, 31.52911
781.1940, 34.11145
782.3380, 60.69489
783.4820, 17.27808
784.6260, 20.86115
785.7700, 37.41028
786.9140, 54.99310
788.0580, 17.47217
789.2010, 39.05481
790.3450, 45.63751
791.4880, 54.22015
792.6310, 56.80273
793.7730, 65.38519
794.9160, 75.49548
796.0590, 25.07782
797.2010, 63.66016
798.3430, 30.18164
799.4850, 8.786499
800.6270, 23.40723
801.7690, 47.98926
802.9100, 60.61285
804.0520, 56.19470
805.1930, 58.61865
806.3340, 47.35944
807.4750, 37.94415
808.6160, 52.55469
809.7560, 39.13922
810.8970, 65.72430
812.0370, 44.30884
813.1770, 71.25708
814.3170, 68.84454
815.4570, 65.59082
816.5960, 72.17920
817.7360, 87.76794
818.8750, 101.0125
820.0140, 109.9732
821.1530, 143.5682
822.2920, 154.1634
823.4310, 176.7584
824.5690, 216.7521
825.7070, 250.6013
826.8460, 289.5483
827.9840, 374.1488
829.1220, 396.7385
830.2590, 525.3392
831.3970, 758.9415
832.5340, 914.5840
833.6710, 1017.190
834.8080, 1198.796
835.9450, 1584.405
837.0820, 2402.014
838.2190, 3748.623
839.3550, 4732.246
840.4910, 4392.028
841.6270, 3239.721
842.7630, 1959.392
843.8990, 1101.002
845.0350, 664.2993
846.1700, 442.9102
847.3060, 278.4008
848.4410, 217.0054
849.5760, 152.6760
850.7100, 128.2882
851.8450, 91.90045
852.9800, 67.50525
854.1140, 65.11731
855.2480, 42.72931
856.3820, 34.34106
857.5160, 37.95258
858.6500, 38.56378
859.7830, 37.20270
860.9170, 52.78528
862.0500, 32.39569
863.1830, 47.00574
864.3160, 31.61548
865.4480, 22.22491
866.5810, 38.83417
867.7130, 34.44373
868.8460, 50.05328
869.9780, 43.37958
871.1100, 37.99225
872.2410, 2.607849
873.3730, 18.77515
874.5050, 43.83289
875.6360, 61.44043
876.7670, 33.04761
877.8980, 9.658203
879.0290, 15.26831
880.1590, 32.87817
881.2900, 1.481995
882.4200, 1.090515
883.5500, 26.15967
884.6800, 10.22650
885.8100, 29.38574
886.9400, 6.998535
888.0690, 53.61072
889.1990, 0.7772220
890.3280, 2.223083
891.4570, 5.388977
892.5860, 30.00024
893.7140, 15.61621
894.8430, 37.23285
895.9710, 14.85394
897.1000, 10.47430
898.2280, 8.905579
899.3560, 22.70990
900.4830, 44.33502
901.6110, 36.96399
902.7380, 9.407410
903.8660, 32.22040
904.9930, 8.848450
906.1200, 43.48669
907.2460, 11.87341
908.3730, 26.75952
909.5000, 9.391785
910.6260, 18.02686
911.7520, 34.66577
912.8780, 19.69598
914.0040, 54.93744
915.1290, 6.570251
916.2550, 8.201965
917.3800, 29.83282
918.5050, 64.46295
919.6300, 56.09827
920.7550, 51.73279
921.8800, 28.36664
923.0040, 13.00726
924.1290, 82.64758
925.2530, 35.28693
926.3770, 57.92950
927.5010, 27.57111
928.6250, 17.21765
929.7480, 8.136414
930.8720, 16.50378
931.9950, 25.14288
933.1180, 14.78137
934.2410, 8.421692
935.3640, 6.060730
936.4860, 46.69830
937.6090, 5.341553
938.7310, 26.98334
939.8530, 56.62433
940.9750, 24.26489
942.0970, 29.90424
943.2180, 8.546021
944.3400, 25.18634
945.4610, 14.83075
946.5820, 42.47388
947.7030, 35.88422
948.8240, 35.73608
949.9450, 0.6449580
951.0650, 32.97211
952.1860, 34.58990
953.3060, 25.20624
954.4260, 9.821106
955.5460, 35.43420
956.6650, 39.04584
957.7850, 52.65594
958.9040, 53.97247
960.0230, 49.00739
961.1420, 50.47668
962.2610, 42.45135
963.3800, 32.68237
964.4990, 25.28278
965.6170, 18.88367
966.7350, 8.482849
967.8530, 26.08093
968.9710, 53.67706
970.0890, 31.27155
971.2070, 37.86401
972.3240, 47.45471
973.4410, 14.04352
974.5580, 25.63025
975.6750, 4.218811
976.7920, 55.80450
977.9090, 41.39233
979.0250, 26.97827
980.1410, 44.56372
981.2580, 14.14703
982.3740, 31.72894
983.4890, 7.308777
984.6050, 55.91241
985.7200, 30.48749
986.8360, 62.06049
987.9510, 66.08630
989.0660, 39.20013
990.1810, 67.76672
991.2950, 60.33093
992.4100, 45.89301
993.5240, 58.45282
994.6390, 44.01050
995.7530, 30.56567
996.8660, 79.11871
997.9800, 57.66943
999.0940, 53.21777
1000.207, 58.76373
1001.320, 44.42523
1002.433, 39.99268
1003.546, 66.54047
1004.659, 49.27582
1005.772, 24.81091
1006.884, 72.72290
1007.996, 45.14850
1009.108, 46.67615
1010.220, 72.20142
1011.332, 78.56970
1012.444, 38.08667
1013.555, 51.60413
1014.666, 46.11890
1015.777, 91.57788
1016.888, 22.89050
1017.999, 92.42554
1019.110, 24.25635
1020.220, 70.95483
1021.331, 59.44165
1022.441, 116.9875
1023.551, 93.39636
1024.661, 73.36743
1025.770, 127.8414
1026.880, 118.4915
1027.989, 137.2360
1029.098, 122.8037
1030.207, 144.2814
1031.316, 235.7810
1032.425, 340.8518
1033.533, 385.7020
1034.642, 282.1633
1035.750, 225.6500
1036.858, 180.6593
1037.966, 212.2773
1039.073, 280.2682
1040.181, 246.1923
1041.288, 373.9296
1042.396, 444.3738
1043.503, 509.5845
1044.610, 674.0504
1045.716, 993.4802
1046.823, 1733.204
1047.929, 3303.626
1049.036, 6627.021
1050.142, 9525.417
1051.248, 9061.830
1052.353, 10685.64
1053.459, 17583.04
1054.564, 38295.44
1055.670, 60651.62
1056.775, 55737.02
1057.880, 33253.40
1058.985, 14854.69
1060.089, 6023.067
1061.194, 2687.790
1062.298, 1469.211
1063.402, 914.0203
1064.506, 612.3827
1065.610, 431.8014
1066.713, 398.6987
1067.817, 305.0261
1068.920, 229.3333
1070.023, 200.2302
1071.126, 175.5212
1072.229, 168.9056
1073.332, 134.3391
1074.435, 161.6632
1075.537, 127.8026
1076.639, 123.0923
1077.741, 153.6073
1078.843, 136.9135
1079.945, 95.21558
1081.046, 62.15247
1082.148, 91.44568
1083.249, 74.79663
1084.350, 94.51343
1085.451, 103.7937
1086.551, 118.0695
1087.652, 117.6881
1088.752, 102.5831
1089.853, 109.8458
1090.953, 105.1042
1092.053, 97.35815
1093.152, 119.6077
1094.252, 120.8529
1095.351, 74.09387
1096.451, 101.3306
1097.550, 47.03564
1098.649, 86.26343
1099.748, 94.62256
1100.846, 72.84167
1101.945, 68.05652
1103.043, 79.26685
1104.141, 48.47290
1105.239, 91.67456
1106.337, 61.85852
1107.434, 36.05151
1108.532, 69.15540
1109.629, 66.33984
1110.726, 87.51978
1111.823, 39.69556
1112.920, 91.87000
1114.017, 52.02734
1115.113, 89.19031
1116.210, 24.28870
1117.306, 47.44263
1118.402, 62.59253
1119.498, 65.73792
1120.593, 60.87915
1121.689, 56.01624
1122.784, 45.14917
1123.879, 46.18701
1124.974, 45.40234
1126.069, 50.52271
1127.164, 35.63879
1128.259, 47.75098
1129.353, 55.85901
1130.447, 54.96277
1131.541, 28.06250
1132.635, 14.15833
1133.729, 20.24878
1134.822, 23.33484
1135.916, 10.62805
1137.009, 52.49304
1138.102, 4.565308
1139.195, 21.62976
1140.288, 48.69519
1141.380, 43.75647
1142.473, 3.186035
1143.565, 22.86011
1144.657, 22.90222
1145.749, 40.94055
1146.841, 30.97522
1147.932, 3.993896
1149.024, 16.02600
1150.115, 4.958252
1151.206, 8.048340
1152.297, 24.04932
1153.388, 13.04663
1154.479, 20.03979
1155.569, 0.9703370
1156.659, 17.01111
1157.750, 10.01099
1158.839, 4.952881
1159.929, 9.088989
1161.019, 26.85583
1162.108, 11.79724
1163.198, 7.734985
1164.287, 30.32971
1165.376, 8.418091
1166.465, 10.48120
1167.553, 10.62292
1168.642, 5.261963
1169.730, 33.85779
1170.818, 1.002563
1171.906, 8.844849
1172.994, 10.69226
1174.082, 6.463623
1175.170, 10.62939
1176.257, 21.19250
1177.344, 18.98828
1178.431, 35.81970
1179.518, 20.62524
1180.605, 14.42786
1181.691, 21.22778
1182.778, 17.97485
1183.864, 21.80750
1184.950, 22.58740
1186.036, 24.63550
1187.122, 29.12378
1188.207, 4.880615
1189.292, 11.36511
1190.378, 39.37866
1191.463, 18.88000
1192.548, 1.847290
1193.632, 30.57153
1194.717, 15.29602
1195.801, 1.018433
1196.886, 7.262085
1197.970, 41.45007
1199.054, 13.16040
1200.137, 24.13110
1201.221, 34.56177
1202.305, 0.2530520
1203.388, 1.058472
1204.471, 65.62708
1205.554, 13.68921
1206.637, 18.98535
1207.719, 20.34180
1208.802, 6.318848
1209.884, 18.97791
1210.966, 16.63562
1212.048, 8.301880
1213.130, 5.033325
1214.212, 9.371338
1215.293, 7.285034
1216.374, 19.94019
1217.456, 5.594360
1218.536, 5.247192
1219.617, 9.899048
1220.698, 25.54980
1221.778, 22.19971
1222.859, 10.84851
1223.939, 26.49646
1225.019, 7.143677
1226.099, 17.78992
1227.178, 12.56445
1228.258, 38.07593
1229.337, 6.284302
1230.417, 47.35303
1231.496, 8.989990
1232.574, 18.62646
1233.653, 8.262329
1234.732, 21.89807
1235.810, 33.53333
1236.888, 31.16846
1237.966, 11.80334
1239.044, 16.43860
1240.122, 31.07385
1241.199, 56.70898
1242.277, 0.3441160
1243.354, 2.0508001E-02
1244.431, 24.61462
1245.508, 62.25000
1246.585, 31.85974
1247.661, 58.49609
1248.738, 12.13293
1249.814, 34.77002
1250.890, 48.40784
1251.966, 30.04614
1253.042, 56.68506
1254.117, 38.32471
1255.193, 56.96509
1256.268, 16.60632
1257.343, 47.24854
1258.418, 40.89160
1259.493, 23.53564
1260.567, 46.53979
1261.642, 60.82715
1262.716, 60.35669
1263.790, 70.97937
1264.864, 63.62048
1265.938, 61.07446
1267.011, 63.30847
1268.085, 83.96118
1269.158, 62.60657
1270.231, 66.26440
1271.304, 68.92395
1272.377, 110.7413
1273.450, 79.40625
1274.522, 118.0732
1275.594, 121.7426
1276.666, 106.4138
1277.738, 76.22754
1278.810, 107.8777
1279.882, 110.6515
1280.953, 113.1376
1282.025, 84.82080
1283.096, 105.4594
1284.167, 98.14832
1285.238, 174.2273
1286.308, 77.91602
1287.379, 125.4508
1288.449, 145.8912
1289.519, 101.5109
1290.589, 108.2213
1291.659, 118.9086
1292.729, 105.5051
1293.798, 143.8444
1294.868, 161.5730
1295.937, 139.2770
1297.006, 129.8965
1298.075, 115.4711
1299.143, 141.6630
1300.212, 136.8153
1301.280, 172.6631
1302.348, 162.4155
1303.416, 164.3933
1304.484, 184.1267
1305.552, 215.8978
1306.620, 215.1422
1307.687, 211.9242
1308.754, 182.7117
1309.821, 198.5046
1310.888, 198.3035
1311.955, 231.7052
1313.021, 233.5167
1314.088, 189.3345
1315.154, 248.3777
1316.220, 266.2083
1317.286, 228.0443
1318.352, 210.9839
1319.417, 256.8354
1320.483, 290.3455
1321.548, 229.1592
1322.613, 274.0271
1323.678, 269.8992
1324.743, 216.7152
1325.807, 239.0526
1326.872, 272.9375
1327.936, 251.8270
1329.000, 316.1656
1330.064, 266.0647
1331.128, 243.9169
1332.191, 262.7209
1333.255, 263.6349
1334.318, 286.7344
1335.381, 289.6587
1336.444, 267.3845
1337.507, 266.3198
1338.569, 339.2605
1339.632, 301.2070
1340.694, 324.1592
1341.756, 308.8962
1342.818, 321.4277
1343.880, 311.3977
1344.941, 353.3735
1346.003, 398.3557
1347.064, 371.3440
1348.125, 440.3386
1349.186, 455.3397
1350.247, 414.3472
1351.308, 524.3615
1352.368, 587.3822
1353.428, 591.4098
1354.489, 695.4443
1355.549, 726.0127
1356.608, 798.0610
1357.668, 884.9407
1358.727, 925.0034
1359.787, 1057.073
1360.846, 1152.151
1361.905, 1215.236
1362.964, 1356.328
1364.022, 1473.428
1365.081, 1562.536
1366.139, 1750.651
1367.197, 1926.774
1368.255, 2080.906
1369.313, 2270.045
1370.371, 2595.190
1371.428, 2804.340
1372.486, 3087.504
1373.543, 3475.675
1374.600, 3795.856
1375.657, 4004.045
1376.713, 4143.837
1377.770, 4210.449
1378.826, 4147.664
1379.882, 4004.888
1380.938, 3772.119
1381.994, 3335.360
1383.050, 3131.609
1384.106, 2620.868
1385.161, 2473.135
1386.216, 1999.410
1387.271, 1731.695
1388.326, 1449.990
1389.381, 1397.293
1390.435, 1203.607
1391.490, 1078.930
1392.544, 897.2632
1393.598, 790.6072
1394.652, 783.9612
1395.705, 670.3274
1396.759, 615.7039
1397.812, 559.0909
1398.866, 524.8501
1399.919, 481.2621
1400.972, 434.6853
1402.024, 431.1373
1403.077, 435.5830
1404.129, 442.0399
1405.181, 371.5121
1406.233, 423.9963
1407.285, 374.4965
1408.337, 384.0098
1409.389, 354.5353
1410.440, 382.0736
1411.491, 406.6246
1412.542, 327.1914
1413.593, 338.7711
1414.644, 376.3694
1415.695, 380.5410
1416.745, 389.1729
1417.795, 410.8186
1418.845, 374.4791
1419.895, 429.1552
1420.945, 395.8564
1421.995, 363.5776
1423.044, 353.3147
1424.093, 408.0645
1425.142, 349.8303
1426.191, 390.6237
1427.240, 411.4360
1428.289, 359.2661
1429.337, 380.1138
1430.385, 359.9832
1431.433, 359.8757
1432.481, 387.7672
1433.529, 296.6991
1434.577, 330.6338
1435.624, 305.5872
1436.672, 272.5604
1437.719, 224.7300
1438.766, 270.7750
1439.812, 227.8511
1440.859, 233.9420
1441.905, 217.0356
1442.952, 214.1334
1443.998, 187.5328
1445.044, 195.6537
1446.090, 188.7332
1447.135, 149.6438
1448.181, 146.1979
1449.226, 148.7646
1450.271, 171.3499
1451.316, 131.9551
1452.361, 175.5808
1453.405, 178.2219
1454.450, 159.8846
1455.494, 105.5725
1456.538, 143.2744
1457.582, 154.9923
1458.626, 139.7305
1459.670, 164.4834
1460.713, 144.2512
1461.757, 131.0339
1462.800, 172.8319
1463.843, 148.6453
1464.886, 142.4792
1465.928, 171.3312
1466.971, 148.1990
1468.013, 196.0828
1469.055, 157.9827
1470.097, 160.8989
1471.139, 163.8317
1472.181, 212.7809
1473.222, 167.7472
1474.263, 187.7301
1475.305, 175.7300
1476.346, 131.7468
1477.386, 192.7809
1478.427, 195.8322
1479.468, 204.9009
1480.508, 139.9872
1481.548, 150.0911
1482.588, 129.2128
1483.628, 142.3524
1484.668, 151.5098
1485.707, 134.6829
1486.747, 128.8713
1487.786, 99.07739
1488.825, 75.30127
1489.864, 91.54272
1490.902, 133.8019
1491.941, 77.07849
1492.979, 92.37256
1494.017, 84.67969
1495.055, 56.99963
1496.093, 37.33582
1497.131, 75.68787
1498.168, 73.05493
1499.206, 46.43713
1500.243, 25.83350
1501.280, 29.24341
1502.317, 0.6658940
1503.354, 22.10059
1504.390, 17.54688
1505.426, 53.00073
1506.463, 22.46277
1507.499, 54.93298
1508.535, 37.40601
1509.570, 48.88892
1510.606, 71.39819
1511.641, 24.93774
1512.676, 11.50757
1513.711, 5.107788
1514.746, 67.73828
1515.781, 30.39966
1516.816, 55.09204
1517.850, 17.81604
1518.884, 54.57190
1519.918, 42.35974
1520.952, 3.180420
1521.986, 31.03430
1523.019, 18.07837
1524.053, 44.84326
1525.086, 97.79968
1526.119, 2.208618
1527.152, 46.81885
1528.185, 23.88306
1529.217, 22.98450
1530.250, 18.12439
1531.282, 11.30359
1532.314, 17.52307
1533.346, 13.93115
1534.377, 2.088623
1535.409, 15.43823
1536.440, 24.83484
1537.472, 25.27917
1538.503, 5.778442
1539.534, 18.66577
1540.564, 39.95142
1541.595, 3.633911
1542.625, 19.38367
1543.656, 22.20312
1544.686, 35.09509
1545.716, 15.06250
1546.745, 21.79663
1547.775, 1.318970
1548.804, 17.34631
1549.834, 16.55066
1550.863, 22.70557
1551.892, 24.22363
1552.920, 30.70166
1553.949, 9.281006
1554.977, 32.96851
1556.006, 52.16467
1557.034, 0.2611080
1558.062, 10.37756
1559.089, 7.068237
1560.117, 7.998779
1561.144, 1.995728
1562.172, 3.008911
1563.199, 4.112793
1564.226, 8.585693
1565.252, 39.52588
1566.279, 40.01990
1567.305, 9.3262002E-02
1568.332, 33.35522
1569.358, 5.326416
1570.384, 0.0000000E+00
##END=



