##NAMES=Cerussite
##RRUFFID=R050011
##IDEAL CHEMISTRY=Pb^2+^CO_3_
##LOCALITY=Daoping Lead and Zinc mine, Gongcheng, Guangxi, China
##OWNER=RRUFF
##SOURCE=Eugene Schlepp
##DESCRIPTION=Colorless hexagonal bipyramidal crystals
##STATUS=The identification of this mineral has been confirmed by X-ray diffraction and chemical analysis
##URL=rruff.info/R050011
##MEASURED CHEMISTRY=Pb_1.00_CO_3_ ; CO_2_ not measured but estimated by difference and stoichiometry
##PIN_ID=L00082
##ORIENTATION=Laser parallel to -a* (-1 0 0). Fiducial mark perpendicular to laser is parallel to -b [0 -1 0]
102.712, 0.000
104.109, 196.814
105.505, 3.332
106.902, 145.100
108.298, 3.790
109.694, 9.700
111.090, 163.481
112.486, 127.888
113.881, 443.491
115.277, 465.526
116.672, 813.436
118.066, 825.797
119.461, 1334.270
120.855, 1448.565
122.249, 1943.440
123.643, 2279.695
125.036, 2671.160
126.430, 3631.699
127.823, 3723.215
129.216, 4685.651
130.608, 4908.948
132.001, 4933.031
133.393, 4997.816
134.785, 4323.227
136.176, 4359.196
137.568, 3535.657
138.959, 3362.562
140.350, 2949.864
141.741, 2537.529
143.131, 2495.525
144.521, 2123.831
145.911, 2152.409
147.301, 1893.231
148.691, 1852.361
150.080, 1790.772
151.469, 1564.411
152.858, 1557.594
154.247, 1347.092
155.635, 1334.001
157.024, 1048.227
158.411, 1023.807
159.799, 885.525
161.187, 821.296
162.574, 791.149
163.961, 631.060
165.348, 764.042
166.734, 619.113
168.121, 717.196
169.507, 639.273
170.893, 580.357
172.278, 675.436
173.664, 552.569
175.049, 692.726
176.434, 626.877
177.819, 586.065
179.203, 568.278
180.587, 494.593
181.971, 502.914
183.355, 457.281
184.739, 525.756
186.122, 486.206
187.505, 422.570
188.888, 329.871
190.271, 302.222
191.653, 316.535
193.035, 291.675
194.417, 344.064
195.799, 315.295
197.180, 319.482
198.562, 302.201
199.943, 253.704
201.324, 240.505
202.704, 207.645
204.084, 217.774
205.465, 176.271
206.844, 208.976
208.224, 388.926
209.603, 165.854
210.983, 168.627
212.362, 153.160
213.740, 282.866
215.119, 221.560
216.497, 157.626
217.875, 246.334
219.253, 135.175
220.631, 206.390
222.008, 145.569
223.385, 248.271
224.762, 201.983
226.139, 117.703
227.515, 188.561
228.891, 155.295
230.267, 304.427
231.643, 38.104
233.018, 76.800
234.394, 203.517
235.769, 173.236
237.144, 156.409
238.518, 124.129
239.893, 162.846
241.267, 104.560
242.641, 188.490
244.014, 217.048
245.388, 135.713
246.761, 240.685
248.134, 97.335
249.507, 159.005
250.879, 114.486
252.252, 181.143
253.624, 136.964
254.996, 132.575
256.367, 180.539
257.739, 62.131
259.110, 102.683
260.481, 103.921
261.852, 182.547
263.222, 130.082
264.592, 41.344
265.962, 200.960
267.332, 108.799
268.702, 74.628
270.071, 75.206
271.440, 11.871
272.809, 34.120
274.178, 65.627
275.546, 133.396
276.915, 9.296
278.283, 53.353
279.650, 66.589
281.018, 18.101
282.385, 77.703
283.752, 46.791
285.119, 51.789
286.486, 6.550
287.852, 19.732
289.218, 50.158
290.584, 9.983
291.950, 110.867
293.316, 9.218
294.681, 33.268
296.046, 46.710
297.411, 109.282
298.775, 64.247
300.140, 21.722
301.504, 46.675
302.868, 16.227
304.231, 36.839
305.595, 112.134
306.958, 75.776
308.321, 76.306
309.684, 67.605
311.047, 60.413
312.409, 122.656
313.771, 80.269
315.133, 86.959
316.495, 19.025
317.856, 21.081
319.217, 73.153
320.578, 84.797
321.939, 73.729
323.299, 94.261
324.660, 67.882
326.020, 20.021
327.380, 11.976
328.739, 4.645
330.099, 3.425
331.458, 98.489
332.817, 30.638
334.176, 12.529
335.534, 84.408
336.892, 6.274
338.251, 118.352
339.608, 39.812
340.966, 91.998
342.323, 73.956
343.681, 195.739
345.037, 137.511
346.394, 179.269
347.751, 191.013
349.107, 57.258
350.463, 184.435
351.819, 86.116
353.174, 27.781
354.530, 199.432
355.885, 2.682
357.240, 94.291
358.594, 145.897
359.949, 157.456
361.303, 82.078
362.657, 73.651
364.011, 115.151
365.365, 106.918
366.718, 188.320
368.071, 30.321
369.424, 51.658
370.777, 133.168
372.129, 64.480
373.481, 85.755
374.833, 97.381
376.185, 158.574
377.537, 159.683
378.888, 20.782
380.239, 51.860
381.590, 6.202
382.941, 144.829
384.291, 115.851
385.642, 148.100
386.992, 109.073
388.341, 50.070
389.691, 191.052
391.040, 101.991
392.389, 145.803
393.738, 106.703
395.087, 37.677
396.435, 138.927
397.784, 0.188
399.132, 61.310
400.479, 82.348
401.827, 73.462
403.174, 154.526
404.521, 106.082
405.868, 307.232
407.215, 52.016
408.561, 148.695
409.908, 99.645
411.254, 131.296
412.599, 112.745
413.945, 3.385
415.290, 183.982
416.636, 54.677
417.980, 65.695
419.325, 226.385
420.670, 16.906
422.014, 97.697
423.358, 41.837
424.702, 48.774
426.045, 79.164
427.389, 69.722
428.732, 170.264
430.075, 70.629
431.417, 151.160
432.760, 51.443
434.102, 151.710
435.444, 152.398
436.786, 47.355
438.127, 193.156
439.469, 203.321
440.810, 133.470
442.151, 203.879
443.492, 83.527
444.832, 274.338
446.172, 172.677
447.512, 122.738
448.852, 242.854
450.192, 122.317
451.531, 212.389
452.870, 27.610
454.209, 192.325
455.548, 222.144
456.887, 160.710
458.225, 270.771
459.563, 74.894
460.901, 184.971
462.238, 263.898
463.576, 81.498
464.913, 260.584
466.250, 100.346
467.587, 310.083
468.923, 305.772
470.259, 195.465
471.596, 121.507
472.931, 157.924
474.267, 237.781
475.603, 102.793
476.938, 142.417
478.273, 271.975
479.608, 141.510
480.942, 181.454
482.276, 64.210
483.611, 325.201
484.944, 98.582
486.278, 97.947
487.612, 287.298
488.945, 46.608
490.278, 225.661
491.611, 144.371
492.943, 83.616
494.276, 173.156
495.608, 192.274
496.940, 211.449
498.271, 90.262
499.603, 189.390
500.934, 245.284
502.265, 104.379
503.596, 153.439
504.927, 273.128
506.257, 222.143
507.587, 181.454
508.917, 190.631
510.247, 204.945
511.577, 164.375
512.906, 183.288
514.235, 192.124
515.564, 10.993
516.892, 188.700
518.221, 137.510
519.549, 286.297
520.877, 14.923
522.205, 133.794
523.533, 252.488
524.860, 71.160
526.187, 189.809
527.514, 48.435
528.841, 196.678
530.167, 95.245
531.493, 133.799
532.820, 132.332
534.145, 61.158
535.471, 142.264
536.796, 230.729
538.122, 160.329
539.447, 197.818
540.771, 36.369
542.096, 172.289
543.420, 282.693
544.744, 21.322
546.068, 269.622
547.392, 206.945
548.715, 775.104
550.039, 253.565
551.362, 8.148
552.684, 230.023
554.007, 138.609
555.329, 83.366
556.652, 181.807
557.973, 57.408
559.295, 115.216
560.617, 93.306
561.938, 101.511
563.259, 49.497
564.580, 80.907
565.901, 178.842
567.221, 170.984
568.541, 99.178
569.861, 36.999
571.181, 45.171
572.501, 162.974
573.820, 208.174
575.139, 142.012
576.458, 69.106
577.777, 126.719
579.095, 254.422
580.414, 90.104
581.732, 187.646
583.049, 109.819
584.367, 216.624
585.685, 103.930
587.002, 101.040
588.319, 138.602
589.636, 95.656
590.952, 163.268
592.268, 159.812
593.585, 58.108
594.900, 205.564
596.216, 66.850
597.532, 244.391
598.847, 221.787
600.162, 79.119
601.477, 146.475
602.792, 33.424
604.106, 181.711
605.420, 169.230
606.734, 126.407
608.048, 238.362
609.361, 135.495
610.675, 152.726
611.988, 165.050
613.301, 102.243
614.614, 199.419
615.926, 96.582
617.238, 313.727
618.550, 80.356
619.862, 217.486
621.174, 254.604
622.485, 141.318
623.797, 364.828
625.108, 271.688
626.418, 268.747
627.729, 415.807
629.039, 172.848
630.349, 300.342
631.659, 87.378
632.969, 234.395
634.279, 131.244
635.588, 148.237
636.897, 265.385
638.206, 42.333
639.515, 259.280
640.823, 329.726
642.131, 236.661
643.439, 203.638
644.747, 130.393
646.055, 277.306
647.362, 313.476
648.669, 100.357
649.976, 337.253
651.283, 53.861
652.589, 390.695
653.896, 177.716
655.202, 164.519
656.508, 241.083
657.814, 237.857
659.119, 124.659
660.424, 311.285
661.729, 18.058
663.034, 244.815
664.339, 53.872
665.643, 80.598
666.947, 157.308
668.251, 24.023
669.555, 230.731
670.859, 137.425
672.162, 234.113
673.465, 149.172
674.768, 215.839
676.071, 252.469
677.373, 119.112
678.676, 192.665
679.978, 219.238
681.280, 205.843
682.581, 592.110
683.883, 368.688
685.184, 174.636
686.485, 131.189
687.786, 117.516
689.087, 123.989
690.387, 40.441
691.687, 23.486
692.987, 182.947
694.287, 0.601
695.586, 175.829
696.886, 52.251
698.185, 187.778
699.484, 15.814
700.783, 40.562
702.081, 225.666
703.379, 127.981
704.677, 68.281
705.975, 54.534
707.273, 90.772
708.570, 144.111
709.868, 10.328
711.165, 103.556
712.462, 22.227
713.758, 158.346
715.055, 163.824
716.351, 69.734
717.647, 25.557
718.943, 201.385
720.238, 43.301
721.533, 192.369
722.829, 58.396
724.124, 24.441
725.418, 230.215
726.713, 15.264
728.007, 100.486
729.301, 216.490
730.595, 87.506
731.889, 428.352
733.182, 13.857
734.476, 109.641
735.769, 115.562
737.061, 91.193
738.354, 57.109
739.647, 63.824
740.939, 169.752
742.231, 195.465
743.523, 91.160
744.814, 157.006
746.106, 62.672
747.397, 228.566
748.688, 5.539
749.978, 179.908
751.269, 105.783
752.559, 51.342
753.849, 217.229
755.139, 173.107
756.429, 118.701
757.719, 334.568
759.008, 10.287
760.297, 25.561
761.586, 151.400
762.875, 72.842
764.163, 412.947
765.451, 78.680
766.739, 44.457
768.027, 240.248
769.315, 75.869
770.602, 151.650
771.890, 187.240
773.177, 113.014
774.463, 138.531
775.750, 74.297
777.036, 280.057
778.323, 104.186
779.609, 211.512
780.894, 217.205
782.180, 142.896
783.465, 308.580
784.750, 5.738
786.035, 229.934
787.320, 105.369
788.605, 81.033
789.889, 366.648
791.173, 22.305
792.457, 97.955
793.741, 133.170
795.024, 78.814
796.307, 274.480
797.591, 10.146
798.873, 185.807
800.156, 131.455
801.439, 77.117
802.721, 192.781
804.003, 48.314
805.285, 63.969
806.566, 199.307
807.848, 4.959
809.129, 180.607
810.410, 146.254
811.691, 231.898
812.971, 144.162
814.252, 159.793
815.532, 265.438
816.812, 352.324
818.092, 42.037
819.371, 303.270
820.651, 168.686
821.930, 194.299
823.209, 242.227
824.488, 247.836
825.766, 385.250
827.045, 220.859
828.323, 316.807
829.601, 283.486
830.878, 239.150
832.156, 504.736
833.433, 501.135
834.710, 996.746
835.987, 1792.357
837.264, 2807.967
838.540, 3993.580
839.817, 2589.254
841.093, 1394.867
842.369, 1050.482
843.644, 576.129
844.920, 481.455
846.195, 504.771
847.470, 110.414
848.745, 324.959
850.020, 310.660
851.294, 256.105
852.568, 331.809
853.842, 125.457
855.116, 290.885
856.390, 206.613
857.663, 353.297
858.936, 408.857
860.209, 164.365
861.482, 410.027
862.755, 315.775
864.027, 141.088
865.299, 249.488
866.571, 264.922
867.843, 330.693
869.115, 206.477
870.386, 22.133
871.657, 437.611
872.928, 173.408
874.199, 465.758
875.470, 191.568
876.740, 67.223
878.010, 702.746
879.280, 108.576
880.550, 304.086
881.820, 259.959
883.089, 285.836
884.358, 355.652
885.627, 171.541
886.896, 217.115
888.164, 123.014
889.433, 208.916
890.701, 344.820
891.969, 29.393
893.236, 26.416
894.504, 162.328
895.771, 118.252
897.038, 164.176
898.305, 330.109
899.572, 205.955
900.838, 311.896
902.105, 167.031
903.371, 192.990
904.637, 108.953
905.902, 194.803
907.168, 310.779
908.433, 346.760
909.698, 172.748
910.963, 318.740
912.228, 163.770
913.492, 349.559
914.757, 115.568
916.021, 206.895
917.285, 322.910
918.548, 38.934
919.812, 454.836
921.075, 60.865
922.338, 206.902
923.601, 152.941
924.864, 138.984
926.126, 215.031
927.388, 301.084
928.650, 17.143
929.912, 403.203
931.174, 222.854
932.435, 398.924
933.697, 184.998
934.958, 31.078
936.218, 257.162
937.479, 162.682
938.739, 308.771
940.000, 284.869
941.260, 40.971
942.520, 287.076
943.779, 223.021
945.039, 199.133
946.298, 255.252
947.557, 301.373
948.816, 97.865
950.074, 303.799
951.333, 169.938
952.591, 328.102
953.849, 94.248
955.107, 360.396
956.365, 286.529
957.622, 102.689
958.879, 279.145
960.136, 185.113
961.393, 21.285
962.650, 347.859
963.906, 145.957
965.162, 350.908
966.418, 297.594
967.674, 56.273
968.930, 410.240
970.185, 94.057
971.441, 80.188
972.696, 136.742
973.950, 77.121
975.205, 118.996
976.459, 54.883
977.714, 21.223
978.968, 12.504
980.222, 36.367
981.475, 9.762
982.729, 355.920
983.982, 27.916
985.235, 268.602
986.488, 184.938
987.740, 161.104
988.993, 108.160
990.245, 14.365
991.497, 230.711
992.749, 187.336
994.000, 23.619
995.252, 296.543
996.503, 7.168
997.754, 389.133
999.005, 129.219
1000.256, 265.551
1001.506, 661.885
1002.756, 248.217
1004.006, 394.580
1005.256, 275.006
1006.506, 291.418
1007.755, 337.832
1009.005, 214.658
1010.254, 131.164
1011.502, 357.674
1012.751, 184.668
1014.000, 371.217
1015.248, 111.123
1016.496, 377.701
1017.744, 564.488
1018.991, 192.012
1020.239, 488.590
1021.486, 555.480
1022.733, 442.912
1023.980, 569.490
1025.227, 327.338
1026.473, 524.691
1027.719, 591.744
1028.965, 180.049
1030.211, 836.635
1031.457, 640.150
1032.702, 356.840
1033.948, 573.414
1035.193, 241.111
1036.438, 577.711
1037.682, 494.613
1038.927, 571.285
1040.171, 697.873
1041.415, 545.395
1042.659, 551.551
1043.903, 758.154
1045.146, 665.764
1046.390, 1052.355
1047.633, 1299.709
1048.876, 1616.541
1050.118, 3013.188
1051.361, 5081.498
1052.603, 19199.148
1053.845, 42485.816
1055.087, 40333.605
1056.329, 19760.254
1057.571, 6776.900
1058.812, 2914.291
1060.053, 1960.910
1061.294, 1158.264
1062.535, 974.973
1063.775, 941.568
1065.016, 498.152
1066.256, 834.744
1067.496, 671.326
1068.736, 568.166
1069.975, 744.723
1071.214, 401.980
1072.454, 508.508
1073.693, 725.021
1074.931, 531.594
1076.170, 908.080
1077.408, 525.322
1078.647, 441.777
1079.885, 628.217
1081.122, 275.428
1082.360, 662.072
1083.597, 418.496
1084.835, 395.225
1086.072, 801.615
1087.308, 387.992
1088.545, 524.953
1089.781, 431.301
1091.018, 398.053
1092.254, 634.363
1093.490, 300.660
1094.725, 337.057
1095.961, 593.318
1097.196, 89.564
1098.431, 307.691
1099.666, 443.896
1100.900, 29.270
1102.135, 426.879
1103.369, 253.010
1104.603, 441.115
1105.837, 447.211
1107.071, 123.287
1108.304, 580.018
1109.538, 206.059
1110.771, 103.078
1112.004, 350.006
1113.236, 19.387
1114.469, 65.930
1115.701, 262.035
1116.933, 106.061
1118.165, 362.955
1119.397, 218.848
1120.629, 105.203
1121.860, 481.340
1123.091, 254.367
1124.322, 460.666
1125.553, 444.674
1126.783, 170.457
1128.014, 523.639
1129.244, 228.311
1130.474, 215.348
1131.704, 387.453
1132.933, 142.342
1134.163, 189.451
1135.392, 435.379
1136.621, 20.973
1137.850, 605.576
1139.079, 211.070
1140.307, 147.625
1141.535, 750.227
1142.763, 83.725
1143.991, 592.918
1145.219, 408.557
1146.446, 196.119
1147.674, 685.188
1148.901, 311.055
1150.128, 376.396
1151.354, 478.988
1152.581, 35.266
1153.807, 498.789
1155.033, 434.932
1156.259, 209.859
1157.485, 388.465
1158.710, 474.537
1159.936, 200.041
1161.161, 575.076
1162.386, 9.398
1163.611, 595.289
1164.835, 281.025
1166.060, 105.979
1167.284, 631.707
1168.508, 257.746
1169.732, 132.242
1170.955, 618.154
1172.179, 62.990
1173.402, 157.832
1174.625, 235.143
1175.848, 29.428
1177.070, 494.162
1178.293, 60.588
1179.515, 323.506
1180.737, 438.346
1181.959, 94.965
1183.181, 519.611
1184.402, 285.066
1185.624, 338.949
1186.845, 583.877
1188.066, 140.775
1189.286, 234.529
1190.507, 494.080
1191.727, 128.795
1192.947, 452.416
1194.167, 225.648
1195.387, 349.633
1196.607, 463.416
1197.826, 77.758
1199.045, 171.145
1200.264, 654.859
1201.483, 138.875
1202.702, 582.109
1203.920, 466.348
1205.138, 229.496
1206.356, 572.592
1207.574, 236.561
1208.792, 389.561
1210.009, 712.578
1211.227, 555.730
1212.444, 418.596
1213.661, 651.684
1214.877, 354.457
1216.094, 567.188
1217.310, 249.869
1218.526, 562.500
1219.742, 825.088
1220.958, 407.633
1222.173, 800.133
1223.389, 242.588
1224.604, 434.992
1225.819, 877.354
1227.034, 249.672
1228.248, 381.939
1229.463, 734.162
1230.677, 356.352
1231.891, 468.486
1233.105, 670.590
1234.318, 292.658
1235.532, 1034.689
1236.745, 336.689
1237.958, 468.654
1239.171, 840.580
1240.384, 412.469
1241.596, 474.314
1242.809, 516.129
1244.021, 87.539
1245.233, 699.266
1246.444, 290.955
1247.656, 620.588
1248.867, 652.201
1250.079, 83.779
1251.290, 735.312
1252.500, 556.809
1253.711, 289.057
1254.921, 660.402
1256.132, 211.701
1257.342, 237.479
1258.552, 908.646
1259.761, 318.977
1260.971, 419.441
1262.180, 820.414
1263.389, 221.477
1264.598, 622.576
1265.807, 343.303
1267.015, 398.213
1268.223, 798.764
1269.432, 349.225
1270.640, 574.033
1271.847, 574.402
1273.055, 35.453
1274.262, 914.791
1275.470, 164.979
1276.677, 13.775
1277.883, 806.266
1279.090, 155.898
1280.296, 395.652
1281.503, 605.525
1282.709, 55.566
1283.915, 619.395
1285.120, 228.879
1286.326, 182.094
1287.531, 327.146
1288.736, 179.701
1289.941, 329.482
1291.146, 488.562
1292.350, 16.199
1293.555, 284.023
1294.759, 402.922
1295.963, 38.232
1297.167, 290.643
1298.370, 64.693
1299.574, 173.938
1300.777, 612.516
1301.980, 139.330
1303.183, 169.094
1304.386, 287.463
1305.588, 84.703
1306.790, 263.521
1307.993, 468.338
1309.195, 186.459
1310.396, 364.318
1311.598, 171.383
1312.799, 129.340
1314.000, 576.912
1315.201, 133.887
1316.402, 341.658
1317.603, 328.064
1318.803, 34.902
1320.003, 611.980
1321.203, 317.748
1322.403, 185.123
1323.603, 495.461
1324.802, 242.562
1326.002, 39.723
1327.201, 265.715
1328.400, 112.744
1329.599, 459.414
1330.797, 166.178
1331.995, 22.973
1333.194, 508.766
1334.392, 25.096
1335.589, 171.488
1336.787, 477.008
1337.985, 246.508
1339.182, 309.152
1340.379, 345.279
1341.576, 108.471
1342.772, 466.062
1343.969, 321.193
1345.165, 237.250
1346.361, 502.127
1347.557, 158.088
1348.753, 433.996
1349.949, 479.107
1351.144, 184.938
1352.339, 729.984
1353.534, 385.639
1354.729, 341.363
1355.924, 747.059
1357.118, 332.730
1358.312, 628.381
1359.506, 1023.736
1360.700, 549.352
1361.894, 1134.238
1363.088, 910.518
1364.281, 636.127
1365.474, 1361.676
1366.667, 897.672
1367.860, 702.576
1369.052, 1398.295
1370.245, 974.201
1371.437, 1269.160
1372.629, 1775.051
1373.821, 1173.270
1375.013, 2326.082
1376.204, 1974.832
1377.395, 1852.916
1378.586, 2291.111
1379.777, 1879.559
1380.968, 1868.070
1382.159, 2054.520
1383.349, 1472.227
1384.539, 1478.428
1385.729, 1516.684
1386.919, 664.145
1388.109, 1320.146
1389.298, 687.520
1390.487, 695.301
1391.676, 1242.072
1392.865, 509.018
1394.054, 626.186
1395.242, 943.805
1396.431, 122.240
1397.619, 710.398
1398.807, 835.902
1399.995, 27.275
1401.182, 718.760
1402.370, 493.232
1403.557, 427.566
1404.744, 713.465
1405.931, 201.428
1407.118, 258.020
1408.304, 811.715
1409.490, 43.584
1410.676, 642.680
1411.862, 733.854
1413.048, 51.477
1414.234, 992.242
1415.419, 394.141
1416.604, 277.607
1417.789, 891.793
1418.974, 32.885
1420.159, 385.932
1421.343, 620.115
1422.528, 340.471
1423.712, 653.338
1424.896, 652.016
1426.079, 72.092
1427.263, 821.113
1428.446, 313.668
1429.629, 259.793
1430.812, 983.225
1431.995, 56.020
1433.178, 298.189
1434.360, 930.482
1435.543, 15.830
1436.725, 547.477
1437.907, 610.664
1439.088, 174.270
1440.270, 797.812
1441.451, 541.279
1442.632, 474.674
1443.813, 957.992
1444.994, 321.234
1446.175, 594.363
1447.355, 1087.348
1448.535, 400.150
1449.715, 882.764
1450.895, 935.215
1452.075, 547.477
1453.255, 1489.568
1454.434, 981.453
1455.613, 643.135
1456.792, 1482.037
1457.971, 773.588
1459.149, 1042.934
1460.328, 1714.527
1461.506, 684.633
1462.684, 1445.625
1463.862, 1545.039
1465.040, 684.984
1466.217, 1726.652
1467.395, 1298.188
1468.572, 1066.336
1469.749, 1817.719
1470.925, 1219.105
1472.102, 1373.828
1473.278, 1865.918
1474.455, 876.004
1475.631, 1678.191
1476.807, 1465.766
1477.982, 1087.273
1479.158, 1809.039
1480.333, 1410.684
1481.508, 1092.211
1482.683, 1653.629
1483.858, 1084.945
1485.033, 996.180
1486.207, 1567.344
1487.381, 698.570
1488.555, 1150.297
1489.729, 1412.098
1490.903, 204.793
1492.076, 1097.879
1493.250, 791.270
1494.423, 315.320
1495.596, 1030.137
1496.769, 645.449
1497.941, 301.332
1499.114, 927.746
1500.286, 114.832
1501.458, 212.785
1502.630, 821.797
1503.802, 17.973
1504.973, 193.613
1506.145, 576.750
1507.316, 41.695
1508.487, 478.867
1509.657, 208.820
1510.828, 124.434
1511.999, 605.230
1513.169, 145.379
1514.339, 1.945
1515.509, 0.000
##END=



