##NAMES=Cerussite
##RRUFFID=R050298
##IDEAL CHEMISTRY=Pb^2+^CO_3_
##LOCALITY=Bunker Hill mine, Shoshone County, Idaho, USA
##OWNER=RRUFF
##SOURCE=Eugene Schlepp
##DESCRIPTION=Group of colorless tabular crystals
##STATUS=The identification of this mineral has been confirmed by X-ray diffraction and chemical analysis
##URL=rruff.info/R050298
##MEASURED CHEMISTRY=Pb_1.00_CO_3_
##PIN_ID=L00742
##ORIENTATION=Laser parallel to -a* (-1 0 0). Fiducial mark perpendicular to laser is parallel to b [0 1 0]
51.43100, 0.0000000E+00
52.67100, 9.312378
53.91000, 27.62778
55.14900, 28.38419
56.38700, 61.38898
57.62600, 35.88019
58.86400, 15.70547
60.10300, 1.109253
61.34100, 10.67349
62.57900, 7.102966
63.81700, 1.508881
65.05400, 2.007813
66.29200, 23.35846
67.52900, 40.46631
68.76700, 39.26532
70.00400, 50.69836
71.24100, 38.71448
72.47700, 12.26526
73.71400, 50.30646
74.95100, 100.7989
76.18700, 117.7086
77.42300, 192.0054
78.65900, 242.6633
79.89500, 245.6596
81.13100, 363.9744
82.36700, 423.5900
83.60200, 503.4900
84.83700, 550.6603
86.07200, 627.0881
87.30800, 754.7618
88.54200, 845.6699
89.77700, 963.7955
91.01200, 1053.255
92.24600, 1132.888
93.48000, 1229.303
94.71400, 1279.142
95.94800, 1368.135
97.18200, 1442.274
98.41600, 1471.555
99.64900, 1501.971
100.8830, 1620.520
102.1160, 1594.195
103.3490, 1726.994
104.5820, 1815.914
105.8150, 1831.953
107.0470, 1908.107
108.2800, 1934.374
109.5120, 1949.753
110.7440, 1914.240
111.9760, 1902.834
113.2080, 1919.531
114.4400, 1966.319
115.6710, 2037.372
116.9030, 2145.220
118.1340, 2259.308
119.3650, 2424.494
120.5960, 2594.775
121.8270, 2863.148
123.0580, 3183.604
124.2880, 3531.144
125.5190, 4025.746
126.7490, 4439.359
127.9790, 5104.977
129.2090, 5884.600
130.4390, 6539.228
131.6680, 7316.871
132.8980, 7836.551
134.1270, 8482.275
135.3560, 8597.034
136.5850, 8501.828
137.8140, 7914.662
139.0430, 7399.546
140.2710, 6787.466
141.5000, 6127.431
142.7280, 5549.436
143.9560, 4966.500
145.1840, 4552.612
146.4120, 4184.771
147.6390, 3846.979
148.8670, 3554.228
150.0940, 3410.518
151.3210, 3228.866
152.5490, 3057.267
153.7750, 2951.719
155.0020, 2828.218
156.2290, 2645.769
157.4550, 2524.387
158.6810, 2446.047
159.9080, 2257.753
161.1340, 2106.512
162.3590, 1903.336
163.5850, 1871.207
164.8110, 1772.141
166.0360, 1669.123
167.2610, 1637.146
168.4860, 1615.211
169.7110, 1563.323
170.9360, 1513.475
172.1610, 1498.668
173.3850, 1547.895
174.6100, 1560.182
175.8340, 1609.511
177.0580, 1507.877
178.2820, 1494.276
179.5050, 1489.706
180.7290, 1494.167
181.9520, 1405.666
183.1760, 1370.215
184.3990, 1323.808
185.6220, 1244.588
186.8450, 1186.359
188.0670, 1143.038
189.2900, 1096.712
190.5120, 1064.884
191.7340, 1036.675
192.9560, 1012.463
194.1780, 994.7623
195.4000, 971.1196
196.6220, 924.9875
197.8430, 876.8809
199.0640, 843.1295
200.2860, 838.2803
201.5070, 854.3896
202.7270, 826.4407
203.9480, 832.4182
205.1690, 720.3999
206.3890, 734.3618
207.6090, 666.6714
208.8290, 653.2585
210.0490, 674.4464
211.2690, 670.5065
212.4890, 673.1284
213.7080, 616.8347
214.9280, 615.6583
216.1470, 601.0806
217.3660, 584.9506
218.5850, 594.8962
219.8030, 552.8846
221.0220, 558.9285
222.2400, 533.0255
223.4590, 527.7502
224.6770, 519.4409
225.8950, 510.6866
227.1120, 505.9784
228.3300, 467.3162
229.5480, 483.9246
230.7650, 417.3472
231.9820, 461.8103
233.1990, 496.3130
234.4160, 439.0920
235.6330, 460.7476
236.8490, 508.3610
238.0660, 454.7108
239.2820, 494.3931
240.4980, 418.1088
241.7140, 440.3101
242.9300, 453.0918
244.1460, 452.9045
245.3610, 443.7479
246.5770, 467.6208
247.7920, 449.5229
249.0070, 446.5863
250.2220, 401.5449
251.4370, 415.5309
252.6510, 370.1854
253.8660, 298.2246
255.0800, 320.2896
256.2940, 315.5106
257.5080, 323.0842
258.7220, 345.7102
259.9360, 318.9854
261.1490, 265.3394
262.3630, 287.5487
263.5760, 261.7844
264.7890, 235.2068
266.0020, 255.4812
267.2150, 210.7617
268.4270, 186.1345
269.6400, 189.4209
270.8520, 211.6482
272.0640, 187.0355
273.2760, 143.4299
274.4880, 188.2852
275.7000, 157.3459
276.9120, 222.7988
278.1230, 139.2031
279.3340, 171.7520
280.5450, 132.2646
281.7560, 162.7585
282.9670, 155.3102
284.1780, 168.8799
285.3880, 98.61780
286.5980, 134.2228
287.8090, 117.8484
289.0190, 130.5812
290.2290, 116.2435
291.4380, 90.92249
292.6480, 90.62036
293.8570, 92.33447
295.0670, 63.10986
296.2760, 76.95251
297.4850, 92.92834
298.6930, 87.71191
299.9020, 91.98743
301.1110, 67.80261
302.3190, 60.65369
303.5270, 61.49756
304.7350, 75.35852
305.9430, 49.23340
307.1510, 70.12158
308.3580, 36.02563
309.5660, 31.97852
310.7730, 65.95300
311.9800, 27.80786
313.1870, 18.76306
314.3940, 78.70850
315.6010, 60.69019
316.8070, 23.68323
318.0130, 11.31250
319.2200, 55.70203
320.4260, 9.156738
321.6310, 78.88342
322.8370, 42.93628
324.0430, 19.00061
325.2480, 6.928711
326.4540, 23.15259
327.6590, 21.38623
328.8640, 8.486816
330.0680, 15.59705
331.2730, 17.71545
332.4780, 45.84229
333.6820, 30.97791
334.8860, 55.12024
336.0900, 28.27100
337.2940, 21.43030
338.4980, 14.59802
339.7010, 8.773926
340.9050, 7.957886
342.1080, 5.150024
343.3110, 19.34973
344.5140, 16.56555
345.7170, 18.11890
346.9200, 16.04688
348.1220, 19.31250
349.3240, 10.59534
350.5270, 15.89526
351.7290, 22.78760
352.9310, 4.542236
354.1320, 16.89087
355.3340, 20.74438
356.5350, 1.370483
357.7370, 31.98315
358.9380, 4.561523
360.1390, 21.15784
361.3400, 24.25293
362.5400, 0.3233640
363.7410, 34.11230
364.9410, 13.55994
366.1410, 23.01953
367.3410, 18.50952
368.5410, 16.03296
369.7410, 13.44971
370.9400, 22.94299
372.1400, 23.21692
373.3390, 7.739990
374.5380, 31.78210
375.7370, 2.318848
376.9360, 31.90051
378.1350, 30.54370
379.3330, 1.989014
380.5310, 7.574585
381.7300, 17.85303
382.9280, 17.72253
384.1260, 19.30530
385.3230, 11.10388
386.5210, 15.91418
387.7180, 6.551758
388.9160, 6.162231
390.1130, 18.78027
391.3100, 44.40552
392.5060, 23.96191
393.7030, 4.667236
394.9000, 8.303345
396.0960, 32.99561
397.2920, 39.63916
398.4880, 15.28052
399.6840, 5.1146999E-02
400.8800, 7.398926
402.0750, 7.704224
403.2710, 1.175537
404.4660, 40.16541
405.6610, 8.479980
406.8560, 6.131104
408.0510, 0.7872310
409.2450, 46.44653
410.4400, 15.77417
411.6340, 4.886230
412.8280, 14.44653
414.0220, 31.68262
415.2160, 7.965942
416.4100, 11.61877
417.6030, 22.72400
418.7970, 25.75464
419.9900, 13.88367
421.1830, 11.86621
422.3760, 7.981079
423.5690, 15.62256
424.7610, 11.67676
425.9540, 44.43298
427.1460, 17.10278
428.3380, 14.23584
429.5300, 30.41895
430.7220, 22.75903
431.9140, 11.97156
433.1050, 41.69458
434.2970, 24.35522
435.4880, 33.55725
436.6790, 19.22351
437.8700, 28.01526
439.0610, 10.28333
440.2510, 8.645386
441.4420, 64.42529
442.6320, 2.500000
443.8220, 20.14526
445.0120, 17.79224
446.2020, 31.45850
447.3910, 27.82312
448.5810, 35.48962
449.7700, 27.14258
450.9600, 25.36572
452.1490, 19.57666
453.3370, 5.419556
454.5260, 2.750732
455.7150, 4.131348
456.9030, 3.498901
458.0910, 40.12549
459.2800, 61.75061
460.4670, 34.37634
461.6550, 30.85828
462.8430, 18.70740
464.0300, 26.82690
465.2180, 55.21692
466.4050, 66.84326
467.5920, 93.21814
468.7790, 30.76562
469.9650, 19.39270
471.1520, 52.01807
472.3380, 83.69861
473.5250, 33.32654
474.7110, 65.95422
475.8970, 56.58179
477.0820, 79.23022
478.2680, 60.85706
479.4540, 54.48389
480.6390, 71.11011
481.8240, 50.73584
483.0090, 60.36096
484.1940, 75.99170
485.3780, 61.61548
486.5630, 84.23865
487.7470, 58.86121
488.9320, 89.48291
490.1160, 99.10400
491.3000, 111.7241
492.4830, 76.34290
493.6670, 89.96045
494.8500, 67.05493
496.0340, 58.67871
497.2170, 56.57300
498.4000, 40.62781
499.5820, 53.92822
500.7650, 32.50269
501.9480, 53.02600
503.1300, 76.01562
504.3120, 77.72778
505.4940, 86.31409
506.6760, 75.91394
507.8580, 109.5117
509.0390, 89.10742
510.2210, 88.12451
511.4020, 52.22302
512.5830, 65.81189
513.7640, 20.39844
514.9450, 73.97961
516.1250, 55.43799
517.3060, 75.14648
518.4860, 35.77502
519.6660, 60.34607
520.8460, 76.88879
522.0260, 114.6278
523.2060, 108.9966
524.3850, 39.04956
525.5650, 85.62122
526.7440, 64.17603
527.9230, 17.27441
529.1020, 35.81921
530.2810, 45.43311
531.4590, 72.97864
532.6380, 68.99597
533.8160, 86.04614
534.9940, 50.44250
536.1720, 69.96814
537.3500, 34.49048
538.5270, 56.36743
539.7050, 40.88257
540.8820, 37.39429
542.0590, 44.81299
543.2360, 34.85889
544.4130, 23.87268
545.5900, 72.25696
546.7660, 51.58167
547.9430, 48.07031
549.1190, 53.55139
550.2950, 40.86426
551.4710, 28.34253
552.6470, 43.83350
553.8220, 38.26733
554.9980, 27.76355
556.1730, 48.35461
557.3480, 36.80139
558.5230, 43.25671
559.6980, 15.26672
560.8730, 36.08557
562.0470, 5.527954
563.2220, 18.05945
564.3960, 37.57361
565.5700, 28.56982
566.7440, 9.028198
567.9170, 33.27771
569.0910, 36.68738
570.2640, 58.03845
571.4380, 3.720581
572.6110, 5.707153
573.7840, 33.00354
574.9570, 58.38379
576.1290, 6.760376
577.3020, 50.22388
578.4740, 25.58838
579.6460, 24.93115
580.8180, 8.809204
581.9900, 20.32336
583.1620, 7.754761
584.3330, 51.60815
585.5040, 49.93298
586.6760, 29.25134
587.8470, 0.5687260
589.0180, 29.87622
590.1880, 52.17993
591.3590, 3.497559
592.5290, 3.789063
593.7000, 10.04346
594.8700, 60.27869
596.0400, 36.64209
597.2090, 45.91406
598.3790, 50.20398
599.5490, 39.96191
600.7180, 38.72437
601.8870, 29.97937
603.0560, 12.23169
604.2250, 0.3636470
605.3940, 2.398926
606.5620, 32.82935
607.7300, 21.12329
608.8990, 35.34546
610.0670, 33.56482
611.2350, 61.63843
612.4020, 22.85107
613.5700, 54.68152
614.7370, 51.88647
615.9050, 34.08948
617.0720, 27.28918
618.2390, 33.48499
619.4060, 79.73950
620.5720, 46.92908
621.7390, 57.11902
622.9050, 47.30530
624.0710, 29.48792
625.2370, 48.66699
626.4030, 77.86536
627.5690, 74.03979
628.7340, 58.27710
629.9000, 65.51013
631.0650, 67.67444
632.2300, 47.83997
633.3950, 52.00903
634.5600, 20.17456
635.7240, 29.33887
636.8890, 73.49963
638.0530, 44.65649
639.2170, 66.81274
640.3810, 30.96545
641.5450, 43.26416
642.7080, 36.49634
643.8720, 17.70776
645.0350, 63.85339
646.1980, 59.99548
647.3610, 47.13403
648.5240, 75.26904
649.6870, 38.40259
650.8490, 45.53516
652.0120, 60.66675
653.1740, 53.79468
654.3360, 51.62012
655.4980, 16.74097
656.6600, 10.13757
657.8210, 22.11536
658.9830, 76.18481
660.1440, 9.286133
661.3050, 7.387695
662.4660, 61.48413
663.6270, 66.74792
664.7870, 27.83948
665.9480, 35.92896
667.1080, 52.01501
668.2680, 47.67627
669.4280, 18.76440
670.5880, 28.84192
671.7480, 41.91589
672.9070, 55.01318
674.0670, 147.0804
675.2260, 179.1497
676.3850, 200.2157
677.5440, 125.2201
678.7030, 71.28674
679.8610, 78.35010
681.0200, 21.38977
682.1780, 30.44727
683.3360, 81.46277
684.4940, 100.2936
685.6520, 75.34705
686.8090, 74.40698
687.9670, 34.46375
689.1240, 51.51746
690.2810, 66.56934
691.4380, 28.50317
692.5950, 59.55334
693.7520, 46.59802
694.9080, 158.5439
696.0650, 268.5984
697.2210, 275.6499
698.3770, 210.6987
699.5330, 146.4302
700.6880, 54.48682
701.8440, 20.93286
702.9990, 9.778320
704.1550, 20.17041
705.3100, 39.81555
706.4650, 24.61072
707.6190, 60.39734
708.7740, 12.41431
709.9290, 1.432861
711.0830, 5.234741
712.2370, 42.16650
713.3910, 45.16650
714.5450, 42.17224
715.6980, 10.63660
716.8520, 40.63647
718.0050, 17.54138
719.1580, 60.46667
720.3110, 32.18982
721.4640, 9.060425
722.6170, 50.63562
723.7700, 48.63745
724.9220, 17.63721
726.0740, 24.61694
727.2260, 52.89758
728.3780, 85.87585
729.5300, 16.86670
730.6810, 36.28687
731.8330, 18.71814
732.9840, 47.35547
734.1350, 60.34314
735.2860, 69.37134
736.4370, 69.86365
737.5880, 59.35864
738.7380, 61.35168
739.8880, 56.73694
741.0390, 47.33215
742.1890, 51.09729
743.3380, 45.47900
744.4880, 42.74390
745.6380, 6.730835
746.7870, 43.63306
747.9360, 80.64221
749.0850, 67.69324
750.2340, 31.66968
751.3830, 9.410522
752.5310, 41.55737
753.6800, 25.90552
754.8280, 16.88745
755.9760, 36.86646
757.1240, 7.027588
758.2720, 67.00208
759.4190, 35.81274
760.5670, 33.76892
761.7140, 34.73633
762.8610, 38.69226
764.0080, 11.64404
765.1550, 40.16821
766.3020, 7.116821
767.4480, 7.204346
768.5950, 29.18933
769.7410, 22.24402
770.8870, 37.07227
772.0330, 26.80945
773.1780, 30.55420
774.3240, 29.65356
775.4690, 35.58948
776.6140, 46.52380
777.7590, 56.45667
778.9040, 0.3856200
780.0490, 7.314575
781.1940, 9.241333
782.3380, 45.05798
783.4820, 19.98157
784.6260, 26.90381
785.7700, 60.82483
786.9140, 60.16968
788.0580, 37.08826
789.2010, 54.00549
790.3450, 40.92163
791.4880, 69.83618
792.6310, 59.75134
793.7730, 29.40564
794.9160, 1.185913
796.0590, 67.16272
797.2010, 34.07214
798.3430, 22.83911
799.4850, 29.49475
800.6270, 0.5922850
801.7690, 55.31140
802.9100, 49.20007
804.0520, 36.10193
805.1930, 39.00281
806.3340, 9.904663
807.4750, 27.73315
808.6160, 41.62585
809.7560, 11.52515
810.8970, 36.42310
812.0370, 74.32056
813.1770, 90.21704
814.3170, 47.11279
815.4570, 85.00818
816.5960, 67.90271
817.7360, 53.79651
818.8750, 60.64856
820.0140, 105.5410
821.1530, 97.43298
822.2920, 100.3422
823.4310, 157.2336
824.5690, 231.1244
825.7070, 275.0212
826.8460, 353.9106
827.9840, 293.7996
829.1220, 263.6864
830.2590, 268.5745
831.3970, 343.5475
832.5340, 441.4348
833.6710, 600.3290
834.8080, 820.2147
835.9450, 1247.100
837.0820, 1909.986
838.2190, 3262.871
839.3550, 4694.729
840.4910, 4747.477
841.6270, 3452.793
842.7630, 2213.679
843.8990, 1202.057
845.0350, 694.9442
846.1700, 468.7358
847.3060, 257.3423
848.4410, 180.7405
849.5760, 176.6428
850.7100, 108.5396
851.8450, 101.4357
852.9800, 69.23840
854.1140, 38.13599
855.2480, 51.00549
856.3820, 76.90271
857.5160, 40.80518
858.6500, 73.61218
859.7830, 57.48926
860.9170, 87.41943
862.0500, 47.30347
863.1830, 31.20581
864.3160, 41.11084
865.4480, 51.01526
866.5810, 55.90808
867.7130, 20.81409
868.8460, 51.71655
869.9780, 76.62561
871.1100, 4.534058
872.2410, 15.44153
873.3730, 30.38147
874.5050, 15.28882
875.6360, 26.19556
876.7670, 25.10242
877.8980, 20.00879
879.0290, 26.94409
880.1590, 3.854980
881.2900, 10.77246
882.4200, 28.62402
883.5500, 5.544434
884.6800, 0.4638670
885.8100, 38.38208
886.9400, 30.30127
888.0690, 20.59851
889.1990, 8.482422
890.3280, 7.432251
891.4570, 4.346313
892.5860, 4.447754
893.7140, 8.096558
894.8430, 15.98157
895.9710, 18.92017
897.1000, 8.821289
898.2280, 9.721680
899.3560, 61.62488
900.4830, 11.49573
901.6110, 50.40271
902.7380, 2.765381
903.8660, 4.066040
904.9930, 20.01990
906.1200, 29.11621
907.2460, 14.77820
908.3730, 1.671997
909.5000, 37.56506
910.6260, 30.45752
911.7520, 23.34912
912.8780, 40.24536
914.0040, 54.14795
915.1290, 64.87451
916.2550, 18.69629
917.3800, 24.53760
918.5050, 14.44019
919.6300, 50.34180
920.7550, 45.24304
921.8800, 8.854858
923.0040, 74.04688
924.1290, 17.94800
925.2530, 29.84802
926.3770, 69.74744
927.5010, 37.64722
928.6250, 15.45398
929.7480, 14.44995
930.8720, 1.786987
931.9950, 48.12366
933.1180, 1.033325
934.2410, 13.94861
935.3640, 11.86414
936.4860, 69.60791
937.6090, 45.15894
938.7310, 38.43982
939.8530, 36.35449
940.9750, 38.28308
942.0970, 59.17065
943.2180, 29.10352
944.3400, 41.03503
945.4610, 27.93909
946.5820, 53.87732
947.7030, 57.81433
948.8240, 20.75024
949.9450, 43.68506
951.0650, 22.61853
952.1860, 30.55237
953.3060, 53.48743
954.4260, 43.42126
955.5460, 100.3539
956.6650, 11.28528
957.7850, 70.21509
958.9040, 27.14429
960.0230, 14.07214
961.1420, 80.01807
962.2610, 41.01367
963.3800, 79.94214
964.4990, 52.86963
965.6170, 1.795532
966.7350, 17.71936
967.8530, 14.64148
968.9710, 47.56543
970.0890, 27.48792
971.2070, 20.41968
972.3240, 61.33899
973.4410, 43.25659
974.5580, 35.82593
975.6750, 51.14563
976.7920, 25.07117
977.9090, 5.005005
979.0250, 48.92200
980.1410, 47.84802
981.2580, 46.77246
982.3740, 3.162231
983.4890, 18.17603
984.6050, 46.00842
985.7200, 21.92871
986.8360, 49.84692
987.9510, 58.76636
989.0660, 48.68372
990.1810, 79.59924
991.2950, 72.51245
992.4100, 55.42346
993.5240, 54.33264
994.6390, 44.23950
995.7530, 34.14417
996.8660, 29.84875
997.9800, 21.56274
999.0940, 22.86047
1000.207, 19.76270
1001.320, 29.66260
1002.433, 51.56006
1003.546, 101.4634
1004.659, 64.36157
1005.772, 66.21289
1006.884, 14.09998
1007.996, 27.22046
1009.108, 73.10315
1010.220, 42.13806
1011.332, 36.02808
1012.444, 15.90381
1013.555, 23.78247
1014.666, 78.02222
1015.777, 34.72998
1016.888, 63.59448
1017.999, 36.42578
1019.110, 65.21057
1020.220, 87.44775
1021.331, 56.43604
1022.441, 58.28796
1023.551, 109.7679
1024.661, 142.5963
1025.770, 138.4016
1026.880, 79.04150
1027.989, 73.86304
1029.098, 110.8953
1030.207, 203.7253
1031.316, 197.5398
1032.425, 329.1375
1033.533, 373.9579
1034.642, 268.5826
1035.750, 223.5798
1036.858, 193.2496
1037.966, 176.4088
1039.073, 224.1012
1040.181, 253.5623
1041.288, 296.3958
1042.396, 336.1318
1043.503, 392.9491
1044.610, 459.7476
1045.716, 611.7206
1046.823, 829.1152
1047.929, 1127.911
1049.036, 1948.148
1050.142, 3113.957
1051.248, 4414.748
1052.353, 6931.515
1053.459, 12890.34
1054.564, 30175.46
1055.670, 58081.80
1056.775, 60507.56
1057.880, 37422.30
1058.985, 16342.04
1060.089, 6297.049
1061.194, 2734.798
1062.298, 1432.698
1063.402, 917.4246
1064.506, 645.0170
1065.610, 456.7355
1066.713, 326.7911
1067.817, 269.5005
1068.920, 265.1990
1070.023, 224.4760
1071.126, 185.2788
1072.229, 187.9707
1073.332, 160.1013
1074.435, 128.2163
1075.537, 158.7540
1076.639, 171.4265
1077.741, 102.0950
1078.843, 128.7971
1079.945, 136.4553
1081.046, 150.1084
1082.148, 124.7563
1083.249, 122.3994
1084.350, 105.3154
1085.451, 114.4618
1086.551, 121.0911
1087.652, 129.7155
1088.752, 122.5583
1089.853, 91.93286
1090.953, 87.64783
1092.053, 93.25146
1093.152, 39.84338
1094.252, 30.43628
1095.351, 43.12024
1096.451, 124.7958
1097.550, 84.37170
1098.649, 82.85681
1099.748, 111.4221
1100.846, 45.72485
1101.945, 99.27905
1103.043, 42.82764
1104.141, 97.37061
1105.239, 62.90820
1106.337, 33.44775
1107.434, 110.1707
1108.532, 58.69080
1109.629, 51.20544
1110.726, 93.38855
1111.823, 86.06274
1112.920, 63.56055
1114.017, 7.947388
1115.113, 57.42932
1116.210, 85.97070
1117.306, 56.43286
1118.402, 108.8894
1119.498, 132.9629
1120.593, 59.40820
1121.689, 69.84753
1122.784, 48.28101
1123.879, 126.7089
1124.974, 114.1310
1126.069, 117.5475
1127.164, 48.95813
1128.259, 67.36340
1129.353, 78.30908
1130.447, 43.70276
1131.541, 89.09058
1132.635, 69.46619
1133.729, 66.84253
1134.822, 41.21289
1135.916, 41.57764
1137.009, 90.93652
1138.102, 50.28979
1139.195, 18.60449
1140.288, 65.14233
1141.380, 22.68347
1142.473, 39.01025
1143.565, 62.33130
1144.657, 11.61804
1145.749, 7.6293997E-02
1146.841, 2.215332
1147.932, 45.49377
1149.024, 57.76648
1150.115, 51.03381
1151.206, 12.29578
1152.297, 21.54895
1153.388, 49.79504
1154.479, 35.03589
1155.569, 40.27258
1156.659, 40.50403
1157.750, 37.73010
1158.839, 47.14270
1159.929, 26.16785
1161.019, 43.38171
1162.108, 45.59058
1163.198, 1.793823
1164.287, 34.98499
1165.376, 10.17078
1166.465, 16.35022
1167.553, 59.52271
1168.642, 56.30933
1169.730, 46.81616
1170.818, 7.741089
1171.906, 24.37463
1172.994, 60.00024
1174.082, 26.10547
1175.170, 29.20544
1176.257, 5.009277
1177.344, 11.92993
1178.431, 27.13049
1179.518, 7.185669
1180.605, 22.23169
1181.691, 24.27234
1182.778, 59.30811
1183.864, 18.33911
1184.950, 8.364380
1186.036, 3.618286
1187.122, 43.38721
1188.207, 27.38831
1189.292, 59.38477
1190.378, 9.376831
1191.463, 20.36169
1192.548, 36.61511
1193.632, 58.33887
1194.717, 4.711548
1195.801, 40.22546
1196.886, 11.84192
1197.970, 26.07434
1199.054, 37.98645
1200.137, 0.8946530
1201.221, 10.79321
1202.305, 41.68616
1203.388, 45.42468
1204.471, 2.430908
1205.554, 4.721802
1206.637, 56.11377
1207.719, 27.10449
1208.802, 24.06763
1209.884, 48.73877
1210.966, 31.54114
1212.048, 14.33984
1213.130, 52.16650
1214.212, 2.957886
1215.293, 1.056030
1216.374, 22.91296
1217.456, 45.76526
1218.536, 10.64917
1219.617, 32.41516
1220.698, 5.177979
1221.778, 27.93579
1222.859, 55.69043
1223.939, 41.42261
1225.019, 32.10010
1226.099, 14.15942
1227.178, 37.57202
1228.258, 31.30054
1229.337, 34.02661
1230.417, 8.250000
1231.496, 71.46338
1232.574, 19.17432
1233.653, 14.87109
1234.732, 86.57666
1235.810, 5.279297
1236.888, 17.07275
1237.966, 41.61401
1239.044, 24.29834
1240.122, 27.98047
1241.199, 0.3378910
1242.277, 6.339355
1243.354, 41.01440
1244.431, 75.22192
1245.508, 0.8937990
1246.585, 33.56274
1247.661, 29.22974
1248.738, 11.10498
1249.814, 14.55298
1250.890, 40.20947
1251.966, 4.864258
1253.042, 11.51782
1254.117, 47.17017
1255.193, 8.821045
1256.268, 21.47095
1257.343, 43.11963
1258.418, 29.23291
1259.493, 11.39990
1260.567, 7.029785
1261.642, 70.66113
1262.716, 45.29150
1263.790, 30.92139
1264.864, 25.54248
1265.938, 62.16528
1267.011, 41.79395
1268.085, 25.42188
1269.158, 5.186035
1270.231, 5.560303
1271.304, 17.90918
1272.377, 47.52148
1273.450, 30.14526
1274.522, 31.33643
1275.594, 61.97363
1276.666, 64.75415
1277.738, 66.92554
1278.810, 96.00586
1279.882, 68.63281
1280.953, 17.87915
1282.025, 26.37231
1283.096, 39.00220
1284.167, 57.62085
1285.238, 33.25366
1286.308, 19.88770
1287.379, 31.52344
1288.449, 55.16113
1289.519, 11.74902
1290.589, 27.38989
1291.659, 24.03320
1292.729, 54.89526
1293.798, 42.54272
1294.868, 28.81274
1295.937, 15.28345
1297.006, 28.94067
1298.075, 50.20947
1299.143, 13.12720
1300.212, 13.19385
1301.280, 19.17383
1302.348, 27.49219
1303.416, 57.13892
1304.484, 24.19580
1305.552, 74.29248
1306.620, 14.35986
1307.687, 15.02661
1308.754, 53.25464
1309.821, 67.91162
1310.888, 67.58789
1311.955, 31.28882
1313.021, 50.93359
1314.088, 105.2876
1315.154, 51.00195
1316.220, 63.73022
1317.286, 98.46533
1318.352, 61.20776
1319.417, 76.68921
1320.483, 3.571045
1321.548, 30.17261
1322.613, 65.93481
1323.678, 12.70923
1324.743, 105.4761
1325.807, 117.8330
1326.872, 49.60547
1327.936, 62.38135
1329.000, 46.58398
1330.064, 35.25903
1331.128, 62.04419
1332.191, 30.38916
1333.255, 26.74634
1334.318, 38.67920
1335.381, 11.52368
1336.444, 86.27637
1337.507, 29.04248
1338.569, 12.85132
1339.632, 55.66504
1340.694, 3.516357
1341.756, 28.30713
1342.818, 14.14307
1343.880, 13.82373
1344.941, 7.581787
1346.003, 9.740234
1347.064, 5.701416
1348.125, 12.55371
1349.186, 32.30591
1350.247, 32.59790
1351.308, 46.04004
1352.368, 98.91626
1353.428, 81.79907
1354.489, 158.4976
1355.549, 178.3936
1356.608, 171.2966
1357.668, 158.2063
1358.727, 215.3723
1359.787, 235.2964
1360.846, 283.2275
1361.905, 244.1660
1362.964, 308.1123
1364.022, 272.0586
1365.081, 274.8237
1366.139, 213.7937
1367.197, 289.7717
1368.255, 194.7581
1369.313, 213.5815
1370.371, 163.5847
1371.428, 174.5962
1372.486, 188.6228
1373.543, 127.5801
1374.600, 174.6245
1375.657, 103.6780
1376.713, 193.1179
1377.770, 207.1899
1378.826, 160.2712
1379.882, 147.3618
1380.938, 168.4619
1381.994, 110.5720
1383.050, 146.6912
1384.106, 65.82031
1385.161, 96.95850
1386.216, 88.56079
1387.271, 84.71924
1388.326, 113.8877
1389.381, 38.06714
1390.435, 41.25708
1391.490, 109.4583
1392.544, 120.6707
1393.598, 65.89453
1394.652, 126.1304
1395.705, 61.37793
1396.759, 90.44043
1397.812, 152.5066
1398.866, 120.7935
1399.919, 154.0933
1400.972, 157.4065
1402.024, 178.7349
1403.077, 156.0818
1404.129, 174.4463
1405.181, 199.4556
1406.233, 242.2192
1407.285, 262.6279
1408.337, 291.0537
1409.389, 322.4956
1410.440, 387.9536
1411.491, 416.4277
1412.542, 469.9189
1413.593, 521.3369
1414.644, 516.9526
1415.695, 591.4961
1416.745, 640.0581
1417.795, 605.6396
1418.845, 598.2405
1419.895, 689.8647
1420.945, 665.8203
1421.995, 708.4888
1423.044, 684.3420
1424.093, 670.0564
1425.142, 694.8132
1426.191, 656.2769
1427.240, 726.0889
1428.289, 740.4121
1429.337, 696.2781
1430.385, 643.1724
1431.433, 640.4058
1432.481, 629.6152
1433.529, 688.3655
1434.577, 675.3850
1435.624, 721.4326
1436.672, 800.5161
1437.719, 840.6362
1438.766, 791.9517
1439.812, 874.1746
1440.859, 881.0637
1441.905, 986.3582
1442.952, 1034.722
1443.998, 1065.277
1445.044, 1068.566
1446.090, 1124.733
1447.135, 1219.743
1448.181, 1260.148
1449.226, 1398.574
1450.271, 1431.026
1451.316, 1562.495
1452.361, 1643.980
1453.405, 1730.513
1454.450, 1903.903
1455.494, 2014.484
1456.538, 2195.091
1457.582, 2309.680
1458.626, 2428.891
1459.670, 2674.336
1460.713, 2728.010
1461.757, 2875.705
1462.800, 3162.415
1463.843, 3249.150
1464.886, 3401.909
1465.928, 3537.690
1466.971, 3675.934
1468.013, 3801.316
1469.055, 3993.165
1470.097, 4175.038
1471.139, 4363.936
1472.181, 4485.851
1473.222, 4585.789
1474.263, 4702.747
1475.305, 4738.734
1476.346, 4804.740
1477.386, 4869.768
1478.427, 4872.818
1479.468, 4921.900
1480.508, 4896.012
1481.548, 4846.145
1482.588, 4653.302
1483.628, 4536.481
1484.668, 4337.686
1485.707, 4151.917
1486.747, 3898.172
1487.786, 3727.451
1488.825, 3512.752
1489.864, 3224.077
1490.902, 3099.425
1491.941, 2809.796
1492.979, 2506.190
1494.017, 2304.607
1495.055, 2168.046
1496.093, 1973.508
1497.131, 1739.987
1498.168, 1629.485
1499.206, 1449.005
1500.243, 1328.551
1501.280, 1207.120
1502.317, 1127.717
1503.354, 1005.330
1504.390, 956.9580
1505.426, 932.5969
1506.463, 757.2388
1507.499, 717.8823
1508.535, 681.5276
1509.570, 594.1848
1510.606, 547.8779
1511.641, 523.6150
1512.676, 492.3950
1513.711, 417.2229
1514.746, 375.0950
1515.781, 301.0249
1516.816, 394.0044
1517.850, 329.0315
1518.884, 300.1074
1519.918, 270.2327
1520.952, 240.4082
1521.986, 210.6350
1523.019, 196.4573
1524.053, 233.2473
1525.086, 184.6355
1526.119, 192.0793
1527.152, 214.5808
1528.185, 130.1404
1529.217, 116.7607
1530.250, 133.4426
1531.282, 124.1887
1532.314, 113.0015
1533.346, 119.8828
1534.377, 141.8364
1535.409, 117.8657
1536.440, 130.9739
1537.472, 82.16577
1538.503, 75.44580
1539.534, 102.8225
1540.564, 59.30493
1541.595, 34.90063
1542.625, 57.61426
1543.656, 49.45166
1544.686, 16.58301
1545.716, 96.51807
1546.745, 10.23853
1547.775, 42.15576
1548.804, 41.71045
1549.834, 58.43604
1550.863, 67.34497
1551.892, 54.37695
1552.920, 94.77026
1553.949, 41.32056
1554.977, 17.12280
1556.006, 41.19824
1557.034, 22.57129
1558.062, 35.30469
1559.089, 72.41772
1560.117, 98.39404
1561.144, 38.70581
1562.172, 0.6325680
1563.199, 11.38086
1564.226, 3.791016
1565.252, 36.10229
1566.279, 35.29419
1567.305, 20.14819
1568.332, 26.71167
1569.358, 28.70703
1570.384, 0.0000000E+00
##END=



