##NAMES=Cerussite
##RRUFFID=R050298
##IDEAL CHEMISTRY=Pb^2+^CO_3_
##LOCALITY=Bunker Hill mine, Shoshone County, Idaho, USA
##OWNER=RRUFF
##SOURCE=Eugene Schlepp
##DESCRIPTION=Group of colorless tabular crystals
##STATUS=The identification of this mineral has been confirmed by X-ray diffraction and chemical analysis
##URL=rruff.info/R050298
##MEASURED CHEMISTRY=Pb_1.00_CO_3_
##PIN_ID=L01888
##ORIENTATION=Laser parallel to b* (0 1 0). Fiducial mark perpendicular to laser is parallel to -c [0 0 -1]
51.43100, 0.0000000E+00
52.67100, 27.78900
53.91000, 27.18732
55.14900, 75.30746
56.38700, 49.14429
57.62600, 17.41034
58.86400, 1.273285
60.10300, 23.50262
61.34100, 18.64996
62.57900, 96.21667
63.81700, 209.7656
65.05400, 390.9359
66.29200, 635.4258
67.52900, 1031.983
68.76700, 1446.393
70.00400, 1991.476
71.24100, 2707.077
72.47700, 3278.054
73.71400, 3977.281
74.95100, 4551.651
76.18700, 4863.070
77.42300, 4744.453
78.65900, 4512.730
79.89500, 4127.835
81.13100, 3796.712
82.36700, 3569.309
83.60200, 3347.579
84.83700, 3213.482
86.07200, 3083.982
87.30800, 2956.048
88.54200, 2926.654
89.77700, 2962.759
91.01200, 2864.319
92.24600, 2848.299
93.48000, 2817.671
94.71400, 2737.417
95.94800, 2744.518
97.18200, 2818.958
98.41600, 2709.721
99.64900, 2928.793
100.8830, 2942.160
102.1160, 3034.811
103.3490, 3088.733
104.5820, 3198.918
105.8150, 3137.356
107.0470, 3178.037
108.2800, 2815.953
109.5120, 2623.096
110.7440, 2364.456
111.9760, 2180.024
113.2080, 2050.796
114.4400, 1898.764
115.6710, 1893.921
116.9030, 1843.261
118.1340, 1824.782
119.3650, 1830.501
120.5960, 1873.409
121.8270, 1853.494
123.0580, 1948.771
124.2880, 2075.237
125.5190, 2240.861
126.7490, 2339.496
127.9790, 2617.147
129.2090, 2914.783
130.4390, 3067.443
131.6680, 3362.144
132.8980, 3572.909
134.1270, 3591.780
135.3560, 3674.775
136.5850, 3523.867
137.8140, 3320.049
139.0430, 3032.329
140.2710, 2569.704
141.5000, 2360.198
142.7280, 2130.769
143.9560, 1885.427
145.1840, 1762.170
146.4120, 1606.997
147.6390, 1547.907
148.8670, 1437.904
150.0940, 1412.974
151.3210, 1322.125
152.5490, 1291.351
153.7750, 1176.662
155.0020, 1180.061
156.2290, 1110.546
157.4550, 1062.111
158.6810, 977.7495
159.9080, 913.4615
161.1340, 884.2446
162.3590, 803.0938
163.5850, 770.0154
164.8110, 741.9984
166.0360, 726.6144
167.2610, 771.1449
168.4860, 739.3086
169.7110, 733.5251
170.9360, 745.7937
172.1610, 724.1169
173.3850, 722.5083
174.6100, 719.9596
175.8340, 752.4641
177.0580, 784.0217
178.2820, 850.6265
179.5050, 784.2761
180.7290, 754.9845
181.9520, 832.7310
183.1760, 836.5139
184.3990, 832.7539
185.6220, 906.2812
186.8450, 836.8647
188.0670, 907.6045
189.2900, 970.7567
190.5120, 950.7859
191.7340, 1001.401
192.9560, 1076.595
194.1780, 1132.078
195.4000, 1148.818
196.6220, 1280.156
197.8430, 1312.755
199.0640, 1384.643
200.2860, 1558.933
201.5070, 1568.913
202.7270, 1776.206
203.9480, 1771.833
205.1690, 1986.061
206.3890, 2107.365
207.6090, 2201.806
208.8290, 2304.320
210.0490, 2518.309
211.2690, 2640.662
212.4890, 2784.060
213.7080, 2967.547
214.9280, 3025.540
216.1470, 3084.522
217.3660, 3071.113
218.5850, 3067.044
219.8030, 2842.569
221.0220, 2678.005
222.2400, 2500.979
223.4590, 2210.131
224.6770, 2002.461
225.8950, 1835.938
227.1120, 1596.195
228.3300, 1501.752
229.5480, 1356.771
230.7650, 1283.263
231.9820, 1121.237
233.1990, 1041.630
234.4160, 1067.844
235.6330, 920.8352
236.8490, 944.8942
238.0660, 805.3308
239.2820, 824.9786
240.4980, 710.1605
241.7140, 724.3145
242.9300, 689.2300
244.1460, 652.4980
245.3610, 609.5486
246.5770, 569.7871
247.7920, 525.0691
249.0070, 486.4972
250.2220, 448.8630
251.4370, 457.6510
252.6510, 435.7056
253.8660, 404.0000
255.0800, 428.0905
256.2940, 381.7039
257.5080, 397.1101
258.7220, 355.7139
259.9360, 330.0593
261.1490, 335.4807
262.3630, 281.8394
263.5760, 310.6030
264.7890, 234.4298
266.0020, 266.2444
267.2150, 209.1245
268.4270, 224.9889
269.6400, 234.6577
270.8520, 245.5714
272.0640, 193.0004
273.2760, 194.5333
274.4880, 154.2941
275.7000, 123.2964
276.9120, 132.3208
278.1230, 153.3669
279.3340, 120.9098
280.5450, 128.4563
281.7560, 62.71167
282.9670, 103.1597
284.1780, 84.30786
285.3880, 123.4744
286.5980, 71.65942
287.8090, 38.86206
289.0190, 90.08374
290.2290, 72.32202
291.4380, 44.17017
292.6480, 15.83142
293.8570, 51.05200
295.0670, 45.36438
296.2760, 21.73376
297.4850, 29.11340
298.6930, 23.22998
299.9020, 50.58386
301.1110, 30.19885
302.3190, 45.57678
303.5270, 20.96631
304.7350, 4.366821
305.9430, 44.77808
307.1510, 55.19958
308.3580, 0.9069820
309.5660, 2.348389
310.7730, 6.798828
311.9800, 44.26294
313.1870, 12.55371
314.3940, 25.20667
315.6010, 22.50073
316.8070, 20.85864
318.0130, 16.71326
319.2200, 1.796631
320.4260, 29.66394
321.6310, 33.15552
322.8370, 16.52686
324.0430, 8.042725
325.2480, 10.43616
326.4540, 10.18396
327.6590, 1.713745
328.8640, 35.69067
330.0680, 24.15942
331.2730, 14.61841
332.4780, 30.00903
333.6820, 10.89722
334.8860, 16.23779
336.0900, 22.71204
337.2940, 2.675293
338.4980, 77.48438
339.7010, 15.01611
340.9050, 2.530640
342.1080, 39.98230
343.3110, 19.50671
344.5140, 31.01611
345.7170, 25.51453
346.9200, 31.99976
348.1220, 34.45569
349.3240, 13.92224
350.5270, 13.34143
351.7290, 24.77246
352.9310, 5.193481
354.1320, 12.23572
355.3340, 15.94861
356.5350, 12.39270
357.7370, 31.77795
358.9380, 38.16528
360.1390, 53.55823
361.3400, 43.11414
362.5400, 46.33289
363.7410, 15.65564
364.9410, 31.08533
366.1410, 19.10693
367.3410, 1.452637
368.5410, 20.98376
369.7410, 40.32568
370.9400, 17.21716
372.1400, 37.23499
373.3390, 43.53320
374.5380, 11.99280
375.7370, 0.3120120
376.9360, 6.793213
378.1350, 1.278687
379.3330, 14.76709
380.5310, 6.073120
381.7300, 0.2622070
382.9280, 2.765015
384.1260, 9.531860
385.3230, 13.09888
386.5210, 21.40686
387.7180, 14.07141
388.9160, 2.452026
390.1130, 41.01575
391.3100, 41.48315
392.5060, 5.050415
393.7030, 29.40491
394.9000, 10.85876
396.0960, 6.307129
397.2920, 2.851563
398.4880, 8.594971
399.6840, 0.5163570
400.8800, 4.982056
402.0750, 2.331421
403.2710, 9.044067
404.4660, 8.759399
405.6610, 11.71045
406.8560, 35.78381
408.0510, 4.137817
409.2450, 38.88843
410.4400, 5.336670
411.6340, 46.72778
412.8280, 12.42468
414.0220, 47.93860
415.2160, 21.41467
416.4100, 19.70593
417.6030, 15.03430
418.7970, 51.33276
419.9900, 48.65845
421.1830, 87.98938
422.3760, 26.29297
423.5690, 27.62720
424.7610, 40.86353
425.9540, 34.09265
427.1460, 77.59998
428.3380, 63.81384
429.5300, 89.19885
430.7220, 70.40002
431.9140, 75.10742
433.1050, 71.29492
434.2970, 30.47534
435.4880, 37.64307
436.6790, 1.809937
437.8700, 59.94360
439.0610, 57.23657
440.2510, 58.36389
441.4420, 29.47339
442.6320, 94.56799
443.8220, 48.65466
445.0120, 72.73108
446.2020, 100.8330
447.3910, 70.89307
448.5810, 88.00720
449.7700, 92.05090
450.9600, 52.11475
452.1490, 85.30371
453.3370, 93.31458
454.5260, 73.32178
455.7150, 115.4181
456.9030, 100.4077
458.0910, 12.38843
459.2800, 62.97595
460.4670, 42.58533
461.6550, 76.26318
462.8430, 74.17908
464.0300, 80.48523
465.2180, 63.65674
466.4050, 116.5547
467.5920, 87.43835
468.7790, 70.15710
469.9650, 96.14624
471.1520, 73.99548
472.3380, 100.9020
473.5250, 80.18689
474.7110, 72.72913
475.8970, 55.84155
477.0820, 58.44299
478.2680, 112.0752
479.4540, 66.27319
480.6390, 110.0432
481.8240, 112.6669
483.0090, 79.41907
484.1940, 94.16272
485.3780, 84.47913
486.5630, 128.6246
487.7470, 131.2698
488.9320, 113.1108
490.1160, 76.63098
491.3000, 89.99731
492.4830, 75.21021
493.6670, 109.4161
494.8500, 94.10632
496.0340, 105.5535
497.2170, 86.71130
498.4000, 100.6801
499.5820, 86.76379
500.7650, 116.9076
501.9480, 83.68323
503.1300, 83.59888
504.3120, 59.02795
505.4940, 68.22681
506.6760, 95.94006
507.8580, 38.84265
509.0390, 93.29907
510.2210, 75.66821
511.4020, 56.94360
512.5830, 75.15198
513.7640, 107.6556
514.9450, 48.56641
516.1250, 61.49219
517.3060, 45.96692
518.4860, 88.03088
519.6660, 91.75037
520.8460, 88.68127
522.0260, 33.89233
523.2060, 45.08545
524.3850, 64.99036
525.5650, 14.85632
526.7440, 53.11963
527.9230, 65.39758
529.1020, 70.95593
530.2810, 78.20117
531.4590, 78.76392
532.6380, 79.48169
533.8160, 70.39270
534.9940, 81.62170
536.1720, 64.94531
537.3500, 81.87793
538.5270, 46.57385
539.7050, 31.05811
540.8820, 22.77258
542.0590, 3.988525
543.2360, 43.43237
544.4130, 37.70215
545.5900, 26.25354
546.7660, 14.74963
547.9430, 10.32727
549.1190, 57.51733
550.2950, 20.66418
551.4710, 39.83997
552.6470, 43.97119
553.8220, 21.16003
554.9980, 30.55481
556.1730, 33.14099
557.3480, 56.33569
558.5230, 44.88342
559.6980, 46.21741
560.8730, 42.32373
562.0470, 40.96704
563.2220, 43.51221
564.3960, 38.26575
565.5700, 59.04919
566.7440, 53.00562
567.9170, 22.77710
569.0910, 79.96167
570.2640, 30.09045
571.4380, 62.12354
572.6110, 12.14929
573.7840, 89.16321
574.9570, 76.17017
576.1290, 81.57581
577.3020, 49.18042
578.4740, 58.48792
579.6460, 27.46912
580.8180, 47.38452
581.9900, 69.29626
583.1620, 77.47791
584.3330, 61.42834
585.5040, 54.12329
586.6760, 40.06079
587.8470, 55.99133
589.0180, 35.91553
590.1880, 61.83289
591.3590, 40.74377
592.5290, 23.37219
593.7000, 62.26904
594.8700, 69.15979
596.0400, 30.03931
597.2090, 47.91711
598.3790, 49.78870
599.5490, 46.84534
600.7180, 72.55396
601.8870, 95.80933
603.0560, 63.65454
604.2250, 81.47070
605.3940, 46.31934
606.5620, 40.99438
607.7300, 47.83557
608.8990, 71.67126
610.0670, 21.40735
611.2350, 72.23230
612.4020, 40.99060
613.5700, 93.80981
614.7370, 87.61438
615.9050, 24.34534
617.0720, 39.77356
618.2390, 76.23999
619.4060, 55.04370
620.5720, 109.6609
621.7390, 73.45801
622.9050, 93.27380
624.0710, 90.43250
625.2370, 93.24768
626.4030, 100.0597
627.5690, 129.8669
628.7340, 66.67468
629.9000, 70.48303
631.0650, 102.2738
632.2300, 54.08533
633.3950, 71.86987
634.5600, 103.6779
635.7240, 107.4862
636.8890, 124.2936
638.0530, 83.10315
639.2170, 56.91211
640.3810, 77.72009
641.5450, 69.53101
642.7080, 46.34644
643.8720, 47.17017
645.0350, 51.86279
646.1980, 54.68103
647.3610, 68.51831
648.5240, 66.94421
649.6870, 78.78711
650.8490, 31.62781
652.0120, 35.37085
653.1740, 79.22083
654.3360, 6.927612
655.4980, 19.75940
656.6600, 39.60559
657.8210, 27.28284
658.9830, 23.13440
660.1440, 47.98645
661.3050, 33.86084
662.4660, 55.37732
663.6270, 19.06665
664.7870, 16.08105
665.9480, 14.96143
667.1080, 57.73071
668.2680, 55.56982
669.4280, 99.41577
670.5880, 141.2600
671.7480, 249.1058
672.9070, 308.9491
674.0670, 593.7896
675.2260, 960.6345
676.3850, 952.4819
677.5440, 680.3291
678.7030, 327.0730
679.8610, 206.6097
681.0200, 195.9941
682.1780, 201.7671
683.3360, 348.5116
684.4940, 355.1970
685.6520, 237.7184
686.8090, 117.0005
687.9670, 72.15173
689.1240, 67.01660
690.2810, 26.47437
691.4380, 19.22876
692.5950, 13.02942
693.7520, 13.51880
694.9080, 45.18140
696.0650, 17.87573
697.2210, 50.74597
698.3770, 22.56995
699.5330, 47.41357
700.6880, 30.22351
701.8440, 47.02124
702.9990, 1.160034
704.1550, 20.38184
705.3100, 8.479858
706.4650, 9.340698
707.6190, 1.085449
708.7740, 1.780151
709.9290, 40.46643
711.0830, 33.33362
712.2370, 68.68713
713.3910, 49.55286
714.5450, 43.42053
715.6980, 14.29041
716.8520, 5.848755
718.0050, 11.02844
719.1580, 84.74048
720.3110, 110.6099
721.4640, 76.48877
722.6170, 59.37073
723.7700, 92.25232
724.9220, 133.1348
726.0740, 137.9833
727.2260, 84.86523
728.3780, 129.6849
729.5300, 79.56653
730.6810, 108.4197
731.8330, 124.1265
732.9840, 93.00940
734.1350, 50.89233
735.2860, 55.67725
736.4370, 28.56018
737.5880, 93.44324
738.7380, 34.33423
739.8880, 1.225952
741.0390, 68.55994
742.1890, 88.45752
743.3380, 113.5635
744.4880, 67.46155
745.6380, 32.35718
746.7870, 44.25854
747.9360, 33.15979
749.0850, 41.93701
750.2340, 27.83936
751.3830, 34.82996
752.5310, 22.64661
753.6800, 29.55078
754.8280, 21.23486
755.9760, 23.27563
757.1240, 11.18433
758.2720, 7.120483
759.4190, 11.03076
760.5670, 29.07056
761.7140, 9.018799
762.8610, 8.888916
764.0080, 10.11560
765.1550, 77.76270
766.3020, 43.67102
767.4480, 31.74133
768.5950, 80.65027
769.7410, 25.55945
770.8870, 48.46887
772.0330, 47.37878
773.1780, 61.28870
774.3240, 48.55408
775.4690, 89.33008
776.6140, 43.24084
777.7590, 44.20496
778.9040, 82.11621
780.0490, 73.07446
781.1940, 71.98572
782.3380, 61.90527
783.4820, 83.81738
784.6260, 43.72974
785.7700, 86.66968
786.9140, 109.5839
788.0580, 82.49805
789.2010, 42.41223
790.3450, 53.32690
791.4880, 8.241577
792.6310, 7.521729
793.7730, 39.39404
794.9160, 18.30933
796.0590, 100.2161
797.2010, 27.10645
798.3430, 19.97778
799.4850, 9.929199
800.6270, 32.83752
801.7690, 51.70557
802.9100, 28.44861
804.0520, 22.36145
805.1930, 19.29187
806.3340, 11.04004
807.4750, 39.39697
808.6160, 15.30981
809.7560, 29.22278
810.8970, 52.13562
812.0370, 27.37878
813.1770, 32.44849
814.3170, 44.36108
815.4570, 28.27380
816.5960, 12.18677
817.7360, 48.10535
818.8750, 32.02148
820.0140, 79.94226
821.1530, 27.86340
822.2920, 43.78528
823.4310, 60.84045
824.5690, 82.76636
825.7070, 85.69507
826.8460, 28.62341
827.9840, 73.55334
829.1220, 49.47974
830.2590, 107.5232
831.3970, 99.42993
832.5340, 110.3623
833.6710, 176.2909
834.8080, 161.2234
835.9450, 362.1561
837.0820, 552.1055
838.2190, 1025.038
839.3550, 1336.067
840.4910, 1286.853
841.6270, 1028.618
842.7630, 605.5267
843.8990, 388.4268
845.0350, 268.6486
846.1700, 124.4952
847.3060, 126.4391
848.4410, 102.3728
849.5760, 107.3192
850.7100, 75.84900
851.8450, 56.79553
852.9800, 61.73828
854.1140, 32.53796
855.2480, 29.03699
856.3820, 27.98279
857.5160, 57.92822
858.6500, 82.87305
859.7830, 74.81738
860.9170, 70.76123
862.0500, 65.72595
863.1830, 36.66907
864.3160, 65.62878
865.4480, 22.57397
866.5810, 46.52637
867.7130, 70.47852
868.8460, 67.52100
869.9780, 13.47278
871.1100, 27.42407
872.2410, 34.37512
873.3730, 20.32568
874.5050, 62.27551
875.6360, 37.22485
876.7670, 7.875000
877.8980, 88.73657
879.0290, 3.319458
880.1590, 51.62195
881.2900, 46.97449
882.4200, 36.91431
883.5500, 42.85339
884.6800, 42.79163
885.8100, 65.72974
886.9400, 57.04407
888.0690, 39.73145
889.1990, 53.66785
890.3280, 29.60327
891.4570, 33.53845
892.5860, 52.47253
893.7140, 8.405884
894.8430, 62.32703
895.9710, 33.74182
897.1000, 36.17004
898.2280, 48.72400
899.3560, 4.632324
900.4830, 65.54492
901.6110, 47.45959
902.7380, 1.626709
903.8660, 25.28442
904.9930, 78.19458
906.1200, 26.10376
907.2460, 14.01660
908.3730, 48.92859
909.5000, 5.160522
910.6260, 13.25403
911.7520, 46.64368
912.8780, 5.540405
914.0040, 36.43555
915.1290, 6.329590
916.2550, 40.22205
917.3800, 12.11328
918.5050, 42.00330
919.6300, 47.89233
920.7550, 8.780151
921.8800, 34.66650
923.0040, 30.55164
924.1290, 30.43567
925.2530, 33.31982
926.3770, 50.20276
927.5010, 60.07959
928.6250, 24.95703
929.7480, 44.83923
930.8720, 26.72021
931.9950, 38.60449
933.1180, 84.48767
934.2410, 65.34668
935.3640, 60.22717
936.4860, 68.10657
937.6090, 47.99390
938.7310, 4.885010
939.8530, 9.774658
940.9750, 3.337280
942.0970, 61.54663
943.2180, 62.42932
944.3400, 48.31055
945.4610, 41.19055
946.5820, 3.931030
947.7030, 17.05688
948.8240, 32.80566
949.9450, 22.66675
951.0650, 81.52637
952.1860, 13.38464
953.3060, 34.24146
954.4260, 80.10413
955.5460, 23.96521
956.6650, 15.82837
957.7850, 16.30127
958.9040, 14.55786
960.0230, 49.41528
961.1420, 46.27124
962.2610, 65.12549
963.3800, 46.97961
964.4990, 0.1677250
965.6170, 71.68176
966.7350, 21.52991
967.8530, 55.37646
968.9710, 25.22131
970.0890, 45.06519
971.2070, 10.91931
972.3240, 34.77173
973.4410, 1.622192
974.5580, 32.47620
975.6750, 68.32910
976.7920, 12.18555
977.9090, 22.04321
979.0250, 20.10083
980.1410, 49.74194
981.2580, 13.41675
982.3740, 19.41528
983.4890, 26.76172
984.6050, 5.410278
985.7200, 63.54358
986.8360, 64.36243
987.9510, 3.179199
989.0660, 5.005859
990.1810, 62.80188
991.2950, 19.60767
992.4100, 77.41138
993.5240, 47.21313
994.6390, 72.01294
995.7530, 12.81067
996.8660, 40.60608
997.9800, 14.99402
999.0940, 103.7921
1000.207, 20.42371
1001.320, 77.21033
1002.433, 6.999268
1003.546, 68.78516
1004.659, 56.56873
1005.772, 59.35156
1006.884, 74.45947
1007.996, 52.90735
1009.108, 55.68176
1010.220, 43.45410
1011.332, 5.060303
1012.444, 34.70166
1013.555, 22.25305
1014.666, 0.9895020
1015.777, 48.76160
1016.888, 74.51074
1017.999, 55.25745
1019.110, 45.00916
1020.220, 4.906494
1021.331, 119.6451
1022.441, 85.38135
1023.551, 56.11523
1024.661, 66.84705
1025.770, 37.57629
1026.880, 89.30334
1027.989, 67.00085
1029.098, 101.7233
1030.207, 199.3143
1031.316, 270.3341
1032.425, 342.3158
1033.533, 324.9730
1034.642, 222.6858
1035.750, 172.3964
1036.858, 148.9427
1037.966, 218.6487
1039.073, 194.3524
1040.181, 205.1527
1041.288, 291.8518
1042.396, 315.5483
1043.503, 360.8877
1044.610, 396.7144
1045.716, 542.4041
1046.823, 783.0383
1047.929, 1114.724
1049.036, 1837.359
1050.142, 2913.040
1051.248, 4277.710
1052.353, 7558.387
1053.459, 15363.06
1054.564, 36807.71
1055.670, 59975.38
1056.775, 53856.04
1057.880, 29241.97
1058.985, 12000.64
1060.089, 4959.297
1061.194, 2293.955
1062.298, 1233.611
1063.402, 829.2649
1064.506, 597.9202
1065.610, 459.5695
1066.713, 339.2167
1067.817, 291.8660
1068.920, 209.5131
1070.023, 214.2534
1071.126, 227.8959
1072.229, 93.47937
1073.332, 163.0995
1074.435, 130.4556
1075.537, 120.0885
1076.639, 106.7189
1077.741, 111.3470
1078.843, 92.97290
1079.945, 88.26611
1081.046, 93.73047
1082.148, 59.34949
1083.249, 86.96631
1084.350, 113.5808
1085.451, 92.18896
1086.551, 64.47241
1087.652, 77.08032
1088.752, 21.41589
1089.853, 122.0348
1090.953, 56.50366
1092.053, 70.10193
1093.152, 108.6982
1094.252, 100.2924
1095.351, 139.1436
1096.451, 90.73303
1097.550, 94.17834
1098.649, 54.76294
1099.748, 55.34558
1100.846, 90.92566
1101.945, 66.64197
1103.043, 86.97864
1104.141, 82.53467
1105.239, 52.10559
1106.337, 99.92566
1107.434, 102.4917
1108.532, 59.05530
1109.629, 58.26587
1110.726, 64.82446
1111.823, 66.95728
1112.920, 55.51099
1114.017, 17.05298
1115.113, 31.18140
1116.210, 50.34424
1117.306, 8.283691
1118.402, 97.80347
1119.498, 68.32080
1120.593, 47.72485
1121.689, 52.66895
1122.784, 61.17993
1123.879, 97.68872
1124.974, 86.84473
1126.069, 27.70044
1127.164, 64.20361
1128.259, 50.68286
1129.353, 1.818115
1130.447, 11.65894
1131.541, 21.85156
1132.635, 15.62036
1133.729, 32.05371
1134.822, 37.43140
1135.916, 41.89746
1137.009, 12.36157
1138.102, 28.82397
1139.195, 73.28467
1140.288, 39.74316
1141.380, 45.19995
1142.473, 5.655029
1143.565, 22.44238
1144.657, 54.89453
1145.749, 34.34619
1146.841, 27.38403
1147.932, 39.83252
1149.024, 66.27954
1150.115, 8.724609
1151.206, 4.168457
1152.297, 15.48267
1153.388, 56.92163
1154.479, 16.35938
1155.569, 11.79541
1156.659, 42.23047
1157.750, 60.66406
1158.839, 102.0964
1159.929, 46.52759
1161.019, 17.95776
1162.108, 15.60449
1163.198, 0.8210450
1164.287, 54.24219
1165.376, 36.66260
1166.465, 30.08179
1167.553, 41.50024
1168.642, 48.91846
1169.730, 45.79541
1170.818, 13.24854
1171.906, 38.15698
1172.994, 45.56128
1174.082, 27.96509
1175.170, 66.36963
1176.257, 77.77710
1177.344, 21.18384
1178.431, 30.59009
1179.518, 45.99561
1180.605, 19.40088
1181.691, 23.80542
1182.778, 28.14014
1183.864, 51.61279
1184.950, 31.01538
1186.036, 40.41797
1187.122, 23.81982
1188.207, 1.778320
1189.292, 29.62012
1190.378, 15.01782
1191.463, 53.41577
1192.548, 7.812988
1193.632, 35.20996
1194.717, 14.39307
1195.801, 74.99438
1196.886, 48.38159
1197.970, 95.76880
1199.054, 87.89087
1200.137, 32.45752
1201.221, 61.91113
1202.305, 10.27954
1203.388, 10.64819
1204.471, 59.01685
1205.554, 20.38672
1206.637, 7.756592
1207.719, 34.12695
1208.802, 16.49707
1209.884, 7.867432
1210.966, 26.23926
1212.048, 12.61670
1213.130, 28.99390
1214.212, 26.37183
1215.293, 24.74976
1216.374, 27.87183
1217.456, 77.49219
1218.536, 13.14355
1219.617, 33.78589
1220.698, 73.55518
1221.778, 1.901367
1222.859, 27.24780
1223.939, 27.59521
1225.019, 5.057373
1226.099, 1.288574
1227.178, 41.63452
1228.258, 59.98169
1229.337, 4.330078
1230.417, 16.67896
1231.496, 2.971436
1232.574, 47.62231
1233.653, 8.703613
1234.732, 38.03052
1235.810, 25.64136
1236.888, 65.67578
1237.966, 4.994141
1239.044, 14.68628
1240.122, 61.62817
1241.199, 37.94385
1242.277, 34.26685
1243.354, 37.59106
1244.431, 6.080078
1245.508, 36.73218
1246.585, 12.69482
1247.661, 56.26440
1248.738, 8.600830
1249.814, 9.938477
1250.890, 18.27905
1251.966, 46.62354
1253.042, 37.96948
1254.117, 24.31763
1255.193, 31.66724
1256.268, 38.32495
1257.343, 54.38452
1258.418, 47.74805
1259.493, 52.51904
1260.567, 10.87964
1261.642, 48.40698
1262.716, 25.22095
1263.790, 37.14478
1264.864, 81.51318
1265.938, 67.88403
1267.011, 88.25562
1268.085, 42.63135
1269.158, 26.00977
1270.231, 34.39062
1271.304, 40.77417
1272.377, 118.0056
1273.450, 42.39746
1274.522, 103.7922
1275.594, 23.19019
1276.666, 48.59229
1277.738, 111.9976
1278.810, 88.40576
1279.882, 20.80981
1280.953, 84.06909
1282.025, 105.4873
1283.096, 54.90869
1284.167, 69.33325
1285.238, 91.76123
1286.308, 140.1926
1287.379, 95.62720
1288.449, 112.0654
1289.519, 103.5071
1290.589, 121.9519
1291.659, 101.0986
1292.729, 87.28589
1293.798, 129.7417
1294.868, 113.2056
1295.937, 161.6733
1297.006, 151.1453
1298.075, 142.6206
1299.143, 176.1003
1300.212, 128.4846
1301.280, 107.9722
1302.348, 157.4636
1303.416, 188.9629
1304.484, 186.4666
1305.552, 222.9741
1306.620, 192.4863
1307.687, 206.0029
1308.754, 219.9832
1309.821, 219.0498
1310.888, 245.5798
1311.955, 271.1147
1313.021, 281.6538
1314.088, 302.1973
1315.154, 333.7449
1316.220, 280.2966
1317.286, 261.5881
1318.352, 257.1497
1319.417, 339.7158
1320.483, 311.2859
1321.548, 365.8582
1322.613, 326.4338
1323.678, 356.0093
1324.743, 319.5913
1325.807, 356.1770
1326.872, 330.7659
1327.936, 325.3584
1329.000, 400.8584
1330.064, 319.4585
1331.128, 282.0618
1332.191, 350.6685
1333.255, 328.2795
1334.318, 379.8945
1335.381, 365.5132
1336.444, 390.1362
1337.507, 410.7632
1338.569, 355.3948
1339.632, 358.0305
1340.694, 404.6704
1341.756, 380.3152
1342.818, 430.9641
1343.880, 453.6174
1344.941, 433.6025
1346.003, 499.2659
1347.064, 480.2041
1348.125, 511.8616
1349.186, 596.5398
1350.247, 615.2234
1351.308, 645.9121
1352.368, 708.6062
1353.428, 745.0461
1354.489, 837.7507
1355.549, 890.4604
1356.608, 954.1763
1357.668, 1084.897
1358.727, 1188.624
1359.787, 1363.219
1360.846, 1399.195
1361.905, 1401.939
1362.964, 1553.689
1364.022, 1568.097
1365.081, 1623.859
1366.139, 1583.627
1367.197, 1586.740
1368.255, 1624.520
1369.313, 1583.307
1370.371, 1611.100
1371.428, 1672.900
1372.486, 1772.489
1373.543, 1880.312
1374.600, 1902.142
1375.657, 2066.979
1376.713, 2075.822
1377.770, 2041.671
1378.826, 2093.527
1379.882, 1983.390
1380.938, 1819.259
1381.994, 1662.134
1383.050, 1561.093
1384.106, 1318.399
1385.161, 1219.491
1386.216, 1036.394
1387.271, 883.3057
1388.326, 867.2251
1389.381, 676.1594
1390.435, 620.1379
1391.490, 526.0869
1392.544, 442.0435
1393.598, 367.0076
1394.652, 299.9795
1395.705, 324.9592
1396.759, 271.9465
1397.812, 267.9421
1398.866, 256.9458
1399.919, 273.9585
1400.972, 244.9795
1402.024, 254.0090
1403.077, 122.0469
1404.129, 107.0933
1405.181, 116.1487
1406.233, 186.2126
1407.285, 93.28589
1408.337, 151.3689
1409.389, 184.4614
1410.440, 170.5635
1411.491, 149.6748
1412.542, 186.7959
1413.593, 199.9265
1414.644, 215.0674
1415.695, 183.1997
1416.745, 226.3301
1417.795, 207.4700
1418.845, 209.6343
1419.895, 217.8008
1420.945, 212.9778
1421.995, 217.2932
1423.044, 220.4897
1424.093, 234.6968
1425.142, 245.9163
1426.191, 236.1482
1427.240, 221.3877
1428.289, 205.6421
1429.337, 184.7122
1430.385, 146.9878
1431.433, 221.2744
1432.481, 210.6233
1433.529, 221.9353
1434.577, 173.2964
1435.624, 179.5854
1436.672, 161.8845
1437.719, 195.3250
1438.766, 177.5935
1439.812, 152.8630
1440.859, 225.1260
1441.905, 91.38135
1442.952, 128.9412
1443.998, 127.1687
1445.044, 73.41528
1446.090, 145.6704
1447.135, 87.47559
1448.181, 131.5132
1449.226, 172.5684
1450.271, 167.6316
1451.316, 96.71289
1452.361, 109.8123
1453.405, 71.92065
1454.450, 107.0381
1455.494, 49.16406
1456.538, 107.2993
1457.582, 133.4438
1458.626, 157.5974
1459.670, 178.7769
1460.713, 183.2468
1461.757, 177.2107
1462.800, 182.4478
1463.843, 138.6985
1464.886, 131.9600
1465.928, 105.2322
1466.971, 156.5310
1468.013, 144.8550
1469.055, 166.2046
1470.097, 180.5703
1471.139, 172.1172
1472.181, 184.4646
1473.222, 165.7527
1474.263, 173.1724
1475.305, 173.6045
1476.346, 138.0486
1477.386, 177.5049
1478.427, 162.9580
1479.468, 179.4177
1480.508, 202.8896
1481.548, 181.3789
1482.588, 177.8867
1483.628, 167.4060
1484.668, 86.93726
1485.707, 134.4805
1486.747, 124.0356
1487.786, 64.60278
1488.825, 115.1819
1489.864, 42.77295
1490.902, 107.3752
1491.941, 111.9895
1492.979, 96.61523
1494.017, 80.25244
1495.055, 7.901611
1496.093, 27.56250
1497.131, 18.21875
1498.168, 49.88574
1499.206, 32.56372
1500.243, 86.25220
1501.280, 14.93848
1502.317, 56.63354
1503.354, 45.33716
1504.390, 36.05029
1505.426, 11.77148
1506.463, 1.503906
1507.499, 28.75439
1508.535, 15.80078
1509.570, 9.753174
1510.606, 26.56226
1511.641, 20.37964
1512.676, 74.22070
1513.711, 71.08594
1514.746, 68.60352
1515.781, 86.13770
1516.816, 50.82837
1517.850, 77.79150
1518.884, 79.77905
1519.918, 51.79126
1520.952, 41.82739
1521.986, 71.88721
1523.019, 46.97119
1524.053, 69.07910
1525.086, 57.21216
1526.119, 73.37134
1527.152, 50.55664
1528.185, 50.76904
1529.217, 37.00854
1530.250, 103.2764
1531.282, 76.57275
1532.314, 73.89893
1533.346, 126.2561
1534.377, 84.64502
1535.409, 72.06836
1536.440, 80.52759
1537.472, 99.02515
1538.503, 128.5637
1539.534, 45.92993
1540.564, 75.93164
1541.595, 91.36768
1542.625, 20.83569
1543.656, 52.33569
1544.686, 15.13379
1545.716, 90.42700
1546.745, 94.01660
1547.775, 48.63477
1548.804, 32.27979
1549.834, 62.94971
1550.863, 91.64282
1551.892, 84.35449
1552.920, 4.918945
1553.949, 112.8157
1554.977, 83.54956
1556.006, 33.67944
1557.034, 114.8967
1558.062, 21.47363
1559.089, 64.00439
1560.117, 96.44116
1561.144, 18.79297
1562.172, 85.66895
1563.199, 47.12842
1564.226, 54.77319
1565.252, 46.96777
1566.279, 0.2255860
1567.305, 43.21191
1568.332, 30.91162
1569.358, 1.509033
1570.384, 0.0000000E+00
##END=



