##NAMES=Cerussite
##RRUFFID=R060017
##IDEAL CHEMISTRY=Pb^2+^CO_3_
##LOCALITY=Gonessa, Sardinia, Italy
##OWNER=RRUFF
##SOURCE=American Museum of Natural History
##DESCRIPTION=White reticulated composite
##STATUS=The identification of this mineral has been confirmed by X-ray diffraction and chemical analysis
##URL=rruff.info/R060017
##MEASURED CHEMISTRY=Pb_1.00_CO_3_ C not measured but estimated by difference and stoichiometry
##PIN_ID=M00261
##ORIENTATION=Laser parallel to a* (1 0 0). Fiducial mark perpendicular to laser is parallel to b [0 1 0]
51.43100, 0.0000000E+00
52.67100, 102.7130
53.91000, 158.8504
55.14900, 297.8624
56.38700, 101.8240
57.62600, 5.921143
58.86400, 68.71033
60.10300, 31.45361
61.34100, 107.1654
62.57900, 321.7214
63.81700, 766.0061
65.05400, 1386.002
66.29200, 2011.860
67.52900, 2641.866
68.76700, 3279.425
70.00400, 3668.029
71.24100, 4017.234
72.47700, 4208.629
73.71400, 4113.848
74.95100, 3946.568
76.18700, 3642.513
77.42300, 3729.442
78.65900, 3499.144
79.89500, 3397.435
81.13100, 3592.158
82.36700, 3551.169
83.60200, 3592.340
84.83700, 3852.557
86.07200, 4039.718
87.30800, 4320.727
88.54200, 4664.498
89.77700, 4853.898
91.01200, 5040.780
92.24600, 5437.028
93.48000, 5764.558
94.71400, 5994.295
95.94800, 6209.183
97.18200, 6395.170
98.41600, 6889.218
99.64900, 7241.287
100.8830, 7427.347
102.1160, 7691.361
103.3490, 7476.309
104.5820, 7816.158
105.8150, 7794.890
107.0470, 7914.486
108.2800, 7939.931
109.5120, 7979.201
110.7440, 8343.273
111.9760, 8494.132
113.2080, 8849.765
114.4400, 9270.148
115.6710, 9436.271
116.9030, 9782.111
118.1340, 9748.656
119.3650, 9712.896
120.5960, 9598.813
121.8270, 9256.396
123.0580, 9022.626
124.2880, 8721.490
125.5190, 8296.832
126.7490, 8322.188
127.9790, 8016.557
129.2090, 7858.918
130.4390, 7798.369
131.6680, 7769.993
132.8980, 7647.850
134.1270, 7347.997
135.3560, 7095.402
136.5850, 6852.090
137.8140, 6449.097
139.0430, 6357.443
140.2710, 6122.150
141.5000, 6004.193
142.7280, 5991.606
143.9560, 5655.398
145.1840, 5781.589
146.4120, 5624.145
147.6390, 5394.089
148.8670, 5372.377
150.0940, 5271.008
151.3210, 5211.044
152.5490, 5064.463
153.7750, 4891.244
155.0020, 4743.368
156.2290, 4437.865
157.4550, 4338.771
158.6810, 4271.059
159.9080, 4314.749
161.1340, 4241.827
162.3590, 4126.325
163.5850, 3964.234
164.8110, 4017.472
166.0360, 4075.030
167.2610, 3987.901
168.4860, 4021.095
169.7110, 3883.623
170.9360, 3998.478
172.1610, 4069.757
173.3850, 4055.340
174.6100, 3894.214
175.8340, 3861.422
177.0580, 3730.921
178.2820, 3640.439
179.5050, 3667.836
180.7290, 3504.241
181.9520, 3476.992
183.1760, 3513.018
184.3990, 3492.330
185.6220, 3401.971
186.8450, 3410.924
188.0670, 3282.154
189.2900, 3253.638
190.5120, 3500.404
191.7340, 3356.420
192.9560, 3334.674
194.1780, 3108.170
195.4000, 3274.914
196.6220, 3401.932
197.8430, 3487.215
199.0640, 3558.617
200.2860, 3555.796
201.5070, 3604.738
202.7270, 3651.148
203.9480, 3612.485
205.1690, 3651.341
206.3890, 3786.246
207.6090, 3955.562
208.8290, 3888.148
210.0490, 4083.415
211.2690, 4223.318
212.4890, 4188.875
213.7080, 4360.635
214.9280, 4340.072
216.1470, 4342.207
217.3660, 4341.847
218.5850, 4325.934
219.8030, 4258.510
221.0220, 4136.947
222.2400, 4172.607
223.4590, 4069.184
224.6770, 3954.545
225.8950, 3753.088
227.1120, 3824.987
228.3300, 3735.973
229.5480, 3477.592
230.7650, 3439.544
231.9820, 3144.417
233.1990, 3019.860
234.4160, 2845.748
235.6330, 2617.641
236.8490, 2583.665
238.0660, 2342.628
239.2820, 2258.223
240.4980, 2007.705
241.7140, 2147.067
242.9300, 2040.634
244.1460, 1817.682
245.3610, 1725.971
246.5770, 1551.497
247.7920, 1531.459
249.0070, 1401.689
250.2220, 1340.331
251.4370, 1261.986
252.6510, 1214.525
253.8660, 1256.104
255.0800, 1285.196
256.2940, 1142.566
257.5080, 1213.961
258.7220, 1112.668
259.9360, 925.2002
261.1490, 978.5400
262.3630, 982.7256
263.5760, 906.7129
264.7890, 749.8340
266.0020, 897.7031
267.2150, 847.1602
268.4270, 912.4316
269.6400, 745.2910
270.8520, 852.6123
272.0640, 791.1631
273.2760, 682.5342
274.4880, 676.6660
275.7000, 614.9102
276.9120, 577.9951
278.1230, 514.5654
279.3340, 603.3027
280.5450, 662.7773
281.7560, 554.8408
282.9670, 500.3252
284.1780, 544.1260
285.3880, 571.6738
286.5980, 500.1963
287.8090, 402.0625
289.0190, 587.1123
290.2290, 430.9492
291.4380, 374.2266
292.6480, 468.1016
293.8570, 243.7080
295.0670, 490.5527
296.2760, 321.4492
297.4850, 389.0244
298.6930, 276.6514
299.9020, 369.3643
301.1110, 330.6855
302.3190, 375.6143
303.5270, 318.1396
304.7350, 275.9248
305.9430, 281.0674
307.1510, 364.7051
308.3580, 152.1924
309.5660, 307.3789
310.7730, 326.5430
311.9800, 181.1582
313.1870, 185.6807
314.3940, 42.53027
315.6010, 244.6875
316.8070, 331.3584
318.0130, 188.9805
319.2200, 318.9150
320.4260, 87.36035
321.6310, 266.8926
322.8370, 72.11816
324.0430, 115.8730
325.2480, 107.8652
326.4540, 128.6895
327.6590, 92.75000
328.8640, 146.2754
330.0680, 10.53125
331.2730, 155.8828
332.4780, 125.3271
333.6820, 86.57031
334.8860, 142.1992
336.0900, 54.02539
337.2940, 96.81445
338.4980, 202.4453
339.7010, 32.35156
340.9050, 27.79492
342.1080, 57.67773
343.3110, 11.91602
344.5140, 13.10352
345.7170, 38.87891
346.9200, 75.27441
348.1220, 33.25391
349.3240, 40.29004
350.5270, 103.4873
351.7290, 42.84570
352.9310, 86.87891
354.1320, 176.4219
355.3340, 60.20215
356.5350, 2.847656
357.7370, 140.4561
358.9380, 106.2314
360.1390, 103.1895
361.3400, 4.569336
362.5400, 47.06641
363.7410, 1.478516
364.9410, 34.89062
366.1410, 21.07324
367.3410, 94.90430
368.5410, 13.86133
369.7410, 100.4824
370.9400, 58.98926
372.1400, 87.65918
373.3390, 39.76367
374.5380, 53.87793
375.7370, 80.51270
376.9360, 87.57910
378.1350, 53.18848
379.3330, 171.3584
380.5310, 72.63672
381.7300, 12.64648
382.9280, 30.98535
384.1260, 90.44629
385.3230, 76.22363
386.5210, 36.93555
387.7180, 28.42871
388.9160, 11.08203
390.1130, 24.60938
391.3100, 7.782227
392.5060, 88.30273
393.7030, 131.9053
394.9000, 5.392578
396.0960, 64.54297
397.2920, 24.63672
398.4880, 17.33594
399.6840, 3.971680
400.8800, 27.91406
402.0750, 61.01855
403.2710, 16.59668
404.4660, 139.6260
405.6610, 21.75781
406.8560, 7.034180
408.0510, 161.3145
409.2450, 20.59180
410.4400, 84.85938
411.6340, 19.35059
412.8280, 130.0615
414.0220, 36.49121
415.2160, 177.7100
416.4100, 100.6250
417.6030, 20.99609
418.7970, 50.67090
419.9900, 52.59863
421.1830, 57.39160
422.3760, 85.36719
423.5690, 7.277344
424.7610, 47.90332
425.9540, 21.89258
427.1460, 35.34375
428.3380, 49.69043
429.5300, 65.00879
430.7220, 81.75488
431.9140, 4.940430
433.1050, 201.4668
434.2970, 14.25195
435.4880, 30.27344
436.6790, 114.6416
437.8700, 49.28711
439.0610, 129.8760
440.2510, 62.75195
441.4420, 37.99414
442.6320, 42.02148
443.8220, 226.8135
445.0120, 56.49414
446.2020, 36.95801
447.3910, 5.582031
448.5810, 66.31250
449.7700, 51.15332
450.9600, 28.77539
452.1490, 88.57617
453.3370, 51.19238
454.5260, 139.1680
455.7150, 50.85449
456.9030, 171.7344
458.0910, 26.50293
459.2800, 34.30176
460.4670, 66.20801
461.6550, 12.03223
462.8430, 106.7676
464.0300, 30.53027
465.2180, 78.31934
466.4050, 128.0518
467.5920, 106.3506
468.7790, 2.806641
469.9650, 143.3174
471.1520, 100.4062
472.3380, 214.2871
473.5250, 175.2217
474.7110, 222.7197
475.8970, 94.10156
477.0820, 257.0674
478.2680, 131.0566
479.4540, 59.06543
480.6390, 102.2109
481.8240, 23.76172
483.0090, 125.2305
484.1940, 75.35742
485.3780, 200.3701
486.5630, 29.56836
487.7470, 83.47559
488.9320, 15.06445
490.1160, 107.6328
491.3000, 274.6582
492.4830, 190.6992
493.6670, 357.8203
494.8500, 153.8887
496.0340, 168.9688
497.2170, 229.0576
498.4000, 185.2842
499.5820, 162.3408
500.7650, 182.7676
501.9480, 88.06250
503.1300, 235.8926
504.3120, 266.9902
505.4940, 77.15723
506.6760, 10.75586
507.8580, 168.8691
509.0390, 155.3545
510.2210, 273.1777
511.4020, 134.6289
512.5830, 187.7119
513.7640, 79.79688
514.9450, 216.1289
516.1250, 126.1689
517.3060, 299.1865
518.4860, 51.59668
519.6660, 342.7236
520.8460, 175.7021
522.0260, 36.86914
523.2060, 331.2549
524.3850, 131.9766
525.5650, 191.3242
526.7440, 270.0439
527.9230, 248.1367
529.1020, 306.1533
530.2810, 209.1729
531.4590, 268.0684
532.6380, 307.9609
533.8160, 98.64258
534.9940, 139.0029
536.1720, 133.7041
537.3500, 321.3311
538.5270, 310.2852
539.7050, 270.4062
540.8820, 193.2119
542.0590, 392.9365
543.2360, 188.8291
544.4130, 223.5967
545.5900, 11.27246
546.7660, 144.1992
547.9430, 79.42871
549.1190, 54.15820
550.2950, 154.3350
551.4710, 156.9287
552.6470, 311.0928
553.8220, 184.6045
554.9980, 288.6836
556.1730, 221.7139
557.3480, 134.4111
558.5230, 505.4336
559.6980, 543.8506
560.8730, 412.3086
562.0470, 211.1035
563.2220, 149.9854
564.3960, 237.5986
565.5700, 125.2119
566.7440, 263.8955
567.9170, 126.2188
569.0910, 165.1465
570.2640, 226.2471
571.4380, 89.31738
572.6110, 254.1191
573.7840, 208.5801
574.9570, 235.3242
576.1290, 203.0088
577.3020, 225.8096
578.4740, 202.0791
579.6460, 140.1670
580.8180, 320.3262
581.9900, 199.4619
583.1620, 181.9824
584.3330, 61.80273
585.5040, 224.8330
586.6760, 73.57812
587.8470, 275.8086
589.0180, 99.89453
590.1880, 215.7236
591.3590, 280.1689
592.5290, 382.2832
593.7000, 223.3955
594.8700, 202.3174
596.0400, 295.9268
597.2090, 222.0762
598.3790, 250.4131
599.5490, 10.18066
600.7180, 164.3027
601.8870, 175.7852
603.0560, 314.7969
604.2250, 296.5107
605.3940, 240.2285
606.5620, 96.34473
607.7300, 175.1934
608.8990, 309.0293
610.0670, 195.0156
611.2350, 202.9287
612.4020, 290.3301
613.5700, 238.0420
614.7370, 271.9814
615.9050, 340.6631
617.0720, 369.5273
618.2390, 261.4170
619.4060, 351.2998
620.5720, 216.5166
621.7390, 286.2549
622.9050, 253.7881
624.0710, 213.9805
625.2370, 324.6729
626.4030, 203.4541
627.5690, 348.9062
628.7340, 86.01660
629.9000, 165.4043
631.0650, 255.1924
632.2300, 273.5430
633.3950, 219.8281
634.5600, 353.0723
635.7240, 265.6553
636.8890, 310.9873
638.0530, 127.2041
639.2170, 330.3613
640.3810, 242.2852
641.5450, 290.3828
642.7080, 152.9385
643.8720, 283.0752
645.0350, 228.5146
646.1980, 336.8193
647.3610, 347.0312
648.5240, 151.3154
649.6870, 162.2607
650.8490, 160.3223
652.0120, 260.1338
653.1740, 250.9092
654.3360, 266.1260
655.4980, 218.9482
656.6600, 261.3438
657.8210, 264.3838
658.9830, 246.1152
660.1440, 357.0830
661.3050, 122.5508
662.4660, 357.7656
663.6270, 213.9932
664.7870, 404.3281
665.9480, 322.8604
667.1080, 432.8691
668.2680, 595.9785
669.4280, 628.0625
670.5880, 736.6367
671.7480, 770.0576
672.9070, 855.9453
674.0670, 870.5635
675.2260, 875.7090
676.3850, 864.3760
677.5440, 757.9619
678.7030, 780.0596
679.8610, 504.8867
681.0200, 381.1973
682.1780, 271.0156
683.3360, 210.6074
684.4940, 249.4561
685.6520, 213.5430
686.8090, 286.3086
687.9670, 299.7178
689.1240, 275.1777
690.2810, 283.1025
691.4380, 199.2236
692.5950, 214.9912
693.7520, 219.0234
694.9080, 149.8125
696.0650, 274.4268
697.2210, 249.7451
698.3770, 233.5518
699.5330, 247.3623
700.6880, 185.1123
701.8440, 45.75000
702.9990, 59.37695
704.1550, 90.10352
705.3100, 1.144531
706.4650, 55.25098
707.6190, 222.8906
708.7740, 85.60645
709.9290, 101.0889
711.0830, 105.1201
712.2370, 47.76758
713.3910, 147.0293
714.5450, 117.3154
715.6980, 254.0029
716.8520, 167.5352
718.0050, 203.8203
719.1580, 293.1914
720.3110, 321.8057
721.4640, 9.945313
722.6170, 155.0381
723.7700, 0.7167970
724.9220, 62.65820
726.0740, 223.9180
727.2260, 186.4609
728.3780, 292.8301
729.5300, 237.1621
730.6810, 20.68359
731.8330, 243.1855
732.9840, 71.56445
734.1350, 67.89062
735.2860, 157.3789
736.4370, 12.69141
737.5880, 144.1367
738.7380, 288.0391
739.8880, 44.76758
741.0390, 327.7754
742.1890, 267.2461
743.3380, 187.7070
744.4880, 190.8652
745.6380, 124.6621
746.7870, 102.6230
747.9360, 114.6738
749.0850, 104.2012
750.2340, 124.3965
751.3830, 133.8105
752.5310, 93.17773
753.6800, 132.5664
754.8280, 154.9434
755.9760, 91.31250
757.1240, 76.66992
758.2720, 50.01367
759.4190, 233.2207
760.5670, 291.5508
761.7140, 130.0078
762.8610, 189.2246
764.0080, 1.439453
765.1550, 11.87695
766.3020, 80.06641
767.4480, 47.57422
768.5950, 58.16016
769.7410, 143.4316
770.8870, 196.3145
772.0330, 18.80664
773.1780, 49.04102
774.3240, 99.26172
775.4690, 217.4766
776.6140, 153.5527
777.7590, 128.7480
778.9040, 149.9355
780.0490, 52.11719
781.1940, 275.5723
782.3380, 48.24805
783.4820, 272.8496
784.6260, 219.3301
785.7700, 42.48633
786.9140, 45.96484
788.0580, 181.5762
789.2010, 165.5117
790.3450, 239.6367
791.4880, 144.7539
792.6310, 182.8750
793.7730, 191.3164
794.9160, 133.7988
796.0590, 237.9043
797.2010, 146.1250
798.3430, 119.2324
799.4850, 126.4277
800.6270, 75.54297
801.7690, 160.6465
802.9100, 150.0254
804.0520, 119.7539
805.1930, 93.59180
806.3340, 106.6953
807.4750, 119.1387
808.6160, 81.16016
809.7560, 144.2520
810.8970, 44.29492
812.0370, 7.339844
813.1770, 44.37109
814.3170, 220.4297
815.4570, 147.4492
816.5960, 285.4766
817.7360, 121.5664
818.8750, 138.5664
820.0140, 117.5566
821.1530, 23.54297
822.2920, 156.5176
823.4310, 37.51562
824.5690, 169.1289
825.7070, 226.1328
826.8460, 125.1426
827.9840, 198.1523
829.1220, 270.2090
830.2590, 257.6270
831.3970, 393.8047
832.5340, 371.5410
833.6710, 689.5254
834.8080, 602.5078
835.9450, 810.2617
837.0820, 959.5977
838.2190, 795.5312
839.3550, 931.0410
840.4910, 538.8086
841.6270, 450.9785
842.7630, 356.6309
843.8990, 117.3613
845.0350, 333.3828
846.1700, 252.5469
847.3060, 178.9004
848.4410, 238.5371
849.5760, 134.2363
850.7100, 234.9941
851.8450, 368.0391
852.9800, 161.9551
854.1140, 329.8125
855.2480, 198.7109
856.3820, 230.6113
857.5160, 181.5020
858.6500, 171.0117
859.7830, 175.4160
860.9170, 236.0508
862.0500, 20.96094
863.1830, 223.9082
864.3160, 134.7715
865.4480, 112.6348
866.5810, 236.4941
867.7130, 206.9336
868.8460, 184.7773
869.9780, 87.92969
871.1100, 280.0820
872.2410, 202.8359
873.3730, 165.1680
874.5050, 34.85547
875.6360, 183.9102
876.7670, 106.8027
877.8980, 140.6094
879.0290, 142.7402
880.1590, 17.65625
881.2900, 32.53906
882.4200, 151.0742
883.5500, 123.1465
884.6800, 237.7109
885.8100, 168.1855
886.9400, 139.7812
888.0690, 162.4082
889.1990, 166.7871
890.3280, 232.3984
891.4570, 282.0957
892.5860, 256.7051
893.7140, 152.6914
894.8430, 159.6973
895.9710, 234.4023
897.1000, 84.10156
898.2280, 214.6699
899.3560, 154.3574
900.4830, 130.6602
901.6110, 95.68359
902.7380, 126.9512
903.8660, 200.1406
904.9930, 104.2422
906.1200, 17.85938
907.2460, 50.51172
908.3730, 287.1816
909.5000, 181.1934
910.6260, 260.5957
911.7520, 156.2188
912.8780, 177.8730
914.0040, 118.4258
915.1290, 279.0859
916.2550, 200.1816
917.3800, 95.83594
918.5050, 162.1719
919.6300, 100.1797
920.7550, 113.4062
921.8800, 196.3340
923.0040, 103.2930
924.1290, 40.86328
925.2530, 212.4238
926.3770, 149.9746
927.5010, 111.5000
928.6250, 44.03906
929.7480, 39.92383
930.8720, 231.0215
931.9950, 71.53125
933.1180, 154.0293
934.2410, 255.4453
935.3640, 105.8906
936.4860, 395.1152
937.6090, 15.37891
938.7310, 39.10938
939.8530, 271.4883
940.9750, 94.24023
942.0970, 35.99414
943.2180, 219.2773
944.3400, 119.3789
945.4610, 158.7480
946.5820, 91.58594
947.7030, 110.0215
948.8240, 79.85156
949.9450, 224.2148
951.0650, 82.57031
952.1860, 72.91797
953.3060, 7.833984
954.4260, 150.4785
955.5460, 120.6973
956.6650, 86.32812
957.7850, 214.6367
958.9040, 10.44531
960.0230, 223.7930
961.1420, 236.1582
962.2610, 311.4551
963.3800, 9.195313
964.4990, 33.13281
965.6170, 63.53906
966.7350, 222.5234
967.8530, 164.8027
968.9710, 208.0684
970.0890, 56.67188
971.2070, 49.98828
972.3240, 227.1914
973.4410, 311.3613
974.5580, 275.9434
975.6750, 201.1055
976.7920, 231.2773
977.9090, 228.4512
979.0250, 77.55469
980.1410, 114.7266
981.2580, 206.8965
982.3740, 11.94141
983.4890, 197.1992
984.6050, 149.3379
985.7200, 34.53125
986.8360, 141.5664
987.9510, 88.65430
989.0660, 198.7324
990.1810, 130.8027
991.2950, 248.8613
992.4100, 253.9102
993.5240, 10.95898
994.6390, 4.996094
995.7530, 126.0234
996.8660, 177.3145
997.9800, 214.3281
999.0940, 188.3418
1000.207, 94.29492
1001.320, 176.5605
1002.433, 102.9336
1003.546, 115.5312
1004.659, 84.36133
1005.772, 188.3242
1006.884, 273.2812
1007.996, 218.2305
1009.108, 55.66992
1010.220, 157.5977
1011.332, 303.4727
1012.444, 52.42578
1013.555, 77.78125
1014.666, 357.9551
1015.777, 140.5449
1016.888, 14.41406
1017.999, 102.2695
1019.110, 395.1328
1020.220, 209.9844
1021.331, 251.8301
1022.441, 148.8711
1023.551, 255.6973
1024.661, 207.6855
1025.770, 293.4746
1026.880, 266.5918
1027.989, 225.3750
1029.098, 263.1504
1030.207, 274.0586
1031.316, 256.0938
1032.425, 325.8398
1033.533, 313.5723
1034.642, 206.4102
1035.750, 393.3105
1036.858, 135.0254
1037.966, 259.0625
1039.073, 371.7715
1040.181, 330.0684
1041.288, 547.6367
1042.396, 930.3164
1043.503, 907.9844
1044.610, 1576.645
1045.716, 2636.623
1046.823, 5318.377
1047.929, 7839.719
1049.036, 10607.33
1050.142, 15806.23
1051.248, 22918.58
1052.353, 31633.17
1053.459, 38453.41
1054.564, 37286.98
1055.670, 26704.54
1056.775, 12079.09
1057.880, 4582.270
1058.985, 1978.793
1060.089, 1450.314
1061.194, 912.0391
1062.298, 577.1953
1063.402, 409.3027
1064.506, 565.7676
1065.610, 494.3789
1066.713, 370.9160
1067.817, 386.3438
1068.920, 328.9219
1070.023, 189.3262
1071.126, 161.4453
1072.229, 348.4453
1073.332, 190.7773
1074.435, 370.1055
1075.537, 212.0781
1076.639, 189.4121
1077.741, 226.3555
1078.843, 250.6699
1079.945, 336.9668
1081.046, 201.2598
1082.148, 246.0137
1083.249, 155.7812
1084.350, 236.0273
1085.451, 206.2695
1086.551, 268.8477
1087.652, 303.3984
1088.752, 313.0039
1089.853, 354.5410
1090.953, 353.3730
1092.053, 313.1465
1093.152, 281.3027
1094.252, 157.4492
1095.351, 259.5820
1096.451, 180.6543
1097.550, 370.7910
1098.649, 25.14453
1099.748, 184.2168
1100.846, 131.2754
1101.945, 332.3223
1103.043, 47.57617
1104.141, 355.2285
1105.239, 213.2305
1106.337, 25.77930
1107.434, 271.1660
1108.532, 282.5352
1109.629, 183.4570
1110.726, 156.3496
1111.823, 273.6348
1112.920, 221.5156
1114.017, 282.3848
1115.113, 450.0117
1116.210, 392.8555
1117.306, 463.6348
1118.402, 377.9590
1119.498, 493.7617
1120.593, 355.5312
1121.689, 383.3105
1122.784, 398.0742
1123.879, 524.8281
1124.974, 317.5664
1126.069, 298.6562
1127.164, 132.6602
1128.259, 121.3633
1129.353, 237.0586
1130.447, 135.5898
1131.541, 220.2617
1132.635, 60.91992
1133.729, 242.5645
1134.822, 232.1973
1135.916, 199.8164
1137.009, 239.3809
1138.102, 159.9766
1139.195, 219.5605
1140.288, 322.1289
1141.380, 110.4512
1142.473, 161.0000
1143.565, 67.46289
1144.657, 31.70312
1145.749, 207.0605
1146.841, 212.5059
1147.932, 216.2188
1149.024, 171.1875
1150.115, 187.7148
1151.206, 119.1250
1152.297, 200.5234
1153.388, 59.90820
1154.479, 236.2793
1155.569, 63.63867
1156.659, 14.98438
1157.750, 43.31055
1158.839, 219.6230
1159.929, 140.9219
1161.019, 67.21094
1162.108, 11.48438
1163.198, 41.73828
1164.287, 134.9785
1165.376, 72.20703
1166.465, 8.578125
1167.553, 229.6074
1168.642, 35.78516
1169.730, 127.9434
1170.818, 46.09375
1171.906, 49.23633
1172.994, 190.3633
1174.082, 151.4824
1175.170, 192.5898
1176.257, 108.3105
1177.344, 60.70508
1178.431, 67.28906
1179.518, 99.65625
1180.605, 28.59180
1181.691, 5.484375
1182.778, 97.41016
1183.864, 196.2949
1184.950, 158.8496
1186.036, 197.4570
1187.122, 118.9844
1188.207, 154.8594
1189.292, 100.7285
1190.378, 74.58594
1191.463, 27.43750
1192.548, 100.2773
1193.632, 212.1074
1194.717, 129.9336
1195.801, 19.75000
1196.886, 111.4453
1197.970, 103.2832
1199.054, 29.00195
1200.137, 169.7090
1201.221, 281.4082
1202.305, 228.1055
1203.388, 16.20117
1204.471, 207.4648
1205.554, 68.14648
1206.637, 105.8320
1207.719, 12.48828
1208.802, 50.83594
1209.884, 71.77930
1210.966, 90.38477
1212.048, 102.4922
1213.130, 93.57227
1214.212, 105.1543
1215.293, 29.72852
1216.374, 27.70117
1217.456, 168.8438
1218.536, 30.38086
1219.617, 105.9121
1220.698, 225.5645
1221.778, 7.828125
1222.859, 88.78711
1223.939, 107.5430
1225.019, 52.86523
1226.099, 138.1816
1227.178, 34.50391
1228.258, 0.2148440
1229.337, 39.30273
1230.417, 137.5957
1231.496, 145.8809
1232.574, 36.16211
1233.653, 109.9883
1234.732, 88.29102
1235.810, 124.5879
1236.888, 83.95312
1237.966, 57.24805
1239.044, 21.00391
1240.122, 51.27344
1241.199, 6.527344
1242.277, 33.68359
1243.354, 78.89062
1244.431, 248.0918
1245.508, 13.29883
1246.585, 290.5000
1247.661, 18.69922
1248.738, 57.90625
1249.814, 73.11133
1250.890, 117.3125
1251.966, 185.5137
1253.042, 153.7109
1254.117, 187.9062
1255.193, 57.09961
1256.268, 149.2969
1257.343, 214.4902
1258.418, 77.68555
1259.493, 60.12109
1260.567, 209.0449
1261.642, 180.2090
1262.716, 100.1016
1263.790, 101.2637
1264.864, 114.4258
1265.938, 66.57031
1267.011, 81.99023
1268.085, 16.91016
1269.158, 107.0742
1270.231, 82.23633
1271.304, 158.8887
1272.377, 182.5625
1273.450, 228.6855
1274.522, 101.3945
1275.594, 98.56445
1276.666, 13.26367
1277.738, 8.095703
1278.810, 93.92188
1279.882, 299.2129
1280.953, 175.3535
1282.025, 303.4941
1283.096, 224.4297
1284.167, 75.57812
1285.238, 145.5527
1286.308, 268.7207
1287.379, 254.5547
1288.449, 220.7168
1289.519, 209.8828
1290.589, 239.9082
1291.659, 256.9941
1292.729, 100.8691
1293.798, 303.0508
1294.868, 160.1309
1295.937, 343.1094
1297.006, 104.3477
1298.075, 352.2695
1299.143, 264.5176
1300.212, 326.5547
1301.280, 286.6289
1302.348, 397.8984
1303.416, 468.1738
1304.484, 362.4570
1305.552, 388.4180
1306.620, 462.6016
1307.687, 409.2012
1308.754, 412.5254
1309.821, 133.5586
1310.888, 425.1309
1311.955, 295.4805
1313.021, 525.8418
1314.088, 498.2129
1315.154, 691.5898
1316.220, 471.9766
1317.286, 440.3750
1318.352, 481.7812
1319.417, 638.1855
1320.483, 609.3906
1321.548, 735.8242
1322.613, 640.2617
1323.678, 628.7012
1324.743, 858.8867
1325.807, 513.2402
1326.872, 512.6973
1327.936, 723.9961
1329.000, 702.4648
1330.064, 430.9395
1331.128, 677.4219
1332.191, 875.9453
1333.255, 677.4414
1334.318, 805.9414
1335.381, 727.4512
1336.444, 695.3438
1337.507, 690.8672
1338.569, 830.3984
1339.632, 734.9414
1340.694, 963.4961
1341.756, 843.0566
1342.818, 910.6289
1343.880, 872.1270
1344.941, 1052.367
1346.003, 1030.973
1347.064, 1186.520
1348.125, 1282.146
1349.186, 1446.135
1350.247, 1664.564
1351.308, 2012.229
1352.368, 2053.902
1353.428, 2221.588
1354.489, 2501.289
1355.549, 3020.557
1356.608, 3187.842
1357.668, 3401.588
1358.727, 3734.350
1359.787, 3709.123
1360.846, 3884.914
1361.905, 3957.930
1362.964, 3934.402
1364.022, 4016.379
1365.081, 3867.250
1366.139, 3828.697
1367.197, 3734.598
1368.255, 3364.529
1369.313, 3362.006
1370.371, 2882.957
1371.428, 2970.926
1372.486, 3182.914
1373.543, 2660.916
1374.600, 2751.938
1375.657, 2444.979
1376.713, 2192.033
1377.770, 2204.109
1378.826, 1926.199
1379.882, 1584.311
1380.938, 1406.438
1381.994, 1249.588
1383.050, 1099.977
1384.106, 928.9395
1385.161, 901.1445
1386.216, 740.3691
1387.271, 563.7637
1388.326, 640.0273
1389.381, 548.3145
1390.435, 376.6191
1391.490, 602.9473
1392.544, 486.2969
1393.598, 271.6699
1394.652, 281.0664
1395.705, 138.4863
1396.759, 116.9258
1397.812, 101.2324
1398.866, 226.8828
1399.919, 156.3984
1400.972, 23.96484
1402.024, 182.5605
1403.077, 284.1836
1404.129, 294.5645
1405.181, 421.0977
1406.233, 259.6953
1407.285, 213.4277
1408.337, 228.1895
1409.389, 175.9805
1410.440, 145.5137
1411.491, 358.6562
1412.542, 203.5410
1413.593, 242.4629
1414.644, 576.4180
1415.695, 505.4062
1416.745, 452.4297
1417.795, 401.4902
1418.845, 429.5938
1419.895, 604.7344
1420.945, 462.9121
1421.995, 536.2695
1423.044, 372.4609
1424.093, 494.7715
1425.142, 534.1250
1426.191, 471.5215
1427.240, 376.9668
1428.289, 520.4590
1429.337, 528.9980
1430.385, 665.5879
1431.433, 686.2305
1432.481, 616.9629
1433.529, 605.4297
1434.577, 635.3027
1435.624, 560.2949
1436.672, 627.8926
1437.719, 511.5273
1438.766, 546.1777
1439.812, 627.8359
1440.859, 709.4336
1441.905, 731.9375
1442.952, 711.5195
1443.998, 742.0430
1445.044, 758.0840
1446.090, 749.8379
1447.135, 827.6875
1448.181, 819.9570
1449.226, 891.9805
1450.271, 887.6289
1451.316, 1080.373
1452.361, 1269.143
1453.405, 1350.953
1454.450, 1482.977
1455.494, 1358.684
1456.538, 1623.625
1457.582, 1650.594
1458.626, 1657.588
1459.670, 1830.637
1460.713, 1858.715
1461.757, 1827.965
1462.800, 1872.307
1463.843, 1998.682
1464.886, 2057.119
1465.928, 2046.590
1466.971, 2212.098
1468.013, 2422.643
1469.055, 2428.781
1470.097, 2431.873
1471.139, 2621.598
1472.181, 2462.367
1473.222, 2690.172
1474.263, 2465.020
1475.305, 2720.896
1476.346, 2584.816
1477.386, 2732.775
1478.427, 2358.773
1479.468, 2289.816
1480.508, 2485.932
1481.548, 2438.090
1482.588, 2375.143
1483.628, 2094.531
1484.668, 2189.814
1485.707, 1981.141
1486.747, 1900.510
1487.786, 1779.918
1488.825, 1694.377
1489.864, 1372.936
1490.902, 1294.537
1491.941, 1144.186
1492.979, 1106.873
1494.017, 877.6074
1495.055, 719.3848
1496.093, 796.2012
1497.131, 583.0449
1498.168, 681.8262
1499.206, 548.6406
1500.243, 606.4902
1501.280, 604.3750
1502.317, 467.2891
1503.354, 400.2148
1504.390, 458.1699
1505.426, 260.1582
1506.463, 362.1758
1507.499, 83.23828
1508.535, 316.3379
1509.570, 436.4707
1510.606, 194.6836
1511.641, 312.9805
1512.676, 138.3613
1513.711, 388.8301
1514.746, 398.3867
1515.781, 242.0352
1516.816, 366.7715
1517.850, 175.5957
1518.884, 204.5098
1519.918, 260.5117
1520.952, 3.601563
1521.986, 60.78516
1523.019, 143.0645
1524.053, 79.43359
1525.086, 225.8984
1526.119, 247.4648
1527.152, 240.1328
1528.185, 337.2109
1529.217, 170.7754
1530.250, 410.7578
1531.282, 175.8457
1532.314, 113.0527
1533.346, 16.37109
1534.377, 109.8105
1535.409, 155.3809
1536.440, 106.0879
1537.472, 331.9434
1538.503, 253.9590
1539.534, 44.14258
1540.564, 93.50977
1541.595, 230.0664
1542.625, 135.8203
1543.656, 369.7812
1544.686, 88.95508
1545.716, 35.64648
1546.745, 93.01562
1547.775, 94.86328
1548.804, 208.0059
1549.834, 125.4219
1550.863, 251.1328
1551.892, 154.1602
1552.920, 402.5312
1553.949, 237.2695
1554.977, 133.4082
1556.006, 320.9707
1557.034, 37.99805
1558.062, 315.5156
1559.089, 3.785156
1560.117, 179.4570
1561.144, 238.0918
1562.172, 430.1562
1563.199, 203.8105
1564.226, 397.1504
1565.252, 374.1094
1566.279, 234.2578
1567.305, 346.8535
1568.332, 372.0352
1569.358, 0.6777340
1570.384, 0.0000000E+00
##END=



