##NAMES=Cerussite
##RRUFFID=R050174
##IDEAL CHEMISTRY=Pb^2+^CO_3_
##LOCALITY=Tsumeb mine, Tsumeb, Otavi District, Oshikoto, Namibia
##OWNER=RRUFF
##SOURCE=Marcus Origlieri
##DESCRIPTION=Colorless single crystal
##STATUS=The identification of this mineral has been confirmed by X-ray diffraction and chemical analysis
##URL=rruff.info/R050174
##MEASURED CHEMISTRY=Pb_1.00_CO_3_ ; C not measured but estimated by difference and stoichiometry
##PIN_ID=L00917
##ORIENTATION=Laser parallel to a* (1 0 0). Fiducial mark perpendicular to laser is parallel to -b [0 -1 0]
51.43100, 0.0000000E+00
52.67100, 31.39313
53.91000, 46.79465
55.14900, 37.18747
56.38700, 9.053772
57.62600, 1.031555
58.86400, 13.75766
60.10300, 10.06049
61.34100, 9.512268
62.57900, 16.36346
63.81700, 112.1322
65.05400, 227.4328
66.29200, 471.9640
67.52900, 697.4737
68.76700, 1123.750
70.00400, 1602.618
71.24100, 2161.925
72.47700, 2815.535
73.71400, 3344.330
74.95100, 3846.201
76.18700, 4072.057
77.42300, 4083.818
78.65900, 3901.408
79.89500, 3674.768
81.13100, 3492.838
82.36700, 3266.570
83.60200, 3180.921
84.83700, 3081.851
86.07200, 2986.326
87.30800, 2950.320
88.54200, 2909.814
89.77700, 2879.771
91.01200, 2772.152
92.24600, 2824.924
93.48000, 2820.059
94.71400, 2678.533
95.94800, 2724.329
97.18200, 2596.429
98.41600, 2557.816
99.64900, 2501.475
100.8830, 2443.392
102.1160, 2440.557
103.3490, 2438.958
104.5820, 2388.584
105.8150, 2410.425
107.0470, 2414.472
108.2800, 2428.715
109.5120, 2535.146
110.7440, 2590.756
111.9760, 2610.545
113.2080, 2901.509
114.4400, 3007.640
115.6710, 3219.947
116.9030, 3524.417
118.1340, 3838.027
119.3650, 4105.800
120.5960, 4374.771
121.8270, 4402.900
123.0580, 4368.239
124.2880, 4305.810
125.5190, 4345.522
126.7490, 4385.237
127.9790, 4415.997
129.2090, 4696.789
130.4390, 4788.587
131.6680, 5147.433
132.8980, 5309.323
134.1270, 5407.270
135.3560, 5311.256
136.5850, 5261.299
137.8140, 4949.424
139.0430, 4349.630
140.2710, 3969.900
141.5000, 3409.241
142.7280, 3265.640
143.9560, 2852.093
145.1840, 2576.588
146.4120, 2432.138
147.6390, 2254.746
148.8670, 2071.414
150.0940, 1921.159
151.3210, 1817.960
152.5490, 1719.816
153.7750, 1682.732
155.0020, 1608.698
156.2290, 1571.714
157.4550, 1428.775
158.6810, 1359.883
159.9080, 1273.031
161.1340, 1211.219
162.3590, 1191.447
163.5850, 1116.711
164.8110, 1126.012
166.0360, 1049.348
167.2610, 1040.718
168.4860, 998.1221
169.7110, 993.6198
170.9360, 988.9709
172.1610, 964.9582
173.3850, 994.6305
174.6100, 1007.289
175.8340, 1009.879
177.0580, 1053.165
178.2820, 1011.344
179.5050, 1030.370
180.7290, 1032.536
181.9520, 965.5659
183.1760, 1011.291
184.3990, 984.0395
185.6220, 968.1962
186.8450, 950.0206
188.0670, 948.7086
189.2900, 970.0062
190.5120, 995.4508
191.7340, 945.4456
192.9560, 981.6354
194.1780, 1011.110
195.4000, 1113.349
196.6220, 1115.275
197.8430, 1147.287
199.0640, 1180.373
200.2860, 1213.206
201.5070, 1264.861
202.7270, 1360.737
203.9480, 1387.831
205.1690, 1541.766
206.3890, 1636.919
207.6090, 1720.179
208.8290, 1770.308
210.0490, 1896.897
211.2690, 1980.953
212.4890, 2128.301
213.7080, 2241.018
214.9280, 2291.727
216.1470, 2366.429
217.3660, 2378.312
218.5850, 2306.602
219.8030, 2326.025
221.0220, 2177.510
222.2400, 2131.653
223.4590, 2052.444
224.6770, 1940.236
225.8950, 1901.496
227.1120, 1836.068
228.3300, 1706.652
229.5480, 1671.399
230.7650, 1521.887
231.9820, 1414.052
233.1990, 1335.507
234.4160, 1220.303
235.6330, 1059.939
236.8490, 954.6190
238.0660, 901.3419
239.2820, 794.6570
240.4980, 745.5973
241.7140, 714.0651
242.9300, 604.4478
244.1460, 569.8929
245.3610, 494.4686
246.5770, 492.1743
247.7920, 445.7419
249.0070, 407.2548
250.2220, 375.8292
251.4370, 355.9336
252.6510, 347.9908
253.8660, 292.7365
255.0800, 291.5021
256.2940, 298.6703
257.5080, 241.3406
258.7220, 224.9672
259.9360, 202.2349
261.1490, 211.7712
262.3630, 154.0312
263.5760, 132.8819
264.7890, 158.1909
266.0020, 107.4988
267.2150, 136.8201
268.4270, 101.2780
269.6400, 76.69092
270.8520, 76.04419
272.0640, 64.51221
273.2760, 74.88196
274.4880, 64.25989
275.7000, 58.64539
276.9120, 51.03845
278.1230, 34.43890
279.3340, 39.84650
280.5450, 44.26154
281.7560, 46.70294
282.9670, 36.89532
284.1780, 7.566223
285.3880, 16.09192
286.5980, 4.463074
287.8090, 5.627747
289.0190, 21.84399
290.2290, 15.69910
291.4380, 27.87274
292.6480, 1.665161
293.8570, 7.200684
295.0670, 5.717957
296.2760, 0.7625120
297.4850, 3.265991
298.6930, 8.744019
299.9020, 25.79358
301.1110, 6.674377
302.3190, 8.179688
303.5270, 21.27649
304.7350, 6.811646
305.9430, 11.34827
307.1510, 14.88708
308.3580, 6.428955
309.5660, 10.97321
310.7730, 3.520630
311.9800, 3.997498
313.1870, 3.302307
314.3940, 7.889526
315.6010, 9.330750
316.8070, 9.231628
318.0130, 4.756592
319.2200, 28.33069
320.4260, 23.73083
321.6310, 35.32239
322.8370, 9.917236
324.0430, 21.53210
325.2480, 15.08588
326.4540, 4.793945
327.6590, 10.25739
328.8640, 12.90936
330.0680, 12.56946
331.2730, 37.24048
332.4780, 7.935730
333.6820, 42.64819
334.8860, 42.38434
336.0900, 35.14050
337.2940, 25.91772
338.4980, 24.71918
339.7010, 28.55475
340.9050, 31.42004
342.1080, 2.314636
343.3110, 25.22839
344.5140, 4.146606
345.7170, 53.05945
346.9200, 40.99030
348.1220, 43.93414
349.3240, 30.89246
350.5270, 16.86176
351.7290, 13.16425
352.9310, 19.80408
354.1320, 4.782776
355.3340, 26.76617
356.5350, 7.233643
357.7370, 14.76807
358.9380, 11.78290
360.1390, 10.18988
361.3400, 9.159180
362.5400, 3.123901
363.7410, 3.080627
364.9410, 12.97144
366.1410, 5.040955
367.3410, 14.12488
368.5410, 12.22839
369.7410, 1.351318
370.9400, 14.66327
372.1400, 3.451965
373.3390, 4.614807
374.5380, 27.33826
375.7370, 9.335632
376.9360, 5.171021
378.1350, 23.13531
379.3330, 36.91333
380.5310, 41.68402
381.7300, 40.69727
382.9280, 16.49719
384.1260, 30.26630
385.3230, 16.04132
386.5210, 19.88293
387.7180, 19.87964
388.9160, 17.98303
390.1130, 2.518860
391.3100, 21.22772
392.5060, 24.48248
393.7030, 24.16748
394.9000, 45.82874
396.0960, 14.67505
397.2920, 23.45294
398.4880, 24.21448
399.6840, 55.07349
400.8800, 29.82758
402.0750, 32.81293
403.2710, 51.42938
404.4660, 39.11633
405.6610, 62.66077
406.8560, 30.82452
408.0510, 57.81073
409.2450, 67.43866
410.4400, 65.21155
411.6340, 52.68079
412.8280, 57.15302
414.0220, 70.88135
415.2160, 56.26459
416.4100, 68.69684
417.6030, 74.13416
418.7970, 73.50946
419.9900, 78.81372
421.1830, 78.15204
422.3760, 80.50232
423.5690, 74.97583
424.7610, 70.37122
425.9540, 87.83234
427.1460, 84.14563
428.3380, 66.49567
429.5300, 85.77356
430.7220, 52.00604
431.9140, 75.23663
433.1050, 82.48755
434.2970, 67.49622
435.4880, 87.63940
436.6790, 83.77991
437.8700, 78.80652
439.0610, 79.83649
440.2510, 77.91479
441.4420, 94.10742
442.6320, 94.16730
443.8220, 88.64862
445.0120, 79.69269
446.2020, 75.72266
447.3910, 92.28351
448.5810, 91.18762
449.7700, 101.9982
450.9600, 106.6654
452.1490, 106.5170
453.3370, 104.2310
454.5260, 79.08380
455.7150, 104.9881
456.9030, 112.8784
458.0910, 94.75464
459.2800, 113.6168
460.4670, 84.25525
461.6550, 101.9688
462.8430, 73.80676
464.0300, 93.82703
465.2180, 88.17450
466.4050, 102.6763
467.5920, 120.6595
468.7790, 101.8333
469.9650, 72.40350
471.1520, 111.7043
472.3380, 90.85168
473.5250, 112.9727
474.7110, 117.7779
475.8970, 110.0291
477.0820, 102.4289
478.2680, 114.7811
479.4540, 100.4825
480.6390, 108.6328
481.8240, 118.7963
483.0090, 120.7006
484.1940, 105.3944
485.3780, 99.59357
486.5630, 89.53198
487.7470, 96.55670
488.9320, 95.75842
490.1160, 79.61243
491.3000, 93.23975
492.4830, 114.5775
493.6670, 96.68420
494.8500, 94.14844
496.0340, 95.22858
497.2170, 75.61322
498.4000, 93.93048
499.5820, 69.09283
500.7650, 83.01080
501.9480, 99.05316
503.1300, 71.20770
504.3120, 94.28107
505.4940, 75.03827
506.6760, 72.74719
507.8580, 62.47266
509.0390, 63.61456
510.2210, 70.17670
511.4020, 69.80292
512.5830, 37.01990
513.7640, 47.98199
514.9450, 77.05280
516.1250, 35.98169
517.3060, 32.65887
518.4860, 45.45752
519.6660, 31.80597
520.8460, 49.83020
522.0260, 57.03003
523.2060, 27.21930
524.3850, 43.39600
525.5650, 45.00946
526.7440, 43.02448
527.9230, 34.53766
529.1020, 23.15961
530.2810, 60.73999
531.4590, 25.21112
532.6380, 33.57080
533.8160, 8.086670
534.9940, 35.67194
536.1720, 36.21130
537.3500, 21.23560
538.5270, 23.31964
539.7050, 22.72748
540.8820, 16.12628
542.0590, 20.79413
543.2360, 9.644775
544.4130, 27.20850
545.5900, 21.13879
546.7660, 30.80725
547.9430, 2.757996
549.1190, 6.121033
550.2950, 20.04205
551.4710, 11.95380
552.6470, 30.85388
553.8220, 28.61951
554.9980, 11.43121
556.1730, 36.30139
557.3480, 28.05634
558.5230, 25.90894
559.6980, 37.75238
560.8730, 33.58752
562.0470, 32.41425
563.2220, 29.24841
564.3960, 17.09680
565.5700, 21.66162
566.7440, 15.71075
567.9170, 26.49561
569.0910, 21.39618
570.2640, 27.27679
571.4380, 25.03265
572.6110, 21.39453
573.7840, 24.11584
574.9570, 23.38312
576.1290, 36.46002
577.3020, 28.17773
578.4740, 41.88818
579.6460, 49.57538
580.8180, 39.25940
581.9900, 17.91486
583.1620, 35.59741
584.3330, 32.27307
585.5040, 30.94470
586.6760, 30.57233
587.8470, 27.15436
589.0180, 27.40002
590.1880, 23.45581
591.3590, 27.62915
592.5290, 27.73535
593.7000, 30.36713
594.8700, 37.99396
596.0400, 39.54688
597.2090, 57.16211
598.3790, 39.77136
599.5490, 46.37457
600.7180, 23.97217
601.8870, 33.52142
603.0560, 19.10980
604.2250, 16.61493
605.3940, 39.09888
606.5620, 17.67712
607.7300, 16.26343
608.8990, 27.84814
610.0670, 20.43066
611.2350, 28.82886
612.4020, 36.40521
613.5700, 34.34045
614.7370, 46.55194
615.9050, 46.12903
617.0720, 48.70654
618.2390, 73.28949
619.4060, 68.87830
620.5720, 76.47119
621.7390, 47.06659
622.9050, 59.66431
624.0710, 55.26550
625.2370, 68.87115
626.4030, 51.47461
627.5690, 57.08154
628.7340, 63.68695
629.9000, 53.30298
631.0650, 80.92688
632.2300, 57.55951
633.3950, 67.19794
634.5600, 101.8408
635.7240, 72.48401
636.8890, 65.13562
638.0530, 38.78760
639.2170, 56.44733
640.3810, 68.10620
641.5450, 44.76862
642.7080, 33.43658
643.8720, 32.10254
645.0350, 31.76697
646.1980, 24.43140
647.3610, 28.09601
648.5240, 27.76477
649.6870, 26.33093
650.8490, 28.11230
652.0120, 20.79327
653.1740, 18.32416
654.3360, 2.975403
655.4980, 6.660217
656.6600, 10.78583
657.8210, 6.010254
658.9830, 6.359619
660.1440, 10.86420
661.3050, 23.49731
662.4660, 35.22211
663.6270, 48.64746
664.7870, 51.27606
665.9480, 64.92249
667.1080, 87.55182
668.2680, 120.1110
669.4280, 184.4917
670.5880, 283.1674
671.7480, 350.6064
672.9070, 355.2064
674.0670, 605.2720
675.2260, 903.8938
676.3850, 824.5250
677.5440, 545.9594
678.7030, 274.4459
679.8610, 118.9337
681.0200, 78.30902
682.1780, 67.77698
683.3360, 38.99933
684.4940, 54.57794
685.6520, 66.07336
686.8090, 11.69733
687.9670, 24.68951
689.1240, 4.843872
690.2810, 12.34509
691.4380, 38.68854
692.5950, 31.32288
693.7520, 17.94067
694.9080, 58.28900
696.0650, 116.9699
697.2210, 139.5882
698.3770, 76.18854
699.5330, 43.87677
700.6880, 32.54510
701.8440, 2.204956
702.9990, 1.159973
704.1550, 0.6616210
705.3100, 2.901367
706.4650, 4.385376
707.6190, 5.996155
708.7740, 8.428284
709.9290, 5.197083
711.0830, 7.805969
712.2370, 19.38715
713.3910, 14.99731
714.5450, 18.60388
715.6980, 20.29437
716.8520, 23.24060
718.0050, 40.63812
719.1580, 35.32935
720.3110, 45.02094
721.4640, 56.59705
722.6170, 38.28979
723.7700, 64.97528
724.9220, 77.65680
726.0740, 104.3386
727.2260, 105.0085
728.3780, 76.68109
729.5300, 66.34143
730.6810, 62.01849
731.8330, 80.69788
732.9840, 100.4052
734.1350, 60.10345
735.2860, 80.80310
736.4370, 63.50336
737.5880, 47.20435
738.7380, 56.93152
739.8880, 50.60999
741.0390, 37.35089
742.1890, 54.00580
743.3380, 33.64551
744.4880, 50.98132
745.6380, 27.82245
746.7870, 49.47119
747.9360, 31.20361
749.0850, 32.06250
750.2340, 41.77441
751.3830, 44.48730
752.5310, 16.20105
753.6800, 18.13629
754.8280, 15.51062
755.9760, 40.22687
757.1240, 47.94397
758.2720, 8.661743
759.4190, 39.39142
760.5670, 28.15240
761.7140, 20.89050
762.8610, 21.64313
764.0080, 26.38110
765.1550, 26.10327
766.3020, 33.82617
767.4480, 35.67065
768.5950, 39.35913
769.7410, 41.99890
770.8870, 40.72455
772.0330, 42.81293
773.1780, 31.48450
774.3240, 28.26038
775.4690, 23.98822
776.6140, 9.151367
777.7590, 51.08789
778.9040, 37.83087
780.0490, 37.17676
781.1940, 56.90674
782.3380, 45.63696
783.4820, 47.37244
784.6260, 52.12653
785.7700, 42.85938
786.9140, 26.59113
788.0580, 35.32758
789.2010, 32.06006
790.3450, 25.80420
791.4880, 26.53796
792.6310, 41.24188
793.7730, 20.93549
794.9160, 44.18640
796.0590, 4.682434
797.2010, 30.38043
798.3430, 17.11298
799.4850, 16.85162
800.6270, 13.59070
801.7690, 22.33130
802.9100, 12.07251
804.0520, 27.81427
805.1930, 1.556763
806.3340, 8.300110
807.4750, 52.36145
808.6160, 28.10693
809.7560, 0.8538210
810.8970, 25.16400
812.0370, 4.975708
813.1770, 10.72693
814.3170, 14.47870
815.4570, 24.23181
816.5960, 14.98615
817.7360, 28.74316
818.8750, 9.500366
820.0140, 12.25873
821.1530, 20.44568
822.2920, 48.20709
823.4310, 19.96973
824.5690, 35.77856
825.7070, 57.55316
826.8460, 52.64813
827.9840, 42.41821
829.1220, 50.19043
830.2590, 58.51038
831.3970, 66.77106
832.5340, 96.64868
833.6710, 150.4234
834.8080, 187.2240
835.9450, 263.0351
837.0820, 491.8188
838.2190, 764.5952
839.3550, 1022.419
840.4910, 1037.170
841.6270, 709.9352
842.7630, 401.7274
843.8990, 250.5086
845.0350, 145.1929
846.1700, 116.7924
847.3060, 88.59625
848.4410, 56.38965
849.5760, 61.17194
850.7100, 37.95465
851.8450, 31.74200
852.9800, 40.52521
854.1140, 41.30859
855.2480, 38.09723
856.3820, 28.90002
857.5160, 6.717163
858.6500, 7.537903
859.7830, 11.32336
860.9170, 15.10919
862.0500, 18.89490
863.1830, 13.68060
864.3160, 37.46637
865.4480, 5.252197
866.5810, 20.03796
867.7130, 25.84741
868.8460, 4.633423
869.9780, 24.42084
871.1100, 30.28510
872.2410, 23.07190
873.3730, 23.86243
874.5050, 2.652649
875.6360, 33.44470
876.7670, 0.2365720
877.8980, 23.02783
879.0290, 17.81946
880.1590, 12.38898
881.2900, 4.584595
882.4200, 10.19928
883.5500, 3.983032
884.6800, 4.233887
885.8100, 13.58209
886.9400, 32.36389
888.0690, 25.14655
889.1990, 5.067383
890.3280, 12.28052
891.4570, 14.49994
892.5860, 16.27991
893.7140, 26.05908
894.8430, 7.837708
895.9710, 0.6156010
897.1000, 6.398865
898.2280, 3.181152
899.3560, 6.962463
900.4830, 24.74298
901.6110, 22.52765
902.7380, 36.31525
903.8660, 32.37488
904.9930, 32.89508
906.1200, 21.69025
907.2460, 6.514465
908.3730, 15.72272
909.5000, 17.30536
910.6260, 17.83344
911.7520, 7.393494
912.8780, 3.625244
914.0040, 9.141235
915.1290, 10.09045
916.2550, 19.67334
917.3800, 13.43744
918.5050, 6.200378
919.6300, 24.96698
920.7550, 12.73242
921.8800, 36.49670
923.0040, 12.26160
924.1290, 22.02527
925.2530, 10.79218
926.3770, 29.55774
927.5010, 4.329651
928.6250, 42.10022
929.7480, 34.87177
930.8720, 32.64600
931.9950, 17.41992
933.1180, 11.19543
934.2410, 31.97015
935.3640, 32.75024
936.4860, 36.52887
937.6090, 25.30920
938.7310, 35.09351
939.8530, 22.88007
940.9750, 24.65472
942.0970, 3.561890
943.2180, 16.21729
944.3400, 28.99634
945.4610, 7.239807
946.5820, 3.531799
947.7030, 35.30109
948.8240, 19.06860
949.9450, 28.83423
951.0650, 47.59802
952.1860, 16.36139
953.3060, 20.12750
954.4260, 19.89166
955.5460, 4.346130
956.6650, 25.41113
957.7850, 31.16925
958.9040, 6.925415
960.0230, 15.67902
961.1420, 2.564148
962.2610, 39.19006
963.3800, 17.94208
964.4990, 9.693604
965.6170, 29.44263
966.7350, 2.190247
967.8530, 32.93707
968.9710, 12.68335
970.0890, 10.42706
971.2070, 17.17200
972.3240, 36.91443
973.4410, 6.654907
974.5580, 16.39252
975.6750, 15.12763
976.7920, 13.86023
977.9090, 18.59192
979.0250, 12.32263
980.1410, 15.09149
981.2580, 14.77734
982.3740, 17.50085
983.4890, 21.22327
984.6050, 25.94299
985.7200, 19.65985
986.8360, 31.37396
987.9510, 39.08521
989.0660, 19.79358
990.1810, 16.49902
991.2950, 13.20135
992.4100, 13.14948
993.5240, 32.94086
994.6390, 26.69824
995.7530, 30.38800
996.8660, 43.07471
997.9800, 23.77051
999.0940, 55.46539
1000.207, 26.13147
1001.320, 16.86536
1002.433, 33.53613
1003.546, 22.18878
1004.659, 9.214600
1005.772, 23.87494
1006.884, 33.40759
1007.996, 31.06134
1009.108, 44.21350
1010.220, 28.86841
1011.332, 26.47449
1012.444, 37.22095
1013.555, 27.81403
1014.666, 19.86108
1015.777, 26.34180
1016.888, 42.96735
1017.999, 47.56628
1019.110, 16.01038
1020.220, 39.86395
1021.331, 36.81189
1022.441, 38.26984
1023.551, 57.43158
1024.661, 83.37231
1025.770, 56.96826
1026.880, 92.56049
1027.989, 87.14880
1029.098, 113.7222
1030.207, 136.7438
1031.316, 237.3025
1032.425, 230.4457
1033.533, 239.1893
1034.642, 260.1014
1035.750, 202.4834
1036.858, 198.3044
1037.966, 167.9180
1039.073, 192.3970
1040.181, 232.1469
1041.288, 286.4543
1042.396, 362.1219
1043.503, 401.6044
1044.610, 532.3115
1045.716, 720.4067
1046.823, 1066.967
1047.929, 1883.116
1049.036, 3365.406
1050.142, 5216.192
1051.248, 6882.694
1052.353, 10877.30
1053.459, 20769.79
1054.564, 46717.28
1055.670, 64841.15
1056.775, 63496.62
1057.880, 33964.11
1058.985, 14156.56
1060.089, 5834.778
1061.194, 2684.199
1062.298, 1485.094
1063.402, 941.9224
1064.506, 675.3676
1065.610, 494.4384
1066.713, 366.9515
1067.817, 328.9559
1068.920, 248.3815
1070.023, 237.5009
1071.126, 164.1819
1072.229, 172.4213
1073.332, 146.8265
1074.435, 144.2267
1075.537, 140.3743
1076.639, 129.0518
1077.741, 99.62170
1078.843, 78.43842
1079.945, 105.7516
1081.046, 88.12054
1082.148, 93.48438
1083.249, 86.84290
1084.350, 61.47577
1085.451, 103.8800
1086.551, 103.2229
1087.652, 70.56049
1088.752, 112.6282
1089.853, 79.59955
1090.953, 71.92126
1092.053, 79.19183
1093.152, 85.70880
1094.252, 78.23926
1095.351, 89.53955
1096.451, 85.20605
1097.550, 83.45996
1098.649, 85.90320
1099.748, 74.63055
1100.846, 85.26337
1101.945, 77.50586
1103.043, 74.58276
1104.141, 84.35016
1105.239, 85.19177
1106.337, 89.37408
1107.434, 97.60193
1108.532, 78.81842
1109.629, 87.41992
1110.726, 82.95630
1111.823, 60.14313
1112.920, 77.33551
1114.017, 62.52045
1115.113, 67.07190
1116.210, 72.26862
1117.306, 64.46057
1118.402, 40.64221
1119.498, 65.82257
1120.593, 77.99756
1121.689, 40.16205
1122.784, 44.30688
1123.879, 13.43213
1124.974, 31.54730
1126.069, 24.69244
1127.164, 38.83154
1128.259, 39.96539
1129.353, 30.09406
1130.447, 29.21722
1131.541, 56.33514
1132.635, 23.44775
1133.729, 32.53137
1134.822, 51.63306
1135.916, 10.72791
1137.009, 32.73901
1138.102, 0.1777950
1139.195, 29.89264
1140.288, 5.957947
1141.380, 27.01361
1142.473, 52.06427
1143.565, 18.11005
1144.657, 38.14990
1145.749, 51.18475
1146.841, 21.19879
1147.932, 36.22717
1149.024, 40.25067
1150.115, 25.26947
1151.206, 11.24945
1152.297, 8.257324
1153.388, 1.742676
1154.479, 0.7548220
1155.569, 30.22247
1156.659, 33.19800
1157.750, 38.16895
1158.839, 30.13544
1159.929, 47.09735
1161.019, 12.94519
1162.108, 27.99524
1163.198, 60.93127
1164.287, 28.86316
1165.376, 8.209229
1166.465, 3.295898
1167.553, 6.605774
1168.642, 7.499207
1169.730, 5.617737
1170.818, 7.251343
1171.906, 9.114319
1172.994, 10.58325
1174.082, 16.83209
1175.170, 6.691101
1176.257, 12.54443
1177.344, 4.395691
1178.431, 2.758362
1179.518, 1.077942
1180.605, 2.909424
1181.691, 24.73462
1182.778, 11.44385
1183.864, 20.36420
1184.950, 11.16876
1186.036, 2.9967999E-02
1187.122, 19.76404
1188.207, 10.44507
1189.292, 9.333496
1190.378, 22.89105
1191.463, 12.86603
1192.548, 2.379700
1193.632, 1.632813
1194.717, 9.107422
1195.801, 6.155212
1196.886, 2.573364
1197.970, 21.70197
1199.054, 6.006104
1200.137, 8.288513
1201.221, 17.59241
1202.305, 10.91010
1203.388, 6.762024
1204.471, 14.43170
1205.554, 1.098816
1206.637, 3.236084
1207.719, 1.576294
1208.802, 13.07904
1209.884, 6.734619
1210.966, 8.388245
1212.048, 13.03973
1213.130, 7.689026
1214.212, 4.663757
1215.293, 18.02148
1216.374, 13.60944
1217.456, 25.23834
1218.536, 3.134460
1219.617, 12.50909
1220.698, 26.10858
1221.778, 21.72455
1222.859, 22.66089
1223.939, 12.05865
1225.019, 27.53833
1226.099, 8.866150
1227.178, 7.724426
1228.258, 4.686157
1229.337, 13.09967
1230.417, 9.519165
1231.496, 1.056641
1232.574, 19.36841
1233.653, 25.19788
1234.732, 4.236633
1235.810, 1.326721
1236.888, 10.88947
1237.966, 28.45172
1239.044, 11.98663
1240.122, 10.42920
1241.199, 6.124573
1242.277, 29.67804
1243.354, 21.23132
1244.431, 12.21558
1245.508, 26.33386
1246.585, 0.8833010
1247.661, 17.43250
1248.738, 15.98181
1249.814, 17.53119
1250.890, 21.08075
1251.966, 19.63062
1253.042, 22.93573
1254.117, 22.71857
1255.193, 26.93604
1256.268, 17.42365
1257.343, 18.97638
1258.418, 3.529968
1259.493, 21.07208
1260.567, 2.612915
1261.642, 11.16913
1262.716, 45.66675
1263.790, 20.22522
1264.864, 38.78491
1265.938, 45.98444
1267.011, 63.54724
1268.085, 68.23584
1269.158, 65.62183
1270.231, 21.84210
1271.304, 44.40344
1272.377, 53.97473
1273.450, 27.44141
1274.522, 51.01678
1275.594, 80.59436
1276.666, 70.13818
1277.738, 70.72046
1278.810, 56.30579
1279.882, 34.89233
1280.953, 73.24390
1282.025, 51.50031
1283.096, 81.24567
1284.167, 82.06586
1285.238, 62.66821
1286.308, 83.27368
1287.379, 100.8826
1288.449, 111.4949
1289.519, 120.1108
1290.589, 78.24762
1291.659, 122.8710
1292.729, 71.49902
1293.798, 118.1310
1294.868, 141.6262
1295.937, 132.4456
1297.006, 120.8262
1298.075, 140.4147
1299.143, 153.1385
1300.212, 152.5922
1301.280, 196.1276
1302.348, 198.7213
1303.416, 230.3975
1304.484, 238.5017
1305.552, 201.5783
1306.620, 245.0208
1307.687, 224.0716
1308.754, 213.3811
1309.821, 250.8102
1310.888, 293.5300
1311.955, 273.1161
1313.021, 285.8497
1314.088, 312.5901
1315.154, 306.9561
1316.220, 337.7112
1317.286, 344.4672
1318.352, 343.2391
1319.417, 361.2604
1320.483, 383.0479
1321.548, 375.4014
1322.613, 379.8210
1323.678, 397.6228
1324.743, 362.7983
1325.807, 338.5175
1326.872, 383.7582
1327.936, 358.5774
1329.000, 385.7026
1330.064, 432.2659
1331.128, 415.2708
1332.191, 439.1096
1333.255, 462.9536
1334.318, 447.7342
1335.381, 437.3015
1336.444, 449.9766
1337.507, 456.8429
1338.569, 466.7151
1339.632, 494.5934
1340.694, 541.4778
1341.756, 542.3687
1342.818, 531.9861
1343.880, 604.8323
1344.941, 616.7426
1346.003, 642.6600
1347.064, 682.4224
1348.125, 772.7095
1349.186, 881.6481
1350.247, 972.5939
1351.308, 1091.333
1352.368, 1123.729
1353.428, 1303.698
1354.489, 1524.302
1355.549, 1622.287
1356.608, 1884.120
1357.668, 1994.569
1358.727, 2255.218
1359.787, 2449.236
1360.846, 2795.412
1361.905, 2895.447
1362.964, 3039.382
1364.022, 3050.434
1365.081, 3013.495
1366.139, 2863.567
1367.197, 2700.250
1368.255, 2533.022
1369.313, 2200.121
1370.371, 1996.230
1371.428, 1823.348
1372.486, 1557.115
1373.543, 1380.253
1374.600, 1231.400
1375.657, 1075.557
1376.713, 949.7258
1377.770, 878.9041
1378.826, 775.0928
1379.882, 742.2917
1380.938, 664.5012
1381.994, 555.7227
1383.050, 582.9546
1384.106, 453.1973
1385.161, 452.4504
1386.216, 440.7145
1387.271, 361.9893
1388.326, 284.2754
1389.381, 294.5728
1390.435, 217.8818
1391.490, 225.2025
1392.544, 177.5353
1393.598, 113.8816
1394.652, 123.2401
1395.705, 134.6151
1396.759, 112.0027
1397.812, 141.4055
1398.866, 82.82153
1399.919, 80.25073
1400.972, 96.69409
1402.024, 119.1511
1403.077, 122.6221
1404.129, 144.1075
1405.181, 107.7283
1406.233, 143.2428
1407.285, 171.7722
1408.337, 174.3179
1409.389, 217.8805
1410.440, 207.4626
1411.491, 222.0642
1412.542, 239.6820
1413.593, 265.3165
1414.644, 270.9678
1415.695, 299.6365
1416.745, 325.3228
1417.795, 327.0476
1418.845, 327.9033
1419.895, 391.6517
1420.945, 336.4196
1421.995, 369.2124
1423.044, 324.0294
1424.093, 352.8687
1425.142, 357.7343
1426.191, 393.6261
1427.240, 350.7000
1428.289, 347.6362
1429.337, 352.5970
1430.385, 345.0248
1431.433, 359.5950
1432.481, 359.6340
1433.529, 373.7604
1434.577, 377.8530
1435.624, 379.9766
1436.672, 406.3953
1437.719, 405.5875
1438.766, 436.8459
1439.812, 400.1010
1440.859, 432.3761
1441.905, 477.6876
1442.952, 466.0493
1443.998, 530.7606
1445.044, 513.1196
1446.090, 534.4988
1447.135, 602.5037
1448.181, 600.0337
1449.226, 668.5825
1450.271, 700.1570
1451.316, 723.7566
1452.361, 794.3901
1453.405, 866.0430
1454.450, 884.7144
1455.494, 953.4056
1456.538, 1039.113
1457.582, 1102.837
1458.626, 1181.700
1459.670, 1255.850
1460.713, 1331.150
1461.757, 1401.965
1462.800, 1472.813
1463.843, 1542.684
1464.886, 1742.577
1465.928, 1726.498
1466.971, 1806.444
1468.013, 1931.416
1469.055, 1944.408
1470.097, 1974.422
1471.139, 2076.463
1472.181, 2175.524
1473.222, 2207.610
1474.263, 2213.716
1475.305, 2302.844
1476.346, 2273.993
1477.386, 2390.163
1478.427, 2416.355
1479.468, 2362.568
1480.508, 2367.803
1481.548, 2338.060
1482.588, 2219.339
1483.628, 2177.641
1484.668, 2037.964
1485.707, 2018.310
1486.747, 1900.678
1487.786, 1730.068
1488.825, 1636.479
1489.864, 1519.913
1490.902, 1354.368
1491.941, 1308.845
1492.979, 1173.344
1494.017, 1074.866
1495.055, 971.4077
1496.093, 929.9683
1497.131, 803.5498
1498.168, 676.1509
1499.206, 627.7712
1500.243, 626.4071
1501.280, 581.0605
1502.317, 484.7303
1503.354, 448.4143
1504.390, 367.1101
1505.426, 361.8154
1506.463, 305.5308
1507.499, 251.2548
1508.535, 290.9802
1509.570, 245.7156
1510.606, 231.4862
1511.641, 165.2976
1512.676, 200.1494
1513.711, 196.0424
1514.746, 132.9771
1515.781, 118.9543
1516.816, 132.9744
1517.850, 123.0374
1518.884, 110.1438
1519.918, 80.29370
1520.952, 87.48779
1521.986, 124.7263
1523.019, 81.01025
1524.053, 93.34009
1525.086, 54.71667
1526.119, 60.14111
1527.152, 32.61450
1528.185, 33.74084
1529.217, 10.28772
1530.250, 43.33911
1531.282, 41.01990
1532.314, 52.75623
1533.346, 18.54993
1534.377, 26.40320
1535.409, 21.31866
1536.440, 5.299500
1537.472, 27.34930
1538.503, 3.472778
1539.534, 16.67572
1540.564, 41.96509
1541.595, 1.653503
1542.625, 8.176697
1543.656, 5.399231
1544.686, 28.07800
1545.716, 20.77917
1546.745, 22.76300
1547.775, 10.78015
1548.804, 13.92224
1549.834, 10.29761
1550.863, 7.129578
1551.892, 9.396057
1552.920, 23.07861
1553.949, 30.92944
1554.977, 21.96124
1556.006, 26.18713
1557.034, 1.621582
1558.062, 15.93298
1559.089, 40.70715
1560.117, 3.286865
1561.144, 4.974365
1562.172, 3.348999
1563.199, 16.95471
1564.226, 36.68823
1565.252, 63.74731
1566.279, 17.76367
1567.305, 0.6726680
1568.332, 49.58435
1569.358, 3.947327
1570.384, 0.0000000E+00
##END=



