##NAMES=Cerussite
##RRUFFID=R050298
##IDEAL CHEMISTRY=Pb^2+^CO_3_
##LOCALITY=Bunker Hill mine, Shoshone County, Idaho, USA
##OWNER=RRUFF
##SOURCE=Eugene Schlepp
##DESCRIPTION=Group of colorless tabular crystals
##STATUS=The identification of this mineral has been confirmed by X-ray diffraction and chemical analysis
##URL=rruff.info/R050298
##MEASURED CHEMISTRY=Pb_1.00_CO_3_
##PIN_ID=L01724
##ORIENTATION=Laser parallel to c* (0 0 1). Fiducial mark perpendicular to laser is parallel to a [1 0 0]
51.43100, 0.0000000E+00
52.67100, 77.85388
53.91000, 13.97656
55.14900, 4.131897
56.38700, 94.32458
57.62600, 147.1299
58.86400, 85.27002
60.10300, 28.78638
61.34100, 52.55994
62.57900, 153.0201
63.81700, 476.9595
65.05400, 1030.428
66.29200, 1680.668
67.52900, 2554.066
68.76700, 3449.126
70.00400, 4613.447
71.24100, 5903.684
72.47700, 6937.533
73.71400, 7876.730
74.95100, 8293.046
76.18700, 8185.282
77.42300, 7567.265
78.65900, 6820.847
79.89500, 5924.893
81.13100, 5244.285
82.36700, 4537.924
83.60200, 4077.734
84.83700, 3689.650
86.07200, 3393.619
87.30800, 3187.591
88.54200, 3081.498
89.77700, 2903.257
91.01200, 2837.786
92.24600, 2719.022
93.48000, 2688.914
94.71400, 2629.415
95.94800, 2679.487
97.18200, 2778.101
98.41600, 2722.226
99.64900, 2718.834
100.8830, 2747.899
102.1160, 2913.397
103.3490, 2920.306
104.5820, 2968.603
105.8150, 2943.271
107.0470, 2893.292
108.2800, 2884.649
109.5120, 2856.325
110.7440, 2950.316
111.9760, 2924.643
113.2080, 3102.297
114.4400, 3238.305
115.6710, 3426.707
116.9030, 3482.498
118.1340, 3793.732
119.3650, 4000.354
120.5960, 4046.355
121.8270, 3916.688
123.0580, 3891.306
124.2880, 3895.082
125.5190, 3813.975
126.7490, 3775.773
127.9790, 3764.539
129.2090, 3751.316
130.4390, 3934.137
131.6680, 4011.020
132.8980, 4256.970
134.1270, 4051.985
135.3560, 4041.088
136.5850, 3814.258
137.8140, 3398.495
139.0430, 3141.852
140.2710, 2733.355
141.5000, 2342.985
142.7280, 2017.721
143.9560, 1713.556
145.1840, 1531.477
146.4120, 1433.474
147.6390, 1282.558
148.8670, 1177.999
150.0940, 1050.003
151.3210, 977.3442
152.5490, 919.7571
153.7750, 808.2384
155.0020, 784.7859
156.2290, 682.4045
157.4550, 566.0955
158.6810, 634.8630
159.9080, 501.6962
161.1340, 460.5881
162.3590, 432.5398
163.5850, 404.5431
164.8110, 423.5999
166.0360, 395.7085
167.2610, 358.8635
168.4860, 281.3396
169.7110, 331.6735
170.9360, 323.4142
172.1610, 398.4160
173.3850, 352.1019
174.6100, 355.1472
175.8340, 422.1042
177.0580, 383.1548
178.2820, 412.2391
179.5050, 496.0638
180.7290, 582.7139
181.9520, 488.2064
183.1760, 545.1010
184.3990, 543.2075
185.6220, 636.8571
186.8450, 657.7257
188.0670, 727.7234
189.2900, 782.2476
190.5120, 829.7700
191.7340, 855.8801
192.9560, 949.9722
194.1780, 966.9746
195.4000, 1133.483
196.6220, 1282.627
197.8430, 1306.345
199.0640, 1456.248
200.2860, 1565.328
201.5070, 1716.568
202.7270, 1884.261
203.9480, 2053.798
205.1690, 2139.307
206.3890, 2245.784
207.6090, 2518.588
208.8290, 2736.467
210.0490, 2872.009
211.2690, 3045.614
212.4890, 3250.407
213.7080, 3357.098
214.9280, 3466.001
216.1470, 3661.261
217.3660, 3581.755
218.5850, 3540.369
219.8030, 3358.017
221.0220, 3241.518
222.2400, 3095.774
223.4590, 2826.872
224.6770, 2623.089
225.8950, 2407.757
227.1120, 2275.208
228.3300, 2102.227
229.5480, 1996.691
230.7650, 1880.550
231.9820, 1737.924
233.1990, 1580.465
234.4160, 1406.410
235.6330, 1362.940
236.8490, 1215.016
238.0660, 1030.741
239.2820, 1031.630
240.4980, 868.8499
241.7140, 835.0400
242.9300, 755.9441
244.1460, 704.8862
245.3610, 615.5924
246.5770, 597.0903
247.7920, 552.5188
249.0070, 515.8271
250.2220, 498.1443
251.4370, 431.4197
252.6510, 416.6960
253.8660, 400.9404
255.0800, 339.1754
256.2940, 337.3560
257.5080, 299.7438
258.7220, 219.4403
259.9360, 256.8743
261.1490, 252.7704
262.3630, 198.2428
263.5760, 160.2334
264.7890, 164.6777
266.0020, 117.8977
267.2150, 122.4465
268.4270, 87.92688
269.6400, 70.36279
270.8520, 94.83875
272.0640, 60.41577
273.2760, 26.55347
274.4880, 72.90845
275.7000, 41.04968
276.9120, 29.15540
278.1230, 8.410156
279.3340, 21.67810
280.5450, 13.91736
281.7560, 24.32166
282.9670, 29.85376
284.1780, 15.70508
285.3880, 1.578491
286.5980, 2.456543
287.8090, 49.34033
289.0190, 2.206421
290.2290, 15.08398
291.4380, 18.99365
292.6480, 26.91284
293.8570, 26.84302
295.0670, 14.78479
296.2760, 15.73743
297.4850, 43.68030
298.6930, 35.66089
299.9020, 0.6445310
301.1110, 64.65247
302.3190, 82.62866
303.5270, 0.3145750
304.7350, 58.75525
305.9430, 47.76685
307.1510, 48.88147
308.3580, 30.01843
309.5660, 34.17517
310.7730, 74.35303
311.9800, 56.44250
313.1870, 56.49609
314.3940, 86.65393
315.6010, 59.87500
316.8070, 18.97925
318.0130, 61.00842
319.2200, 38.03760
320.4260, 43.43506
321.6310, 46.54883
322.8370, 67.06482
324.0430, 10.59290
325.2480, 54.20459
326.4540, 17.86511
327.6590, 60.57458
328.8640, 55.34473
330.0680, 12.18457
331.2730, 68.06934
332.4780, 8.007813
333.6820, 9.957764
334.8860, 6.141846
336.0900, 20.05469
337.2940, 14.81702
338.4980, 15.55115
339.7010, 7.548950
340.9050, 1.320679
342.1080, 5.693848
343.3110, 11.24744
344.5140, 19.53552
345.7170, 15.84106
346.9200, 12.10071
348.1220, 14.59875
349.3240, 3.818359
350.5270, 11.17542
351.7290, 8.554321
352.9310, 2.447510
354.1320, 6.976563
355.3340, 17.16614
356.5350, 0.6956790
357.7370, 8.197632
358.9380, 32.67383
360.1390, 8.131714
361.3400, 8.560425
362.5400, 33.95850
363.7410, 39.34265
364.9410, 50.75195
366.1410, 74.08545
367.3410, 18.43591
368.5410, 19.88184
369.7410, 2.869019
370.9400, 3.648254
372.1400, 2.632507
373.3390, 29.35657
374.5380, 5.432495
375.7370, 38.93701
376.9360, 70.93243
378.1350, 31.90179
379.3330, 44.98230
380.5310, 63.14496
381.7300, 82.49451
382.9280, 79.19519
384.1260, 69.27100
385.3230, 74.05182
386.5210, 53.80212
387.7180, 55.52765
388.9160, 65.25775
390.1130, 75.04089
391.3100, 80.83417
392.5060, 89.68518
393.7030, 92.47333
394.9000, 97.85413
396.0960, 101.2904
397.2920, 106.5265
398.4880, 110.2480
399.6840, 117.6783
400.8800, 107.0402
402.0750, 95.37036
403.2710, 109.6663
404.4660, 92.07709
405.6610, 112.3046
406.8560, 92.52240
408.0510, 78.84241
409.2450, 137.9628
410.4400, 117.0637
411.6340, 122.1442
412.8280, 144.5352
414.0220, 115.5288
415.2160, 122.5505
416.4100, 179.4758
417.6030, 138.3915
418.7970, 165.3320
419.9900, 105.1834
421.1830, 151.9872
422.3760, 151.7552
423.5690, 156.4927
424.7610, 144.4831
425.9540, 138.1627
427.1460, 144.8910
428.3380, 188.2816
429.5300, 181.8262
430.7220, 191.3434
431.9140, 174.7545
433.1050, 177.2596
434.2970, 198.5042
435.4880, 187.5966
436.6790, 221.4835
437.8700, 197.2755
439.0610, 199.3379
440.2510, 183.3324
441.4420, 205.3800
442.6320, 185.6604
443.8220, 203.8365
445.0120, 175.7708
446.2020, 188.7552
447.3910, 195.8857
448.5810, 170.8779
449.7700, 198.2316
450.9600, 186.5221
452.1490, 187.4722
453.3370, 186.1599
454.5260, 163.8193
455.7150, 157.2739
456.9030, 161.6223
458.0910, 161.2557
459.2800, 146.2281
460.4670, 138.1163
461.6550, 132.7920
462.8430, 161.7652
464.0300, 131.1676
465.2180, 183.2867
466.4050, 155.1842
467.5920, 201.9414
468.7790, 174.3206
469.9650, 196.5435
471.1520, 173.3721
472.3380, 161.3619
473.5250, 161.6752
474.7110, 144.4957
475.8970, 143.7599
477.0820, 129.9219
478.2680, 161.7529
479.4540, 155.9996
480.6390, 171.0253
481.8240, 193.0029
483.0090, 180.5743
484.1940, 178.7419
485.3780, 169.4414
486.5630, 176.7263
487.7470, 161.4253
488.9320, 181.2410
490.1160, 161.1764
491.3000, 149.8669
492.4830, 161.0909
493.6670, 156.7867
494.8500, 189.5395
496.0340, 186.5560
497.2170, 178.2125
498.4000, 163.0757
499.5820, 160.8441
500.7650, 162.2369
501.9480, 152.4680
503.1300, 136.5241
504.3120, 135.5126
505.4940, 119.5349
506.6760, 112.4974
507.8580, 137.1021
509.0390, 114.8698
510.2210, 97.92480
511.4020, 137.9401
512.5830, 80.59821
513.7640, 76.57422
514.9450, 95.23212
516.1250, 125.3292
517.3060, 60.09998
518.4860, 110.4159
519.6660, 125.6226
520.8460, 82.47827
522.0260, 70.86829
523.2060, 54.68854
524.3850, 99.89172
525.5650, 82.96814
526.7440, 100.7482
527.9230, 106.5879
529.1020, 94.74182
530.2810, 86.88287
531.4590, 75.28290
532.6380, 69.60419
533.8160, 61.62671
534.9940, 63.47766
536.1720, 53.33325
537.3500, 60.24146
538.5270, 63.15857
539.7050, 81.11560
540.8820, 82.08936
542.0590, 91.12335
543.2360, 95.95453
544.4130, 104.4799
545.5900, 66.26855
546.7660, 90.59418
547.9430, 80.34106
549.1190, 61.56549
550.2950, 82.32898
551.4710, 79.33752
552.6470, 76.61230
553.8220, 42.30994
554.9980, 92.29150
556.1730, 68.75037
557.3480, 88.32043
558.5230, 74.62891
559.6980, 65.78064
560.8730, 74.73328
562.0470, 75.83447
563.2220, 99.64563
564.3960, 78.59827
565.5700, 41.58801
566.7440, 73.20410
567.9170, 58.69678
569.0910, 77.24426
570.2640, 82.09119
571.4380, 68.93323
572.6110, 60.75464
573.7840, 58.54041
574.9570, 62.59241
576.1290, 84.38879
577.3020, 58.17041
578.4740, 95.94275
579.6460, 91.70667
580.8180, 94.46082
581.9900, 67.18420
583.1620, 99.92419
584.3330, 81.64563
585.5040, 83.36914
586.6760, 81.03906
587.8470, 52.76660
589.0180, 48.48401
590.1880, 58.11987
591.3590, 43.83496
592.5290, 56.54822
593.7000, 67.25720
594.8700, 61.96313
596.0400, 67.38391
597.2090, 82.08789
598.3790, 58.69775
599.5490, 64.34448
600.7180, 49.84155
601.8870, 54.23401
603.0560, 23.59351
604.2250, 57.29065
605.3940, 71.66553
606.5620, 49.40417
607.7300, 50.11182
608.8990, 52.85657
610.0670, 76.60864
611.2350, 41.35962
612.4020, 90.12036
613.5700, 32.88977
614.7370, 67.65808
615.9050, 87.41870
617.0720, 30.16638
618.2390, 49.80322
619.4060, 56.57751
620.5720, 89.75244
621.7390, 93.58215
622.9050, 104.3430
624.0710, 59.10168
625.2370, 91.86194
626.4030, 99.62378
627.5690, 58.39526
628.7340, 92.17285
629.9000, 58.95605
631.0650, 90.75110
632.2300, 91.55200
633.3950, 101.3612
634.5600, 98.17639
635.7240, 100.2804
636.8890, 69.13232
638.0530, 107.0425
639.2170, 115.8761
640.3810, 66.71484
641.5450, 63.55762
642.7080, 78.40320
643.8720, 61.25378
645.0350, 53.10974
646.1980, 40.95776
647.3610, 22.75842
648.5240, 57.61328
649.6870, 25.43115
650.8490, 53.12451
652.0120, 60.98535
653.1740, 24.54260
654.3360, 8.9233004E-02
655.4980, 35.87915
656.6600, 55.77783
657.8210, 34.21118
658.9830, 30.12573
660.1440, 53.03967
661.3050, 9.809937
662.4660, 23.46729
663.6270, 54.90967
664.7870, 63.83093
665.9480, 99.63525
667.1080, 161.5619
668.2680, 210.4899
669.4280, 299.4099
670.5880, 337.2927
671.7480, 410.0909
672.9070, 454.8511
674.0670, 692.5232
675.2260, 1030.228
676.3850, 1145.816
677.5440, 845.4993
678.7030, 507.2280
679.8610, 235.1289
681.0200, 219.0433
682.1780, 183.9968
683.3360, 142.9520
684.4940, 148.9102
685.6520, 89.72510
686.8090, 51.69250
687.9670, 28.63892
689.1240, 57.45020
690.2810, 8.426147
691.4380, 17.60767
692.5950, 36.34460
693.7520, 4.955933
694.9080, 19.93823
696.0650, 10.86072
697.2210, 11.15125
698.3770, 13.18420
699.5330, 23.72595
700.6880, 4.300537
701.8440, 19.68835
702.9990, 6.316528
704.1550, 7.321411
705.3100, 30.39050
706.4650, 6.382935
707.6190, 30.29541
708.7740, 10.30127
709.9290, 8.308350
711.0830, 31.30945
712.2370, 39.27661
713.3910, 10.76416
714.5450, 8.223511
715.6980, 39.24255
716.8520, 10.21790
718.0050, 38.24011
719.1580, 37.26416
720.3110, 30.29285
721.4640, 81.32349
722.6170, 100.3566
723.7700, 60.39160
724.9220, 60.42847
726.0740, 49.46753
727.2260, 98.46875
728.3780, 89.44775
729.5300, 118.4817
730.6810, 106.4391
731.8330, 112.4761
732.9840, 63.52722
734.1350, 93.58032
735.2860, 67.63599
736.4370, 47.69446
737.5880, 73.75537
738.7380, 84.81860
739.8880, 22.86646
741.0390, 45.93616
742.1890, 50.80615
743.3380, 51.88159
744.4880, 56.48071
745.6380, 50.46997
746.7870, 45.17041
747.9360, 36.25525
749.0850, 18.34192
750.2340, 9.403809
751.3830, 69.49658
752.5310, 31.54810
753.6800, 17.87048
754.8280, 92.96619
755.9760, 16.02393
757.1240, 71.12427
758.2720, 15.76086
759.4190, 3.660767
760.5670, 51.44043
761.7140, 28.54358
762.8610, 29.99878
764.0080, 28.10559
765.1550, 15.61938
766.3020, 27.72986
767.4480, 47.84192
768.5950, 62.53271
769.7410, 42.64783
770.8870, 23.70447
772.0330, 16.82288
773.1780, 11.05737
774.3240, 0.2592770
775.4690, 3.487793
776.6140, 18.38147
777.7590, 29.50317
778.9040, 33.69446
780.0490, 92.61011
781.1940, 66.78186
782.3380, 56.03748
783.4820, 70.18188
784.6260, 34.31079
785.7700, 26.45557
786.9140, 34.58716
788.0580, 26.69958
789.2010, 20.83435
790.3450, 36.97009
791.4880, 39.09082
792.6310, 56.79919
793.7730, 59.94128
794.9160, 53.08411
796.0590, 37.66479
797.2010, 36.81128
798.3430, 30.95862
799.4850, 24.12537
800.6270, 44.44629
801.7690, 53.62256
802.9100, 54.59082
804.0520, 16.96301
805.1930, 57.11914
806.3340, 27.27588
807.4750, 16.45581
808.6160, 37.61426
809.7560, 44.50134
810.8970, 11.66235
812.0370, 14.82507
813.1770, 32.01172
814.3170, 24.18774
815.4570, 26.35583
816.5960, 25.52661
817.7360, 13.69690
818.8750, 23.87317
820.0140, 30.09167
821.1530, 43.31226
822.2920, 69.01660
823.4310, 85.53369
824.5690, 107.7074
825.7070, 111.8995
826.8460, 73.07483
827.9840, 39.22131
829.1220, 83.78125
830.2590, 69.95874
831.3970, 180.8224
832.5340, 193.0021
833.6710, 249.1871
834.8080, 391.0427
835.9450, 517.8232
837.0820, 769.7344
838.2190, 1163.144
839.3550, 1499.324
840.4910, 1630.335
841.6270, 1234.323
842.7630, 876.5042
843.8990, 521.6656
845.0350, 353.4694
846.1700, 234.6500
847.3060, 175.5961
848.4410, 115.7776
849.5760, 140.6567
850.7100, 68.64539
851.8450, 90.82202
852.9800, 65.00354
854.1140, 31.18481
855.2480, 36.36584
856.3820, 91.20593
857.5160, 55.38660
858.6500, 79.68152
859.7830, 52.86133
860.9170, 40.04065
862.0500, 33.21960
863.1830, 32.39819
864.3160, 50.57642
865.4480, 16.76331
866.5810, 54.94104
867.7130, 23.11841
868.8460, 87.30103
869.9780, 52.48291
871.1100, 39.66431
872.2410, 40.84631
873.3730, 21.02747
874.5050, 54.22314
875.6360, 74.41797
876.7670, 43.61218
877.8980, 41.80566
879.0290, 73.99915
880.1590, 50.19458
881.2900, 22.38928
882.4200, 2.583252
883.5500, 41.77979
884.6800, 57.97546
885.8100, 47.17529
886.9400, 14.37427
888.0690, 9.572266
889.1990, 4.224976
890.3280, 37.97461
891.4570, 8.173096
892.5860, 25.37073
893.7140, 12.56799
894.8430, 52.35889
895.9710, 44.49768
897.1000, 66.70020
898.2280, 6.093994
899.3560, 41.10730
900.4830, 22.69263
901.6110, 28.49414
902.7380, 19.67969
903.8660, 25.13599
904.9930, 33.03345
906.1200, 14.79822
907.2460, 17.36401
908.3730, 37.52478
909.5000, 34.40503
910.6260, 0.5405270
911.7520, 45.62207
912.8780, 67.78015
914.0040, 1.936768
915.1290, 11.90845
916.2550, 6.237549
917.3800, 0.6176760
918.5050, 13.52429
919.6300, 32.66443
920.7550, 5.803101
921.8800, 60.93994
923.0040, 36.07629
924.1290, 25.21130
925.2530, 44.34448
926.3770, 62.47620
927.5010, 10.39380
928.6250, 30.72864
929.7480, 70.84998
930.8720, 5.030396
931.9950, 42.08557
933.1180, 33.20190
934.2410, 1.316528
935.3640, 0.5699460
936.4860, 13.54004
937.6090, 11.64783
938.7310, 51.75342
939.8530, 62.86804
940.9750, 46.98059
942.0970, 14.09143
943.2180, 52.20007
944.3400, 8.693237
945.4610, 61.40503
946.5820, 40.50122
947.7030, 14.59521
948.8240, 17.68713
949.9450, 40.77698
951.0650, 19.87146
952.1860, 20.96399
953.3060, 19.05420
954.4260, 9.142212
955.5460, 8.873657
956.6650, 4.689453
957.7850, 1.613647
958.9040, 24.45679
960.0230, 16.52490
961.1420, 24.59302
962.2610, 43.65906
963.3800, 16.72278
964.4990, 20.78699
965.6170, 7.151245
966.7350, 20.90198
967.8530, 16.95288
968.9710, 21.00122
970.0890, 24.04883
971.2070, 6.903564
972.3240, 0.8648680
973.4410, 53.16858
974.5580, 31.19971
975.6750, 34.22913
976.7920, 55.25696
977.9090, 30.28247
979.0250, 4.691406
980.1410, 23.32666
981.2580, 6.968628
982.3740, 68.34875
983.4890, 5.647583
984.6050, 6.347534
985.7200, 53.34033
986.8360, 52.33069
987.9510, 47.31836
989.0660, 39.30359
990.1810, 4.708496
991.2950, 68.27075
992.4100, 5.247559
993.5240, 62.22046
994.6390, 53.19067
995.7530, 26.15820
996.8660, 60.12317
997.9800, 78.08643
999.0940, 20.04688
1000.207, 72.00452
1001.320, 31.95959
1002.433, 52.16235
1003.546, 58.11169
1004.659, 69.05847
1005.772, 64.23621
1006.884, 50.17725
1007.996, 57.60193
1009.108, 55.53711
1010.220, 34.46924
1011.332, 51.39832
1012.444, 77.32422
1013.555, 40.83044
1014.666, 52.75024
1015.777, 73.66699
1016.888, 32.43213
1017.999, 71.34229
1019.110, 47.38452
1020.220, 48.28857
1021.331, 82.18713
1022.441, 89.32922
1023.551, 87.99512
1024.661, 70.88586
1025.770, 82.74329
1026.880, 125.8179
1027.989, 128.7683
1029.098, 147.4976
1030.207, 188.3737
1031.316, 277.2043
1032.425, 419.7234
1033.533, 394.5891
1034.642, 330.0464
1035.750, 277.9053
1036.858, 197.7607
1037.966, 233.0466
1039.073, 226.8953
1040.181, 292.5815
1041.288, 326.4236
1042.396, 405.0300
1043.503, 507.8668
1044.610, 647.6198
1045.716, 769.4502
1046.823, 1255.278
1047.929, 2001.033
1049.036, 3807.062
1050.142, 6659.896
1051.248, 9521.580
1052.353, 14277.38
1053.459, 23585.19
1054.564, 43076.93
1055.670, 64088.95
1056.775, 63238.75
1057.880, 42350.55
1058.985, 20630.33
1060.089, 8146.121
1061.194, 3429.148
1062.298, 1837.027
1063.402, 1102.805
1064.506, 816.5479
1065.610, 547.8037
1066.713, 462.5723
1067.817, 382.5076
1068.920, 252.0936
1070.023, 296.8293
1071.126, 217.5540
1072.229, 250.8209
1073.332, 206.5701
1074.435, 162.3160
1075.537, 162.0361
1076.639, 112.7755
1077.741, 83.78394
1078.843, 154.5167
1079.945, 65.24634
1081.046, 93.95056
1082.148, 90.66406
1083.249, 46.96313
1084.350, 100.6787
1085.451, 98.39233
1086.551, 75.09729
1087.652, 57.75720
1088.752, 66.41248
1089.853, 127.5814
1090.953, 80.93530
1092.053, 136.6298
1093.152, 51.84692
1094.252, 79.53516
1095.351, 61.22046
1096.451, 97.88452
1097.550, 71.56250
1098.649, 70.51392
1099.748, 73.18555
1100.846, 88.83752
1101.945, 62.50317
1103.043, 81.30542
1104.141, 104.2350
1105.239, 64.53650
1106.337, 123.1918
1107.434, 95.84436
1108.532, 68.49402
1109.629, 72.14087
1110.726, 73.48975
1111.823, 100.5090
1112.920, 87.15710
1114.017, 68.02002
1115.113, 33.65308
1116.210, 75.58618
1117.306, 108.1331
1118.402, 67.75818
1119.498, 76.38074
1120.593, 61.00085
1121.689, 70.81543
1122.784, 68.77112
1123.879, 83.38367
1124.974, 66.87891
1126.069, 39.48645
1127.164, 86.09155
1128.259, 36.69421
1129.353, 60.49194
1130.447, 56.08984
1131.541, 36.67651
1132.635, 57.26990
1133.729, 11.13904
1134.822, 41.43872
1135.916, 46.01416
1137.009, 5.587646
1138.102, 59.15662
1139.195, 47.27661
1140.288, 33.25842
1141.380, 22.79150
1142.473, 30.32251
1143.565, 56.64453
1144.657, 1.621338
1145.749, 54.89832
1146.841, 31.41614
1147.932, 7.067871
1149.024, 14.43848
1150.115, 11.05701
1151.206, 39.43567
1152.297, 38.92651
1153.388, 13.58411
1154.479, 25.89246
1155.569, 25.36841
1156.659, 58.84290
1157.750, 3.315918
1158.839, 5.785400
1159.929, 23.74780
1161.019, 22.70166
1162.108, 9.850342
1163.198, 30.58765
1164.287, 45.02600
1165.376, 45.46301
1166.465, 20.90479
1167.553, 44.34546
1168.642, 6.784912
1169.730, 13.22961
1170.818, 8.326904
1171.906, 24.11279
1172.994, 8.448730
1174.082, 37.98181
1175.170, 36.41125
1176.257, 17.84021
1177.344, 32.26831
1178.431, 7.695435
1179.518, 28.12195
1180.605, 2.551392
1181.691, 33.97925
1182.778, 13.40698
1183.864, 33.83423
1184.950, 34.26074
1186.036, 1.312988
1187.122, 57.11023
1188.207, 18.53296
1189.292, 14.95520
1190.378, 12.37708
1191.463, 18.79858
1192.548, 0.2229000
1193.632, 3.878784
1194.717, 5.931763
1195.801, 7.511597
1196.886, 11.90381
1197.970, 3.680908
1199.054, 27.73193
1200.137, 8.145508
1201.221, 3.559204
1202.305, 41.02710
1203.388, 15.36499
1204.471, 1.757080
1205.554, 28.14905
1206.637, 12.54114
1207.719, 35.93347
1208.802, 37.32910
1209.884, 7.725098
1210.966, 48.12134
1212.048, 39.51794
1213.130, 28.08496
1214.212, 3.298462
1215.293, 20.68225
1216.374, 50.06677
1217.456, 26.45154
1218.536, 24.83728
1219.617, 14.22388
1220.698, 27.61328
1221.778, 16.00525
1222.859, 12.60229
1223.939, 35.78589
1225.019, 47.17493
1226.099, 23.56494
1227.178, 27.95581
1228.258, 19.34766
1229.337, 10.74365
1230.417, 7.140625
1231.496, 13.73193
1232.574, 5.061646
1233.653, 39.33716
1234.732, 39.74060
1235.810, 62.14685
1236.888, 43.55444
1237.966, 35.96338
1239.044, 58.37366
1240.122, 18.21472
1241.199, 58.19202
1242.277, 0.3970950
1243.354, 21.01526
1244.431, 8.432617
1245.508, 25.85144
1246.585, 40.27527
1247.661, 52.70105
1248.738, 28.12866
1249.814, 25.55811
1250.890, 29.01050
1251.966, 32.41211
1253.042, 9.839478
1254.117, 49.26892
1255.193, 43.70093
1256.268, 46.13525
1257.343, 15.57153
1258.418, 8.989990
1259.493, 80.44885
1260.567, 28.88977
1261.642, 51.33728
1262.716, 47.78711
1263.790, 41.98914
1264.864, 96.45825
1265.938, 72.93005
1267.011, 126.1704
1268.085, 67.64746
1269.158, 60.64087
1270.231, 36.12366
1271.304, 98.60950
1272.377, 40.09851
1273.450, 83.59058
1274.522, 72.50281
1275.594, 75.00134
1276.666, 66.50757
1277.738, 73.11572
1278.810, 115.6288
1279.882, 164.0104
1280.953, 58.53076
1282.025, 85.05469
1283.096, 120.3151
1284.167, 163.8468
1285.238, 168.3823
1286.308, 155.9221
1287.379, 154.2753
1288.449, 165.7410
1289.519, 170.4432
1290.589, 156.0000
1291.659, 179.6034
1292.729, 134.1693
1293.798, 180.7395
1294.868, 220.3140
1295.937, 190.8927
1297.006, 300.4761
1298.075, 231.0531
1299.143, 230.6454
1300.212, 253.4614
1301.280, 275.0625
1302.348, 292.9005
1303.416, 259.5106
1304.484, 302.1255
1305.552, 336.7449
1306.620, 297.3690
1307.687, 328.9979
1308.754, 362.6313
1309.821, 420.2061
1310.888, 459.8491
1311.955, 418.4973
1313.021, 460.1501
1314.088, 499.8079
1315.154, 469.2576
1316.220, 487.9254
1317.286, 511.5984
1318.352, 437.2766
1319.417, 602.9614
1320.483, 486.6516
1321.548, 575.2487
1322.613, 612.9463
1323.678, 570.2449
1324.743, 630.4666
1325.807, 605.1768
1326.872, 627.6306
1327.936, 666.3496
1329.000, 608.0730
1330.064, 687.8010
1331.128, 687.0193
1332.191, 645.7566
1333.255, 636.4988
1334.318, 673.2461
1335.381, 703.9982
1336.444, 677.7556
1337.507, 742.5179
1338.569, 694.2854
1339.632, 786.0582
1340.694, 748.8364
1341.756, 827.0408
1342.818, 794.8298
1343.880, 847.6241
1344.941, 965.4243
1346.003, 965.2302
1347.064, 991.0414
1348.125, 1063.859
1349.186, 1150.688
1350.247, 1299.511
1351.308, 1401.802
1352.368, 1613.643
1353.428, 1769.490
1354.489, 1894.344
1355.549, 2133.204
1356.608, 2321.070
1357.668, 2595.943
1358.727, 2901.821
1359.787, 3134.706
1360.846, 3359.460
1361.905, 3568.357
1362.964, 3697.261
1364.022, 3853.171
1365.081, 3766.089
1366.139, 3765.012
1367.197, 3479.943
1368.255, 3286.174
1369.313, 2972.118
1370.371, 2687.058
1371.428, 2453.016
1372.486, 2304.979
1373.543, 1948.950
1374.600, 1819.928
1375.657, 1635.912
1376.713, 1621.904
1377.770, 1423.902
1378.826, 1287.711
1379.882, 1223.724
1380.938, 1131.745
1381.994, 974.7740
1383.050, 897.8088
1384.106, 801.8512
1385.161, 750.9005
1386.216, 681.8572
1387.271, 613.8250
1388.326, 575.8047
1389.381, 508.8848
1390.435, 461.2988
1391.490, 324.4292
1392.544, 335.5388
1393.598, 283.6566
1394.652, 220.7838
1395.705, 261.9194
1396.759, 210.0784
1397.812, 195.2458
1398.866, 181.4219
1399.919, 140.6068
1400.972, 177.8005
1402.024, 119.0059
1403.077, 175.1628
1404.129, 121.3865
1405.181, 154.6235
1406.233, 185.8700
1407.285, 83.13098
1408.337, 146.4017
1409.389, 128.6820
1410.440, 106.9783
1411.491, 165.2845
1412.542, 174.6010
1413.593, 205.9280
1414.644, 186.2665
1415.695, 155.6163
1416.745, 149.0651
1417.795, 146.4452
1418.845, 147.7552
1419.895, 184.1987
1420.945, 157.5319
1421.995, 175.8740
1423.044, 152.2246
1424.093, 207.6486
1425.142, 169.0162
1426.191, 106.3679
1427.240, 177.7300
1428.289, 193.0988
1429.337, 201.4768
1430.385, 138.8605
1431.433, 162.2485
1432.481, 127.6486
1433.529, 178.0383
1434.577, 114.4351
1435.624, 164.8389
1436.672, 176.3232
1437.719, 137.7386
1438.766, 96.16211
1439.812, 79.59412
1440.859, 68.55249
1441.905, 83.54883
1442.952, 85.00732
1443.998, 88.10352
1445.044, 71.34949
1446.090, 86.83228
1447.135, 108.9276
1448.181, 83.19214
1449.226, 80.47302
1450.271, 98.76770
1451.316, 109.0741
1452.361, 88.40222
1453.405, 83.75244
1454.450, 111.1139
1455.494, 82.48633
1456.538, 101.8701
1457.582, 112.2727
1458.626, 110.6943
1459.670, 127.1277
1460.713, 115.5728
1461.757, 125.0297
1462.800, 156.5046
1463.843, 98.99158
1464.886, 144.4908
1465.928, 156.0023
1466.971, 123.5273
1468.013, 131.0656
1469.055, 147.6163
1470.097, 138.1799
1471.139, 179.7644
1472.181, 178.3618
1473.222, 193.9725
1474.263, 167.5963
1475.305, 178.6815
1476.346, 165.8982
1477.386, 175.5763
1478.427, 161.2684
1479.468, 148.9757
1480.508, 160.6929
1481.548, 157.4185
1482.588, 129.1178
1483.628, 96.83020
1484.668, 115.5554
1485.707, 120.2931
1486.747, 147.0433
1487.786, 118.7999
1488.825, 123.5623
1489.864, 129.3363
1490.902, 114.1218
1491.941, 97.91882
1492.979, 103.7269
1494.017, 12.54590
1495.055, 78.37427
1496.093, 80.21277
1497.131, 7.063721
1498.168, 41.92627
1499.206, 48.80054
1500.243, 39.68762
1501.280, 57.58752
1502.317, 22.50000
1503.354, 31.42578
1504.390, 31.36438
1505.426, 56.31555
1506.463, 0.2806400
1507.499, 30.25769
1508.535, 20.24487
1509.570, 41.24512
1510.606, 14.26953
1511.641, 31.31726
1512.676, 23.61145
1513.711, 22.48303
1514.746, 21.60095
1515.781, 61.25757
1516.816, 37.90747
1517.850, 33.09631
1518.884, 20.30945
1519.918, 49.54688
1520.952, 39.80896
1521.986, 8.095947
1523.019, 41.40747
1524.053, 44.74426
1525.086, 39.10583
1526.119, 39.49280
1527.152, 17.09399
1528.185, 22.34741
1529.217, 87.81775
1530.250, 39.31812
1531.282, 72.84998
1532.314, 76.41418
1533.346, 87.01208
1534.377, 82.64539
1535.409, 59.31519
1536.440, 68.02356
1537.472, 44.77209
1538.503, 35.70300
1539.534, 55.38928
1540.564, 9.271729
1541.595, 32.20374
1542.625, 14.83423
1543.656, 69.00366
1544.686, 33.34070
1545.716, 50.67358
1546.745, 85.99658
1547.775, 4.303589
1548.804, 26.58704
1549.834, 54.34363
1550.863, 20.26843
1551.892, 44.10388
1552.920, 37.82581
1553.949, 28.40417
1554.977, 37.79968
1556.006, 18.30469
1557.034, 60.82507
1558.062, 59.83032
1559.089, 30.73206
1560.117, 5.767090
1561.144, 46.92761
1562.172, 47.09998
1563.199, 39.35742
1564.226, 59.79675
1565.252, 18.66724
1566.279, 40.93835
1567.305, 49.09106
1568.332, 0.4215090
1569.358, 55.94800
1570.384, 0.0000000E+00
##END=



