##NAMES=Cerussite
##RRUFFID=R050298
##IDEAL CHEMISTRY=Pb^2+^CO_3_
##LOCALITY=Bunker Hill mine, Shoshone County, Idaho, USA
##OWNER=RRUFF
##SOURCE=Eugene Schlepp
##DESCRIPTION=Group of colorless tabular crystals
##STATUS=The identification of this mineral has been confirmed by X-ray diffraction and chemical analysis
##URL=rruff.info/R050298
##MEASURED CHEMISTRY=Pb_1.00_CO_3_
##PIN_ID=L00742
##ORIENTATION=Laser parallel to -a* (-1 0 0). Fiducial mark perpendicular to laser is parallel to b [0 1 0]
51.43100, 0.0000000E+00
52.67100, 32.20139
53.91000, 66.53537
55.14900, 81.13736
56.38700, 39.13174
57.62600, 13.91031
58.86400, 21.60483
60.10300, 15.97314
61.34100, 2.716614
62.57900, 34.71344
63.81700, 88.93036
65.05400, 233.6064
66.29200, 420.4652
67.52900, 632.2728
68.76700, 881.8308
70.00400, 1222.972
71.24100, 1578.554
72.47700, 1997.444
73.71400, 2339.524
74.95100, 2682.691
76.18700, 2845.855
77.42300, 2695.940
78.65900, 2548.873
79.89500, 2409.595
81.13100, 2197.050
82.36700, 2097.191
83.60200, 1967.973
84.83700, 1912.355
86.07200, 1903.308
87.30800, 1948.804
88.54200, 1899.821
89.77700, 1909.322
91.01200, 1954.262
92.24600, 1959.603
93.48000, 1954.320
94.71400, 1877.394
95.94800, 1926.806
97.18200, 1887.536
98.41600, 1842.573
99.64900, 1831.900
100.8830, 1801.508
102.1160, 1855.383
103.3490, 1859.519
104.5820, 1857.901
105.8150, 1870.523
107.0470, 1856.373
108.2800, 1902.444
109.5120, 1851.727
110.7440, 1823.214
111.9760, 1648.899
113.2080, 1670.775
114.4400, 1605.835
115.6710, 1651.072
116.9030, 1729.479
118.1340, 1791.071
119.3650, 1872.858
120.5960, 2044.841
121.8270, 2133.024
123.0580, 2310.430
124.2880, 2494.027
125.5190, 2730.771
126.7490, 2992.532
127.9790, 3381.292
129.2090, 3732.043
130.4390, 4150.796
131.6680, 4498.573
132.8980, 4868.406
134.1270, 5259.327
135.3560, 5557.353
136.5850, 5546.479
137.8140, 5392.674
139.0430, 5150.938
140.2710, 4949.275
141.5000, 4730.707
142.7280, 4637.228
143.9560, 4531.818
145.1840, 4551.471
146.4120, 4583.196
147.6390, 4763.023
148.8670, 4994.942
150.0940, 5272.945
151.3210, 5771.024
152.5490, 5993.199
153.7750, 6304.449
155.0020, 6517.769
156.2290, 6501.149
157.4550, 6302.592
158.6810, 5921.104
159.9080, 5518.680
161.1340, 4958.310
162.3590, 4595.000
163.5850, 4405.744
164.8110, 4104.543
166.0360, 4020.414
167.2610, 4038.343
168.4860, 4028.329
169.7110, 4257.377
170.9360, 4481.486
172.1610, 4687.641
173.3850, 5025.840
174.6100, 5309.083
175.8340, 5550.378
177.0580, 5850.715
178.2820, 5811.094
179.5050, 5871.515
180.7290, 5791.974
181.9520, 5433.473
183.1760, 5116.556
184.3990, 4718.548
185.6220, 4420.539
186.8450, 3960.378
188.0670, 3602.558
189.2900, 3279.373
190.5120, 2968.389
191.7340, 2749.092
192.9560, 2504.219
194.1780, 2333.193
195.4000, 2175.110
196.6220, 2022.494
197.8430, 1891.635
199.0640, 1812.986
200.2860, 1750.408
201.5070, 1715.484
202.7270, 1663.869
203.9480, 1650.732
205.1690, 1575.490
206.3890, 1534.964
207.6090, 1616.435
208.8290, 1560.570
210.0490, 1534.923
211.2690, 1625.171
212.4890, 1664.427
213.7080, 1641.694
214.9280, 1693.502
216.1470, 1737.712
217.3660, 1677.902
218.5850, 1672.475
219.8030, 1569.774
221.0220, 1580.163
222.2400, 1421.112
223.4590, 1364.859
224.6770, 1256.291
225.8950, 1252.945
227.1120, 1184.943
228.3300, 1152.388
229.5480, 1120.307
230.7650, 1118.525
231.9820, 1112.077
233.1990, 1134.429
234.4160, 1128.273
235.6330, 1238.037
236.8490, 1241.563
238.0660, 1301.145
239.2820, 1437.986
240.4980, 1405.614
241.7140, 1480.768
242.9300, 1469.576
244.1460, 1568.394
245.3610, 1648.356
246.5770, 1659.261
247.7920, 1613.272
249.0070, 1615.480
250.2220, 1640.425
251.4370, 1408.587
252.6510, 1258.274
253.8660, 1170.461
255.0800, 1065.414
256.2940, 988.1787
257.5080, 914.4031
258.7220, 810.5120
259.9360, 722.5853
261.1490, 625.8939
262.3630, 562.3228
263.5760, 489.3497
264.7890, 414.8772
266.0020, 352.2893
267.2150, 389.8186
268.4270, 309.2751
269.6400, 285.7521
270.8520, 281.5308
272.0640, 187.5330
273.2760, 207.0710
274.4880, 175.6864
275.7000, 142.2610
276.9120, 180.5449
278.1230, 107.2863
279.3340, 136.6521
280.5450, 134.3011
281.7560, 155.6410
282.9670, 100.6720
284.1780, 129.9844
285.3880, 104.0941
286.5980, 110.4207
287.8090, 105.4174
289.0190, 85.17017
290.2290, 119.9377
291.4380, 81.71936
292.6480, 83.59387
293.8570, 63.40820
295.0670, 43.22559
296.2760, 43.07043
297.4850, 3.807739
298.6930, 30.65771
299.9020, 16.55200
301.1110, 40.42114
302.3190, 33.50110
303.5270, 38.44592
304.7350, 24.35657
305.9430, 37.25867
307.1510, 32.97266
308.3580, 4.175537
309.5660, 14.09900
310.7730, 27.22974
311.9800, 23.47119
313.1870, 4.531860
314.3940, 13.41199
315.6010, 20.49658
316.8070, 28.54541
318.0130, 28.45068
319.2200, 13.54663
320.4260, 11.49634
321.6310, 18.46313
322.8370, 46.38489
324.0430, 37.39319
325.2480, 36.56604
326.4540, 1.528198
327.6590, 39.50781
328.8640, 29.55090
330.0680, 33.59912
331.2730, 56.65808
332.4780, 7.713989
333.6820, 55.78979
334.8860, 23.17053
336.0900, 26.92529
337.2940, 34.03467
338.4980, 6.160889
339.7010, 1.702759
340.9050, 29.44409
342.1080, 40.59729
343.3110, 26.77124
344.5140, 29.93811
345.7170, 24.09875
346.9200, 32.09888
348.1220, 26.75452
349.3240, 33.37317
350.5270, 14.50305
351.7290, 20.60046
352.9310, 19.30261
354.1320, 5.218506
355.3340, 13.75745
356.5350, 9.827393
357.7370, 26.89355
358.9380, 33.87122
360.1390, 19.04370
361.3400, 53.12622
362.5400, 20.22827
363.7410, 31.14783
364.9410, 30.19763
366.1410, 0.6722410
367.3410, 12.54297
368.5410, 4.549072
369.7410, 6.677124
370.9400, 16.19031
372.1400, 22.93970
373.3390, 18.89124
374.5380, 16.08899
375.7370, 32.06506
376.9360, 16.65479
378.1350, 3.575928
379.3330, 7.398560
380.5310, 42.21997
381.7300, 20.06897
382.9280, 11.88867
384.1260, 3.293945
385.3230, 11.48706
386.5210, 21.69067
387.7180, 27.08301
388.9160, 38.41760
390.1130, 27.32397
391.3100, 23.07019
392.5060, 17.67480
393.7030, 15.59131
394.9000, 0.8065190
396.0960, 8.664307
397.2920, 28.22266
398.4880, 7.060669
399.6840, 12.71863
400.8800, 38.36633
402.0750, 33.00903
403.2710, 13.66272
404.4660, 44.30420
405.6610, 32.03955
406.8560, 14.33484
408.0510, 5.214722
409.2450, 58.85217
410.4400, 35.76343
411.6340, 50.33484
412.8280, 46.94312
414.0220, 30.55103
415.2160, 24.38428
416.4100, 52.94617
417.6030, 43.47632
418.7970, 53.06970
419.9900, 21.77222
421.1830, 12.27319
422.3760, 21.95667
423.5690, 53.42517
424.7610, 24.88574
425.9540, 35.33752
427.1460, 27.77808
428.3380, 35.20569
429.5300, 29.62122
430.7220, 14.02344
431.9140, 79.62537
433.1050, 66.34021
434.2970, 61.98425
435.4880, 54.35303
436.6790, 61.71472
437.8700, 88.05530
439.0610, 62.38647
440.2510, 26.98401
441.4420, 97.28723
442.6320, 62.58203
443.8220, 82.98364
445.0120, 53.25903
446.2020, 62.52258
447.3910, 67.77576
448.5810, 78.01880
449.7700, 62.34424
450.9600, 71.56641
452.1490, 98.77832
453.3370, 57.98010
454.5260, 51.16968
455.7150, 82.98596
456.9030, 86.09155
458.0910, 63.24695
459.2800, 88.01013
460.4670, 63.51575
461.6550, 70.07983
462.8430, 114.1901
464.0300, 85.16162
465.2180, 62.25073
466.4050, 72.46021
467.5920, 86.60742
468.7790, 94.80896
469.9650, 93.84570
471.1520, 83.65125
472.3380, 85.82275
473.5250, 80.21619
474.7110, 72.66235
475.8970, 77.54395
477.0820, 67.35657
478.2680, 75.41626
479.4540, 78.48706
480.6390, 78.04431
481.8240, 75.18774
483.0090, 79.10925
484.1940, 80.85657
485.3780, 94.26416
486.5630, 80.12219
487.7470, 72.79639
488.9320, 55.70129
490.1160, 100.1881
491.3000, 90.04919
492.4830, 116.5320
493.6670, 86.37292
494.8500, 84.24805
496.0340, 73.06836
497.2170, 58.87830
498.4000, 83.95349
499.5820, 77.17188
500.7650, 95.51685
501.9480, 90.45105
503.1300, 85.10278
504.3120, 66.88757
505.4940, 44.39392
506.6760, 52.27283
507.8580, 82.29443
509.0390, 77.70337
510.2210, 55.39636
511.4020, 79.48145
512.5830, 62.42346
513.7640, 95.08594
514.9450, 39.07532
516.1250, 42.23633
517.3060, 91.89160
518.4860, 10.24329
519.6660, 43.84302
520.8460, 59.13159
522.0260, 65.88550
523.2060, 51.45764
524.3850, 60.01587
525.5650, 95.68530
526.7440, 91.27844
527.9230, 54.38293
529.1020, 60.32788
530.2810, 11.83972
531.4590, 65.23755
532.6380, 49.72388
533.8160, 6.134888
534.9940, 50.37329
536.1720, 37.90381
537.3500, 14.24231
538.5270, 28.07947
539.7050, 27.44055
540.8820, 48.05664
542.0590, 53.88367
543.2360, 53.27148
544.4130, 42.61438
545.5900, 42.37317
546.7660, 29.73401
547.9430, 5.990967
549.1190, 19.66321
550.2950, 34.84912
551.4710, 16.16455
552.6470, 50.37451
553.8220, 35.66968
554.9980, 2.044189
556.1730, 17.94580
557.3480, 37.72083
558.5230, 43.96912
559.6980, 31.14978
560.8730, 22.38086
562.0470, 48.91138
563.2220, 19.99390
564.3960, 72.46021
565.5700, 54.65210
566.7440, 54.48792
567.9170, 84.31421
569.0910, 53.13684
570.2640, 60.89893
571.4380, 48.63184
572.6110, 16.15698
573.7840, 10.35229
574.9570, 12.93335
576.1290, 35.67139
577.3020, 34.69958
578.4740, 48.79224
579.6460, 64.88562
580.8180, 11.95508
581.9900, 64.13391
583.1620, 47.20276
584.3330, 20.23254
585.5040, 38.28577
586.6760, 40.13000
587.8470, 53.11060
589.0180, 49.22021
590.1880, 21.15137
591.3590, 39.08337
592.5290, 37.08887
593.7000, 36.09253
594.8700, 69.88831
596.0400, 21.51514
597.2090, 75.50037
598.3790, 63.47949
599.5490, 65.30933
600.7180, 45.27759
601.8870, 19.10034
603.0560, 40.01758
604.2250, 19.97498
605.3940, 35.92664
606.5620, 2.317505
607.7300, 12.59302
608.8990, 12.53186
610.0670, 62.46350
611.2350, 26.43506
612.4020, 41.36072
613.5700, 62.50525
614.7370, 65.46741
615.9050, 18.50195
617.0720, 37.51685
618.2390, 15.42175
619.4060, 57.46167
620.5720, 41.42957
621.7390, 5.387939
622.9050, 61.34021
624.0710, 13.28833
625.2370, 56.23547
626.4030, 75.18506
627.5690, 52.14746
628.7340, 52.12671
629.9000, 38.92334
631.0650, 33.88953
632.2300, 7.835449
633.3950, 61.78223
634.5600, 59.72437
635.7240, 62.66614
636.8890, 31.60303
638.0530, 71.43811
639.2170, 83.36926
640.3810, 71.29932
641.5450, 37.23181
642.7080, 74.16809
643.8720, 69.10571
645.0350, 42.05200
646.1980, 78.81177
647.3610, 5.694214
648.5240, 23.64880
649.6870, 44.60071
650.8490, 61.51514
652.0120, 21.46204
653.1740, 74.40869
654.3360, 68.21912
655.4980, 271.1075
656.6600, 16.92212
657.8210, 201.8684
658.9830, 22.92749
660.1440, 3.781738
661.3050, 8.229858
662.4660, 20.71021
663.6270, 35.61829
664.7870, 5.448853
665.9480, 44.47888
667.1080, 55.40771
668.2680, 8.664795
669.4280, 21.26868
670.5880, 75.47095
671.7480, 114.4497
672.9070, 200.3796
674.0670, 278.5669
675.2260, 537.4951
676.3850, 608.4629
677.5440, 463.9048
678.7030, 267.6902
679.8610, 152.4658
681.0200, 77.41284
682.1780, 56.35779
683.3360, 109.3373
684.4940, 83.26062
685.6520, 53.18555
686.8090, 69.00867
687.9670, 91.26331
689.1240, 85.92175
690.2810, 108.8093
691.4380, 98.41431
692.5950, 134.3502
693.7520, 295.2408
694.9080, 635.1230
696.0650, 1066.771
697.2210, 1133.678
698.3770, 907.6177
699.5330, 364.4847
700.6880, 234.2333
701.8440, 100.1710
702.9990, 18.91162
704.1550, 46.85449
705.3100, 26.20410
706.4650, 17.72705
707.6190, 7.341553
708.7740, 49.58862
709.9290, 4.480957
711.0830, 15.55090
712.2370, 3.161133
713.3910, 0.7497560
714.5450, 31.40747
715.6980, 17.33032
716.8520, 35.24939
718.0050, 22.17908
719.1580, 64.10815
720.3110, 24.76038
721.4640, 30.69116
722.6170, 13.62073
723.7700, 33.43274
724.9220, 28.95740
726.0740, 33.28784
727.2260, 50.21484
728.3780, 68.14966
729.5300, 112.0093
730.6810, 83.97888
731.8330, 85.90271
732.9840, 72.05054
734.1350, 46.33179
735.2860, 41.61121
736.4370, 36.57666
737.5880, 34.45728
738.7380, 46.38000
739.8880, 37.37354
741.0390, 56.21191
742.1890, 40.64417
743.3380, 32.49866
744.4880, 63.41907
745.6380, 47.83594
746.7870, 52.61597
747.9360, 45.38940
749.0850, 3.308838
750.2340, 29.21887
751.3830, 6.836914
752.5310, 5.251099
753.6800, 1.663818
754.8280, 2.068237
755.9760, 61.58167
757.1240, 3.187378
758.2720, 19.46594
759.4190, 71.53198
760.5670, 25.23022
761.7140, 69.34619
762.8610, 59.15222
764.0080, 28.07617
765.1550, 19.03845
766.3020, 15.20154
767.4480, 18.84546
768.5950, 22.74817
769.7410, 37.67188
770.8870, 55.42346
772.0330, 66.40295
773.1780, 36.30261
774.3240, 46.23792
775.4690, 36.13599
776.6140, 58.03406
777.7590, 48.07690
778.9040, 51.06750
780.0490, 47.96411
781.1940, 39.03113
782.3380, 45.48901
783.4820, 58.84778
784.6260, 52.74292
785.7700, 60.49744
786.9140, 65.39185
788.0580, 73.28577
789.2010, 74.09216
790.3450, 68.92981
791.4880, 67.27625
792.6310, 66.22229
793.7730, 46.12842
794.9160, 74.05640
796.0590, 60.94849
797.2010, 41.84399
798.3430, 13.60986
799.4850, 28.07666
800.6270, 39.96960
801.7690, 64.86304
802.9100, 46.42834
804.0520, 45.32092
805.1930, 46.22327
806.3340, 79.66113
807.4750, 65.55237
808.6160, 14.44641
809.7560, 60.34875
810.8970, 0.2945560
812.0370, 32.18945
813.1770, 2.083862
814.3170, 67.09729
815.4570, 63.09949
816.5960, 52.99463
817.7360, 23.90454
818.8750, 63.79932
820.0140, 15.71179
821.1530, 57.60486
822.2920, 123.4976
823.4310, 69.39709
824.5690, 139.3652
825.7070, 117.2596
826.8460, 141.1545
827.9840, 96.04895
829.1220, 70.00720
830.2590, 146.9625
831.3970, 129.8564
832.5340, 162.9438
833.6710, 262.8419
834.8080, 404.9504
835.9450, 545.8888
837.0820, 852.7844
838.2190, 1331.680
839.3550, 1968.575
840.4910, 1976.511
841.6270, 1473.453
842.7630, 979.0190
843.8990, 519.9104
845.0350, 332.5305
846.1700, 243.4197
847.3060, 150.1270
848.4410, 130.3771
849.5760, 119.2057
850.7100, 62.10400
851.8450, 64.99158
852.9800, 113.8778
854.1140, 42.76282
855.2480, 52.73352
856.3820, 70.61597
857.5160, 33.49841
858.6500, 52.38965
859.7830, 41.26636
860.9170, 53.14526
862.0500, 39.02271
863.1830, 49.89880
864.3160, 29.77332
865.4480, 25.64636
866.5810, 21.51794
867.7130, 74.38843
868.8460, 84.25781
869.9780, 55.12866
871.1100, 30.99951
872.2410, 45.86902
873.3730, 68.77161
874.5050, 77.63782
875.6360, 16.52979
876.7670, 55.39380
877.8980, 7.742920
879.0290, 46.11646
880.1590, 37.97449
881.2900, 23.83057
882.4200, 32.68958
883.5500, 40.54895
884.6800, 39.42065
885.8100, 55.24475
886.9400, 29.11792
888.0690, 3.768188
889.1990, 33.40125
890.3280, 28.71667
891.4570, 40.11987
892.5860, 11.05164
893.7140, 20.33618
894.8430, 6.448364
895.9710, 46.24097
897.1000, 1.033691
898.2280, 63.82227
899.3560, 32.61169
900.4830, 23.40686
901.6110, 60.18762
902.7380, 83.95117
903.8660, 37.72754
904.9930, 32.52271
906.1200, 40.31836
907.2460, 19.12183
908.3730, 49.93311
909.5000, 29.74414
910.6260, 43.55212
911.7520, 39.37622
912.8780, 10.21497
914.0040, 16.83691
915.1290, 41.89160
916.2550, 7.728638
917.3800, 33.57166
918.5050, 43.41858
919.6300, 48.27185
920.7550, 57.13232
921.8800, 47.65173
923.0040, 60.84692
924.1290, 23.70740
925.2530, 23.56848
926.3770, 10.42566
927.5010, 29.27820
928.6250, 39.12695
929.7480, 27.97229
930.8720, 70.81372
931.9950, 94.65173
933.1180, 57.48608
934.2410, 34.28052
935.3640, 47.12659
936.4860, 73.97144
937.6090, 64.81226
938.7310, 73.65112
939.8530, 42.48608
940.9750, 44.33167
942.0970, 47.18018
943.2180, 56.02466
944.3400, 43.82935
945.4610, 33.66785
946.5820, 79.37915
947.7030, 81.20911
948.8240, 20.92896
949.9450, 22.74939
951.0650, 77.56482
952.1860, 44.37585
953.3060, 80.18140
954.4260, 43.98450
955.5460, 61.74585
956.6650, 67.58105
957.7850, 47.41064
958.9040, 31.20007
960.0230, 52.98425
961.1420, 57.76367
962.2610, 55.53809
963.3800, 35.30774
964.4990, 36.07190
965.6170, 72.83374
966.7350, 16.59070
967.8530, 70.34094
968.9710, 25.90271
970.0890, 41.82349
971.2070, 95.54395
972.3240, 90.25928
973.4410, 64.97449
974.5580, 42.67920
975.6750, 41.37793
976.7920, 67.07532
977.9090, 69.77380
979.0250, 95.46680
980.1410, 107.1572
981.2580, 94.84192
982.3740, 72.53040
983.4890, 65.21582
984.6050, 22.10413
985.7200, 69.55334
986.8360, 70.20496
987.9510, 105.8505
989.0660, 34.49158
990.1810, 87.12952
991.2950, 105.7614
992.4100, 53.38721
993.5240, 64.00684
994.6390, 63.62024
995.7530, 66.22742
996.8660, 73.43237
997.9800, 139.4230
999.0940, 86.00244
1000.207, 119.5576
1001.320, 131.2023
1002.433, 103.8948
1003.546, 84.12622
1004.659, 64.06030
1005.772, 62.60168
1006.884, 50.14453
1007.996, 89.69287
1009.108, 52.37219
1010.220, 93.05957
1011.332, 73.70093
1012.444, 119.3011
1013.555, 107.8082
1014.666, 109.3248
1015.777, 120.2975
1016.888, 91.15430
1017.999, 73.80432
1019.110, 63.26953
1020.220, 83.92297
1021.331, 98.34717
1022.441, 98.90466
1023.551, 55.33594
1024.661, 75.93738
1025.770, 68.83484
1026.880, 75.49927
1027.989, 90.00586
1029.098, 106.4746
1030.207, 160.1522
1031.316, 245.3284
1032.425, 305.3325
1033.533, 348.5187
1034.642, 306.0602
1035.750, 224.7202
1036.858, 154.0789
1037.966, 196.0924
1039.073, 192.0699
1040.181, 212.5878
1041.288, 231.3737
1042.396, 309.1555
1043.503, 415.4160
1044.610, 430.0811
1045.716, 595.4062
1046.823, 751.9338
1047.929, 1163.543
1049.036, 1934.823
1050.142, 3030.250
1051.248, 4344.046
1052.353, 6913.352
1053.459, 12834.00
1054.564, 30448.39
1055.670, 57113.07
1056.775, 57131.27
1057.880, 34362.33
1058.985, 15146.42
1060.089, 5972.416
1061.194, 2640.505
1062.298, 1469.626
1063.402, 934.6881
1064.506, 642.8019
1065.610, 504.9054
1066.713, 330.0953
1067.817, 357.7371
1068.920, 233.2059
1070.023, 224.2684
1071.126, 181.3202
1072.229, 220.3616
1073.332, 160.7129
1074.435, 184.7354
1075.537, 130.7448
1076.639, 146.1343
1077.741, 132.1130
1078.843, 134.0371
1079.945, 134.1929
1081.046, 126.9659
1082.148, 143.7915
1083.249, 124.6191
1084.350, 156.5430
1085.451, 168.6143
1086.551, 128.5164
1087.652, 136.3893
1088.752, 80.27844
1089.853, 80.14771
1090.953, 172.9985
1092.053, 168.7693
1093.152, 121.6056
1094.252, 90.43091
1095.351, 163.2452
1096.451, 164.9855
1097.550, 179.3459
1098.649, 149.1276
1099.748, 96.70850
1100.846, 82.46851
1101.945, 142.1285
1103.043, 96.82483
1104.141, 104.5521
1105.239, 81.26843
1106.337, 154.9741
1107.434, 126.6271
1108.532, 150.2065
1109.629, 112.0023
1110.726, 130.6648
1111.823, 104.6643
1112.920, 124.3053
1114.017, 117.8090
1115.113, 145.4283
1116.210, 93.03662
1117.306, 143.7103
1118.402, 104.2971
1119.498, 121.8733
1120.593, 127.7045
1121.689, 94.93152
1122.784, 119.4756
1123.879, 165.0090
1124.974, 120.5217
1126.069, 116.0339
1127.164, 75.53540
1128.259, 144.0266
1129.353, 76.50720
1130.447, 75.97876
1131.541, 82.43848
1132.635, 48.90601
1133.729, 47.34412
1134.822, 22.77075
1135.916, 32.18103
1137.009, 90.57739
1138.102, 72.96655
1139.195, 63.30798
1140.288, 41.67383
1141.380, 36.05542
1142.473, 42.34363
1143.565, 21.67444
1144.657, 60.99243
1145.749, 56.30029
1146.841, 22.59778
1147.932, 26.93225
1149.024, 25.79810
1150.115, 70.43469
1151.206, 5.657715
1152.297, 62.86023
1153.388, 28.05359
1154.479, 5.235229
1155.569, 41.37195
1156.659, 37.54126
1157.750, 44.71155
1158.839, 1.124390
1159.929, 27.02356
1161.019, 24.16064
1162.108, 63.28564
1163.198, 13.48242
1164.287, 8.415283
1165.376, 23.66187
1166.465, 20.72803
1167.553, 40.78247
1168.642, 7.172119
1169.730, 9.849854
1170.818, 16.14282
1171.906, 22.16333
1172.994, 12.78601
1174.082, 55.76367
1175.170, 52.30798
1176.257, 47.42542
1177.344, 12.41443
1178.431, 6.757080
1179.518, 25.05090
1180.605, 22.14905
1181.691, 10.37659
1182.778, 18.66882
1183.864, 8.098999
1184.950, 21.18774
1186.036, 10.50098
1187.122, 18.16528
1188.207, 3.175781
1189.292, 20.46765
1190.378, 45.10449
1191.463, 56.73560
1192.548, 60.07739
1193.632, 36.97888
1194.717, 33.59143
1195.801, 43.19788
1196.886, 9.201904
1197.970, 33.61792
1199.054, 0.9375000
1200.137, 58.48267
1201.221, 24.02197
1202.305, 44.55566
1203.388, 47.91602
1204.471, 11.42236
1205.554, 47.05664
1206.637, 2.469971
1207.719, 68.99390
1208.802, 13.45312
1209.884, 12.90747
1210.966, 5.356689
1212.048, 21.80103
1213.130, 22.24097
1214.212, 30.67676
1215.293, 0.8916020
1216.374, 25.53320
1217.456, 5.954102
1218.536, 18.62939
1219.617, 17.73706
1220.698, 27.10083
1221.778, 48.49585
1222.859, 15.88794
1223.939, 58.27637
1225.019, 6.661621
1226.099, 22.04297
1227.178, 14.57812
1228.258, 36.79150
1229.337, 2.765137
1230.417, 12.34766
1231.496, 26.12695
1232.574, 21.23120
1233.653, 29.58740
1234.732, 44.94092
1235.810, 14.28711
1236.888, 57.63623
1237.966, 25.01611
1239.044, 4.678955
1240.122, 9.654541
1241.199, 12.01318
1242.277, 39.31372
1243.354, 45.36035
1244.431, 4.947510
1245.508, 55.25415
1246.585, 7.440186
1247.661, 10.87207
1248.738, 30.18384
1249.814, 11.50537
1250.890, 25.19751
1251.966, 40.10327
1253.042, 2.404053
1254.117, 65.70483
1255.193, 7.005859
1256.268, 17.30713
1257.343, 11.60913
1258.418, 1.911621
1259.493, 1.341797
1260.567, 20.51880
1261.642, 1.176270
1262.716, 29.01587
1263.790, 54.19995
1264.864, 35.84009
1265.938, 56.61865
1267.011, 1.084961
1268.085, 51.39966
1269.158, 56.70361
1270.231, 29.87207
1271.304, 47.95703
1272.377, 16.15479
1273.450, 63.87939
1274.522, 100.2036
1275.594, 10.51465
1276.666, 4.678467
1277.738, 58.27661
1278.810, 62.44336
1279.882, 7.791260
1280.953, 5.948242
1282.025, 11.30542
1283.096, 29.38135
1284.167, 14.58350
1285.238, 30.90283
1286.308, 25.20361
1287.379, 53.55542
1288.449, 37.47632
1289.519, 6.645264
1290.589, 32.76099
1291.659, 7.831787
1292.729, 65.95459
1293.798, 4.539795
1294.868, 71.72998
1295.937, 19.85864
1297.006, 19.28833
1298.075, 38.06323
1299.143, 64.85425
1300.212, 17.12744
1301.280, 18.05322
1302.348, 4.935791
1303.416, 18.10400
1304.484, 20.69043
1305.552, 57.16138
1306.620, 79.28687
1307.687, 64.38379
1308.754, 83.90649
1309.821, 113.1133
1310.888, 139.1030
1311.955, 129.6157
1313.021, 138.7874
1314.088, 170.2278
1315.154, 107.3821
1316.220, 122.0156
1317.286, 129.7180
1318.352, 158.3989
1319.417, 154.0938
1320.483, 151.8027
1321.548, 182.5244
1322.613, 167.2534
1323.678, 164.9897
1324.743, 134.7344
1325.807, 156.3901
1326.872, 104.5537
1327.936, 166.9270
1329.000, 206.7056
1330.064, 200.4934
1331.128, 148.2905
1332.191, 161.7666
1333.255, 161.5769
1334.318, 200.4036
1335.381, 191.8496
1336.444, 231.6968
1337.507, 162.5547
1338.569, 194.4236
1339.632, 192.2974
1340.694, 229.1887
1341.756, 225.0916
1342.818, 228.0061
1343.880, 248.7598
1344.941, 280.6982
1346.003, 261.6494
1347.064, 323.6042
1348.125, 310.5811
1349.186, 379.5710
1350.247, 435.5745
1351.308, 486.5916
1352.368, 569.6223
1353.428, 624.6675
1354.489, 758.7266
1355.549, 830.1716
1356.608, 886.2598
1357.668, 977.3633
1358.727, 1146.482
1359.787, 1337.494
1360.846, 1391.643
1361.905, 1464.809
1362.964, 1547.990
1364.022, 1602.188
1365.081, 1548.402
1366.139, 1475.688
1367.197, 1396.814
1368.255, 1254.079
1369.313, 1182.013
1370.371, 983.3125
1371.428, 903.7566
1372.486, 830.0920
1373.543, 613.4458
1374.600, 550.6538
1375.657, 542.0444
1376.713, 432.4534
1377.770, 381.6157
1378.826, 304.3035
1379.882, 334.7695
1380.938, 273.2546
1381.994, 254.7588
1383.050, 208.2825
1384.106, 201.8252
1385.161, 152.3872
1386.216, 177.9690
1387.271, 135.5693
1388.326, 120.1917
1389.381, 84.81641
1390.435, 102.4810
1391.490, 79.16724
1392.544, 100.8789
1393.598, 96.50317
1394.652, 104.3694
1395.705, 81.15063
1396.759, 102.9551
1397.812, 59.78418
1398.866, 118.6389
1399.919, 152.5186
1400.972, 136.4263
1402.024, 186.3591
1403.077, 275.3184
1404.129, 213.2549
1405.181, 340.2717
1406.233, 330.3291
1407.285, 453.4143
1408.337, 408.5330
1409.389, 516.6809
1410.440, 562.8589
1411.491, 665.0723
1412.542, 716.3164
1413.593, 741.5918
1414.644, 809.8992
1415.695, 837.2456
1416.745, 921.6260
1417.795, 946.0422
1418.845, 972.4133
1419.895, 1048.902
1420.945, 1045.437
1421.995, 1072.011
1423.044, 1036.624
1424.093, 1094.278
1425.142, 1079.379
1426.191, 1138.126
1427.240, 1114.927
1428.289, 1173.831
1429.337, 1092.695
1430.385, 1135.648
1431.433, 1174.670
1432.481, 1136.762
1433.529, 1160.908
1434.577, 1264.118
1435.624, 1280.385
1436.672, 1319.659
1437.719, 1354.782
1438.766, 1393.239
1439.812, 1439.699
1440.859, 1491.897
1441.905, 1551.579
1442.952, 1672.163
1443.998, 1769.693
1445.044, 1813.231
1446.090, 1971.699
1447.135, 2022.905
1448.181, 2131.067
1449.226, 2327.257
1450.271, 2421.496
1451.316, 2662.780
1452.361, 2744.092
1453.405, 2913.469
1454.450, 3148.885
1455.494, 3316.334
1456.538, 3499.813
1457.582, 3776.325
1458.626, 3981.870
1459.670, 4260.448
1460.713, 4494.984
1461.757, 4751.726
1462.800, 4973.416
1463.843, 5270.138
1464.886, 5503.905
1465.928, 5785.704
1466.971, 6020.552
1468.013, 6249.437
1469.055, 6514.356
1470.097, 6742.324
1471.139, 6911.333
1472.181, 7177.394
1473.222, 7263.500
1474.263, 7448.651
1475.305, 7568.840
1476.346, 7822.081
1477.386, 7911.362
1478.427, 7906.685
1479.468, 7869.047
1480.508, 7783.241
1481.548, 7652.656
1482.588, 7475.384
1483.628, 7227.915
1484.668, 7003.488
1485.707, 6610.102
1486.747, 6192.758
1487.786, 5860.458
1488.825, 5449.202
1489.864, 5063.989
1490.902, 4707.818
1491.941, 4341.688
1492.979, 4036.599
1494.017, 3723.553
1495.055, 3409.547
1496.093, 2993.584
1497.131, 2816.659
1498.168, 2487.773
1499.206, 2324.919
1500.243, 2076.099
1501.280, 1929.313
1502.317, 1671.559
1503.354, 1668.832
1504.390, 1438.123
1505.426, 1293.414
1506.463, 1249.715
1507.499, 1114.028
1508.535, 1089.358
1509.570, 931.7102
1510.606, 802.1248
1511.641, 738.6135
1512.676, 673.1772
1513.711, 630.8167
1514.746, 592.1812
1515.781, 529.3264
1516.816, 525.1997
1517.850, 496.1538
1518.884, 436.1904
1519.918, 473.3103
1520.952, 402.5151
1521.986, 404.8064
1523.019, 334.1848
1524.053, 252.6511
1525.086, 274.2075
1526.119, 273.8555
1527.152, 260.5974
1528.185, 240.4346
1529.217, 193.3706
1530.250, 148.4065
1531.282, 147.2761
1532.314, 167.7920
1533.346, 129.1479
1534.377, 178.6179
1535.409, 150.2063
1536.440, 97.91992
1537.472, 132.7651
1538.503, 94.75122
1539.534, 113.8916
1540.564, 69.19922
1541.595, 126.6846
1542.625, 43.35547
1543.656, 33.21948
1544.686, 62.28467
1545.716, 80.56079
1546.745, 29.05811
1547.775, 10.78809
1548.804, 20.23511
1549.834, 2.002686
1550.863, 33.51929
1551.892, 3.665527
1552.920, 26.47070
1553.949, 28.95410
1554.977, 46.81250
1556.006, 34.07715
1557.034, 64.77930
1558.062, 22.95361
1559.089, 47.64062
1560.117, 10.66211
1561.144, 3.283691
1562.172, 82.98877
1563.199, 9.409424
1564.226, 112.3638
1565.252, 117.7600
1566.279, 38.60767
1567.305, 29.30786
1568.332, 9.166260
1569.358, 2.795654
1570.384, 0.0000000E+00
##END=



