##NAMES=Cerussite
##RRUFFID=R050011
##IDEAL CHEMISTRY=Pb^2+^CO_3_
##LOCALITY=Daoping Lead and Zinc mine, Gongcheng, Guangxi, China
##OWNER=RRUFF
##SOURCE=Eugene Schlepp
##DESCRIPTION=Colorless hexagonal bipyramidal crystals
##STATUS=The identification of this mineral has been confirmed by X-ray diffraction and chemical analysis
##URL=rruff.info/R050011
##MEASURED CHEMISTRY=Pb_1.00_CO_3_ ; CO_2_ not measured but estimated by difference and stoichiometry
##PIN_ID=L00082
##ORIENTATION=Laser parallel to -a* (-1 0 0). Fiducial mark perpendicular to laser is parallel to -b [0 -1 0]
94.324, 0.000
95.723, 0.239
97.121, 792.995
98.519, 1562.811
99.917, 2756.753
101.314, 3918.529
102.712, 4259.519
104.109, 4655.738
105.505, 3464.739
106.902, 2862.760
108.298, 1989.190
109.694, 1446.005
111.090, 1223.517
112.486, 880.351
113.881, 1157.387
115.277, 1037.715
116.672, 1148.709
118.066, 1128.063
119.461, 1233.435
120.855, 1106.608
122.249, 1054.106
123.643, 1139.388
125.036, 1095.056
126.430, 1359.794
127.823, 1245.326
129.216, 1646.406
130.608, 1685.828
132.001, 1609.417
133.393, 1812.026
134.785, 1509.591
136.176, 1599.069
137.568, 1321.838
138.959, 1431.782
140.350, 1525.759
141.741, 1506.607
143.131, 1807.778
144.521, 1798.800
145.911, 2197.276
147.301, 2052.802
148.691, 2197.307
150.080, 2240.418
151.469, 2015.567
152.858, 2062.803
154.247, 1665.067
155.635, 1572.249
157.024, 1190.390
158.411, 1032.364
159.799, 780.177
161.187, 600.784
162.574, 569.196
163.961, 375.387
165.348, 453.384
166.734, 458.185
168.121, 412.831
169.507, 597.329
170.893, 512.648
172.278, 729.819
173.664, 675.827
175.049, 658.638
176.434, 634.333
177.819, 619.801
179.203, 750.046
180.587, 475.281
181.971, 508.698
183.355, 363.485
184.739, 355.852
186.122, 279.813
187.505, 120.929
188.888, 123.636
190.271, 100.187
191.653, 92.379
193.035, 20.061
194.417, 13.646
195.799, 15.734
197.180, 9.896
198.562, 21.912
199.943, 66.873
201.324, 2.148
202.704, 44.280
204.084, 3.271
205.465, 19.626
206.844, 55.354
208.224, 192.080
209.603, 45.842
210.983, 66.816
212.362, 187.200
213.740, 172.666
215.119, 259.317
216.497, 195.898
217.875, 344.591
219.253, 130.336
220.631, 270.215
222.008, 333.128
223.385, 366.134
224.762, 354.500
226.139, 364.220
227.515, 364.932
228.891, 348.342
230.267, 367.165
231.643, 280.625
233.018, 236.820
234.394, 324.957
235.769, 211.130
237.144, 255.181
238.518, 125.936
239.893, 250.398
241.267, 189.885
242.641, 216.376
244.014, 156.690
245.388, 106.735
246.761, 174.497
248.134, 134.206
249.507, 135.170
250.879, 88.023
252.252, 173.339
253.624, 117.634
254.996, 43.440
256.367, 33.024
257.739, 9.023
259.110, 6.339
260.481, 32.873
261.852, 24.287
263.222, 71.608
264.592, 123.660
265.962, 95.048
267.332, 172.945
268.702, 175.809
270.071, 108.249
271.440, 168.511
272.809, 119.305
274.178, 190.752
275.546, 202.089
276.915, 110.202
278.283, 152.121
279.650, 127.886
281.018, 222.518
282.385, 99.019
283.752, 166.798
285.119, 13.186
286.486, 70.344
287.852, 92.614
289.218, 14.859
290.584, 141.647
291.950, 20.323
293.316, 40.189
294.681, 30.398
296.046, 19.489
297.411, 24.717
298.775, 51.257
300.140, 16.536
301.504, 28.341
302.868, 13.530
304.231, 56.921
305.595, 9.381
306.958, 7.096
308.321, 27.505
309.684, 30.114
311.047, 75.523
312.409, 27.958
313.771, 26.072
315.133, 48.012
316.495, 50.871
317.856, 16.760
319.217, 81.743
320.578, 50.355
321.939, 94.323
323.299, 52.776
324.660, 83.228
326.020, 10.922
327.380, 156.153
328.739, 78.641
330.099, 77.691
331.458, 93.683
332.817, 157.691
334.176, 116.537
335.534, 257.582
336.892, 108.289
338.251, 184.502
339.608, 50.077
340.966, 163.644
342.323, 178.220
343.681, 217.552
345.037, 150.821
346.394, 196.778
347.751, 205.567
349.107, 214.997
350.463, 144.513
351.819, 293.801
353.174, 259.062
354.530, 301.978
355.885, 202.918
357.240, 234.797
358.594, 230.824
359.949, 220.386
361.303, 294.390
362.657, 247.983
364.011, 329.936
365.365, 283.250
366.718, 281.316
368.071, 297.479
369.424, 307.401
370.777, 303.986
372.129, 249.730
373.481, 262.348
374.833, 285.826
376.185, 339.316
377.537, 409.509
378.888, 275.298
380.239, 319.658
381.590, 311.670
382.941, 253.633
384.291, 254.498
385.642, 317.132
386.992, 325.880
388.341, 256.682
389.691, 316.706
391.040, 328.748
392.389, 387.654
393.738, 329.394
395.087, 342.132
396.435, 296.575
397.784, 324.930
399.132, 313.999
400.479, 305.317
401.827, 326.887
403.174, 438.301
404.521, 348.149
405.868, 366.339
407.215, 326.520
408.561, 426.771
409.908, 324.446
411.254, 300.294
412.599, 374.380
413.945, 320.126
415.290, 385.818
416.636, 325.787
417.980, 291.296
419.325, 355.149
420.670, 334.897
422.014, 358.079
423.358, 301.337
424.702, 344.888
426.045, 297.873
427.389, 312.181
428.732, 434.880
430.075, 359.419
431.417, 255.587
432.760, 410.094
434.102, 368.074
435.444, 362.323
436.786, 295.646
438.127, 421.244
439.469, 390.875
440.810, 393.821
442.151, 360.627
443.492, 333.276
444.832, 223.050
446.172, 337.912
447.512, 239.489
448.852, 381.188
450.192, 372.321
451.531, 278.588
452.870, 220.779
454.209, 250.875
455.548, 365.035
456.887, 219.829
458.225, 335.614
459.563, 240.084
460.901, 337.569
462.238, 249.829
463.576, 202.967
464.913, 314.209
466.250, 327.298
467.587, 309.302
468.923, 297.453
470.259, 286.330
471.596, 240.205
472.931, 224.909
474.267, 355.395
475.603, 284.318
476.938, 281.988
478.273, 251.951
479.608, 225.812
480.942, 285.118
482.276, 208.616
483.611, 342.948
484.944, 253.099
486.278, 206.696
487.612, 259.802
488.945, 207.012
490.278, 273.807
491.611, 287.406
492.943, 245.355
494.276, 295.132
495.608, 213.484
496.940, 276.579
498.271, 181.187
499.603, 261.760
500.934, 238.637
502.265, 222.084
503.596, 256.124
504.927, 238.146
506.257, 268.241
507.587, 419.453
508.917, 153.505
510.247, 241.596
511.577, 251.212
512.906, 212.673
514.235, 294.045
515.564, 225.406
516.892, 205.594
518.221, 176.358
519.549, 196.918
520.877, 147.147
522.205, 158.260
523.533, 268.835
524.860, 189.857
526.187, 220.743
527.514, 171.542
528.841, 162.401
530.167, 323.236
531.493, 204.121
532.820, 214.246
534.145, 224.312
535.471, 205.025
536.796, 275.641
538.122, 146.213
539.447, 186.140
540.771, 116.579
542.096, 246.868
543.420, 256.096
544.744, 126.802
546.068, 366.927
547.392, 227.406
548.715, 166.812
550.039, 156.874
551.362, 47.187
552.684, 187.528
554.007, 87.337
555.329, 241.852
556.652, 371.231
557.973, 121.310
559.295, 230.834
560.617, 160.176
561.938, 180.190
563.259, 59.945
564.580, 214.255
565.901, 203.934
567.221, 172.940
568.541, 113.103
569.861, 301.903
571.181, 171.227
572.501, 270.841
573.820, 249.523
575.139, 159.512
576.458, 147.927
577.777, 156.322
579.095, 165.948
580.414, 74.330
581.732, 223.507
583.049, 71.078
584.367, 129.940
585.685, 177.384
587.002, 125.239
588.319, 174.348
589.636, 183.313
590.952, 140.733
592.268, 249.826
593.585, 238.966
594.900, 319.757
596.216, 177.865
597.532, 97.350
598.847, 146.583
600.162, 195.676
601.477, 134.969
602.792, 54.033
604.106, 211.811
605.420, 250.915
606.734, 168.840
608.048, 208.121
609.361, 117.188
610.675, 146.246
611.988, 204.105
613.301, 152.440
614.614, 81.673
615.926, 149.545
617.238, 98.526
618.550, 166.995
619.862, 135.955
621.174, 204.797
622.485, 72.575
623.797, 283.851
625.108, 73.079
626.418, 181.985
627.729, 251.292
629.039, 120.127
630.349, 178.716
631.659, 117.267
632.969, 206.146
634.279, 195.232
635.588, 94.085
636.897, 163.132
638.206, 201.876
639.515, 60.683
640.823, 289.033
642.131, 58.302
643.439, 247.361
644.747, 165.886
646.055, 174.708
647.362, 203.066
648.669, 58.232
649.976, 280.863
651.283, 139.779
652.589, 188.394
653.896, 188.533
655.202, 17.108
656.508, 285.086
657.814, 193.600
659.119, 37.685
660.424, 170.836
661.729, 69.268
663.034, 137.630
664.339, 129.918
665.643, 238.364
666.947, 177.303
668.251, 55.616
669.555, 264.267
670.859, 182.453
672.162, 260.810
673.465, 219.037
674.768, 177.134
676.071, 374.977
677.373, 223.351
678.676, 170.848
679.978, 568.473
681.280, 956.723
682.581, 1354.626
683.883, 932.677
685.184, 400.400
686.485, 228.035
687.786, 136.195
689.087, 114.104
690.387, 172.056
691.687, 80.036
692.987, 267.924
694.287, 186.125
695.586, 423.536
696.886, 161.300
698.185, 158.314
699.484, 186.303
700.783, 15.377
702.081, 221.786
703.379, 79.762
704.677, 27.612
705.975, 115.171
707.273, 72.731
708.570, 88.271
709.868, 165.911
711.165, 67.420
712.462, 90.369
713.758, 18.181
715.055, 95.207
716.351, 72.921
717.647, 3.705
718.943, 211.187
720.238, 69.595
721.533, 127.950
722.829, 235.441
724.124, 12.798
725.418, 259.665
726.713, 11.373
728.007, 85.945
729.301, 93.539
730.595, 1.167
731.889, 288.407
733.182, 4.402
734.476, 7.084
735.769, 300.166
737.061, 27.060
738.354, 144.541
739.647, 20.952
740.939, 182.109
742.231, 129.401
743.523, 147.449
744.814, 84.740
746.106, 2.045
747.397, 179.175
748.688, 106.608
749.978, 25.971
751.269, 231.442
752.559, 48.684
753.849, 105.682
755.139, 232.771
756.429, 90.058
757.719, 187.352
759.008, 53.682
760.297, 221.049
761.586, 348.347
762.875, 85.494
764.163, 283.087
765.451, 30.000
766.739, 137.415
768.027, 194.661
769.315, 81.707
770.602, 168.626
771.890, 185.647
773.177, 82.506
774.463, 139.586
775.750, 36.529
777.036, 183.852
778.323, 39.535
779.609, 57.595
780.894, 204.168
782.180, 31.238
783.465, 198.326
784.750, 115.116
786.035, 102.143
787.320, 178.905
788.605, 75.949
789.889, 283.358
791.173, 49.996
792.457, 76.910
793.741, 153.904
795.024, 140.328
796.307, 7.301
797.591, 33.697
798.873, 80.644
800.156, 97.663
801.439, 124.566
802.721, 141.480
804.003, 13.327
805.285, 30.216
806.566, 267.382
807.848, 35.752
809.129, 131.086
810.410, 167.127
811.691, 133.947
812.971, 51.218
814.252, 64.418
815.532, 331.193
816.812, 264.922
818.092, 68.453
819.371, 279.018
820.651, 24.152
821.930, 172.547
823.209, 50.127
824.488, 116.803
825.766, 283.471
827.045, 112.480
828.323, 139.158
829.601, 176.236
830.878, 33.454
832.156, 250.128
833.433, 347.302
834.710, 353.966
835.987, 850.659
837.264, 977.656
838.540, 1654.311
839.817, 1091.385
841.093, 458.025
842.369, 564.544
843.644, 293.328
844.920, 129.950
846.195, 236.942
847.470, 93.548
848.745, 220.170
850.020, 136.786
851.294, 163.394
852.568, 260.109
853.842, 46.703
855.116, 201.741
856.390, 118.590
857.663, 234.857
858.936, 150.903
860.209, 98.011
861.482, 334.236
862.755, 200.935
864.027, 97.496
865.299, 319.419
866.571, 145.804
867.843, 191.803
869.115, 198.133
870.386, 65.638
871.657, 390.212
872.928, 63.284
874.199, 368.366
875.470, 204.751
876.740, 161.218
878.010, 467.112
879.280, 26.428
880.550, 128.905
881.820, 235.083
883.089, 101.290
884.358, 217.064
885.627, 153.510
886.896, 89.199
888.164, 314.802
889.433, 1.229
890.701, 267.165
891.969, 133.580
893.236, 80.506
894.504, 315.868
895.771, 17.816
897.038, 108.547
898.305, 344.664
899.572, 170.428
900.838, 196.775
902.105, 232.975
903.371, 107.480
904.637, 233.816
905.902, 69.766
907.168, 365.947
908.433, 232.264
909.698, 48.379
910.963, 474.686
912.228, 100.646
913.492, 306.953
914.757, 223.250
916.021, 39.332
917.285, 255.613
918.548, 21.451
919.812, 317.719
921.075, 123.980
922.338, 60.016
923.601, 236.266
924.864, 102.508
926.126, 188.533
927.388, 474.760
928.650, 80.584
929.912, 326.801
931.174, 200.658
932.435, 256.559
933.697, 352.760
934.958, 118.539
936.218, 294.723
937.479, 300.840
938.739, 176.896
940.000, 363.062
941.260, 29.002
942.520, 345.150
943.779, 220.969
945.039, 136.893
946.298, 203.082
947.557, 169.207
948.816, 155.482
950.074, 361.209
951.333, 87.123
952.591, 373.756
953.849, 239.842
955.107, 175.924
956.365, 351.572
957.622, 17.283
958.879, 263.512
960.136, 277.771
961.393, 93.832
962.650, 339.885
963.906, 15.936
965.162, 291.939
966.418, 248.338
967.674, 135.623
968.930, 361.264
970.185, 16.602
971.441, 99.395
972.696, 214.453
973.950, 29.619
975.205, 275.992
976.459, 202.086
977.714, 52.025
978.968, 190.977
980.222, 36.865
981.475, 2.738
982.729, 384.336
983.982, 20.213
985.235, 337.107
986.488, 133.312
987.740, 59.162
988.993, 258.992
990.245, 44.842
991.497, 190.803
992.749, 217.738
994.000, 46.400
995.252, 330.816
996.503, 3.363
997.754, 222.445
999.005, 224.725
1000.256, 240.568
1001.506, 406.674
1002.756, 132.492
1004.006, 238.342
1005.256, 327.865
1006.506, 103.705
1007.755, 359.531
1009.005, 216.258
1010.254, 2.068
1011.502, 377.775
1012.751, 74.311
1014.000, 370.102
1015.248, 177.076
1016.496, 152.861
1017.744, 438.645
1018.991, 246.484
1020.239, 282.246
1021.486, 545.359
1022.733, 222.137
1023.980, 644.619
1025.227, 221.803
1026.473, 287.777
1027.719, 503.482
1028.965, 320.039
1030.211, 604.377
1031.457, 670.506
1032.702, 216.613
1033.948, 672.242
1035.193, 275.479
1036.438, 491.117
1037.682, 516.799
1038.927, 353.057
1040.171, 598.188
1041.415, 524.459
1042.659, 481.264
1043.903, 682.764
1045.146, 670.238
1046.390, 785.518
1047.633, 971.883
1048.876, 1187.781
1050.118, 2383.344
1051.361, 3900.184
1052.603, 14476.848
1053.845, 30812.383
1055.087, 28279.148
1056.329, 13664.484
1057.571, 5209.982
1058.812, 2336.922
1060.053, 1712.105
1061.294, 1049.289
1062.535, 775.258
1063.775, 870.652
1065.016, 226.795
1066.256, 711.830
1067.496, 477.158
1068.736, 372.758
1069.975, 738.039
1071.214, 454.148
1072.454, 509.154
1073.693, 724.373
1074.931, 310.227
1076.170, 625.395
1077.408, 500.797
1078.647, 336.818
1079.885, 701.920
1081.122, 267.805
1082.360, 493.250
1083.597, 568.289
1084.835, 333.305
1086.072, 718.297
1087.308, 313.266
1088.545, 519.797
1089.781, 604.715
1091.018, 469.992
1092.254, 704.861
1093.490, 399.705
1094.725, 225.164
1095.961, 790.430
1097.196, 85.197
1098.431, 491.221
1099.666, 415.934
1100.900, 91.457
1102.135, 466.686
1103.369, 341.316
1104.603, 396.705
1105.837, 541.283
1107.071, 215.387
1108.304, 461.605
1109.538, 466.111
1110.771, 300.461
1112.004, 415.850
1113.236, 199.828
1114.469, 124.625
1115.701, 340.457
1116.933, 37.420
1118.165, 312.963
1119.397, 246.332
1120.629, 150.607
1121.860, 545.783
1123.091, 268.631
1124.322, 213.422
1125.553, 617.602
1126.783, 100.602
1128.014, 422.906
1129.244, 316.521
1130.474, 79.215
1131.704, 390.867
1132.933, 34.242
1134.163, 199.650
1135.392, 454.240
1136.621, 42.338
1137.850, 597.762
1139.079, 261.027
1140.307, 34.779
1141.535, 680.750
1142.763, 12.082
1143.991, 506.666
1145.219, 490.512
1146.446, 76.023
1147.674, 602.064
1148.901, 255.902
1150.128, 339.201
1151.354, 513.162
1152.581, 23.613
1153.807, 421.375
1155.033, 456.113
1156.259, 119.195
1157.485, 444.039
1158.710, 447.928
1159.936, 160.891
1161.161, 659.076
1162.386, 62.820
1163.611, 355.650
1164.835, 391.652
1166.060, 14.404
1167.284, 558.104
1168.508, 171.645
1169.732, 104.270
1170.955, 588.271
1172.179, 51.166
1173.402, 293.664
1174.625, 377.301
1175.848, 149.717
1177.070, 492.189
1178.293, 263.695
1179.515, 265.984
1180.737, 558.621
1181.959, 68.771
1183.181, 463.326
1184.402, 338.123
1185.624, 220.135
1186.845, 572.396
1188.066, 219.664
1189.286, 101.539
1190.507, 565.213
1191.727, 37.537
1192.947, 209.271
1194.167, 206.750
1195.387, 318.389
1196.607, 529.982
1197.826, 121.973
1199.045, 143.467
1200.264, 624.930
1201.483, 126.697
1202.702, 408.037
1203.920, 539.330
1205.138, 100.580
1206.356, 551.773
1207.574, 72.922
1208.792, 264.010
1210.009, 615.049
1211.227, 226.041
1212.444, 476.984
1213.661, 497.883
1214.877, 248.736
1216.094, 719.539
1217.310, 210.299
1218.526, 421.006
1219.742, 741.670
1220.958, 242.291
1222.173, 582.859
1223.389, 353.387
1224.604, 163.865
1225.819, 724.295
1227.034, 224.682
1228.248, 325.018
1229.463, 715.309
1230.677, 455.566
1231.891, 495.779
1233.105, 615.947
1234.318, 96.076
1235.532, 956.160
1236.745, 236.211
1237.958, 436.223
1239.171, 826.191
1240.384, 266.125
1241.596, 305.953
1242.809, 655.805
1244.021, 134.953
1245.233, 744.723
1246.444, 184.457
1247.656, 283.488
1248.867, 613.129
1250.079, 232.730
1251.290, 602.289
1252.500, 511.811
1253.711, 91.758
1254.921, 801.150
1256.132, 440.473
1257.342, 203.607
1258.552, 732.809
1259.761, 331.723
1260.971, 120.471
1262.180, 699.475
1263.389, 147.477
1264.598, 426.512
1265.807, 395.234
1267.015, 207.490
1268.223, 656.154
1269.432, 284.773
1270.640, 525.025
1271.847, 573.504
1273.055, 75.236
1274.262, 673.750
1275.470, 222.055
1276.677, 25.232
1277.883, 772.957
1279.090, 100.014
1280.296, 217.705
1281.503, 465.680
1282.709, 30.381
1283.915, 492.127
1285.120, 389.773
1286.326, 123.717
1287.531, 383.941
1288.736, 159.975
1289.941, 157.346
1291.146, 554.672
1292.350, 164.645
1293.555, 283.096
1294.759, 509.953
1295.963, 102.961
1297.167, 554.033
1298.370, 66.992
1299.574, 63.893
1300.777, 710.742
1301.980, 66.641
1303.183, 83.395
1304.386, 420.102
1305.588, 23.984
1306.790, 182.609
1307.993, 647.869
1309.195, 14.365
1310.396, 680.805
1311.598, 145.131
1312.799, 171.471
1314.000, 637.010
1315.201, 92.213
1316.402, 298.396
1317.603, 583.041
1318.803, 118.828
1320.003, 544.820
1321.203, 349.898
1322.403, 84.248
1323.603, 551.092
1324.802, 276.367
1326.002, 272.014
1327.201, 580.027
1328.400, 15.576
1329.599, 480.930
1330.797, 285.680
1331.995, 28.980
1333.194, 725.637
1334.392, 39.662
1335.589, 224.844
1336.787, 848.074
1337.985, 197.543
1339.182, 486.662
1340.379, 531.295
1341.576, 113.791
1342.772, 659.785
1343.969, 333.479
1345.165, 248.230
1346.361, 821.711
1347.557, 506.389
1348.753, 511.029
1349.949, 744.172
1351.144, 418.752
1352.339, 1101.551
1353.534, 665.463
1354.729, 629.963
1355.924, 1193.672
1357.118, 978.137
1358.312, 1112.586
1359.506, 1696.344
1360.700, 1000.773
1361.894, 1634.354
1363.088, 1779.025
1364.281, 1433.461
1365.474, 2077.193
1366.667, 1611.662
1367.860, 1255.904
1369.052, 2209.389
1370.245, 1524.199
1371.437, 1948.023
1372.629, 2592.340
1373.821, 1728.469
1375.013, 2753.316
1376.204, 2576.883
1377.395, 2152.148
1378.586, 2938.176
1379.777, 2314.914
1380.968, 2170.449
1382.159, 2365.730
1383.349, 1601.252
1384.539, 1497.145
1385.729, 1742.742
1386.919, 667.281
1388.109, 1343.578
1389.298, 988.771
1390.487, 632.869
1391.676, 1207.570
1392.865, 443.453
1394.054, 658.334
1395.242, 833.506
1396.431, 118.309
1397.619, 603.031
1398.807, 751.393
1399.995, 25.891
1401.182, 701.883
1402.370, 507.135
1403.557, 187.031
1404.744, 889.527
1405.931, 376.025
1407.118, 190.283
1408.304, 841.160
1409.490, 48.984
1410.676, 513.219
1411.862, 775.625
1413.048, 18.729
1414.234, 831.113
1415.419, 453.967
1416.604, 46.924
1417.789, 908.576
1418.974, 60.977
1420.159, 364.857
1421.343, 755.398
1422.528, 238.000
1423.712, 577.707
1424.896, 750.986
1426.079, 73.562
1427.263, 676.287
1428.446, 414.812
1429.629, 107.963
1430.812, 934.102
1431.995, 196.309
1433.178, 409.121
1434.360, 981.891
1435.543, 5.369
1436.725, 417.340
1437.907, 790.006
1439.088, 242.621
1440.270, 725.188
1441.451, 417.699
1442.632, 420.154
1443.813, 782.553
1444.994, 344.887
1446.175, 577.137
1447.355, 1009.291
1448.535, 221.344
1449.715, 813.246
1450.895, 1045.020
1452.075, 286.652
1453.255, 1228.150
1454.434, 809.506
1455.613, 660.725
1456.792, 1451.785
1457.971, 901.322
1459.149, 973.092
1460.328, 1663.996
1461.506, 774.428
1462.684, 1555.338
1463.862, 1536.385
1465.040, 837.684
1466.217, 1853.842
1467.395, 1473.355
1468.572, 1262.945
1469.749, 2104.150
1470.925, 1285.473
1472.102, 1312.318
1473.278, 2293.738
1474.455, 965.217
1475.631, 1697.305
1476.807, 1897.391
1477.982, 1109.324
1479.158, 1821.205
1480.333, 1833.037
1481.508, 1064.822
1482.683, 2076.564
1483.858, 1358.275
1485.033, 1039.973
1486.207, 1821.672
1487.381, 823.395
1488.555, 1165.420
1489.729, 1627.746
1490.903, 420.426
1492.076, 1183.600
1493.250, 1337.205
1494.423, 401.066
1495.596, 1135.996
1496.769, 861.266
1497.941, 107.020
1499.114, 1183.221
1500.286, 389.973
1501.458, 227.404
1502.630, 1195.672
1503.802, 15.076
1504.973, 335.293
1506.145, 716.930
1507.316, 179.959
1508.487, 694.627
1509.657, 491.311
1510.828, 5.191
1511.999, 936.184
1513.169, 640.314
1514.339, 2.766
1515.509, 944.914
1516.678, 0.000
##END=



