##NAMES=Cerussite
##RRUFFID=R050174
##IDEAL CHEMISTRY=Pb^2+^CO_3_
##LOCALITY=Tsumeb mine, Tsumeb, Otavi District, Oshikoto, Namibia
##OWNER=RRUFF
##SOURCE=Marcus Origlieri
##DESCRIPTION=Colorless single crystal
##STATUS=The identification of this mineral has been confirmed by X-ray diffraction and chemical analysis
##URL=rruff.info/R050174
##MEASURED CHEMISTRY=Pb_1.00_CO_3_ ; C not measured but estimated by difference and stoichiometry
##PIN_ID=L01652
##ORIENTATION=Laser parallel to -b* (0 -1 0). Fiducial mark perpendicular to laser is parallel to c [0 0 1]
51.43100, 0.0000000E+00
52.67100, 24.97455
53.91000, 55.51074
55.14900, 95.35892
56.38700, 92.94812
57.62600, 33.25159
58.86400, 9.610077
60.10300, 29.39648
61.34100, 25.84729
62.57900, 23.14282
63.81700, 88.73639
65.05400, 191.7190
66.29200, 327.9207
67.52900, 465.9919
68.76700, 640.1320
70.00400, 824.6204
71.24100, 1033.720
72.47700, 1270.744
73.71400, 1499.514
74.95100, 1723.875
76.18700, 1886.690
77.42300, 1931.840
78.65900, 2001.218
79.89500, 2030.732
81.13100, 2185.299
82.36700, 2362.849
83.60200, 2596.319
84.83700, 2952.666
86.07200, 3463.849
87.30800, 4001.825
88.54200, 4886.557
89.77700, 5723.985
91.01200, 6929.042
92.24600, 8123.678
93.48000, 9318.846
94.71400, 10345.52
95.94800, 11419.66
97.18200, 12280.24
98.41600, 13550.25
99.64900, 15543.65
100.8830, 17794.43
102.1160, 20380.57
103.3490, 23610.06
104.5820, 26140.88
105.8150, 26892.02
107.0470, 25765.47
108.2800, 23283.21
109.5120, 19356.22
110.7440, 15614.51
111.9760, 12459.08
113.2080, 9981.915
114.4400, 8224.019
115.6710, 6918.453
116.9030, 6090.187
118.1340, 5461.291
119.3650, 5231.668
120.5960, 4839.312
121.8270, 4872.219
123.0580, 4816.387
124.2880, 5041.840
125.5190, 5259.457
126.7490, 5518.046
127.9790, 5950.617
129.2090, 6437.189
130.4390, 7001.778
131.6680, 7589.403
132.8980, 8267.057
134.1270, 8582.786
135.3560, 8918.620
136.5850, 9009.544
137.8140, 8898.535
139.0430, 8776.598
140.2710, 8650.760
141.5000, 8646.993
142.7280, 8487.313
143.9560, 8600.727
145.1840, 8554.228
146.4120, 8912.811
147.6390, 9107.488
148.8670, 9223.271
150.0940, 9498.142
151.3210, 9326.086
152.5490, 9309.112
153.7750, 8789.219
155.0020, 8243.410
156.2290, 7502.690
157.4550, 6824.055
158.6810, 6152.496
159.9080, 5572.010
161.1340, 5044.597
162.3590, 4509.253
163.5850, 4144.993
164.8110, 3793.978
166.0360, 3483.674
167.2610, 3307.729
168.4860, 3065.727
169.7110, 2926.976
170.9360, 2887.235
172.1610, 2857.755
173.3850, 2829.451
174.6100, 2787.933
175.8340, 2806.257
177.0580, 2784.943
178.2820, 2853.911
179.5050, 2708.889
180.7290, 2651.317
181.9520, 2694.059
183.1760, 2617.031
184.3990, 2424.951
185.6220, 2161.051
186.8450, 2117.199
188.0670, 1915.183
189.2900, 1847.583
190.5120, 1632.199
191.7340, 1544.742
192.9560, 1431.019
194.1780, 1389.740
195.4000, 1410.409
196.6220, 1341.272
197.8430, 1359.676
199.0640, 1329.802
200.2860, 1312.639
201.5070, 1301.258
202.7270, 1335.921
203.9480, 1358.513
205.1690, 1365.033
206.3890, 1358.800
207.6090, 1384.186
208.8290, 1381.998
210.0490, 1425.954
211.2690, 1442.802
212.4890, 1474.874
213.7080, 1446.273
214.9280, 1563.951
216.1470, 1517.472
217.3660, 1498.424
218.5850, 1457.120
219.8030, 1385.309
221.0220, 1245.563
222.2400, 1161.113
223.4590, 1054.694
224.6770, 1012.544
225.8950, 959.3357
227.1120, 841.7231
228.3300, 811.6567
229.5480, 683.2540
230.7650, 623.3696
231.9820, 542.9843
233.1990, 599.4646
234.4160, 548.7716
235.6330, 493.1963
236.8490, 541.7332
238.0660, 469.4862
239.2820, 420.4990
240.4980, 394.2466
241.7140, 374.3882
242.9300, 382.2410
244.1460, 335.5903
245.3610, 328.4802
246.5770, 342.0564
247.7920, 260.5449
249.0070, 228.5696
250.2220, 296.0359
251.4370, 177.4673
252.6510, 225.6262
253.8660, 220.2875
255.0800, 230.3412
256.2940, 149.6331
257.5080, 161.0314
258.7220, 170.9347
259.9360, 213.4327
261.1490, 124.4963
262.3630, 150.9603
263.5760, 106.0544
264.7890, 136.8555
266.0020, 98.32068
267.2150, 76.73120
268.4270, 96.53040
269.6400, 69.05847
270.8520, 69.97534
272.0640, 106.5007
273.2760, 60.89587
274.4880, 53.26477
275.7000, 63.53503
276.9120, 82.26868
278.1230, 15.09265
279.3340, 52.73120
280.5450, 8.557129
281.7560, 40.10168
282.9670, 29.79688
284.1780, 35.48938
285.3880, 14.41333
286.5980, 12.51282
287.8090, 18.54065
289.0190, 9.155273
290.2290, 4.812744
291.4380, 18.62878
292.6480, 6.608398
293.8570, 18.79651
295.0670, 12.04382
296.2760, 22.71399
297.4850, 37.52307
298.6930, 11.24048
299.9020, 12.96838
301.1110, 4.198486
302.3190, 60.42603
303.5270, 44.61426
304.7350, 44.58154
305.9430, 5.730469
307.1510, 39.97070
308.3580, 24.21570
309.5660, 45.22998
310.7730, 22.48547
311.9800, 44.67554
313.1870, 65.94360
314.3940, 84.22510
315.6010, 39.42578
316.8070, 12.70410
318.0130, 6.914917
319.2200, 24.24036
320.4260, 19.57507
321.6310, 50.89209
322.8370, 2.255859
324.0430, 46.52136
325.2480, 15.73645
326.4540, 24.06030
327.6590, 20.43152
328.8640, 40.88342
330.0680, 18.40259
331.2730, 24.93567
332.4780, 26.48828
333.6820, 26.06494
334.8860, 30.82678
336.0900, 32.29547
337.2940, 38.95215
338.4980, 31.63873
339.7010, 40.19409
340.9050, 29.55835
342.1080, 13.26379
343.3110, 11.54047
344.5140, 8.338684
345.7170, 3.129211
346.9200, 22.91022
348.1220, 1.691101
349.3240, 36.46265
350.5270, 11.24170
351.7290, 36.01495
352.9310, 22.79602
354.1320, 10.58362
355.3340, 29.62341
356.5350, 41.83685
357.7370, 3.919800
358.9380, 4.708191
360.1390, 15.50543
361.3400, 19.08350
362.5400, 11.14954
363.7410, 1.003113
364.9410, 3.180237
366.1410, 24.31012
367.3410, 29.43866
368.5410, 24.56006
369.7410, 5.675232
370.9400, 2.114258
372.1400, 40.97626
373.3390, 19.05243
374.5380, 51.39948
375.7370, 25.45758
376.9360, 8.542358
378.1350, 14.57043
379.3330, 48.58179
380.5310, 14.58478
381.7300, 38.83606
382.9280, 32.88336
384.1260, 47.84320
385.3230, 10.84521
386.5210, 50.77136
387.7180, 7.313904
388.9160, 59.56750
390.1130, 32.50916
391.3100, 37.54187
392.5060, 66.37781
393.7030, 43.33710
394.9000, 47.14490
396.0960, 65.93689
397.2920, 44.04596
398.4880, 34.35962
399.6840, 67.09991
400.8800, 28.89398
402.0750, 44.74237
403.2710, 29.66437
404.4660, 43.45239
405.6610, 71.16095
406.8560, 46.07245
408.0510, 58.70813
409.2450, 84.37836
410.4400, 41.10645
411.6340, 64.80334
412.8280, 85.32904
414.0220, 62.83905
415.2160, 43.32983
416.4100, 48.22858
417.6030, 50.47839
418.7970, 55.18188
419.9900, 81.83472
421.1830, 78.33868
422.3760, 96.03186
423.5690, 47.54578
424.7610, 134.7716
425.9540, 96.07385
427.1460, 51.39679
428.3380, 82.65625
429.5300, 75.90869
430.7220, 77.97833
431.9140, 68.35327
433.1050, 85.63550
434.2970, 61.88531
435.4880, 84.79047
436.6790, 100.8315
437.8700, 121.7626
439.0610, 123.8680
440.2510, 127.9322
441.4420, 135.6691
442.6320, 109.3184
443.8220, 128.1127
445.0120, 143.0818
446.2020, 107.2922
447.3910, 88.33984
448.5810, 101.0551
449.7700, 144.9498
450.9600, 122.7670
452.1490, 90.06134
453.3370, 128.4792
454.5260, 103.8790
455.7150, 148.2101
456.9030, 129.4615
458.0910, 94.77722
459.2800, 102.1627
460.4670, 93.54193
461.6550, 111.0596
462.8430, 110.9296
464.0300, 102.9401
465.2180, 112.4491
466.4050, 91.02991
467.5920, 84.62079
468.7790, 91.59186
469.9650, 94.14624
471.1520, 99.94794
472.3380, 114.4183
473.5250, 117.0889
474.7110, 122.5424
475.8970, 134.7927
477.0820, 156.8961
478.2680, 126.7048
479.4540, 112.3624
480.6390, 123.5900
481.8240, 76.14862
483.0090, 119.1748
484.1940, 130.7150
485.3780, 112.1112
486.5630, 100.4926
487.7470, 121.9813
488.9320, 142.6783
490.1160, 114.2705
491.3000, 101.9332
492.4830, 139.6372
493.6670, 90.67865
494.8500, 118.2650
496.0340, 113.5543
497.2170, 87.44885
498.4000, 130.6772
499.5820, 77.89038
500.7650, 105.9669
501.9480, 109.9422
503.1300, 103.2388
504.3120, 127.2572
505.4940, 93.67249
506.6760, 67.72565
507.8580, 84.83716
509.0390, 74.76648
510.2210, 77.77368
511.4020, 91.61090
512.5830, 59.64227
513.7640, 71.12482
514.9450, 77.14471
516.1250, 45.57874
517.3060, 80.56732
518.4860, 65.12579
519.6660, 90.88318
520.8460, 74.89740
522.0260, 110.8284
523.2060, 43.70105
524.3850, 58.40668
525.5650, 75.92706
526.7440, 60.72998
527.9230, 76.18121
529.1020, 75.96088
530.2810, 79.28223
531.4590, 55.09839
532.6380, 45.26184
533.8160, 95.54340
534.9940, 48.31897
536.1720, 68.68024
537.3500, 70.10278
538.5270, 33.82281
539.7050, 22.06238
540.8820, 67.92896
542.0590, 52.57751
543.2360, 44.13855
544.4130, 36.21161
545.5900, 43.70520
546.7660, 48.64740
547.9430, 31.20215
549.1190, 52.13733
550.2950, 45.37537
551.4710, 38.95740
552.6470, 38.60059
553.8220, 55.86017
554.9980, 54.39563
556.1730, 58.54547
557.3480, 19.08923
558.5230, 40.76398
559.6980, 63.60754
560.8730, 26.41229
562.0470, 35.80969
563.2220, 21.06421
564.3960, 31.50513
565.5700, 53.87415
566.7440, 73.40503
567.9170, 42.84070
569.0910, 70.32440
570.2640, 45.05042
571.4380, 56.12427
572.6110, 27.15411
573.7840, 23.25128
574.9570, 33.71692
576.1290, 37.23541
577.3020, 41.28949
578.4740, 27.65155
579.6460, 21.96667
580.8180, 43.27209
581.9900, 24.56824
583.1620, 39.85852
584.3330, 54.11633
585.5040, 34.39008
586.6760, 28.65521
587.8470, 10.87463
589.0180, 32.86487
590.1880, 28.02960
591.3590, 29.27826
592.5290, 34.52374
593.7000, 40.53119
594.8700, 19.77142
596.0400, 46.93689
597.2090, 45.17419
598.3790, 24.41571
599.5490, 45.56494
600.7180, 39.76172
601.8870, 51.91693
603.0560, 50.15417
604.2250, 47.38867
605.3940, 51.58966
606.5620, 25.82373
607.7300, 48.93109
608.8990, 61.96991
610.0670, 35.09637
611.2350, 52.24725
612.4020, 49.44611
613.5700, 27.67542
614.7370, 10.90265
615.9050, 16.12830
617.0720, 37.35468
618.2390, 30.59528
619.4060, 44.37830
620.5720, 40.07703
621.7390, 55.31805
622.9050, 48.44916
624.0710, 42.69867
625.2370, 44.73499
626.4030, 43.12701
627.5690, 47.18280
628.7340, 50.51453
629.9000, 60.75946
631.0650, 73.00726
632.2300, 85.25342
633.3950, 80.50635
634.5600, 62.76025
635.7240, 60.02161
636.8890, 48.28717
638.0530, 39.55457
639.2170, 36.50403
640.3810, 33.11560
641.5450, 34.63806
642.7080, 36.90277
643.8720, 48.17163
645.0350, 56.44714
646.1980, 53.81616
647.3610, 30.97748
648.5240, 52.26331
649.6870, 42.54352
650.8490, 48.61646
652.0120, 15.10089
653.1740, 44.26965
654.3360, 41.54297
655.4980, 38.82166
656.6600, 50.81702
657.8210, 35.09161
658.9830, 31.32733
660.1440, 17.60327
661.3050, 62.88031
662.4660, 47.15424
663.6270, 39.19305
664.7870, 15.39294
665.9480, 34.66589
667.1080, 46.71570
668.2680, 117.1580
669.4280, 118.5345
670.5880, 150.8166
671.7480, 224.0248
672.9070, 332.1273
674.0670, 597.4099
675.2260, 875.5549
676.3850, 1002.841
677.5440, 857.1277
678.7030, 689.0818
679.8610, 728.8141
681.0200, 1109.101
682.1780, 2219.318
683.3360, 3380.460
684.4940, 3323.510
685.6520, 2292.672
686.8090, 1241.895
687.9670, 613.8990
689.1240, 313.1592
690.2810, 139.3667
691.4380, 97.50024
692.5950, 70.64423
693.7520, 19.94135
694.9080, 46.23718
696.0650, 50.53583
697.2210, 47.40790
698.3770, 3.375732
699.5330, 26.93329
700.6880, 1.989014
701.8440, 15.17566
702.9990, 16.15466
704.1550, 26.29602
705.3100, 2.389404
706.4650, 1.923828
707.6190, 1.801758
708.7740, 14.48633
709.9290, 0.1849370
711.0830, 22.12683
712.2370, 9.733276
713.3910, 10.63611
714.5450, 16.58667
715.6980, 33.85083
716.8520, 2.845337
718.0050, 41.33667
719.1580, 57.45227
720.3110, 28.76611
721.4640, 14.92432
722.6170, 42.22791
723.7700, 35.54199
724.9220, 34.80908
726.0740, 50.03149
727.2260, 62.01416
728.3780, 66.28198
729.5300, 61.68506
730.6810, 23.80103
731.8330, 37.26733
732.9840, 31.58606
734.1350, 12.75244
735.2860, 23.98169
736.4370, 27.24255
737.5880, 32.47241
738.7380, 34.79309
739.8880, 35.00427
741.0390, 38.48010
742.1890, 36.80884
743.3380, 36.13123
744.4880, 44.45410
745.6380, 30.79333
746.7870, 30.42554
747.9360, 15.84802
749.0850, 16.32947
750.2340, 27.58496
751.3830, 17.91711
752.5310, 19.22351
753.6800, 24.38110
754.8280, 9.855835
755.9760, 6.185181
757.1240, 7.588745
758.2720, 12.02222
759.4190, 53.35254
760.5670, 0.2905270
761.7140, 33.04102
762.8610, 18.60681
764.0080, 56.88879
765.1550, 1.214478
766.3020, 44.54016
767.4480, 44.89612
768.5950, 39.22266
769.7410, 31.54956
770.8870, 34.87683
772.0330, 48.20459
773.1780, 39.58752
774.3240, 29.91614
775.4690, 58.24500
776.6140, 70.76953
777.7590, 21.88403
778.9040, 9.747803
780.0490, 29.57996
781.1940, 48.90808
782.3380, 16.46375
783.4820, 73.18335
784.6260, 49.17517
785.7700, 64.50500
786.9140, 11.87598
788.0580, 35.23401
789.2010, 59.56494
790.3450, 42.85547
791.4880, 50.26294
792.6310, 50.59534
793.7730, 22.92810
794.9160, 45.30615
796.0590, 13.69214
797.2010, 12.02734
798.3430, 12.34021
799.4850, 28.67603
800.6270, 4.027222
801.7690, 18.36462
802.9100, 48.74438
804.0520, 28.10840
805.1930, 26.44751
806.3340, 2.909058
807.4750, 29.42957
808.6160, 27.80811
809.7560, 31.66016
810.8970, 42.00061
812.0370, 61.36646
813.1770, 55.55042
814.3170, 59.68225
815.4570, 52.03040
816.5960, 49.37354
817.7360, 56.71887
818.8750, 62.06494
820.0140, 98.44849
821.1530, 56.79480
822.2920, 130.1422
823.4310, 95.57068
824.5690, 198.9376
825.7070, 245.2867
826.8460, 215.6361
827.9840, 184.0486
829.1220, 245.3986
830.2590, 332.7526
831.3970, 455.1099
832.5340, 678.9011
833.6710, 749.8696
834.8080, 808.2208
835.9450, 1052.432
837.0820, 1640.782
838.2190, 2564.093
839.3550, 3531.443
840.4910, 3384.854
841.6270, 2510.218
842.7630, 1509.463
843.8990, 908.7676
845.0350, 518.0265
846.1700, 352.8115
847.3060, 245.0980
848.4410, 170.4479
849.5760, 130.4783
850.7100, 134.4741
851.8450, 86.86108
852.9800, 86.21069
854.1140, 48.45715
855.2480, 75.80627
856.3820, 51.15552
857.5160, 34.50415
858.6500, 25.85266
859.7830, 18.73352
860.9170, 47.54749
862.0500, 23.89429
863.1830, 41.24060
864.3160, 57.58752
865.4480, 5.936523
866.5810, 19.28479
867.7130, 3.367554
868.8460, 40.97754
869.9780, 28.32190
871.1100, 15.33398
872.2410, 30.00159
873.3730, 28.33801
874.5050, 18.67542
875.6360, 41.01941
876.7670, 18.36230
877.8980, 4.706543
879.0290, 34.04932
880.1590, 41.39685
881.2900, 0.7436520
882.4200, 5.895508
883.5500, 0.4992680
884.6800, 7.851074
885.8100, 7.199951
886.9400, 16.55286
888.0690, 27.90552
889.1990, 37.25684
890.3280, 4.383057
891.4570, 25.98010
892.5860, 17.66626
893.7140, 0.3057860
894.8430, 19.06360
895.9710, 12.43127
897.1000, 51.75708
898.2280, 14.12939
899.3560, 2.283691
900.4830, 31.08350
901.6110, 33.41895
902.7380, 11.79529
903.8660, 29.17053
904.9930, 25.54968
906.1200, 20.93030
907.2460, 21.31555
908.3730, 6.698975
909.5000, 20.09155
910.6260, 43.48206
911.7520, 2.124756
912.8780, 11.73560
914.0040, 11.65686
915.1290, 51.72913
916.2550, 25.12720
917.3800, 2.473267
918.5050, 5.074219
919.6300, 9.297729
920.7550, 42.70667
921.8800, 12.09839
923.0040, 15.49500
924.1290, 38.89160
925.2530, 24.28577
926.3770, 5.677734
927.5010, 26.06641
928.6250, 34.45264
929.7480, 12.83630
930.8720, 11.21704
931.9950, 43.59460
933.1180, 39.97827
934.2410, 33.36072
935.3640, 20.74548
936.4860, 48.10181
937.6090, 8.488647
938.7310, 18.87219
939.8530, 31.25269
940.9750, 1.369873
942.0970, 59.89868
943.2180, 16.26721
944.3400, 4.367676
945.4610, 37.98975
946.5820, 20.34399
947.7030, 20.30518
948.8240, 7.029419
949.9450, 25.35986
951.0650, 42.68689
952.1860, 45.01062
953.3060, 27.33093
954.4260, 18.64795
955.5460, 37.96118
956.6650, 43.27087
957.7850, 10.57715
958.9040, 23.87915
960.0230, 52.17749
961.1420, 32.47205
962.2610, 13.76306
963.3800, 31.04980
964.4990, 28.33289
965.6170, 27.61206
966.7350, 1.112671
967.8530, 3.845093
968.9710, 35.41284
970.0890, 56.66699
971.2070, 69.91772
972.3240, 27.16455
973.4410, 44.40747
974.5580, 16.64648
975.6750, 27.88074
976.7920, 66.11230
977.9090, 48.34033
979.0250, 43.56445
980.1410, 77.78467
981.2580, 39.00330
982.3740, 40.21790
983.4890, 51.42822
984.6050, 54.63574
985.7200, 22.84045
986.8360, 45.04053
987.9510, 37.24170
989.0660, 51.46851
990.1810, 53.88281
991.2950, 51.28235
992.4100, 56.01660
993.5240, 51.20203
994.6390, 48.37097
995.7530, 55.59314
996.8660, 37.75281
997.9800, 57.91345
999.0940, 64.67590
1000.207, 33.78027
1001.320, 36.92078
1002.433, 54.89563
1003.546, 96.05981
1004.659, 81.20288
1005.772, 61.47339
1006.884, 47.99402
1007.996, 65.45239
1009.108, 39.30542
1010.220, 81.40991
1011.332, 70.06421
1012.444, 77.10889
1013.555, 86.51270
1014.666, 49.67603
1015.777, 36.44604
1016.888, 27.60828
1017.999, 66.95593
1019.110, 57.04431
1020.220, 43.28003
1021.331, 112.5710
1022.441, 74.63074
1023.551, 51.82397
1024.661, 99.04480
1025.770, 105.3649
1026.880, 139.9014
1027.989, 123.8093
1029.098, 160.8148
1030.207, 166.6292
1031.316, 293.6221
1032.425, 404.5885
1033.533, 418.4067
1034.642, 319.9614
1035.750, 273.1777
1036.858, 254.2555
1037.966, 206.4244
1039.073, 282.1309
1040.181, 268.5048
1041.288, 404.4424
1042.396, 477.9729
1043.503, 522.8966
1044.610, 725.8079
1045.716, 1049.522
1046.823, 1786.491
1047.929, 3559.553
1049.036, 6898.389
1050.142, 10257.02
1051.248, 9678.521
1052.353, 10978.00
1053.459, 18185.60
1054.564, 41110.91
1055.670, 64321.40
1056.775, 62971.71
1057.880, 39385.54
1058.985, 18043.36
1060.089, 7494.098
1061.194, 3219.904
1062.298, 1718.702
1063.402, 1030.449
1064.506, 753.1812
1065.610, 541.9528
1066.713, 435.9104
1067.817, 335.7733
1068.920, 262.4185
1070.023, 253.8781
1071.126, 244.5448
1072.229, 169.2473
1073.332, 196.9670
1074.435, 174.3749
1075.537, 117.0792
1076.639, 182.7358
1077.741, 118.9119
1078.843, 108.5924
1079.945, 109.2397
1081.046, 98.36987
1082.148, 109.9285
1083.249, 124.5710
1084.350, 105.2122
1085.451, 115.8458
1086.551, 96.47095
1087.652, 102.0513
1088.752, 104.6615
1089.853, 102.2640
1090.953, 98.77820
1092.053, 108.3467
1093.152, 84.92615
1094.252, 93.49792
1095.351, 128.9990
1096.451, 123.5557
1097.550, 108.1012
1098.649, 143.6354
1099.748, 129.7280
1100.846, 87.63550
1101.945, 155.1544
1103.043, 107.6659
1104.141, 88.16980
1105.239, 96.65393
1106.337, 102.1432
1107.434, 82.56738
1108.532, 73.31067
1109.629, 78.78296
1110.726, 78.24304
1111.823, 78.69568
1112.920, 82.36597
1114.017, 55.57935
1115.113, 77.01013
1116.210, 74.43384
1117.306, 48.85059
1118.402, 115.2231
1119.498, 45.62549
1120.593, 38.02075
1121.689, 92.40869
1122.784, 72.78955
1123.879, 56.16333
1124.974, 41.53027
1126.069, 70.89014
1127.164, 31.24292
1128.259, 56.58850
1129.353, 40.92725
1130.447, 9.258911
1131.541, 74.57837
1132.635, 60.89136
1133.729, 37.19763
1134.822, 31.49792
1135.916, 34.79138
1137.009, 43.07800
1138.102, 12.36182
1139.195, 13.63538
1140.288, 12.10083
1141.380, 35.14136
1142.473, 7.377075
1143.565, 33.60120
1144.657, 6.180786
1145.749, 21.01929
1146.841, 13.78796
1147.932, 9.375610
1149.024, 9.493286
1150.115, 19.64722
1151.206, 6.205566
1152.297, 11.92493
1153.388, 24.04700
1154.479, 21.83679
1155.569, 10.74536
1156.659, 8.671143
1157.750, 45.61426
1158.839, 30.41077
1159.929, 34.43103
1161.019, 18.55432
1162.108, 37.43896
1163.198, 34.42688
1164.287, 19.40955
1165.376, 15.61218
1166.465, 10.65295
1167.553, 8.289795
1168.642, 10.77393
1169.730, 3.853760
1170.818, 14.94543
1171.906, 32.94531
1172.994, 35.16858
1174.082, 27.68994
1175.170, 9.455933
1176.257, 14.38452
1177.344, 39.77856
1178.431, 2.032959
1179.518, 26.16223
1180.605, 7.378906
1181.691, 9.606689
1182.778, 5.154663
1183.864, 3.086670
1184.950, 20.33301
1186.036, 24.59595
1187.122, 5.877686
1188.207, 22.83215
1189.292, 58.53857
1190.378, 14.24194
1191.463, 7.942261
1192.548, 27.63940
1193.632, 25.33362
1194.717, 15.82703
1195.801, 33.28601
1196.886, 3.617676
1197.970, 19.95435
1199.054, 17.30408
1200.137, 14.66504
1201.221, 13.96460
1202.305, 13.85620
1203.388, 35.21729
1204.471, 22.84045
1205.554, 45.46289
1206.637, 31.08325
1207.719, 28.70178
1208.802, 29.32080
1209.884, 33.93799
1210.966, 37.51941
1212.048, 40.17395
1213.130, 43.79333
1214.212, 46.41125
1215.293, 35.06995
1216.374, 35.68115
1217.456, 42.25732
1218.536, 25.87036
1219.617, 50.48254
1220.698, 49.09363
1221.778, 38.70447
1222.859, 7.314453
1223.939, 21.92371
1225.019, 27.53247
1226.099, 35.14087
1227.178, 49.74902
1228.258, 51.35681
1229.337, 43.96460
1230.417, 47.57410
1231.496, 36.06665
1232.574, 47.79907
1233.653, 18.41187
1234.732, 23.02478
1235.810, 24.63831
1236.888, 59.25220
1237.966, 14.13318
1239.044, 0.4793700
1240.122, 39.09253
1241.199, 64.70654
1242.277, 82.32153
1243.354, 40.93762
1244.431, 25.55469
1245.508, 40.17322
1246.585, 74.79309
1247.661, 75.41479
1248.738, 132.0382
1249.814, 48.65784
1250.890, 95.24951
1251.966, 38.87854
1253.042, 87.50940
1254.117, 75.14233
1255.193, 111.7654
1256.268, 106.4028
1257.343, 114.9847
1258.418, 126.6272
1259.493, 104.2670
1260.567, 115.3032
1261.642, 104.9546
1262.716, 132.6089
1263.790, 139.2545
1264.864, 144.8820
1265.938, 185.5288
1267.011, 168.1963
1268.085, 132.4629
1269.158, 167.7905
1270.231, 155.7219
1271.304, 181.4011
1272.377, 176.5294
1273.450, 213.2157
1274.522, 207.5927
1275.594, 212.2095
1276.666, 203.1483
1277.738, 248.4568
1278.810, 190.7904
1279.882, 230.4398
1280.953, 230.9385
1282.025, 218.4203
1283.096, 272.1378
1284.167, 263.7222
1285.238, 278.0259
1286.308, 265.4839
1287.379, 276.8049
1288.449, 238.4156
1289.519, 291.1902
1290.589, 288.1304
1291.659, 272.9191
1292.729, 313.7152
1293.798, 267.5168
1294.868, 294.7538
1295.937, 281.3303
1297.006, 326.0183
1298.075, 351.6470
1299.143, 317.7399
1300.212, 371.1672
1301.280, 366.0328
1302.348, 328.2531
1303.416, 401.1372
1304.484, 414.0364
1305.552, 386.9397
1306.620, 421.0026
1307.687, 406.7209
1308.754, 456.7074
1309.821, 425.9122
1310.888, 502.0134
1311.955, 514.9766
1313.021, 500.5616
1314.088, 511.1010
1315.154, 578.4105
1316.220, 524.9333
1317.286, 562.9617
1318.352, 587.0015
1319.417, 514.0524
1320.483, 559.1154
1321.548, 602.1882
1322.613, 578.2690
1323.678, 557.3579
1324.743, 651.4584
1325.807, 603.3735
1326.872, 624.3843
1327.936, 558.5986
1329.000, 596.0149
1330.064, 607.1558
1331.128, 665.3059
1332.191, 655.4655
1333.255, 645.6344
1334.318, 651.8130
1335.381, 734.0011
1336.444, 673.1995
1337.507, 656.4077
1338.569, 729.6260
1339.632, 703.8545
1340.694, 793.0935
1341.756, 755.3428
1342.818, 745.6027
1343.880, 793.8733
1344.941, 824.1547
1346.003, 861.4475
1347.064, 924.7512
1348.125, 938.0663
1349.186, 1054.392
1350.247, 1086.731
1351.308, 1194.080
1352.368, 1366.442
1353.428, 1404.815
1354.489, 1501.201
1355.549, 1631.599
1356.608, 1852.009
1357.668, 2020.431
1358.727, 2116.866
1359.787, 2339.314
1360.846, 2518.776
1361.905, 2766.249
1362.964, 3023.736
1364.022, 3210.236
1365.081, 3462.750
1366.139, 3824.997
1367.197, 4103.532
1368.255, 4392.086
1369.313, 4940.656
1370.371, 5390.238
1371.428, 6096.835
1372.486, 6653.446
1373.543, 7361.070
1374.600, 7977.799
1375.657, 8430.451
1376.713, 8732.122
1377.770, 8835.806
1378.826, 8703.506
1379.882, 8268.213
1380.938, 7662.944
1381.994, 6891.686
1383.050, 6253.445
1384.106, 5427.216
1385.161, 4641.016
1386.216, 4039.879
1387.271, 3578.785
1388.326, 3107.622
1389.381, 2740.475
1390.435, 2357.353
1391.490, 2085.238
1392.544, 1816.140
1393.598, 1653.058
1394.652, 1435.994
1395.705, 1310.948
1396.759, 1167.922
1397.812, 1056.921
1398.866, 1031.938
1399.919, 934.9750
1400.972, 875.6326
1402.024, 835.1106
1403.077, 771.2098
1404.129, 744.3359
1405.181, 735.4832
1406.233, 699.6519
1407.285, 669.8405
1408.337, 723.0549
1409.389, 647.2906
1410.440, 641.5471
1411.491, 667.8323
1412.542, 717.1907
1413.593, 632.5304
1414.644, 676.9075
1415.695, 719.3068
1416.745, 716.7281
1417.795, 663.1775
1418.845, 667.6499
1419.895, 668.5852
1420.945, 685.2969
1421.995, 708.8483
1423.044, 672.6313
1424.093, 725.3512
1425.142, 689.9912
1426.191, 654.6614
1427.240, 807.3650
1428.289, 640.0964
1429.337, 721.8679
1430.385, 653.6665
1431.433, 587.4996
1432.481, 605.3630
1433.529, 569.2705
1434.577, 596.2239
1435.624, 492.0928
1436.672, 486.0653
1437.719, 433.0725
1438.766, 440.4504
1439.812, 409.5205
1440.859, 337.6637
1441.905, 343.7197
1442.952, 317.8151
1443.998, 330.8433
1445.044, 319.8755
1446.090, 279.0297
1447.135, 233.7361
1448.181, 231.0322
1449.226, 199.3590
1450.271, 161.7247
1451.316, 216.1312
1452.361, 152.5643
1453.405, 220.0211
1454.450, 176.5015
1455.494, 207.0059
1456.538, 181.5343
1457.582, 179.0873
1458.626, 192.6648
1459.670, 147.2672
1460.713, 147.8948
1461.757, 167.5475
1462.800, 148.2257
1463.843, 154.9296
1464.886, 85.65955
1465.928, 131.4153
1466.971, 147.1975
1468.013, 199.0063
1469.055, 147.8417
1470.097, 192.7078
1471.139, 102.6011
1472.181, 189.5216
1473.222, 125.4696
1474.263, 106.4442
1475.305, 157.4465
1476.346, 124.4768
1477.386, 85.53540
1478.427, 120.6222
1479.468, 116.7369
1480.508, 78.87866
1481.548, 52.04883
1482.588, 80.24792
1483.628, 25.47595
1484.668, 121.7332
1485.707, 79.01917
1486.747, 98.33423
1487.786, 112.6780
1488.825, 76.05017
1489.864, 33.45093
1490.902, 71.87976
1491.941, 62.33643
1492.979, 24.81982
1494.017, 71.32983
1495.055, 43.86609
1496.093, 53.42358
1497.131, 18.00159
1498.168, 39.59973
1499.206, 9.779907
1500.243, 18.86279
1501.280, 50.52637
1502.317, 31.20972
1503.354, 30.91125
1504.390, 24.61523
1505.426, 21.26624
1506.463, 19.49231
1507.499, 15.80237
1508.535, 14.56018
1509.570, 1.664307
1510.606, 6.846558
1511.641, 8.982178
1512.676, 15.92871
1513.711, 28.88660
1514.746, 1.108154
1515.781, 72.94543
1516.816, 87.04773
1517.850, 66.19922
1518.884, 38.40088
1519.918, 52.65271
1520.952, 68.95557
1521.986, 87.31018
1523.019, 76.71716
1524.053, 55.17688
1525.086, 15.69055
1526.119, 55.25842
1527.152, 119.8815
1528.185, 38.56079
1529.217, 76.29724
1530.250, 15.09180
1531.282, 44.94556
1532.314, 49.86011
1533.346, 22.83679
1534.377, 64.87817
1535.409, 59.68323
1536.440, 3.146606
1537.472, 61.09741
1538.503, 30.42029
1539.534, 11.82800
1540.564, 56.28101
1541.595, 50.25684
1542.625, 41.92700
1543.656, 18.34180
1544.686, 59.53064
1545.716, 57.50989
1546.745, 5.400024
1547.775, 2.195068
1548.804, 6.129639
1549.834, 6.579834
1550.863, 77.16125
1551.892, 64.88110
1552.920, 58.74695
1553.949, 86.45898
1554.977, 72.64844
1556.006, 40.01489
1557.034, 59.62451
1558.062, 15.40674
1559.089, 6.169800
1560.117, 47.01050
1561.144, 58.40015
1562.172, 8.790405
1563.199, 78.14612
1564.226, 40.26794
1565.252, 44.35864
1566.279, 34.22559
1567.305, 51.04492
1568.332, 20.97827
1569.358, 0.6252440
1570.384, 0.0000000E+00
##END=



