##NAMES=Chabazite-Ca
##RRUFFID=R050075
##IDEAL CHEMISTRY=Ca_2_Al_4_Si_8_O_24_&#183;13H_2_O
##LOCALITY=Victoria, Australia
##OWNER=RRUFF
##SOURCE=Rock Currier
##DESCRIPTION=White pseudohexagonal crystals
##STATUS=The identification of this mineral has been confirmed by X-ray diffraction and chemical analysis
##URL=rruff.info/R050075
##MEASURED CHEMISTRY=(Ca_0.79_Na_0.22_K_0.14_)_Σ=1.15_(Si_4.08_Al_1.92_)O_12_·6H_2_O
##PIN_ID=L00465
##ORIENTATION=Laser parallel to a* (1 0 0). Fiducial mark perpendicular to laser is parallel to c [0 0 1]
237.805, 0.000
239.175, 1.588
240.545, 326.875
241.916, 117.516
243.286, 273.514
244.655, 370.748
246.025, 111.451
247.394, 535.213
248.763, 120.045
250.132, 438.082
251.501, 125.969
252.869, 302.875
254.237, 283.637
255.605, 146.002
256.973, 360.822
258.340, 12.434
259.708, 327.846
261.075, 184.004
262.442, 201.867
263.808, 290.377
265.175, 5.496
266.541, 131.188
267.907, 55.574
269.273, 207.178
270.639, 77.420
272.004, 145.875
273.369, 388.271
274.734, 51.166
276.099, 413.793
277.463, 152.129
278.828, 212.824
280.192, 463.859
281.556, 363.213
282.919, 671.863
284.283, 412.801
285.646, 585.996
287.009, 606.441
288.372, 706.121
289.734, 960.027
291.097, 715.162
292.459, 967.527
293.821, 968.119
295.183, 1135.941
296.544, 1164.980
297.905, 1012.232
299.266, 1422.684
300.627, 922.330
301.988, 1306.156
303.348, 1244.160
304.709, 1335.330
306.069, 1495.660
307.428, 1415.146
308.788, 1893.781
310.147, 1687.557
311.507, 2022.473
312.865, 2038.521
314.224, 2124.699
315.583, 2680.000
316.941, 2407.422
318.299, 3056.963
319.657, 3085.629
321.015, 3441.383
322.372, 3669.215
323.729, 3649.117
325.086, 4226.102
326.443, 4066.154
327.800, 4570.238
329.156, 4439.461
330.512, 4558.686
331.868, 4775.957
333.224, 4660.250
334.579, 4853.535
335.935, 4597.949
337.290, 4605.307
338.645, 4502.771
339.999, 4076.406
341.354, 4219.152
342.708, 3602.139
344.062, 3574.234
345.416, 3448.439
346.769, 2957.805
348.123, 3151.379
349.476, 2614.098
350.829, 2666.910
352.182, 2195.822
353.534, 2286.783
354.887, 2039.797
356.239, 1750.852
357.591, 1903.945
358.942, 1451.080
360.294, 1736.248
361.645, 1314.449
362.996, 1419.680
364.347, 1557.943
365.698, 1110.234
367.048, 1273.559
368.398, 981.914
369.748, 1205.297
371.098, 1152.713
372.448, 843.158
373.797, 1175.629
375.146, 870.133
376.495, 1180.666
377.844, 1048.234
379.192, 949.828
380.540, 1093.457
381.889, 901.115
383.236, 1247.807
384.584, 1012.525
385.932, 1109.273
387.279, 1266.049
388.626, 1200.854
389.973, 1495.686
391.319, 1071.547
392.666, 1499.436
394.012, 1505.355
395.358, 1475.301
396.704, 1749.273
398.049, 1564.275
399.394, 1697.303
400.740, 1551.293
402.084, 1855.111
403.429, 2052.184
404.774, 1981.846
406.118, 2249.500
407.462, 2004.984
408.806, 2327.252
410.150, 2514.459
411.493, 2466.186
412.836, 2849.086
414.179, 2811.498
415.522, 3183.203
416.865, 3197.883
418.207, 3503.982
419.549, 4016.350
420.891, 3959.820
422.233, 4706.832
423.575, 4798.090
424.916, 5252.564
426.257, 5909.570
427.598, 5995.865
428.939, 7044.828
430.279, 7403.178
431.619, 8199.096
432.959, 8862.199
434.299, 9517.393
435.639, 10898.025
436.978, 11294.570
438.318, 12664.678
439.657, 13817.496
440.996, 14921.945
442.334, 16419.541
443.673, 16959.457
445.011, 18818.416
446.349, 19127.621
447.687, 21354.018
449.024, 22286.332
450.361, 23345.625
451.699, 24914.771
453.036, 25340.119
454.372, 26609.482
455.709, 27197.855
457.045, 27879.854
458.381, 28869.506
459.717, 28563.891
461.053, 29891.525
462.388, 29678.910
463.724, 30457.156
465.059, 30633.855
466.394, 30843.109
467.728, 32430.631
469.063, 32424.094
470.397, 33926.426
471.731, 34429.508
473.065, 34854.887
474.398, 36998.453
475.732, 36835.613
477.065, 38694.055
478.398, 38649.133
479.731, 38347.625
481.063, 38943.109
482.396, 37004.629
483.728, 36359.168
485.060, 35268.719
486.391, 32843.289
487.723, 31404.875
489.054, 28681.477
490.385, 27041.100
491.716, 24346.730
493.047, 22735.379
494.377, 20601.041
495.708, 18482.721
497.038, 17505.410
498.368, 15235.117
499.697, 13941.838
501.027, 12757.570
502.356, 11458.316
503.685, 10463.139
505.014, 9225.855
506.342, 8608.641
507.671, 7737.438
508.999, 7034.246
510.327, 6585.061
511.655, 5507.891
512.982, 5382.730
514.310, 4822.135
515.637, 4336.992
516.964, 4126.857
518.291, 3419.076
519.617, 3543.959
520.944, 3209.162
522.270, 2834.131
523.596, 2675.430
524.921, 2496.580
526.247, 2385.592
527.572, 1998.615
528.897, 1982.682
530.222, 2019.754
531.547, 1518.852
532.871, 1739.953
534.196, 1369.086
535.520, 1578.227
536.844, 1221.385
538.167, 1263.557
539.491, 1248.764
540.814, 977.996
542.137, 917.230
543.460, 858.467
544.783, 714.707
546.105, 765.965
547.427, 634.260
548.749, 717.561
550.071, 454.861
551.393, 251.162
552.714, 547.488
554.035, 306.822
555.356, 432.160
556.677, 218.510
557.998, 358.869
559.318, 380.229
560.638, 130.596
561.958, 328.967
563.278, 110.340
564.597, 137.717
565.917, 184.156
567.236, 8.598
568.555, 238.078
569.874, 72.441
571.192, 179.012
572.511, 52.477
573.829, 56.957
575.147, 221.469
576.464, 137.990
577.782, 187.506
579.099, 5.020
580.416, 49.453
581.733, 182.049
583.050, 102.555
584.366, 45.059
585.683, 204.561
586.999, 6.072
588.315, 164.574
589.630, 131.906
590.946, 9.543
592.261, 19.016
593.576, 18.555
594.891, 105.896
596.206, 204.648
597.520, 31.691
598.834, 62.980
600.148, 28.701
601.462, 52.553
602.776, 225.205
604.089, 10.902
605.402, 37.008
606.715, 33.953
608.028, 29.064
609.341, 108.934
610.653, 38.994
611.965, 141.098
613.277, 108.283
614.589, 19.549
615.901, 93.850
617.212, 5.225
618.523, 32.373
619.834, 102.051
621.145, 143.447
622.456, 25.072
623.766, 162.363
625.076, 102.783
626.386, 1.184
627.696, 185.551
629.006, 11.900
630.315, 273.223
631.624, 128.525
632.933, 13.807
634.242, 201.061
635.551, 28.291
636.859, 220.498
638.167, 250.686
639.475, 308.848
640.783, 273.990
642.090, 239.111
643.398, 488.211
644.705, 442.287
646.012, 429.340
647.318, 598.369
648.625, 352.375
649.931, 478.357
651.237, 510.314
652.543, 484.248
653.849, 620.160
655.155, 468.045
656.460, 670.906
657.765, 381.000
659.070, 384.811
660.375, 327.107
661.679, 395.557
662.984, 428.430
664.288, 286.109
665.592, 384.375
666.895, 403.375
668.199, 287.420
669.502, 365.744
670.805, 90.314
672.108, 226.434
673.411, 362.889
674.713, 147.512
676.016, 370.686
677.318, 168.244
678.620, 230.111
679.921, 166.424
681.223, 221.172
682.524, 346.031
683.825, 403.500
685.126, 550.865
686.427, 537.025
687.727, 548.982
689.028, 503.254
690.328, 463.062
691.628, 422.547
692.927, 349.221
694.227, 383.520
695.526, 421.410
696.825, 514.992
698.124, 504.203
699.423, 682.996
700.721, 500.230
702.020, 764.768
703.318, 621.271
704.616, 690.910
705.913, 811.525
707.211, 559.006
708.508, 830.686
709.805, 700.256
711.102, 866.756
712.399, 743.012
713.695, 733.076
714.992, 899.186
716.288, 674.131
717.584, 867.252
718.879, 784.330
720.175, 683.434
721.470, 770.904
722.765, 781.693
724.060, 790.021
725.355, 793.219
726.649, 612.576
727.944, 803.818
729.238, 532.900
730.532, 791.297
731.825, 723.047
733.119, 798.096
734.412, 757.445
735.705, 539.480
736.998, 833.334
738.291, 662.307
739.584, 687.242
740.876, 799.328
742.168, 663.676
743.460, 706.033
744.752, 970.004
746.043, 737.986
747.334, 794.881
748.626, 837.715
749.916, 716.727
751.207, 959.717
752.498, 700.514
753.788, 940.891
755.078, 1007.992
756.368, 894.857
757.658, 1071.916
758.947, 888.828
760.237, 1013.004
761.526, 1103.391
762.815, 979.449
764.104, 1103.814
765.392, 1152.043
766.680, 1148.049
767.969, 1194.580
769.257, 1032.525
770.544, 1146.006
771.832, 906.727
773.119, 1109.621
774.406, 1054.447
775.693, 1182.939
776.980, 1090.930
778.267, 1267.445
779.553, 1062.393
780.839, 1286.049
782.125, 1220.742
783.411, 1368.549
784.697, 1433.568
785.982, 1331.279
787.267, 1488.770
788.552, 1308.645
789.837, 1430.217
791.122, 1416.127
792.406, 1497.604
793.690, 1415.033
794.974, 1155.416
796.258, 1302.752
797.542, 1077.043
798.825, 1189.285
800.108, 1177.479
801.391, 945.631
802.674, 1030.730
803.957, 803.787
805.239, 602.793
806.522, 673.754
807.804, 544.668
809.085, 461.533
810.367, 409.355
811.649, 289.129
812.930, 421.850
814.211, 59.527
815.492, 186.145
816.772, 316.709
818.053, 117.223
819.333, 209.684
820.613, 266.092
821.893, 64.451
823.173, 175.750
824.452, 109.994
825.732, 52.625
827.011, 121.754
828.290, 91.826
829.568, 173.504
830.847, 41.533
832.125, 19.041
833.403, 55.207
834.681, 94.857
835.959, 49.555
837.236, 24.051
838.514, 91.520
839.791, 88.783
841.068, 38.967
842.345, 103.186
843.621, 54.719
844.898, 54.270
846.174, 22.797
847.450, 1.953
848.726, 76.184
850.001, 40.533
851.277, 57.025
852.552, 103.525
853.827, 46.971
855.102, 12.639
856.376, 108.928
857.651, 19.471
858.925, 93.227
860.199, 115.291
861.473, 68.994
862.746, 12.988
864.020, 12.793
865.293, 18.428
866.566, 16.725
867.839, 135.898
869.112, 33.527
870.384, 109.963
871.656, 11.404
872.928, 89.783
874.200, 206.889
875.472, 13.268
876.744, 115.633
878.015, 46.340
879.286, 133.264
880.557, 3.844
881.828, 20.018
883.098, 90.260
884.369, 80.441
885.639, 48.064
886.909, 29.568
888.178, 109.854
889.448, 110.234
890.717, 178.578
891.987, 172.879
893.256, 76.139
894.524, 50.354
895.793, 177.520
897.061, 109.648
898.330, 135.732
899.598, 25.811
900.865, 259.840
902.133, 18.156
903.401, 362.795
904.668, 138.711
905.935, 67.645
907.202, 221.535
908.468, 240.410
909.735, 116.260
911.001, 139.074
912.267, 265.914
913.533, 153.723
914.799, 250.506
916.064, 178.270
917.330, 12.000
918.595, 292.719
919.860, 109.410
921.124, 368.105
922.389, 197.803
923.653, 220.479
924.918, 320.160
926.182, 185.820
927.445, 79.449
928.709, 332.076
929.972, 330.676
931.236, 224.271
932.499, 399.840
933.761, 283.383
935.024, 296.904
936.286, 273.398
937.549, 304.871
938.811, 342.314
940.073, 340.656
941.334, 393.133
942.596, 345.506
943.857, 376.855
945.118, 328.184
946.379, 461.486
947.640, 366.762
948.900, 510.018
950.161, 450.248
951.421, 522.457
952.681, 483.641
953.940, 666.797
955.200, 625.934
956.459, 670.041
957.719, 549.125
958.978, 790.178
960.236, 732.197
961.495, 728.189
962.753, 698.148
964.012, 816.820
965.270, 666.725
966.527, 862.082
967.785, 975.234
969.043, 807.906
970.300, 1063.715
971.557, 833.883
972.814, 899.260
974.071, 1012.543
975.327, 1088.490
976.583, 1024.139
977.840, 1052.180
979.095, 1047.832
980.351, 1210.262
981.607, 1293.090
982.862, 1339.480
984.117, 1505.508
985.372, 1365.037
986.627, 1455.080
987.882, 1506.953
989.136, 1437.172
990.390, 1614.441
991.644, 1530.703
992.898, 1512.291
994.152, 1671.654
995.405, 1695.279
996.659, 1713.186
997.912, 1739.848
999.165, 1660.842
1000.417, 1927.195
1001.670, 2001.809
1002.922, 2079.746
1004.174, 2049.057
1005.426, 2176.875
1006.678, 2141.348
1007.930, 2049.807
1009.181, 2192.082
1010.432, 2180.338
1011.683, 2053.682
1012.934, 2282.781
1014.185, 2351.945
1015.435, 2330.131
1016.685, 2366.518
1017.935, 2453.051
1019.185, 2491.492
1020.435, 2522.670
1021.684, 2567.393
1022.934, 2538.730
1024.183, 2493.998
1025.432, 2407.854
1026.680, 2478.346
1027.929, 2596.027
1029.177, 2487.021
1030.425, 2625.504
1031.673, 2549.365
1032.921, 2707.260
1034.169, 2605.805
1035.416, 2662.023
1036.663, 2542.332
1037.911, 2626.869
1039.157, 2638.336
1040.404, 2756.820
1041.650, 2719.609
1042.897, 2680.387
1044.143, 2606.781
1045.389, 2659.072
1046.634, 2758.928
1047.880, 2842.520
1049.125, 2835.244
1050.371, 2819.439
1051.615, 2917.727
1052.860, 2851.787
1054.105, 2919.928
1055.349, 3076.781
1056.593, 3096.361
1057.837, 3043.613
1059.081, 3413.969
1060.325, 3233.496
1061.568, 3421.877
1062.812, 3504.367
1064.055, 3504.506
1065.298, 3736.039
1066.540, 3630.311
1067.783, 3867.867
1069.025, 3871.473
1070.267, 3768.559
1071.509, 4062.221
1072.751, 4146.746
1073.993, 4077.646
1075.234, 4314.396
1076.475, 4133.988
1077.716, 4481.184
1078.957, 4474.035
1080.198, 4363.619
1081.438, 4439.525
1082.679, 4506.625
1083.919, 4473.719
1085.159, 4768.711
1086.398, 4587.867
1087.638, 4683.113
1088.877, 4641.230
1090.116, 4529.395
1091.355, 4718.510
1092.594, 4717.664
1093.833, 4714.111
1095.071, 4857.137
1096.309, 4574.195
1097.547, 4719.072
1098.785, 4530.098
1100.023, 4569.537
1101.260, 4686.514
1102.498, 4342.352
1103.735, 4588.508
1104.972, 4725.057
1106.208, 4443.004
1107.445, 4498.609
1108.681, 4396.189
1109.918, 4284.750
1111.154, 4319.293
1112.389, 4036.832
1113.625, 4106.363
1114.860, 4137.885
1116.096, 3887.406
1117.331, 4128.932
1118.566, 3909.457
1119.800, 3803.041
1121.035, 3927.734
1122.269, 3688.490
1123.503, 3775.342
1124.737, 3920.250
1125.971, 3455.232
1127.205, 3787.285
1128.438, 3466.461
1129.671, 3379.686
1130.904, 3463.953
1132.137, 3096.355
1133.370, 3414.783
1134.602, 3364.311
1135.834, 2902.906
1137.066, 3365.576
1138.298, 2835.316
1139.530, 3100.102
1140.762, 2949.086
1141.993, 2512.213
1143.224, 2855.391
1144.455, 2453.691
1145.686, 2475.176
1146.917, 2687.771
1148.147, 2474.410
1149.377, 2416.096
1150.607, 2437.832
1151.837, 2246.615
1153.067, 2384.449
1154.296, 2058.346
1155.526, 2023.285
1156.755, 2070.266
1157.984, 1790.279
1159.213, 1761.328
1160.441, 1897.420
1161.670, 1508.559
1162.898, 1694.744
1164.126, 1490.949
1165.354, 1418.176
1166.581, 1532.441
1167.809, 1140.686
1169.036, 1262.955
1170.263, 1302.252
1171.490, 746.572
1172.717, 1230.918
1173.943, 963.287
1175.170, 886.682
1176.396, 1100.096
1177.622, 645.535
1178.848, 789.008
1180.073, 823.531
1181.299, 584.148
1182.524, 725.865
1183.749, 727.691
1184.974, 529.631
1186.199, 651.689
1187.423, 476.873
1188.648, 488.182
1189.872, 386.613
1191.096, 285.170
1192.320, 440.848
1193.543, 208.650
1194.767, 53.584
1195.990, 160.641
1197.213, 205.828
1198.436, 199.135
1199.659, 304.562
1200.881, 40.895
1202.104, 404.762
1203.326, 30.537
1204.548, 118.438
1205.770, 205.463
1206.991, 32.381
1208.213, 22.088
1209.434, 133.350
1210.655, 2.062
1211.876, 80.691
1213.096, 214.621
1214.317, 65.738
1215.537, 429.062
1216.757, 64.604
1217.977, 123.377
1219.197, 174.389
1220.417, 43.354
1221.636, 247.156
1222.855, 175.928
1224.074, 39.965
1225.293, 337.283
1226.512, 49.109
1227.731, 174.281
1228.949, 28.283
1230.167, 37.324
1231.385, 252.061
1232.603, 51.430
1233.820, 49.314
1235.038, 393.520
1236.255, 125.035
1237.472, 267.436
1238.689, 307.609
1239.906, 6.627
1241.122, 350.574
1242.338, 79.732
1243.555, 1.041
1244.771, 228.342
1245.986, 11.775
1247.202, 92.086
1248.417, 334.432
1249.633, 0.088
1250.848, 314.768
1252.063, 0.000
##END=



