##NAMES=Chabazite-Ca
##RRUFFID=R050075
##IDEAL CHEMISTRY=Ca_2_Al_4_Si_8_O_24_&#183;13H_2_O
##LOCALITY=Victoria, Australia
##OWNER=RRUFF
##SOURCE=Rock Currier
##DESCRIPTION=White pseudohexagonal crystals
##STATUS=The identification of this mineral has been confirmed by X-ray diffraction and chemical analysis
##URL=rruff.info/R050075
##MEASURED CHEMISTRY=(Ca_0.79_Na_0.22_K_0.14_)_Σ=1.15_(Si_4.08_Al_1.92_)O_12_·6H_2_O
##PIN_ID=L00209
##ORIENTATION=Laser parallel to c* (0 0 1). Fiducial mark perpendicular to laser is parallel to b [0 1 0]
235.063, 0.000
236.434, 3.061
237.805, 409.229
239.175, 15.807
240.545, 359.469
241.916, 129.883
243.286, 232.617
244.655, 378.467
246.025, 268.014
247.394, 412.369
248.763, 10.605
250.132, 559.725
251.501, 103.414
252.869, 353.967
254.237, 326.949
255.605, 339.861
256.973, 344.738
258.340, 232.574
259.708, 225.342
261.075, 39.990
262.442, 54.150
263.808, 53.795
265.175, 62.098
266.541, 210.453
267.907, 84.570
269.273, 123.807
270.639, 39.430
272.004, 78.703
273.369, 189.182
274.734, 3.006
276.099, 486.125
277.463, 111.551
278.828, 491.264
280.192, 452.240
281.556, 407.459
282.919, 824.906
284.283, 484.566
285.646, 856.420
287.009, 807.461
288.372, 864.684
289.734, 1120.100
291.097, 1132.729
292.459, 1305.568
293.821, 1157.615
295.183, 1510.861
296.544, 1460.307
297.905, 1386.934
299.266, 1613.734
300.627, 1397.705
301.988, 1794.830
303.348, 1549.111
304.709, 1661.535
306.069, 1700.100
307.428, 1765.797
308.788, 1851.299
310.147, 1826.570
311.507, 2011.637
312.865, 2099.820
314.224, 2195.117
315.583, 2630.518
316.941, 2339.027
318.299, 2827.645
319.657, 2755.330
321.015, 3242.066
322.372, 3324.852
323.729, 3285.689
325.086, 3710.553
326.443, 3608.434
327.800, 4006.352
329.156, 3976.312
330.512, 3935.291
331.868, 4216.258
333.224, 3882.211
334.579, 4598.152
335.935, 4009.129
337.290, 4135.162
338.645, 3935.260
339.999, 3691.482
341.354, 3664.955
342.708, 3314.654
344.062, 3282.660
345.416, 2970.930
346.769, 2702.398
348.123, 2634.959
349.476, 2332.588
350.829, 2428.311
352.182, 1937.197
353.534, 2152.148
354.887, 1988.131
356.239, 2315.143
357.591, 1976.186
358.942, 1349.258
360.294, 1583.354
361.645, 1363.479
362.996, 1267.619
364.347, 1271.781
365.698, 1156.963
367.048, 1182.373
368.398, 1004.381
369.748, 1151.617
371.098, 1109.875
372.448, 949.152
373.797, 1308.453
375.146, 922.775
376.495, 1318.123
377.844, 1002.498
379.192, 1205.895
380.540, 1141.316
381.889, 978.764
383.236, 1394.238
384.584, 1314.734
385.932, 1338.250
387.279, 1486.789
388.626, 1432.352
389.973, 1643.932
391.319, 1403.531
392.666, 1811.148
394.012, 1550.785
395.358, 1676.441
396.704, 1872.113
398.049, 1574.012
399.394, 1867.168
400.740, 1659.045
402.084, 1979.037
403.429, 1976.398
404.774, 1808.045
406.118, 2112.775
407.462, 1986.436
408.806, 2269.408
410.150, 2136.268
411.493, 2125.703
412.836, 2639.258
414.179, 2330.195
415.522, 2939.348
416.865, 2787.473
418.207, 3037.469
419.549, 3373.734
420.891, 3538.615
422.233, 4371.004
423.575, 4153.746
424.916, 4694.725
426.257, 5295.824
427.598, 5406.461
428.939, 6353.578
430.279, 6467.578
431.619, 7367.779
432.959, 7904.244
434.299, 8548.230
435.639, 9869.738
436.978, 10265.461
438.318, 11524.535
439.657, 12437.924
440.996, 13662.141
442.334, 14880.785
443.673, 15554.473
445.011, 17438.342
446.349, 17836.414
447.687, 19861.764
449.024, 20827.254
450.361, 21874.748
451.699, 23632.062
453.036, 23566.244
454.372, 25122.836
455.709, 25383.152
457.045, 26231.646
458.381, 26974.490
459.717, 26421.191
461.053, 27740.541
462.388, 26934.020
463.724, 27557.490
465.059, 27807.539
466.394, 27534.693
467.728, 28847.297
469.063, 28354.621
470.397, 29735.109
471.731, 29865.480
473.065, 29940.680
474.398, 32064.062
475.732, 31288.686
477.065, 33212.852
478.398, 33070.109
479.731, 32680.861
481.063, 33650.055
482.396, 31236.020
483.728, 31453.811
485.060, 29802.852
486.391, 28390.139
487.723, 27122.156
489.054, 24634.182
490.385, 23607.223
491.716, 20959.266
493.047, 20019.316
494.377, 17832.383
495.708, 15987.457
497.038, 15200.539
498.368, 13130.631
499.697, 12286.734
501.027, 11062.844
502.356, 9986.961
503.685, 9270.270
505.014, 8275.404
506.342, 7460.721
507.671, 6896.012
508.999, 6212.498
510.327, 5716.695
511.655, 5195.492
512.982, 4724.096
514.310, 4320.727
515.637, 3919.631
516.964, 3630.285
518.291, 3293.795
519.617, 3013.219
520.944, 2949.812
522.270, 2581.303
523.596, 2382.375
524.921, 2359.684
526.247, 2205.004
527.572, 1912.527
528.897, 1868.951
530.222, 1855.785
531.547, 1595.172
532.871, 1679.941
534.196, 1305.346
535.520, 1534.795
536.844, 1218.953
538.167, 1375.412
539.491, 1089.922
540.814, 1003.467
542.137, 1042.965
543.460, 880.471
544.783, 898.967
546.105, 759.518
547.427, 703.061
548.749, 677.627
550.071, 601.189
551.393, 523.740
552.714, 454.330
554.035, 458.910
555.356, 370.480
556.677, 213.070
557.998, 477.641
559.318, 143.240
560.638, 143.830
561.958, 362.426
563.278, 261.043
564.597, 179.652
565.917, 175.307
567.236, 29.957
568.555, 55.920
569.874, 70.738
571.192, 56.896
572.511, 109.543
573.829, 102.209
575.147, 212.865
576.464, 9.453
577.782, 152.209
579.099, 2.867
580.416, 197.510
581.733, 67.143
583.050, 98.768
584.366, 109.383
585.683, 76.988
586.999, 20.363
588.315, 75.258
589.630, 44.889
590.946, 95.500
592.261, 99.102
593.576, 48.693
594.891, 114.262
596.206, 4.186
597.520, 120.342
598.834, 4.154
600.148, 12.660
601.462, 79.203
602.776, 175.816
604.089, 16.547
605.402, 132.350
606.715, 101.111
608.028, 195.148
609.341, 111.242
610.653, 123.428
611.965, 144.713
613.277, 75.105
614.589, 60.865
615.901, 0.887
617.212, 13.691
618.523, 60.688
619.834, 23.969
621.145, 47.322
622.456, 94.420
623.766, 47.254
625.076, 69.156
626.386, 107.861
627.696, 75.846
629.006, 108.795
630.315, 156.711
631.624, 118.596
632.933, 66.445
634.242, 181.258
635.551, 163.039
636.859, 51.787
638.167, 189.494
639.475, 263.170
640.783, 56.816
642.090, 238.422
643.398, 184.994
644.705, 332.529
646.012, 395.033
647.318, 386.504
648.625, 389.941
649.931, 386.174
651.237, 329.715
652.543, 399.051
653.849, 308.352
655.155, 433.156
656.460, 462.600
657.765, 376.307
659.070, 418.385
660.375, 234.297
661.679, 409.451
662.984, 237.828
664.288, 245.270
665.592, 223.814
666.895, 300.287
668.199, 377.529
669.502, 224.830
670.805, 345.451
672.108, 154.551
673.411, 216.006
674.713, 255.180
676.016, 197.986
677.318, 335.764
678.620, 280.729
679.921, 147.334
681.223, 363.895
682.524, 102.350
683.825, 294.023
685.126, 342.574
686.427, 248.113
687.727, 377.777
689.028, 274.525
690.328, 451.715
691.628, 409.311
692.927, 209.246
694.227, 603.891
695.526, 463.982
696.825, 385.480
698.124, 454.811
699.423, 464.338
700.721, 551.738
702.020, 650.447
703.318, 664.348
704.616, 650.096
705.913, 696.619
707.211, 598.234
708.508, 616.141
709.805, 710.355
711.102, 827.516
712.399, 578.451
713.695, 786.098
714.992, 810.615
716.288, 706.668
717.584, 853.188
718.879, 662.176
720.175, 989.752
721.470, 663.811
722.765, 867.697
724.060, 905.412
725.355, 843.180
726.649, 942.766
727.944, 791.713
729.238, 871.107
730.532, 943.742
731.825, 764.064
733.119, 1118.762
734.412, 896.752
735.705, 858.373
736.998, 970.605
738.291, 704.660
739.584, 958.498
740.876, 849.967
742.168, 896.090
743.460, 1084.555
744.752, 870.457
746.043, 1014.701
747.334, 913.082
748.626, 1151.365
749.916, 1116.732
751.207, 1078.373
752.498, 1322.410
753.788, 1007.523
755.078, 1137.699
756.368, 1297.516
757.658, 1101.467
758.947, 1452.338
760.237, 1162.658
761.526, 1341.037
762.815, 1334.891
764.104, 1077.719
765.392, 1436.041
766.680, 1136.133
767.969, 1287.086
769.257, 1482.979
770.544, 1172.654
771.832, 1298.393
773.119, 1341.797
774.406, 1203.684
775.693, 1259.291
776.980, 1262.826
778.267, 1434.762
779.553, 1232.535
780.839, 1335.828
782.125, 1446.354
783.411, 1363.680
784.697, 1483.078
785.982, 1324.613
787.267, 1267.922
788.552, 1327.949
789.837, 1227.391
791.122, 1307.691
792.406, 1272.465
793.690, 1080.746
794.974, 1255.203
796.258, 1067.801
797.542, 1035.094
798.825, 915.100
800.108, 754.330
801.391, 900.508
802.674, 669.625
803.957, 700.689
805.239, 511.695
806.522, 474.648
807.804, 534.543
809.085, 292.383
810.367, 369.164
811.649, 296.885
812.930, 199.547
814.211, 229.145
815.492, 161.506
816.772, 337.979
818.053, 312.219
819.333, 123.576
820.613, 284.322
821.893, 6.457
823.173, 11.506
824.452, 216.096
825.732, 23.969
827.011, 233.107
828.290, 44.434
829.568, 134.838
830.847, 131.934
832.125, 78.543
833.403, 24.652
834.681, 138.197
835.959, 42.557
837.236, 110.586
838.514, 142.541
839.791, 43.316
841.068, 90.695
842.345, 22.543
843.621, 134.750
844.898, 134.652
846.174, 19.785
847.450, 24.438
848.726, 163.281
850.001, 232.824
851.277, 71.838
852.552, 17.824
853.827, 213.738
855.102, 181.406
856.376, 90.268
857.651, 58.115
858.925, 32.385
860.199, 328.818
861.473, 129.799
862.746, 155.434
864.020, 152.611
865.293, 56.266
866.566, 244.750
867.839, 101.289
869.112, 116.547
870.384, 9.678
871.656, 66.979
872.928, 182.607
874.200, 151.857
875.472, 79.525
876.744, 48.854
878.015, 77.873
879.286, 275.291
880.557, 37.580
881.828, 43.533
883.098, 248.420
884.369, 93.668
885.639, 268.127
886.909, 134.881
888.178, 65.590
889.448, 281.246
890.717, 22.861
891.987, 330.426
893.256, 132.949
894.524, 113.574
895.793, 377.787
897.061, 172.115
898.330, 284.404
899.598, 296.652
900.865, 41.879
902.133, 189.059
903.401, 168.201
904.668, 119.326
905.935, 391.414
907.202, 53.533
908.468, 473.451
909.735, 199.406
911.001, 168.361
912.267, 486.330
913.533, 152.271
914.799, 422.217
916.064, 413.158
917.330, 144.121
918.595, 449.086
919.860, 15.949
921.124, 254.018
922.389, 341.977
923.653, 108.926
924.918, 360.846
926.182, 168.746
927.445, 190.617
928.709, 626.473
929.972, 193.299
931.236, 602.131
932.499, 393.953
933.761, 322.773
935.024, 621.572
936.286, 216.344
937.549, 467.092
938.811, 340.812
940.073, 310.512
941.334, 797.188
942.596, 298.838
943.857, 504.463
945.118, 688.068
946.379, 402.650
947.640, 763.207
948.900, 652.744
950.161, 678.260
951.421, 901.750
952.681, 345.219
953.940, 1051.666
955.200, 748.092
956.459, 580.496
957.719, 1004.879
958.978, 623.242
960.236, 894.588
961.495, 1054.371
962.753, 607.463
964.012, 1041.236
965.270, 643.588
966.527, 817.047
967.785, 1203.215
969.043, 626.137
970.300, 1304.936
971.557, 1159.580
972.814, 791.248
974.071, 1393.086
975.327, 832.820
976.583, 1141.180
977.840, 1389.012
979.095, 859.439
980.351, 1427.094
981.607, 1157.061
982.862, 1157.004
984.117, 1606.703
985.372, 937.709
986.627, 1636.697
987.882, 1408.727
989.136, 1291.473
990.390, 1822.279
991.644, 1397.039
992.898, 1680.611
994.152, 1730.039
995.405, 1521.961
996.659, 2106.422
997.912, 1604.479
999.165, 1781.771
1000.417, 2231.559
1001.670, 1765.885
1002.922, 2471.318
1004.174, 2094.500
1005.426, 2114.754
1006.678, 2449.645
1007.930, 1978.289
1009.181, 2391.033
1010.432, 2261.945
1011.683, 2129.719
1012.934, 2620.145
1014.185, 2392.213
1015.435, 2442.277
1016.685, 2640.521
1017.935, 2250.002
1019.185, 2838.561
1020.435, 2575.535
1021.684, 2475.992
1022.934, 3107.928
1024.183, 2506.229
1025.432, 2788.996
1026.680, 2788.889
1027.929, 2494.555
1029.177, 2916.221
1030.425, 2591.016
1031.673, 2553.387
1032.921, 2981.469
1034.169, 2458.223
1035.416, 2844.344
1036.663, 2810.232
1037.911, 2633.592
1039.157, 3210.688
1040.404, 2734.715
1041.650, 2754.559
1042.897, 3060.697
1044.143, 2533.191
1045.389, 3064.844
1046.634, 2967.035
1047.880, 2801.791
1049.125, 3260.018
1050.371, 2706.465
1051.615, 3200.775
1052.860, 3115.736
1054.105, 2838.258
1055.349, 3525.996
1056.593, 2983.350
1057.837, 3279.812
1059.081, 3697.209
1060.325, 3254.883
1061.568, 3814.008
1062.812, 3696.477
1064.055, 3459.756
1065.298, 4334.275
1066.540, 3722.822
1067.783, 4044.043
1069.025, 4428.641
1070.267, 4016.955
1071.509, 4662.615
1072.751, 4278.307
1073.993, 4122.592
1075.234, 4836.346
1076.475, 4185.975
1077.716, 4555.742
1078.957, 4740.596
1080.198, 4345.920
1081.438, 5105.846
1082.679, 4623.811
1083.919, 4585.215
1085.159, 5194.256
1086.398, 4498.338
1087.638, 5142.461
1088.877, 4922.629
1090.116, 4628.836
1091.355, 5314.090
1092.594, 4728.340
1093.833, 4849.633
1095.071, 5171.877
1096.309, 4623.168
1097.547, 5266.441
1098.785, 4758.760
1100.023, 4677.125
1101.260, 5111.535
1102.498, 4260.992
1103.735, 4669.500
1104.972, 5012.059
1106.208, 4370.670
1107.445, 5043.318
1108.681, 4437.021
1109.918, 4374.764
1111.154, 4722.562
1112.389, 4131.416
1113.625, 4511.416
1114.860, 4658.391
1116.096, 3764.443
1117.331, 4708.086
1118.566, 4003.291
1119.800, 3934.574
1121.035, 4444.994
1122.269, 3896.508
1123.503, 4425.217
1124.737, 4432.969
1125.971, 3537.324
1127.205, 4433.865
1128.438, 3705.266
1129.671, 3652.602
1130.904, 3988.709
1132.137, 3172.684
1133.370, 3913.631
1134.602, 3519.990
1135.834, 3110.432
1137.066, 3878.016
1138.298, 2985.666
1139.530, 3425.422
1140.762, 3425.291
1141.993, 2582.328
1143.224, 3339.416
1144.455, 2796.617
1145.686, 2779.961
1146.917, 3374.391
1148.147, 2286.967
1149.377, 2792.623
1150.607, 2767.398
1151.837, 2258.283
1153.067, 2806.305
1154.296, 2113.500
1155.526, 1943.795
1156.755, 2752.203
1157.984, 1859.742
1159.213, 1989.420
1160.441, 2144.168
1161.670, 1459.982
1162.898, 2206.863
1164.126, 1621.896
1165.354, 1493.998
1166.581, 1949.127
1167.809, 1191.299
1169.036, 1457.506
1170.263, 1732.824
1171.490, 866.170
1172.717, 1942.578
1173.943, 1070.057
1175.170, 975.600
1176.396, 1693.229
1177.622, 702.928
1178.848, 1264.695
1180.073, 1169.537
1181.299, 496.438
1182.524, 1330.402
1183.749, 662.436
1184.974, 640.535
1186.199, 1189.705
1187.423, 212.943
1188.648, 861.254
1189.872, 621.641
1191.096, 160.102
1192.320, 905.637
1193.543, 220.246
1194.767, 117.930
1195.990, 886.691
1197.213, 126.477
1198.436, 556.428
1199.659, 693.303
1200.881, 177.758
1202.104, 1142.242
1203.326, 414.303
1204.548, 233.412
1205.770, 898.594
1206.991, 123.137
1208.213, 477.277
1209.434, 484.852
1210.655, 12.412
1211.876, 774.484
1213.096, 285.541
1214.317, 122.760
1215.537, 749.137
1216.757, 89.674
1217.977, 568.371
1219.197, 692.223
1220.417, 7.227
1221.636, 950.387
1222.855, 227.703
1224.074, 25.182
1225.293, 933.824
1226.512, 18.363
1227.731, 519.627
1228.949, 545.797
1230.167, 12.848
1231.385, 1090.699
1232.603, 433.443
1233.820, 68.396
1235.038, 987.562
1236.255, 155.953
1237.472, 755.572
1238.689, 651.029
1239.906, 16.799
1241.122, 844.518
1242.338, 455.111
1243.555, 234.945
1244.771, 1129.539
1245.986, 82.709
1247.202, 505.699
1248.417, 849.893
1249.633, 88.283
1250.848, 841.869
1252.063, 650.641
1253.277, 74.100
1254.492, 1033.096
1255.706, 330.762
1256.920, 468.871
1258.134, 962.039
1259.348, 28.590
1260.562, 974.299
1261.775, 749.500
1262.988, 78.271
1264.201, 1351.570
1265.414, 399.066
1266.627, 606.473
1267.839, 1014.186
1269.052, 136.449
1270.264, 972.070
1271.476, 927.803
1272.688, 3.588
1273.899, 1136.158
1275.111, 330.033
1276.322, 320.574
1277.533, 981.795
1278.744, 0.000
##END=



