##NAMES=Chabazite-Ca
##RRUFFID=R050075
##IDEAL CHEMISTRY=Ca_2_Al_4_Si_8_O_24_&#183;13H_2_O
##LOCALITY=Victoria, Australia
##OWNER=RRUFF
##SOURCE=Rock Currier
##DESCRIPTION=White pseudohexagonal crystals
##STATUS=The identification of this mineral has been confirmed by X-ray diffraction and chemical analysis
##URL=rruff.info/R050075
##MEASURED CHEMISTRY=(Ca_0.79_Na_0.22_K_0.14_)_Σ=1.15_(Si_4.08_Al_1.92_)O_12_·6H_2_O
##PIN_ID=L00209
##ORIENTATION=Laser parallel to c* (0 0 1). Fiducial mark perpendicular to laser is parallel to b [0 1 0]
240.545, 0.000
241.916, 0.859
243.286, 180.863
244.655, 370.826
246.025, 104.691
247.394, 583.240
248.763, 8.223
250.132, 551.309
251.501, 272.371
252.869, 272.193
254.237, 365.887
255.605, 131.059
256.973, 458.350
258.340, 130.521
259.708, 336.287
261.075, 76.803
262.442, 136.035
263.808, 467.936
265.175, 18.537
266.541, 132.580
267.907, 21.756
269.273, 224.432
270.639, 14.879
272.004, 64.715
273.369, 416.904
274.734, 86.049
276.099, 348.408
277.463, 158.260
278.828, 279.480
280.192, 462.057
281.556, 396.973
282.919, 743.213
284.283, 410.754
285.646, 606.584
287.009, 668.682
288.372, 731.020
289.734, 1118.592
291.097, 643.381
292.459, 1193.387
293.821, 815.605
295.183, 1091.047
296.544, 1179.719
297.905, 1107.615
299.266, 1391.730
300.627, 953.053
301.988, 1494.568
303.348, 1189.273
304.709, 1330.160
306.069, 1673.215
307.428, 1327.436
308.788, 1873.811
310.147, 1488.342
311.507, 1867.018
312.865, 1820.834
314.224, 2113.791
315.583, 2456.881
316.941, 2219.105
318.299, 2869.453
319.657, 2699.924
321.015, 3077.514
322.372, 3163.234
323.729, 3069.066
325.086, 3657.980
326.443, 3419.969
327.800, 3965.018
329.156, 3799.146
330.512, 3891.301
331.868, 4185.465
333.224, 3915.643
334.579, 4383.820
335.935, 3910.004
337.290, 4036.344
338.645, 3926.658
339.999, 3756.018
341.354, 3739.500
342.708, 3236.047
344.062, 3309.752
345.416, 3040.545
346.769, 2765.621
348.123, 2921.953
349.476, 2153.434
350.829, 2478.275
352.182, 1941.252
353.534, 2134.262
354.887, 2052.305
356.239, 1742.375
357.591, 1880.477
358.942, 1275.613
360.294, 1743.809
361.645, 1095.051
362.996, 1303.324
364.347, 1480.631
365.698, 948.965
367.048, 1476.328
368.398, 1017.721
369.748, 1218.141
371.098, 1130.592
372.448, 777.072
373.797, 1157.580
375.146, 772.119
376.495, 1138.691
377.844, 872.299
379.192, 957.947
380.540, 1267.635
381.889, 877.369
383.236, 1153.143
384.584, 935.963
385.932, 1164.828
387.279, 1395.734
388.626, 1114.674
389.973, 1471.648
391.319, 1156.664
392.666, 1562.709
394.012, 1521.787
395.358, 1438.896
396.704, 1633.037
398.049, 1433.207
399.394, 1905.404
400.740, 1617.633
402.084, 1804.928
403.429, 1880.049
404.774, 1730.139
406.118, 2078.844
407.462, 1763.887
408.806, 2053.482
410.150, 2230.184
411.493, 2256.973
412.836, 2659.289
414.179, 2289.434
415.522, 2975.469
416.865, 2954.229
418.207, 2996.477
419.549, 3758.051
420.891, 3596.475
422.233, 4331.439
423.575, 4244.803
424.916, 4926.895
426.257, 5585.691
427.598, 5671.869
428.939, 6583.703
430.279, 6688.512
431.619, 7789.961
432.959, 8242.066
434.299, 8852.930
435.639, 10364.566
436.978, 10490.371
438.318, 12056.494
439.657, 13071.434
440.996, 14079.600
442.334, 15611.793
443.673, 15830.754
445.011, 18139.719
446.349, 18429.693
447.687, 20466.779
449.024, 21465.000
450.361, 22423.896
451.699, 24327.898
453.036, 24181.344
454.372, 25936.428
455.709, 26119.061
457.045, 27007.963
458.381, 28266.008
459.717, 27628.217
461.053, 29021.623
462.388, 28660.449
463.724, 29276.721
465.059, 29715.441
466.394, 29653.770
467.728, 31460.129
469.063, 31232.512
470.397, 32742.930
471.731, 33250.422
473.065, 33463.879
474.398, 35826.695
475.732, 35025.727
477.065, 37028.270
478.398, 36401.121
479.731, 36298.707
481.063, 36983.285
482.396, 34753.895
483.728, 34982.676
485.060, 33290.316
486.391, 31065.984
487.723, 29354.666
489.054, 26901.357
490.385, 25149.102
491.716, 23124.803
493.047, 21307.541
494.377, 19215.297
495.708, 17019.074
497.038, 16323.863
498.368, 14108.664
499.697, 13036.488
501.027, 11806.320
502.356, 10362.170
503.685, 9823.035
505.014, 8580.918
506.342, 7958.812
507.671, 7298.098
508.999, 6508.330
510.327, 6217.275
511.655, 5024.822
512.982, 5141.973
514.310, 4421.838
515.637, 4059.426
516.964, 3865.883
518.291, 3837.629
519.617, 3372.744
520.944, 3036.648
522.270, 2680.336
523.596, 2567.498
524.921, 2229.426
526.247, 2447.039
527.572, 1881.842
528.897, 1866.574
530.222, 2049.355
531.547, 1551.133
532.871, 1932.695
534.196, 1334.414
535.520, 1719.004
536.844, 1385.465
538.167, 1200.273
539.491, 1369.939
540.814, 942.615
542.137, 1069.293
543.460, 914.971
544.783, 759.648
546.105, 838.342
547.427, 741.033
548.749, 824.725
550.071, 529.414
551.393, 322.096
552.714, 505.773
554.035, 286.443
555.356, 502.109
556.677, 160.768
557.998, 380.422
559.318, 253.080
560.638, 60.734
561.958, 286.381
563.278, 56.055
564.597, 19.723
565.917, 265.439
567.236, 94.160
568.555, 222.877
569.874, 38.367
571.192, 309.371
572.511, 110.115
573.829, 48.141
575.147, 190.582
576.464, 62.305
577.782, 210.021
579.099, 105.742
580.416, 7.467
581.733, 191.182
583.050, 134.900
584.366, 154.615
585.683, 96.330
586.999, 21.943
588.315, 161.760
589.630, 174.527
590.946, 133.086
592.261, 18.699
593.576, 17.678
594.891, 357.920
596.206, 142.467
597.520, 39.061
598.834, 5.570
600.148, 10.064
601.462, 80.537
602.776, 114.002
604.089, 107.375
605.402, 30.264
606.715, 76.061
608.028, 89.637
609.341, 360.404
610.653, 61.631
611.965, 135.355
613.277, 40.559
614.589, 81.553
615.901, 241.734
617.212, 195.076
618.523, 0.551
619.834, 46.941
621.145, 290.406
622.456, 90.848
623.766, 343.266
625.076, 275.658
626.386, 336.031
627.696, 292.379
629.006, 186.701
630.315, 314.000
631.624, 128.271
632.933, 83.516
634.242, 206.729
635.551, 29.086
636.859, 326.043
638.167, 251.145
639.475, 390.217
640.783, 185.264
642.090, 396.281
643.398, 575.268
644.705, 442.229
646.012, 515.156
647.318, 456.059
648.625, 402.930
649.931, 645.771
651.237, 625.582
652.543, 460.361
653.849, 529.469
655.155, 333.188
656.460, 681.670
657.765, 385.473
659.070, 506.697
660.375, 356.770
661.679, 338.850
662.984, 372.816
664.288, 168.189
665.592, 188.250
666.895, 344.514
668.199, 124.324
669.502, 242.717
670.805, 78.924
672.108, 170.002
673.411, 221.482
674.713, 170.529
676.016, 97.238
677.318, 169.070
678.620, 240.369
679.921, 155.654
681.223, 196.898
682.524, 356.791
683.825, 105.141
685.126, 334.746
686.427, 333.178
687.727, 339.014
689.028, 497.119
690.328, 357.947
691.628, 450.691
692.927, 203.109
694.227, 364.322
695.526, 511.756
696.825, 468.941
698.124, 530.154
699.423, 546.285
700.721, 574.988
702.020, 641.025
703.318, 677.053
704.616, 667.211
705.913, 696.873
707.211, 509.229
708.508, 746.740
709.805, 544.023
711.102, 851.236
712.399, 645.834
713.695, 590.131
714.992, 904.916
716.288, 630.465
717.584, 739.826
718.879, 604.184
720.175, 831.490
721.470, 737.133
722.765, 795.797
724.060, 811.967
725.355, 690.326
726.649, 745.664
727.944, 815.168
729.238, 744.430
730.532, 913.418
731.825, 738.248
733.119, 815.600
734.412, 824.445
735.705, 613.379
736.998, 888.707
738.291, 669.354
739.584, 685.516
740.876, 762.857
742.168, 649.258
743.460, 758.420
744.752, 844.211
746.043, 702.002
747.334, 904.244
748.626, 864.838
749.916, 782.252
751.207, 981.490
752.498, 838.342
753.788, 1027.475
755.078, 1004.629
756.368, 993.127
757.658, 953.947
758.947, 1024.814
760.237, 1032.045
761.526, 1051.643
762.815, 1099.070
764.104, 1109.809
765.392, 1069.143
766.680, 1116.879
767.969, 1096.539
769.257, 1193.254
770.544, 1131.676
771.832, 1048.924
773.119, 1110.051
774.406, 1089.752
775.693, 1043.264
776.980, 1007.031
778.267, 1030.854
779.553, 1196.443
780.839, 1140.039
782.125, 1201.576
783.411, 1376.057
784.697, 1320.414
785.982, 1270.777
787.267, 1363.756
788.552, 1322.484
789.837, 1243.662
791.122, 1427.496
792.406, 1395.574
793.690, 1339.596
794.974, 1189.562
796.258, 1183.320
797.542, 1157.172
798.825, 979.965
800.108, 1067.699
801.391, 811.379
802.674, 823.000
803.957, 712.566
805.239, 615.074
806.522, 497.523
807.804, 323.914
809.085, 453.244
810.367, 217.520
811.649, 372.730
812.930, 262.883
814.211, 96.973
815.492, 280.992
816.772, 298.951
818.053, 68.848
819.333, 41.301
820.613, 199.742
821.893, 45.420
823.173, 103.570
824.452, 30.738
825.732, 116.734
827.011, 76.572
828.290, 70.895
829.568, 34.941
830.847, 102.033
832.125, 79.020
833.403, 159.883
834.681, 33.336
835.959, 156.758
837.236, 133.740
838.514, 12.139
839.791, 11.059
841.068, 39.240
842.345, 74.328
843.621, 99.889
844.898, 38.770
846.174, 19.385
847.450, 15.055
848.726, 118.926
850.001, 11.135
851.277, 144.115
852.552, 34.035
853.827, 236.885
855.102, 26.324
856.376, 130.371
857.651, 90.006
858.925, 187.582
860.199, 246.102
861.473, 193.566
862.746, 232.324
864.020, 234.328
865.293, 127.627
866.566, 183.869
867.839, 9.943
869.112, 92.164
870.384, 112.215
871.656, 120.791
872.928, 84.068
874.200, 181.127
875.472, 4.488
876.744, 87.078
878.015, 131.408
879.286, 111.967
880.557, 10.701
881.828, 25.559
883.098, 34.762
884.369, 66.922
885.639, 125.027
886.909, 36.084
888.178, 15.088
889.448, 254.035
890.717, 29.941
891.987, 122.795
893.256, 61.600
894.524, 17.355
895.793, 228.061
897.061, 141.730
898.330, 40.355
899.598, 236.979
900.865, 19.561
902.133, 82.096
903.401, 184.596
904.668, 94.064
905.935, 68.531
907.202, 4.955
908.468, 150.336
909.735, 123.680
911.001, 52.990
912.267, 332.291
913.533, 112.559
914.799, 246.805
916.064, 127.020
917.330, 78.777
918.595, 246.455
919.860, 148.656
921.124, 166.863
922.389, 164.043
923.653, 163.217
924.918, 144.445
926.182, 191.703
927.445, 125.936
928.709, 457.143
929.972, 73.320
931.236, 438.473
932.499, 348.596
933.761, 182.695
935.024, 486.771
936.286, 181.824
937.549, 411.850
938.811, 344.857
940.073, 297.842
941.334, 523.801
942.596, 236.723
943.857, 322.627
945.118, 428.492
946.379, 400.322
947.640, 426.115
948.900, 600.879
950.161, 340.602
951.421, 691.289
952.681, 449.945
953.940, 734.564
955.200, 742.150
956.459, 494.703
957.719, 742.219
958.978, 448.365
960.236, 874.650
961.495, 1126.383
962.753, 1211.738
964.012, 636.523
965.270, 914.635
966.527, 849.619
967.785, 771.541
969.043, 1169.916
970.300, 1006.518
971.557, 1026.119
972.814, 955.463
974.071, 1236.201
975.327, 983.299
976.583, 1049.525
977.840, 1330.822
979.095, 923.658
980.351, 1320.871
981.607, 1293.361
982.862, 1105.672
984.117, 1669.457
985.372, 1263.201
986.627, 1435.928
987.882, 1576.947
989.136, 1469.459
990.390, 1714.656
991.644, 1500.975
992.898, 1590.836
994.152, 1824.369
995.405, 1637.131
996.659, 2148.926
997.912, 1889.994
999.165, 2043.209
1000.417, 2458.156
1001.670, 2210.301
1002.922, 2659.363
1004.174, 2428.461
1005.426, 2314.934
1006.678, 2465.023
1007.930, 2076.076
1009.181, 2430.945
1010.432, 2540.260
1011.683, 2217.836
1012.934, 2657.205
1014.185, 2483.750
1015.435, 2643.320
1016.685, 2727.457
1017.935, 2522.846
1019.185, 2858.703
1020.435, 2740.744
1021.684, 2694.887
1022.934, 3102.029
1024.183, 2651.100
1025.432, 2895.625
1026.680, 2845.334
1027.929, 2664.492
1029.177, 2752.424
1030.425, 2707.748
1031.673, 2672.455
1032.921, 2783.613
1034.169, 2715.396
1035.416, 2865.666
1036.663, 2893.213
1037.911, 2728.396
1039.157, 2984.453
1040.404, 2941.660
1041.650, 2891.941
1042.897, 3096.682
1044.143, 2745.209
1045.389, 3078.555
1046.634, 3075.869
1047.880, 2718.873
1049.125, 3108.502
1050.371, 2915.004
1051.615, 3218.650
1052.860, 3207.611
1054.105, 2999.480
1055.349, 3517.609
1056.593, 3224.688
1057.837, 3160.557
1059.081, 3774.107
1060.325, 3319.338
1061.568, 3792.619
1062.812, 3997.707
1064.055, 3672.381
1065.298, 4312.594
1066.540, 3846.490
1067.783, 4065.492
1069.025, 4309.922
1070.267, 4128.172
1071.509, 4437.594
1072.751, 4481.008
1073.993, 4271.223
1075.234, 4993.754
1076.475, 4537.547
1077.716, 4686.115
1078.957, 4917.055
1080.198, 4568.609
1081.438, 5026.730
1082.679, 4747.658
1083.919, 4728.252
1085.159, 5181.285
1086.398, 4633.332
1087.638, 5118.688
1088.877, 5064.684
1090.116, 4760.322
1091.355, 5203.787
1092.594, 5154.227
1093.833, 4988.648
1095.071, 5331.047
1096.309, 4841.428
1097.547, 5205.789
1098.785, 4977.137
1100.023, 4672.465
1101.260, 5263.785
1102.498, 4555.094
1103.735, 4950.408
1104.972, 5057.725
1106.208, 4725.066
1107.445, 4950.480
1108.681, 4723.025
1109.918, 4395.768
1111.154, 4810.670
1112.389, 4421.793
1113.625, 4343.139
1114.860, 4616.721
1116.096, 3955.410
1117.331, 4477.148
1118.566, 4262.008
1119.800, 3880.010
1121.035, 4424.137
1122.269, 3866.318
1123.503, 4049.596
1124.737, 4359.924
1125.971, 3700.295
1127.205, 4167.707
1128.438, 3780.170
1129.671, 3539.717
1130.904, 4014.375
1132.137, 3324.227
1133.370, 3814.240
1134.602, 3316.320
1135.834, 3700.947
1137.066, 3871.445
1138.298, 3839.334
1139.530, 2997.480
1140.762, 3201.400
1141.993, 2986.396
1143.224, 2754.293
1144.455, 2874.930
1145.686, 2635.820
1146.917, 3273.746
1148.147, 2482.742
1149.377, 2734.803
1150.607, 2981.924
1151.837, 2319.084
1153.067, 2702.334
1154.296, 2309.664
1155.526, 2040.045
1156.755, 2511.412
1157.984, 1854.822
1159.213, 2072.270
1160.441, 2334.756
1161.670, 1561.264
1162.898, 2167.789
1164.126, 1654.348
1165.354, 1558.031
1166.581, 2004.861
1167.809, 1274.850
1169.036, 1459.000
1170.263, 1694.328
1171.490, 941.840
1172.717, 1664.545
1173.943, 1089.443
1175.170, 966.531
1176.396, 1555.807
1177.622, 689.262
1178.848, 1029.898
1180.073, 1051.719
1181.299, 595.725
1182.524, 1144.924
1183.749, 684.322
1184.974, 517.926
1186.199, 1091.730
1187.423, 268.734
1188.648, 545.943
1189.872, 696.369
1191.096, 69.012
1192.320, 781.887
1193.543, 259.002
1194.767, 17.375
1195.990, 642.016
1197.213, 70.941
1198.436, 523.174
1199.659, 642.746
1200.881, 90.324
1202.104, 762.996
1203.326, 381.723
1204.548, 135.875
1205.770, 736.463
1206.991, 31.496
1208.213, 305.027
1209.434, 536.055
1210.655, 29.383
1211.876, 577.746
1213.096, 477.479
1214.317, 85.859
1215.537, 814.943
1216.757, 132.785
1217.977, 469.447
1219.197, 681.029
1220.417, 44.943
1221.636, 779.875
1222.855, 613.992
1224.074, 124.379
1225.293, 785.611
1226.512, 293.135
1227.731, 605.607
1228.949, 614.738
1230.167, 21.514
1231.385, 691.791
1232.603, 544.312
1233.820, 0.326
1235.038, 952.941
1236.255, 0.000
##END=



