##NAMES=Chabazite-Ca
##RRUFFID=R050075
##IDEAL CHEMISTRY=Ca_2_Al_4_Si_8_O_24_&#183;13H_2_O
##LOCALITY=Victoria, Australia
##OWNER=RRUFF
##SOURCE=Rock Currier
##DESCRIPTION=White pseudohexagonal crystals
##STATUS=The identification of this mineral has been confirmed by X-ray diffraction and chemical analysis
##URL=rruff.info/R050075
##MEASURED CHEMISTRY=(Ca_0.79_Na_0.22_K_0.14_)_Σ=1.15_(Si_4.08_Al_1.92_)O_12_·6H_2_O
##PIN_ID=L00465
##ORIENTATION=Laser parallel to a* (1 0 0). Fiducial mark perpendicular to laser is parallel to c [0 0 1]
244.655, 0.000
246.025, 1.617
247.394, 387.973
248.763, 149.145
250.132, 604.236
251.501, 317.609
252.869, 340.061
254.237, 445.312
255.605, 13.867
256.973, 535.072
258.340, 165.006
259.708, 339.168
261.075, 159.572
262.442, 99.188
263.808, 440.932
265.175, 89.727
266.541, 329.506
267.907, 2.193
269.273, 217.723
270.639, 8.971
272.004, 67.936
273.369, 358.785
274.734, 88.836
276.099, 353.164
277.463, 222.756
278.828, 400.910
280.192, 366.596
281.556, 240.789
282.919, 453.461
284.283, 329.590
285.646, 583.152
287.009, 625.119
288.372, 526.461
289.734, 864.145
291.097, 617.146
292.459, 944.445
293.821, 727.016
295.183, 946.848
296.544, 915.945
297.905, 820.318
299.266, 1131.980
300.627, 836.932
301.988, 1217.172
303.348, 1148.689
304.709, 1313.475
306.069, 1459.520
307.428, 1380.805
308.788, 1854.320
310.147, 1648.057
311.507, 1979.998
312.865, 2057.143
314.224, 2338.473
315.583, 2846.984
316.941, 2622.674
318.299, 3410.529
319.657, 3591.547
321.015, 3836.719
322.372, 4267.039
323.729, 4075.508
325.086, 4783.111
326.443, 4647.848
327.800, 5328.641
329.156, 5102.492
330.512, 5328.371
331.868, 5628.262
333.224, 5260.156
334.579, 5888.078
335.935, 5339.023
337.290, 5414.012
338.645, 5368.039
339.999, 4775.090
341.354, 4767.156
342.708, 4276.271
344.062, 4168.479
345.416, 3971.852
346.769, 3564.412
348.123, 3483.262
349.476, 2859.465
350.829, 2825.016
352.182, 2408.795
353.534, 2531.754
354.887, 2294.936
356.239, 1964.357
357.591, 2169.930
358.942, 1576.576
360.294, 1997.316
361.645, 1657.465
362.996, 1538.086
364.347, 1506.043
365.698, 1064.035
367.048, 1495.055
368.398, 971.096
369.748, 1225.160
371.098, 1030.246
372.448, 905.352
373.797, 1075.477
375.146, 717.625
376.495, 1051.793
377.844, 921.980
379.192, 805.189
380.540, 1034.432
381.889, 777.703
383.236, 1167.002
384.584, 783.334
385.932, 1061.699
387.279, 973.100
388.626, 966.527
389.973, 1246.986
391.319, 911.471
392.666, 1284.984
394.012, 1350.518
395.358, 1206.074
396.704, 1594.648
398.049, 1301.244
399.394, 1595.859
400.740, 1359.492
402.084, 1650.145
403.429, 1931.814
404.774, 1829.502
406.118, 2154.211
407.462, 2038.494
408.806, 2219.656
410.150, 2604.750
411.493, 2523.986
412.836, 2888.396
414.179, 2808.805
415.522, 3427.475
416.865, 3615.896
418.207, 3841.207
419.549, 4368.861
420.891, 4413.994
422.233, 5344.322
423.575, 5417.453
424.916, 6065.758
426.257, 6845.443
427.598, 7026.867
428.939, 8272.135
430.279, 8643.426
431.619, 9888.084
432.959, 10368.582
434.299, 11474.225
435.639, 13092.107
436.978, 13603.668
438.318, 15685.975
439.657, 16754.414
440.996, 17960.947
442.334, 19776.537
443.673, 20772.193
445.011, 23112.344
446.349, 23923.650
447.687, 26312.277
449.024, 27666.863
450.361, 29277.740
451.699, 30901.154
453.036, 31519.986
454.372, 32975.531
455.709, 33292.586
457.045, 34232.621
458.381, 35255.289
459.717, 34460.379
461.053, 35750.379
462.388, 35050.234
463.724, 35570.535
465.059, 35410.480
466.394, 35063.840
467.728, 36295.402
469.063, 35934.598
470.397, 37326.113
471.731, 37492.594
473.065, 37432.422
474.398, 39779.707
475.732, 39370.391
477.065, 41024.977
478.398, 41090.160
479.731, 40511.102
481.063, 41480.824
482.396, 39384.988
483.728, 38645.770
485.060, 37517.969
486.391, 35223.836
487.723, 33793.328
489.054, 30845.203
490.385, 29172.092
491.716, 26430.264
493.047, 24624.170
494.377, 22431.082
495.708, 20066.010
497.038, 18807.945
498.368, 16669.893
499.697, 15289.850
501.027, 14017.824
502.356, 12408.805
503.685, 11663.799
505.014, 10101.809
506.342, 9311.826
507.671, 8427.855
508.999, 7634.896
510.327, 7073.992
511.655, 6139.273
512.982, 6026.785
514.310, 5254.965
515.637, 4592.430
516.964, 4501.574
518.291, 3763.432
519.617, 3877.918
520.944, 3451.572
522.270, 3146.453
523.596, 2888.299
524.921, 2688.646
526.247, 2682.137
527.572, 2114.193
528.897, 2093.844
530.222, 2119.521
531.547, 1818.377
532.871, 1884.707
534.196, 1374.662
535.520, 1600.582
536.844, 1447.266
538.167, 1419.676
539.491, 1401.107
540.814, 1053.541
542.137, 1056.969
543.460, 1065.391
544.783, 869.805
546.105, 913.252
547.427, 782.686
548.749, 816.123
550.071, 588.545
551.393, 522.982
552.714, 612.402
554.035, 357.822
555.356, 604.250
556.677, 156.678
557.998, 436.109
559.318, 357.523
560.638, 175.922
561.958, 455.309
563.278, 317.691
564.597, 280.074
565.917, 413.465
567.236, 108.855
568.555, 348.266
569.874, 5.664
571.192, 358.049
572.511, 213.422
573.829, 105.789
575.147, 316.162
576.464, 47.521
577.782, 147.891
579.099, 167.260
580.416, 199.615
581.733, 257.959
583.050, 142.295
584.366, 215.613
585.683, 321.916
586.999, 118.203
588.315, 290.471
589.630, 78.721
590.946, 209.947
592.261, 40.154
593.576, 97.344
594.891, 289.510
596.206, 41.670
597.520, 30.795
598.834, 30.893
600.148, 17.047
601.462, 39.971
602.776, 152.049
604.089, 3.189
605.402, 43.375
606.715, 215.627
608.028, 73.961
609.341, 224.492
610.653, 181.111
611.965, 126.871
613.277, 196.752
614.589, 111.217
615.901, 186.859
617.212, 0.912
618.523, 29.373
619.834, 152.729
621.145, 1.777
622.456, 214.775
623.766, 113.498
625.076, 94.275
626.386, 9.840
627.696, 103.895
629.006, 25.100
630.315, 43.830
631.624, 35.297
632.933, 24.508
634.242, 126.199
635.551, 14.143
636.859, 294.436
638.167, 110.969
639.475, 256.449
640.783, 107.881
642.090, 257.258
643.398, 466.586
644.705, 194.865
646.012, 517.094
647.318, 489.273
648.625, 288.406
649.931, 521.486
651.237, 402.520
652.543, 410.504
653.849, 535.240
655.155, 393.156
656.460, 502.221
657.765, 379.344
659.070, 461.824
660.375, 404.221
661.679, 436.299
662.984, 452.594
664.288, 421.025
665.592, 426.535
666.895, 377.256
668.199, 337.004
669.502, 284.771
670.805, 130.125
672.108, 313.500
673.411, 400.248
674.713, 232.213
676.016, 324.738
677.318, 303.680
678.620, 252.846
679.921, 275.795
681.223, 156.234
682.524, 370.373
683.825, 265.729
685.126, 374.688
686.427, 379.707
687.727, 353.305
689.028, 479.414
690.328, 352.799
691.628, 364.031
692.927, 447.438
694.227, 555.852
695.526, 551.158
696.825, 563.541
698.124, 667.541
699.423, 727.912
700.721, 661.785
702.020, 856.301
703.318, 815.490
704.616, 826.846
705.913, 875.857
707.211, 731.107
708.508, 1014.799
709.805, 829.512
711.102, 988.939
712.399, 926.828
713.695, 870.252
714.992, 1163.814
716.288, 716.215
717.584, 1146.953
718.879, 960.184
720.175, 958.795
721.470, 1147.045
722.765, 1043.598
724.060, 1029.238
725.355, 1047.312
726.649, 1136.596
727.944, 1173.797
729.238, 873.494
730.532, 1119.045
731.825, 940.080
733.119, 1093.369
734.412, 1018.361
735.705, 834.801
736.998, 1110.086
738.291, 1150.766
739.584, 878.609
740.876, 1070.307
742.168, 1082.244
743.460, 1062.840
744.752, 1176.395
746.043, 1134.201
747.334, 1241.273
748.626, 1234.531
749.916, 1291.961
751.207, 1323.045
752.498, 1290.266
753.788, 1432.881
755.078, 1490.977
756.368, 1476.488
757.658, 1594.852
758.947, 1481.197
760.237, 1581.359
761.526, 1599.684
762.815, 1555.018
764.104, 1692.027
765.392, 1609.010
766.680, 1694.279
767.969, 1629.932
769.257, 1701.186
770.544, 1661.924
771.832, 1483.104
773.119, 1643.818
774.406, 1617.412
775.693, 1486.359
776.980, 1558.555
778.267, 1563.072
779.553, 1579.125
780.839, 1466.922
782.125, 1438.043
783.411, 1596.789
784.697, 1531.520
785.982, 1629.836
787.267, 1713.656
788.552, 1437.020
789.837, 1593.422
791.122, 1583.170
792.406, 1492.104
793.690, 1462.184
794.974, 1164.785
796.258, 1277.680
797.542, 1099.113
798.825, 890.824
800.108, 1077.826
801.391, 899.389
802.674, 1022.877
803.957, 688.014
805.239, 573.352
806.522, 522.613
807.804, 319.805
809.085, 502.908
810.367, 215.939
811.649, 188.887
812.930, 329.746
814.211, 126.525
815.492, 160.215
816.772, 333.820
818.053, 78.344
819.333, 97.773
820.613, 76.113
821.893, 171.312
823.173, 151.250
824.452, 32.873
825.732, 23.270
827.011, 14.799
828.290, 94.889
829.568, 49.771
830.847, 102.066
832.125, 59.797
833.403, 57.658
834.681, 113.805
835.959, 16.328
837.236, 196.711
838.514, 48.812
839.791, 51.625
841.068, 78.588
842.345, 96.150
843.621, 142.678
844.898, 19.727
846.174, 178.932
847.450, 10.496
848.726, 69.902
850.001, 9.445
851.277, 46.902
852.552, 24.162
853.827, 42.328
855.102, 115.594
856.376, 93.320
857.651, 21.848
858.925, 92.875
860.199, 56.486
861.473, 111.025
862.746, 20.543
864.020, 50.219
865.293, 28.016
866.566, 38.928
867.839, 68.051
869.112, 75.947
870.384, 27.766
871.656, 29.500
872.928, 53.871
874.200, 66.570
875.472, 57.949
876.744, 64.699
878.015, 31.453
879.286, 35.523
880.557, 149.523
881.828, 39.451
883.098, 45.695
884.369, 122.053
885.639, 19.268
886.909, 26.676
888.178, 178.824
889.448, 13.260
890.717, 92.619
891.987, 215.914
893.256, 45.143
894.524, 200.305
895.793, 170.402
897.061, 245.438
898.330, 31.414
899.598, 306.326
900.865, 303.182
902.133, 52.984
903.401, 240.725
904.668, 231.424
905.935, 99.068
907.202, 195.654
908.468, 74.189
909.735, 347.672
911.001, 203.113
912.267, 198.547
913.533, 335.934
914.799, 339.293
916.064, 467.664
917.330, 173.992
918.595, 235.334
919.860, 198.684
921.124, 160.027
922.389, 277.377
923.653, 245.955
924.918, 242.709
926.182, 330.338
927.445, 217.621
928.709, 314.908
929.972, 351.162
931.236, 294.445
932.499, 435.691
933.761, 347.934
935.024, 313.148
936.286, 456.330
937.549, 480.490
938.811, 422.615
940.073, 535.725
941.334, 554.816
942.596, 426.871
943.857, 482.908
945.118, 562.910
946.379, 767.877
947.640, 520.811
948.900, 707.717
950.161, 678.586
951.421, 685.422
952.681, 644.215
953.940, 818.961
955.200, 832.666
956.459, 678.326
957.719, 891.941
958.978, 867.514
960.236, 802.238
961.495, 999.688
962.753, 964.896
964.012, 961.955
965.270, 932.562
966.527, 1140.162
967.785, 1179.984
969.043, 1115.500
970.300, 1286.537
971.557, 1292.766
972.814, 1222.723
974.071, 1268.424
975.327, 1322.014
976.583, 1312.926
977.840, 1419.727
979.095, 1501.061
980.351, 1486.096
981.607, 1698.479
982.862, 1483.357
984.117, 1770.924
985.372, 1532.617
986.627, 1731.736
987.882, 1842.066
989.136, 1606.094
990.390, 1766.434
991.644, 1759.623
992.898, 1848.156
994.152, 2035.092
995.405, 2030.670
996.659, 2182.316
997.912, 2112.705
999.165, 2153.006
1000.417, 2492.330
1001.670, 2355.500
1002.922, 2511.977
1004.174, 2484.998
1005.426, 2674.438
1006.678, 2420.158
1007.930, 2501.125
1009.181, 2548.846
1010.432, 2590.836
1011.683, 2659.225
1012.934, 2690.656
1014.185, 2784.713
1015.435, 2796.973
1016.685, 2857.693
1017.935, 2756.803
1019.185, 2826.695
1020.435, 2876.676
1021.684, 3017.240
1022.934, 3027.236
1024.183, 2951.777
1025.432, 2936.600
1026.680, 2889.043
1027.929, 2965.148
1029.177, 3121.920
1030.425, 3053.756
1031.673, 2972.256
1032.921, 3204.188
1034.169, 2909.926
1035.416, 3125.379
1036.663, 3103.965
1037.911, 3112.184
1039.157, 3150.949
1040.404, 3230.879
1041.650, 3013.344
1042.897, 3175.357
1044.143, 3253.678
1045.389, 3047.691
1046.634, 3234.613
1047.880, 3243.887
1049.125, 3359.277
1050.371, 3339.879
1051.615, 3437.678
1052.860, 3505.131
1054.105, 3640.559
1055.349, 3654.012
1056.593, 3832.955
1057.837, 3768.352
1059.081, 4083.285
1060.325, 4042.439
1061.568, 4067.010
1062.812, 4513.613
1064.055, 4278.041
1065.298, 4715.221
1066.540, 4558.441
1067.783, 4761.164
1069.025, 4929.203
1070.267, 4956.152
1071.509, 5171.002
1072.751, 5250.408
1073.993, 5130.924
1075.234, 5553.324
1076.475, 5530.951
1077.716, 5594.305
1078.957, 5789.963
1080.198, 5649.135
1081.438, 5803.877
1082.679, 5854.672
1083.919, 5723.545
1085.159, 6025.469
1086.398, 5792.459
1087.638, 6025.264
1088.877, 6186.109
1090.116, 5976.000
1091.355, 6042.898
1092.594, 6225.734
1093.833, 6114.570
1095.071, 6297.428
1096.309, 6044.293
1097.547, 6133.578
1098.785, 6055.523
1100.023, 5986.105
1101.260, 6044.852
1102.498, 5773.568
1103.735, 5926.254
1104.972, 5989.914
1106.208, 5811.553
1107.445, 5705.184
1108.681, 5763.814
1109.918, 5597.441
1111.154, 5678.082
1112.389, 5492.727
1113.625, 5215.420
1114.860, 5436.184
1116.096, 5212.020
1117.331, 5486.955
1118.566, 5251.965
1119.800, 4951.193
1121.035, 5161.576
1122.269, 4906.090
1123.503, 4942.777
1124.737, 5082.631
1125.971, 4502.598
1127.205, 4655.621
1128.438, 4536.797
1129.671, 4420.055
1130.904, 4397.426
1132.137, 4160.912
1133.370, 4310.547
1134.602, 4239.262
1135.834, 3846.062
1137.066, 4183.033
1138.298, 3798.189
1139.530, 3990.455
1140.762, 3836.787
1141.993, 3453.242
1143.224, 3849.809
1144.455, 3278.465
1145.686, 3358.197
1146.917, 3365.004
1148.147, 3023.877
1149.377, 3102.822
1150.607, 3060.828
1151.837, 2877.861
1153.067, 3110.967
1154.296, 2505.131
1155.526, 2588.350
1156.755, 2610.615
1157.984, 2457.934
1159.213, 2272.312
1160.441, 2373.750
1161.670, 2099.158
1162.898, 2263.617
1164.126, 1922.115
1165.354, 1740.648
1166.581, 1683.205
1167.809, 1588.797
1169.036, 1699.430
1170.263, 1811.102
1171.490, 1243.820
1172.717, 1504.576
1173.943, 2112.377
1175.170, 1259.293
1176.396, 1465.355
1177.622, 1014.570
1178.848, 1102.943
1180.073, 1027.490
1181.299, 747.209
1182.524, 880.109
1183.749, 675.188
1184.974, 612.443
1186.199, 757.875
1187.423, 584.479
1188.648, 529.258
1189.872, 613.209
1191.096, 391.334
1192.320, 480.633
1193.543, 470.105
1194.767, 211.744
1195.990, 274.557
1197.213, 129.541
1198.436, 145.703
1199.659, 502.053
1200.881, 105.408
1202.104, 359.334
1203.326, 260.287
1204.548, 147.463
1205.770, 273.877
1206.991, 49.451
1208.213, 28.494
1209.434, 262.736
1210.655, 16.701
1211.876, 242.201
1213.096, 231.457
1214.317, 55.078
1215.537, 317.070
1216.757, 29.447
1217.977, 57.229
1219.197, 202.424
1220.417, 82.938
1221.636, 273.164
1222.855, 189.758
1224.074, 89.658
1225.293, 134.244
1226.512, 7.301
1227.731, 206.148
1228.949, 83.211
1230.167, 5.877
1231.385, 238.881
1232.603, 345.156
1233.820, 44.695
1235.038, 428.928
1236.255, 146.924
1237.472, 204.645
1238.689, 379.422
1239.906, 31.355
1241.122, 225.998
1242.338, 122.547
1243.555, 0.818
1244.771, 259.424
1245.986, 0.000
##END=



