##NAMES=Chabazite-Ca
##RRUFFID=R050075
##IDEAL CHEMISTRY=Ca_2_Al_4_Si_8_O_24_&#183;13H_2_O
##LOCALITY=Victoria, Australia
##OWNER=RRUFF
##SOURCE=Rock Currier
##DESCRIPTION=White pseudohexagonal crystals
##STATUS=The identification of this mineral has been confirmed by X-ray diffraction and chemical analysis
##URL=rruff.info/R050075
##MEASURED CHEMISTRY=(Ca_0.79_Na_0.22_K_0.14_)_Σ=1.15_(Si_4.08_Al_1.92_)O_12_·6H_2_O
##PIN_ID=L00209
##ORIENTATION=Laser parallel to c* (0 0 1). Fiducial mark perpendicular to laser is parallel to b [0 1 0]
239.175, 0.000
240.545, 418.064
241.916, 118.041
243.286, 166.035
244.655, 192.232
246.025, 134.139
247.394, 504.518
248.763, 68.916
250.132, 466.818
251.501, 44.193
252.869, 250.793
254.237, 285.670
255.605, 153.635
256.973, 485.316
258.340, 137.754
259.708, 257.340
261.075, 26.016
262.442, 250.607
263.808, 237.131
265.175, 38.520
266.541, 385.600
267.907, 171.561
269.273, 259.963
270.639, 138.135
272.004, 8.916
273.369, 521.275
274.734, 11.816
276.099, 482.605
277.463, 201.520
278.828, 475.896
280.192, 581.713
281.556, 428.943
282.919, 849.553
284.283, 1239.518
285.646, 1317.812
287.009, 855.416
288.372, 1024.299
289.734, 1380.453
291.097, 1109.867
292.459, 1499.545
293.821, 1197.502
295.183, 1569.748
296.544, 1670.279
297.905, 1477.090
299.266, 2015.168
300.627, 1499.492
301.988, 2081.059
303.348, 1678.848
304.709, 1957.854
306.069, 2093.062
307.428, 1844.469
308.788, 2398.062
310.147, 2020.834
311.507, 2443.777
312.865, 2212.887
314.224, 2383.158
315.583, 2825.586
316.941, 2531.160
318.299, 3415.877
319.657, 3014.734
321.015, 3431.707
322.372, 3504.736
323.729, 3385.820
325.086, 4112.949
326.443, 3963.150
327.800, 4318.398
329.156, 4180.703
330.512, 4476.066
331.868, 4649.459
333.224, 4154.873
334.579, 4751.293
335.935, 4091.641
337.290, 4325.072
338.645, 4079.572
339.999, 3791.246
341.354, 3836.053
342.708, 3450.990
344.062, 3411.135
345.416, 3146.516
346.769, 2810.254
348.123, 2766.389
349.476, 2379.773
350.829, 2537.381
352.182, 1878.174
353.534, 2121.068
354.887, 1815.000
356.239, 1654.969
357.591, 1933.969
358.942, 1238.006
360.294, 1703.088
361.645, 1176.203
362.996, 1287.350
364.347, 1405.527
365.698, 1010.730
367.048, 1485.961
368.398, 1018.211
369.748, 1176.484
371.098, 1053.785
372.448, 1012.105
373.797, 1347.451
375.146, 857.826
376.495, 1290.234
377.844, 1045.668
379.192, 1098.133
380.540, 1292.637
381.889, 974.184
383.236, 1394.764
384.584, 1061.371
385.932, 1292.012
387.279, 1557.676
388.626, 1408.371
389.973, 1690.098
391.319, 1344.848
392.666, 1813.621
394.012, 1503.426
395.358, 1533.246
396.704, 1852.090
398.049, 1677.951
399.394, 1727.000
400.740, 1526.896
402.084, 1786.141
403.429, 1947.273
404.774, 1724.688
406.118, 2117.930
407.462, 1824.152
408.806, 2004.363
410.150, 2138.512
411.493, 2226.652
412.836, 2685.596
414.179, 2343.871
415.522, 2936.812
416.865, 2945.375
418.207, 3121.195
419.549, 3723.998
420.891, 3743.086
422.233, 4686.773
423.575, 4250.494
424.916, 4982.945
426.257, 5810.270
427.598, 5994.943
428.939, 7028.668
430.279, 7207.023
431.619, 8486.086
432.959, 8899.826
434.299, 9804.277
435.639, 11094.312
436.978, 11495.104
438.318, 13437.031
439.657, 14143.271
440.996, 15631.754
442.334, 17184.451
443.673, 17764.979
445.011, 19991.488
446.349, 20453.082
447.687, 23149.229
449.024, 23858.684
450.361, 25162.533
451.699, 27002.730
453.036, 26991.635
454.372, 28889.951
455.709, 28663.436
457.045, 29610.572
458.381, 30451.764
459.717, 29407.143
461.053, 30765.951
462.388, 29605.980
463.724, 29963.623
465.059, 29737.535
466.394, 28978.607
467.728, 30051.387
469.063, 29083.734
470.397, 30691.244
471.731, 30256.883
473.065, 29998.885
474.398, 31916.395
475.732, 31025.945
477.065, 32842.438
478.398, 32241.652
479.731, 32107.740
481.063, 32890.844
482.396, 30894.953
483.728, 30782.723
485.060, 29536.861
486.391, 27800.000
487.723, 26386.828
489.054, 24285.998
490.385, 23217.176
491.716, 20650.367
493.047, 19649.570
494.377, 17605.771
495.708, 15856.992
497.038, 15197.225
498.368, 12934.463
499.697, 12209.711
501.027, 10921.979
502.356, 9902.264
503.685, 9204.582
505.014, 7983.887
506.342, 7579.203
507.671, 6700.992
508.999, 6130.457
510.327, 5700.500
511.655, 4701.967
512.982, 4805.355
514.310, 4098.668
515.637, 3909.312
516.964, 3729.055
518.291, 2952.508
519.617, 3190.402
520.944, 2754.666
522.270, 2405.361
523.596, 2233.594
524.921, 2125.438
526.247, 2116.324
527.572, 1623.531
528.897, 1735.248
530.222, 1771.553
531.547, 1527.111
532.871, 1611.658
534.196, 1063.156
535.520, 1391.854
536.844, 1092.438
538.167, 1085.049
539.491, 1076.852
540.814, 846.793
542.137, 1009.453
543.460, 666.947
544.783, 862.617
546.105, 680.309
547.427, 524.143
548.749, 715.816
550.071, 357.484
551.393, 426.139
552.714, 423.781
554.035, 296.426
555.356, 488.053
556.677, 39.697
557.998, 421.324
559.318, 282.938
560.638, 18.566
561.958, 243.186
563.278, 47.801
564.597, 322.408
565.917, 167.045
567.236, 238.674
568.555, 323.303
569.874, 19.068
571.192, 286.557
572.511, 58.170
573.829, 124.775
575.147, 334.371
576.464, 58.039
577.782, 186.508
579.099, 99.041
580.416, 0.562
581.733, 276.062
583.050, 96.564
584.366, 222.053
585.683, 190.523
586.999, 106.994
588.315, 205.455
589.630, 33.059
590.946, 216.391
592.261, 21.820
593.576, 143.219
594.891, 206.598
596.206, 114.045
597.520, 151.240
598.834, 54.502
600.148, 77.689
601.462, 134.852
602.776, 128.016
604.089, 1.016
605.402, 117.998
606.715, 57.117
608.028, 93.314
609.341, 192.604
610.653, 154.041
611.965, 270.609
613.277, 64.369
614.589, 73.213
615.901, 184.148
617.212, 26.236
618.523, 111.391
619.834, 81.662
621.145, 57.967
622.456, 45.445
623.766, 211.061
625.076, 51.525
626.386, 161.947
627.696, 130.328
629.006, 108.668
630.315, 264.963
631.624, 153.219
632.933, 149.430
634.242, 168.600
635.551, 32.727
636.859, 310.799
638.167, 50.832
639.475, 321.816
640.783, 132.760
642.090, 305.654
643.398, 454.508
644.705, 134.318
646.012, 438.082
647.318, 298.803
648.625, 364.479
649.931, 533.111
651.237, 371.701
652.543, 521.797
653.849, 458.799
655.155, 374.641
656.460, 394.307
657.765, 344.703
659.070, 338.588
660.375, 317.596
661.679, 388.842
662.984, 376.156
664.288, 216.385
665.592, 300.670
666.895, 172.371
668.199, 312.527
669.502, 380.404
670.805, 132.090
672.108, 300.250
673.411, 280.572
674.713, 114.523
676.016, 253.434
677.318, 59.676
678.620, 307.373
679.921, 181.738
681.223, 275.496
682.524, 266.578
683.825, 203.496
685.126, 345.287
686.427, 216.164
687.727, 394.477
689.028, 470.123
690.328, 206.637
691.628, 401.943
692.927, 210.689
694.227, 468.814
695.526, 408.957
696.825, 401.246
698.124, 503.814
699.423, 279.867
700.721, 515.527
702.020, 822.303
703.318, 451.328
704.616, 604.715
705.913, 569.668
707.211, 621.240
708.508, 752.568
709.805, 567.820
711.102, 744.082
712.399, 597.777
713.695, 676.545
714.992, 908.770
716.288, 562.760
717.584, 816.244
718.879, 755.457
720.175, 823.080
721.470, 727.152
722.765, 891.406
724.060, 955.766
725.355, 796.502
726.649, 898.629
727.944, 1008.840
729.238, 778.967
730.532, 1100.266
731.825, 789.295
733.119, 936.867
734.412, 1073.240
735.705, 848.676
736.998, 1020.117
738.291, 985.543
739.584, 848.939
740.876, 1055.945
742.168, 956.984
743.460, 1155.461
744.752, 1168.158
746.043, 1143.779
747.334, 1249.881
748.626, 1122.697
749.916, 1379.385
751.207, 1342.131
752.498, 1431.500
753.788, 1643.018
755.078, 1384.750
756.368, 1483.244
757.658, 1543.340
758.947, 1490.148
760.237, 1655.137
761.526, 1654.910
762.815, 1752.666
764.104, 1678.314
765.392, 1712.432
766.680, 1870.008
767.969, 1602.760
769.257, 1773.867
770.544, 1724.193
771.832, 1617.309
773.119, 1824.207
774.406, 1580.684
775.693, 1506.943
776.980, 1489.457
778.267, 1499.656
779.553, 1548.652
780.839, 1440.906
782.125, 1494.545
783.411, 1532.971
784.697, 1322.230
785.982, 1497.066
787.267, 1363.357
788.552, 1307.557
789.837, 1346.762
791.122, 1225.199
792.406, 1204.178
793.690, 1091.145
794.974, 1054.521
796.258, 1019.193
797.542, 869.438
798.825, 831.619
800.108, 702.066
801.391, 750.115
802.674, 608.096
803.957, 455.014
805.239, 491.863
806.522, 307.648
807.804, 319.363
809.085, 346.010
810.367, 138.586
811.649, 216.084
812.930, 15.512
814.211, 80.838
815.492, 190.062
816.772, 162.236
818.053, 170.336
819.333, 21.887
820.613, 4.316
821.893, 146.812
823.173, 89.555
824.452, 67.043
825.732, 1.361
827.011, 32.814
828.290, 126.807
829.568, 1.988
830.847, 27.684
832.125, 40.906
833.403, 52.611
834.681, 106.703
835.959, 62.104
837.236, 59.621
838.514, 161.771
839.791, 39.564
841.068, 120.953
842.345, 141.859
843.621, 77.789
844.898, 3.223
846.174, 133.061
847.450, 21.645
848.726, 47.760
850.001, 179.459
851.277, 164.564
852.552, 68.211
853.827, 106.072
855.102, 99.896
856.376, 38.990
857.651, 118.658
858.925, 2.406
860.199, 62.066
861.473, 81.660
862.746, 24.812
864.020, 298.617
865.293, 100.012
866.566, 100.225
867.839, 42.396
869.112, 95.500
870.384, 80.477
871.656, 13.389
872.928, 47.230
874.200, 121.994
875.472, 130.645
876.744, 19.779
878.015, 12.285
879.286, 52.869
880.557, 62.455
881.828, 22.566
883.098, 21.916
884.369, 46.051
885.639, 104.129
886.909, 162.871
888.178, 87.141
889.448, 186.059
890.717, 89.932
891.987, 23.746
893.256, 149.500
894.524, 12.797
895.793, 30.156
897.061, 161.410
898.330, 21.072
899.598, 262.395
900.865, 155.811
902.133, 44.182
903.401, 361.502
904.668, 89.215
905.935, 259.012
907.202, 142.193
908.468, 142.355
909.735, 385.473
911.001, 24.449
912.267, 297.611
913.533, 172.643
914.799, 94.686
916.064, 303.707
917.330, 49.721
918.595, 241.754
919.860, 87.799
921.124, 192.885
922.389, 212.439
923.653, 334.025
924.918, 245.123
926.182, 220.205
927.445, 208.295
928.709, 371.385
929.972, 304.445
931.236, 264.498
932.499, 334.523
933.761, 267.520
935.024, 383.490
936.286, 330.434
937.549, 348.352
938.811, 528.252
940.073, 442.129
941.334, 531.973
942.596, 398.791
943.857, 400.574
945.118, 657.316
946.379, 580.025
947.640, 575.699
948.900, 720.334
950.161, 437.930
951.421, 885.488
952.681, 684.012
953.940, 791.498
955.200, 859.945
956.459, 648.359
957.719, 942.734
958.978, 691.520
960.236, 791.324
961.495, 1042.207
962.753, 666.184
964.012, 805.463
965.270, 913.953
966.527, 875.354
967.785, 1048.436
969.043, 979.373
970.300, 1231.318
971.557, 1107.127
972.814, 918.445
974.071, 1271.227
975.327, 1238.217
976.583, 910.322
977.840, 1330.879
979.095, 1095.197
980.351, 1303.812
981.607, 1367.387
982.862, 1005.561
984.117, 1672.199
985.372, 1259.096
986.627, 1411.525
987.882, 1673.559
989.136, 1498.689
990.390, 1713.441
991.644, 1616.900
992.898, 1653.418
994.152, 1808.537
995.405, 1607.719
996.659, 2058.033
997.912, 1932.844
999.165, 1819.205
1000.417, 2300.477
1001.670, 2060.539
1002.922, 2414.254
1004.174, 2393.420
1005.426, 2151.902
1006.678, 2353.211
1007.930, 2270.203
1009.181, 2120.766
1010.432, 2334.699
1011.683, 2227.945
1012.934, 2539.375
1014.185, 2463.814
1015.435, 2442.180
1016.685, 2672.045
1017.935, 2578.607
1019.185, 2792.816
1020.435, 2861.197
1021.684, 2619.721
1022.934, 3038.754
1024.183, 2907.109
1025.432, 2804.160
1026.680, 3054.973
1027.929, 2712.621
1029.177, 2819.830
1030.425, 2872.592
1031.673, 2631.215
1032.921, 3154.600
1034.169, 2779.023
1035.416, 2788.664
1036.663, 2928.580
1037.911, 2791.775
1039.157, 3049.688
1040.404, 3065.049
1041.650, 2901.043
1042.897, 3184.793
1044.143, 2829.113
1045.389, 2981.352
1046.634, 3249.883
1047.880, 2917.377
1049.125, 3357.504
1050.371, 3161.510
1051.615, 3191.115
1052.860, 3420.305
1054.105, 3164.689
1055.349, 3467.361
1056.593, 3599.605
1057.837, 3326.438
1059.081, 4034.307
1060.325, 3563.770
1061.568, 3950.561
1062.812, 4353.129
1064.055, 3802.883
1065.298, 4527.875
1066.540, 4252.607
1067.783, 4112.977
1069.025, 4634.805
1070.267, 4393.238
1071.509, 4644.020
1072.751, 4938.971
1073.993, 4602.262
1075.234, 5147.406
1076.475, 5051.535
1077.716, 4976.547
1078.957, 5430.727
1080.198, 5382.168
1081.438, 5415.719
1082.679, 5396.062
1083.919, 5052.049
1085.159, 5504.410
1086.398, 5150.748
1087.638, 5272.586
1088.877, 5573.840
1090.116, 5087.078
1091.355, 5556.367
1092.594, 5595.990
1093.833, 5292.105
1095.071, 5696.197
1096.309, 5172.266
1097.547, 5402.312
1098.785, 5446.334
1100.023, 4933.336
1101.260, 5482.328
1102.498, 5053.309
1103.735, 5083.307
1104.972, 5553.324
1106.208, 4930.346
1107.445, 5217.414
1108.681, 5134.553
1109.918, 4860.770
1111.154, 5171.031
1112.389, 4649.352
1113.625, 4551.717
1114.860, 4898.105
1116.096, 4305.652
1117.331, 4674.342
1118.566, 4704.217
1119.800, 4261.250
1121.035, 4658.414
1122.269, 4208.793
1123.503, 4299.283
1124.737, 4492.914
1125.971, 3959.607
1127.205, 4366.363
1128.438, 4056.207
1129.671, 3785.188
1130.904, 4110.273
1132.137, 3658.465
1133.370, 3811.775
1134.602, 3883.215
1135.834, 3203.783
1137.066, 4125.449
1138.298, 3471.195
1139.530, 3286.010
1140.762, 3706.891
1141.993, 2861.840
1143.224, 3422.871
1144.455, 2922.002
1145.686, 3007.223
1146.917, 3119.508
1148.147, 2738.861
1149.377, 2621.305
1150.607, 2951.803
1151.837, 2482.377
1153.067, 2732.957
1154.296, 2581.590
1155.526, 1942.275
1156.755, 2571.012
1157.984, 2116.766
1159.213, 1809.553
1160.441, 2308.367
1161.670, 1726.213
1162.898, 2010.082
1164.126, 1849.957
1165.354, 1448.842
1166.581, 1769.801
1167.809, 1323.889
1169.036, 1442.115
1170.263, 1709.490
1171.490, 997.020
1172.717, 1459.715
1173.943, 1278.580
1175.170, 698.619
1176.396, 1308.840
1177.622, 806.248
1178.848, 951.844
1180.073, 1094.627
1181.299, 571.590
1182.524, 1132.738
1183.749, 660.064
1184.974, 357.578
1186.199, 942.281
1187.423, 302.170
1188.648, 472.248
1189.872, 782.516
1191.096, 235.982
1192.320, 667.652
1193.543, 342.529
1194.767, 28.625
1195.990, 557.941
1197.213, 274.498
1198.436, 169.311
1199.659, 790.389
1200.881, 79.240
1202.104, 572.449
1203.326, 346.484
1204.548, 40.115
1205.770, 520.672
1206.991, 115.854
1208.213, 186.451
1209.434, 540.477
1210.655, 80.049
1211.876, 478.893
1213.096, 511.330
1214.317, 12.289
1215.537, 753.807
1216.757, 96.924
1217.977, 259.684
1219.197, 658.137
1220.417, 3.109
1221.636, 447.764
1222.855, 590.303
1224.074, 41.861
1225.293, 643.570
1226.512, 159.832
1227.731, 158.555
1228.949, 576.902
1230.167, 97.615
1231.385, 467.832
1232.603, 623.312
1233.820, 4.705
1235.038, 818.412
1236.255, 320.279
1237.472, 99.590
1238.689, 0.000
##END=



