##NAMES=Chloritoid
##RRUFFID=R050334
##IDEAL CHEMISTRY=Fe^2+^Al_2_OSiO_4_(OH)_2_
##LOCALITY=Selçuk, Mugla Province, Turkey
##OWNER=RRUFF
##SOURCE=George Rossman
##DESCRIPTION=Dark greenish-black foliated cleavage fragments
##STATUS=The identification of this mineral is confirmed by single-crystal X-ray diffraction and chemical analysis.
##URL=rruff.info/R050334
##MEASURED CHEMISTRY=(Fe^2+^_1.84_Mg_0.12_Mn_0.04_)_Σ=2_(Al_3.95_Fe^3+^_0.05_)_Σ=4_Si_2.00_O_10_(OH)_4_ ; H not measured but estimated by difference and stoichiometry
##PIN_ID=M00213
##ORIENTATION=Laser parallel to a* (1 0 0). Fiducial mark perpendicular to laser is parallel to -b [0 -1 0]
89.77700, 0.0000000E+00
91.01200, 122.3699
92.24600, 5.870361
93.48000, 65.63794
94.71400, 57.45654
95.94800, 216.2405
97.18200, 624.4900
98.41600, 1069.269
99.64900, 2025.858
100.8830, 2812.230
102.1160, 4459.300
103.3490, 6068.093
104.5820, 7723.425
105.8150, 7747.397
107.0470, 9694.925
108.2800, 7146.224
109.5120, 5682.739
110.7440, 4686.771
111.9760, 4035.683
113.2080, 3741.314
114.4400, 2958.101
115.6710, 2445.815
116.9030, 1823.660
118.1340, 1441.856
119.3650, 1158.440
120.5960, 951.8682
121.8270, 623.1211
123.0580, 584.5811
124.2880, 399.0037
125.5190, 442.2954
126.7490, 462.1150
127.9790, 462.2095
129.2090, 336.0627
130.4390, 164.9683
131.6680, 114.9661
132.8980, 117.6023
134.1270, 259.0544
135.3560, 359.0513
136.5850, 484.5105
137.8140, 387.1191
139.0430, 244.8623
140.2710, 120.7273
141.5000, 148.7019
142.7280, 136.7761
143.9560, 178.9287
145.1840, 191.1360
146.4120, 35.39258
147.6390, 145.6970
148.8670, 304.0459
150.0940, 353.4387
151.3210, 128.8735
152.5490, 0.6499020
153.7750, 56.86743
155.0020, 141.5752
156.2290, 166.4033
157.4550, 200.2747
158.6810, 98.57007
159.9080, 97.80200
161.1340, 27.89551
162.3590, 202.5269
163.5850, 137.1340
164.8110, 89.81299
166.0360, 137.5618
167.2610, 252.3823
168.4860, 276.2698
169.7110, 182.2163
170.9360, 132.2141
172.1610, 107.2551
173.3850, 136.3306
174.6100, 188.4294
175.8340, 86.54443
177.0580, 206.6699
178.2820, 120.8010
179.5050, 191.9338
180.7290, 249.0520
181.9520, 317.1399
183.1760, 362.1968
184.3990, 478.1973
185.6220, 630.1353
186.8450, 693.0486
188.0670, 797.9404
189.2900, 934.7896
190.5120, 1133.602
191.7340, 1329.344
192.9560, 1591.110
194.1780, 1844.832
195.4000, 2095.486
196.6220, 2443.901
197.8430, 2920.000
199.0640, 3318.935
200.2860, 3581.865
201.5070, 3643.792
202.7270, 3328.730
203.9480, 3303.677
205.1690, 3472.626
206.3890, 3539.579
207.6090, 3757.539
208.8290, 3764.510
210.0490, 3837.496
211.2690, 3771.497
212.4890, 3668.514
213.7080, 3347.546
214.9280, 3214.594
216.1470, 2938.657
217.3660, 2819.736
218.5850, 2690.830
219.8030, 2391.946
221.0220, 2238.965
222.2400, 2189.630
223.4590, 2065.594
224.6770, 2028.169
225.8950, 1957.469
227.1120, 1977.311
228.3300, 1972.830
229.5480, 2030.089
230.7650, 2084.319
231.9820, 2381.569
233.1990, 2619.835
234.4160, 3056.122
235.6330, 3546.426
236.8490, 4527.441
238.0660, 5628.938
239.2820, 6935.915
240.4980, 8023.545
241.7140, 8938.174
242.9300, 9440.777
244.1460, 9807.330
245.3610, 10235.83
246.5770, 10664.25
247.7920, 10956.57
249.0070, 11171.79
250.2220, 11265.93
251.4370, 10639.97
252.6510, 9741.916
253.8660, 8210.733
255.0800, 6808.408
256.2940, 6104.953
257.5080, 5178.303
258.7220, 3367.504
259.9360, 2805.630
261.1490, 2466.682
262.3630, 1749.625
263.5760, 1449.484
264.7890, 1438.235
266.0020, 1370.938
267.2150, 1448.599
268.4270, 1690.131
269.6400, 1914.161
270.8520, 2248.740
272.0640, 2668.141
273.2760, 3005.555
274.4880, 3203.971
275.7000, 3581.190
276.9120, 3770.419
278.1230, 4035.038
279.3340, 4413.793
280.5450, 4464.830
281.7560, 4612.331
282.9670, 4572.858
284.1780, 4458.407
285.3880, 4007.560
286.5980, 3383.874
287.8090, 2905.536
289.0190, 2523.155
290.2290, 2141.184
291.4380, 1865.189
292.6480, 1653.446
293.8570, 1471.364
295.0670, 1324.078
296.2760, 1284.824
297.4850, 1237.761
298.6930, 1167.847
299.9020, 1224.095
301.1110, 1104.599
302.3190, 1189.653
303.5270, 1175.656
304.7350, 1102.096
305.9430, 1114.637
307.1510, 1162.623
308.3580, 1115.219
309.5660, 1140.561
310.7730, 1192.561
311.9800, 1182.941
313.1870, 1130.820
314.3940, 1211.752
315.6010, 1068.374
316.8070, 1193.802
318.0130, 1231.099
319.2200, 1468.578
320.4260, 1719.291
321.6310, 2037.485
322.8370, 2440.307
324.0430, 2734.785
325.2480, 2970.577
326.4540, 2987.593
327.6590, 2913.616
328.8640, 2946.649
330.0680, 3013.689
331.2730, 2986.739
332.4780, 3128.798
333.6820, 2937.867
334.8860, 2843.944
336.0900, 2492.031
337.2940, 2062.128
338.4980, 1518.235
339.7010, 1160.352
340.9050, 818.4788
342.1080, 595.6169
343.3110, 371.7678
344.5140, 244.9319
345.7170, 156.1094
346.9200, 123.3005
348.1220, 56.50439
349.3240, 89.27832
350.5270, 169.0696
351.7290, 187.3467
352.9310, 230.3687
354.1320, 176.6479
355.3340, 224.5791
356.5350, 182.5503
357.7370, 191.5513
358.9380, 149.1343
360.1390, 139.2402
361.3400, 77.71533
362.5400, 74.79248
363.7410, 37.41968
364.9410, 15.93945
366.1410, 28.93701
367.3410, 98.71240
368.5410, 149.4045
369.7410, 110.0198
370.9400, 158.5913
372.1400, 359.1494
373.3390, 468.7119
374.5380, 701.2910
375.7370, 937.8867
376.9360, 1358.499
378.1350, 1561.127
379.3330, 1623.772
380.5310, 1650.433
381.7300, 1678.091
382.9280, 1555.748
384.1260, 1396.407
385.3230, 1125.064
386.5210, 977.7185
387.7180, 930.3721
388.9160, 761.8530
390.1130, 730.6741
391.3100, 578.3247
392.5060, 493.9797
393.7030, 407.6582
394.9000, 337.3682
396.0960, 287.1047
397.2920, 242.8916
398.4880, 169.7275
399.6840, 140.6106
400.8800, 182.5298
402.0750, 175.5034
403.2710, 221.5422
404.4660, 231.6433
405.6610, 296.7900
406.8560, 304.0007
408.0510, 398.2581
409.2450, 301.5740
410.4400, 190.9380
411.6340, 248.3787
412.8280, 279.8806
414.0220, 272.4329
415.2160, 273.0371
416.4100, 314.6726
417.6030, 356.3579
418.7970, 376.0791
419.9900, 355.8403
421.1830, 274.6418
422.3760, 340.4663
423.5690, 250.3079
424.7610, 265.1614
425.9540, 201.0247
427.1460, 112.8970
428.3380, 149.7783
429.5300, 96.66992
430.7220, 62.57520
431.9140, 104.4929
433.1050, 86.42261
434.2970, 29.36304
435.4880, 115.3135
436.6790, 46.28247
437.8700, 112.2620
439.0610, 148.2488
440.2510, 291.2422
441.4420, 373.2456
442.6320, 509.2725
443.8220, 537.3125
445.0120, 638.4111
446.2020, 750.5750
447.3910, 703.8120
448.5810, 783.0957
449.7700, 635.4250
450.9600, 710.7681
452.1490, 585.1172
453.3370, 729.4736
454.5260, 765.8389
455.7150, 731.2104
456.9030, 702.5867
458.0910, 816.9670
459.2800, 931.3525
460.4670, 1029.744
461.6550, 1153.143
462.8430, 1286.546
464.0300, 1367.955
465.2180, 1686.369
466.4050, 1903.788
467.5920, 2153.210
468.7790, 2267.637
469.9650, 2513.067
471.1520, 2586.499
472.3380, 2703.932
473.5250, 2889.368
474.7110, 2868.805
475.8970, 2888.244
477.0820, 2965.684
478.2680, 2983.229
479.4540, 3025.568
480.6390, 3095.011
481.8240, 3127.455
483.0090, 3197.899
484.1940, 3473.344
485.3780, 3592.788
486.5630, 3990.233
487.7470, 4399.677
488.9320, 4844.121
490.1160, 5246.617
491.3000, 5623.000
492.4830, 6079.882
493.6670, 6465.681
494.8500, 6873.354
496.0340, 7506.346
497.2170, 8071.147
498.4000, 8771.426
499.5820, 9509.192
500.7650, 10263.29
501.9480, 10971.11
503.1300, 11530.38
504.3120, 11619.73
505.4940, 11522.72
506.6760, 11114.39
507.8580, 10476.34
509.0390, 9771.507
510.2210, 9062.926
511.4020, 8447.593
512.5830, 8191.621
513.7640, 7855.733
514.9450, 7929.353
516.1250, 8234.992
517.3060, 8724.468
518.4860, 9543.944
519.6660, 10976.42
520.8460, 12260.89
522.0260, 13437.36
523.2060, 14402.84
524.3850, 15225.90
525.5650, 15749.77
526.7440, 16370.24
527.9230, 16686.71
529.1020, 16835.17
530.2810, 16660.63
531.4590, 16449.09
532.6380, 15953.82
533.8160, 15468.25
534.9940, 14885.87
536.1720, 15299.34
537.3500, 16095.63
538.5270, 18294.41
539.7050, 22064.73
540.8820, 27776.58
542.0590, 34878.53
543.2360, 42109.80
544.4130, 47488.36
545.5900, 50068.24
546.7660, 51545.97
547.9430, 52466.16
549.1190, 53710.97
550.2950, 54806.55
551.4710, 55918.63
552.6470, 54184.45
553.8220, 48794.47
554.9980, 39762.38
556.1730, 30268.20
557.3480, 21712.97
558.5230, 15467.99
559.6980, 11268.92
560.8730, 8606.521
562.0470, 6902.106
563.2220, 5636.249
564.3960, 4595.415
565.5700, 3972.536
566.7440, 3551.682
567.9170, 3204.752
569.0910, 2867.800
570.2640, 2692.827
571.4380, 2696.831
572.6110, 2683.812
573.7840, 2581.771
574.9570, 2788.708
576.1290, 3123.620
577.3020, 3457.510
578.4740, 4064.376
579.6460, 5246.218
580.8180, 7060.038
581.9900, 10380.83
583.1620, 16153.60
584.3330, 24720.35
585.5040, 33303.07
586.6760, 37966.77
587.8470, 40265.43
589.0180, 41189.09
590.1880, 40552.70
591.3590, 38560.29
592.5290, 37774.87
593.7000, 37927.40
594.8700, 35717.91
596.0400, 30227.40
597.2090, 22864.86
598.3790, 15908.28
599.5490, 10807.69
600.7180, 7849.060
601.8870, 5879.407
603.0560, 4586.726
604.2250, 3631.018
605.3940, 3117.279
606.5620, 2626.513
607.7300, 2194.719
608.8990, 1957.896
610.0670, 1698.043
611.2350, 1463.162
612.4020, 1287.252
613.5700, 1282.313
614.7370, 1125.201
615.9050, 1024.544
617.0720, 951.3188
618.2390, 828.2620
619.4060, 672.1750
620.5720, 630.0586
621.7390, 691.2471
622.9050, 548.2192
624.0710, 532.9480
625.2370, 427.2922
626.4030, 363.0256
627.5690, 385.7278
628.7340, 227.4001
629.9000, 237.0415
631.0650, 276.6526
632.2300, 167.2332
633.3950, 192.0127
634.5600, 199.5955
635.7240, 190.1953
636.8890, 112.8225
638.0530, 79.45923
639.2170, 90.11353
640.3810, 99.77539
641.5450, 99.82715
642.7080, 118.3196
643.8720, 102.9910
645.0350, 77.81787
646.1980, 93.47705
647.3610, 37.48950
648.5240, 95.03638
649.6870, 19.54419
650.8490, 37.99097
652.0120, 8.384033
653.1740, 55.71069
654.3360, 153.2510
655.4980, 148.4949
656.6600, 299.7039
657.8210, 303.8801
658.9830, 413.0237
660.1440, 416.1343
661.3050, 326.2122
662.4660, 282.2571
663.6270, 355.2690
664.7870, 307.2478
665.9480, 314.1960
667.1080, 316.1113
668.2680, 276.9944
669.4280, 247.8445
670.5880, 182.6699
671.7480, 126.4622
672.9070, 82.21924
674.0670, 14.06714
675.2260, 43.70068
676.3850, 24.89453
677.5440, 112.4429
678.7030, 105.1235
679.8610, 97.93311
681.0200, 51.86719
682.1780, 120.9016
683.3360, 158.0730
684.4940, 147.3997
685.6520, 81.87671
686.8090, 153.4692
687.9670, 84.21436
689.1240, 129.0757
690.2810, 90.07642
691.4380, 198.1956
692.5950, 138.4893
693.7520, 89.92603
694.9080, 89.47998
696.0650, 10.15015
697.2210, 78.89429
698.3770, 30.74829
699.5330, 42.68555
700.6880, 27.71240
701.8440, 57.17993
702.9990, 106.0305
704.1550, 107.8491
705.3100, 95.63647
706.4650, 218.3916
707.6190, 334.1167
708.7740, 376.8115
709.9290, 338.4763
711.0830, 396.1116
712.2370, 502.7173
713.3910, 656.2939
714.5450, 718.8413
715.6980, 835.3596
716.8520, 906.8494
718.0050, 1189.311
719.1580, 1356.744
720.3110, 1511.149
721.4640, 1732.272
722.6170, 1874.328
723.7700, 2068.198
724.9220, 2196.493
726.0740, 2287.762
727.2260, 2444.004
728.3780, 2527.218
729.5300, 2543.407
730.6810, 2449.570
731.8330, 2598.708
732.9840, 2568.819
734.1350, 2614.906
735.2860, 2440.968
736.4370, 2496.005
737.5880, 2406.018
738.7380, 2270.007
739.8880, 2168.971
741.0390, 2021.913
742.1890, 1863.166
743.3380, 1715.725
744.4880, 1514.597
745.6380, 1355.446
746.7870, 1169.924
747.9360, 976.0781
749.0850, 847.8611
750.2340, 724.6230
751.3830, 578.3635
752.5310, 473.0835
753.6800, 467.7830
754.8280, 374.4619
755.9760, 361.1211
757.1240, 355.7605
758.2720, 185.3809
759.4190, 189.9819
760.5670, 127.5642
761.7140, 140.1279
762.8610, 124.6736
764.0080, 155.2014
765.1550, 109.7983
766.3020, 109.2197
767.4480, 22.68066
768.5950, 73.14014
769.7410, 28.58350
770.8870, 4.916992
772.0330, 36.32471
773.1780, 20.71631
774.3240, 78.09326
775.4690, 129.0405
776.6140, 54.51221
777.7590, 32.14404
778.9040, 27.11035
780.0490, 37.41162
781.1940, 64.45166
782.3380, 2.117188
783.4820, 7.343750
784.6260, 53.16992
785.7700, 79.82617
786.9140, 30.24316
788.0580, 94.44824
789.2010, 56.38770
790.3450, 41.95654
791.4880, 3.569336
792.6310, 58.38525
793.7730, 28.31348
794.9160, 139.3950
796.0590, 207.4678
797.2010, 94.53223
798.3430, 202.5894
799.4850, 148.6387
800.6270, 234.6812
801.7690, 139.7173
802.9100, 159.2017
804.0520, 293.2480
805.1930, 230.4453
806.3340, 293.4590
807.4750, 308.2920
808.6160, 402.2969
809.7560, 360.2891
810.8970, 466.3052
812.0370, 348.3662
813.1770, 462.3506
814.3170, 575.4922
815.4570, 531.1377
816.5960, 614.2456
817.7360, 660.8115
818.8750, 792.2798
820.0140, 870.4282
821.1530, 1038.262
822.2920, 1036.789
823.4310, 1222.454
824.5690, 1306.659
825.7070, 1433.245
826.8460, 1683.055
827.9840, 1796.356
829.1220, 1950.920
830.2590, 2202.283
831.3970, 2327.752
832.5340, 2566.311
833.6710, 2773.913
834.8080, 2982.268
835.9450, 3115.715
837.0820, 3300.484
838.2190, 3407.271
839.3550, 3551.498
840.4910, 3728.703
841.6270, 3810.949
842.7630, 3988.173
843.8990, 4099.471
845.0350, 4368.793
846.1700, 4551.136
847.3060, 4739.502
848.4410, 4996.890
849.5760, 5179.304
850.7100, 5400.741
851.8450, 5777.203
852.9800, 6216.689
854.1140, 6703.202
855.2480, 7066.739
856.3820, 7550.303
857.5160, 8057.892
858.6500, 8696.511
859.7830, 9449.154
860.9170, 10216.82
862.0500, 11353.52
863.1830, 12486.25
864.3160, 13800.01
865.4480, 15536.79
866.5810, 17237.61
867.7130, 19276.45
868.8460, 21468.32
869.9780, 23802.23
871.1100, 26319.16
872.2410, 28652.13
873.3730, 30301.13
874.5050, 32088.15
875.6360, 32854.22
876.7670, 33186.31
877.8980, 32680.43
879.0290, 31641.59
880.1590, 30257.79
881.2900, 28052.01
882.4200, 25846.28
883.5500, 23329.57
884.6800, 20976.91
885.8100, 18540.27
886.9400, 16496.68
888.0690, 14815.11
889.1990, 13531.59
890.3280, 12271.10
891.4570, 11377.65
892.5860, 11032.24
893.7140, 10871.87
894.8430, 10822.53
895.9710, 10906.23
897.1000, 11199.97
898.2280, 11430.75
899.3560, 11486.57
900.4830, 10976.43
901.6110, 10764.33
902.7380, 10377.27
903.8660, 9460.253
904.9930, 8681.273
906.1200, 7814.337
907.2460, 6976.237
908.3730, 6148.387
909.5000, 5418.654
910.6260, 4743.826
911.7520, 4082.112
912.8780, 3550.449
914.0040, 3043.832
915.1290, 2619.886
916.2550, 2288.555
917.3800, 1884.101
918.5050, 1649.519
919.6300, 1326.140
920.7550, 1133.426
921.8800, 940.2036
923.0040, 813.0366
924.1290, 731.9302
925.2530, 644.9038
926.3770, 559.9482
927.5010, 479.7983
928.6250, 354.9600
929.7480, 273.1758
930.8720, 166.4541
931.9950, 118.2871
933.1180, 90.18506
934.2410, 60.64014
935.3640, 54.14551
936.4860, 70.73096
937.6090, 48.62646
938.7310, 6.2500000E-02
939.8530, 24.18604
940.9750, 41.62061
942.0970, 123.5034
943.2180, 20.40625
944.3400, 33.63184
945.4610, 51.37939
946.5820, 30.54346
947.7030, 0.6074220
948.8240, 71.84131
949.9450, 116.1582
951.0650, 162.2061
952.1860, 135.1025
953.3060, 255.7266
954.4260, 290.4360
955.5460, 338.2510
956.6650, 453.1797
957.7850, 424.2202
958.9040, 551.3550
960.0230, 568.6035
961.1420, 602.9487
962.2610, 615.4121
963.3800, 718.9741
964.4990, 654.6631
965.6170, 584.4653
966.7350, 675.3643
967.8530, 578.3604
968.9710, 473.4424
970.0890, 382.6177
971.2070, 427.8735
972.3240, 364.2129
973.4410, 338.6338
974.5580, 359.1162
975.6750, 299.6543
976.7920, 316.2510
977.9090, 167.9043
979.0250, 193.6177
980.1410, 180.3940
981.2580, 173.2256
982.3740, 282.1177
983.4890, 331.0635
984.6050, 333.8774
985.7200, 193.1265
986.8360, 338.2393
987.9510, 260.4062
989.0660, 239.6279
990.1810, 320.9038
991.2950, 294.2344
992.4100, 229.6187
993.5240, 226.0576
994.6390, 230.5508
995.7530, 181.0981
996.8660, 273.7241
997.9800, 256.1484
999.0940, 255.7822
1000.207, 294.8296
1001.320, 231.6494
1002.433, 236.5249
1003.546, 197.4541
1004.659, 305.4375
1005.772, 207.4736
1006.884, 123.5645
1007.996, 80.71484
1009.108, 192.9194
1010.220, 179.1890
1011.332, 166.5127
1012.444, 188.8906
1013.555, 116.3276
1014.666, 222.8389
1015.777, 261.4048
1016.888, 147.0259
1017.999, 129.7021
1019.110, 162.4316
1020.220, 158.2178
1021.331, 187.0610
1022.441, 168.1934
1023.551, 219.9199
1024.661, 136.9312
1025.770, 134.9956
1026.880, 143.1113
1027.989, 145.2842
1029.098, 108.5083
1030.207, 215.7861
1031.316, 184.1177
1032.425, 168.5093
1033.533, 224.9580
1034.642, 222.4702
1035.750, 249.0435
1036.858, 277.6733
1037.966, 294.3623
1039.073, 227.1831
1040.181, 275.9966
1041.288, 277.4419
1042.396, 214.1846
1043.503, 336.1348
1044.610, 365.1353
1045.716, 409.2749
1046.823, 290.3804
1047.929, 504.2583
1049.036, 375.9536
1050.142, 375.6992
1051.248, 433.0303
1052.353, 382.2759
1053.459, 454.7100
1054.564, 470.3682
1055.670, 514.8755
1056.775, 527.4629
1057.880, 499.4009
1058.985, 506.2661
1060.089, 557.8125
1061.194, 672.5874
1062.298, 701.6006
1063.402, 707.6797
1064.506, 738.7695
1065.610, 737.4844
1066.713, 826.3301
1067.817, 790.3687
1068.920, 771.6313
1070.023, 907.4331
1071.126, 957.1499
1072.229, 973.3350
1073.332, 1053.764
1074.435, 1069.270
1075.537, 1101.888
1076.639, 1290.264
1077.741, 1316.421
1078.843, 1570.011
1079.945, 1640.279
1081.046, 1720.957
1082.148, 1978.258
1083.249, 2138.871
1084.350, 2315.980
1085.451, 2438.670
1086.551, 2525.396
1087.652, 2711.169
1088.752, 2669.978
1089.853, 2770.821
1090.953, 2607.698
1092.053, 2390.611
1093.152, 2294.957
1094.252, 2130.230
1095.351, 1903.700
1096.451, 1821.052
1097.550, 1634.162
1098.649, 1298.268
1099.748, 1183.576
1100.846, 1090.150
1101.945, 871.3438
1103.043, 759.5654
1104.141, 718.9570
1105.239, 514.7554
1106.337, 556.5625
1107.434, 456.8931
1108.532, 356.2275
1109.629, 379.6094
1110.726, 347.5098
1111.823, 314.8511
1112.920, 273.3901
1114.017, 313.1250
1115.113, 335.6309
1116.210, 316.9868
1117.306, 352.5454
1118.402, 355.1265
1119.498, 317.7300
1120.593, 328.3560
1121.689, 288.0044
1122.784, 293.6763
1123.879, 308.3701
1124.974, 248.0850
1126.069, 217.8208
1127.164, 180.5771
1128.259, 185.3555
1129.353, 166.1543
1130.447, 55.97314
1131.541, 139.2983
1132.635, 99.15479
1133.729, 140.3047
1134.822, 161.2017
1135.916, 229.1162
1137.009, 146.0493
1138.102, 120.0171
1139.195, 170.1973
1140.288, 121.4868
1141.380, 85.01123
1142.473, 49.07812
1143.565, 54.68994
1144.657, 85.76758
1145.749, 74.47070
1146.841, 99.98486
1147.932, 71.60303
1149.024, 158.0742
1150.115, 100.2607
1151.206, 90.39551
1152.297, 173.3687
1153.388, 50.30127
1154.479, 44.46826
1155.569, 16.38037
1156.659, 91.75049
1157.750, 63.95215
1158.839, 61.55225
1159.929, 25.33789
1161.019, 34.87305
1162.108, 40.73926
1163.198, 45.01758
1164.287, 77.49365
1165.376, 132.5713
1166.465, 20.13330
1167.553, 31.88770
1168.642, 70.88916
1169.730, 0.1303710
1170.818, 3.350586
1171.906, 33.70850
1172.994, 36.98438
1174.082, 49.50342
1175.170, 113.8931
1176.257, 1.554199
1177.344, 10.86475
1178.431, 16.28223
1179.518, 33.66602
1180.605, 54.36768
1181.691, 27.46777
1182.778, 39.90674
1183.864, 45.30811
1184.950, 84.23486
1186.036, 17.97119
1187.122, 25.28271
1188.207, 102.0903
1189.292, 20.79736
1190.378, 53.63867
1191.463, 19.85010
1192.548, 19.01904
1193.632, 58.90088
1194.717, 37.77734
1195.801, 28.71289
1196.886, 49.47998
1197.970, 18.63379
1199.054, 125.4912
1200.137, 24.01270
1201.221, 78.13770
1202.305, 47.84863
1203.388, 15.58740
1204.471, 68.59961
1205.554, 14.52686
1206.637, 63.85107
1207.719, 82.37744
1208.802, 27.21875
1209.884, 27.28125
1210.966, 15.95166
1212.048, 1.912598
1213.130, 79.52002
1214.212, 11.11377
1215.293, 64.99170
1216.374, 74.33057
1217.456, 116.7759
1218.536, 90.41602
1219.617, 84.47070
1220.698, 144.8604
1221.778, 48.57031
1222.859, 17.46338
1223.939, 19.82568
1225.019, 17.32373
1226.099, 22.94434
1227.178, 5.551270
1228.258, 57.31055
1229.337, 30.88525
1230.417, 17.55273
1231.496, 72.97559
1232.574, 122.4922
1233.653, 36.32129
1234.732, 23.81152
1235.810, 25.28418
1236.888, 86.73975
1237.966, 14.18213
1239.044, 61.60205
1240.122, 5.008789
1241.199, 1.611816
1242.277, 48.73633
1243.354, 12.10986
1244.431, 96.43945
1245.508, 23.97461
1246.585, 67.24512
1247.661, 110.5010
1248.738, 93.74170
1249.814, 120.0649
1250.890, 117.5142
1251.966, 118.9526
1253.042, 113.3213
1254.117, 87.48486
1255.193, 93.69775
1256.268, 90.57324
1257.343, 105.4082
1258.418, 83.71924
1259.493, 89.87109
1260.567, 48.98730
1261.642, 133.0435
1262.716, 60.46680
1263.790, 144.9316
1264.864, 102.9194
1265.938, 89.82520
1267.011, 85.05762
1268.085, 32.20312
1269.158, 66.30371
1270.231, 4.332031
1271.304, 86.27051
1272.377, 73.09375
1273.450, 31.89600
1274.522, 27.05127
1275.594, 66.66113
1276.666, 63.34912
1277.738, 72.01367
1278.810, 92.65479
1279.882, 47.46533
1280.953, 54.54395
1282.025, 27.37109
1283.096, 117.9668
1284.167, 60.96582
1285.238, 91.54004
1286.308, 151.0000
1287.379, 54.43945
1288.449, 141.8501
1289.519, 87.23926
1290.589, 70.60547
1291.659, 27.94531
1292.729, 50.24609
1293.798, 12.51465
1294.868, 23.87256
1295.937, 44.91992
1297.006, 39.06738
1298.075, 63.17871
1299.143, 65.00684
1300.212, 118.7173
1301.280, 146.7461
1302.348, 105.8950
1303.416, 117.0479
1304.484, 53.00928
1305.552, 137.8535
1306.620, 85.75879
1307.687, 27.91650
1308.754, 182.5576
1309.821, 82.90771
1310.888, 94.69629
1311.955, 65.59570
1313.021, 106.3311
1314.088, 121.0059
1315.154, 120.7397
1316.220, 88.40479
1317.286, 106.7490
1318.352, 151.1895
1319.417, 84.97217
1320.483, 135.5503
1321.548, 123.6182
1322.613, 112.7529
1323.678, 126.5605
1324.743, 91.28516
1325.807, 99.89893
1326.872, 53.34229
1327.936, 62.97363
1329.000, 80.31152
1330.064, 94.68359
1331.128, 70.04199
1332.191, 107.0186
1333.255, 80.11719
1334.318, 149.2891
1335.381, 33.57812
1336.444, 84.80957
1337.507, 129.8877
1338.569, 133.0767
1339.632, 237.0850
1340.694, 101.5088
1341.756, 50.63721
1342.818, 125.2871
1343.880, 89.37354
1344.941, 6.559082
1346.003, 98.47705
1347.064, 174.4937
1348.125, 75.48389
1349.186, 103.4536
1350.247, 81.40381
1351.308, 97.92773
1352.368, 58.53955
1353.428, 122.9614
1354.489, 129.5127
1355.549, 82.31689
1356.608, 149.1304
1357.668, 115.7490
1358.727, 180.1094
1359.787, 152.2827
1360.846, 69.58789
1361.905, 112.1523
1362.964, 108.3184
1364.022, 104.4829
1365.081, 127.1270
1366.139, 165.8672
1367.197, 143.3481
1368.255, 158.9189
1369.313, 105.1147
1370.371, 124.5757
1371.428, 90.84668
1372.486, 16.35205
1373.543, 103.0132
1374.600, 101.4653
1375.657, 134.8965
1376.713, 87.30713
1377.770, 199.7280
1378.826, 58.10107
1379.882, 71.45410
1380.938, 121.7881
1381.994, 92.10449
1383.050, 145.4019
1384.106, 54.68262
1385.161, 74.94385
1386.216, 92.18604
1387.271, 94.56934
1388.326, 100.2896
1389.381, 59.47949
1390.435, 54.37793
1391.490, 107.5298
1392.544, 65.66455
1393.598, 110.7817
1394.652, 86.86426
1395.705, 75.73438
1396.759, 81.69092
1397.812, 85.21631
1398.866, 136.1978
1399.919, 176.9673
1400.972, 62.60352
1402.024, 105.9458
1403.077, 98.48291
1404.129, 99.90967
1405.181, 114.4785
1406.233, 66.39307
1407.285, 39.29492
1408.337, 56.35498
1409.389, 77.45361
1410.440, 36.31494
1411.491, 73.42822
1412.542, 106.0806
1413.593, 93.89893
1414.644, 108.7500
1415.695, 115.5752
1416.745, 137.0181
1417.795, 120.1558
1418.845, 140.2427
1419.895, 137.7939
1420.945, 148.3247
1421.995, 131.7505
1423.044, 103.9766
1424.093, 87.95068
1425.142, 3.680664
1426.191, 10.01855
1427.240, 105.0269
1428.289, 14.67432
1429.337, 47.12939
1430.385, 112.6787
1431.433, 122.9512
1432.481, 106.5684
1433.529, 83.63770
1434.577, 30.93652
1435.624, 143.5420
1436.672, 86.59424
1437.719, 139.0269
1438.766, 70.92236
1439.812, 44.80078
1440.859, 90.64502
1441.905, 80.29053
1442.952, 83.76025
1443.998, 108.9502
1445.044, 102.4048
1446.090, 105.5322
1447.135, 147.4878
1448.181, 171.3003
1449.226, 167.9932
1450.271, 93.84619
1451.316, 153.9580
1452.361, 87.36035
1453.405, 62.07568
1454.450, 94.84277
1455.494, 138.5581
1456.538, 144.3921
1457.582, 95.47363
1458.626, 75.18945
1459.670, 73.02881
1460.713, 51.43311
1461.757, 155.8511
1462.800, 122.8804
1463.843, 117.5322
1464.886, 94.96924
1465.928, 86.59424
1466.971, 157.8203
1468.013, 114.4072
1469.055, 134.9775
1470.097, 197.5337
1471.139, 113.0933
1472.181, 125.5693
1473.222, 190.5405
1474.263, 79.04785
1475.305, 134.4058
1476.346, 142.9878
1477.386, 60.32812
1478.427, 117.1104
1479.468, 184.1006
1480.508, 80.36084
1481.548, 143.5059
1482.588, 143.3594
1483.628, 103.4668
1484.668, 52.23779
1485.707, 138.3643
1486.747, 84.20605
1487.786, 120.5054
1488.825, 70.79834
1489.864, 127.0522
1490.902, 137.8281
1491.941, 87.19385
1492.979, 104.4478
1494.017, 79.69727
1495.055, 109.9385
1496.093, 111.2056
1497.131, 74.52393
1498.168, 55.88037
1499.206, 46.68018
1500.243, 51.00928
1501.280, 110.0259
1502.317, 30.34717
1503.354, 127.1782
1504.390, 76.51855
1505.426, 90.86230
1506.463, 86.97461
1507.499, 61.26953
1508.535, 46.58203
1509.570, 41.89551
1510.606, 35.19775
1511.641, 2.504395
1512.676, 59.78857
1513.711, 99.09033
1514.746, 85.37695
1515.781, 41.67871
1516.816, 81.92432
1517.850, 46.24316
1518.884, 85.54980
1519.918, 63.86133
1520.952, 2.865723
1521.986, 57.40430
1523.019, 43.69629
1524.053, 101.9883
1525.086, 45.29102
1526.119, 84.60547
1527.152, 27.95117
1528.185, 28.76855
1529.217, 82.69189
1530.250, 14.07764
1531.282, 51.49902
1532.314, 48.95654
1533.346, 39.42188
1534.377, 85.89404
1535.409, 83.40674
1536.440, 130.9995
1537.472, 70.51318
1538.503, 61.14795
1539.534, 38.80615
1540.564, 39.48291
1541.595, 72.51465
1542.625, 26.21094
1543.656, 105.9321
1544.686, 83.68213
1545.716, 122.4609
1546.745, 102.2803
1547.775, 89.08936
1548.804, 174.9375
1549.834, 273.7656
1550.863, 436.3066
1551.892, 562.2568
1552.920, 456.2510
1553.949, 165.2891
1554.977, 131.3735
1556.006, 84.50000
1557.034, 123.6162
1558.062, 142.8877
1559.089, 87.26416
1560.117, 53.76709
1561.144, 4.391602
1562.172, 0.3046880
1563.199, 3.666504
1564.226, 1.147461
1565.252, 32.45068
1566.279, 32.40283
1567.305, 42.89355
1568.332, 23.07031
1569.358, 0.2407230
1570.384, 0.0000000E+00
##END=



