##NAMES=Chloritoid
##RRUFFID=R060292
##IDEAL CHEMISTRY=Fe^2+^Al_2_OSiO_4_(OH)_2_
##LOCALITY=Pech, Kunar Province, Afghanistan
##OWNER=RRUFF
##SOURCE=Herb Obodda
##DESCRIPTION=Black tabular crystal
##STATUS=The identification of this mineral has been confirmed by X-ray diffraction and chemical analysis
##URL=rruff.info/R060292
##MEASURED CHEMISTRY=(Fe^2+^_1.55_Mg_0.43_Mn_0.02_)_Σ=2_(Al_3.93_Fe^3+^_0.07_)_Σ=4_Si_2.00_O_10_(OH)_4_
##PIN_ID=M00313
##ORIENTATION=Laser parallel to (1 0 1). Fiducial mark perpendicular to laser is parallel to b [0 1 0]
51.43100, 0.0000000E+00
52.67100, 0.5976870
53.91000, 15.02563
55.14900, 6.940765
56.38700, 11.03229
57.62600, 57.53180
58.86400, 33.75232
60.10300, 26.11017
61.34100, 16.48679
62.57900, 14.22659
63.81700, 15.12589
65.05400, 13.70679
66.29200, 91.20062
67.52900, 183.2946
68.76700, 207.9356
70.00400, 90.07806
71.24100, 34.68097
72.47700, 132.7066
73.71400, 202.1223
74.95100, 167.8998
76.18700, 130.0156
77.42300, 178.4479
78.65900, 206.1765
79.89500, 339.1829
81.13100, 439.4503
82.36700, 443.9637
83.60200, 357.7092
84.83700, 323.6750
86.07200, 341.8500
87.30800, 417.2242
88.54200, 530.7876
89.77700, 685.5269
91.01200, 595.4275
92.24600, 644.4812
93.48000, 588.6844
94.71400, 502.0296
95.94800, 543.5095
97.18200, 563.1270
98.41600, 575.8821
99.64900, 507.7675
100.8830, 543.7764
102.1160, 620.9024
103.3490, 859.1404
104.5820, 976.7681
105.8150, 1266.474
107.0470, 1286.255
108.2800, 1351.118
109.5120, 1317.788
110.7440, 1152.669
111.9760, 1285.574
113.2080, 1258.564
114.4400, 1123.636
115.6710, 895.7905
116.9030, 673.0242
118.1340, 592.3350
119.3650, 569.7206
120.5960, 631.1791
121.8270, 630.7086
123.0580, 521.3074
124.2880, 450.9740
125.5190, 448.6926
126.7490, 490.4193
127.9790, 558.1518
129.2090, 511.8916
130.4390, 464.6975
131.6680, 433.5273
132.8980, 406.4349
134.1270, 478.4489
135.3560, 476.4964
136.5850, 464.5624
137.8140, 465.2448
139.0430, 433.7891
140.2710, 405.0321
141.5000, 395.4103
142.7280, 381.2791
143.9560, 377.2369
145.1840, 373.1044
146.4120, 387.7292
147.6390, 386.3772
148.8670, 408.4072
150.0940, 409.7817
151.3210, 413.4673
152.5490, 397.2144
153.7750, 373.9875
155.0020, 316.7867
156.2290, 366.6125
157.4550, 330.4651
158.6810, 332.3447
159.9080, 407.2512
161.1340, 449.1853
162.3590, 501.1467
163.5850, 493.1355
164.8110, 526.5217
166.0360, 479.1958
167.2610, 547.2675
168.4860, 506.3667
169.7110, 504.4940
170.9360, 458.6487
172.1610, 480.8308
173.3850, 466.0576
174.6100, 446.3425
175.8340, 465.6749
177.0580, 462.0461
178.2820, 492.4457
179.5050, 421.8705
180.7290, 395.3209
181.9520, 381.7969
183.1760, 424.2981
184.3990, 377.8245
185.6220, 454.3759
186.8450, 429.9524
188.0670, 419.5540
189.2900, 406.1802
190.5120, 471.8313
191.7340, 505.5067
192.9560, 506.2069
194.1780, 506.9312
195.4000, 486.6797
196.6220, 512.4521
197.8430, 605.2488
199.0640, 696.6169
200.2860, 701.9116
201.5070, 543.2231
202.7270, 382.4130
203.9480, 274.7651
205.1690, 203.0167
206.3890, 215.3544
207.6090, 233.3573
208.8290, 283.1449
210.0490, 259.8030
211.2690, 297.8843
212.4890, 281.2244
213.7080, 261.4897
214.9280, 258.1118
216.1470, 257.7544
217.3660, 240.8628
218.5850, 242.0195
219.8030, 215.0452
221.0220, 216.1183
222.2400, 197.2369
223.4590, 209.3998
224.6770, 165.6055
225.8950, 142.5659
227.1120, 147.8967
228.3300, 113.9578
229.5480, 162.1567
230.7650, 167.3234
231.9820, 214.1090
233.1990, 173.4481
234.4160, 150.8514
235.6330, 206.3860
236.8490, 201.9520
238.0660, 229.5490
239.2820, 284.1760
240.4980, 273.8325
241.7140, 367.5179
242.9300, 393.2316
244.1460, 516.9731
245.3610, 668.7419
246.5770, 731.5370
247.7920, 912.3584
249.0070, 973.2056
250.2220, 894.0776
251.4370, 837.9747
252.6510, 819.2063
253.8660, 662.8417
255.0800, 732.8109
256.2940, 687.8104
257.5080, 670.9661
258.7220, 733.8573
259.9360, 598.9182
261.1490, 570.0013
262.3630, 568.1064
263.5760, 559.2334
264.7890, 581.4640
266.0020, 631.5518
267.2150, 670.7427
268.4270, 734.9547
269.6400, 837.7122
270.8520, 944.4404
272.0640, 1140.714
273.2760, 1382.007
274.4880, 1646.321
275.7000, 2025.656
276.9120, 2462.010
278.1230, 2772.385
279.3340, 3100.779
280.5450, 3085.193
281.7560, 2702.625
282.9670, 2114.076
284.1780, 1676.548
285.3880, 1350.037
286.5980, 973.5460
287.8090, 794.0723
289.0190, 636.6158
290.2290, 484.1765
291.4380, 393.7542
292.6480, 315.6318
293.8570, 295.4576
295.0670, 285.8586
296.2760, 265.2693
297.4850, 250.5135
298.6930, 238.3286
299.9020, 221.0317
301.1110, 206.0773
302.3190, 193.8033
303.5270, 216.5454
304.7350, 206.3032
305.9430, 233.0769
307.1510, 231.8660
308.3580, 141.6709
309.5660, 165.4912
310.7730, 136.3270
311.9800, 201.1780
313.1870, 117.0443
314.3940, 138.9257
315.6010, 158.8220
316.8070, 187.7334
318.0130, 235.3887
319.2200, 247.6005
320.4260, 344.5559
321.6310, 448.5255
322.8370, 510.5090
324.0430, 676.5068
325.2480, 919.5183
326.4540, 1137.544
327.6590, 1445.583
328.8640, 1919.635
330.0680, 2139.703
331.2730, 2069.782
332.4780, 1754.875
333.6820, 1394.982
334.8860, 974.1018
336.0900, 708.2349
337.2940, 543.3810
338.4980, 393.5400
339.7010, 408.7122
340.9050, 469.8970
342.1080, 697.0945
343.3110, 860.3047
344.5140, 787.5345
345.7170, 533.7843
346.9200, 325.0540
348.1220, 167.3441
349.3240, 51.65405
350.5270, 14.98401
351.7290, 60.66626
352.9310, 33.32031
354.1320, 2.032227
355.3340, 51.59326
356.5350, 40.21692
357.7370, 57.83752
358.9380, 83.46167
360.1390, 20.10181
361.3400, 9.730713
362.5400, 17.65344
363.7410, 25.05652
364.9410, 13.48181
366.1410, 30.92480
367.3410, 38.38477
368.5410, 6.861572
369.7410, 39.64502
370.9400, 66.15027
372.1400, 79.55371
373.3390, 81.19287
374.5380, 79.73547
375.7370, 90.29150
376.9360, 61.86743
378.1350, 42.45154
379.3330, 17.96265
380.5310, 46.39282
381.7300, 83.83838
382.9280, 157.2991
384.1260, 215.7747
385.3230, 240.2653
386.5210, 258.7708
387.7180, 246.2908
388.9160, 231.8257
390.1130, 279.3750
391.3100, 370.9387
392.5060, 556.5194
393.7030, 653.1350
394.9000, 743.7681
396.0960, 800.4189
397.2920, 729.0977
398.4880, 579.7910
399.6840, 489.5054
400.8800, 363.2516
402.0750, 316.0176
403.2710, 247.8153
404.4660, 191.6442
405.6610, 214.5050
406.8560, 210.4004
408.0510, 225.3307
409.2450, 243.2944
410.4400, 316.2897
411.6340, 344.3145
412.8280, 378.3607
414.0220, 336.4205
415.2160, 294.4929
416.4100, 243.5778
417.6030, 209.6794
418.7970, 216.7935
419.9900, 144.9200
421.1830, 196.0594
422.3760, 148.2107
423.5690, 210.3735
424.7610, 252.5482
425.9540, 277.7343
427.1460, 223.9316
428.3380, 127.1404
429.5300, 95.36023
430.7220, 60.59119
431.9140, 45.83313
433.1050, 47.08606
434.2970, 23.34973
435.4880, 23.37561
436.6790, 0.1030270
437.8700, 32.82312
439.0610, 32.54907
440.2510, 3.718750
441.4420, 30.00500
442.6320, 6.265991
443.8220, 2.453979
445.0120, 9.831665
446.2020, 35.12720
447.3910, 50.43250
448.5810, 101.7476
449.7700, 80.07214
450.9600, 121.4064
452.1490, 164.7501
453.3370, 155.1031
454.5260, 194.4655
455.7150, 179.8369
456.9030, 184.2175
458.0910, 166.6071
459.2800, 190.8856
460.4670, 280.4128
461.6550, 256.8290
462.8430, 297.2539
464.0300, 365.6871
465.2180, 314.1290
466.4050, 374.5792
467.5920, 481.0380
468.7790, 525.5046
469.9650, 607.9796
471.1520, 635.4625
472.3380, 762.9536
473.5250, 785.4524
474.7110, 848.9589
475.8970, 854.4733
477.0820, 842.9954
478.2680, 895.5249
479.4540, 798.0619
480.6390, 814.6060
481.8240, 834.1577
483.0090, 838.7166
484.1940, 913.2827
485.3780, 1016.856
486.5630, 1122.435
487.7470, 1275.022
488.9320, 1536.616
490.1160, 1879.216
491.3000, 2342.823
492.4830, 2792.435
493.6670, 3644.055
494.8500, 4563.095
496.0340, 5349.433
497.2170, 5855.059
498.4000, 5713.535
499.5820, 4975.542
500.7650, 4084.942
501.9480, 3541.808
503.1300, 3034.045
504.3120, 2832.374
505.4940, 2670.431
506.6760, 2433.187
507.8580, 2173.113
509.0390, 1838.935
510.2210, 1691.727
511.4020, 1423.538
512.5830, 1115.838
513.7640, 944.0353
514.9450, 818.8206
516.1250, 793.6313
517.3060, 694.6606
518.4860, 693.7666
519.6660, 716.1548
520.8460, 794.2314
522.0260, 829.2572
523.2060, 998.1675
524.3850, 1058.088
525.5650, 1190.015
526.7440, 1383.947
527.9230, 1393.884
529.1020, 1403.825
530.2810, 1185.776
531.4590, 992.7303
532.6380, 925.6895
533.8160, 761.2454
534.9940, 687.9530
536.1720, 660.5701
537.3500, 620.4086
538.5270, 605.5391
539.7050, 760.6287
540.8820, 810.1519
542.0590, 983.3489
543.2360, 1238.628
544.4130, 1656.851
545.5900, 2028.869
546.7660, 2727.122
547.9430, 3673.099
549.1190, 4997.079
550.2950, 6125.799
551.4710, 6551.070
552.6470, 6155.894
553.8220, 4743.829
554.9980, 3556.010
556.1730, 2487.033
557.3480, 1787.028
558.5230, 1360.065
559.6980, 1037.058
560.8730, 850.1436
562.0470, 717.3508
563.2220, 656.3397
564.3960, 590.3268
565.5700, 572.3120
566.7440, 540.2954
567.9170, 569.2767
569.0910, 558.2560
570.2640, 614.2328
571.4380, 639.2073
572.6110, 716.1794
573.7840, 793.1490
574.9570, 892.1162
576.1290, 985.0806
577.3020, 1217.759
578.4740, 1447.503
579.6460, 1701.687
580.8180, 2246.874
581.9900, 3312.755
583.1620, 3687.050
584.3330, 5066.987
585.5040, 7084.592
586.6760, 9725.530
587.8470, 13419.46
589.0180, 19151.40
590.1880, 29786.33
591.3590, 46057.25
592.5290, 61538.18
593.7000, 62804.10
594.8700, 48962.01
596.0400, 32762.92
597.2090, 21064.83
598.3790, 13988.73
599.5490, 9584.633
600.7180, 6805.526
601.8870, 5217.417
603.0560, 4040.306
604.2250, 3415.189
605.3940, 2763.067
606.5620, 2459.941
607.7300, 2098.812
608.8990, 1785.677
610.0670, 1496.538
611.2350, 1231.394
612.4020, 1071.245
613.5700, 975.0913
614.7370, 847.9329
615.9050, 742.7693
617.0720, 665.6006
618.2390, 532.4268
619.4060, 523.2478
620.5720, 467.0635
621.7390, 366.8738
622.9050, 352.6787
624.0710, 292.4780
625.2370, 270.2720
626.4030, 242.0602
627.5690, 230.8425
628.7340, 160.6193
629.9000, 205.3903
631.0650, 180.1552
632.2300, 124.9143
633.3950, 141.6674
634.5600, 68.41431
635.7240, 115.1671
636.8890, 46.91968
638.0530, 81.78528
639.2170, 62.53577
640.3810, 16.05151
641.5450, 38.99866
642.7080, 13.20081
643.8720, 59.95679
645.0350, 13.84741
646.1980, 1.973755
647.3610, 29.07153
648.5240, 43.38306
649.6870, 77.87561
650.8490, 56.05164
652.0120, 39.81519
653.1740, 29.68127
654.3360, 19.67871
655.4980, 15.70569
656.6600, 11.74622
657.8210, 23.43628
658.9830, 34.31384
660.1440, 56.00867
661.3050, 51.71863
662.4660, 133.1984
663.6270, 136.8228
664.7870, 199.7137
665.9480, 279.3678
667.1080, 320.0120
668.2680, 311.6465
669.4280, 191.9436
670.5880, 151.5586
671.7480, 120.1636
672.9070, 27.75854
674.0670, 47.66211
675.2260, 25.94580
676.3850, 18.45752
677.5440, 22.04895
678.7030, 59.40637
679.8610, 3.850464
681.0200, 38.73010
682.1780, 8.642212
683.3360, 39.00806
684.4940, 35.70557
685.6520, 39.44849
686.8090, 50.98523
687.9670, 51.08325
689.1240, 46.98108
690.2810, 39.93030
691.4380, 32.92725
692.5950, 2.968140
693.7520, 50.96289
694.9080, 68.88196
696.0650, 79.99243
697.2210, 12.68860
698.3770, 76.56677
699.5330, 58.43469
700.6880, 46.29150
701.8440, 133.1361
702.9990, 103.9706
704.1550, 143.7952
705.3100, 198.6096
706.4650, 218.4139
707.6190, 246.2085
708.7740, 281.9929
709.9290, 326.7676
711.0830, 376.8772
712.2370, 454.2870
713.3910, 495.0630
714.5450, 571.7673
715.6980, 637.4927
716.8520, 736.2146
718.0050, 836.9285
719.1580, 886.6411
720.3110, 1142.352
721.4640, 1251.054
722.6170, 1496.755
723.7700, 1639.447
724.9220, 1977.131
726.0740, 2173.805
727.2260, 2412.470
728.3780, 2752.127
729.5300, 2908.774
730.6810, 3176.412
731.8330, 3353.040
732.9840, 3404.659
734.1350, 3409.269
735.2860, 3152.871
736.4370, 3131.463
737.5880, 2924.045
738.7380, 2773.620
739.8880, 2659.184
741.0390, 2541.741
742.1890, 2378.289
743.3380, 2062.828
744.4880, 1823.358
745.6380, 1660.880
746.7870, 1390.393
747.9360, 1207.897
749.0850, 1093.393
750.2340, 923.8813
751.3830, 785.3606
752.5310, 676.8320
753.6800, 597.2953
754.8280, 498.7341
755.9760, 456.1975
757.1240, 368.6368
758.2720, 329.0684
759.4190, 316.4924
760.5670, 251.9089
761.7140, 248.3177
762.8610, 246.7189
764.0080, 203.1124
765.1550, 198.1145
766.3020, 109.8771
767.4480, 153.2485
768.5950, 131.6125
769.7410, 99.97009
770.8870, 131.3204
772.0330, 70.66382
773.1780, 41.00024
774.3240, 99.32971
775.4690, 17.65234
776.6140, 34.96692
777.7590, 18.72546
778.9040, 10.31726
780.0490, 10.40723
781.1940, 8.526245
782.3380, 26.22595
783.4820, 47.35498
784.6260, 46.19775
785.7700, 51.02856
786.9140, 54.48669
788.0580, 34.09607
789.2010, 44.05469
790.3450, 46.23059
791.4880, 23.64917
792.6310, 13.64490
793.7730, 1.812256
794.9160, 34.00220
796.0590, 15.81592
797.2010, 60.73291
798.3430, 5.562378
799.4850, 10.65625
800.6270, 13.76282
801.7690, 1.883667
802.9100, 33.98755
804.0520, 15.85425
805.1930, 45.71643
806.3340, 11.42542
807.4750, 44.42163
808.6160, 33.26477
809.7560, 117.1039
810.8970, 64.34717
812.0370, 1.560791
813.1770, 42.62207
814.3170, 116.5841
815.4570, 67.25500
816.5960, 58.96790
817.7360, 114.2474
818.8750, 87.85449
820.0140, 119.3796
821.1530, 169.9629
822.2920, 254.7522
823.4310, 232.3066
824.5690, 233.1385
825.7070, 314.9678
826.8460, 341.0596
827.9840, 401.9854
829.1220, 457.5891
830.2590, 529.4679
831.3970, 603.3872
832.5340, 671.8970
833.6710, 766.2061
834.8080, 851.5018
835.9450, 942.3289
837.0820, 1069.065
838.2190, 1155.681
839.3550, 1249.517
840.4910, 1304.193
841.6270, 1341.198
842.7630, 1367.043
843.8990, 1401.893
845.0350, 1396.745
846.1700, 1340.602
847.3060, 1351.463
848.4410, 1322.327
849.5760, 1316.622
850.7100, 1385.070
851.8450, 1349.947
852.9800, 1310.829
854.1140, 1396.716
855.2480, 1367.608
856.3820, 1467.505
857.5160, 1519.406
858.6500, 1622.313
859.7830, 1687.225
860.9170, 1762.143
862.0500, 2012.065
863.1830, 2121.993
864.3160, 2289.928
865.4480, 2514.868
866.5810, 2770.814
867.7130, 3189.767
868.8460, 3587.725
869.9780, 4053.689
871.1100, 4636.660
872.2410, 5224.638
873.3730, 6183.624
874.5050, 6856.616
875.6360, 7694.613
876.7670, 8600.619
877.8980, 9112.633
879.0290, 9635.653
880.1590, 9562.682
881.2900, 9504.717
882.4200, 8784.761
883.5500, 8123.811
884.6800, 7217.872
885.8100, 6438.940
886.9400, 5455.015
888.0690, 4772.099
889.1990, 4117.192
890.3280, 3576.294
891.4570, 3137.853
892.5860, 2787.613
893.7140, 2514.742
894.8430, 2284.013
895.9710, 2189.160
897.1000, 1949.316
898.2280, 1887.482
899.3560, 1762.663
900.4830, 1662.855
901.6110, 1689.058
902.7380, 1626.270
903.8660, 1603.492
904.9930, 1459.844
906.1200, 1542.086
907.2460, 1424.340
908.3730, 1434.604
909.5000, 1270.879
910.6260, 1226.165
911.7520, 1244.350
912.8780, 1140.666
914.0040, 1100.228
915.1290, 1064.373
916.2550, 1109.489
917.3800, 1055.652
918.5050, 1070.891
919.6300, 1020.849
920.7550, 978.9392
921.8800, 920.7727
923.0040, 912.4331
924.1290, 883.4164
925.2530, 737.8184
926.3770, 731.1304
927.5010, 765.8682
928.6250, 732.3813
929.7480, 765.7097
930.8720, 736.2717
931.9950, 751.6682
933.1180, 726.2661
934.2410, 754.8625
935.3640, 856.7036
936.4860, 818.4143
937.6090, 901.8728
938.7310, 864.5767
939.8530, 871.3018
940.9750, 934.0437
942.0970, 983.1394
943.2180, 1042.924
944.3400, 973.7239
945.4610, 1058.540
946.5820, 1119.381
947.7030, 1163.182
948.8240, 1250.083
949.9450, 1211.003
951.0650, 1286.958
952.1860, 1271.937
953.3060, 1356.947
954.4260, 1277.000
955.5460, 1293.078
956.6650, 1276.190
957.7850, 1291.337
958.9040, 1210.520
960.0230, 1165.741
961.1420, 1147.002
962.2610, 1032.302
963.3800, 958.6455
964.4990, 961.0237
965.6170, 987.4299
966.7350, 889.8567
967.8530, 914.3059
968.9710, 855.7722
970.0890, 798.2612
971.2070, 727.7676
972.3240, 628.2920
973.4410, 568.8350
974.5580, 480.3958
975.6750, 459.9741
976.7920, 386.5701
977.9090, 317.1838
979.0250, 322.8154
980.1410, 250.4646
981.2580, 176.1328
982.3740, 165.8191
983.4890, 133.5266
984.6050, 181.2520
985.7200, 158.9951
986.8360, 60.75610
987.9510, 112.5352
989.0660, 99.33618
990.1810, 96.15527
991.2950, 117.9922
992.4100, 113.8474
993.5240, 81.72021
994.6390, 69.61694
995.7530, 50.53687
996.8660, 47.36768
997.9800, 68.43042
999.0940, 50.40430
1000.207, 17.39624
1001.320, 13.67261
1002.433, 67.43457
1003.546, 21.48071
1004.659, 42.54614
1005.772, 43.62988
1006.884, 32.73535
1007.996, 19.85864
1009.108, 37.00049
1010.220, 72.16284
1011.332, 68.34351
1012.444, 74.54199
1013.555, 20.75879
1014.666, 49.99341
1015.777, 30.24805
1016.888, 22.52051
1017.999, 63.81348
1019.110, 72.12500
1020.220, 92.45459
1021.331, 34.80322
1022.441, 40.16992
1023.551, 42.55444
1024.661, 12.04297
1025.770, 20.37622
1026.880, 5.813232
1027.989, 15.73193
1029.098, 93.74072
1030.207, 72.23120
1031.316, 103.7395
1032.425, 67.67896
1033.533, 101.5332
1034.642, 32.09644
1035.750, 32.67676
1036.858, 26.27539
1037.966, 14.10840
1039.073, 32.52490
1040.181, 40.18457
1041.288, 30.86206
1042.396, 69.68457
1043.503, 67.44507
1044.610, 64.54810
1045.716, 39.45361
1046.823, 47.22168
1047.929, 49.02124
1049.036, 42.83887
1050.142, 64.67969
1051.248, 61.11621
1052.353, 79.22388
1053.459, 77.14893
1054.564, 65.06079
1055.670, 86.74414
1056.775, 91.93774
1057.880, 46.20410
1058.985, 57.28711
1060.089, 44.40015
1061.194, 76.69263
1062.298, 52.84595
1063.402, 55.01709
1064.506, 74.20459
1065.610, 106.7166
1066.713, 89.94250
1067.817, 29.24097
1068.920, 47.45020
1070.023, 76.67175
1071.126, 43.38831
1072.229, 85.03979
1073.332, 33.53223
1074.435, 99.19873
1075.537, 91.56445
1076.639, 102.9443
1077.741, 79.33850
1078.843, 154.9904
1079.945, 126.8918
1081.046, 126.4531
1082.148, 126.9036
1083.249, 118.8538
1084.350, 126.9895
1085.451, 204.2229
1086.551, 162.4974
1087.652, 190.0669
1088.752, 197.5969
1089.853, 170.1519
1090.953, 200.7085
1092.053, 148.2771
1093.152, 150.9948
1094.252, 93.58655
1095.351, 129.2067
1096.451, 96.82080
1097.550, 92.78857
1098.649, 110.0083
1099.748, 89.56262
1100.846, 107.2194
1101.945, 71.88599
1103.043, 54.56299
1104.141, 102.2501
1105.239, 86.94702
1106.337, 68.65381
1107.434, 75.37036
1108.532, 44.09644
1109.629, 42.27319
1110.726, 38.32275
1111.823, 37.33472
1112.920, 51.31628
1114.017, 77.15320
1115.113, 74.91284
1116.210, 69.42542
1117.306, 75.22668
1118.402, 73.03662
1119.498, 75.39722
1120.593, 95.60889
1121.689, 85.44397
1122.784, 91.28735
1123.879, 103.9417
1124.974, 58.99792
1126.069, 101.1866
1127.164, 74.17456
1128.259, 40.05652
1129.353, 70.94580
1130.447, 1.842407
1131.541, 27.74585
1132.635, 37.68079
1133.729, 63.59802
1134.822, 55.52209
1135.916, 64.98340
1137.009, 42.65771
1138.102, 58.44568
1139.195, 43.39551
1140.288, 23.36511
1141.380, 18.97681
1142.473, 72.94885
1143.565, 20.92676
1144.657, 40.91040
1145.749, 3.899536
1146.841, 1.289185
1147.932, 33.28882
1149.024, 37.85974
1150.115, 52.95557
1151.206, 11.07239
1152.297, 7.281372
1153.388, 34.30554
1154.479, 10.34143
1155.569, 45.37463
1156.659, 70.32141
1157.750, 35.36316
1158.839, 29.40894
1159.929, 10.59363
1161.019, 20.67932
1162.108, 44.75293
1163.198, 37.18604
1164.287, 10.72314
1165.376, 10.32898
1166.465, 17.38440
1167.553, 34.58899
1168.642, 12.65027
1169.730, 13.83020
1170.818, 16.04858
1171.906, 7.180176
1172.994, 3.547607
1174.082, 0.6059570
1175.170, 34.65613
1176.257, 1.406250
1177.344, 22.47009
1178.431, 25.94006
1179.518, 4.007324
1180.605, 15.12598
1181.691, 3.802368
1182.778, 13.37878
1183.864, 4.127319
1184.950, 19.80627
1186.036, 14.16296
1187.122, 2.030884
1188.207, 2.884644
1189.292, 13.16296
1190.378, 26.21033
1191.463, 0.7429200
1192.548, 23.30151
1193.632, 5.344971
1194.717, 57.56311
1195.801, 3.065552
1196.886, 16.98718
1197.970, 34.94128
1199.054, 32.61987
1200.137, 31.96069
1201.221, 3.976440
1202.305, 20.85498
1203.388, 1.968872
1204.471, 36.88367
1205.554, 21.22827
1206.637, 27.16003
1207.719, 13.08948
1208.802, 16.98340
1209.884, 2.917603
1210.966, 4.988281
1212.048, 16.89001
1213.130, 2.108521
1214.212, 22.21497
1215.293, 23.30164
1216.374, 23.44409
1217.456, 9.526733
1218.536, 18.54822
1219.617, 12.38025
1220.698, 46.73059
1221.778, 19.55518
1222.859, 8.376099
1223.939, 22.19141
1225.019, 24.99707
1226.099, 44.81702
1227.178, 4.602905
1228.258, 0.3811040
1229.337, 4.850464
1230.417, 25.90552
1231.496, 33.65698
1232.574, 43.01794
1233.653, 34.14648
1234.732, 50.88452
1235.810, 53.61890
1236.888, 30.34863
1237.966, 41.07361
1239.044, 21.79370
1240.122, 32.86987
1241.199, 70.57971
1242.277, 13.28540
1243.354, 19.11340
1244.431, 2.805420
1245.508, 56.48560
1246.585, 32.16846
1247.661, 66.83777
1248.738, 30.53516
1249.814, 0.1933590
1250.890, 39.83716
1251.966, 32.49121
1253.042, 42.12354
1254.117, 47.75037
1255.193, 4.628906
1256.268, 1.025879
1257.343, 44.56104
1258.418, 94.14343
1259.493, 51.71985
1260.567, 68.29028
1261.642, 29.85437
1262.716, 38.41150
1263.790, 34.96228
1264.864, 20.03357
1265.938, 37.07275
1267.011, 6.601440
1268.085, 38.11597
1269.158, 34.62988
1270.231, 12.12024
1271.304, 102.6146
1272.377, 117.1202
1273.450, 89.92188
1274.522, 198.0747
1275.594, 20.54126
1276.666, 55.99707
1277.738, 16.49731
1278.810, 33.93372
1279.882, 33.36218
1280.953, 29.78198
1282.025, 66.19312
1283.096, 43.59705
1284.167, 58.09033
1285.238, 53.42566
1286.308, 55.82654
1287.379, 50.20532
1288.449, 29.59338
1289.519, 42.95520
1290.589, 45.30908
1291.659, 55.66724
1292.729, 24.59180
1293.798, 79.60913
1294.868, 63.98206
1295.937, 36.29272
1297.006, 77.59497
1298.075, 32.88916
1299.143, 9.826294
1300.212, 43.43176
1301.280, 35.68103
1302.348, 57.79346
1303.416, 16.97693
1304.484, 72.67517
1305.552, 73.87646
1306.620, 2.075317
1307.687, 64.29053
1308.754, 46.47058
1309.821, 69.07153
1310.888, 30.03271
1311.955, 1.567139
1313.021, 70.68713
1314.088, 20.84277
1315.154, 44.24817
1316.220, 43.18848
1317.286, 86.05322
1318.352, 71.12292
1319.417, 84.18396
1320.483, 59.08203
1321.548, 78.12476
1322.613, 39.25964
1323.678, 31.28394
1324.743, 53.99573
1325.807, 52.03259
1326.872, 30.97046
1327.936, 16.00842
1329.000, 51.04639
1330.064, 36.59790
1331.128, 75.22217
1332.191, 44.02930
1333.255, 31.65222
1334.318, 64.69568
1335.381, 61.61914
1336.444, 53.53552
1337.507, 33.20081
1338.569, 140.6234
1339.632, 60.39343
1340.694, 37.28088
1341.756, 96.20862
1342.818, 43.42346
1343.880, 83.57336
1344.941, 30.65942
1346.003, 26.63135
1347.064, 79.50818
1348.125, 11.32983
1349.186, 55.15454
1350.247, 51.97229
1351.308, 59.64575
1352.368, 74.44958
1353.428, 42.22974
1354.489, 64.02002
1355.549, 85.46094
1356.608, 81.65369
1357.668, 49.51538
1358.727, 69.27881
1359.787, 57.02917
1360.846, 70.77271
1361.905, 75.50964
1362.964, 65.50562
1364.022, 78.22876
1365.081, 117.9849
1366.139, 73.69458
1367.197, 15.39722
1368.255, 78.09143
1369.313, 68.95972
1370.371, 30.42395
1371.428, 60.23889
1372.486, 118.0052
1373.543, 48.66467
1374.600, 70.31738
1375.657, 42.96387
1376.713, 52.60376
1377.770, 60.32849
1378.826, 46.97253
1379.882, 79.58960
1380.938, 84.27551
1381.994, 81.88037
1383.050, 63.15723
1384.106, 78.63684
1385.161, 57.57263
1386.216, 58.37952
1387.271, 71.86682
1388.326, 55.43604
1389.381, 66.97522
1390.435, 77.53320
1391.490, 43.08484
1392.544, 52.36328
1393.598, 59.97095
1394.652, 72.66211
1395.705, 60.66187
1396.759, 3.796265
1397.812, 81.10681
1398.866, 46.61560
1399.919, 92.12195
1400.972, 61.65173
1402.024, 93.13757
1403.077, 64.22327
1404.129, 38.77637
1405.181, 74.68115
1406.233, 78.05786
1407.285, 115.4127
1408.337, 63.76868
1409.389, 70.26208
1410.440, 51.66821
1411.491, 43.06006
1412.542, 47.96655
1413.593, 52.06311
1414.644, 47.55054
1415.695, 74.69653
1416.745, 61.08020
1417.795, 48.46191
1418.845, 78.85522
1419.895, 51.83923
1420.945, 38.23047
1421.995, 80.58643
1423.044, 75.02686
1424.093, 78.37000
1425.142, 72.47205
1426.191, 74.64941
1427.240, 51.91052
1428.289, 59.02466
1429.337, 62.30420
1430.385, 69.82788
1431.433, 50.09253
1432.481, 60.34741
1433.529, 38.18823
1434.577, 44.51135
1435.624, 1.762573
1436.672, 78.96509
1437.719, 76.80408
1438.766, 88.54761
1439.812, 68.72229
1440.859, 67.30701
1441.905, 39.37561
1442.952, 100.4784
1443.998, 53.67065
1445.044, 70.79285
1446.090, 48.17664
1447.135, 72.91003
1448.181, 23.14221
1449.226, 50.18823
1450.271, 64.23206
1451.316, 34.95618
1452.361, 52.21692
1453.405, 48.39197
1454.450, 62.80994
1455.494, 47.06006
1456.538, 93.47351
1457.582, 38.76575
1458.626, 49.14172
1459.670, 20.22046
1460.713, 66.05420
1461.757, 57.45923
1462.800, 63.85669
1463.843, 63.23767
1464.886, 55.64502
1465.928, 64.05664
1466.971, 3.539917
1468.013, 60.85400
1469.055, 36.23828
1470.097, 62.17175
1471.139, 11.53442
1472.181, 33.72876
1473.222, 50.07458
1474.263, 75.37976
1475.305, 59.72534
1476.346, 58.04822
1477.386, 55.38330
1478.427, 101.7336
1479.468, 63.07971
1480.508, 80.34192
1481.548, 42.75024
1482.588, 81.03467
1483.628, 100.3623
1484.668, 109.2644
1485.707, 47.53210
1486.747, 68.81921
1487.786, 2.102783
1488.825, 85.30872
1489.864, 31.59131
1490.902, 74.87061
1491.941, 87.07629
1492.979, 67.30627
1494.017, 8.527710
1495.055, 42.75293
1496.093, 40.99609
1497.131, 41.14648
1498.168, 55.38110
1499.206, 48.31055
1500.243, 58.89758
1501.280, 45.16943
1502.317, 36.44629
1503.354, 36.65942
1504.390, 67.14294
1505.426, 22.44739
1506.463, 44.77124
1507.499, 86.06519
1508.535, 55.40454
1509.570, 2.251465
1510.606, 21.89575
1511.641, 26.18738
1512.676, 50.55713
1513.711, 103.9279
1514.746, 46.26123
1515.781, 82.38745
1516.816, 47.76733
1517.850, 25.14539
1518.884, 47.52100
1519.918, 20.39392
1520.952, 31.89014
1521.986, 30.71204
1523.019, 39.05457
1524.053, 38.39612
1525.086, 31.73633
1526.119, 42.07520
1527.152, 45.94922
1528.185, 22.76880
1529.217, 50.14429
1530.250, 71.71936
1531.282, 42.95886
1532.314, 19.32446
1533.346, 30.10327
1534.377, 11.53467
1535.409, 17.83386
1536.440, 44.20667
1537.472, 50.45435
1538.503, 26.57422
1539.534, 63.97278
1540.564, 39.96167
1541.595, 56.74036
1542.625, 66.07812
1543.656, 47.41638
1544.686, 107.4393
1545.716, 49.58899
1546.745, 0.2694090
1547.775, 47.22241
1548.804, 68.01709
1549.834, 46.52661
1550.863, 150.4390
1551.892, 96.72266
1552.920, 173.5731
1553.949, 59.15479
1554.977, 37.79077
1556.006, 47.70361
1557.034, 61.58533
1558.062, 10.23621
1559.089, 9.790283
1560.117, 30.40784
1561.144, 49.78503
1562.172, 34.27930
1563.199, 49.72473
1564.226, 72.92419
1565.252, 50.11621
1566.279, 15.64197
1567.305, 16.06470
1568.332, 36.73169
1569.358, 0.2711180
1570.384, 0.0000000E+00
##END=



