##NAMES=Chloritoid
##RRUFFID=R060292
##IDEAL CHEMISTRY=Fe^2+^Al_2_OSiO_4_(OH)_2_
##LOCALITY=Pech, Kunar Province, Afghanistan
##OWNER=RRUFF
##SOURCE=Herb Obodda
##DESCRIPTION=Black tabular crystal
##STATUS=The identification of this mineral has been confirmed by X-ray diffraction and chemical analysis
##URL=rruff.info/R060292
##MEASURED CHEMISTRY=(Fe^2+^_1.55_Mg_0.43_Mn_0.02_)_Σ=2_(Al_3.93_Fe^3+^_0.07_)_Σ=4_Si_2.00_O_10_(OH)_4_
##PIN_ID=M00313
##ORIENTATION=Laser parallel to (1 0 1). Fiducial mark perpendicular to laser is parallel to b [0 1 0]
51.43100, 0.0000000E+00
52.67100, 26.52338
53.91000, 5.205719
55.14900, 28.73785
56.38700, 29.44379
57.62600, 107.6182
58.86400, 110.9568
60.10300, 113.7163
61.34100, 55.01904
62.57900, 12.28314
63.81700, 9.325317
65.05400, 23.22803
66.29200, 41.90289
67.52900, 19.14978
68.76700, 18.78253
70.00400, 44.64734
71.24100, 22.12091
72.47700, 89.27808
73.71400, 169.0688
74.95100, 119.4473
76.18700, 106.3722
77.42300, 125.8066
78.65900, 198.7180
79.89500, 340.0771
81.13100, 324.7852
82.36700, 509.0387
83.60200, 353.6010
84.83700, 352.5305
86.07200, 355.8135
87.30800, 513.4363
88.54200, 668.3859
89.77700, 760.6407
91.01200, 759.1766
92.24600, 720.9816
93.48000, 697.0441
94.71400, 721.9980
95.94800, 713.8799
97.18200, 758.6285
98.41600, 767.5840
99.64900, 751.7378
100.8830, 879.0820
102.1160, 1040.611
103.3490, 1403.318
104.5820, 2123.197
105.8150, 2253.107
107.0470, 2573.394
108.2800, 2856.825
109.5120, 2948.351
110.7440, 3242.028
111.9760, 3512.857
113.2080, 3460.843
114.4400, 2945.999
115.6710, 2270.324
116.9030, 1720.815
118.1340, 1302.466
119.3650, 1119.271
120.5960, 1086.228
121.8270, 942.3311
123.0580, 730.5757
124.2880, 654.9590
125.5190, 630.4492
126.7490, 684.9586
127.9790, 702.4897
129.2090, 652.0441
130.4390, 636.6779
131.6680, 556.4609
132.8980, 553.3483
134.1270, 525.2914
135.3560, 603.2781
136.5850, 618.3127
137.8140, 646.3979
139.0430, 532.5374
140.2710, 415.7325
141.5000, 435.9858
142.7280, 335.2991
143.9560, 426.6737
145.1840, 412.1107
146.4120, 451.6111
147.6390, 460.1760
148.8670, 471.0807
150.0940, 480.7500
151.3210, 475.2620
152.5490, 456.0892
153.7750, 404.9832
155.0020, 333.9434
156.2290, 370.9702
157.4550, 329.0640
158.6810, 358.2246
159.9080, 471.4514
161.1340, 501.7449
162.3590, 552.0247
163.5850, 603.5300
164.8110, 616.0217
166.0360, 630.5784
167.2610, 627.7097
168.4860, 686.8875
169.7110, 652.6392
170.9360, 671.4993
172.1610, 695.5436
173.3850, 643.8054
174.6100, 694.2629
175.8340, 642.3915
177.0580, 714.8900
178.2820, 564.8824
179.5050, 541.9241
180.7290, 507.0120
181.9520, 551.1458
183.1760, 472.3256
184.3990, 462.5513
185.6220, 437.8225
186.8450, 435.1396
188.0670, 449.5017
189.2900, 448.9089
190.5120, 512.3608
191.7340, 516.8569
192.9560, 520.3973
194.1780, 515.9812
195.4000, 583.6084
196.6220, 586.2787
197.8430, 633.9917
199.0640, 751.8088
200.2860, 797.5361
201.5070, 689.1650
202.7270, 466.9944
203.9480, 394.9000
205.1690, 371.7571
206.3890, 303.6649
207.6090, 371.7250
208.8290, 428.6260
210.0490, 479.3794
211.2690, 518.9043
212.4890, 574.7515
213.7080, 539.5483
214.9280, 524.9512
216.1470, 536.7727
217.3660, 586.6873
218.5850, 537.6919
219.8030, 530.7837
221.0220, 525.9596
222.2400, 426.2173
223.4590, 455.5542
224.6770, 426.9681
225.8950, 404.4570
227.1120, 445.0190
228.3300, 468.6521
229.5480, 477.3547
230.7650, 513.1251
231.9820, 543.9619
233.1990, 536.8630
234.4160, 626.8279
235.6330, 671.8546
236.8490, 775.9414
238.0660, 939.0881
239.2820, 994.2925
240.4980, 1243.554
241.7140, 1522.871
242.9300, 1818.244
244.1460, 2261.670
245.3610, 2791.150
246.5770, 3341.682
247.7920, 3879.266
249.0070, 4167.901
250.2220, 3970.585
251.4370, 3616.319
252.6510, 3176.102
253.8660, 2841.933
255.0800, 2615.812
256.2940, 2424.344
257.5080, 2243.961
258.7220, 2091.320
259.9360, 2001.793
261.1490, 1878.902
262.3630, 1778.055
263.5760, 1785.252
264.7890, 1734.491
266.0020, 1758.773
267.2150, 1905.096
268.4270, 2061.461
269.6400, 2388.866
270.8520, 2799.311
272.0640, 3290.795
273.2760, 3922.318
274.4880, 4764.882
275.7000, 5952.484
276.9120, 7144.126
278.1230, 8300.805
279.3340, 9043.523
280.5450, 8889.281
281.7560, 8128.075
282.9670, 6977.905
284.1780, 5615.774
285.3880, 4468.680
286.5980, 3586.623
287.8090, 2849.823
289.0190, 2214.793
290.2290, 1819.557
291.4380, 1594.339
292.6480, 1363.745
293.8570, 1125.049
295.0670, 1010.817
296.2760, 868.8330
297.4850, 816.0430
298.6930, 733.5231
299.9020, 687.7568
301.1110, 711.4060
302.3190, 657.9502
303.5270, 611.6858
304.7350, 627.1290
305.9430, 581.6018
307.1510, 575.8500
308.3580, 564.6353
309.5660, 551.1956
310.7730, 511.7843
311.9800, 488.4019
313.1870, 389.0471
314.3940, 339.7205
315.6010, 319.4214
316.8070, 350.1493
318.0130, 378.9036
319.2200, 356.6831
320.4260, 455.4871
321.6310, 493.3146
322.8370, 641.1646
324.0430, 818.0367
325.2480, 1018.931
326.4540, 1281.847
327.6590, 1623.784
328.8640, 1951.743
330.0680, 2070.723
331.2730, 2045.724
332.4780, 1601.745
333.6820, 1286.788
334.8860, 1044.851
336.0900, 764.9336
337.2940, 607.0366
338.4980, 544.1597
339.7010, 677.3025
340.9050, 837.4647
342.1080, 1160.646
343.3110, 1377.847
344.5140, 1314.080
345.7170, 959.3475
346.9200, 575.6481
348.1220, 299.9817
349.3240, 155.3475
350.5270, 36.74634
351.7290, 42.82251
352.9310, 108.7512
354.1320, 101.9202
355.3340, 146.4653
356.5350, 74.02856
357.7370, 9.575928
358.9380, 30.09534
360.1390, 68.40979
361.3400, 140.9537
362.5400, 202.5424
363.7410, 234.1708
364.9410, 296.8408
366.1410, 243.5591
367.3410, 189.3162
368.5410, 239.1165
369.7410, 213.9442
370.9400, 135.8147
372.1400, 156.7219
373.3390, 60.67139
374.5380, 40.64771
375.7370, 52.67114
376.9360, 119.7195
378.1350, 204.7969
379.3330, 251.8982
380.5310, 417.0225
381.7300, 581.1702
382.9280, 868.3403
384.1260, 1004.533
385.3230, 1116.748
386.5210, 991.9844
387.7180, 876.2429
388.9160, 841.5227
390.1130, 792.8237
391.3100, 843.1455
392.5060, 958.4907
393.7030, 1110.869
394.9000, 1237.278
396.0960, 1192.721
397.2920, 1068.198
398.4880, 878.7197
399.6840, 711.2812
400.8800, 469.8838
402.0750, 330.5293
403.2710, 237.2117
404.4660, 300.9272
405.6610, 234.6743
406.8560, 353.4436
408.0510, 430.2429
409.2450, 493.0610
410.4400, 679.8967
411.6340, 791.7502
412.8280, 849.6204
414.0220, 753.5068
415.2160, 666.4094
416.4100, 498.3271
417.6030, 454.2605
418.7970, 281.2087
419.9900, 165.1719
421.1830, 140.1499
422.3760, 137.1418
423.5690, 180.1482
424.7610, 196.1685
425.9540, 137.2024
427.1460, 107.2498
428.3380, 58.31055
429.5300, 37.38403
430.7220, 35.52954
431.9140, 49.45239
433.1050, 99.39136
434.2970, 133.3694
435.4880, 108.4041
436.6790, 156.4839
437.8700, 75.63257
439.0610, 131.8120
440.2510, 185.0498
441.4420, 171.3721
442.6320, 114.7732
443.8220, 49.22583
445.0120, 7.699219
446.2020, 10.82446
447.3910, 83.35278
448.5810, 93.89087
449.7700, 211.4382
450.9600, 233.9946
452.1490, 288.5605
453.3370, 298.1350
454.5260, 276.7183
455.7150, 215.3101
456.9030, 253.9102
458.0910, 175.5186
459.2800, 155.1348
460.4670, 185.7588
461.6550, 280.3906
462.8430, 282.0298
464.0300, 360.6763
465.2180, 362.3298
466.4050, 472.9905
467.5920, 559.6577
468.7790, 623.3318
469.9650, 736.0125
471.1520, 880.6995
472.3380, 974.3926
473.5250, 1097.092
474.7110, 1137.797
475.8970, 1075.508
477.0820, 1145.224
478.2680, 1095.946
479.4540, 1022.673
480.6390, 1023.406
481.8240, 1060.143
483.0090, 1054.885
484.1940, 1068.632
485.3780, 1201.383
486.5630, 1355.139
487.7470, 1567.899
488.9320, 1848.663
490.1160, 2225.430
491.3000, 2712.201
492.4830, 3334.976
493.6670, 4306.752
494.8500, 5235.517
496.0340, 6064.733
497.2170, 6303.377
498.4000, 6091.561
499.5820, 5262.871
500.7650, 4755.738
501.9480, 4127.600
503.1300, 3920.603
504.3120, 3792.059
505.4940, 3777.496
506.6760, 3794.446
507.8580, 3896.037
509.0390, 4001.553
510.2210, 3922.177
511.4020, 3590.345
512.5830, 3184.040
513.7640, 2885.402
514.9450, 2540.033
516.1250, 2347.482
517.3060, 2237.455
518.4860, 2198.564
519.6660, 2279.618
520.8460, 2549.570
522.0260, 2917.529
523.2060, 3412.488
524.3850, 3980.446
525.5650, 4540.399
526.7440, 5195.355
527.9230, 5492.312
529.1020, 5390.266
530.2810, 4989.215
531.4590, 4552.161
532.6380, 3967.101
533.8160, 3411.590
534.9940, 2988.302
536.1720, 2657.566
537.3500, 2450.462
538.5270, 2509.647
539.7050, 2573.256
540.8820, 2791.775
542.0590, 3284.685
543.2360, 3898.108
544.4130, 4916.197
545.5900, 6224.330
546.7660, 7927.199
547.9430, 10434.03
549.1190, 13176.51
550.2950, 15437.81
551.4710, 16001.72
552.6470, 14513.81
553.8220, 11949.63
554.9980, 9074.463
556.1730, 6778.238
557.3480, 4846.000
558.5230, 3645.753
559.6980, 2630.493
560.8730, 2069.222
562.0470, 1620.940
563.2220, 1314.645
564.3960, 1084.339
565.5700, 996.0205
566.7440, 873.6897
567.9170, 858.3467
569.0910, 729.9912
570.2640, 761.6233
571.4380, 778.2424
572.6110, 791.6284
573.7840, 884.2671
574.9570, 941.1360
576.1290, 945.0100
577.3020, 1176.282
578.4740, 1338.680
579.6460, 1612.636
580.8180, 2099.366
581.9900, 2571.924
583.1620, 3513.233
584.3330, 4969.812
585.5040, 6985.995
586.6760, 9789.305
587.8470, 13782.44
589.0180, 19942.90
590.1880, 29877.34
591.3590, 43114.77
592.5290, 53300.20
593.7000, 52240.61
594.8700, 41316.01
596.0400, 28915.40
597.2090, 20070.78
598.3790, 13768.16
599.5490, 9555.519
600.7180, 6860.867
601.8870, 5248.208
603.0560, 4062.537
604.2250, 3424.857
605.3940, 2923.164
606.5620, 2495.461
607.7300, 2154.746
608.8990, 1925.021
610.0670, 1522.285
611.2350, 1390.537
612.4020, 1153.778
613.5700, 1025.007
614.7370, 880.2251
615.9050, 762.4316
617.0720, 649.6262
618.2390, 576.8088
619.4060, 489.9358
620.5720, 428.1389
621.7390, 362.2861
622.9050, 316.4209
624.0710, 268.5439
625.2370, 271.6550
626.4030, 234.7537
627.5690, 209.0852
628.7340, 230.9143
629.9000, 171.9758
631.0650, 120.0251
632.2300, 136.0620
633.3950, 97.08594
634.5600, 142.0977
635.7240, 70.10205
636.8890, 59.10864
638.0530, 90.11572
639.2170, 32.13477
640.3810, 64.14404
641.5450, 34.13940
642.7080, 3.881592
643.8720, 26.93677
645.0350, 10.16089
646.1980, 18.30078
647.3610, 43.07349
648.5240, 9.619873
649.6870, 26.41357
650.8490, 67.27246
652.0120, 22.95142
653.1740, 0.3813480
654.3360, 18.22900
655.4980, 63.88965
656.6600, 34.94995
657.8210, 99.98511
658.9830, 44.54468
660.1440, 138.2471
661.3050, 183.9004
662.4660, 254.4712
663.6270, 380.4495
664.7870, 432.7864
665.9480, 531.5090
667.1080, 625.0339
668.2680, 491.0762
669.4280, 365.3496
670.5880, 224.6079
671.7480, 146.8501
672.9070, 74.07642
674.0670, 6.281982
675.2260, 14.44604
676.3850, 2.572510
677.5440, 2.343994
678.7030, 41.30591
679.8610, 24.33398
681.0200, 30.95850
682.1780, 39.56299
683.3360, 18.77222
684.4940, 4.034180
685.6520, 0.3415530
686.8090, 46.30786
687.9670, 4.933105
689.1240, 70.51831
690.2810, 103.0842
691.4380, 83.63403
692.5950, 114.1660
693.7520, 106.6829
694.9080, 138.6721
696.0650, 135.6709
697.2210, 207.1433
698.3770, 259.6011
699.5330, 293.0444
700.6880, 387.4736
701.8440, 443.8889
702.9990, 465.2898
704.1550, 465.6770
705.3100, 599.0498
706.4650, 722.4094
707.6190, 740.7549
708.7740, 885.2180
709.9290, 973.4053
711.0830, 1140.711
712.2370, 1232.014
713.3910, 1456.318
714.5450, 1658.634
715.6980, 1826.972
716.8520, 2207.325
718.0050, 2478.705
719.1580, 2822.094
720.3110, 3191.505
721.4640, 3749.951
722.6170, 4212.431
723.7700, 4823.928
724.9220, 5423.431
726.0740, 6133.927
727.2260, 6920.416
728.3780, 7697.894
729.5300, 8471.358
730.6810, 9078.812
731.8330, 9351.254
732.9840, 9632.683
734.1350, 9529.104
735.2860, 9230.510
736.4370, 8905.908
737.5880, 8335.295
738.7380, 8137.668
739.8880, 7685.032
741.0390, 7120.386
742.1890, 6698.728
743.3380, 5914.061
744.4880, 5346.382
745.6380, 4734.694
746.7870, 4163.995
747.9360, 3654.287
749.0850, 3166.568
750.2340, 2752.471
751.3830, 2312.102
752.5310, 2035.354
753.6800, 1788.597
754.8280, 1504.831
755.9760, 1470.055
757.1240, 1221.271
758.2720, 1108.477
759.4190, 884.6746
760.5670, 834.8633
761.7140, 666.0454
762.8610, 632.2188
764.0080, 521.3843
765.1550, 518.5417
766.3020, 470.6909
767.4480, 419.8325
768.5950, 354.9661
769.7410, 325.4863
770.8870, 258.2109
772.0330, 269.3225
773.1780, 192.4268
774.3240, 181.3613
775.4690, 210.1501
776.6140, 98.21875
777.7590, 38.51465
778.9040, 38.33862
780.0490, 103.6580
781.1940, 50.51172
782.3380, 3.092285
783.4820, 22.31567
784.6260, 31.79541
785.7700, 4.562500
786.9140, 19.26294
788.0580, 64.08179
789.2010, 66.46655
790.3450, 61.40112
791.4880, 47.02466
792.6310, 61.93335
793.7730, 80.68091
794.9160, 62.97656
796.0590, 40.42871
797.2010, 26.83960
798.3430, 44.15991
799.4850, 3.502441
800.6270, 14.84888
801.7690, 15.79712
802.9100, 31.55688
804.0520, 4.925049
805.1930, 19.29565
806.3340, 16.32593
807.4750, 78.94775
808.6160, 58.57031
809.7560, 65.19409
810.8970, 43.26538
812.0370, 52.10962
813.1770, 141.3984
814.3170, 146.0500
815.4570, 145.4099
816.5960, 171.3425
817.7360, 155.3604
818.8750, 193.9841
820.0140, 279.0918
821.1530, 268.5298
822.2920, 339.9199
823.4310, 395.5706
824.5690, 459.2563
825.7070, 544.2932
826.8460, 607.5000
827.9840, 810.0886
829.1220, 878.5088
830.2590, 1051.188
831.3970, 1172.850
832.5340, 1376.569
833.6710, 1583.296
834.8080, 1765.681
835.9450, 1925.776
837.0820, 2131.529
838.2190, 2361.290
839.3550, 2438.061
840.4910, 2590.841
841.6270, 2666.630
842.7630, 2675.429
843.8990, 2648.238
845.0350, 2644.057
846.1700, 2515.886
847.3060, 2533.726
848.4410, 2470.576
849.5760, 2459.437
850.7100, 2295.308
851.8450, 2348.191
852.9800, 2330.084
854.1140, 2307.989
855.2480, 2354.904
856.3820, 2417.831
857.5160, 2482.768
858.6500, 2474.802
859.7830, 2692.763
860.9170, 2754.855
862.0500, 3022.838
863.1830, 3179.277
864.3160, 3493.282
865.4480, 3845.298
866.5810, 4166.329
867.7130, 4790.369
868.8460, 5297.422
869.9780, 5934.487
871.1100, 6777.566
872.2410, 7568.658
873.3730, 8538.764
874.5050, 9800.880
875.6360, 10599.01
876.7670, 11374.16
877.8980, 12072.32
879.0290, 12216.49
880.1590, 12049.68
881.2900, 11598.88
882.4200, 10713.10
883.5500, 9748.328
884.6800, 8576.574
885.8100, 7698.836
886.9400, 6806.113
888.0690, 5935.404
889.1990, 5188.712
890.3280, 4533.037
891.4570, 4152.377
892.5860, 3841.731
893.7140, 3541.104
894.8430, 3322.493
895.9710, 3171.898
897.1000, 3075.636
898.2280, 3065.196
899.3560, 3100.534
900.4830, 3231.010
901.6110, 3417.504
902.7380, 3653.016
903.8660, 3639.546
904.9930, 3786.095
906.1200, 3716.662
907.2460, 3573.247
908.3730, 3248.852
909.5000, 3005.474
910.6260, 2767.116
911.7520, 2503.778
912.8780, 2228.460
914.0040, 2192.164
915.1290, 1908.889
916.2550, 1889.637
917.3800, 1724.416
918.5050, 1600.357
919.6300, 1540.209
920.7550, 1331.687
921.8800, 1226.929
923.0040, 1098.414
924.1290, 983.4128
925.2530, 916.3284
926.3770, 826.6777
927.5010, 763.9661
928.6250, 732.5164
929.7480, 654.0391
930.8720, 658.7756
931.9950, 599.8960
933.1180, 533.8831
934.2410, 574.9341
935.3640, 564.0881
936.4860, 576.8481
937.6090, 616.2627
938.7310, 591.3081
939.8530, 612.5635
940.9750, 585.3108
942.0970, 637.8350
943.2180, 700.3845
944.3400, 685.9585
945.4610, 703.5576
946.5820, 690.1965
947.7030, 714.8811
948.8240, 737.2910
949.9450, 782.3718
951.0650, 793.1772
952.1860, 868.0376
953.3060, 887.9436
954.4260, 844.8975
955.5460, 890.9067
956.6650, 927.9600
957.7850, 819.0547
958.9040, 919.1885
960.0230, 801.3589
961.1420, 741.5674
962.2610, 813.8042
963.3800, 728.0767
964.4990, 793.3811
965.6170, 748.7124
966.7350, 720.0718
967.8530, 775.4688
968.9710, 732.8918
970.0890, 610.3408
971.2070, 591.8162
972.3240, 471.3193
973.4410, 444.8518
974.5580, 407.4126
975.6750, 326.9995
976.7920, 318.6128
977.9090, 147.2524
979.0250, 235.9253
980.1410, 118.6255
981.2580, 192.3518
982.3740, 169.1042
983.4890, 78.88354
984.6050, 174.6890
985.7200, 132.5244
986.8360, 32.38647
987.9510, 35.27588
989.0660, 73.19385
990.1810, 87.14014
991.2950, 33.11304
992.4100, 10.88745
993.5240, 35.14697
994.6390, 14.79199
995.7530, 12.29590
996.8660, 36.58984
997.9800, 69.54688
999.0940, 45.70947
1000.207, 39.89868
1001.320, 37.11475
1002.433, 62.36377
1003.546, 75.65430
1004.659, 55.98438
1005.772, 97.35571
1006.884, 53.75928
1007.996, 46.19336
1009.108, 6.654297
1010.220, 19.16260
1011.332, 30.65479
1012.444, 38.19434
1013.555, 35.14697
1014.666, 45.35400
1015.777, 19.97412
1016.888, 14.62109
1017.999, 3.308350
1019.110, 12.02246
1020.220, 12.13452
1021.331, 9.548828
1022.441, 34.31934
1023.551, 19.13794
1024.661, 45.98218
1025.770, 75.85229
1026.880, 47.75195
1027.989, 33.68042
1029.098, 51.63379
1030.207, 28.38135
1031.316, 30.62524
1032.425, 78.03760
1033.533, 48.28735
1034.642, 29.37354
1035.750, 119.4846
1036.858, 49.87231
1037.966, 90.03467
1039.073, 123.3208
1040.181, 106.5334
1041.288, 119.7705
1042.396, 132.0366
1043.503, 133.3269
1044.610, 88.64160
1045.716, 114.6816
1046.823, 81.34595
1047.929, 118.7354
1049.036, 117.1501
1050.142, 90.58911
1051.248, 105.0803
1052.353, 109.1338
1053.459, 136.1631
1054.564, 131.0054
1055.670, 88.58130
1056.775, 77.12451
1057.880, 172.0396
1058.985, 168.7268
1060.089, 81.45312
1061.194, 190.3933
1062.298, 175.0378
1063.402, 106.5386
1064.506, 186.7209
1065.610, 132.0576
1066.713, 193.5178
1067.817, 149.3525
1068.920, 181.3516
1070.023, 186.3523
1071.126, 219.1936
1072.229, 264.0359
1073.332, 211.1252
1074.435, 214.2383
1075.537, 208.3723
1076.639, 244.5254
1077.741, 264.6975
1078.843, 247.5806
1079.945, 282.5293
1081.046, 266.8955
1082.148, 411.1418
1083.249, 440.4060
1084.350, 513.5476
1085.451, 490.8467
1086.551, 482.1677
1087.652, 559.5291
1088.752, 565.8809
1089.853, 568.2493
1090.953, 552.6338
1092.053, 481.2952
1093.152, 527.7114
1094.252, 468.1426
1095.351, 397.5190
1096.451, 434.1970
1097.550, 330.6733
1098.649, 360.5984
1099.748, 264.5808
1100.846, 244.1035
1101.945, 253.6396
1103.043, 173.1907
1104.141, 160.0725
1105.239, 186.3384
1106.337, 121.2563
1107.434, 105.8606
1108.532, 107.4778
1109.629, 89.10840
1110.726, 114.3757
1111.823, 131.1096
1112.920, 133.7776
1114.017, 101.4575
1115.113, 118.1492
1116.210, 107.8965
1117.306, 112.3557
1118.402, 113.0828
1119.498, 134.9915
1120.593, 153.1929
1121.689, 118.4109
1122.784, 151.1824
1123.879, 58.99146
1124.974, 127.9089
1126.069, 98.71533
1127.164, 117.8088
1128.259, 45.63037
1129.353, 17.01880
1130.447, 91.86084
1131.541, 102.7124
1132.635, 81.71436
1133.729, 67.09424
1134.822, 8.485596
1135.916, 78.39404
1137.009, 105.7590
1138.102, 90.05859
1139.195, 44.86670
1140.288, 70.97949
1141.380, 20.90527
1142.473, 80.83838
1143.565, 60.77783
1144.657, 46.72339
1145.749, 55.17456
1146.841, 70.13818
1147.932, 57.16455
1149.024, 72.59033
1150.115, 43.77734
1151.206, 47.76685
1152.297, 29.75635
1153.388, 40.75049
1154.479, 61.03955
1155.569, 70.08203
1156.659, 39.10376
1157.750, 54.02051
1158.839, 97.76147
1159.929, 21.78149
1161.019, 79.04883
1162.108, 14.75830
1163.198, 12.04517
1164.287, 6.017090
1165.376, 76.68091
1166.465, 10.71216
1167.553, 7.254395
1168.642, 30.09009
1169.730, 1.875000
1170.818, 17.32788
1171.906, 33.36499
1172.994, 76.34766
1174.082, 65.47021
1175.170, 94.42749
1176.257, 52.48291
1177.344, 48.93652
1178.431, 38.97852
1179.518, 16.38647
1180.605, 26.42871
1181.691, 21.52954
1182.778, 17.50244
1183.864, 1.534180
1184.950, 25.34985
1186.036, 38.66724
1187.122, 17.31665
1188.207, 2.311035
1189.292, 22.71460
1190.378, 28.71411
1191.463, 0.8142090
1192.548, 31.96631
1193.632, 8.992432
1194.717, 1.027832
1195.801, 22.69678
1196.886, 23.94995
1197.970, 46.46533
1199.054, 13.43335
1200.137, 12.55029
1201.221, 26.68066
1202.305, 7.831543
1203.388, 90.41040
1204.471, 35.24365
1205.554, 61.44336
1206.637, 14.26782
1207.719, 17.08740
1208.802, 38.09814
1209.884, 21.31250
1210.966, 10.54785
1212.048, 44.20825
1213.130, 31.62329
1214.212, 4.311768
1215.293, 20.41113
1216.374, 18.12842
1217.456, 5.693604
1218.536, 41.00146
1219.617, 47.80469
1220.698, 33.48657
1221.778, 7.820801
1222.859, 30.83594
1223.939, 39.48535
1225.019, 17.87231
1226.099, 5.253906
1227.178, 95.34570
1228.258, 10.60669
1229.337, 24.81299
1230.417, 67.73804
1231.496, 56.28101
1232.574, 65.98584
1233.653, 16.51270
1234.732, 8.028564
1235.810, 17.52905
1236.888, 52.01831
1237.966, 38.49878
1239.044, 89.14648
1240.122, 6.365479
1241.199, 30.08008
1242.277, 40.50952
1243.354, 67.92969
1244.431, 51.34082
1245.508, 58.21875
1246.585, 11.13525
1247.661, 44.74292
1248.738, 31.10889
1249.814, 21.60156
1250.890, 21.98950
1251.966, 57.34839
1253.042, 42.66504
1254.117, 10.02930
1255.193, 47.24756
1256.268, 26.62183
1257.343, 58.87476
1258.418, 59.46582
1259.493, 78.82593
1260.567, 65.04932
1261.642, 41.26196
1262.716, 4.493652
1263.790, 27.32178
1264.864, 19.15088
1265.938, 25.95166
1267.011, 8.217041
1268.085, 19.60059
1269.158, 42.81934
1270.231, 108.8743
1271.304, 103.0527
1272.377, 101.0310
1273.450, 124.7751
1274.522, 34.23047
1275.594, 112.2407
1276.666, 45.16846
1277.738, 18.91821
1278.810, 48.95605
1279.882, 68.81543
1280.953, 78.66309
1282.025, 92.20117
1283.096, 47.45166
1284.167, 64.53296
1285.238, 70.32983
1286.308, 27.11816
1287.379, 32.88574
1288.449, 100.6348
1289.519, 19.37109
1290.589, 94.12671
1291.659, 58.82886
1292.729, 79.18774
1293.798, 36.70825
1294.868, 92.42188
1295.937, 101.1257
1297.006, 52.56055
1298.075, 96.20288
1299.143, 61.76514
1300.212, 95.35425
1301.280, 29.93481
1302.348, 99.48975
1303.416, 125.0322
1304.484, 79.56152
1305.552, 51.07739
1306.620, 98.57666
1307.687, 54.06299
1308.754, 111.5330
1309.821, 89.98975
1310.888, 96.40454
1311.955, 85.91797
1313.021, 74.25781
1314.088, 86.38428
1315.154, 103.7749
1316.220, 95.21582
1317.286, 81.31250
1318.352, 105.6643
1319.417, 73.00293
1320.483, 63.15063
1321.548, 122.6165
1322.613, 87.25537
1323.678, 72.23730
1324.743, 74.08057
1325.807, 40.81519
1326.872, 64.19263
1327.936, 87.41406
1329.000, 114.6453
1330.064, 91.04395
1331.128, 42.45654
1332.191, 116.6912
1333.255, 44.91650
1334.318, 83.15894
1335.381, 121.2930
1336.444, 88.41479
1337.507, 95.83252
1338.569, 123.1917
1339.632, 75.13623
1340.694, 96.20728
1341.756, 122.2656
1342.818, 137.5215
1343.880, 84.55640
1344.941, 35.57373
1346.003, 121.5554
1347.064, 60.55200
1348.125, 83.53638
1349.186, 74.50757
1350.247, 106.2048
1351.308, 138.1514
1352.368, 79.08618
1353.428, 94.07910
1354.489, 136.7710
1355.549, 22.66797
1356.608, 90.11914
1357.668, 125.5696
1358.727, 74.42603
1359.787, 49.27051
1360.846, 75.10205
1361.905, 122.6431
1362.964, 99.76953
1364.022, 114.2708
1365.081, 131.0508
1366.139, 47.82983
1367.197, 68.58545
1368.255, 71.70630
1369.313, 82.36230
1370.371, 107.0859
1371.428, 92.79858
1372.486, 84.50024
1373.543, 83.19092
1374.600, 41.08569
1375.657, 85.75464
1376.713, 50.24292
1377.770, 61.43994
1378.826, 64.73169
1379.882, 75.35986
1380.938, 84.00439
1381.994, 92.40186
1383.050, 50.99585
1384.106, 83.20093
1385.161, 28.78003
1386.216, 48.34766
1387.271, 91.90576
1388.326, 85.45435
1389.381, 62.90405
1390.435, 66.92261
1391.490, 74.92822
1392.544, 35.41577
1393.598, 43.39355
1394.652, 17.55347
1395.705, 27.22217
1396.759, 44.50757
1397.812, 28.05200
1398.866, 73.50586
1399.919, 119.0369
1400.972, 20.47485
1402.024, 4.594238
1403.077, 79.92236
1404.129, 138.0715
1405.181, 53.22266
1406.233, 123.4082
1407.285, 65.83081
1408.337, 136.2095
1409.389, 29.62109
1410.440, 15.90503
1411.491, 71.29932
1412.542, 75.46973
1413.593, 74.71851
1414.644, 80.51953
1415.695, 73.84961
1416.745, 39.92896
1417.795, 50.30249
1418.845, 37.79883
1419.895, 40.75464
1420.945, 35.38916
1421.995, 34.45947
1423.044, 35.48486
1424.093, 41.94800
1425.142, 34.22729
1426.191, 50.33252
1427.240, 46.60083
1428.289, 53.91992
1429.337, 55.17188
1430.385, 59.51660
1431.433, 63.12671
1432.481, 68.38672
1433.529, 75.58667
1434.577, 77.41455
1435.624, 99.60254
1436.672, 55.78345
1437.719, 26.02930
1438.766, 134.2327
1439.812, 40.36621
1440.859, 81.53784
1441.905, 101.7717
1442.952, 90.93799
1443.998, 84.06909
1445.044, 89.23608
1446.090, 66.65039
1447.135, 65.14331
1448.181, 68.41577
1449.226, 47.50171
1450.271, 79.06787
1451.316, 55.34985
1452.361, 59.21729
1453.405, 66.09790
1454.450, 45.34644
1455.494, 44.97681
1456.538, 66.84253
1457.582, 25.09253
1458.626, 24.33423
1459.670, 17.87329
1460.713, 58.13086
1461.757, 60.31470
1462.800, 48.50830
1463.843, 108.7124
1464.886, 110.1301
1465.928, 61.33252
1466.971, 69.31860
1468.013, 19.49707
1469.055, 66.66895
1470.097, 64.58032
1471.139, 92.73267
1472.181, 87.87939
1473.222, 69.01270
1474.263, 117.8447
1475.305, 69.72217
1476.346, 67.78931
1477.386, 66.89844
1478.427, 92.86670
1479.468, 45.32666
1480.508, 48.40820
1481.548, 69.43335
1482.588, 18.33179
1483.628, 89.92017
1484.668, 82.74878
1485.707, 62.66284
1486.747, 20.43115
1487.786, 25.34888
1488.825, 19.34839
1489.864, 28.35400
1490.902, 25.32837
1491.941, 44.06982
1492.979, 49.71875
1494.017, 54.37964
1495.055, 67.48218
1496.093, 65.50732
1497.131, 64.48340
1498.168, 46.51099
1499.206, 25.57397
1500.243, 58.73145
1501.280, 67.89990
1502.317, 76.06958
1503.354, 2.242920
1504.390, 48.41724
1505.426, 12.43311
1506.463, 89.57104
1507.499, 58.73584
1508.535, 19.89990
1509.570, 72.06372
1510.606, 86.23047
1511.641, 38.40698
1512.676, 87.58960
1513.711, 11.77148
1514.746, 77.81689
1515.781, 77.63940
1516.816, 26.81421
1517.850, 52.98706
1518.884, 20.17310
1519.918, 3.194580
1520.952, 21.38184
1521.986, 3.926758
1523.019, 28.76538
1524.053, 2.970459
1525.086, 27.17993
1526.119, 23.40967
1527.152, 0.4958500
1528.185, 23.75439
1529.217, 30.91431
1530.250, 43.08667
1531.282, 13.38281
1532.314, 25.73169
1533.346, 14.08984
1534.377, 4.535645
1535.409, 5.847168
1536.440, 16.74780
1537.472, 26.26245
1538.503, 38.47754
1539.534, 29.90723
1540.564, 38.26831
1541.595, 11.72607
1542.625, 26.97656
1543.656, 70.47314
1544.686, 70.99878
1545.716, 58.06934
1546.745, 57.17676
1547.775, 59.29736
1548.804, 109.8750
1549.834, 154.9001
1550.863, 131.5200
1551.892, 140.6321
1552.920, 141.8657
1553.949, 88.87476
1554.977, 47.07812
1556.006, 26.24927
1557.034, 40.88501
1558.062, 47.90894
1559.089, 55.88672
1560.117, 37.79688
1561.144, 12.60034
1562.172, 21.31201
1563.199, 17.79761
1564.226, 49.37817
1565.252, 17.14819
1566.279, 56.46704
1567.305, 57.77954
1568.332, 32.93384
1569.358, 0.2919920
1570.384, 0.0000000E+00
##END=



