##NAMES=Chloritoid
##RRUFFID=R060292
##IDEAL CHEMISTRY=Fe^2+^Al_2_OSiO_4_(OH)_2_
##LOCALITY=Pech, Kunar Province, Afghanistan
##OWNER=RRUFF
##SOURCE=Herb Obodda
##DESCRIPTION=Black tabular crystal
##STATUS=The identification of this mineral has been confirmed by X-ray diffraction and chemical analysis
##URL=rruff.info/R060292
##MEASURED CHEMISTRY=(Fe^2+^_1.55_Mg_0.43_Mn_0.02_)_Σ=2_(Al_3.93_Fe^3+^_0.07_)_Σ=4_Si_2.00_O_10_(OH)_4_
##PIN_ID=M00166
##ORIENTATION=Laser parallel to a* (1 0 0). Fiducial mark perpendicular to laser is parallel to b [0 1 0]
51.43100, 0.0000000E+00
52.67100, 11.40253
53.91000, 25.53818
55.14900, 13.87350
56.38700, 2.491180
57.62600, 19.30191
58.86400, 46.87927
60.10300, 29.01553
61.34100, 19.39142
62.57900, 5.251251
63.81700, 8.612518
65.05400, 33.28821
66.29200, 28.87610
67.52900, 81.76886
68.76700, 79.32648
70.00400, 21.49359
71.24100, 38.22009
72.47700, 50.45862
73.71400, 90.16583
74.95100, 45.30511
76.18700, 40.84570
77.42300, 96.76251
78.65900, 161.0336
79.89500, 235.6386
81.13100, 268.5582
82.36700, 251.7748
83.60200, 209.2720
84.83700, 225.0352
86.07200, 261.0507
87.30800, 332.3053
88.54200, 395.7869
89.77700, 454.4785
91.01200, 436.3612
92.24600, 436.4191
93.48000, 391.6389
94.71400, 400.0125
95.94800, 423.5366
97.18200, 481.2095
98.41600, 460.0270
99.64900, 463.9879
100.8830, 562.0919
102.1160, 700.3396
103.3490, 869.7304
104.5820, 1148.257
105.8150, 1640.914
107.0470, 1620.694
108.2800, 1716.591
109.5120, 845.6010
110.7440, 822.7186
111.9760, 973.9404
113.2080, 1023.265
114.4400, 995.6890
115.6710, 894.2096
116.9030, 774.8231
118.1340, 670.5258
119.3650, 608.3146
120.5960, 557.1863
121.8270, 465.1387
123.0580, 351.1683
124.2880, 283.2732
125.5190, 325.4338
126.7490, 308.5982
127.9790, 343.7659
129.2090, 279.9392
130.4390, 283.1227
131.6680, 287.3160
132.8980, 328.5078
134.1270, 352.7243
135.3560, 338.9684
136.5850, 348.2698
137.8140, 334.6404
139.0430, 296.0900
140.2710, 261.6206
141.5000, 237.2371
142.7280, 228.9336
143.9560, 249.6746
145.1840, 275.4631
146.4120, 217.3766
147.6390, 300.3771
148.8670, 327.4588
150.0940, 323.6632
151.3210, 290.9603
152.5490, 287.3625
153.7750, 279.8494
155.0020, 228.3621
156.2290, 231.8972
157.4550, 244.4553
158.6810, 244.0364
159.9080, 298.6409
161.1340, 312.2686
162.3590, 358.9197
163.5850, 377.5942
164.8110, 365.2922
166.0360, 346.0140
167.2610, 361.7594
168.4860, 385.5284
169.7110, 392.3214
170.9360, 399.4995
172.1610, 414.6160
173.3850, 392.9341
174.6100, 426.9130
175.8340, 405.9227
177.0580, 389.9536
178.2820, 407.0054
179.5050, 405.0781
180.7290, 437.1711
181.9520, 436.2849
183.1760, 498.4187
184.3990, 501.5726
185.6220, 521.7466
186.8450, 533.9399
188.0670, 557.1532
189.2900, 646.3855
190.5120, 721.6370
191.7340, 729.9072
192.9560, 760.1962
194.1780, 810.5037
195.4000, 846.8290
196.6220, 931.1725
197.8430, 1034.534
199.0640, 1103.168
200.2860, 1150.791
201.5070, 1123.398
202.7270, 1042.046
203.9480, 1036.543
205.1690, 1001.281
206.3890, 1073.985
207.6090, 1073.783
208.8290, 1094.667
210.0490, 1067.296
211.2690, 1085.340
212.4890, 1135.083
213.7080, 1012.268
214.9280, 1092.518
216.1470, 1056.832
217.3660, 1100.204
218.5850, 1113.634
219.8030, 1161.902
221.0220, 1175.983
222.2400, 1195.324
223.4590, 1120.324
224.6770, 1243.711
225.8950, 1196.375
227.1120, 1313.464
228.3300, 1296.809
229.5480, 1334.255
230.7650, 1430.318
231.9820, 1461.409
233.1990, 1502.076
234.4160, 1611.290
235.6330, 1744.415
236.8490, 1913.527
238.0660, 2173.115
239.2820, 2414.392
240.4980, 2779.042
241.7140, 2904.272
242.9300, 3060.834
244.1460, 3055.254
245.3610, 3258.085
246.5770, 3412.395
247.7920, 3570.191
249.0070, 3830.605
250.2220, 3888.083
251.4370, 3741.619
252.6510, 3308.738
253.8660, 2805.711
255.0800, 2418.552
256.2940, 2178.036
257.5080, 1952.538
258.7220, 1624.060
259.9360, 1503.602
261.1490, 1511.163
262.3630, 1662.744
263.5760, 1773.343
264.7890, 2018.961
266.0020, 2337.596
267.2150, 2884.250
268.4270, 3579.921
269.6400, 4427.609
270.8520, 5459.316
272.0640, 6721.038
273.2760, 7918.777
274.4880, 8749.535
275.7000, 9263.310
276.9120, 9994.101
278.1230, 10753.91
279.3340, 11629.73
280.5450, 12481.58
281.7560, 13048.44
282.9670, 12847.31
284.1780, 12103.21
285.3880, 10786.12
286.5980, 8975.040
287.8090, 7343.200
289.0190, 5932.659
290.2290, 4935.649
291.4380, 4095.760
292.6480, 3602.208
293.8570, 3235.117
295.0670, 2879.429
296.2760, 2659.465
297.4850, 2536.203
298.6930, 2401.262
299.9020, 2376.331
301.1110, 2373.411
302.3190, 2322.502
303.5270, 2395.604
304.7350, 2415.714
305.9430, 2421.836
307.1510, 2450.969
308.3580, 2485.110
309.5660, 2495.261
310.7730, 2527.423
311.9800, 2549.594
313.1870, 2458.774
314.3940, 2463.964
315.6010, 2457.164
316.8070, 2409.372
318.0130, 2391.589
319.2200, 2388.816
320.4260, 2519.050
321.6310, 2633.292
322.8370, 2763.543
324.0430, 2772.801
325.2480, 2973.068
326.4540, 2850.343
327.6590, 2899.625
328.8640, 2966.915
330.0680, 3029.212
331.2730, 3124.517
332.4780, 3074.829
333.6820, 2908.147
334.8860, 2510.474
336.0900, 2049.807
337.2940, 1653.148
338.4980, 1184.495
339.7010, 879.8483
340.9050, 670.2085
342.1080, 576.5754
343.3110, 428.9487
344.5140, 363.1039
345.7170, 303.6980
346.9200, 289.1580
348.1220, 232.5906
349.3240, 223.0387
350.5270, 191.5010
351.7290, 101.9775
352.9310, 112.4679
354.1320, 47.97229
355.3340, 67.49121
356.5350, 59.02393
357.7370, 36.57495
358.9380, 43.72278
360.1390, 19.72510
361.3400, 23.32446
362.5400, 11.93604
363.7410, 19.43665
364.9410, 34.80444
366.1410, 18.17554
367.3410, 30.54175
368.5410, 36.90833
369.7410, 21.27966
370.9400, 28.64880
372.1400, 51.02112
373.3390, 33.40601
374.5380, 24.79785
375.7370, 43.19324
376.9360, 14.60071
378.1350, 3.007935
379.3330, 0.5893550
380.5310, 2.192017
381.7300, 29.19946
382.9280, 75.59827
384.1260, 64.02722
385.3230, 38.48083
386.5210, 4.947021
387.7180, 40.41101
388.9160, 46.88904
390.1130, 71.38477
391.3100, 61.91016
392.5060, 37.46094
393.7030, 38.02539
394.9000, 72.60388
396.0960, 30.21167
397.2920, 61.81995
398.4880, 4.436646
399.6840, 65.96252
400.8800, 92.38306
402.0750, 101.8311
403.2710, 185.3214
404.4660, 268.8484
405.6610, 398.4080
406.8560, 503.9980
408.0510, 530.6121
409.2450, 557.2649
410.4400, 580.9432
411.6340, 686.6530
412.8280, 780.3882
414.0220, 810.1565
415.2160, 787.9600
416.4100, 749.7837
417.6030, 653.6267
418.7970, 534.4844
419.9900, 376.3564
421.1830, 255.2379
422.3760, 251.1251
423.5690, 137.0165
424.7610, 91.91077
425.9540, 117.8077
427.1460, 68.70752
428.3380, 67.60962
429.5300, 32.51404
430.7220, 3.420898
431.9140, 1.674072
433.1050, 10.77344
434.2970, 6.118408
435.4880, 9.0330001E-03
436.6790, 59.10449
437.8700, 14.25134
439.0610, 32.59033
440.2510, 3.566772
441.4420, 58.26929
442.6320, 58.10669
443.8220, 60.94507
445.0120, 108.7844
446.2020, 133.6249
447.3910, 173.4659
448.5810, 130.3077
449.7700, 157.1501
450.9600, 179.9932
452.1490, 215.8365
453.3370, 258.6804
454.5260, 303.5244
455.7150, 409.3688
456.9030, 424.2131
458.0910, 533.0574
459.2800, 539.9016
460.4670, 629.7458
461.6550, 817.5895
462.8430, 964.4329
464.0300, 1062.276
465.2180, 1253.118
466.4050, 1484.960
467.5920, 1650.802
468.7790, 1902.067
469.9650, 2100.370
471.1520, 2362.320
472.3380, 2495.157
473.5250, 2660.993
474.7110, 2791.830
475.8970, 2990.663
477.0820, 3139.496
478.2680, 3124.327
479.4540, 3074.157
480.6390, 3105.985
481.8240, 3141.812
483.0090, 3146.636
484.1940, 3326.459
485.3780, 3536.280
486.5630, 3929.100
487.7470, 4666.916
488.9320, 5402.731
490.1160, 6217.543
491.3000, 7020.353
492.4830, 7648.161
493.6670, 8088.965
494.8500, 8508.767
496.0340, 9005.663
497.2170, 9637.459
498.4000, 10022.44
499.5820, 9798.242
500.7650, 9123.363
501.9480, 7807.975
503.1300, 6449.324
504.3120, 5149.296
505.4940, 4199.180
506.6760, 3393.687
507.8580, 2884.210
509.0390, 2549.864
510.2210, 2234.926
511.4020, 2001.467
512.5830, 1845.873
513.7640, 1796.445
514.9450, 1863.036
516.1250, 1819.193
517.3060, 1950.766
518.4860, 2097.344
519.6660, 2426.379
520.8460, 2682.897
522.0260, 2994.533
523.2060, 3243.211
524.3850, 3558.441
525.5650, 3844.008
526.7440, 4227.229
527.9230, 4658.894
529.1020, 4932.625
530.2810, 5488.778
531.4590, 5463.914
532.6380, 5574.595
533.8160, 5644.814
534.9940, 6145.438
536.1720, 6516.017
537.3500, 7469.993
538.5270, 8900.090
539.7050, 10950.25
540.8820, 14463.95
542.0590, 19185.10
543.2360, 25348.84
544.4130, 32598.11
545.5900, 38411.00
546.7660, 41747.00
547.9430, 44612.51
549.1190, 47697.48
550.2950, 52102.94
551.4710, 56560.40
552.6470, 59078.22
553.8220, 57356.56
554.9980, 50979.84
556.1730, 41220.59
557.3480, 30376.80
558.5230, 21746.81
559.6980, 15416.79
560.8730, 11032.62
562.0470, 8249.424
563.2220, 6355.467
564.3960, 4968.254
565.5700, 4175.820
566.7440, 3443.352
567.9170, 2998.874
569.0910, 2625.387
570.2640, 2305.891
571.4380, 2095.257
572.6110, 1970.649
573.7840, 1859.618
574.9570, 1867.063
576.1290, 1886.391
577.3020, 2073.386
578.4740, 2234.921
579.6460, 2637.060
580.8180, 3265.475
581.9900, 4331.192
583.1620, 6102.588
584.3330, 9385.975
585.5040, 14239.35
586.6760, 19629.72
587.8470, 23478.08
589.0180, 24410.43
590.1880, 25544.77
591.3590, 28234.10
592.5290, 32219.42
593.7000, 36967.72
594.8700, 38975.02
596.0400, 36537.32
597.2090, 29769.59
598.3790, 21759.86
599.5490, 14423.12
600.7180, 9506.368
601.8870, 6462.607
603.0560, 4571.835
604.2250, 3552.053
605.3940, 2776.261
606.5620, 2209.458
607.7300, 1918.645
608.8990, 1590.822
610.0670, 1374.988
611.2350, 1267.143
612.4020, 1065.288
613.5700, 987.4233
614.7370, 848.5472
615.9050, 808.6609
617.0720, 689.7639
618.2390, 651.8562
619.4060, 572.9380
620.5720, 495.0089
621.7390, 443.0691
622.9050, 455.1187
624.0710, 377.1575
625.2370, 341.1857
626.4030, 269.2030
627.5690, 225.2095
628.7340, 210.2052
629.9000, 177.1899
631.0650, 223.1641
632.2300, 179.1272
633.3950, 203.0795
634.5600, 155.0209
635.7240, 78.95142
636.8890, 147.8701
638.0530, 65.77783
639.2170, 99.67261
640.3810, 53.03333
641.5450, 1.097656
642.7080, 38.99377
643.8720, 65.81726
645.0350, 15.44226
646.1980, 42.23108
647.3610, 56.27722
648.5240, 35.04736
649.6870, 33.80408
650.8490, 43.71826
652.0120, 37.45630
653.1740, 72.18237
654.3360, 51.17065
655.4980, 110.8873
656.6600, 151.6003
657.8210, 181.3082
658.9830, 282.0149
660.1440, 370.7141
661.3050, 513.4092
662.4660, 613.0974
663.6270, 655.7955
664.7870, 734.5342
665.9480, 713.2263
667.1080, 814.9792
668.2680, 897.7621
669.4280, 939.5566
670.5880, 865.3916
671.7480, 715.2694
672.9070, 491.1823
674.0670, 250.1272
675.2260, 120.0898
676.3850, 46.07666
677.5440, 4.922607
678.7030, 34.93567
679.8610, 24.98059
681.0200, 26.06531
682.1780, 51.19299
683.3360, 107.3772
684.4940, 85.64758
685.6520, 70.99243
686.8090, 63.40442
687.9670, 38.87927
689.1240, 94.40442
690.2810, 47.00879
691.4380, 68.66760
692.5950, 45.39197
693.7520, 76.16992
694.9080, 84.01746
696.0650, 27.93848
697.2210, 24.90344
698.3770, 8.910889
699.5330, 6.951782
700.6880, 10.97437
701.8440, 38.68652
702.9990, 56.76489
704.1550, 88.63953
705.3100, 119.5031
706.4650, 113.3561
707.6190, 176.1986
708.7740, 186.0310
709.9290, 252.4319
711.0830, 357.6644
712.2370, 393.4680
713.3910, 490.2646
714.5450, 564.2516
715.6980, 656.8398
716.8520, 783.6165
718.0050, 972.4004
719.1580, 1119.182
720.3110, 1323.953
721.4640, 1543.719
722.6170, 1723.474
723.7700, 1989.222
724.9220, 2201.959
726.0740, 2531.687
727.2260, 2857.406
728.3780, 3056.115
729.5300, 3271.993
730.6810, 3393.508
731.8330, 3531.190
732.9840, 3637.865
734.1350, 3660.530
735.2860, 3582.187
736.4370, 3480.834
737.5880, 3326.474
738.7380, 3060.105
739.8880, 2828.728
741.0390, 2621.343
742.1890, 2387.949
743.3380, 2161.547
744.4880, 1957.138
745.6380, 1799.720
746.7870, 1562.295
747.9360, 1354.862
749.0850, 1128.422
750.2340, 1012.974
751.3830, 826.5190
752.5310, 716.0564
753.6800, 645.5868
754.8280, 540.1101
755.9760, 494.6265
757.1240, 447.1360
758.2720, 344.6385
759.4190, 286.1344
760.5670, 263.6239
761.7140, 234.1069
762.8610, 176.5836
764.0080, 195.0541
765.1550, 94.51843
766.3020, 217.9768
767.4480, 92.42920
768.5950, 110.8759
769.7410, 102.3168
770.8870, 73.75208
772.0330, 76.18201
773.1780, 80.60645
774.3240, 59.92981
775.4690, 70.34399
776.6140, 52.56079
777.7590, 10.95667
778.9040, 60.01721
780.0490, 17.57983
781.1940, 38.39502
782.3380, 2.579834
783.4820, 59.84082
784.6260, 14.68506
785.7700, 63.74316
786.9140, 39.45264
788.0580, 17.13574
789.2010, 35.99048
790.3450, 96.74023
791.4880, 7.064941
792.6310, 70.88281
793.7730, 72.19653
794.9160, 67.50757
796.0590, 49.81616
797.2010, 123.1221
798.3430, 91.33521
799.4850, 128.1672
800.6270, 111.9636
801.7690, 182.1357
802.9100, 148.8779
804.0520, 135.7993
805.1930, 217.2852
806.3340, 199.0054
807.4750, 311.7341
808.6160, 346.6021
809.7560, 343.1521
810.8970, 367.6189
812.0370, 392.0686
813.1770, 472.9880
814.3170, 521.0591
815.4570, 489.1963
816.5960, 577.4290
817.7360, 611.2698
818.8750, 595.0273
820.0140, 643.1936
821.1530, 739.8210
822.2920, 759.8027
823.4310, 876.6968
824.5690, 917.0615
825.7070, 978.9624
826.8460, 1090.376
827.9840, 1199.765
829.1220, 1226.797
830.2590, 1339.294
831.3970, 1467.865
832.5340, 1588.952
833.6710, 1729.242
834.8080, 1877.387
835.9450, 2019.222
837.0820, 2160.194
838.2190, 2304.201
839.3550, 2447.412
840.4910, 2588.966
841.6270, 2764.190
842.7630, 2911.445
843.8990, 3131.703
845.0350, 3294.966
846.1700, 3561.234
847.3060, 3774.506
848.4410, 4058.785
849.5760, 4356.069
850.7100, 4495.358
851.8450, 4892.654
852.9800, 5106.953
854.1140, 5580.261
855.2480, 5897.574
856.3820, 6304.893
857.5160, 6806.220
858.6500, 7245.552
859.7830, 7792.891
860.9170, 8274.236
862.0500, 9072.591
863.1830, 9783.951
864.3160, 10871.32
865.4480, 11933.70
866.5810, 13079.08
867.7130, 14673.47
868.8460, 16390.86
869.9780, 18046.27
871.1100, 20012.68
872.2410, 21995.11
873.3730, 23603.54
874.5050, 25211.99
875.6360, 26390.43
876.7670, 28165.90
877.8980, 27353.37
879.0290, 27031.85
880.1590, 25799.34
881.2900, 23909.84
882.4200, 21987.34
883.5500, 19357.86
884.6800, 17087.39
885.8100, 14584.93
886.9400, 12316.49
888.0690, 10511.05
889.1990, 8851.620
890.3280, 7398.205
891.4570, 6442.801
892.5860, 5649.410
893.7140, 4868.031
894.8430, 4326.664
895.9710, 3744.308
897.1000, 3348.966
898.2280, 3093.636
899.3560, 2850.319
900.4830, 2622.016
901.6110, 2498.725
902.7380, 2390.448
903.8660, 2164.185
904.9930, 2073.936
906.1200, 1934.700
907.2460, 1737.479
908.3730, 1608.271
909.5000, 1435.079
910.6260, 1357.902
911.7520, 1281.739
912.8780, 1093.593
914.0040, 1067.984
915.1290, 999.8706
916.2550, 1004.530
917.3800, 948.4600
918.5050, 810.5918
919.6300, 772.5601
920.7550, 667.2783
921.8800, 570.2837
923.0040, 573.3093
924.1290, 444.1870
925.2530, 355.2524
926.3770, 305.3386
927.5010, 206.1748
928.6250, 151.2986
929.7480, 151.4402
930.8720, 69.60034
931.9950, 42.77856
933.1180, 16.02466
934.2410, 6.819336
935.3640, 91.60205
936.4860, 38.40649
937.6090, 71.20337
938.7310, 95.01294
939.8530, 142.8442
940.9750, 91.71997
942.0970, 184.6162
943.2180, 187.5757
944.3400, 127.5991
945.4610, 126.6587
946.5820, 88.75269
947.7030, 117.8647
948.8240, 50.00684
949.9450, 45.14575
951.0650, 38.72729
952.1860, 84.63989
953.3060, 165.5894
954.4260, 242.5767
955.5460, 381.6082
956.6650, 468.6992
957.7850, 529.8440
958.9040, 700.0391
960.0230, 741.2827
961.1420, 816.5696
962.2610, 907.9126
963.3800, 1052.301
964.4990, 1153.739
965.6170, 1151.222
966.7350, 1189.757
967.8530, 1162.350
968.9710, 1192.244
970.0890, 1281.655
971.2070, 1249.363
972.3240, 1271.108
973.4410, 1344.883
974.5580, 1255.685
975.6750, 1277.513
976.7920, 1238.365
977.9090, 1291.243
979.0250, 1240.145
980.1410, 1335.072
981.2580, 1269.027
982.3740, 1295.008
983.4890, 1213.014
984.6050, 1214.046
985.7200, 1224.103
986.8360, 1251.185
987.9510, 1221.295
989.0660, 1188.430
990.1810, 1214.594
991.2950, 1107.783
992.4100, 1100.999
993.5240, 1138.241
994.6390, 1192.510
995.7530, 1185.805
996.8660, 1187.327
997.9800, 1104.474
999.0940, 1130.850
1000.207, 1123.252
1001.320, 1069.681
1002.433, 1073.139
1003.546, 1019.625
1004.659, 1003.137
1005.772, 1062.677
1006.884, 959.2483
1007.996, 983.8467
1009.108, 936.4751
1010.220, 991.1333
1011.332, 905.8198
1012.444, 932.5391
1013.555, 963.2859
1014.666, 868.0610
1015.777, 931.8647
1016.888, 961.6968
1017.999, 990.5571
1019.110, 941.4453
1020.220, 954.3684
1021.331, 901.3242
1022.441, 987.3167
1023.551, 1007.343
1024.661, 948.4126
1025.770, 1004.512
1026.880, 952.6470
1027.989, 1038.811
1029.098, 978.0117
1030.207, 977.2419
1031.316, 977.5037
1032.425, 962.8096
1033.533, 1046.145
1034.642, 1031.512
1035.750, 954.9102
1036.858, 1035.340
1037.966, 983.7988
1039.073, 1051.287
1040.181, 1019.805
1041.288, 1027.358
1042.396, 1089.946
1043.503, 1019.568
1044.610, 1040.221
1045.716, 1094.915
1046.823, 1065.642
1047.929, 1180.409
1049.036, 1111.208
1050.142, 1115.053
1051.248, 1153.932
1052.353, 1130.857
1053.459, 1092.814
1054.564, 1171.802
1055.670, 1138.824
1056.775, 1089.876
1057.880, 1193.959
1058.985, 1113.072
1060.089, 1140.213
1061.194, 1067.391
1062.298, 1174.602
1063.402, 1140.847
1064.506, 1182.122
1065.610, 1147.438
1066.713, 1179.876
1067.817, 1176.721
1068.920, 1199.652
1070.023, 1198.755
1071.126, 1190.778
1072.229, 1204.753
1073.332, 1218.090
1074.435, 1313.219
1075.537, 1203.369
1076.639, 1308.408
1077.741, 1287.794
1078.843, 1338.290
1079.945, 1413.831
1081.046, 1497.930
1082.148, 1549.851
1083.249, 1661.671
1084.350, 1655.530
1085.451, 1644.421
1086.551, 1807.345
1087.652, 1798.302
1088.752, 1806.299
1089.853, 1910.328
1090.953, 1710.419
1092.053, 1654.521
1093.152, 1598.726
1094.252, 1570.892
1095.351, 1464.091
1096.451, 1350.331
1097.550, 1201.593
1098.649, 1179.885
1099.748, 1102.606
1100.846, 1006.962
1101.945, 856.4014
1103.043, 909.8184
1104.141, 765.6687
1105.239, 743.1487
1106.337, 755.6587
1107.434, 654.2012
1108.532, 646.7734
1109.629, 620.3779
1110.726, 566.0093
1111.823, 572.6704
1112.920, 628.1494
1114.017, 549.8691
1115.113, 588.6267
1116.210, 545.4126
1117.306, 502.2271
1118.402, 577.0789
1119.498, 427.1724
1120.593, 507.0728
1121.689, 489.4138
1122.784, 455.3879
1123.879, 409.3906
1124.974, 465.4211
1126.069, 458.4888
1127.164, 465.5862
1128.259, 417.7148
1129.353, 366.8772
1130.447, 382.3879
1131.541, 403.3135
1132.635, 379.5684
1133.729, 401.1169
1134.822, 377.4260
1135.916, 386.7627
1137.009, 392.1267
1138.102, 342.2014
1139.195, 356.6187
1140.288, 328.4705
1141.380, 321.3491
1142.473, 342.8447
1143.565, 287.4304
1144.657, 305.9771
1145.749, 239.5496
1146.841, 222.2058
1147.932, 347.8286
1149.024, 275.4768
1150.115, 286.1499
1151.206, 296.2483
1152.297, 287.8367
1153.388, 303.3440
1154.479, 275.3877
1155.569, 220.4443
1156.659, 239.4697
1157.750, 235.7263
1158.839, 257.5918
1159.929, 276.3389
1161.019, 232.3115
1162.108, 291.7705
1163.198, 297.1074
1164.287, 184.0859
1165.376, 145.1062
1166.465, 208.1277
1167.553, 200.7664
1168.642, 248.8308
1169.730, 123.9863
1170.818, 149.1360
1171.906, 209.2939
1172.994, 120.1394
1174.082, 148.0872
1175.170, 176.3770
1176.257, 99.56982
1177.344, 146.4700
1178.431, 50.51660
1179.518, 128.0674
1180.605, 140.1262
1181.691, 137.2437
1182.778, 98.33496
1183.864, 76.09058
1184.950, 44.56763
1186.036, 72.98340
1187.122, 18.37939
1188.207, 91.85400
1189.292, 52.31323
1190.378, 23.76001
1191.463, 36.30664
1192.548, 89.59009
1193.632, 36.27759
1194.717, 65.79102
1195.801, 18.19409
1196.886, 27.06226
1197.970, 19.67285
1199.054, 0.5478520
1200.137, 59.92236
1201.221, 34.71265
1202.305, 8.901123
1203.388, 54.79858
1204.471, 14.54419
1205.554, 17.57837
1206.637, 15.93433
1207.719, 15.82788
1208.802, 23.76318
1209.884, 28.74243
1210.966, 23.77808
1212.048, 22.19385
1213.130, 20.08447
1214.212, 26.43750
1215.293, 38.55615
1216.374, 72.67114
1217.456, 5.797363
1218.536, 31.67847
1219.617, 3.863770
1220.698, 1.973145
1221.778, 31.24780
1222.859, 5.485352
1223.939, 10.32373
1225.019, 4.239014
1226.099, 0.5017090
1227.178, 32.72827
1228.258, 3.960449
1229.337, 19.73071
1230.417, 46.08643
1231.496, 3.656738
1232.574, 60.68970
1233.653, 19.03760
1234.732, 32.01099
1235.810, 74.37085
1236.888, 58.24536
1237.966, 76.21509
1239.044, 2.036133
1240.122, 37.35010
1241.199, 32.72095
1242.277, 27.95166
1243.354, 48.51709
1244.431, 55.80615
1245.508, 35.14673
1246.585, 43.49292
1247.661, 0.8444820
1248.738, 9.798584
1249.814, 35.56201
1250.890, 14.43188
1251.966, 26.39355
1253.042, 45.76782
1254.117, 29.14893
1255.193, 33.63428
1256.268, 39.68921
1257.343, 7.740967
1258.418, 28.46411
1259.493, 46.89404
1260.567, 0.4550780
1261.642, 50.06323
1262.716, 7.387207
1263.790, 41.01855
1264.864, 25.51245
1265.938, 53.10913
1267.011, 15.47998
1268.085, 6.925293
1269.158, 8.668457
1270.231, 8.265625
1271.304, 6.133301
1272.377, 20.46704
1273.450, 22.92261
1274.522, 34.31226
1275.594, 1.702881
1276.666, 20.09155
1277.738, 41.47998
1278.810, 17.86768
1279.882, 22.74512
1280.953, 12.37158
1282.025, 28.00757
1283.096, 15.63062
1284.167, 55.29590
1285.238, 2.072510
1286.308, 19.62964
1287.379, 41.65283
1288.449, 26.01880
1289.519, 8.241943
1290.589, 1.501221
1291.659, 50.25195
1292.729, 15.96460
1293.798, 8.822266
1294.868, 66.37769
1295.937, 0.4262700
1297.006, 36.75952
1298.075, 13.94165
1299.143, 16.11816
1300.212, 5.710449
1301.280, 16.55371
1302.348, 0.3437500
1303.416, 16.78052
1304.484, 36.93042
1305.552, 3.181152
1306.620, 15.68530
1307.687, 13.45312
1308.754, 48.38330
1309.821, 2.728271
1310.888, 30.28113
1311.955, 12.70386
1313.021, 23.65332
1314.088, 0.5947270
1315.154, 39.51978
1316.220, 29.43799
1317.286, 33.34900
1318.352, 54.25232
1319.417, 31.14819
1320.483, 8.144653
1321.548, 1.031982
1322.613, 51.10669
1323.678, 26.32849
1324.743, 24.48853
1325.807, 40.29968
1326.872, 3.253540
1327.936, 69.80066
1329.000, 64.04761
1330.064, 13.82727
1331.128, 66.49561
1332.191, 65.25854
1333.255, 32.14233
1334.318, 22.15527
1335.381, 58.16809
1336.444, 81.96851
1337.507, 83.32727
1338.569, 56.02405
1339.632, 70.71240
1340.694, 40.01013
1341.756, 37.67712
1342.818, 58.32959
1343.880, 78.99487
1344.941, 79.62488
1346.003, 0.2634280
1347.064, 59.85510
1348.125, 87.13086
1349.186, 3.301758
1350.247, 57.23096
1351.308, 86.91748
1352.368, 41.46863
1353.428, 63.94458
1354.489, 72.42139
1355.549, 91.85217
1356.608, 64.27417
1357.668, 33.45654
1358.727, 102.1820
1359.787, 64.50598
1360.846, 105.8694
1361.905, 28.81665
1362.964, 67.15100
1364.022, 36.47205
1365.081, 62.77722
1366.139, 71.27783
1367.197, 114.6423
1368.255, 73.90662
1369.313, 103.1572
1370.371, 63.60535
1371.428, 4.350708
1372.486, 107.6182
1373.543, 148.8138
1374.600, 105.0469
1375.657, 98.19958
1376.713, 100.4769
1377.770, 21.34277
1378.826, 49.19556
1379.882, 90.50977
1380.938, 104.6858
1381.994, 4.592285
1383.050, 50.25732
1384.106, 37.46533
1385.161, 22.41418
1386.216, 88.49915
1387.271, 4.726440
1388.326, 69.49146
1389.381, 74.92822
1390.435, 107.2642
1391.490, 81.03821
1392.544, 73.02319
1393.598, 116.5916
1394.652, 126.7638
1395.705, 137.5801
1396.759, 143.9728
1397.812, 140.3019
1398.866, 108.1384
1399.919, 133.8477
1400.972, 118.4028
1402.024, 131.4949
1403.077, 123.1368
1404.129, 127.8191
1405.181, 113.4871
1406.233, 124.2537
1407.285, 112.5278
1408.337, 102.3513
1409.389, 91.19702
1410.440, 111.6785
1411.491, 81.81323
1412.542, 112.1537
1413.593, 108.2711
1414.644, 83.76172
1415.695, 117.4084
1416.745, 114.8669
1417.795, 101.9946
1418.845, 117.3916
1419.895, 100.4406
1420.945, 119.8077
1421.995, 126.1782
1423.044, 112.9375
1424.093, 93.27417
1425.142, 143.5200
1426.191, 133.7762
1427.240, 150.0244
1428.289, 75.58569
1429.337, 103.0476
1430.385, 65.16943
1431.433, 78.39160
1432.481, 73.90662
1433.529, 69.26978
1434.577, 65.13135
1435.624, 63.28845
1436.672, 112.7847
1437.719, 70.11096
1438.766, 86.80835
1439.812, 104.7518
1440.859, 83.79834
1441.905, 115.8284
1442.952, 99.95569
1443.998, 75.92639
1445.044, 97.90564
1446.090, 59.76721
1447.135, 101.7531
1448.181, 47.49573
1449.226, 18.15466
1450.271, 92.74255
1451.316, 126.5642
1452.361, 51.61926
1453.405, 16.12964
1454.450, 86.32532
1455.494, 103.0397
1456.538, 76.72302
1457.582, 93.87524
1458.626, 56.49646
1459.670, 42.17285
1460.713, 41.70007
1461.757, 58.82654
1462.800, 18.94446
1463.843, 104.3464
1464.886, 108.7048
1465.928, 99.44617
1466.971, 88.72900
1468.013, 118.0693
1469.055, 66.53442
1470.097, 95.74768
1471.139, 68.94604
1472.181, 108.5608
1473.222, 14.74341
1474.263, 65.89880
1475.305, 82.32397
1476.346, 36.77417
1477.386, 54.00366
1478.427, 90.17639
1479.468, 55.23499
1480.508, 98.84863
1481.548, 58.42639
1482.588, 33.78723
1483.628, 21.49878
1484.668, 65.18665
1485.707, 82.85229
1486.747, 95.50073
1487.786, 74.11597
1488.825, 83.70032
1489.864, 75.26025
1490.902, 27.77527
1491.941, 40.25415
1492.979, 91.84265
1494.017, 117.3484
1495.055, 89.91919
1496.093, 6.513428
1497.131, 41.09705
1498.168, 53.66431
1499.206, 41.20789
1500.243, 91.62854
1501.280, 12.87439
1502.317, 73.29626
1503.354, 51.50781
1504.390, 17.94031
1505.426, 12.44116
1506.463, 80.22119
1507.499, 44.87537
1508.535, 83.51367
1509.570, 25.92798
1510.606, 69.61719
1511.641, 78.23706
1512.676, 40.87500
1513.711, 54.39404
1514.746, 38.86951
1515.781, 75.42981
1516.816, 30.02344
1517.850, 86.90637
1518.884, 39.23975
1519.918, 74.54614
1520.952, 94.77332
1521.986, 72.00195
1523.019, 36.41260
1524.053, 35.07544
1525.086, 53.25696
1526.119, 10.57336
1527.152, 79.48853
1528.185, 78.91785
1529.217, 41.27588
1530.250, 17.61658
1531.282, 29.29272
1532.314, 21.93298
1533.346, 39.57263
1534.377, 50.84253
1535.409, 66.78467
1536.440, 91.66919
1537.472, 49.72766
1538.503, 102.5455
1539.534, 21.23242
1540.564, 13.36292
1541.595, 0.8983150
1542.625, 54.69751
1543.656, 37.21167
1544.686, 101.5590
1545.716, 61.10352
1546.745, 48.71106
1547.775, 93.07556
1548.804, 142.5507
1549.834, 171.0439
1550.863, 175.1578
1551.892, 158.4056
1552.920, 141.6394
1553.949, 97.86365
1554.977, 85.40039
1556.006, 43.93762
1557.034, 41.48730
1558.062, 44.76477
1559.089, 31.98914
1560.117, 23.20386
1561.144, 34.43701
1562.172, 6.750854
1563.199, 23.05481
1564.226, 5.550049
1565.252, 20.24634
1566.279, 0.9066160
1567.305, 46.99243
1568.332, 39.02515
1569.358, 2.092285
1570.384, 0.0000000E+00
##END=



