##NAMES=Chloritoid
##RRUFFID=R060292
##IDEAL CHEMISTRY=Fe^2+^Al_2_OSiO_4_(OH)_2_
##LOCALITY=Pech, Kunar Province, Afghanistan
##OWNER=RRUFF
##SOURCE=Herb Obodda
##DESCRIPTION=Black tabular crystal
##STATUS=The identification of this mineral has been confirmed by X-ray diffraction and chemical analysis
##URL=rruff.info/R060292
##MEASURED CHEMISTRY=(Fe^2+^_1.55_Mg_0.43_Mn_0.02_)_Σ=2_(Al_3.93_Fe^3+^_0.07_)_Σ=4_Si_2.00_O_10_(OH)_4_
##PIN_ID=M00413
##ORIENTATION=Laser parallel to c* (0 0 1). Fiducial mark perpendicular to laser is parallel to a [1 0 0]
89.77700, 0.0000000E+00
91.01200, 63.11670
92.24600, 103.3157
93.48000, 51.17114
94.71400, 1.575439
95.94800, 28.40649
97.18200, 118.8513
98.41600, 64.61230
99.64900, 98.42285
100.8830, 93.14502
102.1160, 114.9490
103.3490, 355.9167
104.5820, 618.9226
105.8150, 590.5515
107.0470, 586.5420
108.2800, 643.0103
109.5120, 574.7886
110.7440, 602.3650
111.9760, 475.5117
113.2080, 544.7151
114.4400, 500.2471
115.6710, 347.3955
116.9030, 225.6077
118.1340, 119.4160
119.3650, 115.7729
120.5960, 159.2048
121.8270, 175.7061
123.0580, 10.27368
124.2880, 5.921143
125.5190, 18.33276
126.7490, 60.50879
127.9790, 90.43530
129.2090, 131.4353
130.4390, 38.50000
131.6680, 48.62305
132.8980, 52.79761
134.1270, 26.01831
135.3560, 1.718262
136.5850, 3.554688
137.8140, 9.650879
139.0430, 7.284912
140.2710, 8.319336
141.5000, 6.103516
142.7280, 8.551025
143.9560, 36.02222
145.1840, 38.51538
146.4120, 5.970703
147.6390, 42.56323
148.8670, 27.14673
150.0940, 165.6858
151.3210, 68.27295
152.5490, 99.87622
153.7750, 180.4951
155.0020, 28.13208
156.2290, 29.86865
157.4550, 86.79199
158.6810, 102.9065
159.9080, 78.22510
161.1340, 168.6169
162.3590, 197.9917
163.5850, 242.3589
164.8110, 235.7129
166.0360, 240.9956
167.2610, 232.3372
168.4860, 242.6206
169.7110, 227.8896
170.9360, 232.4150
172.1610, 218.3906
173.3850, 240.6248
174.6100, 243.8486
175.8340, 262.0640
177.0580, 225.2710
178.2820, 230.4709
179.5050, 231.6646
180.7290, 203.8528
181.9520, 218.0232
183.1760, 268.1902
184.3990, 223.3540
185.6220, 280.5151
186.8450, 279.6738
188.0670, 312.8274
189.2900, 319.9775
190.5120, 393.1267
191.7340, 410.2751
192.9560, 489.4224
194.1780, 396.5703
195.4000, 506.7188
196.6220, 445.8684
197.8430, 523.0188
199.0640, 569.1704
200.2860, 627.3235
201.5070, 474.4780
202.7270, 439.6335
203.9480, 301.7910
205.1690, 296.9500
206.3890, 251.1111
207.6090, 261.2734
208.8290, 174.4382
210.0490, 209.6050
211.2690, 250.7739
212.4890, 324.9451
213.7080, 179.1189
214.9280, 193.2952
216.1470, 163.4741
217.3660, 157.6558
218.5850, 136.8398
219.8030, 139.2351
221.0220, 119.3398
222.2400, 104.7317
223.4590, 117.0935
224.6770, 129.9248
225.8950, 114.8547
227.1120, 120.8928
228.3300, 126.1694
229.5480, 118.5713
230.7650, 131.6877
231.9820, 146.5569
233.1990, 139.4307
234.4160, 134.0127
235.6330, 132.1284
236.8490, 39.37622
238.0660, 114.5510
239.2820, 110.4502
240.4980, 97.28735
241.7140, 160.4141
242.9300, 92.22339
244.1460, 171.1865
245.3610, 190.1667
246.5770, 196.1587
247.7920, 225.1631
249.0070, 186.1797
250.2220, 171.2075
251.4370, 199.2466
252.6510, 183.9587
253.8660, 130.3567
255.0800, 201.3972
256.2940, 201.6304
257.5080, 210.2446
258.7220, 265.5923
259.9360, 213.6792
261.1490, 147.7700
262.3630, 186.8667
263.5760, 175.9741
264.7890, 181.0889
266.0020, 296.2136
267.2150, 288.3484
268.4270, 425.4924
269.6400, 465.6418
270.8520, 552.7898
272.0640, 686.0764
273.2760, 884.2559
274.4880, 1198.443
275.7000, 1568.638
276.9120, 2035.840
278.1230, 2563.049
279.3340, 3043.265
280.5450, 3196.489
281.7560, 2847.693
282.9670, 2508.929
284.1780, 1972.933
285.3880, 1594.182
286.5980, 1229.259
287.8090, 867.5195
289.0190, 727.7859
290.2290, 534.0581
291.4380, 509.3359
292.6480, 408.5193
293.8570, 377.8083
295.0670, 297.1030
296.2760, 285.4028
297.4850, 224.7085
298.6930, 206.0190
299.9020, 186.3352
301.1110, 202.6565
302.3190, 215.9827
303.5270, 258.3125
304.7350, 250.6418
305.9430, 253.7583
307.1510, 249.3184
308.3580, 216.6577
309.5660, 212.9993
310.7730, 161.3428
311.9800, 181.6885
313.1870, 187.0366
314.3940, 149.3875
315.6010, 156.7407
316.8070, 162.0967
318.0130, 126.4556
319.2200, 239.8174
320.4260, 196.1819
321.6310, 296.5496
322.8370, 313.9202
324.0430, 398.2939
325.2480, 518.6709
326.4540, 630.0508
327.6590, 828.4341
328.8640, 939.8210
330.0680, 1085.211
331.2730, 1087.604
332.4780, 903.0015
333.6820, 647.4016
334.8860, 562.8057
336.0900, 330.2131
337.2940, 262.6240
338.4980, 151.0388
339.7010, 101.4573
340.9050, 160.8792
342.1080, 149.3049
343.3110, 153.7339
344.5140, 203.1672
345.7170, 45.60425
346.9200, 86.04443
348.1220, 0.5114750
349.3240, 8.064941
350.5270, 35.61743
351.7290, 30.82471
352.9310, 34.72998
354.1320, 42.28955
355.3340, 39.85645
356.5350, 68.43018
357.7370, 21.01758
358.9380, 40.60693
360.1390, 22.20312
361.3400, 72.80127
362.5400, 34.41406
363.7410, 62.36890
364.9410, 24.66333
366.1410, 76.31030
367.3410, 17.98267
368.5410, 16.33301
369.7410, 38.37231
370.9400, 28.90723
372.1400, 35.16187
373.3390, 64.39844
374.5380, 35.61475
375.7370, 13.17310
376.9360, 54.04126
378.1350, 1.261963
379.3330, 18.48462
380.5310, 61.71216
381.7300, 76.94873
382.9280, 123.1899
384.1260, 88.43750
385.3230, 143.6917
386.5210, 120.9556
387.7180, 121.2258
388.9160, 125.5029
390.1130, 89.78589
391.3100, 152.0750
392.5060, 150.3701
393.7030, 164.6707
394.9000, 129.9795
396.0960, 155.3005
397.2920, 199.6282
398.4880, 216.9634
399.6840, 259.6182
400.8800, 202.6580
402.0750, 349.0193
403.2710, 380.3911
404.4660, 449.7690
405.6610, 596.1606
406.8560, 699.5586
408.0510, 957.9619
409.2450, 1264.391
410.4400, 1537.831
411.6340, 1865.294
412.8280, 2028.781
414.0220, 1984.287
415.2160, 1784.797
416.4100, 1470.317
417.6030, 1066.844
418.7970, 882.3894
419.9900, 686.9507
421.1830, 577.5256
422.3760, 489.1055
423.5690, 376.6909
424.7610, 496.2825
425.9540, 335.8792
427.1460, 371.4814
428.3380, 251.0903
429.5300, 182.7048
430.7220, 207.3254
431.9140, 189.9512
433.1050, 101.5825
434.2970, 163.2195
435.4880, 164.8613
436.6790, 84.50903
437.8700, 86.16235
439.0610, 150.8210
440.2510, 149.4849
441.4420, 141.8799
442.6320, 28.82788
443.8220, 105.5073
445.0120, 66.19214
446.2020, 54.88208
447.3910, 110.5771
448.5810, 131.2773
449.7700, 112.9829
450.9600, 139.6936
452.1490, 198.4094
453.3370, 154.1304
454.5260, 217.8564
455.7150, 163.5879
456.9030, 162.3247
458.0910, 158.0664
459.2800, 253.8135
460.4670, 255.5657
461.6550, 278.3228
462.8430, 346.0850
464.0300, 320.8525
465.2180, 334.6252
466.4050, 450.4031
467.5920, 445.1858
468.7790, 456.9739
469.9650, 518.7666
471.1520, 648.5652
472.3380, 603.3682
473.5250, 607.1765
474.7110, 782.9897
475.8970, 770.8081
477.0820, 651.6318
478.2680, 638.4602
479.4540, 625.2935
480.6390, 522.1321
481.8240, 590.9756
483.0090, 519.8237
484.1940, 547.6772
485.3780, 560.5356
486.5630, 556.3987
487.7470, 658.2666
488.9320, 673.1399
490.1160, 746.0178
491.3000, 855.7148
492.4830, 1046.061
493.6670, 1380.873
494.8500, 1675.771
496.0340, 1777.652
497.2170, 1852.055
498.4000, 1917.702
499.5820, 1697.543
500.7650, 1442.264
501.9480, 1181.874
503.1300, 1083.569
504.3120, 1010.206
505.4940, 864.2310
506.6760, 894.5676
507.8580, 805.2227
509.0390, 703.7285
510.2210, 676.4697
511.4020, 645.5295
512.5830, 556.9790
513.7640, 512.0508
514.9450, 501.1296
516.1250, 478.5874
517.3060, 497.3071
518.4860, 498.7112
519.6660, 612.8198
520.8460, 645.9023
522.0260, 675.0393
523.2060, 788.0715
524.3850, 990.2219
525.5650, 1017.378
526.7440, 1158.540
527.9230, 1104.709
529.1020, 1044.889
530.2810, 980.1626
531.4590, 735.3538
532.6380, 634.5513
533.8160, 513.7551
534.9940, 481.9644
536.1720, 416.5015
537.3500, 434.1030
538.5270, 376.3914
539.7050, 410.9404
540.8820, 381.6506
542.0590, 466.0381
543.2360, 513.2471
544.4130, 593.5039
545.5900, 716.7634
546.7660, 936.7437
547.9430, 1255.066
549.1190, 1639.341
550.2950, 2011.040
551.4710, 2182.525
552.6470, 1842.759
553.8220, 1561.545
554.9980, 1126.250
556.1730, 812.5508
557.3480, 632.9473
558.5230, 524.3442
559.6980, 492.5742
560.8730, 374.2300
562.0470, 347.2498
563.2220, 392.5718
564.3960, 442.8970
565.5700, 393.2249
566.7440, 386.5559
567.9170, 423.8899
569.0910, 472.2266
570.2640, 516.5664
571.4380, 564.1060
572.6110, 655.2542
573.7840, 686.6021
574.9570, 763.9526
576.1290, 877.3059
577.3020, 960.6621
578.4740, 1239.021
579.6460, 1459.382
580.8180, 1841.745
581.9900, 2371.112
583.1620, 3076.480
584.3330, 4280.851
585.5040, 5955.225
586.6760, 8365.600
587.8470, 11850.98
589.0180, 17912.36
590.1880, 28318.74
591.3590, 43435.12
592.5290, 57217.51
593.7000, 56363.89
594.8700, 41643.29
596.0400, 26723.69
597.2090, 17069.08
598.3790, 11129.48
599.5490, 7829.875
600.7180, 5735.276
601.8870, 4176.678
603.0560, 3289.082
604.2250, 2606.489
605.3940, 2098.896
606.5620, 1837.306
607.7300, 1544.717
608.8990, 1339.130
610.0670, 1143.248
611.2350, 927.9604
612.4020, 842.3782
613.5700, 766.7969
614.7370, 672.2175
615.9050, 606.6396
617.0720, 535.1355
618.2390, 476.6533
619.4060, 407.9131
620.5720, 386.3403
621.7390, 328.7688
622.9050, 304.1985
624.0710, 297.6294
625.2370, 246.0613
626.4030, 272.4946
627.5690, 203.9287
628.7340, 207.3640
629.9000, 204.8005
631.0650, 192.2378
632.2300, 205.7981
633.3950, 157.2417
634.5600, 155.6953
635.7240, 141.1499
636.8890, 98.61475
638.0530, 73.77808
639.2170, 32.26562
640.3810, 41.77148
641.5450, 143.0269
642.7080, 10.55029
643.8720, 52.06616
645.0350, 54.27612
646.1980, 1.833984
647.3610, 1.334473
648.5240, 81.52368
649.6870, 44.73438
650.8490, 43.14087
652.0120, 25.28125
653.1740, 50.29150
654.3360, 45.86353
655.4980, 34.43457
656.6600, 86.19897
657.8210, 62.35547
658.9830, 15.92725
660.1440, 15.77222
661.3050, 21.51855
662.4660, 10.91284
663.6270, 90.64600
664.7870, 65.20337
665.9480, 34.75952
667.1080, 63.31396
668.2680, 18.79321
669.4280, 6.344482
670.5880, 81.89307
671.7480, 17.43945
672.9070, 21.98486
674.0670, 40.52783
675.2260, 1.069580
676.3850, 16.39429
677.5440, 10.12646
678.7030, 1.644531
679.8610, 0.8430180
681.0200, 6.712158
682.1780, 8.836182
683.3360, 9.346191
684.4940, 20.13184
685.6520, 20.39233
686.8090, 13.06616
687.9670, 20.52124
689.1240, 63.02563
690.2810, 11.61279
691.4380, 55.21387
692.5950, 63.85132
693.7520, 30.53027
694.9080, 55.76733
696.0650, 12.06274
697.2210, 12.35449
698.3770, 38.35718
699.5330, 29.09692
700.6880, 18.85986
701.8440, 52.35913
702.9990, 51.57617
704.1550, 45.79028
705.3100, 74.00269
706.4650, 97.21240
707.6190, 61.41992
708.7740, 124.6250
709.9290, 160.8276
711.0830, 139.0281
712.2370, 112.2261
713.3910, 127.4219
714.5450, 211.6155
715.6980, 257.8064
716.8520, 250.9954
718.0050, 332.1816
719.1580, 339.3657
720.3110, 418.5474
721.4640, 521.7266
722.6170, 656.9036
723.7700, 672.0779
724.9220, 719.2502
726.0740, 923.4202
727.2260, 993.5876
728.3780, 1139.753
729.5300, 1252.916
730.6810, 1297.076
731.8330, 1397.234
732.9840, 1390.390
734.1350, 1431.543
735.2860, 1329.694
736.4370, 1304.843
737.5880, 1138.989
738.7380, 1126.134
739.8880, 1077.275
741.0390, 1042.415
742.1890, 934.5520
743.3380, 863.6870
744.4880, 735.8196
745.6380, 627.9497
746.7870, 584.0776
747.9360, 494.2036
749.0850, 476.3276
750.2340, 390.4490
751.3830, 375.5686
752.5310, 276.6858
753.6800, 269.8008
754.8280, 242.9136
755.9760, 142.0283
757.1240, 126.1414
758.2720, 134.2524
759.4190, 133.3613
760.5670, 68.46802
761.7140, 35.57275
762.8610, 78.67529
764.0080, 54.77563
765.1550, 100.8740
766.3020, 61.97021
767.4480, 51.06445
768.5950, 53.15771
769.7410, 11.24902
770.8870, 79.33643
772.0330, 85.42700
773.1780, 51.51587
774.3240, 64.60254
775.4690, 18.31274
776.6140, 99.75415
777.7590, 43.82471
778.9040, 67.10693
780.0490, 74.91821
781.1940, 7.058838
782.3380, 50.04395
783.4820, 54.93628
784.6260, 5.917969
785.7700, 60.13599
786.9140, 26.19604
788.0580, 13.97852
789.2010, 50.92529
790.3450, 55.28613
791.4880, 26.18872
792.6310, 56.08936
793.7730, 3.989746
794.9160, 3.114258
796.0590, 28.77344
797.2010, 31.34033
798.3430, 13.47583
799.4850, 22.38208
800.6270, 12.35132
801.7690, 40.20703
802.9100, 25.06104
804.0520, 30.91357
805.1930, 10.23511
806.3340, 25.60547
807.4750, 10.36011
808.6160, 101.2019
809.7560, 102.0425
810.8970, 88.88184
812.0370, 8.720215
813.1770, 64.23560
814.3170, 80.69116
815.4570, 72.46484
816.5960, 124.9822
817.7360, 158.3435
818.8750, 190.0327
820.0140, 181.9048
821.1530, 133.7339
822.2920, 152.5654
823.4310, 211.6807
824.5690, 295.4587
825.7070, 275.2893
826.8460, 270.7007
827.9840, 374.3311
829.1220, 463.2173
830.2590, 475.5557
831.3970, 572.9800
832.5340, 553.8140
833.6710, 746.5571
834.8080, 780.3044
835.9450, 827.2236
837.0820, 967.7222
838.2190, 1011.861
839.3550, 1096.703
840.4910, 1112.080
841.6270, 1138.394
842.7630, 1093.241
843.8990, 1031.092
845.0350, 1003.944
846.1700, 1018.798
847.3060, 1067.654
848.4410, 1117.513
849.5760, 1005.374
850.7100, 994.2368
851.8450, 959.1023
852.9800, 1016.970
854.1140, 969.8403
855.2480, 1010.713
856.3820, 1085.588
857.5160, 1063.466
858.6500, 1138.347
859.7830, 1183.230
860.9170, 1270.116
862.0500, 1350.005
863.1830, 1428.896
864.3160, 1582.791
865.4480, 1710.688
866.5810, 1733.588
867.7130, 2112.491
868.8460, 2271.398
869.9780, 2610.308
871.1100, 3075.220
872.2410, 3514.136
873.3730, 3925.055
874.5050, 4346.977
875.6360, 4990.902
876.7670, 5308.832
877.8980, 5664.765
879.0290, 5889.700
880.1590, 5848.639
881.2900, 5706.582
882.4200, 5432.528
883.5500, 5026.478
884.6800, 4660.489
885.8100, 4151.446
886.9400, 3731.407
888.0690, 3201.372
889.1990, 2789.341
890.3280, 2490.313
891.4570, 2250.223
892.5860, 1938.203
893.7140, 1731.270
894.8430, 1502.258
895.9710, 1438.250
897.1000, 1351.245
898.2280, 1255.246
899.3560, 1162.250
900.4830, 1132.259
901.6110, 994.2729
902.7380, 978.2898
903.8660, 951.4890
904.9930, 899.5144
906.1200, 888.8032
907.2460, 875.1719
908.3730, 840.6482
909.5000, 872.6914
910.6260, 838.7385
911.7520, 841.1384
912.8780, 817.7056
914.0040, 775.4658
915.1290, 756.7896
916.2550, 723.8606
917.3800, 709.6885
918.5050, 650.1089
919.6300, 741.6753
920.7550, 721.5093
921.8800, 579.3279
923.0040, 651.2959
924.1290, 532.1318
925.2530, 625.2708
926.3770, 529.0037
927.5010, 519.1614
928.6250, 538.7720
929.7480, 562.7471
930.8720, 584.3359
931.9950, 601.5176
933.1180, 508.6045
934.2410, 549.0149
935.3640, 546.4333
936.4860, 666.6724
937.6090, 650.9207
938.7310, 585.1755
939.8530, 637.4365
940.9750, 613.7783
942.0970, 657.8901
943.2180, 654.7156
944.3400, 663.5068
945.4610, 685.8335
946.5820, 741.1672
947.7030, 833.5076
948.8240, 836.8564
949.9450, 823.2185
951.0650, 806.5886
952.1860, 817.9673
953.3060, 919.3555
954.4260, 955.7520
955.5460, 1021.159
956.6650, 941.5781
957.7850, 890.0056
958.9040, 932.4475
960.0230, 924.8967
961.1420, 909.3528
962.2610, 888.8354
963.3800, 771.3311
964.4990, 747.8582
965.6170, 642.4146
966.7350, 658.9890
967.8530, 612.5703
968.9710, 657.1599
970.0890, 601.7568
971.2070, 559.3738
972.3240, 529.0100
973.4410, 479.4395
974.5580, 457.3274
975.6750, 393.9993
976.7920, 361.6814
977.9090, 315.3701
979.0250, 306.0662
980.1410, 265.7695
981.2580, 259.5354
982.3740, 264.1970
983.4890, 242.9216
984.6050, 241.6533
985.7200, 219.3921
986.8360, 183.1379
987.9510, 186.8911
989.0660, 113.6514
990.1810, 172.4294
991.2950, 214.2148
992.4100, 185.0071
993.5240, 89.80664
994.6390, 153.6133
995.7530, 62.42700
996.8660, 137.2480
997.9800, 123.0759
999.0940, 96.91113
1000.207, 170.7532
1001.320, 168.6025
1002.433, 99.45923
1003.546, 113.3228
1004.659, 65.19336
1005.772, 59.07104
1006.884, 72.95679
1007.996, 85.84961
1009.108, 72.75488
1010.220, 72.66211
1011.332, 45.57642
1012.444, 83.49731
1013.555, 76.42578
1014.666, 110.3611
1015.777, 93.30347
1016.888, 66.25293
1017.999, 3.790283
1019.110, 16.19873
1020.220, 91.14282
1021.331, 18.11963
1022.441, 44.10352
1023.551, 22.09424
1024.661, 29.90820
1025.770, 24.08765
1026.880, 4.909424
1027.989, 86.09937
1029.098, 50.11475
1030.207, 3.136963
1031.316, 44.16602
1032.425, 37.20215
1033.533, 27.24487
1034.642, 1.294434
1035.750, 19.35034
1036.858, 8.586670
1037.966, 16.48120
1039.073, 15.62939
1040.181, 33.36304
1041.288, 25.71509
1042.396, 6.799561
1043.503, 1.890869
1044.610, 92.98877
1045.716, 34.89893
1046.823, 45.20850
1047.929, 45.43677
1049.036, 18.58325
1050.142, 23.26343
1051.248, 67.89404
1052.353, 38.92627
1053.459, 7.247070
1054.564, 62.42822
1055.670, 12.40356
1056.775, 130.4187
1057.880, 94.65259
1058.985, 18.10718
1060.089, 50.13354
1061.194, 14.61987
1062.298, 82.62866
1063.402, 68.88428
1064.506, 67.14893
1065.610, 6.580566
1066.713, 32.66528
1067.817, 5.628418
1068.920, 46.65820
1070.023, 119.5784
1071.126, 68.87573
1072.229, 106.1785
1073.332, 82.48657
1074.435, 18.93799
1075.537, 43.55981
1076.639, 94.86816
1077.741, 58.19238
1078.843, 112.5220
1079.945, 116.8557
1081.046, 116.1941
1082.148, 124.5374
1083.249, 113.9919
1084.350, 201.3442
1085.451, 165.7009
1086.551, 232.0620
1087.652, 220.4270
1088.752, 193.7966
1089.853, 211.3867
1090.953, 200.7268
1092.053, 271.1470
1093.152, 235.5371
1094.252, 223.9314
1095.351, 303.3418
1096.451, 237.4541
1097.550, 232.4885
1098.649, 268.8984
1099.748, 241.3118
1100.846, 172.7283
1101.945, 254.1484
1103.043, 236.5715
1104.141, 231.3538
1105.239, 145.0024
1106.337, 199.6833
1107.434, 176.1187
1108.532, 138.0549
1109.629, 152.4956
1110.726, 109.9387
1111.823, 222.3879
1112.920, 196.8396
1114.017, 171.2935
1115.113, 285.7502
1116.210, 181.2097
1117.306, 173.6716
1118.402, 190.1357
1119.498, 178.6025
1120.593, 169.1052
1121.689, 192.9983
1122.784, 147.4717
1123.879, 170.9473
1124.974, 175.4248
1126.069, 131.9045
1127.164, 179.3862
1128.259, 117.8696
1129.353, 49.35474
1130.447, 95.84180
1131.541, 110.3311
1132.635, 124.8218
1133.729, 142.7363
1134.822, 144.0447
1135.916, 151.3047
1137.009, 120.8025
1138.102, 107.4775
1139.195, 40.97852
1140.288, 11.48486
1141.380, 94.01123
1142.473, 51.51636
1143.565, 91.02295
1144.657, 45.53101
1145.749, 121.0400
1146.841, 138.5508
1147.932, 128.0625
1149.024, 33.69019
1150.115, 62.14673
1151.206, 116.6619
1152.297, 56.17847
1153.388, 85.69604
1154.479, 73.21484
1155.569, 100.7344
1156.659, 100.3208
1157.750, 50.84229
1158.839, 57.28296
1159.929, 58.80688
1161.019, 76.33154
1162.108, 60.85718
1163.198, 54.81958
1164.287, 56.65356
1165.376, 39.43823
1166.465, 59.96436
1167.553, 90.49341
1168.642, 116.8450
1169.730, 76.37549
1170.818, 93.90601
1171.906, 62.28491
1172.994, 49.81689
1174.082, 74.34912
1175.170, 96.88184
1176.257, 117.4150
1177.344, 63.70337
1178.431, 9.237549
1179.518, 111.0383
1180.605, 69.57178
1181.691, 86.36768
1182.778, 19.90137
1183.864, 28.95532
1184.950, 76.48926
1186.036, 20.97656
1187.122, 4.458740
1188.207, 65.05176
1189.292, 49.56201
1190.378, 66.49097
1191.463, 44.00098
1192.548, 72.06396
1193.632, 68.57324
1194.717, 28.09839
1195.801, 62.60669
1196.886, 66.05835
1197.970, 20.96289
1199.054, 28.29883
1200.137, 2.249756
1201.221, 79.19482
1202.305, 46.63940
1203.388, 26.08301
1204.471, 44.47363
1205.554, 6.117188
1206.637, 56.47095
1207.719, 27.90576
1208.802, 55.28223
1209.884, 56.65747
1210.966, 27.03247
1212.048, 64.40674
1213.130, 8.779785
1214.212, 57.15771
1215.293, 88.53467
1216.374, 39.91089
1217.456, 32.28662
1218.536, 78.66113
1219.617, 6.035156
1220.698, 57.40527
1221.778, 65.77490
1222.859, 89.06641
1223.939, 25.43408
1225.019, 14.80029
1226.099, 18.69092
1227.178, 1.342285
1228.258, 48.99951
1229.337, 57.34058
1230.417, 36.68018
1231.496, 116.0186
1232.574, 52.35571
1233.653, 3.691650
1234.732, 7.022705
1235.810, 11.03149
1236.888, 49.66553
1237.966, 0.9797360
1239.044, 42.28784
1240.122, 33.59473
1241.199, 109.5857
1242.277, 96.89014
1243.354, 49.19312
1244.431, 102.4956
1245.508, 56.79736
1246.585, 38.09717
1247.661, 58.39600
1248.738, 66.69336
1249.814, 56.98950
1250.890, 29.71606
1251.966, 38.55664
1253.042, 20.82690
1254.117, 69.09595
1255.193, 86.36353
1256.268, 53.63843
1257.343, 33.90332
1258.418, 88.16650
1259.493, 56.43286
1260.567, 48.69312
1261.642, 30.95239
1262.716, 30.45923
1263.790, 33.47583
1264.864, 32.77588
1265.938, 24.03809
1267.011, 8.660156
1268.085, 49.55786
1269.158, 17.81519
1270.231, 16.06519
1271.304, 61.31885
1272.377, 38.57104
1273.450, 101.8218
1274.522, 71.07080
1275.594, 56.31836
1276.666, 27.56445
1277.738, 10.80933
1278.810, 61.05151
1279.882, 51.29272
1280.953, 24.53247
1282.025, 61.77075
1283.096, 51.00781
1284.167, 80.24292
1285.238, 49.47632
1286.308, 59.80615
1287.379, 47.05005
1288.449, 48.28394
1289.519, 58.51660
1290.589, 60.81445
1291.659, 93.97754
1292.729, 79.20557
1293.798, 100.4324
1294.868, 105.1101
1295.937, 86.88086
1297.006, 100.1028
1298.075, 90.32422
1299.143, 97.54370
1300.212, 95.76147
1301.280, 94.38013
1302.348, 88.20264
1303.416, 99.42114
1304.484, 67.63745
1305.552, 78.85303
1306.620, 47.13623
1307.687, 11.70508
1308.754, 44.49951
1309.821, 96.70239
1310.888, 53.90796
1311.955, 52.11230
1313.021, 97.32104
1314.088, 81.53271
1315.154, 66.97266
1316.220, 87.44897
1317.286, 29.59839
1318.352, 89.80518
1319.417, 59.01196
1320.483, 33.21533
1321.548, 51.41626
1322.613, 15.61548
1323.678, 38.81299
1324.743, 96.00903
1325.807, 129.5745
1326.872, 120.7090
1327.936, 129.7410
1329.000, 85.79443
1330.064, 96.99365
1331.128, 55.19189
1332.191, 44.38940
1333.255, 36.32812
1334.318, 36.34521
1335.381, 63.55566
1336.444, 83.75000
1337.507, 71.94336
1338.569, 44.13525
1339.632, 52.36572
1340.694, 79.55737
1341.756, 98.11938
1342.818, 89.38208
1343.880, 34.57251
1344.941, 27.81104
1346.003, 198.9966
1347.064, 24.18213
1348.125, 89.15039
1349.186, 45.33521
1350.247, 14.47998
1351.308, 124.7002
1352.368, 56.88062
1353.428, 1.951904
1354.489, 112.5178
1355.549, 132.1077
1356.608, 12.28687
1357.668, 38.46606
1358.727, 55.64502
1359.787, 68.82397
1360.846, 60.00317
1361.905, 18.82568
1362.964, 60.78613
1364.022, 9.716553
1365.081, 91.89600
1366.139, 74.66748
1367.197, 26.84741
1368.255, 12.97266
1369.313, 39.23999
1370.371, 121.4175
1371.428, 38.79419
1372.486, 45.02075
1373.543, 111.1990
1374.600, 38.37769
1375.657, 54.58472
1376.713, 52.76465
1377.770, 90.94458
1378.826, 6.668701
1379.882, 40.84961
1380.938, 95.03125
1381.994, 119.2136
1383.050, 5.396729
1384.106, 67.58057
1385.161, 32.77393
1386.216, 6.959717
1387.271, 35.14648
1388.326, 30.40112
1389.381, 78.59448
1390.435, 80.92529
1391.490, 2.116699
1392.544, 55.30933
1393.598, 19.50342
1394.652, 51.78003
1395.705, 67.96045
1396.759, 96.13721
1397.812, 64.29736
1398.866, 61.48120
1399.919, 76.66675
1400.972, 99.85327
1402.024, 93.08740
1403.077, 71.23071
1404.129, 65.51514
1405.181, 50.98730
1406.233, 42.84253
1407.285, 45.09448
1408.337, 54.29126
1409.389, 94.48901
1410.440, 59.68530
1411.491, 42.88354
1412.542, 53.08301
1413.593, 1.715332
1414.644, 87.51245
1415.695, 93.71753
1416.745, 64.92456
1417.795, 57.18164
1418.845, 37.39160
1419.895, 80.56274
1420.945, 58.08691
1421.995, 96.94702
1423.044, 59.17676
1424.093, 74.34595
1425.142, 93.51587
1426.191, 95.69385
1427.240, 88.86182
1428.289, 85.40479
1429.337, 94.19409
1430.385, 59.36060
1431.433, 17.52588
1432.481, 2.690186
1433.529, 4.980225
1434.577, 66.87598
1435.624, 89.03638
1436.672, 89.45068
1437.719, 83.62988
1438.766, 132.7954
1439.812, 44.89331
1440.859, 64.08423
1441.905, 29.70020
1442.952, 62.85718
1443.998, 63.01807
1445.044, 23.87646
1446.090, 78.53931
1447.135, 49.89380
1448.181, 84.16382
1449.226, 62.32666
1450.271, 54.53662
1451.316, 107.7571
1452.361, 29.98022
1453.405, 28.21729
1454.450, 81.48999
1455.494, 48.78101
1456.538, 38.07275
1457.582, 108.3591
1458.626, 38.63940
1459.670, 41.91968
1460.713, 83.20215
1461.757, 41.44165
1462.800, 47.71729
1463.843, 45.83765
1464.886, 14.13818
1465.928, 35.44043
1466.971, 26.25610
1468.013, 7.054932
1469.055, 31.38257
1470.097, 13.31323
1471.139, 99.20581
1472.181, 43.53467
1473.222, 39.86426
1474.263, 105.1963
1475.305, 54.53027
1476.346, 82.89307
1477.386, 79.25977
1478.427, 38.61816
1479.468, 68.98511
1480.508, 18.36060
1481.548, 29.72656
1482.588, 32.03223
1483.628, 67.39038
1484.668, 90.75122
1485.707, 75.11597
1486.747, 64.48413
1487.786, 83.85620
1488.825, 68.23022
1489.864, 55.60815
1490.902, 9.989014
1491.941, 82.37378
1492.979, 59.60034
1494.017, 23.98975
1495.055, 67.38232
1496.093, 1.221191
1497.131, 22.17969
1498.168, 123.5850
1499.206, 57.99512
1500.243, 28.41113
1501.280, 70.83276
1502.317, 74.14282
1503.354, 101.4827
1504.390, 96.27441
1505.426, 95.39746
1506.463, 68.84937
1507.499, 85.30151
1508.535, 59.76343
1509.570, 37.25024
1510.606, 88.75195
1511.641, 71.26294
1512.676, 24.78223
1513.711, 40.30884
1514.746, 32.15747
1515.781, 103.3833
1516.816, 77.94287
1517.850, 79.52441
1518.884, 1.024902
1519.918, 60.88159
1520.952, 93.29370
1521.986, 49.84937
1523.019, 104.4126
1524.053, 83.98315
1525.086, 81.56079
1526.119, 86.03809
1527.152, 61.62842
1528.185, 24.22754
1529.217, 33.93286
1530.250, 83.45337
1531.282, 34.80200
1532.314, 66.43311
1533.346, 73.95996
1534.377, 158.7771
1535.409, 117.4146
1536.440, 97.96240
1537.472, 69.62134
1538.503, 47.29053
1539.534, 101.9697
1540.564, 84.62524
1541.595, 44.32178
1542.625, 173.7178
1543.656, 92.76636
1544.686, 83.09375
1545.716, 39.22314
1546.745, 35.88623
1547.775, 85.99146
1548.804, 82.34106
1549.834, 50.11792
1550.863, 144.0330
1551.892, 216.8643
1552.920, 188.0159
1553.949, 155.1260
1554.977, 178.9600
1556.006, 110.8745
1557.034, 25.24658
1558.062, 78.65845
1559.089, 124.0652
1560.117, 13.47290
1561.144, 56.82715
1562.172, 114.3848
1563.199, 4.962891
1564.226, 58.53540
1565.252, 8.265625
1566.279, 67.02368
1567.305, 18.20068
1568.332, 40.09351
1569.358, 26.32812
1570.384, 0.0000000E+00
##END=



