##NAMES=Chondrodite
##RRUFFID=R040016
##IDEAL CHEMISTRY=Mg_5_(SiO_4_)_2_F_2_
##LOCALITY=Vastmanland, Kafveltorp, Sweden
##OWNER=RRUFF
##SOURCE=University of Arizona Mineral Museum
##DESCRIPTION=Deep red single crystals embedded in matrix
##STATUS=The identification of this mineral has been confirmed by X-ray diffraction and chemical analysis
##URL=rruff.info/R040016
##MEASURED CHEMISTRY=(Mg_4.61_Fe_0.31_Mn_0.07_Ca_0.01_)_Σ=5_(Si_1.00_O_4_)_2_(F_1.16_(OH)_0.84_)_Σ=2_
##PIN_ID=M00256
##ORIENTATION=Laser parallel to -b* (0 -1 0). Fiducial mark perpendicular to laser is parallel to c [0 0 1]
148.124, 0.000
149.506, 10.701
150.889, 10.419
152.271, 5.507
153.653, 3.503
155.035, 16.879
156.417, 5.590
157.798, 26.000
159.179, 46.000
160.560, 63.146
161.941, 35.782
163.321, 33.856
164.702, 2.027
166.082, 0.932
167.461, 2.335
168.841, 11.372
170.220, 17.188
171.600, 8.396
172.979, 28.645
174.357, 78.858
175.736, 115.659
177.114, 195.881
178.492, 268.876
179.870, 314.817
181.247, 423.232
182.625, 387.498
184.002, 456.064
185.379, 304.316
186.756, 278.586
188.132, 167.023
189.508, 100.760
190.884, 84.185
192.260, 12.164
193.636, 39.070
195.011, 16.077
196.386, 35.502
197.761, 5.612
199.136, 26.462
200.510, 42.541
201.885, 36.236
203.259, 42.745
204.632, 43.623
206.006, 29.312
207.379, 18.998
208.753, 0.680
210.125, 6.644
211.498, 5.027
212.871, 5.307
214.243, 82.646
215.615, 97.989
216.987, 99.336
218.358, 123.687
219.730, 59.042
221.101, 114.401
222.472, 70.757
223.843, 67.090
225.213, 137.404
226.583, 90.702
227.953, 82.987
229.323, 82.264
230.693, 63.536
232.062, 59.092
233.431, 79.062
234.800, 53.320
236.169, 66.574
237.537, 92.826
238.906, 98.076
240.274, 118.326
241.642, 81.578
243.009, 93.832
244.377, 99.090
245.744, 40.352
247.111, 56.619
248.478, 42.891
249.844, 40.168
251.210, 28.450
252.576, 8.263
253.942, 4.972
255.308, 35.674
256.673, 25.361
258.039, 39.033
259.404, 9.692
260.768, 30.060
262.133, 60.972
263.497, 67.595
264.861, 109.209
266.225, 153.815
267.589, 109.566
268.952, 110.994
270.315, 41.567
271.678, 127.135
273.041, 139.697
274.404, 254.256
275.766, 396.815
277.128, 525.374
278.490, 657.933
279.852, 683.491
281.213, 613.050
282.575, 479.607
283.936, 475.164
285.296, 317.721
286.657, 216.277
288.017, 169.833
289.378, 172.387
290.738, 138.941
292.097, 106.494
293.457, 154.045
294.816, 154.596
296.175, 157.889
297.534, 204.148
298.893, 217.374
300.251, 245.650
301.609, 135.853
302.967, 122.971
304.325, 96.056
305.682, 87.121
307.040, 155.162
308.397, 92.184
309.754, 173.024
311.110, 161.856
312.467, 260.820
313.823, 257.772
315.179, 298.711
316.535, 319.579
317.890, 302.401
319.246, 320.285
320.601, 315.151
321.956, 261.002
323.311, 268.838
324.665, 264.661
326.019, 223.472
327.373, 200.271
328.727, 222.051
330.081, 193.844
331.434, 173.572
332.787, 212.277
334.140, 181.959
335.493, 181.623
336.846, 189.270
338.198, 151.903
339.550, 166.523
340.902, 134.127
342.254, 174.639
343.605, 112.211
344.956, 94.775
346.307, 82.331
347.658, 11.885
349.009, 38.438
350.359, 30.991
351.709, 58.544
353.059, 55.097
354.409, 85.649
355.758, 94.202
357.108, 132.723
358.457, 141.276
359.806, 195.804
361.154, 189.974
362.503, 277.072
363.851, 289.166
365.199, 370.147
366.547, 466.431
367.894, 481.458
369.242, 527.688
370.589, 555.935
371.936, 578.856
373.282, 524.995
374.629, 577.171
375.975, 507.350
377.321, 580.617
378.667, 653.904
380.013, 722.100
381.358, 835.415
382.703, 1006.668
384.048, 1239.799
385.393, 1441.906
386.738, 1569.918
388.082, 1663.101
389.426, 1498.227
390.770, 1383.327
392.114, 1157.699
393.457, 996.917
394.800, 806.355
396.143, 624.727
397.486, 548.152
398.829, 392.709
400.171, 333.266
401.513, 313.821
402.855, 303.375
404.197, 311.928
405.539, 317.480
406.880, 334.175
408.221, 381.579
409.562, 388.126
410.903, 426.672
412.243, 472.216
413.583, 485.758
414.923, 458.298
416.263, 439.837
417.603, 430.373
418.942, 420.906
420.282, 383.437
421.620, 300.966
422.959, 291.492
424.298, 203.016
425.636, 122.537
426.974, 162.056
428.312, 133.572
429.650, 127.085
430.987, 103.596
432.325, 122.104
433.662, 78.609
434.999, 86.111
436.335, 82.611
437.672, 34.108
439.008, 52.601
440.344, 62.092
441.680, 5.577
443.015, 4.055
444.350, 17.473
445.686, 8.008
447.021, 3.451
448.355, 1.669
449.690, 14.351
451.024, 18.793
452.358, 25.230
453.692, 36.661
455.026, 50.087
456.359, 68.509
457.692, 47.925
459.025, 93.336
460.358, 63.742
461.691, 96.144
463.023, 49.540
464.355, 54.931
465.687, 93.318
467.019, 11.699
468.350, 102.075
469.682, 17.447
471.013, 41.814
472.344, 55.175
473.675, 7.468
475.005, 19.884
476.335, 24.232
477.665, 5.574
478.995, 25.912
480.325, 23.246
481.654, 32.576
482.983, 8.901
484.312, 16.222
485.641, 56.538
486.970, 10.851
488.298, 50.160
489.626, 74.464
490.954, 86.940
492.282, 73.572
493.609, 79.183
494.937, 97.838
496.264, 101.485
497.591, 121.116
498.917, 106.777
500.244, 110.464
501.570, 152.178
502.896, 154.947
504.222, 194.724
505.548, 131.597
506.873, 185.461
508.198, 148.353
509.523, 127.263
510.848, 168.134
512.172, 144.839
513.497, 109.593
514.821, 148.281
516.145, 134.146
517.469, 97.080
518.792, 127.902
520.115, 150.607
521.439, 130.427
522.761, 147.292
524.084, 200.068
525.407, 221.768
526.729, 257.483
528.051, 268.260
529.373, 329.935
530.694, 415.595
532.016, 443.195
533.337, 531.766
534.658, 574.415
535.979, 594.937
537.299, 730.597
538.620, 837.047
539.940, 931.620
541.260, 981.122
542.580, 1211.472
543.899, 1412.931
545.218, 1631.416
546.538, 2020.814
547.857, 2346.149
549.175, 2538.403
550.494, 2639.882
551.812, 2472.042
553.130, 2140.358
554.448, 1788.662
555.766, 1361.749
557.083, 1141.002
558.400, 848.067
559.717, 679.143
561.034, 551.195
562.351, 521.241
563.667, 435.318
564.983, 420.350
566.299, 436.375
567.615, 381.393
568.931, 458.405
570.246, 470.410
571.561, 535.408
572.876, 643.399
574.191, 706.383
575.505, 845.360
576.820, 933.331
578.134, 1140.294
579.448, 1250.251
580.761, 1392.200
582.075, 1546.143
583.388, 1516.079
584.701, 1455.008
586.014, 1309.930
587.327, 1068.759
588.639, 931.625
589.952, 760.526
591.264, 601.421
592.575, 458.308
593.887, 396.189
595.198, 356.063
596.510, 290.930
597.821, 295.790
599.132, 261.643
600.442, 289.490
601.752, 329.329
603.063, 319.162
604.373, 416.988
605.682, 436.807
606.992, 441.620
608.301, 514.425
609.610, 505.223
610.919, 501.015
612.228, 456.800
613.537, 393.578
614.845, 368.350
616.153, 283.074
617.461, 273.832
618.769, 192.583
620.076, 198.327
621.383, 159.064
622.691, 103.795
623.997, 105.519
625.304, 53.236
626.611, 47.947
627.917, 19.650
629.223, 16.347
630.529, 12.037
631.834, 35.279
633.140, 69.604
634.445, 65.939
635.750, 76.284
637.055, 75.639
638.359, 73.005
639.664, 80.380
640.968, 86.766
642.272, 93.797
643.576, 106.238
644.879, 108.989
646.183, 130.420
647.486, 128.863
648.789, 135.319
650.092, 139.787
651.394, 132.268
652.697, 96.762
653.999, 108.268
655.301, 94.784
656.602, 133.312
657.904, 148.852
659.205, 125.406
660.506, 100.972
661.807, 126.549
663.108, 137.138
664.409, 118.740
665.709, 103.354
667.009, 107.472
668.309, 121.617
669.609, 100.266
670.908, 97.926
672.207, 85.597
673.506, 80.278
674.805, 97.970
676.104, 71.673
677.402, 102.385
678.701, 58.109
679.999, 85.841
681.297, 71.584
682.594, 40.337
683.892, 65.098
685.189, 71.868
686.486, 54.648
687.783, 42.437
689.079, 26.234
690.376, 76.039
691.672, 8.853
692.968, 43.674
694.264, 42.504
695.560, 2.659
696.855, 34.185
698.150, 21.964
699.445, 1.107
700.740, 32.243
702.035, 71.375
703.329, 3.500
704.623, 53.619
705.917, 26.733
707.211, 58.841
708.504, 56.944
709.798, 84.041
711.091, 129.133
712.384, 103.219
713.677, 130.300
714.969, 169.376
716.262, 196.447
717.554, 226.512
718.846, 223.572
720.138, 246.990
721.429, 243.677
722.720, 273.722
724.012, 309.762
725.303, 333.797
726.593, 330.827
727.884, 403.853
729.174, 462.874
730.464, 464.891
731.754, 559.902
733.044, 557.909
734.333, 682.912
735.623, 659.909
736.912, 678.903
738.201, 732.892
739.490, 737.876
740.778, 853.856
742.066, 847.831
743.355, 883.803
744.642, 993.770
745.930, 990.732
747.218, 1140.691
748.505, 1187.646
749.792, 1260.596
751.079, 1443.542
752.366, 1512.485
753.652, 1595.423
754.939, 1660.358
756.225, 1763.289
757.511, 1872.216
758.796, 1885.139
760.082, 1910.059
761.367, 1935.975
762.652, 1804.888
763.937, 1862.797
765.222, 1756.703
766.506, 1707.605
767.790, 1526.504
769.075, 1429.399
770.358, 1383.291
771.642, 1308.004
772.926, 1261.554
774.209, 1162.118
775.492, 1047.631
776.775, 1079.143
778.058, 954.665
779.340, 999.150
780.622, 1004.602
781.904, 969.018
783.186, 1020.374
784.468, 1042.715
785.750, 1170.953
787.031, 1101.197
788.312, 1133.408
789.593, 1182.596
790.873, 1118.817
792.154, 1151.201
793.434, 1137.530
794.714, 1164.919
795.994, 1151.128
797.274, 1151.262
798.553, 1153.504
799.833, 1120.858
801.112, 1097.092
802.391, 1140.276
803.669, 1056.543
804.948, 1105.881
806.226, 1065.199
807.504, 1108.450
808.782, 1205.800
810.060, 1186.160
811.337, 1242.576
812.615, 1259.017
813.892, 1366.374
815.168, 1462.854
816.445, 1574.190
817.722, 1653.732
818.998, 1792.145
820.274, 1841.623
821.550, 2118.247
822.826, 2251.756
824.101, 2439.233
825.376, 2771.791
826.652, 3058.406
827.926, 3422.096
829.201, 3877.555
830.476, 4555.326
831.750, 5153.937
833.024, 6131.553
834.298, 7083.379
835.572, 8443.035
836.845, 10141.873
838.119, 12530.694
839.392, 15349.533
840.665, 19418.373
841.937, 24327.176
843.210, 29806.018
844.482, 36784.863
845.754, 40813.707
847.026, 43952.551
848.298, 43141.398
849.569, 38220.246
850.841, 33609.098
852.112, 27347.949
853.383, 22676.803
854.654, 18945.658
855.924, 15394.514
857.195, 13403.372
858.465, 11452.231
859.735, 9831.093
861.004, 9079.956
862.274, 8042.821
863.543, 7715.688
864.812, 7439.556
866.081, 7675.427
867.350, 7668.299
868.619, 7754.174
869.887, 8132.051
871.155, 7815.930
872.423, 7543.812
873.691, 7076.694
874.959, 6174.580
876.226, 5457.468
877.493, 4713.357
878.760, 3982.250
880.027, 3515.145
881.294, 2941.042
882.560, 2654.941
883.826, 2270.843
885.092, 2018.747
886.358, 1943.655
887.624, 1704.565
888.889, 1569.478
890.154, 1484.394
891.419, 1313.312
892.684, 1295.234
893.949, 1163.160
895.213, 1138.088
896.477, 1058.021
897.742, 966.958
899.005, 938.897
900.269, 939.840
901.532, 836.786
902.796, 911.736
904.059, 856.691
905.322, 847.649
906.584, 823.611
907.847, 791.578
909.109, 760.550
910.371, 759.527
911.633, 749.510
912.895, 726.498
914.156, 717.493
915.418, 757.493
916.679, 683.498
917.940, 701.510
919.200, 720.528
920.461, 669.552
921.721, 789.584
922.981, 754.622
924.241, 769.668
925.501, 837.721
926.760, 875.781
928.020, 901.849
929.279, 1059.922
930.538, 1072.001
931.797, 1338.086
933.055, 1447.178
934.314, 1774.278
935.572, 2216.384
936.830, 2741.495
938.088, 3739.615
939.345, 4692.741
940.603, 5875.874
941.860, 6652.012
943.117, 6213.157
944.374, 5536.309
945.630, 4640.466
946.887, 3630.630
948.143, 3041.799
949.399, 2442.974
950.655, 2147.154
951.910, 1945.340
953.166, 1797.532
954.421, 1717.730
955.676, 1686.933
956.931, 1742.141
958.186, 1814.354
959.440, 1872.572
960.695, 2159.796
961.949, 2470.025
963.203, 2875.258
964.456, 3569.496
965.710, 4343.740
966.963, 5376.987
968.216, 6440.240
969.469, 6722.497
970.722, 6882.758
971.974, 6079.023
973.227, 5045.292
974.479, 4096.565
975.731, 3206.842
976.983, 2672.123
978.234, 1992.407
979.486, 1628.695
980.737, 1419.987
981.988, 1143.282
983.239, 1072.581
984.489, 831.883
985.740, 769.189
986.990, 657.498
988.240, 539.869
989.490, 553.186
990.740, 499.506
991.989, 443.830
993.238, 440.157
994.487, 407.488
995.736, 384.822
996.985, 366.159
998.233, 367.508
999.482, 380.853
1000.730, 330.201
1001.978, 288.640
1003.225, 335.995
1004.473, 316.353
1005.720, 310.715
1006.967, 272.080
1008.214, 265.448
1009.461, 296.819
1010.708, 217.194
1011.954, 283.592
1013.200, 203.973
1014.446, 175.357
1015.692, 214.744
1016.938, 231.134
1018.183, 135.568
1019.428, 186.969
1020.673, 156.395
1021.918, 144.922
1023.163, 150.328
1024.407, 138.737
1025.652, 179.257
1026.896, 162.726
1028.140, 97.387
1029.383, 187.903
1030.627, 149.583
1031.870, 216.180
1033.113, 207.609
1034.356, 189.883
1035.599, 183.803
1036.841, 154.326
1038.084, 155.073
1039.326, 153.653
1040.568, 104.367
1041.810, 140.166
1043.051, 112.709
1044.293, 87.340
1045.534, 137.032
1046.775, 88.566
1048.016, 141.337
1049.256, 160.909
1050.497, 78.447
1051.737, 135.200
1052.977, 77.813
1054.217, 104.351
1055.457, 109.090
1056.696, 60.786
1057.935, 145.482
1059.174, 81.109
1060.413, 64.744
1061.652, 118.346
1062.891, 96.839
1064.129, 81.413
1065.367, 93.005
1066.605, 86.505
1067.843, 138.166
1069.080, 93.671
1070.318, 92.177
1071.555, 115.972
1072.792, 76.481
1074.029, 134.995
1075.266, 103.550
1076.502, 29.065
1077.738, 138.660
1078.974, 104.179
1080.210, 81.699
1081.446, 112.241
1082.681, 37.766
1083.917, 133.292
1085.152, 98.819
1086.387, 106.348
1087.621, 81.879
1088.856, 93.412
1090.090, 115.946
1091.325, 93.480
1092.559, 24.015
1093.792, 85.551
1095.026, 64.087
1096.259, 45.625
1097.493, 115.162
1098.726, 61.701
1099.958, 77.241
1101.191, 66.780
1102.424, 84.320
1103.656, 98.860
1104.888, 16.401
1106.120, 84.942
1107.352, 76.483
1108.583, 39.024
1109.814, 65.567
1111.046, 57.109
1112.277, 32.652
1113.507, 80.196
1114.738, 8.738
1115.968, 76.282
1117.198, 81.826
1118.428, 24.369
1119.658, 28.913
1120.888, 7.544
1122.117, 9.998
1123.347, 69.539
1124.576, 27.079
1125.805, 48.618
1127.033, 24.156
1128.262, 32.692
1129.490, 46.228
1130.718, 2.763
1131.946, 15.296
1133.174, 28.829
1134.402, 14.640
1135.629, 26.890
1136.856, 37.418
1138.083, 3.945
1139.310, 81.470
1140.537, 27.994
1141.763, 8.516
1142.989, 36.038
1144.215, 0.443
1145.441, 55.074
1146.667, 18.590
1147.892, 23.103
1149.118, 21.615
1150.343, 4.874
1151.568, 2.633
1152.793, 1.861
1154.017, 23.358
1155.241, 13.141
1156.466, 17.639
1157.690, 19.865
1158.913, 8.373
1160.137, 48.885
1161.361, 17.401
1162.584, 51.920
1163.807, 33.380
1165.030, 15.092
1166.252, 29.438
1167.475, 34.972
1168.697, 15.511
1169.919, 63.052
1171.141, 26.600
1172.363, 55.151
1173.585, 72.500
1174.806, 17.063
1176.027, 35.614
1177.248, 47.797
1178.469, 13.280
1179.690, 63.720
1180.910, 19.973
1182.131, 12.565
1183.351, 57.879
1184.571, 27.388
1185.790, 10.995
1187.010, 53.259
1188.229, 43.876
1189.448, 43.408
1190.667, 27.743
1191.886, 29.327
1193.105, 21.692
1194.323, 22.899
1195.541, 14.672
1196.759, 18.049
1197.977, 20.514
1199.195, 32.046
1200.412, 27.670
1201.630, 55.020
1202.847, 59.562
1204.064, 16.916
1205.280, 1.225
1206.497, 7.106
1207.713, 44.392
1208.930, 15.126
1210.146, 19.604
1211.361, 25.931
1212.577, 2.633
1213.792, 74.094
1215.008, 47.590
1216.223, 48.106
1217.438, 105.686
1218.652, 28.150
1219.867, 53.826
1221.081, 80.164
1222.295, 13.449
1223.509, 155.000
1224.723, 59.247
1225.937, 62.465
1227.150, 103.064
1228.363, 83.271
1229.576, 91.400
1230.789, 138.135
1232.002, 61.324
1233.214, 128.802
1234.427, 82.083
1235.639, 69.291
1236.851, 138.751
1238.062, 89.065
1239.274, 99.395
1240.485, 130.875
1241.697, 61.242
1242.908, 132.573
1244.118, 107.924
1245.329, 50.058
1246.540, 170.651
1247.750, 138.938
1248.960, 118.171
1250.170, 119.634
1251.380, 58.741
1252.589, 74.258
1253.799, 110.098
1255.008, 80.164
1256.217, 99.222
1257.425, 108.274
1258.634, 66.471
1259.843, 153.666
1261.051, 10.705
1262.259, 102.816
1263.467, 108.017
1264.674, 64.080
1265.882, 103.312
1267.089, 89.342
1268.296, 67.329
1269.503, 107.552
1270.710, 66.587
1271.917, 118.555
1273.123, 99.794
1274.330, 41.752
1275.536, 141.683
1276.741, 68.850
1277.947, 65.792
1279.153, 67.855
1280.358, 59.893
1281.563, 74.778
1282.768, 106.867
1283.973, 17.756
1285.177, 63.539
1286.382, 80.704
1287.586, 38.601
1288.790, 102.461
1289.994, 91.289
1291.198, 47.921
1292.401, 85.754
1293.604, 13.511
1294.808, 161.252
1296.011, 103.443
1297.213, 8.129
1298.416, 74.783
1299.618, 37.843
1300.821, 11.349
1302.023, 15.079
1303.224, 44.070
1304.426, 27.369
1305.628, 2.887
1306.829, 83.294
1308.030, 19.770
1309.231, 30.072
1310.432, 71.482
1311.632, 20.142
1312.833, 60.030
1314.033, 19.601
1315.233, 0.960
1316.433, 74.310
1317.633, 12.114
1318.832, 19.370
1320.031, 62.919
1321.231, 10.407
1322.429, 58.765
1323.628, 50.226
1324.827, 16.606
1326.025, 59.075
1327.223, 47.570
1328.421, 21.979
1329.619, 82.556
1330.817, 4.984
1332.015, 20.421
1333.212, 35.156
1334.409, 9.387
1335.606, 78.082
1336.803, 42.602
1337.999, 40.088
1339.196, 94.664
1340.392, 9.172
1341.588, 33.691
1342.784, 97.216
1343.980, 48.756
1345.175, 54.307
1346.370, 68.867
1347.566, 45.439
1348.761, 92.025
1349.955, 20.625
1351.150, 10.236
1352.344, 68.859
1353.539, 4.494
1354.733, 3.862
1355.927, 82.793
1357.120, 25.538
1358.314, 80.141
1359.507, 19.833
1360.700, 2.467
1361.893, 63.246
1363.086, 21.970
1364.279, 7.703
1365.471, 63.446
1366.663, 33.200
1367.855, 37.965
1369.047, 71.740
1370.239, 48.526
1371.431, 42.324
1372.622, 48.132
1373.813, 2.952
1375.004, 102.781
1376.195, 38.622
1377.386, 28.474
1378.576, 79.336
1379.766, 4.209
1380.957, 10.091
1382.146, 45.982
1383.336, 266.116
1384.526, 86.279
1385.715, 431.285
1386.904, 32.644
1388.093, 33.582
1389.282, 1.530
1390.471, 20.486
1391.659, 39.451
1392.848, 11.425
1394.036, 68.406
1395.224, 7.396
1396.412, 5.608
1397.599, 52.393
1398.787, 13.398
1399.974, 33.091
1401.161, 59.432
1402.348, 0.035
1403.535, 0.490
1404.721, 47.065
1405.907, 63.369
1407.094, 27.207
1408.280, 22.793
1409.465, 43.613
1410.651, 37.060
1411.836, 0.329
1413.022, 22.708
1414.207, 55.921
1415.392, 63.204
1416.577, 16.459
1417.761, 5.323
1418.945, 22.095
1420.130, 12.920
1421.314, 27.719
1422.498, 16.839
1423.681, 74.022
1424.865, 24.854
1426.048, 38.728
1427.231, 69.652
1428.414, 54.958
1429.597, 12.969
1430.780, 68.962
1431.962, 82.491
1433.144, 12.172
1434.326, 0.729
1435.508, 11.942
1436.690, 4.728
1437.871, 34.523
1439.053, 36.375
1440.234, 38.034
1441.415, 38.472
1442.596, 36.973
1443.776, 21.115
1444.957, 23.307
1446.137, 12.192
1447.317, 0.286
1448.497, 54.367
1449.677, 31.356
1450.857, 4.228
1452.036, 43.177
1453.215, 8.423
1454.394, 84.868
1455.573, 72.767
1456.752, 29.378
1457.930, 71.949
1459.109, 64.285
1460.287, 3.416
1461.465, 119.182
1462.643, 6.391
1463.820, 63.619
1464.998, 90.375
1466.175, 28.639
1467.352, 95.824
1468.529, 95.094
1469.706, 4.289
1470.883, 136.694
1472.059, 54.060
1473.235, 34.445
1474.411, 171.432
1475.587, 12.035
1476.763, 95.632
1477.938, 150.874
1479.114, 54.374
1480.289, 120.559
1481.464, 153.832
1482.639, 10.688
1483.813, 171.451
1484.988, 105.411
1486.162, 97.467
1487.336, 141.696
1488.510, 86.353
1489.684, 123.562
1490.858, 159.750
1492.031, 107.905
1493.204, 106.046
1494.377, 166.163
1495.550, 98.262
1496.723, 129.339
1497.895, 168.296
1499.068, 38.332
1500.240, 179.345
1501.412, 101.390
1502.584, 148.451
1503.755, 208.516
1504.927, 77.597
1506.098, 95.696
1507.269, 194.804
1508.440, 79.918
1509.611, 114.027
1510.782, 112.134
1511.952, 26.253
1513.122, 205.393
1514.292, 90.555
1515.462, 108.740
1516.632, 111.949
1517.802, 50.186
1518.971, 58.468
1520.140, 118.808
1521.309, 21.226
1522.478, 52.760
1523.647, 63.474
1524.815, 0.000
##END=



