##NAMES=Chondrodite
##RRUFFID=R040016
##IDEAL CHEMISTRY=Mg_5_(SiO_4_)_2_F_2_
##LOCALITY=Vastmanland, Kafveltorp, Sweden
##OWNER=RRUFF
##SOURCE=University of Arizona Mineral Museum
##DESCRIPTION=Deep red single crystals embedded in matrix
##STATUS=The identification of this mineral has been confirmed by X-ray diffraction and chemical analysis
##URL=rruff.info/R040016
##MEASURED CHEMISTRY=(Mg_4.61_Fe_0.31_Mn_0.07_Ca_0.01_)_Σ=5_(Si_1.00_O_4_)_2_(F_1.16_(OH)_0.84_)_Σ=2_
##PIN_ID=M00425
##ORIENTATION=Laser parallel to [1 0 1]. Fiducial mark perpendicular to laser is parallel to -b* (0 -1 0)
211.498, 0.000
212.871, 8.000
214.243, 20.475
215.615, 6.768
216.987, 36.625
218.358, 13.670
219.730, 2.001
221.101, 6.430
222.472, 28.938
223.843, 16.008
225.213, 43.730
226.583, 8.377
227.953, 80.293
229.323, 51.247
230.693, 61.299
232.062, 30.441
233.431, 63.051
234.800, 9.476
236.169, 31.627
237.537, 1.401
238.906, 11.530
240.274, 38.603
241.642, 18.791
243.009, 21.027
244.377, 63.305
245.744, 39.618
247.111, 45.963
248.478, 86.338
249.844, 62.727
251.210, 78.137
252.576, 6.562
253.942, 114.001
255.308, 33.117
256.673, 23.198
258.039, 31.036
259.404, 8.613
260.768, 0.541
262.133, 50.086
263.497, 52.118
264.861, 126.583
266.225, 124.841
267.589, 110.092
268.952, 131.338
270.315, 53.580
271.678, 92.817
273.041, 48.061
274.404, 117.320
275.766, 186.587
277.128, 252.863
278.490, 372.132
279.852, 343.398
281.213, 426.663
282.575, 335.922
283.936, 309.176
285.296, 222.432
286.657, 136.005
288.017, 130.287
289.378, 66.578
290.738, 39.873
292.097, 45.199
293.457, 5.764
294.816, 34.045
296.175, 17.324
297.534, 28.600
298.893, 22.128
300.251, 26.862
301.609, 1.396
302.967, 46.357
304.325, 29.876
305.682, 83.901
307.040, 55.691
308.397, 71.488
309.754, 57.290
311.110, 54.095
312.467, 36.904
313.823, 28.505
315.179, 28.358
316.535, 8.354
317.890, 7.177
319.246, 0.004
320.601, 59.165
321.956, 51.331
323.311, 117.494
324.665, 131.653
326.019, 187.808
327.373, 238.960
328.727, 244.107
330.081, 304.252
331.434, 243.409
332.787, 295.879
334.140, 232.267
335.493, 206.996
336.846, 270.569
338.198, 181.990
339.550, 242.403
340.902, 228.975
342.254, 221.237
343.605, 262.289
344.956, 163.408
346.307, 129.685
347.658, 137.848
349.009, 139.128
350.359, 139.319
351.709, 94.345
353.059, 100.622
354.409, 48.642
355.758, 99.769
357.108, 49.798
358.457, 62.873
359.806, 61.656
361.154, 32.738
362.503, 63.857
363.851, 4.416
365.199, 10.955
366.547, 30.564
367.894, 24.960
369.242, 53.215
370.589, 3.418
371.936, 82.723
373.282, 7.039
374.629, 33.049
375.975, 25.209
377.321, 21.445
378.667, 103.648
380.013, 26.871
381.358, 63.035
382.703, 147.193
384.048, 135.342
385.393, 297.489
386.738, 272.549
388.082, 335.600
389.426, 316.637
390.770, 314.473
392.114, 325.415
393.457, 235.323
394.800, 208.041
396.143, 181.868
397.486, 165.619
398.829, 172.700
400.171, 89.280
401.513, 175.230
402.855, 86.224
404.197, 211.175
405.539, 182.220
406.880, 191.294
408.221, 309.361
409.562, 310.423
410.903, 399.483
412.243, 380.541
413.583, 425.598
414.923, 489.654
416.263, 432.708
417.603, 468.761
418.942, 434.812
420.282, 442.861
421.620, 377.907
422.959, 358.951
424.298, 338.994
425.636, 297.206
426.974, 255.074
428.312, 231.110
429.650, 229.145
430.987, 184.177
432.325, 197.205
433.662, 223.230
434.999, 134.252
436.335, 193.271
437.672, 115.287
439.008, 85.298
440.344, 114.307
441.680, 41.312
443.015, 64.315
444.350, 26.211
445.686, 0.082
447.021, 38.076
448.355, 21.851
449.690, 3.162
451.024, 46.567
452.358, 13.846
453.692, 23.201
455.026, 25.493
456.359, 37.773
457.692, 75.977
459.025, 66.147
460.358, 22.320
461.691, 63.403
463.023, 9.515
464.355, 47.535
465.687, 15.590
467.019, 18.646
468.350, 76.707
469.682, 29.229
471.013, 38.838
472.344, 37.091
473.675, 23.018
475.005, 13.058
476.335, 63.863
477.665, 45.220
478.995, 53.692
480.325, 19.401
481.654, 3.500
482.983, 56.398
484.312, 48.709
485.641, 31.178
486.970, 31.937
488.298, 51.944
489.626, 25.823
490.954, 52.302
492.282, 46.569
493.609, 0.437
494.937, 24.302
496.264, 7.164
497.591, 22.977
498.917, 60.880
500.244, 3.267
501.570, 23.416
502.896, 44.428
504.222, 57.265
505.548, 54.945
506.873, 7.772
508.198, 20.405
509.523, 34.588
510.848, 0.776
512.172, 44.031
513.497, 1.835
514.821, 24.619
516.145, 30.416
517.469, 10.209
518.792, 14.846
520.115, 1.366
521.439, 8.760
522.761, 8.800
524.084, 21.977
525.407, 15.752
526.729, 0.599
528.051, 73.408
529.373, 19.612
530.694, 40.151
532.016, 1.187
533.337, 54.944
534.658, 85.794
535.979, 11.729
537.299, 66.575
538.620, 39.925
539.940, 42.862
541.260, 107.651
542.580, 72.831
543.899, 120.631
545.218, 77.864
546.538, 105.804
547.857, 170.791
549.175, 211.834
550.494, 261.676
551.812, 248.676
553.130, 172.615
554.448, 269.577
555.766, 143.637
557.083, 178.432
558.400, 129.505
559.717, 122.359
561.034, 149.255
562.351, 206.960
563.667, 192.662
564.983, 134.710
566.299, 205.545
567.615, 200.450
568.931, 273.266
570.246, 276.953
571.561, 194.838
572.876, 338.519
574.191, 315.232
575.505, 377.907
576.820, 445.579
578.134, 422.248
579.448, 485.915
580.761, 505.578
582.075, 593.238
583.388, 678.896
584.701, 691.551
586.014, 843.202
587.327, 829.852
588.639, 921.497
589.952, 1087.141
591.264, 1130.784
592.575, 1382.407
593.887, 1582.826
595.198, 1880.397
596.510, 2202.922
597.821, 2687.436
599.132, 3061.890
600.442, 3457.166
601.752, 4158.484
603.063, 4579.005
604.373, 5277.332
605.682, 5714.955
606.992, 6034.351
608.301, 6377.893
609.610, 6139.417
610.919, 6019.670
612.228, 5553.280
613.537, 4758.704
614.845, 4234.309
616.153, 3574.912
617.461, 3091.448
618.769, 2660.046
620.076, 2172.428
621.383, 1873.021
622.691, 1576.519
623.997, 1434.088
625.304, 1257.674
626.611, 1063.029
627.917, 992.611
629.223, 933.038
630.529, 811.616
631.834, 723.192
633.140, 597.519
634.445, 491.090
635.750, 481.658
637.055, 349.226
638.359, 320.791
639.664, 216.244
640.968, 283.805
642.272, 252.346
643.576, 204.790
644.879, 237.346
646.183, 195.900
647.486, 226.453
648.789, 263.005
650.092, 206.454
651.394, 211.836
652.697, 125.374
653.999, 146.918
655.301, 141.461
656.602, 86.003
657.904, 139.542
659.205, 73.081
660.506, 158.618
661.807, 72.142
663.108, 63.677
664.409, 70.163
665.709, 7.695
667.009, 12.775
668.309, 5.250
669.609, 42.725
670.908, 71.701
672.207, 55.778
673.506, 19.739
674.805, 16.745
676.104, 35.232
677.402, 16.721
678.701, 125.213
679.999, 36.712
681.297, 5.214
682.594, 89.718
683.892, 8.227
685.189, 101.738
686.486, 39.255
687.783, 49.774
689.079, 62.298
690.376, 19.826
691.672, 54.355
692.968, 41.889
694.264, 47.425
695.560, 68.965
696.855, 12.509
698.150, 73.055
699.445, 26.605
700.740, 36.158
702.035, 24.286
703.329, 40.730
704.623, 70.827
705.917, 25.388
707.211, 40.951
708.504, 22.518
709.798, 35.914
711.091, 38.654
712.384, 36.774
713.677, 2.798
714.969, 10.629
716.262, 58.056
717.554, 54.482
718.846, 37.907
720.138, 23.333
721.429, 34.832
722.720, 90.183
724.012, 54.607
725.303, 81.031
726.593, 85.455
727.884, 60.879
729.174, 135.302
730.464, 127.726
731.754, 143.149
733.044, 151.572
734.333, 141.997
735.623, 182.422
736.912, 159.847
738.201, 243.273
739.490, 200.699
740.778, 201.128
742.066, 236.558
743.355, 176.989
744.642, 261.421
745.930, 262.854
747.218, 226.287
748.505, 264.721
749.792, 296.157
751.079, 291.594
752.366, 380.031
753.652, 343.470
754.939, 369.909
756.225, 349.349
757.511, 361.789
758.796, 446.230
760.082, 381.673
761.367, 491.116
762.652, 381.560
763.937, 448.005
765.222, 464.450
766.506, 470.898
767.790, 486.346
769.075, 413.795
770.358, 476.246
771.642, 469.697
772.926, 537.150
774.209, 510.604
775.492, 492.059
776.775, 487.515
778.058, 555.972
779.340, 556.430
780.622, 602.890
781.904, 586.351
783.186, 582.813
784.468, 623.657
785.750, 719.741
787.031, 666.207
788.312, 754.674
789.593, 735.142
790.873, 859.613
792.154, 789.085
793.434, 794.558
794.714, 919.033
795.994, 855.509
797.274, 932.986
798.553, 867.465
799.833, 945.945
801.112, 989.427
802.391, 944.910
803.669, 1071.395
804.948, 1088.882
806.226, 1134.294
807.504, 1215.744
808.782, 1201.020
810.060, 1346.514
811.337, 1454.733
812.615, 1420.230
813.892, 1581.634
815.168, 1680.953
816.445, 1823.361
817.722, 1859.266
818.998, 2028.584
820.274, 2196.051
821.550, 2336.126
822.826, 2608.583
824.101, 2732.606
825.376, 2983.922
826.652, 3281.191
827.926, 3749.236
829.201, 4328.815
830.476, 5012.069
831.750, 5762.383
833.024, 6737.673
834.298, 7853.865
835.572, 9330.322
836.845, 11066.500
838.119, 13722.896
839.392, 16519.252
840.665, 21225.797
841.937, 26512.344
843.210, 32408.547
844.482, 40804.961
845.754, 45241.305
847.026, 49867.738
848.298, 49854.301
849.569, 44170.664
850.841, 39107.230
852.112, 31783.768
853.383, 25780.340
854.654, 21666.916
855.924, 17183.494
857.195, 14510.078
858.465, 12176.663
859.735, 10263.252
861.004, 9139.843
862.274, 7646.438
863.543, 7073.036
864.812, 6329.638
866.081, 5975.242
867.350, 5781.851
868.619, 5405.462
869.887, 5626.078
871.155, 5468.697
872.423, 5171.319
873.691, 5136.945
874.959, 4588.575
876.226, 4128.208
877.493, 3791.846
878.760, 3314.487
880.027, 3072.131
881.294, 2693.778
882.560, 2422.429
883.826, 2137.083
885.092, 1914.741
886.358, 1782.403
887.624, 1517.070
888.889, 1550.740
890.154, 1408.413
891.419, 1268.090
892.684, 1206.770
893.949, 1120.454
895.213, 1127.141
896.477, 1009.831
897.742, 1020.525
899.005, 892.223
900.269, 939.924
901.532, 848.630
902.796, 821.339
904.059, 904.054
905.322, 760.772
906.584, 712.494
907.847, 762.222
909.109, 765.953
910.371, 691.687
911.633, 742.424
912.895, 630.165
914.156, 705.911
915.418, 708.660
916.679, 661.412
917.940, 704.167
919.200, 636.927
920.461, 622.689
921.721, 664.455
922.981, 641.224
924.241, 745.998
925.501, 721.775
926.760, 871.555
928.020, 895.341
929.279, 979.130
930.538, 1208.923
931.797, 1368.719
933.055, 1384.519
934.314, 1447.322
935.572, 1440.128
936.830, 1408.938
938.088, 1440.751
939.345, 1440.568
940.603, 1565.389
941.860, 1578.212
943.117, 1432.039
944.374, 1277.871
945.630, 1000.707
946.887, 955.546
948.143, 736.390
949.399, 774.237
950.655, 720.087
951.910, 757.026
953.166, 763.885
954.421, 891.749
955.676, 884.617
956.931, 1031.489
958.186, 1060.365
959.440, 1233.246
960.695, 1540.131
961.949, 1710.021
963.203, 2209.915
964.456, 2838.813
965.710, 3510.715
966.963, 4620.621
968.216, 5753.531
969.469, 6480.445
970.722, 6493.984
971.974, 6714.328
973.227, 5682.254
974.479, 4816.185
975.731, 3781.119
976.983, 3130.055
978.234, 2463.155
979.486, 2148.099
980.737, 1801.047
981.988, 1438.998
983.239, 1276.953
984.489, 1059.911
985.740, 1042.872
986.990, 938.835
988.240, 742.802
989.490, 791.771
990.740, 612.743
991.989, 621.918
993.238, 542.895
994.487, 508.874
995.736, 600.855
996.985, 532.839
998.233, 428.089
999.482, 530.079
1000.730, 483.071
1001.978, 570.308
1003.225, 558.305
1004.473, 571.490
1005.720, 557.519
1006.967, 490.522
1008.214, 364.834
1009.461, 401.910
1010.708, 282.920
1011.954, 381.279
1013.200, 251.292
1014.446, 311.315
1015.692, 346.437
1016.938, 298.457
1018.183, 323.675
1019.428, 293.751
1020.673, 229.857
1021.918, 398.285
1023.163, 219.314
1024.407, 246.532
1025.652, 365.564
1026.896, 241.599
1028.140, 271.742
1029.383, 308.779
1030.627, 250.818
1031.870, 299.166
1033.113, 226.208
1034.356, 139.460
1035.599, 280.617
1036.841, 187.664
1038.084, 237.405
1039.326, 192.457
1040.568, 216.711
1041.810, 209.191
1043.051, 168.250
1044.293, 211.322
1045.534, 163.466
1046.775, 101.533
1048.016, 204.925
1049.256, 164.000
1050.497, 173.076
1051.737, 139.286
1052.977, 101.365
1054.217, 264.457
1055.457, 111.539
1056.696, 143.621
1057.935, 173.139
1059.174, 55.222
1060.413, 122.306
1061.652, 84.794
1062.891, 52.880
1064.129, 122.180
1065.367, 56.268
1066.605, 44.356
1067.843, 143.524
1069.080, 60.614
1070.318, 116.704
1071.555, 76.036
1072.792, 120.126
1074.029, 106.265
1075.266, 62.356
1076.502, 19.449
1077.738, 98.776
1078.974, 87.870
1080.210, 151.963
1081.446, 104.158
1082.681, 90.251
1083.917, 197.359
1085.152, 12.548
1086.387, 111.543
1087.621, 123.634
1088.856, 56.726
1090.090, 179.817
1091.325, 23.908
1092.559, 103.000
1093.792, 174.091
1095.026, 64.182
1096.259, 97.272
1097.493, 136.361
1098.726, 63.450
1099.958, 139.539
1101.191, 85.625
1102.424, 84.714
1103.656, 152.800
1104.888, 4.114
1106.120, 178.970
1107.352, 32.052
1108.583, 24.133
1109.814, 135.213
1111.046, 29.708
1112.277, 142.367
1113.507, 63.441
1114.738, 14.514
1115.968, 95.586
1117.198, 78.656
1118.428, 71.725
1119.658, 142.792
1120.888, 44.858
1122.117, 42.922
1123.347, 168.984
1124.576, 38.957
1125.805, 124.102
1127.033, 51.157
1128.262, 4.211
1129.490, 169.265
1130.718, 52.537
1131.946, 90.510
1133.174, 79.554
1134.402, 48.282
1135.629, 178.756
1136.856, 36.208
1138.083, 2.177
1139.310, 136.852
1140.537, 62.122
1141.763, 11.101
1142.989, 70.918
1144.215, 71.065
1145.441, 141.945
1146.667, 1.953
1147.892, 19.043
1149.118, 73.959
1150.343, 39.042
1151.568, 8.048
1152.793, 14.057
1154.017, 82.788
1155.241, 112.192
1156.466, 36.829
1157.690, 12.146
1158.913, 59.116
1160.137, 19.917
1161.361, 8.046
1162.584, 6.005
1163.807, 62.913
1165.030, 86.036
1166.252, 42.017
1167.475, 20.786
1168.697, 22.150
1169.919, 145.647
1171.141, 17.431
1172.363, 40.651
1173.585, 87.803
1174.806, 116.102
1176.027, 0.546
1177.248, 14.069
1178.469, 84.823
1179.690, 66.701
1180.910, 109.940
1182.131, 42.817
1183.351, 25.808
1184.571, 77.059
1185.790, 0.078
1187.010, 13.062
1188.229, 69.916
1189.448, 91.235
1190.667, 67.683
1191.886, 67.519
1193.105, 84.434
1194.323, 70.389
1195.541, 43.793
1196.759, 72.449
1197.977, 80.256
1199.195, 14.942
1200.412, 114.083
1201.630, 26.875
1202.847, 50.339
1204.064, 126.440
1205.280, 8.786
1206.497, 37.459
1207.713, 62.471
1208.930, 48.771
1210.146, 131.335
1211.361, 90.081
1212.577, 20.179
1213.792, 200.716
1215.008, 1.556
1216.223, 77.333
1217.438, 159.967
1218.652, 9.679
1219.867, 146.803
1221.081, 141.503
1222.295, 9.199
1223.509, 190.331
1224.723, 17.014
1225.937, 81.866
1227.150, 123.539
1228.363, 22.205
1229.576, 93.199
1230.789, 187.854
1232.002, 44.502
1233.214, 271.611
1234.427, 52.248
1235.639, 92.879
1236.851, 272.553
1238.062, 104.172
1239.274, 175.794
1240.485, 465.420
1241.697, 88.021
1242.908, 167.672
1244.118, 183.261
1245.329, 40.844
1246.540, 247.761
1247.750, 111.332
1248.960, 181.896
1250.170, 255.582
1251.380, 48.134
1252.589, 245.796
1253.799, 50.337
1255.008, 140.871
1256.217, 190.685
1257.425, 11.206
1258.634, 129.721
1259.843, 211.757
1261.051, 30.742
1262.259, 197.489
1263.467, 189.021
1264.674, 25.498
1265.882, 226.990
1267.089, 75.457
1268.296, 104.731
1269.503, 231.368
1270.710, 52.818
1271.917, 261.949
1273.123, 203.781
1274.330, 4.208
1275.536, 292.283
1276.741, 79.699
1277.947, 105.104
1279.153, 159.694
1280.358, 19.094
1281.563, 107.292
1282.768, 211.855
1283.973, 59.842
1285.177, 172.134
1286.382, 46.906
1287.586, 73.083
1288.790, 165.437
1289.994, 15.779
1291.198, 12.005
1292.401, 154.330
1293.604, 26.354
1294.808, 72.647
1296.011, 55.079
1297.213, 61.833
1298.416, 120.345
1299.618, 57.358
1300.821, 32.775
1302.023, 39.490
1303.224, 200.451
1304.426, 85.375
1305.628, 116.171
1306.829, 103.951
1308.030, 68.192
1309.231, 125.594
1310.432, 162.710
1311.632, 17.483
1312.833, 107.332
1314.033, 42.711
1315.233, 119.881
1316.433, 59.969
1317.633, 160.181
1318.832, 110.326
1320.031, 15.972
1321.231, 208.160
1322.429, 45.717
1323.628, 31.998
1324.827, 175.105
1326.025, 92.007
1327.223, 131.084
1328.421, 36.170
1329.619, 48.833
1330.817, 110.229
1332.015, 4.287
1333.212, 16.094
1334.409, 145.136
1335.606, 101.880
1336.803, 52.855
1337.999, 63.158
1339.196, 76.071
1340.392, 77.923
1341.588, 22.912
1342.784, 34.211
1343.980, 91.756
1345.175, 35.299
1346.370, 9.653
1347.566, 88.600
1348.761, 89.463
1349.955, 163.466
1351.150, 58.387
1352.344, 94.698
1353.539, 185.204
1354.733, 36.900
1355.927, 11.987
1357.120, 188.867
1358.314, 71.260
1359.507, 37.604
1360.700, 109.461
1361.893, 99.689
1363.086, 96.150
1364.279, 145.983
1365.471, 19.118
1366.663, 176.701
1367.855, 1.489
1369.047, 3.686
1370.239, 194.110
1371.431, 46.102
1372.622, 106.821
1373.813, 85.596
1375.004, 72.637
1376.195, 226.122
1377.386, 55.874
1378.576, 27.335
1379.766, 238.403
1380.957, 24.866
1382.146, 82.186
1383.336, 158.899
1384.526, 104.394
1385.715, 57.305
1386.904, 141.991
1388.093, 113.330
1389.282, 289.338
1390.471, 91.848
1391.659, 9.373
1392.848, 227.243
1394.036, 55.277
1395.224, 59.588
1396.412, 228.138
1397.599, 45.335
1398.787, 111.114
1399.974, 52.356
1401.161, 100.655
1402.348, 243.325
1403.535, 90.298
1404.721, 73.261
1405.907, 242.216
1407.094, 62.133
1408.280, 75.804
1409.465, 269.732
1410.651, 48.346
1411.836, 175.430
1413.022, 189.013
1414.207, 86.394
1415.392, 194.323
1416.577, 47.135
1417.761, 69.807
1418.945, 259.966
1420.130, 1.900
1421.314, 127.116
1422.498, 191.579
1423.681, 27.627
1424.865, 180.067
1426.048, 156.580
1427.231, 3.191
1428.414, 211.571
1429.597, 95.029
1430.780, 18.776
1431.962, 274.881
1433.144, 45.729
1434.326, 202.501
1435.508, 247.982
1436.690, 89.445
1437.871, 256.131
1439.053, 296.207
1440.234, 63.223
1441.415, 429.614
1442.596, 272.252
1443.776, 195.375
1444.957, 524.272
1446.137, 223.872
1447.317, 314.319
1448.497, 510.858
1449.677, 241.079
1450.857, 396.641
1452.036, 525.621
1453.215, 238.938
1454.394, 575.262
1455.573, 389.775
1456.752, 296.401
1457.930, 586.915
1459.109, 358.378
1460.287, 352.748
1461.465, 633.695
1462.643, 267.709
1463.820, 484.125
1464.998, 426.574
1466.175, 178.943
1467.352, 507.675
1468.529, 355.991
1469.706, 114.783
1470.883, 555.138
1472.059, 258.377
1473.235, 170.634
1474.411, 483.900
1475.587, 90.836
1476.763, 299.065
1477.938, 451.243
1479.114, 60.440
1480.289, 367.051
1481.464, 265.219
1482.639, 225.369
1483.813, 436.515
1484.988, 218.648
1486.162, 205.778
1487.336, 421.893
1488.510, 121.988
1489.684, 205.068
1490.858, 315.138
1492.031, 15.804
1493.204, 297.273
1494.377, 221.336
1495.550, 5.395
1496.723, 321.466
1497.895, 82.538
1499.068, 30.367
1500.240, 296.734
1501.412, 96.828
1502.584, 102.917
1503.755, 393.010
1504.927, 9.890
1506.098, 162.205
1507.269, 219.296
1508.440, 70.614
1509.611, 238.929
1510.782, 120.984
1511.952, 2.038
1513.122, 326.761
1514.292, 175.673
1515.462, 31.545
1516.632, 285.778
1517.802, 32.267
1518.971, 50.629
1520.140, 306.222
1521.309, 59.640
1522.478, 182.779
1523.647, 210.103
1524.815, 224.463
1525.984, 0.000
##END=



