##NAMES=Chondrodite
##RRUFFID=R040016
##IDEAL CHEMISTRY=Mg_5_(SiO_4_)_2_F_2_
##LOCALITY=Vastmanland, Kafveltorp, Sweden
##OWNER=RRUFF
##SOURCE=University of Arizona Mineral Museum
##DESCRIPTION=Deep red single crystals embedded in matrix
##STATUS=The identification of this mineral has been confirmed by X-ray diffraction and chemical analysis
##URL=rruff.info/R040016
##MEASURED CHEMISTRY=(Mg_4.61_Fe_0.31_Mn_0.07_Ca_0.01_)_Σ=5_(Si_1.00_O_4_)_2_(F_1.16_(OH)_0.84_)_Σ=2_
##PIN_ID=M00425
##ORIENTATION=Laser parallel to [1 0 1]. Fiducial mark perpendicular to laser is parallel to -b* (0 -1 0)
227.953, 0.000
229.323, 95.271
230.693, 40.934
232.062, 64.766
233.431, 151.678
234.800, 33.424
236.169, 111.936
237.537, 45.977
238.906, 53.434
240.274, 10.919
241.642, 78.422
243.009, 98.932
244.377, 10.556
245.744, 155.953
247.111, 7.542
248.478, 128.049
249.844, 143.664
251.210, 149.258
252.576, 236.862
253.942, 136.447
255.308, 198.014
256.673, 174.566
258.039, 234.104
259.404, 231.628
260.768, 204.140
262.133, 244.639
263.497, 254.128
264.861, 264.613
266.225, 228.121
267.589, 212.091
268.952, 320.936
270.315, 142.534
271.678, 167.971
273.041, 146.408
274.404, 309.845
275.766, 470.787
277.128, 568.207
278.490, 804.626
279.852, 749.042
281.213, 851.454
282.575, 655.863
283.936, 568.267
285.296, 425.667
286.657, 292.062
288.017, 322.451
289.378, 192.834
290.738, 247.210
292.097, 209.579
293.457, 265.941
294.816, 266.299
296.175, 200.658
297.534, 339.028
298.893, 293.410
300.251, 326.812
301.609, 244.349
302.967, 179.450
304.325, 125.889
305.682, 45.670
307.040, 93.775
308.397, 17.769
309.754, 45.304
311.110, 35.164
312.467, 9.367
313.823, 29.099
315.179, 1.559
316.535, 75.010
317.890, 11.452
319.246, 68.886
320.601, 103.312
321.956, 35.271
323.311, 135.138
324.665, 33.539
326.019, 135.932
327.373, 113.318
328.727, 102.696
330.081, 250.066
331.434, 111.429
332.787, 212.784
334.140, 181.131
335.493, 152.471
336.846, 181.803
338.198, 147.127
339.550, 253.444
340.902, 120.749
342.254, 183.044
343.605, 190.330
344.956, 92.606
346.307, 152.875
347.658, 104.135
349.009, 218.385
350.359, 123.626
351.709, 183.858
353.059, 232.083
354.409, 192.297
355.758, 242.503
357.108, 205.701
358.457, 281.889
359.806, 319.170
361.154, 233.422
362.503, 357.897
363.851, 199.192
365.199, 165.097
366.547, 111.634
367.894, 61.522
369.242, 86.883
370.589, 6.894
371.936, 41.144
373.282, 3.011
374.629, 8.694
375.975, 45.607
377.321, 27.713
378.667, 40.076
380.013, 0.066
381.358, 35.469
382.703, 20.187
384.048, 110.742
385.393, 217.193
386.738, 195.218
388.082, 309.753
389.426, 171.746
390.770, 312.132
392.114, 225.669
393.457, 162.451
394.800, 237.699
396.143, 23.415
397.486, 93.648
398.829, 134.940
400.171, 127.247
401.513, 203.421
402.855, 45.592
404.197, 210.760
405.539, 176.925
406.880, 182.086
408.221, 251.246
409.562, 216.403
410.903, 328.558
412.243, 359.709
413.583, 330.855
414.923, 288.993
416.263, 297.127
417.603, 374.257
418.942, 270.385
420.282, 279.509
421.620, 215.625
422.959, 188.739
424.298, 243.847
425.636, 114.953
426.974, 179.052
428.312, 68.147
429.650, 236.238
430.987, 184.323
432.325, 103.403
433.662, 226.478
434.999, 171.547
436.335, 266.610
437.672, 213.666
439.008, 217.717
440.344, 216.762
441.680, 64.799
443.015, 96.830
444.350, 89.853
445.686, 45.869
447.021, 115.877
448.355, 31.875
449.690, 154.864
451.024, 89.631
452.358, 185.605
453.692, 165.487
455.026, 150.231
456.359, 262.182
457.692, 121.079
459.025, 252.013
460.358, 217.939
461.691, 212.858
463.023, 257.768
464.355, 270.670
465.687, 356.563
467.019, 380.282
468.350, 404.159
469.682, 571.028
471.013, 479.889
472.344, 578.742
473.675, 484.586
475.005, 580.422
476.335, 519.250
477.665, 386.069
478.995, 422.879
480.325, 179.682
481.654, 250.476
482.983, 173.262
484.312, 71.039
485.641, 128.808
486.970, 49.569
488.298, 39.075
489.626, 18.936
490.954, 2.799
492.282, 15.475
493.609, 40.758
494.937, 20.617
496.264, 0.649
497.591, 28.661
498.917, 45.980
500.244, 108.309
501.570, 11.352
502.896, 84.996
504.222, 27.355
505.548, 132.724
506.873, 56.105
508.198, 2.502
509.523, 104.902
510.848, 90.319
512.172, 109.750
513.497, 142.194
514.821, 47.654
516.145, 124.129
517.469, 38.635
518.792, 151.180
520.115, 137.912
521.439, 116.256
522.761, 132.804
524.084, 64.009
525.407, 105.394
526.729, 71.974
528.051, 49.895
529.373, 173.940
530.694, 68.989
532.016, 168.102
533.337, 49.764
534.658, 71.841
535.979, 133.358
537.299, 11.259
538.620, 112.060
539.940, 9.353
541.260, 22.381
542.580, 26.875
543.899, 69.000
545.218, 85.927
546.538, 140.610
547.857, 178.478
549.175, 211.264
550.494, 219.555
551.812, 214.412
553.130, 200.366
554.448, 155.217
555.766, 229.222
557.083, 179.150
558.400, 109.884
559.717, 189.417
561.034, 116.451
562.351, 260.912
563.667, 319.415
564.983, 204.057
566.299, 397.410
567.615, 369.139
568.931, 501.314
570.246, 476.870
571.561, 664.166
572.876, 819.368
574.191, 901.815
575.505, 1205.872
576.820, 1389.143
578.134, 1574.143
579.448, 1832.082
580.761, 1832.384
582.075, 2072.299
583.388, 2085.204
584.701, 1946.096
586.014, 1842.977
587.327, 1539.846
588.639, 1550.704
589.952, 1353.549
591.264, 1226.384
592.575, 1242.207
593.887, 1247.019
595.198, 1308.820
596.510, 1387.609
597.821, 1619.388
599.132, 1875.156
600.442, 2052.912
601.752, 2471.657
603.063, 2642.391
604.373, 3066.113
605.682, 3296.823
606.992, 3512.522
608.301, 3716.210
609.610, 3641.887
610.919, 3504.552
612.228, 3370.207
613.537, 2808.849
614.845, 2572.480
616.153, 2058.100
617.461, 1900.708
618.769, 1608.306
620.076, 1390.892
621.383, 1300.466
622.691, 965.030
623.997, 1055.582
625.304, 841.122
626.611, 810.652
627.917, 836.170
629.223, 742.677
630.529, 757.173
631.834, 576.565
633.140, 447.039
634.445, 557.425
635.750, 294.683
637.055, 380.022
638.359, 212.451
639.664, 168.731
640.968, 216.920
642.272, 133.809
643.576, 242.194
644.879, 117.168
646.183, 161.400
647.486, 182.131
648.789, 75.208
650.092, 334.539
651.394, 168.367
652.697, 142.252
653.999, 201.036
655.301, 64.659
656.602, 142.710
657.904, 63.396
659.205, 98.469
660.506, 158.009
661.807, 65.399
663.108, 14.281
664.409, 74.126
665.709, 37.227
667.009, 1.469
668.309, 142.691
669.609, 118.764
670.908, 121.429
672.207, 110.622
673.506, 4.710
674.805, 124.417
676.104, 32.662
677.402, 168.204
678.701, 192.195
679.999, 89.673
681.297, 148.687
682.594, 50.777
683.892, 132.900
685.189, 145.908
686.486, 95.931
687.783, 196.967
689.079, 63.022
690.376, 233.089
691.672, 142.175
692.968, 165.276
694.264, 145.394
695.560, 180.526
696.855, 166.676
698.150, 126.841
699.445, 86.021
700.740, 196.214
702.035, 75.424
703.329, 86.646
704.623, 118.881
705.917, 59.129
707.211, 142.388
708.504, 25.663
709.798, 109.946
711.091, 56.244
712.384, 38.551
713.677, 93.869
714.969, 12.199
716.262, 60.539
717.554, 4.888
718.846, 15.754
720.138, 74.612
721.429, 33.012
722.720, 34.628
724.012, 64.237
725.303, 84.838
726.593, 92.869
727.884, 222.020
729.174, 140.600
730.464, 79.173
731.754, 150.740
733.044, 74.299
734.333, 220.852
735.623, 189.397
736.912, 175.937
738.201, 264.470
739.490, 116.997
740.778, 246.518
742.066, 217.031
743.355, 176.539
744.642, 297.040
745.930, 207.536
747.218, 350.025
748.505, 295.508
749.792, 312.985
751.079, 468.457
752.366, 323.923
753.652, 438.383
754.939, 393.838
756.225, 389.287
757.511, 453.731
758.796, 502.169
760.082, 483.603
761.367, 525.030
762.652, 496.453
763.937, 563.870
765.222, 483.283
766.506, 565.691
767.790, 612.094
769.075, 565.491
770.358, 700.884
771.642, 590.273
772.926, 622.658
774.209, 711.038
775.492, 583.415
776.775, 604.788
778.058, 577.156
779.340, 700.521
780.622, 854.884
781.904, 707.244
783.186, 832.601
784.468, 835.955
785.750, 954.306
787.031, 895.657
788.312, 906.005
789.593, 984.350
790.873, 948.693
792.154, 956.036
793.434, 1062.377
794.714, 985.718
795.994, 1080.057
797.274, 1080.396
798.553, 1201.731
799.833, 1199.068
801.112, 1162.084
802.391, 1293.421
803.669, 1288.396
804.948, 1362.542
806.226, 1374.866
807.504, 1371.519
808.782, 1599.281
810.060, 1584.033
811.337, 1632.833
812.615, 1771.168
813.892, 1791.905
815.168, 1980.067
816.445, 2121.601
817.722, 2192.021
818.998, 2410.918
820.274, 2402.540
821.550, 2822.616
822.826, 3017.309
824.101, 3067.939
825.376, 3561.802
826.652, 3903.192
827.926, 4405.206
829.201, 5126.427
830.476, 5718.070
831.750, 6579.605
833.024, 7701.232
834.298, 8972.695
835.572, 10684.222
836.845, 12585.934
838.119, 15377.834
839.392, 19049.223
840.665, 23811.174
841.937, 30023.070
843.210, 36634.820
844.482, 45596.848
845.754, 51188.484
847.026, 55630.668
848.298, 55112.461
849.569, 49894.504
850.841, 43426.629
852.112, 35668.496
853.383, 29400.744
854.654, 24332.770
855.924, 20225.055
857.195, 16867.393
858.465, 14539.355
859.735, 12471.695
861.004, 11394.039
862.274, 9926.385
863.543, 9498.730
864.812, 8691.079
866.081, 8683.430
867.350, 8685.781
868.619, 8558.135
869.887, 8850.490
871.155, 8612.850
872.423, 8235.211
873.691, 7977.576
874.959, 7009.945
876.226, 6202.316
877.493, 5654.691
878.760, 4797.069
880.027, 4379.448
881.294, 3761.833
882.560, 3474.222
883.826, 3020.615
885.092, 2612.013
886.358, 2551.414
887.624, 2241.819
888.889, 2028.226
890.154, 2021.637
891.419, 1741.051
892.684, 1741.467
893.949, 1719.888
895.213, 1495.311
896.477, 1547.736
897.742, 1359.165
899.005, 1421.597
900.269, 1376.031
901.532, 1264.470
902.796, 1432.911
904.059, 1301.357
905.322, 1229.808
906.584, 1327.260
907.847, 1270.719
909.109, 1325.180
910.371, 1167.644
911.633, 1321.113
912.895, 1290.586
914.156, 1178.065
915.418, 1502.546
916.679, 1366.031
917.940, 1332.521
919.200, 1552.014
920.461, 1459.510
921.721, 1660.012
922.981, 1806.518
924.241, 1900.027
925.501, 2261.541
926.760, 2627.113
928.020, 3072.638
929.279, 4035.167
930.538, 4747.698
931.797, 5950.235
933.055, 6232.775
934.314, 6265.321
935.572, 6087.871
936.830, 5310.424
938.088, 5282.984
939.345, 5195.547
940.603, 5818.116
941.860, 6430.689
943.117, 5893.268
944.374, 5445.854
945.630, 4708.446
946.887, 3791.045
948.143, 3413.653
949.399, 2836.265
950.655, 2558.882
951.910, 2495.507
953.166, 2291.138
954.421, 2290.778
955.676, 2251.423
956.931, 2364.074
958.186, 2382.731
959.440, 2409.395
960.695, 2860.065
961.949, 3232.742
963.203, 3625.515
964.456, 4618.205
965.710, 5510.903
966.963, 6813.609
968.216, 8346.322
969.469, 9089.043
970.722, 9751.771
971.974, 8854.506
973.227, 7417.247
974.479, 6369.994
975.731, 4872.750
976.983, 3955.510
978.234, 3228.276
979.486, 2691.048
980.737, 2345.826
981.988, 1897.610
983.239, 1790.398
984.489, 1335.192
985.740, 1272.006
986.990, 1229.810
988.240, 935.619
989.490, 906.586
990.740, 836.405
991.989, 713.226
993.238, 823.051
994.487, 684.880
995.736, 572.110
996.985, 636.946
998.233, 509.785
999.482, 637.627
1000.730, 736.473
1001.978, 586.341
1003.225, 1019.193
1004.473, 1020.048
1005.720, 817.433
1006.967, 800.292
1008.214, 462.391
1009.461, 582.775
1010.708, 361.644
1011.954, 398.863
1013.200, 389.736
1014.446, 302.612
1015.692, 374.292
1016.938, 395.172
1018.183, 242.648
1019.428, 403.067
1020.673, 324.955
1021.918, 474.342
1023.163, 509.234
1024.407, 330.128
1025.652, 550.296
1026.896, 468.196
1028.140, 349.257
1029.383, 522.162
1030.627, 312.068
1031.870, 414.110
1033.113, 481.020
1034.356, 211.931
1035.599, 453.042
1036.841, 363.957
1038.084, 234.306
1039.326, 322.434
1040.568, 247.354
1041.810, 295.665
1043.051, 231.590
1044.293, 182.519
1045.534, 371.022
1046.775, 119.961
1048.016, 209.307
1049.256, 340.253
1050.497, 111.201
1051.737, 321.465
1052.977, 183.417
1054.217, 188.370
1055.457, 305.949
1056.696, 94.903
1057.935, 245.887
1059.174, 274.036
1060.413, 2.006
1061.652, 267.886
1062.891, 197.844
1064.129, 152.802
1065.367, 269.185
1066.605, 57.146
1067.843, 310.500
1069.080, 198.462
1070.318, 111.424
1071.555, 227.817
1072.792, 64.783
1074.029, 229.748
1075.266, 274.960
1076.502, 19.931
1077.738, 239.265
1078.974, 180.297
1080.210, 191.272
1081.446, 396.886
1082.681, 181.864
1083.917, 445.841
1085.152, 382.180
1086.387, 223.157
1087.621, 364.132
1088.856, 147.109
1090.090, 163.087
1091.325, 244.072
1092.559, 67.051
1093.792, 329.028
1095.026, 122.152
1096.259, 10.869
1097.493, 456.107
1098.726, 58.083
1099.958, 201.062
1101.191, 300.136
1102.424, 122.112
1103.656, 260.086
1104.888, 87.058
1106.120, 153.034
1107.352, 347.006
1108.583, 37.976
1109.814, 310.946
1111.046, 124.912
1112.277, 94.875
1113.507, 234.837
1114.738, 109.795
1115.968, 112.752
1117.198, 267.705
1118.428, 3.654
1119.658, 130.603
1120.888, 31.548
1122.117, 26.510
1123.347, 265.425
1124.576, 37.356
1125.805, 172.284
1127.033, 201.207
1128.262, 78.875
1129.490, 269.039
1130.718, 27.997
1131.946, 52.901
1133.174, 209.805
1134.402, 1.782
1135.629, 75.676
1136.856, 225.565
1138.083, 107.550
1139.310, 221.330
1140.537, 44.795
1141.763, 105.929
1142.989, 148.933
1144.215, 69.212
1145.441, 135.635
1146.667, 33.479
1147.892, 166.682
1149.118, 129.144
1150.343, 122.035
1151.568, 109.225
1152.793, 251.574
1154.017, 101.631
1155.241, 140.151
1156.466, 16.932
1157.690, 52.937
1158.913, 169.829
1160.137, 29.409
1161.361, 12.424
1162.584, 163.171
1163.807, 24.079
1165.030, 79.655
1166.252, 89.384
1167.475, 37.861
1168.697, 77.852
1169.919, 88.440
1171.141, 40.419
1172.363, 102.269
1173.585, 79.048
1174.806, 152.124
1176.027, 118.064
1177.248, 117.735
1178.469, 188.147
1179.690, 83.216
1180.910, 43.604
1182.131, 138.221
1183.351, 64.034
1184.571, 109.170
1185.790, 86.760
1187.010, 130.658
1188.229, 289.910
1189.448, 2.531
1190.667, 37.614
1191.886, 146.926
1193.105, 197.598
1194.323, 13.202
1195.541, 7.707
1196.759, 87.424
1197.977, 177.159
1199.195, 81.366
1200.412, 38.643
1201.630, 254.096
1202.847, 89.462
1204.064, 144.731
1205.280, 96.151
1206.497, 49.577
1207.713, 125.507
1208.930, 75.104
1210.146, 9.674
1211.361, 197.157
1212.577, 134.489
1213.792, 201.836
1215.008, 228.164
1216.223, 75.519
1217.438, 319.312
1218.652, 129.604
1219.867, 112.604
1221.081, 217.420
1222.295, 0.681
1223.509, 215.941
1224.723, 180.179
1225.937, 29.594
1227.150, 288.806
1228.363, 162.920
1229.576, 40.738
1230.789, 315.867
1232.002, 18.965
1233.214, 227.634
1234.427, 281.153
1235.639, 4.285
1236.851, 449.809
1238.062, 197.916
1239.274, 136.013
1240.485, 403.726
1241.697, 180.801
1242.908, 307.914
1244.118, 369.241
1245.329, 26.280
1246.540, 443.746
1247.750, 226.763
1248.960, 95.765
1250.170, 397.603
1251.380, 164.580
1252.589, 236.545
1253.799, 294.342
1255.008, 115.279
1256.217, 242.204
1257.425, 288.119
1258.634, 46.021
1259.843, 338.304
1261.051, 8.819
1262.259, 173.033
1263.467, 315.481
1264.674, 15.685
1265.882, 427.120
1267.089, 218.368
1268.296, 167.175
1269.503, 493.412
1270.710, 253.198
1271.917, 235.740
1273.123, 549.894
1274.330, 119.651
1275.536, 391.050
1276.741, 372.390
1277.947, 128.116
1279.153, 267.032
1280.358, 229.042
1281.563, 21.146
1282.768, 462.299
1283.973, 0.971
1285.177, 194.126
1286.382, 314.396
1287.586, 75.982
1288.790, 193.354
1289.994, 189.537
1291.198, 16.038
1292.401, 273.534
1293.604, 0.556
1294.808, 32.857
1296.011, 320.462
1297.213, 6.017
1298.416, 204.292
1299.618, 223.137
1300.821, 68.821
1302.023, 327.422
1303.224, 14.366
1304.426, 106.599
1305.628, 58.193
1306.829, 330.810
1308.030, 50.019
1309.231, 2.327
1310.432, 255.754
1311.632, 162.542
1312.833, 28.176
1314.033, 129.227
1315.233, 375.014
1316.433, 60.236
1317.633, 130.821
1318.832, 362.018
1320.031, 77.831
1321.231, 256.136
1322.429, 140.281
1323.628, 60.521
1324.827, 345.600
1326.025, 79.301
1327.223, 20.638
1328.421, 173.430
1329.619, 116.914
1330.817, 108.110
1332.015, 180.121
1333.212, 163.322
1334.409, 128.642
1335.606, 184.409
1336.803, 146.726
1337.999, 53.185
1339.196, 226.291
1340.392, 99.482
1341.588, 91.361
1342.784, 211.455
1343.980, 59.347
1345.175, 2.133
1346.370, 112.466
1347.566, 131.272
1348.761, 154.005
1349.955, 116.302
1351.150, 142.382
1352.344, 216.959
1353.539, 33.688
1354.733, 33.316
1355.927, 254.219
1357.120, 161.373
1358.314, 134.053
1359.507, 203.498
1360.700, 237.035
1361.893, 94.547
1363.086, 80.050
1364.279, 244.429
1365.471, 301.110
1366.663, 176.328
1367.855, 114.750
1369.047, 134.063
1370.239, 319.322
1371.431, 10.309
1372.622, 58.713
1373.813, 320.623
1375.004, 94.057
1376.195, 181.599
1377.386, 133.885
1378.576, 184.846
1379.766, 202.452
1380.957, 142.642
1382.146, 42.793
1383.336, 262.920
1384.526, 43.985
1385.715, 57.890
1386.904, 413.861
1388.093, 170.215
1389.282, 244.521
1390.471, 242.549
1391.659, 129.458
1392.848, 244.435
1394.036, 155.387
1395.224, 92.682
1396.412, 317.233
1397.599, 207.868
1398.787, 59.009
1399.974, 259.875
1401.161, 194.269
1402.348, 171.575
1403.535, 142.000
1404.721, 129.197
1405.907, 243.497
1407.094, 24.253
1408.280, 65.038
1409.465, 335.691
1410.651, 6.022
1411.836, 116.116
1413.022, 334.580
1414.207, 135.072
1415.392, 214.068
1416.577, 143.729
1417.761, 125.703
1418.945, 324.857
1420.130, 94.927
1421.314, 74.917
1422.498, 235.104
1423.681, 14.527
1424.865, 135.215
1426.048, 364.628
1427.231, 76.134
1428.414, 243.312
1429.597, 281.517
1430.780, 109.562
1431.962, 410.775
1433.144, 80.312
1434.326, 118.693
1435.508, 627.396
1436.690, 237.631
1437.871, 185.968
1439.053, 713.606
1440.234, 303.018
1441.415, 622.507
1442.596, 840.226
1443.776, 479.188
1444.957, 939.104
1446.137, 838.601
1447.317, 667.769
1448.497, 1216.121
1449.677, 686.018
1450.857, 735.903
1452.036, 1355.777
1453.215, 744.072
1454.394, 1183.903
1455.573, 1202.482
1456.752, 781.326
1457.930, 1308.948
1459.109, 1078.542
1460.287, 756.076
1461.465, 1364.166
1462.643, 753.533
1463.820, 812.124
1464.998, 1121.368
1466.175, 609.052
1467.352, 818.239
1468.529, 895.854
1469.706, 363.965
1470.883, 952.739
1472.059, 671.651
1473.235, 389.521
1474.411, 896.890
1475.587, 495.668
1476.763, 344.449
1477.938, 793.194
1479.114, 301.969
1480.289, 560.729
1481.464, 589.479
1482.639, 248.176
1483.813, 636.856
1484.988, 555.449
1486.162, 184.005
1487.336, 652.529
1488.510, 411.062
1489.684, 159.626
1490.858, 578.162
1492.031, 126.685
1493.204, 215.217
1494.377, 513.789
1495.550, 167.644
1496.723, 341.006
1497.895, 279.641
1499.068, 51.741
1500.240, 356.860
1501.412, 175.450
1502.584, 75.955
1503.755, 392.649
1504.927, 61.265
1506.098, 10.104
1507.269, 458.660
1508.440, 22.518
1509.611, 168.906
1510.782, 317.568
1511.952, 190.880
1513.122, 191.573
1514.292, 142.914
1515.462, 249.017
1516.632, 0.000
##END=



