##NAMES=Chondrodite
##RRUFFID=R040016
##IDEAL CHEMISTRY=Mg_5_(SiO_4_)_2_F_2_
##LOCALITY=Vastmanland, Kafveltorp, Sweden
##OWNER=RRUFF
##SOURCE=University of Arizona Mineral Museum
##DESCRIPTION=Deep red single crystals embedded in matrix
##STATUS=The identification of this mineral has been confirmed by X-ray diffraction and chemical analysis
##URL=rruff.info/R040016
##MEASURED CHEMISTRY=(Mg_4.61_Fe_0.31_Mn_0.07_Ca_0.01_)_Σ=5_(Si_1.00_O_4_)_2_(F_1.16_(OH)_0.84_)_Σ=2_
##PIN_ID=M00425
##ORIENTATION=Laser parallel to [1 0 1]. Fiducial mark perpendicular to laser is parallel to -b* (0 -1 0)
212.871, 0.000
214.243, 85.815
215.615, 14.562
216.987, 29.272
218.358, 42.120
219.730, 11.180
221.101, 16.224
222.472, 29.394
223.843, 9.033
225.213, 33.311
226.583, 50.361
227.953, 36.047
229.323, 2.746
230.693, 23.455
232.062, 33.173
233.431, 120.902
234.800, 63.639
236.169, 132.385
237.537, 53.138
238.906, 91.897
240.274, 48.663
241.642, 117.434
243.009, 207.209
244.377, 70.987
245.744, 232.768
247.111, 174.551
248.478, 212.337
249.844, 224.126
251.210, 308.930
252.576, 371.735
253.942, 298.543
255.308, 399.354
256.673, 317.168
258.039, 444.985
259.404, 478.806
260.768, 387.629
262.133, 528.455
263.497, 433.282
264.861, 525.110
266.225, 460.938
267.589, 566.767
268.952, 503.595
270.315, 341.421
271.678, 435.247
273.041, 451.070
274.404, 638.891
275.766, 897.710
277.128, 1126.526
278.490, 1422.339
279.852, 1458.148
281.213, 1599.955
282.575, 1318.758
283.936, 1112.674
285.296, 932.479
286.657, 682.296
288.017, 675.456
289.378, 480.279
290.738, 594.112
292.097, 505.952
293.457, 554.798
294.816, 622.653
296.175, 668.513
297.534, 827.377
298.893, 732.243
300.251, 855.108
301.609, 664.976
302.967, 677.848
304.325, 343.722
305.682, 210.599
307.040, 233.476
308.397, 106.348
309.754, 73.215
311.110, 86.077
312.467, 85.933
313.823, 114.785
315.179, 106.882
316.535, 76.473
317.890, 100.309
319.246, 92.141
320.601, 84.968
321.956, 46.790
323.311, 156.606
324.665, 128.419
326.019, 232.227
327.373, 246.029
328.727, 143.827
330.081, 296.620
331.434, 157.407
332.787, 199.189
334.140, 129.967
335.493, 169.739
336.846, 254.506
338.198, 113.268
339.550, 232.024
340.902, 69.775
342.254, 203.521
343.605, 186.261
344.956, 114.995
346.307, 121.724
347.658, 28.448
349.009, 111.166
350.359, 100.877
351.709, 53.676
353.059, 52.640
354.409, 10.559
355.758, 14.156
357.108, 9.188
358.457, 106.223
359.806, 52.702
361.154, 36.814
362.503, 41.281
363.851, 15.479
365.199, 130.312
366.547, 70.512
367.894, 83.639
369.242, 119.550
370.589, 120.806
371.936, 143.750
373.282, 83.727
374.629, 149.863
375.975, 111.015
377.321, 92.972
378.667, 183.894
380.013, 80.824
381.358, 181.963
382.703, 279.782
384.048, 191.784
385.393, 328.481
386.738, 307.415
388.082, 437.323
389.426, 298.408
390.770, 402.327
392.114, 301.332
393.457, 314.416
394.800, 343.166
396.143, 284.303
397.486, 265.988
398.829, 272.917
400.171, 235.853
401.513, 305.535
402.855, 193.217
404.197, 314.897
405.539, 399.576
406.880, 356.253
408.221, 453.930
409.562, 457.606
410.903, 469.279
412.243, 464.949
413.583, 437.616
414.923, 473.281
416.263, 433.648
417.603, 341.603
418.942, 342.259
420.282, 347.912
421.620, 218.563
422.959, 175.211
424.298, 221.857
425.636, 127.500
426.974, 202.140
428.312, 158.777
429.650, 214.411
430.987, 208.040
432.325, 203.375
433.662, 294.287
434.999, 188.903
436.335, 248.515
437.672, 225.123
439.008, 201.726
440.344, 287.325
441.680, 175.919
443.015, 231.509
444.350, 147.095
445.686, 156.676
447.021, 216.252
448.355, 254.823
449.690, 296.389
451.024, 276.951
452.358, 312.507
453.692, 319.059
455.026, 303.606
456.359, 413.149
457.692, 274.686
459.025, 424.219
460.358, 386.746
461.691, 260.269
463.023, 331.787
464.355, 334.299
465.687, 343.808
467.019, 256.311
468.350, 218.809
469.682, 280.302
471.013, 204.790
472.344, 252.273
473.675, 178.752
475.005, 173.225
476.335, 192.694
477.665, 138.157
478.995, 186.616
480.325, 14.069
481.654, 148.518
482.983, 140.961
484.312, 49.399
485.641, 124.833
486.970, 17.738
488.298, 70.685
489.626, 36.103
490.954, 53.484
492.282, 38.923
493.609, 21.675
494.937, 5.278
496.264, 9.112
497.591, 38.503
498.917, 34.179
500.244, 56.807
501.570, 19.442
502.896, 29.085
504.222, 4.738
505.548, 68.570
506.873, 96.235
508.198, 60.910
509.523, 101.592
510.848, 102.571
512.172, 39.985
513.497, 114.694
514.821, 81.414
516.145, 55.141
517.469, 89.876
518.792, 93.621
520.115, 52.375
521.439, 44.966
522.761, 47.043
524.084, 92.466
525.407, 23.996
526.729, 63.790
528.051, 15.820
529.373, 49.979
530.694, 44.637
532.016, 83.015
533.337, 47.841
534.658, 66.173
535.979, 83.900
537.299, 12.140
538.620, 95.518
539.940, 24.081
541.260, 51.497
542.580, 52.771
543.899, 34.741
545.218, 71.528
546.538, 222.015
547.857, 232.569
549.175, 237.026
550.494, 283.704
551.812, 262.290
553.130, 187.621
554.448, 224.674
555.766, 140.023
557.083, 115.229
558.400, 31.382
559.717, 145.685
561.034, 57.859
562.351, 168.917
563.667, 174.304
564.983, 122.607
566.299, 283.653
567.615, 273.030
568.931, 298.135
570.246, 329.283
571.561, 425.344
572.876, 577.310
574.191, 650.570
575.505, 792.523
576.820, 929.470
578.134, 1175.411
579.448, 1352.345
580.761, 1583.273
582.075, 1743.195
583.388, 1773.111
584.701, 1741.021
586.014, 1597.923
587.327, 1380.820
588.639, 1183.711
589.952, 971.595
591.264, 704.474
592.575, 659.346
593.887, 508.211
595.198, 394.071
596.510, 370.925
597.821, 388.772
599.132, 365.570
600.442, 291.449
601.752, 430.278
603.063, 433.102
604.373, 506.919
605.682, 667.730
606.992, 764.536
608.301, 801.335
609.610, 804.128
610.919, 863.916
612.228, 948.697
613.537, 821.473
614.845, 815.243
616.153, 657.006
617.461, 602.765
618.769, 534.517
620.076, 449.263
621.383, 456.004
622.691, 355.739
623.997, 448.469
625.304, 337.192
626.611, 430.911
627.917, 485.623
629.223, 462.241
630.529, 418.942
631.834, 360.638
633.140, 322.074
634.445, 273.759
635.750, 212.332
637.055, 157.975
638.359, 112.644
639.664, 109.122
640.968, 138.615
642.272, 83.997
643.576, 119.548
644.879, 118.048
646.183, 137.657
647.486, 165.136
648.789, 188.138
650.092, 211.472
651.394, 185.610
652.697, 189.739
653.999, 155.154
655.301, 105.217
656.602, 118.430
657.904, 61.760
659.205, 115.924
660.506, 183.066
661.807, 32.604
663.108, 106.753
664.409, 5.903
665.709, 50.776
667.009, 14.663
668.309, 84.088
669.609, 2.458
670.908, 29.241
672.207, 90.921
673.506, 3.212
674.805, 104.495
676.104, 21.296
677.402, 128.185
678.701, 99.750
679.999, 96.711
681.297, 60.229
682.594, 127.000
683.892, 82.787
685.189, 143.329
686.486, 79.881
687.783, 95.441
689.079, 76.008
690.376, 124.583
691.672, 106.167
692.968, 52.758
694.264, 8.644
695.560, 58.958
696.855, 29.565
698.150, 19.565
699.445, 52.794
700.740, 26.417
702.035, 3.044
703.329, 74.675
704.623, 58.312
705.917, 3.955
707.211, 76.602
708.504, 19.255
709.798, 29.912
711.091, 12.573
712.384, 52.762
713.677, 57.906
714.969, 19.421
716.262, 35.747
717.554, 68.069
718.846, 76.927
720.138, 74.068
721.429, 66.023
722.720, 74.337
724.012, 74.649
725.303, 121.958
726.593, 63.267
727.884, 78.573
729.174, 170.878
730.464, 119.181
731.754, 150.482
733.044, 189.781
734.333, 281.079
735.623, 220.375
736.912, 232.670
738.201, 234.964
739.490, 206.256
740.778, 293.547
742.066, 242.836
743.355, 293.125
744.642, 312.413
745.930, 305.699
747.218, 324.985
748.505, 367.270
749.792, 378.554
751.079, 434.836
752.366, 436.119
753.652, 439.400
754.939, 438.681
756.225, 472.961
757.511, 559.242
758.796, 551.521
760.082, 463.801
761.367, 559.080
762.652, 479.358
763.937, 496.637
765.222, 536.915
766.506, 460.194
767.790, 554.472
769.075, 528.750
770.358, 580.030
771.642, 611.309
772.926, 640.589
774.209, 589.870
775.492, 568.151
776.775, 578.433
778.058, 688.716
779.340, 745.000
780.622, 814.286
781.904, 875.082
783.186, 835.861
784.468, 941.151
785.750, 919.442
787.031, 881.735
788.312, 1021.032
789.593, 984.331
790.873, 1000.633
792.154, 955.938
793.434, 967.246
794.714, 1078.557
795.994, 1021.872
797.274, 969.188
798.553, 1186.509
799.833, 1090.833
801.112, 1189.988
802.391, 1247.317
803.669, 1244.601
804.948, 1294.680
806.226, 1364.018
807.504, 1433.947
808.782, 1493.597
810.060, 1533.469
811.337, 1640.373
812.615, 1729.719
813.892, 1841.566
815.168, 2061.805
816.445, 1989.549
817.722, 2257.429
818.998, 2428.327
820.274, 2467.396
821.550, 2777.159
822.826, 2939.131
824.101, 3090.824
825.376, 3502.815
826.652, 3854.736
827.926, 4426.750
829.201, 4968.541
830.476, 5570.420
831.750, 6392.551
833.024, 7564.957
834.298, 8777.064
835.572, 10309.312
836.845, 12221.610
838.119, 15203.757
839.392, 18016.029
840.665, 22968.414
841.937, 28780.469
843.210, 34842.602
844.482, 44184.992
845.754, 48817.051
847.026, 53459.375
848.298, 53961.656
849.569, 48104.023
850.841, 43106.480
852.112, 35318.641
853.383, 28871.109
854.654, 24503.580
855.924, 19826.055
857.195, 17078.535
858.465, 14641.018
859.735, 12643.506
861.004, 11695.999
862.274, 10438.496
863.543, 10060.998
864.812, 9513.504
866.081, 9486.015
867.350, 9698.531
868.619, 9651.053
869.887, 10013.579
871.155, 9996.112
872.423, 9308.650
873.691, 9131.195
874.959, 7873.745
876.226, 6956.301
877.493, 6238.862
878.760, 5121.429
880.027, 4604.001
881.294, 3866.580
882.560, 3559.165
883.826, 3071.755
885.092, 2694.351
886.358, 2506.952
887.624, 2101.562
888.889, 2110.176
890.154, 2064.796
891.419, 1755.421
892.684, 1724.052
893.949, 1650.689
895.213, 1546.332
896.477, 1340.979
897.742, 1295.634
899.005, 1292.293
900.269, 1328.958
901.532, 1170.629
902.796, 1337.306
904.059, 1135.990
905.322, 1201.680
906.584, 1215.375
907.847, 1092.082
909.109, 1199.794
910.371, 999.512
911.633, 1120.235
912.895, 988.964
914.156, 1051.701
915.418, 1195.444
916.679, 1009.193
917.940, 967.949
919.200, 1165.711
920.461, 1056.479
921.721, 1236.255
922.981, 1159.037
924.241, 1314.824
925.501, 1384.618
926.760, 1426.417
928.020, 1661.225
929.279, 2035.039
930.538, 2281.857
931.797, 2614.683
933.055, 2857.514
934.314, 3310.353
935.572, 3643.197
936.830, 3936.047
938.088, 4888.904
939.345, 5661.767
940.603, 7224.635
941.860, 8747.512
943.117, 8570.393
944.374, 8193.283
945.630, 7106.181
946.887, 5949.084
948.143, 5131.997
949.399, 4214.915
950.655, 3677.841
951.910, 3590.773
953.166, 3193.714
954.421, 3106.663
955.676, 2989.620
956.931, 3112.583
958.186, 3105.556
959.440, 3198.537
960.695, 3601.525
961.949, 3754.522
963.203, 4317.526
964.456, 5210.538
965.710, 6103.558
966.963, 7586.585
968.216, 9109.623
969.469, 9562.665
970.722, 10165.715
971.974, 9108.771
973.227, 7471.833
974.479, 6234.901
975.731, 4707.977
976.983, 3801.057
978.234, 2864.145
979.486, 2407.239
980.737, 2100.340
981.988, 1704.447
983.239, 1548.561
984.489, 1135.680
985.740, 1127.805
986.990, 1030.935
988.240, 789.071
989.490, 864.213
990.740, 724.360
991.989, 637.513
993.238, 743.669
994.487, 552.831
995.736, 647.997
996.985, 596.169
998.233, 551.349
999.482, 563.532
1000.730, 576.722
1001.978, 662.227
1003.225, 814.428
1004.473, 815.633
1005.720, 849.257
1006.967, 731.471
1008.214, 507.233
1009.461, 462.456
1010.708, 305.684
1011.954, 426.272
1013.200, 367.510
1014.446, 271.801
1015.692, 389.479
1016.938, 358.729
1018.183, 380.365
1019.428, 459.623
1020.673, 255.885
1021.918, 522.792
1023.163, 416.065
1024.407, 322.344
1025.652, 518.732
1026.896, 425.019
1028.140, 333.518
1029.383, 460.812
1030.627, 223.109
1031.870, 455.650
1033.113, 295.956
1034.356, 247.265
1035.599, 451.862
1036.841, 252.178
1038.084, 347.908
1039.326, 237.229
1040.568, 247.643
1041.810, 325.141
1043.051, 209.478
1044.293, 262.818
1045.534, 325.223
1046.775, 164.577
1048.016, 199.538
1049.256, 333.911
1050.497, 295.286
1051.737, 329.130
1052.977, 191.518
1054.217, 418.907
1055.457, 394.666
1056.696, 232.062
1057.935, 320.680
1059.174, 260.084
1060.413, 224.489
1061.652, 340.416
1062.891, 197.825
1064.129, 365.235
1065.367, 195.765
1066.605, 193.181
1067.843, 319.032
1069.080, 183.456
1070.318, 208.882
1071.555, 294.358
1072.792, 171.788
1074.029, 310.218
1075.266, 299.652
1076.502, 244.088
1077.738, 466.959
1078.974, 287.400
1080.210, 315.841
1081.446, 341.477
1082.681, 201.923
1083.917, 431.370
1085.152, 216.819
1086.387, 288.270
1087.621, 309.719
1088.856, 176.171
1090.090, 295.623
1091.325, 211.075
1092.559, 98.531
1093.792, 287.987
1095.026, 134.444
1096.259, 196.901
1097.493, 370.358
1098.726, 230.818
1099.958, 292.276
1101.191, 274.225
1102.424, 294.684
1103.656, 377.142
1104.888, 121.597
1106.120, 302.059
1107.352, 242.518
1108.583, 168.976
1109.814, 484.434
1111.046, 112.889
1112.277, 298.344
1113.507, 364.798
1114.738, 211.249
1115.968, 294.703
1117.198, 355.154
1118.428, 67.603
1119.658, 311.050
1120.888, 135.493
1122.117, 187.936
1123.347, 281.375
1124.576, 117.812
1125.805, 345.247
1127.033, 182.681
1128.262, 25.110
1129.490, 369.542
1130.718, 24.670
1131.946, 57.096
1133.174, 318.518
1134.402, 58.649
1135.629, 220.764
1136.856, 173.173
1138.083, 81.422
1139.310, 361.978
1140.537, 109.626
1141.763, 106.761
1142.989, 226.147
1144.215, 69.188
1145.441, 234.187
1146.667, 3.440
1147.892, 86.073
1149.118, 141.285
1150.343, 75.360
1151.568, 19.986
1152.793, 188.329
1154.017, 130.480
1155.241, 277.847
1156.466, 6.171
1157.690, 15.921
1158.913, 201.392
1160.137, 38.225
1161.361, 122.076
1162.584, 191.371
1163.807, 45.111
1165.030, 179.171
1166.252, 29.449
1167.475, 55.263
1168.697, 111.002
1169.919, 82.739
1171.141, 34.600
1172.363, 13.157
1173.585, 244.542
1174.806, 179.677
1176.027, 59.297
1177.248, 5.736
1178.469, 251.559
1179.690, 123.098
1180.910, 128.771
1182.131, 62.944
1183.351, 93.344
1184.571, 200.052
1185.790, 63.199
1187.010, 73.158
1188.229, 348.971
1189.448, 41.907
1190.667, 256.042
1191.886, 280.146
1193.105, 106.758
1194.323, 194.325
1195.541, 79.401
1196.759, 19.950
1197.977, 330.107
1199.195, 88.843
1200.412, 185.341
1201.630, 170.370
1202.847, 6.609
1204.064, 292.893
1205.280, 100.896
1206.497, 119.644
1207.713, 246.771
1208.930, 89.252
1210.146, 134.491
1211.361, 134.446
1212.577, 37.608
1213.792, 306.364
1215.008, 70.289
1216.223, 38.672
1217.438, 332.578
1218.652, 18.475
1219.867, 181.041
1221.081, 238.918
1222.295, 5.785
1223.509, 289.721
1224.723, 166.568
1225.937, 13.635
1227.150, 400.776
1228.363, 36.594
1229.576, 110.168
1230.789, 298.965
1232.002, 102.248
1233.214, 329.949
1234.427, 147.710
1235.639, 50.460
1236.851, 470.538
1238.062, 146.268
1239.274, 236.985
1240.485, 354.944
1241.697, 75.646
1242.908, 304.618
1244.118, 243.300
1245.329, 36.971
1246.540, 453.406
1247.750, 79.054
1248.960, 260.690
1250.170, 341.316
1251.380, 128.932
1252.589, 301.535
1253.799, 180.129
1255.008, 9.711
1256.217, 384.598
1257.425, 81.157
1258.634, 141.705
1259.843, 216.102
1261.051, 148.376
1262.259, 258.129
1263.467, 200.774
1264.674, 86.745
1265.882, 445.464
1267.089, 119.919
1268.296, 132.358
1269.503, 412.693
1270.710, 12.104
1271.917, 396.959
1273.123, 500.312
1274.330, 58.306
1275.536, 384.711
1276.741, 207.315
1277.947, 58.615
1279.153, 311.519
1280.358, 121.847
1281.563, 165.782
1282.768, 398.169
1283.973, 181.532
1285.177, 342.114
1286.382, 144.867
1287.586, 124.877
1288.790, 259.252
1289.994, 14.530
1291.198, 26.459
1292.401, 375.638
1293.604, 47.197
1294.808, 289.716
1296.011, 252.293
1297.213, 1.579
1298.416, 336.250
1299.618, 58.361
1300.821, 17.964
1302.023, 122.109
1303.224, 294.914
1304.426, 34.961
1305.628, 86.015
1306.829, 377.011
1308.030, 19.081
1309.231, 246.110
1310.432, 361.760
1311.632, 136.164
1312.833, 330.926
1314.033, 50.494
1315.233, 231.378
1316.433, 106.764
1317.633, 114.715
1318.832, 176.537
1320.031, 178.872
1321.231, 349.919
1322.429, 21.697
1323.628, 22.939
1324.827, 434.688
1326.025, 123.574
1327.223, 128.032
1328.421, 219.739
1329.619, 245.008
1330.817, 262.662
1332.015, 4.317
1333.212, 104.092
1334.409, 287.532
1335.606, 160.855
1336.803, 29.269
1337.999, 172.303
1339.196, 166.574
1340.392, 154.966
1341.588, 106.492
1342.784, 222.194
1343.980, 109.294
1345.175, 99.230
1346.370, 12.229
1347.566, 193.670
1348.761, 144.903
1349.955, 6.507
1351.150, 167.903
1352.344, 230.714
1353.539, 290.650
1354.733, 48.000
1355.927, 66.665
1357.120, 374.654
1358.314, 164.039
1359.507, 67.249
1360.700, 258.524
1361.893, 90.705
1363.086, 220.541
1364.279, 211.772
1365.471, 287.010
1366.663, 384.189
1367.855, 65.374
1369.047, 52.453
1370.239, 388.703
1371.431, 60.153
1372.622, 141.560
1373.813, 342.676
1375.004, 166.222
1376.195, 304.864
1377.386, 165.938
1378.576, 27.212
1379.766, 448.260
1380.957, 89.294
1382.146, 170.718
1383.336, 501.727
1384.526, 67.319
1385.715, 143.879
1386.904, 344.767
1388.093, 184.368
1389.282, 496.512
1390.471, 246.571
1391.659, 32.341
1392.848, 508.310
1394.036, 11.517
1395.224, 60.236
1396.412, 430.581
1397.599, 70.480
1398.787, 261.094
1399.974, 262.653
1401.161, 206.096
1402.348, 365.424
1403.535, 206.933
1404.721, 51.571
1405.907, 538.999
1407.094, 9.817
1408.280, 141.169
1409.465, 532.587
1410.651, 16.262
1411.836, 295.104
1413.022, 496.474
1414.207, 102.272
1415.392, 467.474
1416.577, 156.249
1417.761, 26.048
1418.945, 475.273
1420.130, 4.322
1421.314, 84.886
1422.498, 246.050
1423.681, 93.854
1424.865, 347.272
1426.048, 367.640
1427.231, 1.270
1428.414, 478.302
1429.597, 248.695
1430.780, 1.297
1431.962, 619.507
1433.144, 79.411
1434.326, 228.911
1435.508, 649.174
1436.690, 140.077
1437.871, 429.973
1439.053, 649.235
1440.234, 109.717
1441.415, 780.041
1442.596, 649.636
1443.776, 389.721
1444.957, 1010.454
1446.137, 539.007
1447.317, 569.263
1448.497, 1099.423
1449.677, 430.022
1450.857, 869.270
1452.036, 1099.813
1453.215, 530.338
1454.394, 970.839
1455.573, 900.740
1456.752, 439.587
1457.930, 1250.006
1459.109, 840.116
1460.287, 590.396
1461.465, 1360.124
1462.643, 400.482
1463.820, 838.794
1464.998, 928.509
1466.175, 388.702
1467.352, 958.852
1468.529, 668.779
1469.706, 197.721
1470.883, 1037.749
1472.059, 507.806
1473.235, 257.890
1474.411, 1026.832
1475.587, 296.827
1476.763, 416.774
1477.938, 896.715
1479.114, 146.653
1480.289, 786.600
1481.464, 606.517
1482.639, 116.442
1483.813, 756.355
1484.988, 426.254
1486.162, 216.175
1487.336, 846.073
1488.510, 235.971
1489.684, 325.825
1490.858, 775.685
1492.031, 65.536
1493.204, 425.370
1494.377, 575.215
1495.550, 214.911
1496.723, 554.942
1497.895, 264.833
1499.068, 125.294
1500.240, 584.617
1501.412, 54.524
1502.584, 24.427
1503.755, 644.326
1504.927, 45.776
1506.098, 174.118
1507.269, 574.013
1508.440, 86.087
1509.611, 493.822
1510.782, 404.385
1511.952, 62.560
1513.122, 595.661
1514.292, 283.485
1515.462, 12.312
1516.632, 607.038
1517.802, 78.759
1518.971, 38.687
1520.140, 557.839
1521.309, 278.392
1522.478, 160.690
1523.647, 0.000
##END=



