##NAMES=Chondrodite
##RRUFFID=R040016
##IDEAL CHEMISTRY=Mg_5_(SiO_4_)_2_F_2_
##LOCALITY=Vastmanland, Kafveltorp, Sweden
##OWNER=RRUFF
##SOURCE=University of Arizona Mineral Museum
##DESCRIPTION=Deep red single crystals embedded in matrix
##STATUS=The identification of this mineral has been confirmed by X-ray diffraction and chemical analysis
##URL=rruff.info/R040016
##MEASURED CHEMISTRY=(Mg_4.61_Fe_0.31_Mn_0.07_Ca_0.01_)_Σ=5_(Si_1.00_O_4_)_2_(F_1.16_(OH)_0.84_)_Σ=2_
##PIN_ID=M00452
##ORIENTATION=Laser parallel to -a [-1 0 0]. Fiducial mark perpendicular to laser is parallel to b* (0 1 0)
214.243, 0.000
215.615, 6.699
216.987, 2.286
218.358, 13.566
219.730, 0.773
221.101, 20.864
222.472, 1.611
223.843, 34.671
225.213, 25.140
226.583, 5.601
227.953, 5.456
229.323, 12.069
230.693, 6.383
232.062, 7.688
233.431, 51.296
234.800, 11.207
236.169, 36.684
237.537, 7.973
238.906, 50.413
240.274, 61.817
241.642, 48.236
243.009, 25.669
244.377, 85.113
245.744, 41.568
247.111, 90.033
248.478, 43.507
249.844, 6.988
251.210, 56.477
252.576, 42.970
253.942, 30.465
255.308, 19.962
256.673, 43.446
258.039, 27.708
259.404, 22.723
260.768, 45.545
262.133, 60.182
263.497, 80.628
264.861, 91.073
266.225, 160.517
267.589, 135.091
268.952, 151.402
270.315, 103.843
271.678, 126.283
273.041, 95.722
274.404, 184.159
275.766, 259.595
277.128, 294.029
278.490, 406.461
279.852, 365.892
281.213, 415.320
282.575, 361.748
283.936, 291.173
285.296, 239.600
286.657, 139.028
288.017, 127.462
289.378, 76.916
290.738, 92.381
292.097, 62.853
293.457, 35.330
294.816, 64.816
296.175, 31.312
297.534, 65.815
298.893, 0.682
300.251, 15.184
301.609, 23.303
302.967, 10.780
304.325, 32.753
305.682, 48.295
307.040, 5.844
308.397, 49.601
309.754, 12.960
311.110, 12.476
312.467, 0.911
313.823, 80.344
315.179, 66.776
316.535, 90.207
317.890, 95.637
319.246, 65.066
320.601, 149.494
321.956, 106.921
323.311, 133.346
324.665, 136.770
326.019, 189.192
327.373, 258.613
328.727, 163.033
330.081, 238.451
331.434, 186.866
332.787, 217.279
334.140, 194.687
335.493, 146.092
336.846, 198.495
338.198, 194.896
339.550, 204.296
340.902, 161.693
342.254, 125.089
343.605, 122.581
344.956, 98.787
346.307, 106.264
347.658, 90.651
349.009, 101.036
350.359, 113.441
351.709, 73.821
353.059, 104.199
354.409, 70.671
355.758, 52.229
357.108, 40.597
358.457, 100.143
359.806, 102.504
361.154, 53.639
362.503, 107.604
363.851, 47.475
365.199, 75.215
366.547, 60.941
367.894, 29.538
369.242, 74.265
370.589, 50.827
371.936, 41.498
373.282, 42.187
374.629, 69.059
375.975, 88.845
377.321, 68.634
378.667, 128.369
380.013, 147.921
381.358, 142.428
382.703, 245.838
384.048, 307.245
385.393, 370.416
386.738, 444.542
388.082, 456.722
389.426, 425.008
390.770, 419.017
392.114, 325.228
393.457, 288.214
394.800, 208.416
396.143, 225.789
397.486, 187.931
398.829, 182.136
400.171, 117.399
401.513, 144.709
402.855, 139.912
404.197, 178.186
405.539, 203.480
406.880, 218.877
408.221, 326.273
409.562, 341.668
410.903, 368.063
412.243, 386.458
413.583, 349.852
414.923, 466.245
416.263, 392.638
417.603, 422.031
418.942, 401.422
420.282, 440.812
421.620, 343.200
422.959, 285.587
424.298, 312.974
425.636, 239.358
426.974, 258.741
428.312, 277.123
429.650, 230.502
430.987, 279.879
432.325, 288.254
433.662, 342.627
434.999, 291.997
436.335, 253.366
437.672, 344.732
439.008, 257.096
440.344, 284.457
441.680, 216.816
443.015, 263.172
444.350, 213.522
445.686, 140.801
447.021, 186.150
448.355, 113.496
449.690, 116.686
451.024, 94.802
452.358, 97.112
453.692, 86.448
455.026, 41.720
456.359, 40.052
457.692, 6.380
459.025, 36.707
460.358, 40.031
461.691, 23.352
463.023, 11.670
464.355, 31.987
465.687, 73.300
467.019, 90.611
468.350, 62.920
469.682, 111.226
471.013, 59.529
472.344, 140.829
473.675, 124.127
475.005, 120.422
476.335, 154.715
477.665, 83.005
478.995, 88.292
480.325, 57.576
481.654, 60.858
482.983, 27.137
484.312, 3.587
485.641, 58.687
486.970, 5.957
488.298, 14.225
489.626, 12.490
490.954, 19.247
492.282, 20.012
493.609, 16.732
494.937, 20.479
496.264, 37.770
497.591, 24.017
498.917, 38.260
500.244, 37.500
501.570, 15.736
502.896, 33.974
504.222, 15.796
505.548, 18.426
506.873, 1.643
508.198, 12.854
509.523, 13.069
510.848, 2.271
512.172, 13.274
513.497, 18.779
514.821, 38.791
516.145, 30.113
517.469, 72.619
518.792, 61.255
520.115, 68.982
521.439, 60.162
522.761, 25.030
524.084, 28.683
525.407, 1.833
526.729, 3.208
528.051, 32.720
529.373, 0.601
530.694, 87.775
532.016, 42.327
533.337, 83.687
534.658, 99.177
535.979, 92.899
537.299, 157.305
538.620, 176.026
539.940, 194.568
541.260, 246.873
542.580, 275.779
543.899, 319.702
545.218, 375.311
546.538, 486.773
547.857, 572.161
549.175, 673.691
550.494, 725.066
551.812, 661.392
553.130, 566.712
554.448, 518.077
555.766, 414.422
557.083, 409.727
558.400, 333.118
559.717, 301.387
561.034, 306.492
562.351, 294.739
563.667, 353.858
564.983, 393.895
566.299, 406.266
567.615, 457.315
568.931, 507.363
570.246, 499.381
571.561, 520.395
572.876, 543.404
574.191, 544.409
575.505, 650.409
576.820, 755.405
578.134, 799.396
579.448, 844.384
580.761, 872.366
582.075, 896.874
583.388, 917.330
584.701, 916.286
586.014, 944.251
587.327, 928.211
588.639, 943.167
589.952, 974.118
591.264, 1036.065
592.575, 1164.008
593.887, 1341.948
595.198, 1514.883
596.510, 1785.814
597.821, 2077.741
599.132, 2476.663
600.442, 2804.581
601.752, 3213.093
603.063, 3662.402
604.373, 4011.307
605.682, 4341.206
606.992, 4647.102
608.301, 4823.993
609.610, 4654.879
610.919, 4319.761
612.228, 4115.639
613.537, 3546.512
614.845, 3047.380
616.153, 2610.244
617.461, 2208.896
618.769, 1916.959
620.076, 1568.810
621.383, 1354.657
622.691, 1142.499
623.997, 920.336
625.304, 827.169
626.611, 700.978
627.917, 566.802
629.223, 534.622
630.529, 422.438
631.834, 360.249
633.140, 377.963
634.445, 314.765
635.750, 218.482
637.055, 235.177
638.359, 209.966
639.664, 124.751
640.968, 86.532
642.272, 77.131
643.576, 0.903
644.879, 72.671
646.183, 33.357
647.486, 25.116
648.789, 4.872
650.092, 0.623
651.394, 2.370
652.697, 52.888
653.999, 28.218
655.301, 54.579
656.602, 38.040
657.904, 65.466
659.205, 39.097
660.506, 20.682
661.807, 76.307
663.108, 56.898
664.409, 40.333
665.709, 77.791
667.009, 48.119
668.309, 78.452
669.609, 114.793
670.908, 50.150
672.207, 88.507
673.506, 47.871
674.805, 76.241
676.104, 126.618
677.402, 59.005
678.701, 127.398
679.999, 89.801
681.297, 39.212
682.594, 80.628
683.892, 47.052
685.189, 106.481
686.486, 75.919
687.783, 60.365
689.079, 91.817
690.376, 59.276
691.672, 49.741
692.968, 49.213
694.264, 59.691
695.560, 56.175
696.855, 48.540
698.150, 68.161
699.445, 42.663
700.740, 8.171
702.035, 39.683
703.329, 13.200
704.623, 11.279
705.917, 69.246
707.211, 0.777
708.504, 1.311
709.798, 15.151
711.091, 46.610
712.384, 51.066
713.677, 71.189
714.969, 91.129
716.262, 84.417
717.554, 99.861
718.846, 76.303
720.138, 95.385
721.429, 90.177
722.720, 126.610
724.012, 97.041
725.303, 122.469
726.593, 127.894
727.884, 125.316
729.174, 188.736
730.464, 163.153
731.754, 126.568
733.044, 225.980
734.333, 208.390
735.623, 256.797
736.912, 280.202
738.201, 285.605
739.490, 294.005
740.778, 289.403
742.066, 342.799
743.355, 319.192
744.642, 373.583
745.930, 377.972
747.218, 397.359
748.505, 465.744
749.792, 443.127
751.079, 532.508
752.366, 578.886
753.652, 596.263
754.939, 580.638
756.225, 624.011
757.511, 630.382
758.796, 737.752
760.082, 638.119
761.367, 705.485
762.652, 739.850
763.937, 669.212
765.222, 684.573
766.506, 685.933
767.790, 655.291
769.075, 614.647
770.358, 636.002
771.642, 639.355
772.926, 642.708
774.209, 592.059
775.492, 634.410
776.775, 589.759
778.058, 718.107
779.340, 668.454
780.622, 698.800
781.904, 744.146
783.186, 690.484
784.468, 765.828
785.750, 799.171
787.031, 835.512
788.312, 856.854
789.593, 836.186
790.873, 832.525
792.154, 852.606
793.434, 871.801
794.714, 909.873
795.994, 926.022
797.274, 899.044
798.553, 946.189
799.833, 956.420
801.112, 1001.394
802.391, 992.458
803.669, 1076.600
804.948, 1048.568
806.226, 1133.673
807.504, 1113.637
808.782, 1262.431
810.060, 1325.526
811.337, 1365.443
812.615, 1429.548
813.892, 1525.521
815.168, 1608.295
816.445, 1719.314
817.722, 1864.049
818.998, 1966.959
820.274, 2192.106
821.550, 2340.060
822.826, 2648.170
824.101, 2758.004
825.376, 3097.981
826.652, 3501.031
827.926, 3926.936
829.201, 4389.992
830.476, 5101.094
831.750, 5753.198
833.024, 6843.255
834.298, 7929.329
835.572, 9585.439
836.845, 11361.460
838.119, 14157.601
839.392, 17083.902
840.665, 21660.059
841.937, 26896.340
843.210, 32782.703
844.482, 40148.727
845.754, 44045.066
847.026, 47151.410
848.298, 46047.777
849.569, 41554.148
850.841, 35890.520
852.112, 29486.895
853.383, 24203.270
854.654, 19999.646
855.924, 16376.025
857.195, 13792.405
858.465, 11658.788
859.735, 10015.172
861.004, 8741.558
862.274, 7677.945
863.543, 7024.334
864.812, 6555.726
866.081, 6330.118
867.350, 6165.514
868.619, 6072.912
869.887, 6100.312
871.155, 5923.713
872.423, 5704.116
873.691, 5406.523
874.959, 4867.933
876.226, 4358.344
877.493, 3840.757
878.760, 3385.172
880.027, 2972.590
881.294, 2637.010
882.560, 2367.432
883.826, 2096.858
885.092, 1896.285
886.358, 1769.715
887.624, 1563.148
888.889, 1480.583
890.154, 1373.021
891.419, 1217.462
892.684, 1191.905
893.949, 1094.352
895.213, 1012.800
896.477, 974.251
897.742, 964.705
899.005, 965.163
900.269, 875.625
901.532, 816.090
902.796, 797.558
904.059, 752.028
905.322, 742.501
906.584, 747.977
907.847, 686.456
909.109, 750.938
910.371, 697.424
911.633, 683.912
912.895, 635.404
914.156, 724.900
915.418, 653.399
916.679, 674.901
917.940, 691.407
919.200, 682.915
920.461, 692.427
921.721, 754.942
922.981, 749.459
924.241, 801.980
925.501, 946.505
926.760, 1045.032
928.020, 1226.562
929.279, 1447.096
930.538, 1818.634
931.797, 2012.177
933.055, 2068.722
934.314, 2128.273
935.572, 1979.828
936.830, 1933.387
938.088, 1974.951
939.345, 2019.519
940.603, 2184.092
941.860, 2237.668
943.117, 2043.249
944.374, 1758.835
945.630, 1482.427
946.887, 1282.023
948.143, 1119.385
949.399, 949.227
950.655, 927.836
951.910, 876.451
953.166, 879.069
954.421, 885.693
955.676, 932.322
956.931, 1043.955
958.186, 1066.593
959.440, 1265.234
960.695, 1459.881
961.949, 1710.545
963.203, 2170.200
964.456, 2707.860
965.710, 3400.524
966.963, 4325.192
968.216, 5267.864
969.469, 5739.540
970.722, 5838.220
971.974, 5424.106
973.227, 4633.794
974.479, 3788.486
975.731, 3108.180
976.983, 2515.878
978.234, 2014.753
979.486, 1809.456
980.737, 1462.164
981.988, 1241.022
983.239, 1154.735
984.489, 945.464
985.740, 886.183
986.990, 757.904
988.240, 614.679
989.490, 627.405
990.740, 553.133
991.989, 508.949
993.238, 477.682
994.487, 402.417
995.736, 426.154
996.985, 361.893
998.233, 399.635
999.482, 397.380
1000.730, 352.126
1001.978, 362.087
1003.225, 340.838
1004.473, 362.591
1005.720, 340.346
1006.967, 287.103
1008.214, 269.162
1009.461, 306.924
1010.708, 225.687
1011.954, 312.457
1013.200, 237.224
1014.446, 213.163
1015.692, 299.934
1016.938, 182.707
1018.183, 239.714
1019.428, 201.492
1020.673, 193.271
1021.918, 296.151
1023.163, 157.936
1024.407, 153.026
1025.652, 227.814
1026.896, 187.691
1028.140, 218.548
1029.383, 222.340
1030.627, 209.216
1031.870, 181.108
1033.113, 153.175
1034.356, 171.277
1035.599, 198.238
1036.841, 217.205
1038.084, 204.045
1039.326, 113.854
1040.568, 149.704
1041.810, 149.723
1043.051, 86.554
1044.293, 160.606
1045.534, 125.513
1046.775, 99.471
1048.016, 123.800
1049.256, 112.629
1050.497, 114.459
1051.737, 124.488
1052.977, 47.323
1054.217, 132.375
1055.457, 98.271
1056.696, 131.111
1057.935, 69.249
1059.174, 79.093
1060.413, 77.937
1061.652, 11.905
1062.891, 35.751
1064.129, 120.648
1065.367, 39.497
1066.605, 59.346
1067.843, 82.464
1069.080, 68.314
1070.318, 95.320
1071.555, 53.258
1072.792, 101.110
1074.029, 145.108
1075.266, 39.963
1076.502, 71.817
1077.738, 39.886
1078.974, 81.741
1080.210, 107.596
1081.446, 50.451
1082.681, 60.307
1083.917, 102.163
1085.152, 38.018
1086.387, 84.874
1087.621, 45.738
1088.856, 75.592
1090.090, 60.445
1091.325, 26.357
1092.559, 58.209
1093.792, 86.062
1095.026, 1.914
1096.259, 100.766
1097.493, 43.617
1098.726, 59.468
1099.958, 83.318
1101.191, 22.167
1102.424, 186.015
1103.656, 88.861
1104.888, 39.293
1106.120, 119.551
1107.352, 49.394
1108.583, 7.235
1109.814, 87.075
1111.046, 33.086
1112.277, 93.750
1113.507, 66.585
1114.738, 27.581
1115.968, 84.249
1117.198, 1.219
1118.428, 20.045
1119.658, 42.869
1120.888, 7.308
1122.117, 19.512
1123.347, 34.331
1124.576, 14.852
1125.805, 32.962
1127.033, 23.775
1128.262, 61.585
1129.490, 109.394
1130.718, 9.315
1131.946, 95.119
1133.174, 70.931
1134.402, 42.270
1135.629, 67.525
1136.856, 12.317
1138.083, 5.108
1139.310, 39.897
1140.537, 61.244
1141.763, 18.537
1142.989, 39.316
1144.215, 2.144
1145.441, 59.917
1146.667, 33.312
1147.892, 51.454
1149.118, 19.233
1150.343, 46.796
1151.568, 13.959
1152.793, 41.712
1154.017, 18.186
1155.241, 86.559
1156.466, 62.699
1157.690, 29.037
1158.913, 16.230
1160.137, 11.400
1161.361, 16.324
1162.584, 14.956
1163.807, 17.901
1165.030, 55.189
1166.252, 62.469
1167.475, 31.351
1168.697, 32.658
1169.919, 4.497
1171.141, 34.316
1172.363, 5.704
1173.585, 41.658
1174.806, 0.937
1176.027, 47.965
1177.248, 30.752
1178.469, 12.099
1179.690, 105.946
1180.910, 59.150
1182.131, 33.784
1183.351, 40.282
1184.571, 13.712
1185.790, 44.498
1187.010, 10.322
1188.229, 30.291
1189.448, 61.960
1190.667, 54.118
1191.886, 3.708
1193.105, 24.371
1194.323, 22.208
1195.541, 9.217
1196.759, 61.653
1197.977, 35.273
1199.195, 55.990
1200.412, 45.597
1201.630, 31.857
1202.847, 16.749
1204.064, 90.785
1205.280, 29.687
1206.497, 61.352
1207.713, 45.868
1208.930, 44.622
1210.146, 70.106
1211.361, 57.604
1212.577, 30.318
1213.792, 118.080
1215.008, 56.561
1216.223, 14.221
1217.438, 114.690
1218.652, 0.793
1219.867, 125.665
1221.081, 61.117
1222.295, 11.437
1223.509, 110.310
1224.723, 45.744
1225.937, 121.524
1227.150, 86.041
1228.363, 36.457
1229.576, 64.178
1230.789, 85.582
1232.002, 12.979
1233.214, 135.521
1234.427, 14.907
1235.639, 73.286
1236.851, 122.956
1238.062, 27.323
1239.274, 109.801
1240.485, 109.216
1241.697, 67.564
1242.908, 151.057
1244.118, 72.403
1245.329, 100.732
1246.540, 170.998
1247.750, 29.687
1248.960, 126.644
1250.170, 116.946
1251.380, 63.242
1252.589, 137.776
1253.799, 32.059
1255.008, 128.335
1256.217, 60.768
1257.425, 35.031
1258.634, 102.287
1259.843, 106.715
1261.051, 24.042
1262.259, 149.193
1263.467, 1.578
1264.674, 40.644
1265.882, 135.774
1267.089, 52.076
1268.296, 38.278
1269.503, 17.953
1270.710, 14.858
1271.917, 61.024
1273.123, 40.441
1274.330, 10.386
1275.536, 78.795
1276.741, 4.956
1277.947, 74.939
1279.153, 2.806
1280.358, 44.664
1281.563, 54.241
1282.768, 56.370
1283.973, 75.507
1285.177, 115.509
1286.382, 1.798
1287.586, 23.590
1288.790, 47.679
1289.994, 21.330
1291.198, 52.674
1292.401, 19.735
1293.604, 72.294
1294.808, 16.653
1296.011, 2.583
1297.213, 89.860
1298.416, 29.999
1299.618, 101.155
1300.821, 27.188
1302.023, 64.198
1303.224, 79.202
1304.426, 10.436
1305.628, 65.487
1306.829, 118.765
1308.030, 19.026
1309.231, 108.103
1310.432, 97.677
1311.632, 3.243
1312.833, 64.714
1314.033, 79.009
1315.233, 36.118
1316.433, 120.450
1317.633, 0.633
1318.832, 30.769
1320.031, 103.209
1321.231, 29.638
1322.429, 71.523
1323.628, 8.184
1324.827, 33.007
1326.025, 64.228
1327.223, 11.421
1328.421, 37.624
1329.619, 7.102
1330.817, 34.680
1332.015, 121.701
1333.212, 6.979
1334.409, 108.736
1335.606, 110.663
1336.803, 26.071
1337.999, 18.799
1339.196, 47.695
1340.392, 70.017
1341.588, 47.279
1342.784, 58.583
1343.980, 58.103
1345.175, 39.219
1346.370, 3.452
1347.566, 10.884
1348.761, 4.763
1349.955, 46.412
1351.150, 48.054
1352.344, 65.370
1353.539, 112.257
1354.733, 75.124
1355.927, 22.513
1357.120, 104.088
1358.314, 66.317
1359.507, 2.269
1360.700, 56.848
1361.893, 31.580
1363.086, 93.984
1364.279, 76.542
1365.471, 106.907
1366.663, 134.635
1367.855, 24.829
1369.047, 12.256
1370.239, 80.266
1371.431, 69.219
1372.622, 1.711
1373.813, 11.790
1375.004, 18.715
1376.195, 92.774
1377.386, 6.885
1378.576, 42.592
1379.766, 171.062
1380.957, 63.473
1382.146, 81.985
1383.336, 79.437
1384.526, 53.118
1385.715, 145.320
1386.904, 94.752
1388.093, 37.820
1389.282, 137.601
1390.471, 1.902
1391.659, 11.313
1392.848, 143.710
1394.036, 26.886
1395.224, 19.484
1396.412, 107.915
1397.599, 102.685
1398.787, 104.718
1399.974, 56.366
1401.161, 50.976
1402.348, 98.726
1403.535, 3.598
1404.721, 46.867
1405.907, 129.167
1407.094, 22.171
1408.280, 99.484
1409.465, 148.022
1410.651, 27.288
1411.836, 62.901
1413.022, 96.055
1414.207, 39.013
1415.392, 161.816
1416.577, 73.987
1417.761, 103.913
1418.945, 99.338
1420.130, 49.522
1421.314, 145.404
1422.498, 114.231
1423.681, 39.962
1424.865, 97.037
1426.048, 63.522
1427.231, 27.541
1428.414, 100.729
1429.597, 38.437
1430.780, 10.121
1431.962, 183.617
1433.144, 28.731
1434.326, 149.834
1435.508, 128.849
1436.690, 9.973
1437.871, 52.273
1439.053, 120.642
1440.234, 27.450
1441.415, 132.208
1442.596, 115.065
1443.776, 95.383
1444.957, 237.458
1446.137, 75.961
1447.317, 140.050
1448.497, 156.221
1449.677, 7.922
1450.857, 113.014
1452.036, 168.188
1453.215, 44.415
1454.394, 176.105
1455.573, 86.855
1456.752, 102.042
1457.930, 200.886
1459.109, 95.052
1460.287, 117.962
1461.465, 297.921
1462.643, 25.087
1463.820, 212.691
1464.998, 168.713
1466.175, 119.759
1467.352, 216.553
1468.529, 124.554
1469.706, 24.537
1470.883, 215.094
1472.059, 75.068
1473.235, 193.052
1474.411, 280.038
1475.587, 78.032
1476.763, 141.012
1477.938, 225.991
1479.114, 129.827
1480.289, 194.795
1481.464, 114.758
1482.639, 89.705
1483.813, 248.253
1484.988, 83.190
1486.162, 177.123
1487.336, 250.055
1488.510, 143.989
1489.684, 144.907
1490.858, 243.832
1492.031, 90.752
1493.204, 205.666
1494.377, 187.592
1495.550, 8.455
1496.723, 211.497
1497.895, 108.450
1499.068, 81.420
1500.240, 180.390
1501.412, 37.357
1502.584, 145.329
1503.755, 272.305
1504.927, 103.296
1506.098, 188.307
1507.269, 214.328
1508.440, 109.363
1509.611, 149.416
1510.782, 194.107
1511.952, 22.167
1513.122, 167.245
1514.292, 182.344
1515.462, 104.471
1516.632, 306.626
1517.802, 106.815
1518.971, 100.119
1520.140, 215.515
1521.309, 42.047
1522.478, 145.804
1523.647, 203.936
1524.815, 0.000
##END=



