##NAMES=Clinozoisite
##RRUFFID=R040085
##IDEAL CHEMISTRY=Ca_2_Al_3_(Si_2_O_7_)(SiO_4_)O(OH)
##LOCALITY=Alamos, Sonora, Mexico
##OWNER=RRUFF
##SOURCE=University of Arizona Mineral Museum
##DESCRIPTION=Divergent aggregate of red thin prismatic crystals
##STATUS=The identification of this mineral has been confirmed by X-ray diffraction and chemical analysis
##URL=rruff.info/R040085
##MEASURED CHEMISTRY=Ca_2.03_(Al_0.90_Fe_0.13_)_3_(Si_1.00_O_4_)(Si_2.00_O_7_)O(OH)
##PIN_ID=S00323
##ORIENTATION=Laser parallel to a* (1 0 0). Fiducial mark perpendicular to laser is parallel to b [0 1 0]
137.024, 0.000
138.417, 91.534
139.810, 106.904
141.203, 93.721
142.596, 187.494
143.988, 285.996
145.380, 57.920
146.771, 302.658
148.163, 209.162
149.554, 177.514
150.945, 227.730
152.336, 208.025
153.726, 30.736
155.117, 234.570
156.507, 138.295
157.896, 251.492
159.286, 444.326
160.675, 296.910
162.064, 393.262
163.453, 591.641
164.842, 482.922
166.230, 524.271
167.618, 576.482
169.006, 742.523
170.393, 650.561
171.781, 670.674
173.168, 615.488
174.555, 405.568
175.941, 445.920
177.328, 476.521
178.714, 297.371
180.100, 248.443
181.485, 269.730
182.871, 161.215
184.256, 22.883
185.641, 114.730
187.025, 43.254
188.410, 21.080
189.794, 111.246
191.178, 103.719
192.562, 106.740
193.945, 169.074
195.328, 41.947
196.711, 44.941
198.094, 1.949
199.476, 68.723
200.859, 84.621
202.241, 11.920
203.623, 118.344
205.004, 65.350
206.385, 9.156
207.766, 63.127
209.147, 82.721
210.528, 161.531
211.908, 145.879
213.288, 150.324
214.668, 174.863
216.048, 159.496
217.427, 134.221
218.806, 139.033
220.185, 130.287
221.564, 198.824
222.942, 123.764
224.320, 88.742
225.698, 63.768
227.076, 318.838
228.453, 303.955
229.830, 339.123
231.207, 434.338
232.584, 459.602
233.960, 694.916
235.337, 590.277
236.713, 545.686
238.088, 761.139
239.464, 826.635
240.839, 582.172
242.214, 777.760
243.589, 1003.395
244.964, 929.061
246.338, 1154.746
247.712, 1220.480
249.086, 1226.266
250.459, 1572.098
251.833, 1637.939
253.206, 1653.799
254.579, 1809.680
255.951, 1935.594
257.324, 1671.539
258.696, 1397.551
260.068, 1553.662
261.439, 1359.912
262.811, 1296.215
264.182, 1252.566
265.553, 1207.129
266.924, 1395.498
268.294, 1282.154
269.665, 1428.855
271.035, 1605.609
272.404, 1342.408
273.774, 1399.252
275.143, 1536.143
276.512, 1513.234
277.881, 1364.777
279.250, 1393.064
280.618, 1260.086
281.986, 1037.160
283.354, 1004.281
284.721, 711.453
286.089, 998.674
287.456, 715.941
288.823, 783.260
290.190, 690.625
291.556, 728.035
292.922, 775.494
294.288, 442.996
295.654, 670.547
297.019, 498.141
298.385, 545.779
299.750, 543.461
301.114, 591.189
302.479, 506.850
303.843, 422.834
305.207, 469.031
306.571, 355.387
307.935, 411.869
309.298, 388.455
310.661, 515.127
312.024, 401.875
313.387, 538.689
314.749, 485.562
316.111, 422.484
317.473, 679.457
318.835, 716.473
320.196, 813.523
321.558, 750.611
322.919, 847.734
324.279, 684.896
325.640, 752.117
327.000, 839.318
328.360, 876.531
329.720, 893.789
331.080, 981.090
332.439, 1038.434
333.798, 1055.756
335.157, 1223.002
336.516, 1330.301
337.874, 1397.582
339.232, 1544.914
340.590, 1682.297
341.948, 1729.725
343.305, 1817.381
344.662, 1914.719
346.019, 1882.295
347.376, 2019.912
348.733, 2007.570
350.089, 2285.273
351.445, 2540.859
352.801, 2447.539
354.156, 2345.367
355.512, 2233.230
356.867, 2021.139
358.222, 1789.082
359.576, 1574.676
360.931, 1105.088
362.285, 1123.000
363.639, 828.232
364.992, 726.365
366.346, 604.125
367.699, 757.193
369.052, 615.432
370.405, 523.703
371.757, 482.008
373.110, 337.141
374.462, 335.512
375.814, 493.914
377.165, 283.406
378.516, 261.871
379.868, 314.070
381.218, 142.596
382.569, 248.455
383.920, 207.041
385.270, 286.123
386.620, 364.766
387.969, 343.438
389.319, 422.139
390.668, 510.896
392.017, 449.654
393.366, 394.342
394.714, 428.625
396.063, 330.191
397.411, 399.059
398.759, 387.951
400.106, 317.287
401.454, 146.299
402.801, 135.338
404.148, 204.426
405.495, 163.541
406.841, 222.723
408.187, 221.934
409.533, 161.766
410.879, 20.521
412.224, 49.854
413.570, 10.758
414.915, 31.348
416.260, 111.914
417.604, 52.461
418.949, 77.012
420.293, 36.588
421.637, 206.188
422.980, 385.842
424.324, 295.584
425.667, 405.348
427.010, 445.137
428.353, 724.949
429.695, 604.789
431.037, 564.650
432.379, 744.531
433.721, 614.434
435.063, 534.359
436.404, 544.303
437.745, 834.270
439.086, 724.256
440.427, 874.240
441.767, 1184.238
443.108, 1044.256
444.448, 1324.295
445.787, 1594.357
447.127, 1624.445
448.466, 1894.555
449.805, 2354.689
451.144, 2414.844
452.482, 2805.016
453.821, 2715.207
455.159, 2645.414
456.497, 2365.639
457.834, 2265.910
459.172, 2116.199
460.509, 1826.504
461.846, 1676.820
463.183, 1507.154
464.519, 1277.561
465.856, 1327.992
467.192, 1088.443
468.527, 1248.916
469.863, 1049.408
471.198, 1209.930
472.534, 1210.469
473.868, 1201.033
475.203, 1238.893
476.538, 1072.568
477.872, 1123.547
479.206, 1054.180
480.540, 1003.131
481.873, 897.021
483.206, 947.711
484.539, 918.432
485.872, 939.287
487.205, 912.664
488.537, 846.205
489.869, 807.193
491.201, 698.008
492.533, 568.842
493.864, 469.691
495.196, 427.943
496.527, 331.426
497.857, 382.348
499.188, 463.279
500.518, 464.225
501.848, 395.188
503.178, 486.162
504.508, 537.148
505.837, 639.775
507.166, 750.809
508.495, 791.855
509.824, 712.912
511.153, 694.008
512.481, 615.121
513.809, 816.250
515.137, 767.639
516.464, 728.801
517.792, 870.014
519.119, 801.195
520.446, 702.383
521.772, 663.607
523.099, 934.812
524.425, 426.039
525.751, 297.367
527.077, 688.609
528.402, 649.881
529.728, 431.158
531.053, 422.441
532.377, 583.830
533.702, 335.139
535.027, 356.455
536.351, 32.227
537.675, 249.088
538.998, 89.596
540.322, 231.695
541.645, 157.010
542.968, 104.223
544.291, 14.543
545.613, 36.693
546.936, 47.928
548.258, 29.588
549.580, 2.340
550.902, 91.652
552.223, 127.102
553.544, 45.908
554.865, 134.730
556.186, 206.391
557.507, 157.516
558.827, 5.357
560.147, 575.764
561.467, 286.881
562.786, 683.592
564.106, 734.709
565.425, 825.986
566.744, 1067.207
568.063, 1729.299
569.381, 2130.785
570.700, 2531.887
572.018, 2419.883
573.335, 2550.883
574.653, 2051.742
575.970, 1902.311
577.288, 1512.266
578.604, 972.088
579.921, 953.156
581.238, 461.285
582.554, 607.691
583.870, 438.736
585.186, 640.725
586.501, 642.193
587.817, 534.469
589.132, 565.648
590.447, 576.998
591.761, 668.281
593.076, 600.113
594.390, 781.342
595.704, 1112.965
597.018, 1014.434
598.331, 1075.791
599.645, 1096.898
600.958, 1428.264
602.271, 1370.318
603.583, 1702.354
604.896, 1424.641
606.208, 1526.611
607.520, 1529.504
608.832, 1630.492
610.143, 1381.908
611.455, 1273.834
612.766, 1194.627
614.077, 1005.654
615.387, 1164.328
616.698, 1015.078
618.008, 826.227
619.318, 577.080
620.628, 542.338
621.937, 410.432
623.247, 391.113
624.556, 392.039
625.865, 182.754
627.173, 273.676
628.482, 326.545
629.790, 167.133
631.098, 298.457
632.405, 149.008
633.713, 49.828
635.020, 50.473
636.327, 201.316
637.634, 22.428
638.941, 223.453
640.247, 264.104
641.553, 258.922
642.859, 40.027
644.165, 250.277
645.471, 181.133
646.776, 74.400
648.081, 194.844
649.386, 225.902
650.691, 176.209
651.995, 146.803
653.299, 174.705
654.603, 223.977
655.907, 254.174
657.210, 244.260
658.514, 355.109
659.817, 305.148
661.120, 585.166
662.422, 40.965
663.725, 650.922
665.027, 200.854
666.329, 270.771
667.630, 466.844
668.932, 506.715
670.233, 586.561
671.534, 119.553
672.835, 199.344
674.136, 169.111
675.436, 458.852
676.737, 298.568
678.036, 178.258
679.336, 337.922
680.636, 447.561
681.935, 167.291
683.234, 376.875
684.533, 326.436
685.832, 425.967
687.130, 495.469
688.428, 174.945
689.726, 514.395
691.024, 483.814
692.322, 213.209
693.619, 621.518
694.916, 280.859
696.213, 376.469
697.510, 295.754
698.806, 577.707
700.102, 256.938
701.398, 445.670
702.694, 354.846
703.990, 473.996
705.285, 563.119
706.580, 352.186
707.875, 261.256
709.170, 254.393
710.464, 471.578
711.758, 214.197
713.052, 593.160
714.346, 197.904
715.640, 270.520
716.933, 379.266
718.226, 32.016
719.519, 526.629
720.812, 104.758
722.105, 183.742
723.397, 117.785
724.689, 120.564
725.981, 278.885
727.272, 52.822
728.564, 205.383
729.855, 143.561
731.146, 11.711
732.437, 379.824
733.727, 242.086
735.017, 645.820
736.308, 56.307
737.597, 188.518
738.887, 289.109
740.176, 66.711
741.466, 114.275
742.755, 51.809
744.043, 179.305
745.332, 136.770
746.620, 150.525
747.908, 71.611
749.196, 158.980
750.484, 86.322
751.771, 103.629
753.059, 121.762
754.346, 178.148
755.633, 115.365
756.919, 92.549
758.206, 31.922
759.492, 40.969
760.778, 53.877
762.063, 20.910
763.349, 187.896
764.634, 94.854
765.919, 51.777
767.204, 428.666
768.489, 165.527
769.773, 77.641
771.057, 359.098
772.341, 125.807
773.625, 192.488
774.909, 319.139
776.192, 144.234
777.475, 222.262
778.758, 158.732
780.041, 205.174
781.323, 151.588
782.605, 7.973
783.887, 274.312
785.169, 70.623
786.451, 306.904
787.732, 153.158
789.013, 189.025
790.294, 134.859
791.575, 81.029
792.856, 85.652
794.136, 161.762
795.416, 32.156
796.696, 73.863
797.976, 324.346
799.255, 80.311
800.534, 13.756
801.813, 161.938
803.092, 47.795
804.371, 183.621
805.649, 109.424
806.927, 345.197
808.205, 79.053
809.483, 186.615
810.760, 332.260
812.037, 47.881
813.315, 583.473
814.591, 309.041
815.868, 65.414
817.144, 378.457
818.421, 313.908
819.697, 512.359
820.972, 72.232
822.248, 213.104
823.523, 438.414
824.798, 26.299
826.073, 408.709
827.348, 213.928
828.623, 279.105
829.897, 534.301
831.171, 209.477
832.445, 554.605
833.718, 269.742
834.992, 164.859
836.265, 699.867
837.538, 204.949
838.811, 520.012
840.083, 265.055
841.356, 600.086
842.628, 544.996
843.900, 379.992
845.171, 614.969
846.443, 849.934
847.714, 424.887
848.985, 679.820
850.256, 494.758
851.527, 649.691
852.797, 1104.645
854.067, 559.582
855.337, 1034.508
856.607, 749.594
857.876, 784.492
859.146, 1179.367
860.415, 1054.234
861.684, 1659.082
862.953, 1084.516
864.221, 1339.375
865.489, 2074.250
866.757, 1649.109
868.025, 1977.953
869.293, 2282.789
870.560, 2127.613
871.828, 2606.832
873.095, 1831.633
874.361, 2606.254
875.628, 2260.949
876.894, 2534.758
878.160, 2319.160
879.426, 2123.930
880.692, 2389.430
881.958, 2526.496
883.223, 2730.926
884.488, 2672.766
885.753, 2807.457
887.018, 2933.387
888.282, 3108.055
889.546, 3263.141
890.810, 3564.934
892.074, 3549.566
893.338, 3883.238
894.601, 3927.414
895.864, 3400.762
897.127, 3705.184
898.390, 3559.422
899.652, 3033.707
900.915, 3277.430
902.177, 2801.730
903.439, 2695.617
904.700, 3249.641
905.962, 2603.758
907.223, 2858.109
908.484, 2712.188
909.745, 2896.105
911.006, 3288.938
912.266, 2782.043
913.526, 3425.445
914.786, 3087.906
916.046, 3062.258
917.306, 2956.160
918.565, 2579.543
919.824, 2864.039
921.083, 2428.285
922.342, 2504.871
923.600, 2059.363
924.859, 2003.441
926.117, 1977.793
927.375, 1972.281
928.632, 1444.797
929.890, 2039.258
931.147, 1363.461
932.404, 1567.859
933.661, 1452.039
934.918, 1264.258
936.174, 1058.742
937.430, 1032.473
938.686, 896.961
939.942, 1061.172
941.198, 775.539
942.453, 959.684
943.708, 703.547
944.963, 627.480
946.218, 721.773
947.472, 731.879
948.727, 455.742
949.981, 1020.309
951.235, 214.305
952.488, 775.875
953.742, 530.258
954.995, 504.012
956.248, 618.500
957.501, 422.688
958.754, 387.305
960.006, 545.035
961.258, 419.578
962.510, 794.223
963.762, 108.086
965.014, 542.754
966.265, 407.426
967.516, 226.305
968.767, 801.332
970.018, 123.949
971.269, 520.770
972.519, 449.316
973.769, 394.062
975.019, 538.820
976.269, 330.430
977.518, 495.223
978.767, 884.070
980.017, 538.895
981.265, 883.902
982.514, 1148.766
983.762, 403.656
985.011, 1589.215
986.259, 704.020
987.507, 788.961
988.754, 944.391
990.002, 519.383
991.249, 795.098
992.496, 670.133
993.743, 395.199
994.989, 831.465
996.236, 66.582
997.482, 771.730
998.728, 236.902
999.974, 242.105
1001.219, 831.750
1002.464, 327.008
1003.710, 272.301
1004.954, 207.621
1006.199, 17.016
1007.444, 338.281
1008.688, 203.605
1009.932, 178.953
1011.176, 534.332
1012.420, 39.879
1013.663, 525.535
1014.906, 261.613
1016.149, 267.055
1017.392, 342.527
1018.635, 357.918
1019.877, 323.320
1021.120, 459.238
1022.362, 494.703
1023.603, 780.160
1024.845, 711.383
1026.086, 786.844
1027.328, 592.590
1028.569, 608.082
1029.809, 652.754
1031.050, 777.719
1032.290, 621.574
1033.530, 984.391
1034.770, 409.070
1036.010, 673.906
1037.250, 848.879
1038.489, 533.934
1039.728, 659.008
1040.967, 1064.098
1042.206, 559.207
1043.444, 894.336
1044.683, 599.488
1045.921, 734.652
1047.159, 839.848
1048.396, 925.082
1049.634, 930.359
1050.871, 795.664
1052.108, 890.988
1053.345, 786.410
1054.582, 431.859
1055.818, 907.383
1057.054, 782.992
1058.290, 18.625
1059.526, 1014.312
1060.762, 340.031
1061.997, 665.773
1063.232, 611.551
1064.467, 237.367
1065.702, 793.262
1066.937, 279.191
1068.171, 345.199
1069.405, 921.238
1070.639, 367.316
1071.873, 543.504
1073.107, 629.734
1074.340, 306.000
1075.573, 1062.375
1076.806, 704.512
1078.039, 560.984
1079.272, 1017.516
1080.504, 434.078
1081.736, 1070.660
1082.968, 697.277
1084.200, 683.926
1085.431, 1200.617
1086.663, 827.336
1087.894, 1464.090
1089.125, 1260.867
1090.355, 1227.684
1091.586, 1704.516
1092.816, 1821.348
1094.046, 1267.914
1095.276, 1534.812
1096.506, 771.754
1097.735, 1297.719
1098.965, 984.707
1100.194, 411.734
1101.423, 798.797
1102.651, 175.898
1103.880, 612.949
1105.108, 910.035
1106.336, 587.184
1107.564, 744.430
1108.792, 531.770
1110.019, 309.188
1111.246, 746.688
1112.473, 494.258
1113.700, 241.914
1114.927, 859.656
1116.153, 27.488
1117.380, 475.402
1118.606, 653.406
1119.831, 151.473
1121.057, 479.656
1122.283, 537.930
1123.508, 466.293
1124.733, 714.758
1125.958, 86.688
1127.182, 861.961
1128.407, 100.707
1129.631, 609.664
1130.855, 468.719
1132.079, 7.879
1133.302, 497.156
1134.526, 646.547
1135.749, 56.059
1136.972, 905.695
1138.195, 25.484
1139.417, 535.438
1140.640, 775.562
1141.862, 4.148
1143.084, 936.320
1144.305, 336.988
1145.527, 647.859
1146.748, 868.938
1147.970, 49.762
1149.191, 500.254
1150.411, 721.965
1151.632, 433.930
1152.852, 796.160
1154.072, 356.250
1155.292, 517.027
1156.512, 814.879
1157.732, 486.746
1158.951, 175.660
1160.170, 912.625
1161.389, 135.375
1162.608, 766.664
1163.826, 387.887
1165.045, 286.805
1166.263, 614.023
1167.481, 171.203
1168.699, 488.699
1169.916, 949.801
1171.134, 25.289
1172.351, 877.230
1173.568, 274.445
1174.784, 397.812
1176.001, 446.113
1177.217, 53.062
1178.433, 120.555
1179.649, 0.000
##END=



