##NAMES=Clinohumite
##RRUFFID=R040122
##IDEAL CHEMISTRY=Mg_9_(SiO_4_)_4_F_2_
##LOCALITY=Anzahamazonono,  Madagascar
##OWNER=RRUFF
##SOURCE=University of Arizona Mineral Museum
##DESCRIPTION=Orange-brown blebs embedded in calcite matrix
##STATUS=The identification of this mineral has been confirmed by X-ray diffraction and chemical analysis
##URL=rruff.info/R040122
##MEASURED CHEMISTRY=(Mg_0.96_Fe_0.02_Ti_0.01_Ca_0.01_)_9_(SiO_4_)_4_(F_0.59_(OH)_0.41_)_2_
##PIN_ID=M00157
##ORIENTATION=Laser parallel to (0 1 1). Fiducial mark perpendicular to laser is parallel to a [1 0 0]
54.966, 0.000
56.365, 129.552
57.765, 153.101
59.164, 398.345
60.563, 465.784
61.962, 590.328
63.360, 665.694
64.758, 607.568
66.157, 477.973
67.554, 353.575
68.952, 320.513
70.349, 315.469
71.747, 220.609
73.144, 241.292
74.540, 272.818
75.937, 259.792
77.333, 60.801
78.729, 5.829
80.125, 11.149
81.521, 10.989
82.916, 98.320
84.311, 83.870
85.706, 113.435
87.101, 185.674
88.496, 60.382
89.890, 159.521
91.284, 301.915
92.678, 436.022
94.071, 387.550
95.465, 483.367
96.858, 344.928
98.251, 268.048
99.644, 341.695
101.036, 252.137
102.428, 215.825
103.820, 187.102
105.212, 166.599
106.604, 273.038
107.995, 293.239
109.387, 292.160
110.777, 121.173
112.168, 155.271
113.559, 115.449
114.949, 179.701
116.339, 315.012
117.729, 382.368
119.119, 225.767
120.508, 141.205
121.897, 37.682
123.286, 102.199
124.675, 12.757
126.063, 24.357
127.452, 71.999
128.840, 58.309
130.228, 68.568
131.615, 62.765
133.003, 70.896
134.390, 89.945
135.777, 15.922
137.164, 11.843
138.550, 7.333
139.937, 82.699
141.323, 42.253
142.709, 19.973
144.094, 33.838
145.480, 27.171
146.865, 9.926
148.250, 20.118
149.635, 61.388
151.019, 52.705
152.403, 17.036
153.788, 17.408
155.171, 75.820
156.555, 110.265
157.939, 0.261
159.322, 129.229
160.705, 147.722
162.088, 162.214
163.470, 259.696
164.853, 272.179
166.235, 286.665
167.617, 265.141
168.998, 306.622
170.380, 283.121
171.761, 329.619
173.142, 340.096
174.523, 439.506
175.904, 489.778
177.284, 590.928
178.664, 680.955
180.044, 758.953
181.424, 863.833
182.803, 1022.007
184.183, 1067.038
185.562, 1093.094
186.940, 1201.182
188.319, 1013.300
189.698, 880.453
191.076, 912.645
192.454, 921.881
193.831, 996.164
195.209, 1173.494
196.586, 1229.874
197.963, 1283.304
199.340, 1505.787
200.717, 1479.324
202.093, 1605.918
203.470, 1588.571
204.846, 1534.505
206.221, 1484.717
207.597, 1379.672
208.972, 1360.517
210.347, 1134.602
211.722, 928.470
213.097, 794.565
214.472, 657.641
215.846, 660.861
217.220, 597.150
218.594, 663.508
219.967, 774.934
221.341, 780.821
222.714, 875.744
224.087, 975.581
225.460, 1058.279
226.832, 1246.820
228.204, 1358.168
229.577, 1409.326
230.948, 1457.313
232.320, 1573.113
233.692, 1609.630
235.063, 1605.873
236.434, 1619.961
237.805, 1626.910
239.175, 1583.746
240.545, 1517.460
241.916, 1572.039
243.286, 1382.066
244.655, 1367.391
246.025, 1372.347
247.394, 1313.005
248.763, 1324.548
250.132, 1277.864
251.501, 1287.289
252.869, 1282.556
254.237, 1304.760
255.605, 1295.038
256.973, 1294.421
258.340, 1321.535
259.708, 1203.404
261.075, 1204.085
262.442, 1072.457
263.808, 955.543
265.175, 917.963
266.541, 872.958
267.907, 858.778
269.273, 769.432
270.639, 703.991
272.004, 617.258
273.369, 600.375
274.734, 639.150
276.099, 591.584
277.463, 585.476
278.828, 611.368
280.192, 758.314
281.556, 702.200
282.919, 795.149
284.283, 834.783
285.646, 849.070
287.009, 785.858
288.372, 757.985
289.734, 844.065
291.097, 725.859
292.459, 692.067
293.821, 739.380
295.183, 633.684
296.544, 605.367
297.905, 489.341
299.266, 477.289
300.627, 526.050
301.988, 569.231
303.348, 653.750
304.709, 792.652
306.069, 890.294
307.428, 1037.747
308.788, 1152.459
310.147, 1283.959
311.507, 1337.166
312.865, 1573.965
314.224, 1703.128
315.583, 1883.302
316.941, 2210.270
318.299, 2362.306
319.657, 2515.717
321.015, 2597.319
322.372, 2441.265
323.729, 2231.044
325.086, 2021.955
326.443, 1668.915
327.800, 1440.917
329.156, 1318.971
330.512, 963.079
331.868, 951.246
333.224, 841.494
334.579, 710.815
335.935, 555.211
337.290, 581.697
338.645, 486.252
339.999, 334.900
341.354, 352.620
342.708, 207.435
344.062, 142.340
345.416, 129.332
346.769, 127.415
348.123, 21.596
349.476, 29.867
350.829, 16.231
352.182, 19.310
353.534, 2.245
354.887, 32.103
356.239, 21.643
357.591, 36.468
358.942, 5.616
360.294, 7.375
361.645, 5.571
362.996, 62.454
364.347, 14.720
365.698, 53.035
367.048, 14.272
368.398, 3.648
369.748, 56.912
371.098, 56.583
372.448, 79.135
373.797, 78.719
375.146, 128.327
376.495, 199.957
377.844, 170.294
379.192, 215.282
380.540, 156.979
381.889, 132.696
383.236, 160.432
384.584, 131.168
385.932, 189.903
387.279, 228.638
388.626, 288.371
389.973, 369.104
391.319, 398.838
392.666, 547.573
394.012, 469.310
395.358, 447.047
396.704, 423.789
398.049, 271.535
399.394, 292.286
400.740, 126.041
402.084, 113.802
403.429, 17.568
404.774, 32.341
406.118, 15.878
407.462, 122.912
408.806, 104.714
410.150, 135.535
411.493, 245.365
412.836, 277.205
414.179, 310.056
415.522, 279.914
416.865, 347.785
418.207, 368.665
419.549, 392.555
420.891, 400.454
422.233, 365.364
423.575, 344.287
424.916, 314.221
426.257, 435.170
427.598, 465.130
428.939, 462.105
430.279, 556.093
431.619, 512.097
432.959, 580.116
434.299, 595.146
435.639, 741.188
436.978, 713.240
438.318, 828.307
439.657, 875.600
440.996, 902.479
442.334, 938.584
443.673, 828.696
445.011, 759.816
446.349, 677.944
447.687, 429.082
449.024, 335.236
450.361, 184.401
451.699, 55.585
453.036, 4.784
454.372, 3.978
455.709, 31.190
457.045, 23.405
458.381, 12.926
459.717, 43.292
461.053, 86.699
462.388, 115.850
463.724, 147.566
465.059, 176.019
466.394, 205.477
467.728, 227.940
469.063, 242.410
470.397, 246.885
471.731, 187.376
473.065, 257.873
474.398, 192.375
475.732, 258.878
477.065, 179.383
478.398, 141.892
479.731, 210.402
481.063, 283.269
482.396, 151.034
483.728, 207.246
485.060, 257.468
486.391, 218.061
487.723, 305.372
489.054, 258.965
490.385, 256.254
491.716, 320.367
493.047, 249.953
494.377, 301.736
495.708, 327.667
497.038, 363.515
498.368, 391.248
499.697, 340.353
501.027, 408.351
502.356, 517.605
503.685, 473.219
505.014, 489.634
506.342, 522.178
507.671, 507.658
508.999, 492.286
510.327, 527.735
511.655, 606.016
512.982, 639.938
514.310, 575.891
515.637, 668.497
516.964, 672.271
518.291, 621.167
519.617, 770.164
520.944, 762.451
522.270, 758.614
523.596, 912.906
524.921, 879.952
526.247, 1074.453
527.572, 1080.518
528.897, 1237.006
530.222, 1345.761
531.547, 1368.123
532.871, 1545.929
534.196, 1510.554
535.520, 1551.583
536.844, 1640.131
538.167, 1605.835
539.491, 1610.071
540.814, 1541.692
542.137, 1451.270
543.460, 1434.128
544.783, 1341.629
546.105, 1297.025
547.427, 1190.518
548.749, 1178.906
550.071, 1101.254
551.393, 1007.565
552.714, 1014.838
554.035, 870.072
555.356, 798.268
556.677, 802.426
557.998, 714.544
559.318, 782.624
560.638, 772.666
561.958, 751.668
563.278, 708.632
564.597, 844.556
565.917, 811.251
567.236, 850.097
568.555, 869.904
569.874, 911.083
571.192, 873.399
572.511, 1021.087
573.829, 1022.736
575.147, 1058.345
576.464, 1249.914
577.782, 1243.443
579.099, 1358.933
580.416, 1506.381
581.733, 1709.791
583.050, 1937.159
584.366, 2139.488
585.683, 2313.114
586.999, 2535.022
588.315, 2607.230
589.630, 2858.397
590.946, 2933.523
592.261, 3013.608
593.576, 3151.654
594.891, 3347.658
596.206, 3741.621
597.520, 4445.543
598.834, 5058.424
600.148, 5916.266
601.462, 6796.065
602.776, 8078.822
604.089, 9216.540
605.402, 10332.217
606.715, 11156.852
608.028, 11690.445
609.341, 11199.999
610.653, 10459.511
611.965, 9819.976
613.277, 8007.332
614.589, 6609.190
615.901, 5235.168
617.212, 4426.476
618.523, 3535.740
619.834, 2894.965
621.145, 2384.148
622.456, 2075.291
623.766, 1703.392
625.076, 1480.453
626.386, 1233.472
627.696, 1083.451
629.006, 847.390
630.315, 846.288
631.624, 586.146
632.933, 566.964
634.242, 485.742
635.551, 372.479
636.859, 375.177
638.167, 173.834
639.475, 197.449
640.783, 119.021
642.090, 74.545
643.398, 63.011
644.705, 44.414
646.012, 1.749
647.318, 10.005
648.625, 23.854
649.931, 111.806
651.237, 83.904
652.543, 87.135
653.849, 150.500
655.155, 70.030
656.460, 156.684
657.765, 76.506
659.070, 161.452
660.375, 152.567
661.679, 134.846
662.984, 154.278
664.288, 179.873
665.592, 149.642
666.895, 173.570
668.199, 172.668
669.502, 187.934
670.805, 187.374
672.108, 189.899
673.411, 124.773
674.713, 176.699
676.016, 117.788
677.318, 76.010
678.620, 77.341
679.921, 80.780
681.223, 111.323
682.524, 101.989
683.825, 116.769
685.126, 110.338
686.427, 83.532
687.727, 81.812
689.028, 12.032
690.328, 23.687
691.628, 76.363
692.927, 17.011
694.227, 126.617
695.526, 17.195
696.825, 118.736
698.124, 115.251
699.423, 33.741
700.721, 110.203
702.020, 184.641
703.318, 168.056
704.616, 268.447
705.913, 301.817
707.211, 356.165
708.508, 407.491
709.805, 467.797
711.102, 436.082
712.399, 615.348
713.695, 523.594
714.992, 702.822
716.288, 712.030
717.584, 897.222
718.879, 966.396
720.175, 1011.554
721.470, 1212.694
722.765, 1474.821
724.060, 1557.932
725.355, 1709.027
726.649, 1940.109
727.944, 2125.177
729.238, 2529.231
730.532, 2599.273
731.825, 3209.303
733.119, 3586.321
734.412, 3874.327
735.705, 4289.322
736.998, 4795.307
738.291, 5080.282
739.584, 5629.249
740.876, 6136.206
742.168, 6546.154
743.460, 6914.095
744.752, 7309.027
746.043, 7531.954
747.334, 7968.874
748.626, 8027.789
749.916, 8190.695
751.207, 8318.601
752.498, 8266.500
753.788, 8410.396
755.078, 8221.286
756.368, 7985.175
757.658, 7662.062
758.947, 7236.948
760.237, 6947.833
761.526, 6301.720
762.815, 5990.610
764.104, 5486.509
765.392, 5165.421
766.680, 4904.340
767.969, 4762.287
769.257, 4761.802
770.544, 4801.198
771.832, 5112.194
773.119, 5399.198
774.406, 5927.222
775.693, 6703.256
776.980, 7230.309
778.267, 8458.397
779.553, 9478.523
780.839, 10593.684
782.125, 11612.860
783.411, 12674.061
784.697, 12875.273
785.982, 12871.503
787.267, 12402.750
788.552, 11656.014
789.837, 10612.294
791.122, 10192.585
792.406, 9408.886
793.690, 8865.839
794.974, 8422.907
796.258, 8068.541
797.542, 8089.172
798.825, 8089.449
800.108, 8474.014
801.391, 8681.312
802.674, 9646.931
803.957, 10751.754
805.239, 11644.127
806.522, 12800.320
807.804, 13029.392
809.085, 13895.576
810.367, 13788.909
811.649, 13467.902
812.930, 13499.033
814.211, 13513.948
815.492, 13558.532
816.772, 14146.324
818.053, 14689.002
819.333, 15798.205
820.613, 16732.418
821.893, 19167.258
823.173, 21341.271
824.452, 25491.461
825.732, 31285.818
827.011, 36718.164
828.290, 42086.730
829.568, 46097.207
830.847, 46985.531
832.125, 45441.664
833.403, 41655.887
834.681, 36587.074
835.959, 33128.531
837.236, 31226.771
838.514, 30606.279
839.791, 31463.383
841.068, 33704.391
842.345, 36209.715
843.621, 40327.621
844.898, 42391.781
846.174, 43087.559
847.450, 43239.863
848.726, 40273.031
850.001, 37624.680
851.277, 35247.961
852.552, 33974.320
853.827, 34322.406
855.102, 36047.879
856.376, 39116.398
857.651, 44590.980
858.925, 49124.633
860.199, 50940.340
861.473, 49481.133
862.746, 46116.984
864.020, 40743.895
865.293, 34167.844
866.566, 29645.883
867.839, 25266.984
869.112, 21872.143
870.384, 19459.373
871.656, 17605.662
872.928, 16265.002
874.200, 15721.413
875.472, 15374.883
876.744, 15130.413
878.015, 14832.013
879.286, 13910.674
880.557, 12874.401
881.828, 11386.192
883.098, 9767.047
884.369, 8528.963
885.639, 7476.941
886.909, 6525.979
888.178, 5673.083
889.448, 5077.248
890.717, 4798.474
891.987, 4190.764
893.256, 3734.114
894.524, 3462.527
895.793, 3142.002
897.061, 2953.538
898.330, 2819.134
899.598, 2616.583
900.865, 2503.508
902.133, 2347.286
903.401, 2163.125
904.668, 2049.024
905.935, 2028.984
907.202, 1902.002
908.468, 1896.080
909.735, 1801.349
911.001, 1770.550
912.267, 1641.138
913.533, 1683.658
914.799, 1726.326
916.064, 1581.176
917.330, 1777.784
918.595, 1742.480
919.860, 1782.982
921.124, 1715.000
922.389, 1854.060
923.653, 1994.953
924.918, 1961.305
926.182, 2330.050
927.445, 2616.307
928.709, 3146.169
929.972, 3737.010
931.236, 4183.042
932.499, 4029.273
933.761, 3643.615
935.024, 2651.118
936.286, 2244.616
937.549, 1823.599
938.811, 1350.798
940.073, 1303.514
941.334, 1104.685
942.596, 930.275
943.857, 960.917
945.118, 886.610
946.379, 909.357
947.640, 899.157
948.900, 1022.012
950.161, 1043.928
951.421, 1013.907
952.681, 1213.583
953.940, 1362.799
955.200, 1520.357
956.459, 1820.431
957.719, 2316.903
958.978, 2782.498
960.236, 3606.011
961.495, 4661.430
962.753, 6239.813
964.012, 8272.937
965.270, 10442.461
966.527, 12877.278
967.785, 14037.581
969.043, 14341.009
970.300, 12976.353
971.557, 11159.998
972.814, 9352.738
974.071, 7705.491
975.327, 6384.354
976.583, 5255.333
977.840, 4594.423
979.095, 3732.767
980.351, 3038.317
981.607, 2658.050
982.862, 2147.027
984.117, 1855.662
985.372, 1731.478
986.627, 1351.007
987.882, 1360.296
989.136, 1146.933
990.390, 977.941
991.644, 1053.463
992.898, 951.206
994.152, 873.327
995.405, 866.372
996.659, 852.622
997.912, 879.842
999.165, 844.587
1000.417, 858.754
1001.670, 827.950
1002.922, 849.506
1004.174, 785.431
1005.426, 734.439
1006.678, 755.594
1007.930, 765.724
1009.181, 772.929
1010.432, 773.471
1011.683, 768.687
1012.934, 747.621
1014.185, 745.411
1015.435, 706.624
1016.685, 698.754
1017.935, 659.397
1019.185, 623.961
1020.435, 592.261
1021.684, 515.525
1022.934, 507.055
1024.183, 559.391
1025.432, 553.830
1026.680, 614.433
1027.929, 556.534
1029.177, 625.406
1030.425, 633.760
1031.673, 660.459
1032.921, 604.880
1034.169, 548.776
1035.416, 591.585
1036.663, 585.621
1037.911, 459.670
1039.157, 367.588
1040.404, 466.639
1041.650, 360.448
1042.897, 461.442
1044.143, 410.673
1045.389, 386.205
1046.634, 335.104
1047.880, 339.980
1049.125, 295.827
1050.371, 204.960
1051.615, 279.028
1052.860, 160.925
1054.105, 217.918
1055.349, 131.653
1056.593, 48.129
1057.837, 25.979
1059.081, 9.443
1060.325, 52.321
1061.568, 22.969
1062.812, 14.562
1064.055, 19.827
1065.298, 92.294
1066.540, 83.020
1067.783, 53.539
1069.025, 122.176
1070.267, 20.968
1071.509, 166.527
1072.751, 76.384
1073.993, 59.265
1075.234, 91.162
1076.475, 51.089
1077.716, 88.033
1078.957, 160.009
1080.198, 160.053
1081.438, 143.189
1082.679, 65.333
1083.919, 66.528
1085.159, 63.752
1086.398, 49.005
1087.638, 51.627
1088.877, 37.476
1090.116, 45.893
1091.355, 15.766
1092.594, 25.416
1093.833, 116.059
1095.071, 14.696
1096.309, 14.324
1097.547, 114.940
1098.785, 48.545
1100.023, 24.145
1101.260, 31.267
1102.498, 5.299
1103.735, 75.151
1104.972, 28.653
1106.208, 32.184
1107.445, 30.752
1108.681, 75.354
1109.918, 69.859
1111.154, 49.721
1112.389, 73.480
1113.625, 76.306
1114.860, 45.204
1116.096, 33.841
1117.331, 33.866
1118.566, 58.125
1119.800, 46.816
1121.035, 7.737
1122.269, 86.620
1123.503, 261.476
1124.737, 166.310
1125.971, 179.116
1127.205, 70.896
1128.438, 49.644
1129.671, 1.364
1130.904, 30.970
1132.137, 6.375
1133.370, 10.159
1134.602, 1.641
1135.834, 70.936
1137.066, 6.391
1138.298, 12.344
1139.530, 81.149
1140.762, 2.064
1141.993, 37.050
1143.224, 81.125
1144.455, 18.314
1145.686, 31.586
1146.917, 96.051
1148.147, 43.646
1149.377, 64.183
1150.607, 51.668
1151.837, 102.095
1153.067, 61.486
1154.296, 95.822
1155.526, 102.110
1156.755, 3.353
1157.984, 42.510
1159.213, 27.599
1160.441, 70.612
1161.670, 92.568
1162.898, 130.467
1164.126, 12.316
1165.354, 95.143
1166.581, 44.133
1167.809, 91.034
1169.036, 95.409
1170.263, 133.552
1171.490, 99.001
1172.717, 98.474
1173.943, 95.795
1175.170, 82.882
1176.396, 92.310
1177.622, 80.438
1178.848, 103.729
1180.073, 117.099
1181.299, 146.011
1182.524, 107.861
1183.749, 144.645
1184.974, 104.712
1186.199, 158.729
1187.423, 153.885
1188.648, 120.986
1189.872, 163.983
1191.096, 152.780
1192.320, 140.545
1193.543, 182.002
1194.767, 188.446
1195.990, 195.826
1197.213, 173.026
1198.436, 181.382
1199.659, 200.844
1200.881, 193.350
1202.104, 235.532
1203.326, 301.831
1204.548, 219.729
1205.770, 162.763
1206.991, 252.595
1208.213, 260.475
1209.434, 334.682
1210.655, 257.886
1211.876, 308.760
1213.096, 382.917
1214.317, 311.662
1215.537, 338.251
1216.757, 367.824
1217.977, 310.121
1219.197, 374.013
1220.417, 403.183
1221.636, 456.667
1222.855, 432.077
1224.074, 441.760
1225.293, 433.122
1226.512, 490.024
1227.731, 564.530
1228.949, 562.372
1230.167, 582.625
1231.385, 599.632
1232.603, 534.573
1233.820, 530.280
1235.038, 448.888
1236.255, 461.482
1237.472, 486.208
1238.689, 470.024
1239.906, 559.061
1241.122, 563.480
1242.338, 548.408
1243.555, 686.736
1244.771, 584.797
1245.986, 640.043
1247.202, 575.389
1248.417, 638.034
1249.633, 650.253
1250.848, 567.824
1252.063, 670.406
1253.277, 690.312
1254.492, 534.328
1255.706, 603.352
1256.920, 512.913
1258.134, 644.581
1259.348, 529.370
1260.562, 615.281
1261.775, 635.115
1262.988, 566.038
1264.201, 594.153
1265.414, 606.310
1266.627, 631.470
1267.839, 590.448
1269.052, 554.749
1270.264, 556.877
1271.476, 591.945
1272.688, 521.353
1273.899, 542.058
1275.111, 524.711
1276.322, 588.048
1277.533, 637.695
1278.744, 524.459
1279.955, 529.594
1281.165, 675.820
1282.376, 590.442
1283.586, 580.538
1284.796, 573.164
1286.006, 675.118
1287.215, 591.696
1288.425, 642.101
1289.634, 532.779
1290.843, 544.949
1292.052, 521.148
1293.261, 517.868
1294.469, 574.906
1295.678, 577.253
1296.886, 509.995
1298.094, 573.716
1299.302, 522.905
1300.509, 420.881
1301.717, 469.539
1302.924, 438.205
1304.131, 430.511
1305.338, 440.499
1306.545, 392.178
1307.752, 429.105
1308.958, 341.506
1310.164, 298.515
1311.370, 244.864
1312.576, 245.803
1313.782, 244.333
1314.987, 268.383
1316.193, 309.260
1317.398, 288.028
1318.603, 326.631
1319.807, 289.131
1321.012, 307.918
1322.216, 300.994
1323.421, 242.593
1324.625, 206.620
1325.829, 374.856
1327.032, 308.567
1328.236, 345.643
1329.439, 213.653
1330.642, 207.023
1331.845, 163.462
1333.048, 150.019
1334.251, 161.566
1335.453, 193.368
1336.656, 184.241
1337.858, 239.878
1339.060, 226.922
1340.261, 226.179
1341.463, 252.861
1342.664, 198.517
1343.866, 156.074
1345.067, 131.818
1346.267, 189.301
1347.468, 144.975
1348.669, 224.838
1349.869, 175.253
1351.069, 173.918
1352.269, 176.307
1353.469, 241.642
1354.668, 256.202
1355.868, 92.358
1357.067, 182.624
1358.266, 111.060
1359.465, 117.201
1360.664, 157.392
1361.862, 109.626
1363.061, 180.547
1364.259, 150.661
1365.457, 53.709
1366.655, 121.690
1367.852, 169.607
1369.050, 107.461
1370.247, 209.254
1371.444, 68.011
1372.641, 30.729
1373.838, 123.401
1375.035, 124.021
1376.231, 68.588
1377.427, 47.104
1378.623, 38.569
1379.819, 39.131
1381.015, 61.559
1382.211, 61.875
1383.406, 40.003
1384.601, 17.403
1385.796, 38.701
1386.991, 86.896
1388.185, 118.984
1389.380, 9.006
1390.574, 62.944
1391.768, 12.156
1392.962, 54.689
1394.156, 13.538
1395.350, 1.644
1396.543, 68.087
1397.736, 0.255
1398.929, 57.312
1400.122, 69.220
1401.315, 154.151
1402.507, 36.477
1403.700, 87.772
1404.892, 68.051
1406.084, 23.323
1407.276, 12.363
1408.467, 12.993
1409.659, 2.396
1410.850, 88.768
1412.041, 55.100
1413.232, 0.354
1414.423, 68.547
1415.614, 29.735
1416.804, 80.920
1417.994, 0.939
1419.184, 91.729
1420.374, 32.117
1421.564, 54.975
1422.753, 12.924
1423.943, 25.883
1425.132, 17.580
1426.321, 31.348
1427.510, 41.117
1428.698, 62.102
1429.887, 83.415
1431.075, 58.585
1432.263, 35.977
1433.451, 68.158
1434.639, 65.333
1435.827, 57.423
1437.014, 81.827
1438.201, 157.668
1439.388, 160.195
1440.575, 26.239
1441.762, 73.541
1442.949, 80.072
1444.135, 10.932
1445.321, 128.360
1446.507, 201.948
1447.693, 114.904
1448.879, 42.538
1450.064, 129.434
1451.250, 145.433
1452.435, 244.295
1453.620, 210.307
1454.805, 237.752
1455.989, 140.342
1457.174, 157.291
1458.358, 116.981
1459.542, 177.865
1460.726, 183.535
1461.910, 132.979
1463.093, 218.218
1464.277, 121.073
1465.460, 106.861
1466.643, 146.474
1467.826, 140.299
1469.009, 192.093
1470.191, 45.953
1471.373, 13.318
1472.556, 132.913
1473.738, 214.186
1474.919, 87.418
1476.101, 148.662
1477.283, 130.309
1478.464, 100.572
1479.645, 65.501
1480.826, 113.568
1482.007, 136.268
1483.187, 121.352
1484.368, 65.825
1485.548, 99.232
1486.728, 58.155
1487.908, 133.092
1489.088, 152.706
1490.268, 251.754
1491.447, 115.453
1492.626, 38.999
1493.805, 103.990
1494.984, 205.199
1496.163, 176.897
1497.341, 84.318
1498.520, 261.810
1499.698, 72.776
1500.876, 196.095
1502.054, 31.858
1503.232, 229.687
1504.409, 125.534
1505.586, 130.090
1506.763, 228.661
1507.940, 66.835
1509.117, 158.234
1510.294, 134.385
1511.470, 133.538
1512.647, 155.219
1513.823, 217.674
1514.999, 137.689
1516.174, 126.020
1517.350, 90.736
1518.526, 157.982
1519.701, 21.860
1520.876, 2.438
1522.051, 85.353
1523.226, 0.885
1524.400, 0.000
##END=



