##NAMES=Clinozoisite
##RRUFFID=R040085
##IDEAL CHEMISTRY=Ca_2_Al_3_(Si_2_O_7_)(SiO_4_)O(OH)
##LOCALITY=Alamos, Sonora, Mexico
##OWNER=RRUFF
##SOURCE=University of Arizona Mineral Museum
##DESCRIPTION=Divergent aggregate of red thin prismatic crystals
##STATUS=The identification of this mineral has been confirmed by X-ray diffraction and chemical analysis
##URL=rruff.info/R040085
##MEASURED CHEMISTRY=Ca_2.03_(Al_0.90_Fe_0.13_)_3_(Si_1.00_O_4_)(Si_2.00_O_7_)O(OH)
##PIN_ID=S00323
##ORIENTATION=Laser parallel to a* (1 0 0). Fiducial mark perpendicular to laser is parallel to b [0 1 0]
137.024, 0.000
138.417, 151.881
139.810, 5.096
141.203, 8.459
142.596, 9.961
143.988, 97.537
145.380, 69.922
146.771, 236.188
148.163, 185.664
149.554, 257.852
150.945, 232.424
152.336, 339.043
153.726, 237.393
155.117, 377.285
156.507, 278.568
157.896, 301.109
159.286, 384.787
160.675, 239.496
162.064, 405.139
163.453, 561.627
164.842, 510.051
166.230, 527.977
167.618, 566.562
169.006, 795.793
170.393, 925.643
171.781, 836.066
173.168, 987.049
174.555, 778.551
175.941, 970.541
177.328, 842.982
178.714, 565.846
180.100, 529.098
181.485, 582.703
182.871, 336.631
184.256, 300.854
185.641, 205.363
187.025, 400.133
188.410, 325.158
189.794, 270.422
191.178, 165.916
192.562, 28.367
193.945, 287.562
195.328, 303.697
196.711, 300.033
198.094, 136.564
199.476, 273.627
200.859, 441.102
202.241, 298.730
203.623, 186.514
205.004, 574.447
206.385, 562.686
207.766, 441.271
209.147, 519.979
210.528, 718.809
211.908, 647.756
213.288, 636.824
214.668, 586.012
216.048, 601.865
217.427, 854.734
218.806, 744.268
220.185, 633.883
221.564, 893.459
222.942, 763.014
224.320, 672.568
225.698, 582.146
227.076, 801.750
228.453, 881.391
229.830, 1251.078
231.207, 1550.814
232.584, 1530.607
233.960, 1890.461
235.337, 1760.375
236.713, 1830.354
238.088, 1650.400
239.464, 1520.521
240.839, 1360.709
242.214, 1280.971
243.589, 1401.305
244.964, 1081.715
246.338, 1272.197
247.712, 1062.756
249.086, 1183.389
250.459, 1004.098
251.833, 1084.881
253.206, 985.742
254.579, 996.680
255.951, 877.709
257.324, 698.814
258.696, 680.098
260.068, 583.922
261.439, 632.389
262.811, 518.658
264.182, 620.164
265.553, 661.762
266.924, 573.432
268.294, 695.174
269.665, 746.982
271.035, 828.861
272.404, 970.811
273.774, 1094.506
275.143, 1207.738
276.512, 1054.170
277.881, 986.223
279.250, 798.350
280.618, 770.545
281.986, 732.812
283.354, 615.148
284.721, 367.553
286.089, 560.031
287.456, 362.578
288.823, 485.195
290.190, 457.879
291.556, 560.629
292.922, 553.443
294.288, 346.324
295.654, 359.273
297.019, 462.283
298.385, 535.361
299.750, 388.504
301.114, 311.711
302.479, 531.262
303.843, 670.371
305.207, 349.045
306.571, 198.803
307.935, 318.820
309.298, 419.072
310.661, 509.531
312.024, 510.184
313.387, 611.012
314.749, 382.006
316.111, 543.154
317.473, 384.445
318.835, 615.871
320.196, 447.426
321.558, 479.104
322.919, 560.898
324.279, 282.805
325.640, 434.832
327.000, 346.963
328.360, 589.188
329.720, 501.506
331.080, 553.916
332.439, 726.414
333.798, 709.000
335.157, 1021.668
336.516, 1124.418
337.874, 1207.250
339.232, 1410.154
340.590, 1393.135
341.948, 1696.188
343.305, 1529.311
344.662, 1762.500
346.019, 1815.758
347.376, 2399.082
348.733, 2472.469
350.089, 2905.922
351.445, 3159.434
352.801, 3033.010
354.156, 2946.645
355.512, 2840.338
356.867, 2573.893
358.222, 2057.707
359.576, 1601.576
360.931, 1345.504
362.285, 1008.965
363.639, 853.518
364.992, 597.602
366.346, 571.734
367.699, 475.914
369.052, 510.145
370.405, 294.424
371.757, 350.100
373.110, 204.469
374.462, 278.885
375.814, 33.342
377.165, 66.617
378.516, 11.162
379.868, 97.281
381.218, 132.664
382.569, 133.674
383.920, 131.549
385.270, 100.535
386.620, 35.822
387.969, 38.928
389.319, 107.801
390.668, 156.861
392.017, 167.502
393.366, 248.125
394.714, 277.881
396.063, 322.871
397.411, 287.902
398.759, 372.975
400.106, 538.100
401.454, 273.260
402.801, 78.465
404.148, 173.779
405.495, 49.135
406.841, 124.529
408.187, 50.041
409.533, 124.545
410.879, 149.035
412.224, 93.508
413.570, 27.914
414.915, 27.711
416.260, 143.371
417.604, 140.609
418.949, 224.844
420.293, 240.721
421.637, 356.629
422.980, 592.535
424.324, 768.490
425.667, 964.457
427.010, 1050.480
428.353, 1137.449
429.695, 1212.703
431.037, 1188.865
432.379, 1205.062
433.721, 1171.307
435.063, 1260.799
436.404, 1033.918
437.745, 1350.221
439.086, 1336.535
440.427, 1162.877
441.767, 1719.250
443.108, 1735.654
444.448, 2012.088
445.787, 2208.555
447.127, 2245.051
448.466, 2491.578
449.805, 2808.148
451.144, 2704.764
452.482, 3251.406
453.821, 2948.131
455.159, 3034.885
456.497, 2501.672
457.834, 2448.510
459.172, 2435.375
460.509, 2262.293
461.846, 1869.236
463.183, 1996.205
464.519, 1713.225
465.856, 1860.289
467.192, 1397.420
468.527, 1804.598
469.863, 1751.814
471.198, 1609.129
472.534, 1726.482
473.868, 1463.871
475.203, 1463.336
476.538, 1268.758
477.872, 1316.252
479.206, 1233.779
480.540, 1141.367
481.873, 938.990
483.206, 1026.645
484.539, 1044.342
485.872, 574.934
487.205, 1062.688
488.537, 710.475
489.869, 568.322
491.201, 776.199
492.533, 374.102
493.864, 512.033
495.196, 749.988
496.527, 367.971
497.857, 545.982
499.188, 574.020
500.518, 612.080
501.848, 681.164
503.178, 618.273
504.508, 756.402
505.837, 894.557
507.166, 982.736
508.495, 920.938
509.824, 1059.158
511.153, 977.430
512.481, 835.723
513.809, 1034.033
515.137, 932.365
516.464, 920.715
517.792, 949.982
519.119, 678.373
520.446, 756.781
521.772, 615.207
523.099, 813.650
524.425, 222.113
525.751, 220.590
527.077, 669.086
528.402, 207.594
529.728, 166.121
531.053, 15.338
532.377, 93.207
533.702, 121.766
535.027, 260.338
536.351, 171.076
537.675, 207.449
538.998, 134.012
540.322, 441.875
541.645, 83.561
542.968, 19.137
544.291, 44.670
545.613, 150.906
546.936, 58.596
548.258, 82.910
549.580, 365.557
550.902, 204.035
552.223, 152.529
553.544, 1.031
554.865, 169.539
556.186, 478.057
557.507, 396.586
558.827, 297.994
560.147, 966.543
561.467, 695.102
562.786, 1041.518
564.106, 1360.092
565.425, 1708.777
566.744, 2347.367
568.063, 3171.908
569.381, 4186.344
570.700, 5199.934
572.018, 4915.395
573.335, 5313.264
574.653, 4231.896
575.970, 3435.967
577.288, 2714.607
578.604, 1793.553
579.921, 1632.197
581.238, 1061.098
582.554, 1165.070
583.870, 923.725
585.186, 1118.117
586.501, 1224.000
587.817, 1345.227
589.132, 1403.883
590.447, 1452.539
591.761, 1684.363
593.076, 1637.684
594.390, 2156.645
595.704, 2396.293
597.018, 2584.943
598.331, 2853.592
599.645, 3142.234
600.958, 3271.035
602.271, 3869.859
603.583, 4018.824
604.896, 3958.439
606.208, 4107.926
607.520, 3909.621
608.832, 3651.572
610.143, 3040.189
611.455, 2752.078
612.766, 2700.686
614.077, 2031.449
615.387, 1835.357
616.698, 1513.941
618.008, 1609.021
619.318, 1067.607
620.628, 1306.168
621.937, 907.143
623.247, 575.688
624.556, 659.020
625.865, 608.572
627.173, 537.088
628.482, 546.328
629.790, 458.553
631.098, 467.033
632.405, 455.500
633.713, 464.471
635.020, 192.906
636.327, 411.336
637.634, 326.314
638.941, 305.352
640.247, 423.740
641.553, 234.596
642.859, 2.955
644.165, 441.275
645.471, 110.297
646.776, 136.213
648.081, 234.518
649.386, 473.039
650.691, 451.277
651.995, 209.846
653.299, 518.051
654.603, 367.221
655.907, 635.391
657.210, 603.547
658.514, 601.682
659.817, 719.799
661.120, 597.895
662.422, 607.826
663.725, 614.867
665.027, 512.910
666.329, 570.932
667.630, 565.619
668.932, 373.602
670.233, 361.566
671.534, 209.512
672.835, 407.436
674.136, 65.340
675.436, 603.215
676.737, 201.070
678.036, 278.898
679.336, 476.711
680.636, 514.500
681.935, 262.270
683.234, 720.020
684.533, 327.742
685.832, 315.449
687.130, 483.133
688.428, 169.441
689.726, 487.082
691.024, 564.703
692.322, 412.297
693.619, 601.098
694.916, 318.652
696.213, 559.207
697.510, 406.730
698.806, 639.895
700.102, 406.004
701.398, 471.129
702.694, 548.629
703.990, 636.121
705.285, 789.504
706.580, 596.949
707.875, 675.523
709.170, 311.773
710.464, 658.656
711.758, 496.023
713.052, 603.371
714.346, 10.695
715.640, 287.973
716.933, 475.227
718.226, 227.547
719.519, 1219.512
720.812, 96.543
722.105, 363.551
723.397, 59.461
724.689, 257.438
725.981, 94.336
727.272, 98.770
728.564, 318.031
729.855, 174.812
731.146, 28.430
732.437, 518.250
733.727, 265.090
735.017, 801.371
736.308, 97.812
737.597, 185.777
738.887, 400.480
740.176, 33.289
741.466, 57.129
742.755, 18.938
744.043, 194.961
745.332, 170.957
746.620, 6.930
747.908, 17.152
749.196, 98.699
750.484, 64.523
751.771, 160.312
753.059, 196.074
754.346, 281.816
755.633, 117.535
756.919, 113.227
758.206, 99.984
759.492, 64.535
760.778, 70.137
762.063, 5.715
763.349, 1.230
764.634, 326.695
765.919, 157.863
767.204, 387.438
768.489, 22.711
769.773, 32.055
771.057, 593.105
772.341, 51.758
773.625, 163.301
774.909, 288.332
776.192, 13.344
777.475, 458.305
778.758, 26.758
780.041, 58.121
781.323, 182.957
782.605, 182.230
783.887, 442.441
785.169, 217.082
786.451, 301.707
787.732, 86.309
789.013, 320.883
790.294, 215.434
791.575, 60.039
792.856, 74.406
794.136, 478.820
795.416, 3.219
796.696, 207.566
797.976, 359.031
799.255, 63.336
800.534, 82.387
801.813, 161.805
803.092, 105.969
804.371, 210.117
805.649, 94.234
806.927, 278.336
808.205, 42.418
809.483, 206.465
810.760, 290.496
812.037, 204.508
813.315, 308.492
814.591, 352.465
815.868, 46.414
817.144, 360.340
818.421, 514.246
819.697, 578.137
820.972, 77.992
822.248, 395.801
823.523, 369.578
824.798, 303.336
826.073, 517.070
827.348, 470.793
828.623, 393.602
829.897, 827.293
831.171, 270.969
832.445, 524.629
833.718, 448.273
834.992, 311.945
836.265, 1005.605
837.538, 339.250
838.811, 722.883
840.083, 356.500
841.356, 870.109
842.628, 643.711
843.900, 447.297
845.171, 700.887
846.443, 514.457
847.714, 558.055
848.985, 591.641
850.256, 315.246
851.527, 468.840
852.797, 862.445
854.067, 446.043
855.337, 749.633
856.607, 583.938
857.876, 847.504
859.146, 831.074
860.415, 964.629
861.684, 1158.176
862.953, 604.113
864.221, 767.621
865.489, 1521.109
866.757, 814.578
868.025, 1445.160
869.293, 1368.590
870.560, 1312.004
871.828, 1677.551
873.095, 920.934
874.361, 1874.199
875.628, 1727.547
876.894, 2053.543
878.160, 1716.859
879.426, 1469.969
880.692, 2373.426
881.958, 1956.699
883.223, 1939.965
884.488, 1947.781
885.753, 2271.020
887.018, 2093.953
888.282, 2427.172
889.546, 2160.129
890.810, 2518.012
892.074, 2541.203
893.338, 2818.648
894.601, 2824.602
895.864, 2645.203
897.127, 3048.367
898.390, 3211.523
899.652, 2901.508
900.915, 3779.992
902.177, 3532.828
903.439, 3704.977
904.700, 4898.117
905.962, 4461.250
907.223, 5214.387
908.484, 5317.363
909.745, 6050.312
911.006, 6373.117
912.266, 6465.266
913.526, 7067.539
914.786, 6947.609
916.046, 6857.414
917.306, 6710.555
918.565, 5740.414
919.824, 6613.555
921.083, 5534.535
922.342, 5792.367
923.600, 4975.523
924.859, 4822.184
926.117, 5005.332
927.375, 4458.504
928.632, 3979.258
929.890, 4272.441
931.147, 3490.832
932.404, 3242.996
933.661, 3186.195
934.918, 2564.938
936.174, 2478.145
937.430, 2141.363
938.686, 1874.586
939.942, 2067.293
941.198, 1640.516
942.453, 1523.746
943.708, 1170.426
944.963, 1143.047
946.218, 1196.305
947.472, 1087.098
948.727, 1290.387
949.981, 1493.703
951.235, 1221.172
952.488, 1432.031
953.742, 775.363
954.995, 1158.473
956.248, 1031.871
957.501, 804.941
958.754, 828.375
960.006, 770.844
961.258, 714.316
962.510, 1117.812
963.762, 361.332
965.014, 894.867
966.265, 738.430
967.516, 561.184
968.767, 1285.367
970.018, 129.000
971.269, 982.664
972.519, 829.672
973.769, 533.387
975.019, 917.133
976.269, 990.914
977.518, 1034.723
978.767, 1529.301
980.017, 1113.184
981.265, 1387.316
982.514, 1971.277
983.762, 995.273
985.011, 2289.992
986.259, 1444.078
987.507, 1758.203
988.754, 1323.176
990.002, 817.398
991.249, 1242.340
992.496, 746.652
993.743, 841.016
994.989, 938.027
996.236, 232.512
997.482, 767.027
998.728, 441.602
999.974, 335.770
1001.219, 840.906
1002.464, 365.074
1003.710, 579.207
1004.954, 373.438
1006.199, 52.691
1007.444, 531.188
1008.688, 114.820
1009.932, 248.316
1011.176, 233.895
1012.420, 112.594
1013.663, 728.125
1014.906, 220.957
1016.149, 333.793
1017.392, 256.633
1018.635, 399.621
1019.877, 592.609
1021.120, 325.656
1022.362, 458.738
1023.603, 741.875
1024.845, 365.062
1026.086, 668.438
1027.328, 501.887
1028.569, 465.445
1029.809, 699.125
1031.050, 642.828
1032.290, 356.602
1033.530, 920.418
1034.770, 224.250
1036.010, 768.102
1037.250, 651.969
1038.489, 575.875
1039.728, 589.848
1040.967, 1033.926
1042.206, 838.117
1043.444, 1032.391
1044.683, 836.770
1045.921, 1111.184
1047.159, 975.664
1048.396, 1100.219
1049.634, 1244.961
1050.871, 1139.738
1052.108, 1354.555
1053.345, 1259.445
1054.582, 694.418
1055.818, 1219.465
1057.054, 1004.559
1058.290, 259.785
1059.526, 1375.062
1060.762, 710.387
1061.997, 955.773
1063.232, 551.191
1064.467, 476.668
1065.702, 952.188
1066.937, 197.750
1068.171, 513.453
1069.405, 769.207
1070.639, 545.000
1071.873, 690.832
1073.107, 606.707
1074.340, 72.480
1075.573, 1258.281
1076.806, 294.113
1078.039, 719.969
1079.272, 1105.824
1080.504, 471.711
1081.736, 1097.629
1082.968, 863.582
1084.200, 968.195
1085.431, 1284.234
1086.663, 1200.320
1087.894, 1991.652
1089.125, 1517.859
1090.355, 1674.176
1091.586, 2370.609
1092.816, 2317.160
1094.046, 1753.824
1095.276, 2090.605
1096.506, 1137.492
1097.735, 1484.492
1098.965, 1061.613
1100.194, 508.859
1101.423, 1086.227
1102.651, 483.719
1103.880, 561.332
1105.108, 1039.070
1106.336, 746.926
1107.564, 694.902
1108.792, 503.008
1110.019, 131.238
1111.246, 799.598
1112.473, 498.078
1113.700, 436.699
1114.927, 815.457
1116.153, 4.355
1117.380, 533.398
1118.606, 762.598
1119.831, 161.973
1121.057, 551.535
1122.283, 561.289
1123.508, 641.305
1124.733, 511.645
1125.958, 22.324
1127.182, 783.277
1128.407, 154.504
1129.631, 586.020
1130.855, 557.844
1132.079, 160.016
1133.302, 702.465
1134.526, 725.301
1135.749, 78.527
1136.972, 962.160
1138.195, 116.246
1139.417, 926.910
1140.640, 561.777
1141.862, 7.199
1143.084, 1323.223
1144.305, 433.352
1145.527, 738.129
1146.748, 924.441
1147.970, 81.758
1149.191, 557.504
1150.411, 740.520
1151.632, 196.914
1152.852, 622.477
1154.072, 237.125
1155.292, 348.398
1156.512, 637.625
1157.732, 1.547
1158.951, 204.887
1160.170, 0.000
##END=



