##NAMES=Clinohumite
##RRUFFID=R040122
##IDEAL CHEMISTRY=Mg_9_(SiO_4_)_4_F_2_
##LOCALITY=Anzahamazonono,  Madagascar
##OWNER=RRUFF
##SOURCE=University of Arizona Mineral Museum
##DESCRIPTION=Orange-brown blebs embedded in calcite matrix
##STATUS=The identification of this mineral has been confirmed by X-ray diffraction and chemical analysis
##URL=rruff.info/R040122
##MEASURED CHEMISTRY=(Mg_0.96_Fe_0.02_Ti_0.01_Ca_0.01_)_9_(SiO_4_)_4_(F_0.59_(OH)_0.41_)_2_
##PIN_ID=M00126
##ORIENTATION=Laser parallel to -b* (0 -1 0). Fiducial mark perpendicular to laser is parallel to -c [0 0 -1]
124.2880, 0.0000000E+00
125.5190, 68.78906
126.7490, 0.9775390
127.9790, 70.18750
129.2090, 38.04395
130.4390, 60.44141
131.6680, 5.040039
132.8980, 40.32617
134.1270, 13.14551
135.3560, 132.2871
136.5850, 125.3545
137.8140, 259.8428
139.0430, 259.5771
140.2710, 237.4160
141.5000, 205.2461
142.7280, 275.9746
143.9560, 73.51758
145.1840, 284.8008
146.4120, 362.7578
147.6390, 248.3271
148.8670, 94.45996
150.0940, 62.11035
151.3210, 240.2412
152.5490, 263.8174
153.7750, 242.8105
155.0020, 245.1963
156.2290, 266.9580
157.4550, 297.0889
158.6810, 148.5703
159.9080, 401.3838
161.1340, 250.5098
162.3590, 210.9238
163.5850, 329.5977
164.8110, 397.5107
166.0360, 295.6475
167.2610, 467.9941
168.4860, 438.5420
169.7110, 371.2773
170.9360, 558.1943
172.1610, 520.2861
173.3850, 299.5459
174.6100, 552.9668
175.8340, 396.5469
177.0580, 541.2783
178.2820, 616.1592
179.5050, 513.1846
180.7290, 704.3496
181.9520, 667.6514
183.1760, 764.0879
184.3990, 837.6592
185.6220, 922.3730
186.8450, 890.2920
188.0670, 849.4434
189.2900, 838.6016
190.5120, 557.3037
191.7340, 764.9199
192.9560, 651.6396
194.1780, 667.4609
195.4000, 777.3809
196.6220, 919.4014
197.8430, 882.4912
199.0640, 954.5635
200.2860, 1084.631
201.5070, 1152.707
202.7270, 1094.801
203.9480, 1163.921
205.1690, 1034.073
206.3890, 1070.267
207.6090, 939.5000
208.8290, 871.7812
210.0490, 893.1104
211.2690, 815.4902
212.4890, 808.9248
213.7080, 682.4131
214.9280, 753.9580
216.1470, 712.5605
217.3660, 688.2217
218.5850, 693.9404
219.8030, 599.7266
221.0220, 624.5723
222.2400, 603.4834
223.4590, 663.4600
224.6770, 708.6270
225.8950, 880.5928
227.1120, 865.7490
228.3300, 981.4941
229.5480, 1108.238
230.7650, 1085.571
231.9820, 1124.963
233.1990, 1131.413
234.4160, 999.9209
235.6330, 1133.488
236.8490, 1281.111
238.0660, 1046.795
239.2820, 1052.545
240.4980, 1076.366
241.7140, 1077.271
242.9300, 999.2773
244.1460, 1031.345
245.3610, 953.8633
246.5770, 1023.031
247.7920, 865.8105
249.0070, 1036.449
250.2220, 879.5586
251.4370, 1005.667
252.6510, 946.6729
253.8660, 1122.321
255.0800, 1081.389
256.2940, 967.9209
257.5080, 1021.507
258.7220, 891.1475
259.9360, 1083.846
261.1490, 1047.596
262.3630, 917.4033
263.5760, 864.2627
264.7890, 779.1768
266.0020, 720.1465
267.2150, 688.1699
268.4270, 638.2490
269.6400, 593.3828
270.8520, 493.4316
272.0640, 623.4395
273.2760, 513.3975
274.4880, 554.8379
275.7000, 604.4385
276.9120, 570.2100
278.1230, 678.1328
279.3340, 463.1982
280.5450, 660.2246
281.7560, 564.5420
282.9670, 476.9746
284.1780, 647.5137
285.3880, 576.1553
286.5980, 479.8936
287.8090, 641.7236
289.0190, 542.6416
290.2290, 502.6445
291.4380, 710.7295
292.6480, 587.8896
293.8570, 584.1279
295.0670, 410.4375
296.2760, 354.8154
297.4850, 415.2646
298.6930, 383.7773
299.9020, 345.3545
301.1110, 507.9951
302.3190, 593.6943
303.5270, 518.4541
304.7350, 572.2695
305.9430, 692.1416
307.1510, 671.0684
308.3580, 733.0479
309.5660, 612.0791
310.7730, 677.1611
311.9800, 949.2939
313.1870, 757.9580
314.3940, 822.1875
315.6010, 937.2227
316.8070, 1242.784
318.0130, 1149.152
319.2200, 1305.376
320.4260, 1467.831
321.6310, 1480.330
322.8370, 1393.872
324.0430, 1162.454
325.2480, 1001.079
326.4540, 744.7432
327.6590, 717.4473
328.8640, 625.1924
330.0680, 590.9746
331.2730, 603.7949
332.4780, 430.6523
333.6820, 636.5459
334.8860, 358.4746
336.0900, 384.4375
337.2940, 289.4346
338.4980, 377.4648
339.7010, 397.5283
340.9050, 248.6240
342.1080, 165.7510
343.3110, 119.9092
344.5140, 183.1006
345.7170, 177.3242
346.9200, 95.66895
348.1220, 27.95508
349.3240, 251.2725
350.5270, 108.6699
351.7290, 202.0498
352.9310, 148.3057
354.1320, 215.7461
355.3340, 81.07227
356.5350, 204.5742
357.7370, 163.9463
358.9380, 87.97461
360.1390, 80.16797
361.3400, 53.78711
362.5400, 42.43555
363.7410, 22.88867
364.9410, 146.8154
366.1410, 69.54980
367.3410, 71.32227
368.5410, 108.8555
369.7410, 13.99414
370.9400, 20.32129
372.1400, 34.10645
373.3390, 18.05859
374.5380, 89.02637
375.7370, 123.5361
376.9360, 19.46191
378.1350, 67.63379
379.3330, 58.21777
380.5310, 12.04492
381.7300, 97.21094
382.9280, 62.47656
384.1260, 35.13281
385.3230, 44.25195
386.5210, 20.72070
387.7180, 110.2441
388.9160, 20.79590
390.1130, 66.37109
391.3100, 106.0107
392.5060, 120.6973
393.7030, 140.7861
394.9000, 152.0254
396.0960, 150.9326
397.2920, 136.7168
398.4880, 134.5234
399.6840, 115.0898
400.8800, 122.2178
402.0750, 77.58301
403.2710, 60.26660
404.4660, 47.17090
405.6610, 43.28027
406.8560, 58.42480
408.0510, 118.5977
409.2450, 317.7852
410.4400, 188.0596
411.6340, 261.3467
412.8280, 90.68066
414.0220, 181.0527
415.2160, 291.4541
416.4100, 227.8848
417.6030, 203.3428
418.7970, 338.8252
419.9900, 370.3477
421.1830, 272.8926
422.3760, 179.4678
423.5690, 155.0684
424.7610, 222.6953
425.9540, 170.3418
427.1460, 147.0205
428.3380, 69.71875
429.5300, 162.4404
430.7220, 223.1816
431.9140, 312.9561
433.1050, 65.74805
434.2970, 249.5586
435.4880, 337.3867
436.6790, 120.2480
437.8700, 183.1250
439.0610, 271.0146
440.2510, 206.9189
441.4420, 196.8359
442.6320, 235.7637
443.8220, 183.7070
445.0120, 104.6582
446.2020, 76.62305
447.3910, 120.5977
448.5810, 121.5820
449.7700, 122.1055
450.9600, 25.58203
452.1490, 145.5938
453.3370, 247.6152
454.5260, 304.6465
455.7150, 10.31445
456.9030, 249.7246
458.0910, 24.77344
459.2800, 137.8262
460.4670, 310.8867
461.6550, 18.04688
462.8430, 121.0156
464.0300, 196.0840
465.2180, 279.1582
466.4050, 445.2383
467.5920, 319.3203
468.7790, 428.4062
469.9650, 299.4941
471.1520, 348.5879
472.3380, 297.6836
473.5250, 328.7812
474.7110, 294.8809
475.8970, 389.9824
477.0820, 203.0859
478.2680, 316.1875
479.4540, 256.2930
480.6390, 149.3965
481.8240, 110.5020
483.0090, 113.6055
484.1940, 219.7109
485.3780, 142.8125
486.5630, 153.9160
487.7470, 124.0137
488.9320, 11.11328
490.1160, 97.20508
491.3000, 25.29883
492.4830, 14.38672
493.6670, 146.4707
494.8500, 32.44727
496.0340, 134.6113
497.2170, 8.332031
498.4000, 56.79492
499.5820, 72.87891
500.7650, 21.88086
501.9480, 24.53516
503.1300, 95.05469
504.3120, 47.00586
505.4940, 40.04102
506.6760, 161.1699
507.8580, 230.5879
509.0390, 50.99609
510.2210, 107.8926
511.4020, 59.00195
512.5830, 67.96484
513.7640, 2.714844
514.9450, 124.0566
516.1250, 5.501953
517.3060, 56.44727
518.4860, 122.5352
519.6660, 171.9746
520.8460, 127.1074
522.0260, 98.04688
523.2060, 170.8926
524.3850, 215.3828
525.5650, 146.7969
526.7440, 217.9863
527.9230, 137.3281
529.1020, 240.5273
530.2810, 223.9941
531.4590, 179.2930
532.6380, 502.7461
533.8160, 578.2168
534.9940, 396.7617
536.1720, 546.6719
537.3500, 508.9121
538.5270, 313.9961
539.7050, 240.7051
540.8820, 305.8047
542.0590, 417.7266
543.2360, 495.4844
544.4130, 420.9023
545.5900, 562.3457
546.7660, 475.7852
547.9430, 470.2070
549.1190, 577.8242
550.2950, 539.5078
551.4710, 367.2461
552.6470, 555.4531
553.8220, 402.8711
554.9980, 432.6797
556.1730, 335.2363
557.3480, 324.5840
558.5230, 307.6465
559.6980, 165.6758
560.8730, 165.5352
562.0470, 281.5039
563.2220, 403.9180
564.3960, 392.7227
565.5700, 352.3242
566.7440, 271.3438
567.9170, 382.2852
569.0910, 306.3008
570.2640, 403.0234
571.4380, 341.0254
572.6110, 614.3320
573.7840, 561.9785
574.9570, 673.4668
576.1290, 753.2363
577.3020, 936.7500
578.4740, 915.2637
579.6460, 1132.742
580.8180, 1352.184
581.9900, 1318.592
583.1620, 1596.967
584.3330, 1456.303
585.5040, 1605.604
586.6760, 1448.871
587.8470, 1687.100
589.0180, 1504.293
590.1880, 1399.451
591.3590, 1635.572
592.5290, 1506.658
593.7000, 1686.707
594.8700, 1812.719
596.0400, 2068.695
597.2090, 2401.148
598.3790, 2537.051
599.5490, 3091.916
600.7180, 3536.742
601.8870, 4027.531
603.0560, 4684.473
604.2250, 5195.191
605.3940, 5581.867
606.5620, 6178.508
607.7300, 6379.109
608.8990, 6149.674
610.0670, 5744.201
611.2350, 5252.689
612.4020, 4665.139
613.5700, 3710.551
614.7370, 3175.924
615.9050, 2624.260
617.0720, 2215.555
618.2390, 1816.816
619.4060, 1580.037
620.5720, 1331.219
621.7390, 1208.363
622.9050, 1131.469
624.0710, 815.5332
625.2370, 834.5605
626.4030, 733.5488
627.5690, 635.5000
628.7340, 569.4082
629.9000, 481.1895
631.0650, 384.0215
632.2300, 349.1035
633.3950, 292.1309
634.5600, 289.2363
635.7240, 227.0664
636.8890, 233.7031
638.0530, 205.2676
639.2170, 158.0039
640.3810, 238.6816
641.5450, 274.6934
642.7080, 230.5312
643.8720, 231.5312
645.0350, 201.9766
646.1980, 119.6191
647.3610, 122.9004
648.5240, 41.13867
649.6870, 6.687500
650.8490, 23.36523
652.0120, 84.44141
653.1740, 45.62695
654.3360, 35.04492
655.4980, 21.08789
656.6600, 102.2168
657.8210, 80.01758
658.9830, 228.6484
660.1440, 37.75391
661.3050, 53.74609
662.4660, 164.7969
663.6270, 61.49805
664.7870, 9.693359
665.9480, 22.17383
667.1080, 173.1230
668.2680, 60.23047
669.4280, 40.55859
670.5880, 91.29102
671.7480, 115.0156
672.9070, 100.4512
674.0670, 23.00977
675.2260, 51.35156
676.3850, 52.33203
677.5440, 40.88867
678.7030, 53.06250
679.8610, 21.81055
681.0200, 40.23633
682.1780, 50.76172
683.3360, 221.8496
684.4940, 112.1152
685.6520, 97.50391
686.8090, 19.00195
687.9670, 8.423828
689.1240, 98.79688
690.2810, 219.8652
691.4380, 221.2969
692.5950, 74.57227
693.7520, 50.53516
694.9080, 86.41992
696.0650, 127.3359
697.2210, 231.2227
698.3770, 220.3867
699.5330, 12.09961
700.6880, 191.6641
701.8440, 9.402344
702.9990, 32.09375
704.1550, 40.74805
705.3100, 131.3652
706.4650, 8.048828
707.6190, 112.4883
708.7740, 16.99414
709.9290, 96.46094
711.0830, 37.09961
712.2370, 187.2754
713.3910, 13.62500
714.5450, 153.9375
715.6980, 50.77930
716.8520, 305.4395
718.0050, 274.6328
719.1580, 330.8008
720.3110, 424.9434
721.4640, 352.0605
722.6170, 253.1523
723.7700, 493.2188
724.9220, 456.2617
726.0740, 645.2793
727.2260, 574.2715
728.3780, 584.2422
729.5300, 748.1992
730.6810, 915.1348
731.8330, 1054.045
732.9840, 1043.934
734.1350, 1178.797
735.2860, 1205.643
736.4370, 1417.467
737.5880, 1512.270
738.7380, 1664.051
739.8880, 1826.812
741.0390, 1949.553
742.1890, 1998.277
743.3380, 1954.980
744.4880, 2045.666
745.6380, 2210.330
746.7870, 2460.977
747.9360, 2404.605
749.0850, 2291.215
750.2340, 2433.805
751.3830, 2385.379
752.5310, 2311.934
753.6800, 2210.473
754.8280, 2112.463
755.9760, 2027.498
757.1240, 1868.984
758.2720, 1979.457
759.4190, 1868.914
760.5670, 1843.359
761.7140, 1508.789
762.8610, 1472.203
764.0080, 1462.605
765.1550, 1394.992
766.3020, 1404.514
767.4480, 1364.723
768.5950, 1423.068
769.7410, 1482.402
770.8870, 1538.682
772.0330, 1466.029
773.1780, 1693.328
774.3240, 1928.621
775.4690, 2136.902
776.6140, 2481.752
777.7590, 2838.568
778.9040, 3254.340
780.0490, 3726.609
781.1940, 4272.873
782.3380, 4841.129
783.4820, 5288.287
784.6260, 5198.000
785.7700, 5171.742
786.9140, 5050.479
788.0580, 4710.713
789.2010, 4338.695
790.3450, 4122.762
791.4880, 3614.889
792.6310, 3144.662
793.7730, 3217.318
794.9160, 2993.963
796.0590, 3141.262
797.2010, 3007.566
798.3430, 3247.529
799.4850, 3397.297
800.6270, 3474.391
801.7690, 3891.078
802.9100, 4427.264
804.0520, 4930.506
805.1930, 5356.367
806.3340, 5919.334
807.4750, 6159.061
808.6160, 6557.990
809.7560, 6415.766
810.8970, 6260.566
812.0370, 6513.293
813.1770, 6222.635
814.3170, 6102.633
815.4570, 6457.773
816.5960, 6622.273
817.7360, 6908.381
818.8750, 7234.670
820.0140, 8243.139
821.1530, 8598.953
822.2920, 9845.730
823.4310, 11586.50
824.5690, 13468.28
825.7070, 15726.84
826.8460, 18584.32
827.9840, 21148.74
829.1220, 22913.67
830.2590, 24020.37
831.3970, 23571.68
832.5340, 21761.21
833.6710, 19681.95
834.8080, 17889.95
835.9450, 16197.97
837.0820, 15496.15
838.2190, 15444.21
839.3550, 15931.82
840.4910, 17101.04
841.6270, 18314.46
842.7630, 20106.45
843.8990, 21619.51
845.0350, 22606.46
846.1700, 23349.70
847.3060, 22648.64
848.4410, 21567.27
849.5760, 20040.54
850.7100, 19191.96
851.8450, 18518.26
852.9800, 18343.44
854.1140, 19406.78
855.2480, 20563.14
856.3820, 22292.53
857.5160, 25086.93
858.6500, 27162.36
859.7830, 28397.80
860.9170, 28310.26
862.0500, 26437.74
863.1830, 23426.26
864.3160, 20186.78
865.4480, 17243.35
866.5810, 14843.92
867.7130, 12718.52
868.8460, 11573.13
869.9780, 10093.77
871.1100, 9457.426
872.2410, 9132.098
873.3730, 8530.801
874.5050, 8617.520
875.6360, 8456.270
876.7670, 8221.049
877.8980, 7788.844
879.0290, 7511.699
880.1590, 6598.574
881.2900, 5914.473
882.4200, 4911.393
883.5500, 4471.383
884.6800, 3702.342
885.8100, 3103.332
886.9400, 2790.344
888.0690, 2338.381
889.1990, 2250.439
890.3280, 2023.521
891.4570, 1728.627
892.5860, 1608.752
893.7140, 1375.904
894.8430, 1228.389
895.9710, 1458.105
897.1000, 1073.322
898.2280, 881.5742
899.3560, 1040.850
900.4830, 814.1445
901.6110, 830.4629
902.7380, 815.8320
903.8660, 820.1992
904.9930, 809.5898
906.1200, 956.0039
907.2460, 957.1289
908.3730, 931.2910
909.5000, 1079.785
910.6260, 1044.307
911.7520, 1120.848
912.8780, 1110.428
914.0040, 1025.033
915.1290, 893.6602
916.2550, 977.3125
917.3800, 800.9844
918.5050, 851.6816
919.6300, 692.6523
920.7550, 736.3984
921.8800, 499.1680
923.0040, 407.2109
924.1290, 275.2988
925.2530, 284.1680
926.3770, 429.6113
927.5010, 418.5098
928.6250, 442.8066
929.7480, 526.7363
930.8720, 463.5566
931.9950, 422.6914
933.1180, 351.9688
934.2410, 333.6582
935.3640, 277.6172
936.4860, 228.1875
937.6090, 179.5195
938.7310, 102.1504
939.8530, 3.972656
940.9750, 151.7168
942.0970, 48.15430
943.2180, 122.6504
944.3400, 245.9688
945.4610, 156.1152
946.5820, 404.8027
947.7030, 205.5762
948.8240, 298.3711
949.9450, 554.5273
951.0650, 545.5293
952.1860, 457.4355
953.3060, 248.3633
954.4260, 628.2266
955.5460, 989.5137
956.6650, 882.7930
957.7850, 1111.482
958.9040, 1692.689
960.0230, 2355.928
961.1420, 2713.201
962.2610, 3548.855
963.3800, 4475.621
964.4990, 5734.365
965.6170, 6723.791
966.7350, 7442.367
967.8530, 7756.840
968.9710, 7834.531
970.0890, 7073.027
971.2070, 6037.371
972.3240, 5141.568
973.4410, 4431.805
974.5580, 3392.697
975.6750, 3056.287
976.7920, 2486.146
977.9090, 1910.133
979.0250, 1810.877
980.1410, 1161.684
981.2580, 1230.312
982.3740, 865.5293
983.4890, 672.7754
984.6050, 816.4395
985.7200, 778.4902
986.8360, 457.1719
987.9510, 209.8789
989.0660, 596.5938
990.1810, 421.3125
991.2950, 195.6328
992.4100, 176.3652
993.5240, 176.1016
994.6390, 324.8438
995.7530, 287.5879
996.8660, 163.1152
997.9800, 286.2344
999.0940, 88.66602
1000.207, 185.0781
1001.320, 333.0371
1002.433, 206.8223
1003.546, 497.7500
1004.659, 296.5391
1005.772, 344.3320
1006.884, 231.1270
1007.996, 332.9238
1009.108, 223.7969
1010.220, 292.7930
1011.332, 247.5957
1012.444, 176.2500
1013.555, 192.4277
1014.666, 238.2324
1015.777, 71.03516
1016.888, 1.162109
1017.999, 204.6367
1019.110, 93.45117
1020.220, 125.8242
1021.331, 128.5547
1022.441, 132.5879
1023.551, 57.85547
1024.661, 158.9551
1025.770, 133.7559
1026.880, 57.55078
1027.989, 240.6875
1029.098, 31.52344
1030.207, 108.2520
1031.316, 197.0742
1032.425, 125.8555
1033.533, 106.6387
1034.642, 249.7812
1035.750, 17.05664
1036.858, 223.8262
1037.966, 152.6250
1039.073, 122.3809
1040.181, 273.1309
1041.288, 6.972656
1042.396, 212.8301
1043.503, 283.5625
1044.610, 236.2852
1045.716, 278.4707
1046.823, 166.2461
1047.929, 204.1250
1049.036, 114.8145
1050.142, 162.4961
1051.248, 178.6953
1052.353, 12.83398
1053.459, 183.4922
1054.564, 179.2305
1055.670, 26.90039
1056.775, 29.52539
1057.880, 41.13672
1058.985, 179.8867
1060.089, 45.39648
1061.194, 24.38867
1062.298, 73.86914
1063.402, 21.49805
1064.506, 106.2852
1065.610, 169.2715
1066.713, 126.0566
1067.817, 36.92969
1068.920, 275.5020
1070.023, 34.58984
1071.126, 67.27930
1072.229, 102.7383
1073.332, 75.00781
1074.435, 140.2188
1075.537, 171.5723
1076.639, 24.04688
1077.741, 210.5684
1078.843, 10.23242
1079.945, 192.0664
1081.046, 360.3438
1082.148, 70.60352
1083.249, 114.8379
1084.350, 22.94727
1085.451, 37.78125
1086.551, 83.37109
1087.652, 56.82812
1088.752, 107.6406
1089.853, 25.94531
1090.953, 222.8828
1092.053, 188.7637
1093.152, 240.2734
1094.252, 90.10742
1095.351, 85.25195
1096.451, 94.38672
1097.550, 222.2363
1098.649, 157.9746
1099.748, 279.6777
1100.846, 140.3555
1101.945, 255.0059
1103.043, 36.63281
1104.141, 45.45117
1105.239, 26.22070
1106.337, 20.35742
1107.434, 13.81250
1108.532, 135.2168
1109.629, 109.5938
1110.726, 172.9434
1111.823, 162.2617
1112.920, 267.5547
1114.017, 71.82031
1115.113, 73.05273
1116.210, 335.2520
1117.306, 127.4219
1118.402, 255.5840
1119.498, 367.6934
1120.593, 224.7793
1121.689, 289.8359
1122.784, 82.50000
1123.879, 477.6660
1124.974, 338.6543
1126.069, 264.6074
1127.164, 302.5742
1128.259, 34.47266
1129.353, 148.2949
1130.447, 155.0234
1131.541, 252.7988
1132.635, 203.0215
1133.729, 273.7656
1134.822, 214.4805
1135.916, 314.1621
1137.009, 262.8125
1138.102, 288.4355
1139.195, 306.0332
1140.288, 17.66992
1141.380, 209.2031
1142.473, 310.3672
1143.565, 58.16406
1144.657, 171.6348
1145.749, 398.2227
1146.841, 287.5078
1147.932, 296.7578
1149.024, 438.9316
1150.115, 81.00781
1151.206, 132.6250
1152.297, 487.3906
1153.388, 233.0352
1154.479, 161.4902
1155.569, 202.0078
1156.659, 292.1484
1157.750, 375.4219
1158.839, 195.6172
1159.929, 361.4883
1161.019, 350.4941
1162.108, 52.92383
1163.198, 372.1719
1164.287, 296.0996
1165.376, 199.7910
1166.465, 167.4570
1167.553, 433.0977
1168.642, 280.6914
1169.730, 309.5312
1170.818, 355.6445
1171.906, 31.39062
1172.994, 277.5742
1174.082, 367.0000
1175.170, 360.7500
1176.257, 37.08203
1177.344, 157.3555
1178.431, 254.5820
1179.518, 323.7734
1180.605, 340.4844
1181.691, 371.1875
1182.778, 345.9453
1183.864, 300.7578
1184.950, 281.3555
1186.036, 106.3438
1187.122, 434.9375
1188.207, 475.6133
1189.292, 215.8008
1190.378, 349.3320
1191.463, 214.1836
1192.548, 221.6289
1193.632, 516.4492
1194.717, 185.4180
1195.801, 264.0547
1196.886, 473.1445
1197.970, 328.6484
1199.054, 192.2305
1200.137, 547.7305
1201.221, 331.2539
1202.305, 225.4766
1203.388, 298.5859
1204.471, 246.1602
1205.554, 313.6523
1206.637, 268.0820
1207.719, 245.6758
1208.802, 280.5000
1209.884, 332.8008
1210.966, 394.0586
1212.048, 514.2852
1213.130, 458.1641
1214.212, 256.1836
1215.293, 325.1133
1216.374, 144.3828
1217.456, 244.5312
1218.536, 199.2617
1219.617, 119.0586
1220.698, 101.5273
1221.778, 225.3594
1222.859, 15.71094
1223.939, 426.0938
1225.019, 128.5000
1226.099, 124.8438
1227.178, 186.2969
1228.258, 207.9766
1229.337, 286.6445
1230.417, 368.2695
1231.496, 336.6562
1232.574, 360.2188
1233.653, 302.0195
1234.732, 437.8594
1235.810, 187.4258
1236.888, 407.7773
1237.966, 330.1797
1239.044, 225.2891
1240.122, 258.8945
1241.199, 407.0938
1242.277, 516.2070
1243.354, 412.4883
1244.431, 345.3398
1245.508, 297.9766
1246.585, 366.1797
1247.661, 202.0742
1248.738, 295.2188
1249.814, 419.2031
1250.890, 240.2891
1251.966, 55.81641
1253.042, 167.2461
1254.117, 209.2578
1255.193, 307.2305
1256.268, 200.8359
1257.343, 216.8711
1258.418, 77.98438
1259.493, 130.5078
1260.567, 367.9922
1261.642, 111.0234
1262.716, 441.9922
1263.790, 272.9102
1264.864, 421.4453
1265.938, 330.0742
1267.011, 289.7812
1268.085, 299.2617
1269.158, 197.1836
1270.231, 205.8281
1271.304, 50.92188
1272.377, 205.7695
1273.450, 95.34375
1274.522, 142.1758
1275.594, 335.5508
1276.666, 239.8945
1277.738, 343.7656
1278.810, 22.27344
1279.882, 94.00000
1280.953, 49.66016
1282.025, 70.38281
1283.096, 106.8906
1284.167, 82.96484
1285.238, 164.6992
1286.308, 124.7812
1287.379, 135.3477
1288.449, 254.0273
1289.519, 325.0273
1290.589, 22.45312
1291.659, 85.05859
1292.729, 16.04297
1293.798, 314.8164
1294.868, 502.0078
1295.937, 195.3125
1297.006, 216.2031
1298.075, 140.3047
1299.143, 66.52344
1300.212, 145.5430
1301.280, 2.089844
1302.348, 196.7578
1303.416, 110.3984
1304.484, 284.0117
1305.552, 459.6445
1306.620, 263.6250
1307.687, 280.9922
1308.754, 66.51562
1309.821, 142.0156
1310.888, 3.753906
1311.955, 412.4922
1313.021, 62.90234
1314.088, 226.1992
1315.154, 16.53125
1316.220, 263.8672
1317.286, 73.18359
1318.352, 250.0938
1319.417, 310.4062
1320.483, 300.3711
1321.548, 296.3398
1322.613, 582.2617
1323.678, 285.3203
1324.743, 58.88672
1325.807, 103.1641
1326.872, 456.4570
1327.936, 427.4023
1329.000, 330.4648
1330.064, 298.2461
1331.128, 181.7578
1332.191, 101.1094
1333.255, 276.4141
1334.318, 374.0117
1335.381, 299.4023
1336.444, 190.8711
1337.507, 257.1406
1338.569, 232.7695
1339.632, 548.2734
1340.694, 277.6680
1341.756, 373.0508
1342.818, 543.4102
1343.880, 246.7695
1344.941, 348.8320
1346.003, 541.2031
1347.064, 348.5508
1348.125, 220.6641
1349.186, 367.9805
1350.247, 181.3164
1351.308, 435.1133
1352.368, 401.3945
1353.428, 454.3203
1354.489, 173.2109
1355.549, 326.3477
1356.608, 167.5234
1357.668, 338.6914
1358.727, 370.8398
1359.787, 209.9648
1360.846, 174.0742
1361.905, 361.1758
1362.964, 83.24219
1364.022, 69.22266
1365.081, 280.2812
1366.139, 218.3320
1367.197, 50.36328
1368.255, 365.3789
1369.313, 390.3789
1370.371, 330.3633
1371.428, 156.3203
1372.486, 609.2344
1373.543, 327.1367
1374.600, 176.0117
1375.657, 263.8438
1376.713, 23.68359
1377.770, 224.4961
1378.826, 89.30078
1379.882, 410.4531
1380.938, 44.96875
1381.994, 278.7383
1383.050, 372.4453
1384.106, 35.08594
1385.161, 616.7578
1386.216, 191.8711
1387.271, 222.1445
1388.326, 157.7422
1389.381, 71.14844
1390.435, 136.3828
1391.490, 186.9023
1392.544, 296.4062
1393.598, 0.8437500
1394.652, 15.19141
1395.705, 100.5195
1396.759, 324.7578
1397.812, 286.0391
1398.866, 97.63672
1399.919, 198.8828
1400.972, 28.00781
1402.024, 189.9805
1403.077, 239.2148
1404.129, 57.44531
1405.181, 138.6484
1406.233, 75.94141
1407.285, 230.6445
1408.337, 64.14844
1409.389, 283.7227
1410.440, 115.4336
1411.491, 65.02734
1412.542, 261.9453
1413.593, 66.68750
1414.644, 338.4531
1415.695, 269.4883
1416.745, 59.51172
1417.795, 9.109375
1418.845, 191.3867
1419.895, 192.1602
1420.945, 42.87891
1421.995, 322.0703
1423.044, 157.9531
1424.093, 21.28516
1425.142, 95.32422
1426.191, 88.46094
1427.240, 280.0781
1428.289, 4.824219
1429.337, 243.6523
1430.385, 201.1133
1431.433, 520.9570
1432.481, 406.3750
1433.529, 253.5547
1434.577, 231.3984
1435.624, 226.6836
1436.672, 123.2539
1437.719, 32.83594
1438.766, 315.7461
1439.812, 315.7383
1440.859, 195.2617
1441.905, 287.7188
1442.952, 239.2461
1443.998, 270.6562
1445.044, 232.1055
1446.090, 230.0625
1447.135, 213.8047
1448.181, 45.33984
1449.226, 127.1445
1450.271, 50.10547
1451.316, 231.6367
1452.361, 262.3555
1453.405, 256.5664
1454.450, 40.25391
1455.494, 81.89844
1456.538, 109.4727
1457.582, 201.9922
1458.626, 369.4961
1459.670, 127.9844
1460.713, 404.4531
1461.757, 166.9453
1462.800, 53.61719
1463.843, 91.09766
1464.886, 164.2969
1465.928, 413.6367
1466.971, 354.1133
1468.013, 409.4531
1469.055, 231.6719
1470.097, 200.0938
1471.139, 263.7188
1472.181, 363.1016
1473.222, 161.2461
1474.263, 235.4766
1475.305, 386.7031
1476.346, 158.4180
1477.386, 322.4766
1478.427, 288.7070
1479.468, 375.8828
1480.508, 334.0469
1481.548, 349.5664
1482.588, 378.4805
1483.628, 386.0430
1484.668, 448.3828
1485.707, 459.5195
1486.747, 372.0742
1487.786, 460.0820
1488.825, 492.3242
1489.864, 398.3398
1490.902, 466.4102
1491.941, 484.1641
1492.979, 496.4023
1494.017, 475.6328
1495.055, 524.4961
1496.093, 366.2148
1497.131, 447.1367
1498.168, 298.9180
1499.206, 309.2070
1500.243, 184.3398
1501.280, 335.3047
1502.317, 410.1211
1503.354, 416.9219
1504.390, 403.6992
1505.426, 313.8984
1506.463, 263.5977
1507.499, 245.3086
1508.535, 210.8398
1509.570, 551.7773
1510.606, 262.2422
1511.641, 438.4258
1512.676, 634.9688
1513.711, 500.9648
1514.746, 299.7812
1515.781, 389.1328
1516.816, 529.9023
1517.850, 364.9570
1518.884, 418.0000
1519.918, 384.5742
1520.952, 261.0859
1521.986, 393.5312
1523.019, 445.6055
1524.053, 294.8906
1525.086, 74.81641
1526.119, 149.0625
1527.152, 204.3086
1528.185, 625.5781
1529.217, 298.8125
1530.250, 475.0117
1531.282, 474.1992
1532.314, 241.3203
1533.346, 539.3672
1534.377, 217.3711
1535.409, 243.4766
1536.440, 304.6211
1537.472, 344.7188
1538.503, 445.7031
1539.534, 257.7695
1540.564, 174.7266
1541.595, 200.5703
1542.625, 291.6367
1543.656, 244.6758
1544.686, 362.6406
1545.716, 130.2930
1546.745, 359.2852
1547.775, 14.31250
1548.804, 351.8867
1549.834, 40.03125
1550.863, 250.1211
1551.892, 228.3477
1552.920, 426.6641
1553.949, 337.1055
1554.977, 392.6758
1556.006, 294.4180
1557.034, 2.636719
1558.062, 192.5586
1559.089, 480.8398
1560.117, 242.7070
1561.144, 48.14844
1562.172, 542.8633
1563.199, 108.6211
1564.226, 377.9531
1565.252, 172.1016
1566.279, 61.04297
1567.305, 385.1641
1568.332, 1.066406
1569.358, 163.1406
1570.384, 150.4609
1571.409, 0.0000000E+00
##END=



