##NAMES=Clinohumite
##RRUFFID=R040122
##IDEAL CHEMISTRY=Mg_9_(SiO_4_)_4_F_2_
##LOCALITY=Anzahamazonono,  Madagascar
##OWNER=RRUFF
##SOURCE=University of Arizona Mineral Museum
##DESCRIPTION=Orange-brown blebs embedded in calcite matrix
##STATUS=The identification of this mineral has been confirmed by X-ray diffraction and chemical analysis
##URL=rruff.info/R040122
##MEASURED CHEMISTRY=(Mg_0.96_Fe_0.02_Ti_0.01_Ca_0.01_)_9_(SiO_4_)_4_(F_0.59_(OH)_0.41_)_2_
##PIN_ID=M00126
##ORIENTATION=Laser parallel to -b* (0 -1 0). Fiducial mark perpendicular to laser is parallel to -c [0 0 -1]
124.2880, 0.0000000E+00
125.5190, 1.115723
126.7490, 0.7631840
127.9790, 34.96875
129.2090, 31.05713
130.4390, 62.17432
131.6680, 71.66699
132.8980, 2.853516
134.1270, 9.748535
135.3560, 92.50146
136.5850, 93.32666
137.8140, 165.5122
139.0430, 119.8857
140.2710, 247.3110
141.5000, 206.6729
142.7280, 275.8760
143.9560, 292.8379
145.1840, 250.4824
146.4120, 205.7461
147.6390, 268.5742
148.8670, 223.9219
150.0940, 214.8926
151.3210, 210.0391
152.5490, 174.7461
153.7750, 186.8467
155.0020, 178.3164
156.2290, 59.13086
157.4550, 257.2705
158.6810, 106.7158
159.9080, 132.4482
161.1340, 6.453125
162.3590, 196.7070
163.5850, 56.18652
164.8110, 200.8730
166.0360, 294.7549
167.2610, 132.8184
168.4860, 156.0557
169.7110, 238.4697
170.9360, 228.0654
172.1610, 325.8477
173.3850, 296.8125
174.6100, 402.9482
175.8340, 407.2529
177.0580, 582.7129
178.2820, 531.3203
179.5050, 743.0713
180.7290, 717.9541
181.9520, 932.9668
183.1760, 1042.102
184.3990, 1100.354
185.6220, 979.7197
186.8450, 993.1924
188.0670, 789.7705
189.2900, 674.4502
190.5120, 570.2285
191.7340, 487.2031
192.9560, 389.0645
194.1780, 417.1172
195.4000, 462.2578
196.6220, 479.4824
197.8430, 455.7617
199.0640, 604.0195
200.2860, 569.2725
201.5070, 634.5312
202.7270, 728.8057
203.9480, 688.1006
205.1690, 895.4209
206.3890, 847.7725
207.6090, 946.1592
208.8290, 1215.582
210.0490, 1322.045
211.2690, 1236.568
212.4890, 980.2373
213.7080, 929.0312
214.9280, 634.0615
216.1470, 522.1934
217.3660, 428.5312
218.5850, 373.0527
219.8030, 291.6484
221.0220, 223.3184
222.2400, 201.1543
223.4590, 293.7900
224.6770, 178.5908
225.8950, 115.4150
227.1120, 131.2646
228.3300, 319.1387
229.5480, 203.0371
230.7650, 224.9619
231.9820, 335.9092
233.1990, 181.8828
234.4160, 178.8809
235.6330, 306.9033
236.8490, 192.9502
238.0660, 234.0205
239.2820, 180.1152
240.4980, 225.2354
241.7140, 296.3779
242.9300, 252.5449
244.1460, 250.7373
245.3610, 389.9541
246.5770, 273.1973
247.7920, 335.4658
249.0070, 381.7598
250.2220, 402.0977
251.4370, 488.4609
252.6510, 527.8477
253.8660, 589.2617
255.0800, 663.7021
256.2940, 677.1699
257.5080, 656.6650
258.7220, 739.1885
259.9360, 679.6113
261.1490, 753.3223
262.3630, 611.9307
263.5760, 632.5693
264.7890, 620.2324
266.0020, 447.9248
267.2150, 400.6436
268.4270, 246.3877
269.6400, 314.1602
270.8520, 326.9590
272.0640, 457.9346
273.2760, 441.1611
274.4880, 327.6025
275.7000, 285.1973
276.9120, 371.9434
278.1230, 463.8223
279.3340, 544.8223
280.5450, 634.8359
281.7560, 698.0508
282.9670, 579.3623
284.1780, 675.7607
285.3880, 721.2432
286.5980, 680.8047
287.8090, 788.4404
289.0190, 737.1475
290.2290, 655.9199
291.4380, 593.7559
292.6480, 580.6514
293.8570, 516.9844
295.0670, 505.6133
296.2760, 448.9229
297.4850, 447.6348
298.6930, 441.8574
299.9020, 354.8789
301.1110, 474.6992
302.3190, 459.2881
303.5270, 436.7100
304.7350, 597.0879
305.9430, 457.6113
307.1510, 461.2617
308.3580, 251.1211
309.5660, 403.6250
310.7730, 277.3906
311.9800, 352.1875
313.1870, 314.3213
314.3940, 375.9658
315.6010, 448.1777
316.8070, 510.6562
318.0130, 422.3818
319.2200, 456.2803
320.4260, 426.6162
321.6310, 321.8564
322.8370, 399.4268
324.0430, 380.2715
325.2480, 416.1377
326.4540, 374.0234
327.6590, 195.9307
328.8640, 185.8564
330.0680, 282.8008
331.2730, 136.7637
332.4780, 381.7441
333.6820, 361.7432
334.8860, 403.7568
336.0900, 496.7871
337.2940, 420.8330
338.4980, 526.8916
339.7010, 627.9668
340.9050, 584.0547
342.1080, 703.1562
343.3110, 720.3213
344.5140, 749.3994
345.7170, 725.5400
346.9200, 672.6953
348.1220, 520.8623
349.3240, 555.0430
350.5270, 697.2393
351.7290, 533.4521
352.9310, 533.6826
354.1320, 456.9297
355.3340, 418.1895
356.5350, 396.4590
357.7370, 442.7432
358.9380, 294.0742
360.1390, 218.4189
361.3400, 359.7773
362.5400, 129.1807
363.7410, 157.5947
364.9410, 144.0537
366.1410, 258.5459
367.3410, 186.0664
368.5410, 194.5938
369.7410, 154.1465
370.9400, 132.7109
372.1400, 264.2812
373.3390, 257.4805
374.5380, 264.0684
375.7370, 300.6650
376.9360, 267.2705
378.1350, 278.5996
379.3330, 273.5957
380.5310, 263.3018
381.7300, 352.0684
382.9280, 352.9092
384.1260, 329.7539
385.3230, 495.6338
386.5210, 463.5537
387.7180, 499.4746
388.9160, 578.4121
390.1130, 461.3975
391.3100, 490.4131
392.5060, 710.4580
393.7030, 501.5391
394.9000, 555.6240
396.0960, 446.7393
397.2920, 492.8643
398.4880, 306.9883
399.6840, 423.1172
400.8800, 337.2490
402.0750, 238.3818
403.2710, 262.5439
404.4660, 286.7148
405.6610, 314.9072
406.8560, 425.0977
408.0510, 412.2979
409.2450, 586.4961
410.4400, 435.6914
411.6340, 579.8818
412.8280, 517.0693
414.0220, 635.2666
415.2160, 747.4707
416.4100, 660.6836
417.6030, 774.9023
418.7970, 772.1250
419.9900, 548.3711
421.1830, 611.6191
422.3760, 422.9072
423.5690, 601.3857
424.7610, 365.6416
425.9540, 335.9434
427.1460, 424.1963
428.3380, 373.6162
429.5300, 326.8633
430.7220, 309.2441
431.9140, 308.4834
433.1050, 247.3467
434.2970, 214.3662
435.4880, 131.1689
436.6790, 117.3867
437.8700, 30.68457
439.0610, 1.888672
440.2510, 25.91895
441.4420, 50.75000
442.6320, 93.61816
443.8220, 40.45312
445.0120, 3.584961
446.2020, 222.3906
447.3910, 50.50098
448.5810, 10.38379
449.7700, 141.7393
450.9600, 63.96191
452.1490, 104.7256
453.3370, 91.58105
454.5260, 42.99414
455.7150, 14.45020
456.9030, 59.06641
458.0910, 13.43066
459.2800, 48.95703
460.4670, 91.46875
461.6550, 15.88086
462.8430, 125.2764
464.0300, 184.6562
465.2180, 12.97656
466.4050, 224.3555
467.5920, 295.6729
468.7790, 180.9746
469.9650, 227.2617
471.1520, 143.5322
472.3380, 263.7861
473.5250, 256.0244
474.7110, 289.2451
475.8970, 544.4492
477.0820, 435.2051
478.2680, 490.9639
479.4540, 372.9541
480.6390, 469.0869
481.8240, 450.2021
483.0090, 523.2988
484.1940, 364.3760
485.3780, 480.4346
486.5630, 428.4727
487.7470, 364.6348
488.9320, 416.6709
490.1160, 358.6504
491.3000, 342.5322
492.4830, 356.4404
493.6670, 301.5010
494.8500, 227.6758
496.0340, 228.4219
497.2170, 115.7500
498.4000, 278.7520
499.5820, 294.8496
500.7650, 428.7080
501.9480, 191.4297
503.1300, 328.2070
504.3120, 439.2754
505.4940, 215.5625
506.6760, 380.6816
507.8580, 219.4727
509.0390, 284.3877
510.2210, 297.3359
511.4020, 344.9512
512.5830, 147.3984
513.7640, 214.2451
514.9450, 34.84766
516.1250, 242.6006
517.3060, 356.5107
518.4860, 238.9971
519.6660, 424.1729
520.8460, 441.6055
522.0260, 423.8271
523.2060, 534.4434
524.3850, 484.9912
525.5650, 568.6191
526.7440, 569.9707
527.9230, 767.7500
529.1020, 663.4873
530.2810, 821.7295
531.4590, 988.1279
532.6380, 852.0713
533.8160, 1146.516
534.9940, 1165.104
536.1720, 1153.104
537.3500, 1187.398
538.5270, 1180.988
539.7050, 1191.520
540.8820, 1188.973
542.0590, 1188.590
543.2360, 1211.386
544.4130, 1264.249
545.5900, 1255.400
546.7660, 1345.544
547.9430, 1287.856
549.1190, 1200.023
550.2950, 1257.290
551.4710, 1038.301
552.6470, 781.9746
553.8220, 892.8838
554.9980, 724.2666
556.1730, 451.7070
557.3480, 367.2803
558.5230, 451.8955
559.6980, 424.0137
560.8730, 400.6572
562.0470, 483.7754
563.2220, 312.3418
564.3960, 267.6963
565.5700, 383.6035
566.7440, 310.4678
567.9170, 388.3252
569.0910, 283.1055
570.2640, 389.8408
571.4380, 291.5342
572.6110, 339.1836
573.7840, 361.7900
574.9570, 442.3545
576.1290, 384.8750
577.3020, 390.3535
578.4740, 306.7891
579.6460, 422.1826
580.8180, 476.2861
581.9900, 458.9941
583.1620, 446.1992
584.3330, 295.6074
585.5040, 415.2188
586.6760, 395.0625
587.8470, 551.0732
589.0180, 651.1270
590.1880, 301.0293
591.3590, 699.8018
592.5290, 296.3613
593.7000, 441.2666
594.8700, 439.9043
596.0400, 605.5020
597.2090, 566.7549
598.3790, 693.4873
599.5490, 935.6396
600.7180, 890.5156
601.8870, 901.1299
603.0560, 1061.562
604.2250, 1318.099
605.3940, 1262.600
606.5620, 1374.314
607.7300, 1220.736
608.8990, 1151.122
610.0670, 1240.469
611.2350, 1056.777
612.4020, 910.0469
613.5700, 827.2812
614.7370, 832.4766
615.9050, 631.6328
617.0720, 555.7520
618.2390, 395.8320
619.4060, 558.8770
620.5720, 493.8809
621.7390, 358.8516
622.9050, 465.7812
624.0710, 263.6758
625.2370, 273.5332
626.4030, 366.3516
627.5690, 222.1328
628.7340, 246.8750
629.9000, 268.5840
631.0650, 160.2520
632.2300, 134.8828
633.3950, 79.47070
634.5600, 72.01172
635.7240, 94.50586
636.8890, 136.9551
638.0530, 208.3652
639.2170, 179.4961
640.3810, 80.92969
641.5450, 83.28906
642.7080, 77.46289
643.8720, 87.40820
645.0350, 112.6016
646.1980, 90.42578
647.3610, 38.57031
648.5240, 25.80664
649.6870, 152.8770
650.8490, 23.47852
652.0120, 32.08594
653.1740, 153.5977
654.3360, 59.07422
655.4980, 47.88867
656.6600, 39.27344
657.8210, 54.61523
658.9830, 26.08984
660.1440, 190.8691
661.3050, 21.18750
662.4660, 164.8066
663.6270, 228.9453
664.7870, 114.7324
665.9480, 85.62500
667.1080, 94.08398
668.2680, 73.34766
669.4280, 9.255859
670.5880, 140.9199
671.7480, 71.71680
672.9070, 65.60156
674.0670, 101.5762
675.2260, 25.34570
676.3850, 84.77539
677.5440, 6.990234
678.7030, 175.7402
679.8610, 2.441406
681.0200, 23.09570
682.1780, 10.71680
683.3360, 89.70508
684.4940, 15.21680
685.6520, 67.78125
686.8090, 16.57617
687.9670, 23.09766
689.1240, 9.173828
690.2810, 24.41211
691.4380, 78.61914
692.5950, 20.80078
693.7520, 37.04883
694.9080, 96.04492
696.0650, 51.11523
697.2210, 28.16016
698.3770, 193.1758
699.5330, 67.83008
700.6880, 108.0977
701.8440, 2.003906
702.9990, 24.84766
704.1550, 189.4746
705.3100, 181.3066
706.4650, 103.0645
707.6190, 175.8535
708.7740, 161.4531
709.9290, 228.1992
711.0830, 200.7910
712.2370, 225.5000
713.3910, 317.1895
714.5450, 117.8613
715.6980, 325.5176
716.8520, 153.1523
718.0050, 364.6875
719.1580, 453.2910
720.3110, 453.8809
721.4640, 522.4629
722.6170, 683.0430
723.7700, 638.5371
724.9220, 915.1250
726.0740, 862.7109
727.2260, 995.3379
728.3780, 1238.953
729.5300, 1272.549
730.6810, 1566.178
731.8330, 1618.811
732.9840, 1982.461
734.1350, 1989.148
735.2860, 2361.840
736.4370, 2360.555
737.5880, 2643.258
738.7380, 3084.959
739.8880, 3034.664
741.0390, 3117.361
742.1890, 3335.045
743.3380, 3341.721
744.4880, 3357.387
745.6380, 3572.074
746.7870, 3763.754
747.9360, 3967.426
749.0850, 3909.086
750.2340, 4158.738
751.3830, 3808.385
752.5310, 3845.023
753.6800, 3839.654
754.8280, 3752.277
755.9760, 3593.896
757.1240, 3423.504
758.2720, 3261.109
759.4190, 3072.707
760.5670, 2858.305
761.7140, 2640.898
762.8610, 2524.912
764.0080, 2369.621
765.1550, 2306.678
766.3020, 2179.127
767.4480, 2086.678
768.5950, 2060.260
769.7410, 2094.465
770.8870, 2091.561
772.0330, 2185.039
773.1780, 2354.383
774.3240, 2733.131
775.4690, 3242.273
776.6140, 3527.721
777.7590, 3692.047
778.9040, 4336.602
780.0490, 4619.273
781.1940, 5101.879
782.3380, 5484.174
783.4820, 6118.227
784.6260, 6389.445
785.7700, 6242.002
786.9140, 5910.422
788.0580, 5771.783
789.2010, 5034.461
790.3450, 4782.312
791.4880, 4318.742
792.6310, 4173.396
793.7730, 3832.873
794.9160, 3607.168
796.0590, 3661.869
797.2010, 3615.861
798.3430, 3419.578
799.4850, 3694.494
800.6270, 3987.994
801.7690, 4128.586
802.9100, 4667.078
804.0520, 5327.826
805.1930, 5712.123
806.3340, 6337.441
807.4750, 6568.246
808.6160, 6403.875
809.7560, 6583.938
810.8970, 6262.479
812.0370, 6123.855
813.1770, 5933.803
814.3170, 5617.434
815.4570, 5708.049
816.5960, 5821.105
817.7360, 5994.539
818.8750, 5889.818
820.0140, 6066.932
821.1530, 6418.994
822.2920, 6965.859
823.4310, 7710.566
824.5690, 8839.180
825.7070, 10432.92
826.8460, 12054.54
827.9840, 13584.40
829.1220, 14872.58
830.2590, 15614.51
831.3970, 15385.94
832.5340, 14464.30
833.6710, 13539.50
834.8080, 12691.65
835.9450, 11939.29
837.0820, 11574.38
838.2190, 12193.98
839.3550, 12858.11
840.4910, 14193.43
841.6270, 15575.19
842.7630, 17423.98
843.8990, 19283.77
845.0350, 20563.62
846.1700, 21505.50
847.3060, 21322.41
848.4410, 20659.34
849.5760, 19578.30
850.7100, 18735.28
851.8450, 18658.30
852.9800, 18808.33
854.1140, 20315.76
855.2480, 22309.85
856.3820, 24779.96
857.5160, 28286.27
858.6500, 31041.44
859.7830, 33270.79
860.9170, 32741.00
862.0500, 30760.19
863.1830, 26971.45
864.3160, 23463.74
865.4480, 19797.06
866.5810, 16845.41
867.7130, 14548.78
868.8460, 12590.20
869.9780, 11011.36
871.1100, 10184.85
872.2410, 9368.996
873.3730, 8823.551
874.5050, 8407.129
875.6360, 7947.734
876.7670, 7254.367
877.8980, 6596.020
879.0290, 5837.703
880.1590, 5243.410
881.2900, 4787.168
882.4200, 4175.098
883.5500, 3767.879
884.6800, 3312.689
885.8100, 3012.523
886.9400, 2706.766
888.0690, 2431.652
889.1990, 2083.570
890.3280, 2123.510
891.4570, 1774.477
892.5860, 1571.467
893.7140, 1695.480
894.8430, 1492.521
895.9710, 1308.188
897.1000, 1349.275
898.2280, 1245.465
899.3560, 1159.600
900.4830, 1232.676
901.6110, 1116.621
902.7380, 952.1543
903.8660, 995.4648
904.9930, 969.0020
906.1200, 888.7305
907.2460, 947.8574
908.3730, 859.9746
909.5000, 828.4023
910.6260, 689.8594
911.7520, 819.3770
912.8780, 623.8848
914.0040, 669.4277
915.1290, 901.0254
916.2550, 681.5762
917.3800, 695.2285
918.5050, 606.9648
919.6300, 676.1465
920.7550, 627.0957
921.8800, 586.0137
923.0040, 848.9199
924.1290, 741.8535
925.2530, 794.7363
926.3770, 847.7441
927.5010, 1086.000
928.6250, 963.0566
929.7480, 1025.146
930.8720, 1245.000
931.9950, 1142.340
933.1180, 1123.625
934.2410, 1055.174
935.3640, 672.4727
936.4860, 812.1738
937.6090, 472.6465
938.7310, 607.1426
939.8530, 328.6934
940.9750, 460.3027
942.0970, 497.1094
943.2180, 600.7754
944.3400, 594.5078
945.4610, 417.3906
946.5820, 615.2188
947.7030, 555.1660
948.8240, 607.0762
949.9450, 699.0371
951.0650, 858.2305
952.1860, 777.2207
953.3060, 1026.191
954.4260, 1267.414
955.5460, 1545.775
956.6650, 1453.020
957.7850, 1845.967
958.9040, 2445.355
960.0230, 3097.576
961.1420, 3783.463
962.2610, 4790.729
963.3800, 5788.012
964.4990, 7065.309
965.6170, 8295.619
966.7350, 9014.963
967.8530, 9298.680
968.9710, 8791.926
970.0890, 7500.127
971.2070, 6058.518
972.3240, 4748.941
973.4410, 3599.428
974.5580, 2793.875
975.6750, 2230.582
976.7920, 1635.348
977.9090, 1522.201
979.0250, 836.6934
980.1410, 984.1953
981.2580, 609.9453
982.3740, 629.4648
983.4890, 265.9922
984.6050, 300.5273
985.7200, 401.8828
986.8360, 173.4355
987.9510, 26.00781
989.0660, 239.5527
990.1810, 53.11914
991.2950, 14.30469
992.4100, 134.2734
993.5240, 12.14258
994.6390, 80.44531
995.7530, 75.96094
996.8660, 45.61719
997.9800, 8.203125
999.0940, 70.79297
1000.207, 21.51562
1001.320, 151.5410
1002.433, 122.0664
1003.546, 125.0840
1004.659, 271.9043
1005.772, 154.5527
1006.884, 13.96289
1007.996, 220.4785
1009.108, 27.21680
1010.220, 125.7363
1011.332, 192.2930
1012.444, 189.9160
1013.555, 76.86523
1014.666, 118.6094
1015.777, 8.878906
1016.888, 212.6016
1017.999, 51.33398
1019.110, 70.20312
1020.220, 16.71680
1021.331, 113.1738
1022.441, 33.28320
1023.551, 77.76172
1024.661, 64.32422
1025.770, 36.80273
1026.880, 29.43359
1027.989, 17.76562
1029.098, 42.76172
1030.207, 19.69141
1031.316, 29.86133
1032.425, 94.57227
1033.533, 42.71094
1034.642, 65.69531
1035.750, 98.61914
1036.858, 4.017578
1037.966, 60.59180
1039.073, 5.591797
1040.181, 98.82227
1041.288, 11.52344
1042.396, 166.3750
1043.503, 138.6543
1044.610, 14.08203
1045.716, 120.3438
1046.823, 31.40039
1047.929, 244.2305
1049.036, 60.54688
1050.142, 111.9980
1051.248, 34.16602
1052.353, 65.40820
1053.459, 107.3262
1054.564, 25.07227
1055.670, 112.0059
1056.775, 182.4258
1057.880, 99.44727
1058.985, 154.4688
1060.089, 14.68945
1061.194, 83.61523
1062.298, 263.0117
1063.402, 5.103516
1064.506, 21.08008
1065.610, 47.22852
1066.713, 17.73047
1067.817, 99.17969
1068.920, 144.0117
1070.023, 118.6934
1071.126, 149.8379
1072.229, 281.8262
1073.332, 129.4902
1074.435, 9.578125
1075.537, 159.1094
1076.639, 97.71094
1077.741, 73.29102
1078.843, 288.0293
1079.945, 86.58008
1081.046, 129.1113
1082.148, 117.6250
1083.249, 59.12305
1084.350, 46.40039
1085.451, 60.76367
1086.551, 79.13281
1087.652, 112.0195
1088.752, 29.04297
1089.853, 70.93164
1090.953, 21.40234
1092.053, 168.4023
1093.152, 36.81445
1094.252, 322.7676
1095.351, 230.1445
1096.451, 185.4395
1097.550, 433.3320
1098.649, 404.5684
1099.748, 54.41602
1100.846, 37.24219
1101.945, 40.03711
1103.043, 145.8027
1104.141, 302.7500
1105.239, 135.4727
1106.337, 211.1719
1107.434, 91.84961
1108.532, 81.50195
1109.629, 52.87109
1110.726, 198.6777
1111.823, 168.2070
1112.920, 100.7109
1114.017, 302.1895
1115.113, 190.6484
1116.210, 211.0820
1117.306, 53.49414
1118.402, 347.8789
1119.498, 258.2363
1120.593, 482.2031
1121.689, 412.5137
1122.784, 432.7988
1123.879, 292.9512
1124.974, 433.1914
1126.069, 364.2441
1127.164, 457.4355
1128.259, 398.4238
1129.353, 336.3281
1130.447, 268.9863
1131.541, 149.9121
1132.635, 82.98242
1133.729, 52.97461
1134.822, 24.98047
1135.916, 41.22852
1137.009, 28.10156
1138.102, 224.3105
1139.195, 204.1152
1140.288, 43.89648
1141.380, 351.6406
1142.473, 173.3594
1143.565, 158.0527
1144.657, 83.80859
1145.749, 273.4688
1146.841, 121.5137
1147.932, 232.5645
1149.024, 123.5840
1150.115, 92.13867
1151.206, 69.66406
1152.297, 86.47656
1153.388, 69.22070
1154.479, 194.0234
1155.569, 169.4355
1156.659, 217.8340
1157.750, 187.2090
1158.839, 302.6816
1159.929, 213.0020
1161.019, 281.7910
1162.108, 234.0605
1163.198, 267.2305
1164.287, 46.55078
1165.376, 359.6992
1166.465, 35.18750
1167.553, 314.8516
1168.642, 232.8398
1169.730, 69.60156
1170.818, 91.16797
1171.906, 397.2441
1172.994, 68.42578
1174.082, 423.6250
1175.170, 155.4688
1176.257, 283.2520
1177.344, 215.0410
1178.431, 96.79297
1179.518, 303.5293
1180.605, 102.3145
1181.691, 334.9980
1182.778, 127.7559
1183.864, 44.94727
1184.950, 129.6211
1186.036, 164.2188
1187.122, 80.85156
1188.207, 148.4551
1189.292, 256.1250
1190.378, 101.7090
1191.463, 256.2598
1192.548, 73.27539
1193.632, 140.7910
1194.717, 163.5352
1195.801, 119.4297
1196.886, 142.1387
1197.970, 164.2754
1199.054, 218.6758
1200.137, 296.7246
1201.221, 69.55078
1202.305, 103.8730
1203.388, 297.3320
1204.471, 111.6035
1205.554, 159.6758
1206.637, 213.8965
1207.719, 325.0918
1208.802, 137.1699
1209.884, 532.3223
1210.966, 258.3906
1212.048, 495.4961
1213.130, 217.5781
1214.212, 258.4355
1215.293, 123.9297
1216.374, 5.8590001E-03
1217.456, 352.8164
1218.536, 265.4902
1219.617, 208.3066
1220.698, 75.53906
1221.778, 257.2324
1222.859, 44.09570
1223.939, 258.2930
1225.019, 42.11133
1226.099, 57.27539
1227.178, 303.6758
1228.258, 61.42773
1229.337, 217.1523
1230.417, 358.4980
1231.496, 193.3047
1232.574, 368.2480
1233.653, 99.89258
1234.732, 253.5195
1235.810, 226.0820
1236.888, 291.6699
1237.966, 446.9941
1239.044, 255.2520
1240.122, 458.4082
1241.199, 272.0566
1242.277, 225.5449
1243.354, 188.7793
1244.431, 256.4121
1245.508, 319.8457
1246.585, 500.9453
1247.661, 386.5293
1248.738, 460.9043
1249.814, 303.2637
1250.890, 549.6074
1251.966, 281.9297
1253.042, 127.2383
1254.117, 488.5273
1255.193, 191.8047
1256.268, 342.3477
1257.343, 182.5820
1258.418, 129.9902
1259.493, 272.1953
1260.567, 8.0077998E-02
1261.642, 461.3105
1262.716, 201.0273
1263.790, 267.2305
1264.864, 130.1309
1265.938, 322.8203
1267.011, 328.9375
1268.085, 228.0391
1269.158, 239.1230
1270.231, 228.7637
1271.304, 160.1289
1272.377, 252.2031
1273.450, 121.7949
1274.522, 138.3633
1275.594, 33.34375
1276.666, 6.312500
1277.738, 33.27344
1278.810, 279.9648
1279.882, 160.5078
1280.953, 169.8164
1282.025, 7.707031
1283.096, 50.22656
1284.167, 185.0703
1285.238, 301.2891
1286.308, 319.1055
1287.379, 109.8906
1288.449, 416.6797
1289.519, 116.4453
1290.589, 252.2031
1291.659, 335.1484
1292.729, 168.8789
1293.798, 201.3125
1294.868, 226.4766
1295.937, 173.6523
1297.006, 304.3359
1298.075, 221.0078
1299.143, 388.0352
1300.212, 43.73438
1301.280, 329.9141
1302.348, 49.05078
1303.416, 193.6758
1304.484, 159.1250
1305.552, 387.7188
1306.620, 244.5234
1307.687, 243.9062
1308.754, 473.7031
1309.821, 251.9062
1310.888, 99.46484
1311.955, 207.7422
1313.021, 88.66016
1314.088, 196.4531
1315.154, 172.9492
1316.220, 203.0820
1317.286, 402.4883
1318.352, 243.4102
1319.417, 118.3555
1320.483, 39.05469
1321.548, 252.3633
1322.613, 371.6055
1323.678, 501.3008
1324.743, 576.0195
1325.807, 412.6719
1326.872, 550.1719
1327.936, 312.5703
1329.000, 40.00000
1330.064, 324.9727
1331.128, 114.0742
1332.191, 171.4766
1333.255, 328.5898
1334.318, 351.0195
1335.381, 311.4023
1336.444, 185.4375
1337.507, 205.7422
1338.569, 327.1016
1339.632, 433.4531
1340.694, 354.0430
1341.756, 420.4609
1342.818, 48.78516
1343.880, 436.3047
1344.941, 182.7188
1346.003, 355.1016
1347.064, 199.6172
1348.125, 126.0352
1349.186, 317.1719
1350.247, 317.6133
1351.308, 204.6094
1352.368, 298.0430
1353.428, 263.1172
1354.489, 215.0469
1355.549, 277.4492
1356.608, 295.4766
1357.668, 275.2461
1358.727, 208.6289
1359.787, 133.0039
1360.846, 344.3789
1361.905, 178.5117
1362.964, 440.8516
1364.022, 402.1719
1365.081, 298.4961
1366.139, 388.8125
1367.197, 309.1133
1368.255, 122.4180
1369.313, 493.7344
1370.371, 303.0234
1371.428, 112.3125
1372.486, 245.5859
1373.543, 13.85547
1374.600, 233.1172
1375.657, 272.3750
1376.713, 457.6328
1377.770, 157.9922
1378.826, 422.2344
1379.882, 283.4727
1380.938, 384.6289
1381.994, 155.6875
1383.050, 88.73828
1384.106, 241.7266
1385.161, 113.6836
1386.216, 200.5742
1387.271, 13.50391
1388.326, 110.5703
1389.381, 178.4570
1390.435, 256.3398
1391.490, 149.2461
1392.544, 291.1250
1393.598, 160.0234
1394.652, 335.9141
1395.705, 197.7969
1396.759, 389.6641
1397.812, 132.5273
1398.866, 140.3828
1399.919, 61.77344
1400.972, 229.9727
1402.024, 279.7773
1403.077, 102.1367
1404.129, 330.2969
1405.181, 228.6289
1406.233, 248.3906
1407.285, 203.1406
1408.337, 270.8750
1409.389, 14.62891
1410.440, 272.9805
1411.491, 42.62109
1412.542, 218.0586
1413.593, 289.0664
1414.644, 189.5898
1415.695, 327.2305
1416.745, 190.7617
1417.795, 111.3867
1418.845, 345.0039
1419.895, 263.6133
1420.945, 50.24609
1421.995, 332.1523
1423.044, 173.7969
1424.093, 235.7031
1425.142, 197.3438
1426.191, 163.9805
1427.240, 291.7109
1428.289, 127.5977
1429.337, 200.8984
1430.385, 297.7852
1431.433, 161.6602
1432.481, 103.4805
1433.529, 108.0859
1434.577, 100.6992
1435.624, 234.3047
1436.672, 199.9023
1437.719, 157.5898
1438.766, 101.8125
1439.812, 204.8984
1440.859, 209.5781
1441.905, 160.0586
1442.952, 494.4961
1443.998, 104.0352
1445.044, 341.3359
1446.090, 20.92969
1447.135, 73.15625
1448.181, 515.6445
1449.226, 67.90234
1450.271, 4.148438
1451.316, 95.37109
1452.361, 23.89844
1453.405, 228.1445
1454.450, 196.3555
1455.494, 245.5586
1456.538, 412.7617
1457.582, 211.9570
1458.626, 242.6680
1459.670, 131.8594
1460.713, 266.0547
1461.757, 21.11719
1462.800, 133.3047
1463.843, 164.4883
1464.886, 172.6719
1465.928, 101.8516
1466.971, 141.9141
1468.013, 457.0859
1469.055, 67.24609
1470.097, 185.4062
1471.139, 404.3867
1472.181, 139.5352
1473.222, 260.4453
1474.263, 316.7188
1475.305, 431.8438
1476.346, 492.9609
1477.386, 361.0742
1478.427, 536.7891
1479.468, 326.6484
1480.508, 349.8164
1481.548, 360.6523
1482.588, 77.71484
1483.628, 234.8320
1484.668, 428.9492
1485.707, 504.9219
1486.747, 333.1641
1487.786, 271.2109
1488.825, 244.9219
1489.864, 477.9922
1490.902, 532.0703
1491.941, 519.1094
1492.979, 368.7852
1494.017, 161.8047
1495.055, 255.8359
1496.093, 296.5586
1497.131, 446.8594
1498.168, 351.8984
1499.206, 614.9414
1500.243, 450.0117
1501.280, 298.9102
1502.317, 145.0156
1503.354, 470.3594
1504.390, 616.0430
1505.426, 453.1602
1506.463, 355.1719
1507.499, 448.6836
1508.535, 228.8672
1509.570, 473.3477
1510.606, 314.0000
1511.641, 273.0078
1512.676, 323.1953
1513.711, 220.3086
1514.746, 222.3867
1515.781, 305.4180
1516.816, 323.1602
1517.850, 244.3398
1518.884, 305.1914
1519.918, 325.2070
1520.952, 324.9648
1521.986, 326.8086
1523.019, 306.9102
1524.053, 320.4258
1525.086, 290.8672
1526.119, 365.2344
1527.152, 462.5430
1528.185, 278.6875
1529.217, 467.7891
1530.250, 117.9648
1531.282, 231.0430
1532.314, 208.0234
1533.346, 353.9922
1534.377, 244.8984
1535.409, 8.292969
1536.440, 201.3750
1537.472, 33.49609
1538.503, 245.8594
1539.534, 157.6719
1540.564, 478.2422
1541.595, 308.1484
1542.625, 280.2109
1543.656, 287.3477
1544.686, 168.4844
1545.716, 50.69531
1546.745, 175.9805
1547.775, 55.32812
1548.804, 331.7422
1549.834, 379.2344
1550.863, 174.8828
1551.892, 63.62891
1552.920, 341.5820
1553.949, 60.98438
1554.977, 63.66406
1556.006, 78.98828
1557.034, 236.5195
1558.062, 208.2344
1559.089, 333.4766
1560.117, 185.5977
1561.144, 97.42578
1562.172, 405.2422
1563.199, 41.44531
1564.226, 534.9961
1565.252, 409.0820
1566.279, 8.636719
1567.305, 427.2539
1568.332, 764.1289
1569.358, 163.4922
1570.384, 0.3320310
1571.409, 0.0000000E+00
##END=



