##NAMES=Clinoptilolite-Ca
##RRUFFID=R060662
##IDEAL CHEMISTRY=Ca_3_(Si_30_Al_6_)O_72_&#183;20H_2_O
##LOCALITY=Succor Creek, Malheur County, Oregon, USA
##OWNER=RRUFF
##SOURCE=Michael Scott
##DESCRIPTION=Group of colorless platy prismatic crystals
##STATUS=The identification of this mineral has been confirmed by X-ray diffraction and chemical analysis
##URL=rruff.info/R060662
##MEASURED CHEMISTRY=(Ca_1.02_Na_0.97_K_0.59_)_Σ=2.58_(Si_14.40_Al_3.60_)_Σ=18_O_36_·10.96H_2_O
##PIN_ID=M00397
##ORIENTATION=Laser parallel to c* (0 0 1). Fiducial mark perpendicular to laser is parallel to -a [-1 0 0]
84.83700, 0.0000000E+00
86.07200, 59.52539
87.30800, 238.5645
88.54200, 618.0352
89.77700, 1244.227
91.01200, 1873.484
92.24600, 2393.246
93.48000, 2990.111
94.71400, 3500.184
95.94800, 3995.535
97.18200, 4404.910
98.41600, 4847.223
99.64900, 5195.090
100.8830, 5608.049
102.1160, 6289.494
103.3490, 6558.908
104.5820, 6933.102
105.8150, 7793.496
107.0470, 9032.410
108.2800, 9870.828
109.5120, 9464.191
110.7440, 9214.314
111.9760, 9352.404
113.2080, 9931.035
114.4400, 10472.77
115.6710, 11054.18
116.9030, 11483.46
118.1340, 11595.51
119.3650, 11869.10
120.5960, 12425.05
121.8270, 12893.99
123.0580, 13588.99
124.2880, 14451.77
125.5190, 15016.69
126.7490, 15920.06
127.9790, 16939.15
129.2090, 17773.21
130.4390, 18870.47
131.6680, 19425.11
132.8980, 20653.30
134.1270, 21631.19
135.3560, 22195.89
136.5850, 22778.90
137.8140, 23065.12
139.0430, 23599.09
140.2710, 23392.38
141.5000, 23390.91
142.7280, 22864.75
143.9560, 22804.73
145.1840, 22083.72
146.4120, 21868.88
147.6390, 20768.98
148.8670, 20328.76
150.0940, 19792.99
151.3210, 18920.30
152.5490, 18384.12
153.7750, 17492.99
155.0020, 17028.93
156.2290, 15903.17
157.4550, 15263.21
158.6810, 14605.57
159.9080, 13917.39
161.1340, 13270.75
162.3590, 12513.39
163.5850, 12056.88
164.8110, 11231.81
166.0360, 10691.23
167.2610, 9988.152
168.4860, 9226.605
169.7110, 9130.576
170.9360, 8370.057
172.1610, 7588.037
173.3850, 7383.502
174.6100, 6716.434
175.8340, 6124.811
177.0580, 5644.602
178.2820, 5096.070
179.5050, 4531.318
180.7290, 4209.201
181.9520, 3724.400
183.1760, 3422.896
184.3990, 3031.678
185.6220, 2649.721
186.8450, 2587.082
188.0670, 2164.924
189.2900, 2189.762
190.5120, 1791.652
191.7340, 1832.348
192.9560, 1683.955
194.1780, 1568.775
195.4000, 1452.904
196.6220, 1370.900
197.8430, 1328.920
199.0640, 1177.967
200.2860, 1174.670
201.5070, 924.1836
202.7270, 612.0371
203.9480, 233.9219
205.1690, 39.16602
206.3890, 234.2305
207.6090, 365.2734
208.8290, 401.3008
210.0490, 529.3164
211.2690, 627.3281
212.4890, 510.3438
213.7080, 650.3398
214.9280, 645.8223
216.1470, 819.5410
217.3660, 709.6855
218.5850, 903.8945
219.8030, 944.4043
221.0220, 951.4023
222.2400, 906.0312
223.4590, 821.3242
224.6770, 602.4102
225.8950, 833.3926
227.1120, 755.3320
228.3300, 502.0547
229.5480, 300.5176
230.7650, 222.4688
231.9820, 43.32617
233.1990, 179.3691
234.4160, 435.2383
235.6330, 638.0566
236.8490, 839.9160
238.0660, 1390.201
239.2820, 1632.461
240.4980, 2003.354
241.7140, 2331.621
242.9300, 2565.029
244.1460, 2840.422
245.3610, 3159.637
246.5770, 3294.553
247.7920, 3785.102
249.0070, 3667.148
250.2220, 3891.629
251.4370, 4047.461
252.6510, 3868.553
253.8660, 4080.854
255.0800, 3941.324
256.2940, 3783.930
257.5080, 4086.639
258.7220, 4443.428
259.9360, 4343.285
261.1490, 3976.178
262.3630, 3538.076
263.5760, 3491.930
264.7890, 3439.672
266.0020, 3299.250
267.2150, 3078.594
268.4270, 2945.697
269.6400, 2735.564
270.8520, 2430.240
272.0640, 2361.703
273.2760, 2208.043
274.4880, 1910.211
275.7000, 1604.229
276.9120, 1589.102
278.1230, 1365.828
279.3340, 1146.434
280.5450, 990.8945
281.7560, 965.2148
282.9670, 646.3887
284.1780, 819.4219
285.3880, 653.2871
286.5980, 450.9824
287.8090, 334.4883
289.0190, 566.7891
290.2290, 399.9082
291.4380, 493.7812
292.6480, 123.1152
293.8570, 131.7051
295.0670, 110.4453
296.2760, 327.2637
297.4850, 147.0938
298.6930, 155.7617
299.9020, 196.2949
301.1110, 85.95312
302.3190, 63.65039
303.5270, 52.89258
304.7350, 37.66602
305.9430, 26.41406
307.1510, 118.0312
308.3580, 122.5410
309.5660, 215.9414
310.7730, 49.24805
311.9800, 422.4180
313.1870, 308.5215
314.3940, 560.5410
315.6010, 483.5020
316.8070, 733.3906
318.0130, 899.2324
319.2200, 975.0234
320.4260, 1010.764
321.6310, 1191.336
322.8370, 1293.645
324.0430, 1534.639
325.2480, 1634.145
326.4540, 1898.588
327.6590, 2160.965
328.8640, 2140.277
330.0680, 2118.520
331.2730, 2253.691
332.4780, 2475.744
333.6820, 2595.693
334.8860, 2606.457
336.0900, 2729.656
337.2940, 2867.240
338.4980, 2792.281
339.7010, 2718.018
340.9050, 2662.428
342.1080, 2761.533
343.3110, 2871.387
344.5140, 2961.018
345.7170, 2978.508
346.9200, 2964.906
348.1220, 3083.242
349.3240, 3270.521
350.5270, 3420.359
351.7290, 3699.121
352.9310, 3926.102
354.1320, 3925.914
355.3340, 4128.564
356.5350, 4488.664
357.7370, 4516.947
358.9380, 4780.211
360.1390, 5072.492
361.3400, 5384.361
362.5400, 5680.428
363.7410, 6109.883
364.9410, 6559.744
366.1410, 6850.633
367.3410, 7184.721
368.5410, 7553.254
369.7410, 8047.486
370.9400, 8480.098
372.1400, 8845.215
373.3390, 9307.133
374.5380, 9979.066
375.7370, 10650.27
376.9360, 11359.06
378.1350, 12141.09
379.3330, 12932.51
380.5310, 13609.82
381.7300, 14718.09
382.9280, 15471.20
384.1260, 16475.71
385.3230, 17823.08
386.5210, 19077.75
387.7180, 20506.10
388.9160, 21959.60
390.1130, 23485.22
391.3100, 25056.49
392.5060, 26724.18
393.7030, 28411.17
394.9000, 30089.81
396.0960, 32027.82
397.2920, 33447.92
398.4880, 34688.81
399.6840, 35680.04
400.8800, 36417.18
402.0750, 36843.71
403.2710, 36867.47
404.4660, 36892.67
405.6610, 36181.14
406.8560, 35075.18
408.0510, 33999.29
409.2450, 32683.14
410.4400, 30904.14
411.6340, 29651.38
412.8280, 27709.55
414.0220, 26223.32
415.2160, 24434.86
416.4100, 23033.15
417.6030, 21266.25
418.7970, 19920.66
419.9900, 17955.71
421.1830, 16897.31
422.3760, 15385.56
423.5690, 14319.57
424.7610, 13031.64
425.9540, 11660.62
427.1460, 10760.95
428.3380, 9758.662
429.5300, 8651.613
430.7220, 8007.197
431.9140, 7268.604
433.1050, 6763.396
434.2970, 6008.861
435.4880, 5451.451
436.6790, 5124.133
437.8700, 4786.652
439.0610, 4285.621
440.2510, 4010.691
441.4420, 3775.631
442.6320, 3620.637
443.8220, 3486.176
445.0120, 3049.932
446.2020, 3015.184
447.3910, 3019.559
448.5810, 2829.803
449.7700, 2932.145
450.9600, 3026.391
452.1490, 2923.631
453.3370, 3323.061
454.5260, 3505.832
455.7150, 3803.389
456.9030, 4158.867
458.0910, 4648.350
459.2800, 5381.945
460.4670, 5895.959
461.6550, 6395.320
462.8430, 7028.617
464.0300, 7659.855
465.2180, 8620.031
466.4050, 9470.146
467.5920, 10219.20
468.7790, 11644.20
469.9650, 13160.13
471.1520, 14403.00
472.3380, 16223.82
473.5250, 17969.57
474.7110, 20209.27
475.8970, 22490.90
477.0820, 24167.48
478.2680, 25983.00
479.4540, 27634.46
480.6390, 29291.86
481.8240, 29270.21
483.0090, 29348.51
484.1940, 28617.75
485.3780, 27552.94
486.5630, 25424.09
487.7470, 23636.18
488.9320, 21137.22
490.1160, 18539.22
491.3000, 15986.16
492.4830, 13805.06
493.6670, 11889.94
494.8500, 9826.822
496.0340, 8243.752
497.2170, 6909.734
498.4000, 5698.797
499.5820, 4867.967
500.7650, 4127.213
501.9480, 3440.576
503.1300, 2887.129
504.3120, 2429.680
505.4940, 2038.441
506.6760, 1708.383
507.8580, 1533.512
509.0390, 1163.832
510.2210, 1079.553
511.4020, 776.4336
512.5830, 833.8105
513.7640, 695.2539
514.9450, 533.1328
516.1250, 515.2461
517.3060, 302.6582
518.4860, 375.9648
519.6660, 39.35156
520.8460, 154.5879
522.0260, 255.4316
523.2060, 234.4746
524.3850, 22.41211
525.5650, 103.7305
526.7440, 40.21484
527.9230, 57.00195
529.1020, 85.55078
530.2810, 72.23828
531.4590, 48.05273
532.6380, 134.3672
533.8160, 100.0488
534.9940, 106.6172
536.1720, 102.4824
537.3500, 88.55469
538.5270, 50.39453
539.7050, 32.44922
540.8820, 170.6074
542.0590, 54.15039
543.2360, 140.3379
544.4130, 27.86133
545.5900, 189.1016
546.7660, 108.4004
547.9430, 182.6523
549.1190, 24.52344
550.2950, 56.80859
551.4710, 116.3320
552.6470, 50.05078
553.8220, 3.412109
554.9980, 125.3652
556.1730, 19.56445
557.3480, 312.0742
558.5230, 87.68750
559.6980, 141.7227
560.8730, 138.0273
562.0470, 84.57031
563.2220, 176.5391
564.3960, 79.04297
565.5700, 65.91992
566.7440, 32.58984
567.9170, 57.83984
569.0910, 77.08398
570.2640, 36.81641
571.4380, 126.4883
572.6110, 99.32617
573.7840, 100.9336
574.9570, 89.63477
576.1290, 51.16602
577.3020, 33.80859
578.4740, 424.6738
579.6460, 478.1875
580.8180, 162.7344
581.9900, 674.2656
583.1620, 633.8262
584.3330, 548.4160
585.5040, 615.0234
586.6760, 891.6777
587.8470, 849.3809
589.0180, 995.1387
590.1880, 930.9551
591.3590, 1195.838
592.5290, 1260.762
593.7000, 1475.727
594.8700, 1703.711
596.0400, 1939.762
597.2090, 2211.668
598.3790, 2416.846
599.5490, 2781.869
600.7180, 2965.877
601.8870, 3243.855
603.0560, 3538.801
604.2250, 4138.711
605.3940, 4327.623
606.5620, 4829.514
607.7300, 5084.371
608.8990, 5443.193
610.0670, 5756.984
611.2350, 5778.738
612.4020, 5891.461
613.5700, 5993.145
614.7370, 6100.791
615.9050, 5982.402
617.0720, 5907.117
618.2390, 5518.514
619.4060, 5486.016
620.5720, 5098.479
621.7390, 4739.910
622.9050, 4425.299
624.0710, 3931.678
625.2370, 3761.021
626.4030, 3318.381
627.5690, 2933.738
628.7340, 2732.080
629.9000, 2419.400
631.0650, 2239.684
632.2300, 1737.934
633.3950, 1653.141
634.5600, 1534.312
635.7240, 1423.465
636.8890, 1466.580
638.0530, 1223.678
639.2170, 1482.738
640.3810, 1141.029
641.5450, 1131.744
642.7080, 611.6992
643.8720, 824.6133
645.0350, 596.4863
646.1980, 711.3184
647.3610, 506.1035
648.5240, 517.8477
649.6870, 331.5469
650.8490, 332.9844
652.0120, 241.7891
653.1740, 267.3594
654.3360, 198.8086
655.4980, 164.4766
656.6600, 110.9766
657.8210, 18.41602
658.9830, 11.50391
660.1440, 131.4023
661.3050, 48.56445
662.4660, 157.7539
663.6270, 172.8828
664.7870, 96.08008
665.9480, 122.7480
667.1080, 10.57812
668.2680, 61.65625
669.4280, 117.9082
670.5880, 65.19141
671.7480, 123.9531
672.9070, 21.39258
674.0670, 20.43945
675.2260, 188.5859
676.3850, 6.162109
677.5440, 51.45508
678.7030, 71.20117
679.8610, 73.29102
681.0200, 95.63867
682.1780, 74.55469
683.3360, 100.6523
684.4940, 8.898438
685.6520, 14.74219
686.8090, 64.92383
687.9670, 104.8848
689.1240, 127.5781
690.2810, 52.34961
691.4380, 10.80469
692.5950, 93.83594
693.7520, 37.75391
694.9080, 30.90430
696.0650, 90.11133
697.2210, 43.39648
698.3770, 2.304688
699.5330, 91.51758
700.6880, 175.5098
701.8440, 115.8047
702.9990, 263.2734
704.1550, 324.8184
705.3100, 250.1602
706.4650, 130.4062
707.6190, 304.1523
708.7740, 460.3438
709.9290, 556.1895
711.0830, 289.6387
712.2370, 345.8789
713.3910, 305.4141
714.5450, 360.8789
715.6980, 212.5117
716.8520, 506.7871
718.0050, 575.6426
719.1580, 573.0781
720.3110, 418.2617
721.4640, 622.0352
722.6170, 628.4512
723.7700, 499.0605
724.9220, 527.7363
726.0740, 665.2441
727.2260, 567.7031
728.3780, 680.1641
729.5300, 448.2480
730.6810, 588.5508
731.8330, 430.8027
732.9840, 547.1660
734.1350, 562.0820
735.2860, 533.1719
736.4370, 637.5684
737.5880, 546.8828
738.7380, 496.3477
739.8880, 547.3730
741.0390, 827.0664
742.1890, 734.1406
743.3380, 815.8574
744.4880, 760.6719
745.6380, 469.0645
746.7870, 759.2676
747.9360, 555.2500
749.0850, 704.8184
750.2340, 824.4355
751.3830, 890.7598
752.5310, 925.9375
753.6800, 929.7539
754.8280, 1083.758
755.9760, 1003.432
757.1240, 1125.465
758.2720, 974.2148
759.4190, 1291.064
760.5670, 1184.449
761.7140, 1506.393
762.8610, 1328.016
764.0080, 1668.416
765.1550, 1788.045
766.3020, 1801.418
767.4480, 1906.920
768.5950, 2192.471
769.7410, 2056.570
770.8870, 2237.342
772.0330, 2515.840
773.1780, 2640.631
774.3240, 2953.289
775.4690, 3002.764
776.6140, 3074.770
777.7590, 3529.785
778.9040, 3464.795
780.0490, 3993.535
781.1940, 4023.266
782.3380, 4422.098
783.4820, 4578.633
784.6260, 4741.889
785.7700, 4998.314
786.9140, 5091.656
788.0580, 5307.127
789.2010, 5391.795
790.3450, 5394.502
791.4880, 5581.785
792.6310, 5685.018
793.7730, 5661.463
794.9160, 5772.152
796.0590, 5652.973
797.2010, 5638.426
798.3430, 5737.057
799.4850, 5315.699
800.6270, 5353.355
801.7690, 4955.059
802.9100, 4788.139
804.0520, 4741.562
805.1930, 4225.688
806.3340, 4062.555
807.4750, 3992.514
808.6160, 3866.734
809.7560, 3731.154
810.8970, 3566.234
812.0370, 3482.916
813.1770, 3365.404
814.3170, 3325.193
815.4570, 3460.170
816.5960, 3393.236
817.7360, 3325.201
818.8750, 3205.818
820.0140, 3093.617
821.1530, 2928.037
822.2920, 2816.881
823.4310, 2556.289
824.5690, 2445.373
825.7070, 2240.742
826.8460, 1781.205
827.9840, 1785.188
829.1220, 1389.463
830.2590, 1163.756
831.3970, 1005.373
832.5340, 898.1094
833.6710, 712.1621
834.8080, 602.9941
835.9450, 554.1191
837.0820, 857.3730
838.2190, 629.9980
839.3550, 601.6172
840.4910, 525.6406
841.6270, 361.9141
842.7630, 508.9258
843.8990, 502.3359
845.0350, 448.4531
846.1700, 349.6621
847.3060, 357.8340
848.4410, 397.7344
849.5760, 281.8027
850.7100, 263.6758
851.8450, 134.6426
852.9800, 250.0215
854.1140, 442.8926
855.2480, 204.7148
856.3820, 673.4824
857.5160, 337.2012
858.6500, 170.8711
859.7830, 389.4844
860.9170, 323.0469
862.0500, 396.5605
863.1830, 448.0234
864.3160, 333.4375
865.4480, 170.8008
866.5810, 393.1094
867.7130, 514.3691
868.8460, 301.5840
869.9780, 155.7461
871.1100, 435.8535
872.2410, 251.9160
873.3730, 256.9277
874.5050, 206.8867
875.6360, 59.79492
876.7670, 19.64648
877.8980, 38.43359
879.0290, 96.83789
880.1590, 35.90234
881.2900, 137.2793
882.4200, 21.74023
883.5500, 25.13672
884.6800, 51.47461
885.8100, 37.75781
886.9400, 78.98633
888.0690, 98.98047
889.1990, 170.2852
890.3280, 110.3594
891.4570, 174.3848
892.5860, 73.36133
893.7140, 126.2891
894.8430, 87.16602
895.9710, 182.9961
897.1000, 58.21875
898.2280, 95.46680
899.3560, 179.8926
900.4830, 89.41016
901.6110, 55.03906
902.7380, 26.75977
903.8660, 34.44336
904.9930, 126.5977
906.1200, 188.7070
907.2460, 237.7734
908.3730, 55.19922
909.5000, 166.7383
910.6260, 53.36523
911.7520, 51.44531
912.8780, 34.20898
914.0040, 18.92773
915.1290, 32.40234
916.2550, 53.19727
917.3800, 15.75391
918.5050, 67.26367
919.6300, 116.7266
920.7550, 5.849609
921.8800, 97.51953
923.0040, 202.8496
924.1290, 140.1426
925.2530, 88.60352
926.3770, 193.4414
927.5010, 135.4297
928.6250, 31.53125
929.7480, 52.30664
930.8720, 33.11133
931.9950, 73.11914
933.1180, 39.57812
934.2410, 6.757813
935.3640, 22.86719
936.4860, 15.54492
937.6090, 35.99805
938.7310, 3.509766
939.8530, 3.414063
940.9750, 70.56836
942.0970, 13.18555
943.2180, 126.8086
944.3400, 146.5254
945.4610, 34.68750
946.5820, 144.1133
947.7030, 157.0098
948.8240, 93.98242
949.9450, 17.04688
951.0650, 336.9082
952.1860, 173.8652
953.3060, 136.8262
954.4260, 148.7949
955.5460, 181.7695
956.6650, 15.75586
957.7850, 127.7227
958.9040, 7.322266
960.0230, 206.6055
961.1420, 197.5137
962.2610, 150.4004
963.3800, 292.2695
964.4990, 136.1230
965.6170, 183.9570
966.7350, 132.7754
967.8530, 329.5742
968.9710, 198.3574
970.0890, 249.1230
971.2070, 272.8750
972.3240, 131.6113
973.4410, 117.3242
974.5580, 175.0156
975.6750, 422.6875
976.7920, 130.3184
977.9090, 246.9473
979.0250, 378.5547
980.1410, 305.1406
981.2580, 321.6504
982.3740, 407.1816
983.4890, 472.7266
984.6050, 405.9219
985.7200, 468.0273
986.8360, 535.5762
987.9510, 561.6094
989.0660, 650.0684
990.1810, 716.5098
991.2950, 700.3789
992.4100, 823.6328
993.5240, 652.2559
994.6390, 566.6152
995.7530, 506.8828
996.8660, 740.2441
997.9800, 739.5898
999.0940, 859.8633
1000.207, 879.5117
1001.320, 766.8750
1002.433, 894.2188
1003.546, 837.3828
1004.659, 970.9199
1005.772, 757.2188
1006.884, 791.1406
1007.996, 859.0723
1009.108, 925.7852
1010.220, 1122.869
1011.332, 961.2148
1012.444, 859.1094
1013.555, 1199.291
1014.666, 917.3066
1015.777, 871.6777
1016.888, 1191.193
1017.999, 1168.980
1019.110, 1085.113
1020.220, 1291.127
1021.331, 1275.371
1022.441, 1098.779
1023.551, 1375.484
1024.661, 1389.957
1025.770, 1451.764
1026.880, 1365.141
1027.989, 1344.857
1029.098, 1155.410
1030.207, 1383.363
1031.316, 1270.691
1032.425, 1334.275
1033.533, 1620.020
1034.642, 1323.473
1035.750, 1379.109
1036.858, 1462.559
1037.966, 1164.896
1039.073, 1248.680
1040.181, 1439.727
1041.288, 1476.984
1042.396, 1584.887
1043.503, 1521.855
1044.610, 1499.951
1045.716, 1565.445
1046.823, 1513.516
1047.929, 1530.184
1049.036, 1552.822
1050.142, 1473.354
1051.248, 1622.719
1052.353, 1515.324
1053.459, 1490.146
1054.564, 1485.604
1055.670, 1421.367
1056.775, 1534.578
1057.880, 1408.537
1058.985, 1376.004
1060.089, 1421.943
1061.194, 1236.574
1062.298, 1315.605
1063.402, 1492.430
1064.506, 1415.010
1065.610, 1330.789
1066.713, 1474.424
1067.817, 1677.338
1068.920, 1344.930
1070.023, 1496.486
1071.126, 1491.164
1072.229, 1476.662
1073.332, 1614.562
1074.435, 1598.619
1075.537, 1739.500
1076.639, 1637.543
1077.741, 1526.414
1078.843, 1696.205
1079.945, 1778.369
1081.046, 1684.795
1082.148, 1860.889
1083.249, 2057.895
1084.350, 2075.484
1085.451, 2122.973
1086.551, 2188.545
1087.652, 2286.748
1088.752, 2250.332
1089.853, 2380.238
1090.953, 2455.637
1092.053, 2584.305
1093.152, 2629.979
1094.252, 2474.664
1095.351, 2921.244
1096.451, 2863.945
1097.550, 3185.504
1098.649, 3087.223
1099.748, 3121.803
1100.846, 3317.539
1101.945, 3394.629
1103.043, 3283.383
1104.141, 3254.146
1105.239, 3404.018
1106.337, 3544.648
1107.434, 3534.695
1108.532, 3701.500
1109.629, 3669.828
1110.726, 3655.629
1111.823, 3594.174
1112.920, 3660.229
1114.017, 3550.361
1115.113, 3782.684
1116.210, 3921.566
1117.306, 3490.789
1118.402, 3836.695
1119.498, 3661.004
1120.593, 3917.936
1121.689, 3869.873
1122.784, 3866.824
1123.879, 3784.785
1124.974, 3675.758
1126.069, 3675.141
1127.164, 3645.516
1128.259, 3678.305
1129.353, 3726.566
1130.447, 3832.658
1131.541, 4062.816
1132.635, 3673.039
1133.729, 4003.389
1134.822, 3756.457
1135.916, 3905.547
1137.009, 3712.283
1138.102, 3681.395
1139.195, 3731.521
1140.288, 3682.723
1141.380, 3707.857
1142.473, 3592.184
1143.565, 3745.359
1144.657, 3737.553
1145.749, 3782.795
1146.841, 3557.066
1147.932, 3684.645
1149.024, 3656.898
1150.115, 3633.227
1151.206, 3609.555
1152.297, 3502.895
1153.388, 3268.801
1154.479, 3532.645
1155.569, 3397.174
1156.659, 3183.914
1157.750, 3261.303
1158.839, 3257.238
1159.929, 3154.947
1161.019, 3275.566
1162.108, 3110.984
1163.198, 3128.611
1164.287, 3148.668
1165.376, 2996.199
1166.465, 3053.770
1167.553, 2902.391
1168.642, 3060.035
1169.730, 3220.490
1170.818, 3112.354
1171.906, 2906.053
1172.994, 2750.734
1174.082, 2795.439
1175.170, 2837.150
1176.257, 2980.918
1177.344, 2883.658
1178.431, 2823.973
1179.518, 2506.152
1180.605, 2471.445
1181.691, 2440.215
1182.778, 2119.344
1183.864, 2371.871
1184.950, 2137.309
1186.036, 2221.100
1187.122, 2050.895
1188.207, 2197.688
1189.292, 1866.834
1190.378, 1951.660
1191.463, 1812.543
1192.548, 1778.467
1193.632, 1600.404
1194.717, 1584.693
1195.801, 1510.254
1196.886, 1497.643
1197.970, 1462.609
1199.054, 1371.906
1200.137, 1084.160
1201.221, 848.1426
1202.305, 1042.127
1203.388, 1125.359
1204.471, 951.3496
1205.554, 929.1250
1206.637, 686.7480
1207.719, 736.0449
1208.802, 808.8262
1209.884, 661.1875
1210.966, 549.7344
1212.048, 531.9297
1213.130, 467.0957
1214.212, 394.2949
1215.293, 570.4590
1216.374, 585.7480
1217.456, 218.5234
1218.536, 407.6758
1219.617, 293.0703
1220.698, 265.9551
1221.778, 440.5176
1222.859, 546.6406
1223.939, 232.3242
1225.019, 335.7363
1226.099, 483.8613
1227.178, 235.3691
1228.258, 383.4824
1229.337, 228.6621
1230.417, 304.7617
1231.496, 18.85547
1232.574, 313.1934
1233.653, 158.2676
1234.732, 58.66406
1235.810, 177.7773
1236.888, 50.84180
1237.966, 160.8828
1239.044, 73.91797
1240.122, 96.49805
1241.199, 186.3789
1242.277, 75.41602
1243.354, 61.59961
1244.431, 79.37500
1245.508, 208.6094
1246.585, 52.81055
1247.661, 199.8027
1248.738, 58.21289
1249.814, 150.7285
1250.890, 261.8867
1251.966, 158.8711
1253.042, 144.1191
1254.117, 245.0156
1255.193, 163.1582
1256.268, 133.0645
1257.343, 151.7227
1258.418, 95.52344
1259.493, 140.8594
1260.567, 249.3926
1261.642, 120.7598
1262.716, 94.34375
1263.790, 199.9121
1264.864, 502.1387
1265.938, 20.80078
1267.011, 246.3418
1268.085, 179.4355
1269.158, 161.9492
1270.231, 141.4473
1271.304, 218.9316
1272.377, 284.8105
1273.450, 300.9531
1274.522, 197.8184
1275.594, 258.2441
1276.666, 60.90234
1277.738, 420.9980
1278.810, 193.0957
1279.882, 538.0371
1280.953, 628.0859
1282.025, 299.6719
1283.096, 87.07422
1284.167, 52.71875
1285.238, 214.5098
1286.308, 357.0156
1287.379, 422.9727
1288.449, 136.7695
1289.519, 161.6074
1290.589, 430.6875
1291.659, 169.8008
1292.729, 76.16211
1293.798, 509.0469
1294.868, 648.9531
1295.937, 332.6367
1297.006, 617.1660
1298.075, 176.8789
1299.143, 187.2383
1300.212, 228.2207
1301.280, 240.2344
1302.348, 349.5781
1303.416, 398.5469
1304.484, 229.8555
1305.552, 237.7246
1306.620, 370.5703
1307.687, 351.3926
1308.754, 115.1914
1309.821, 526.9629
1310.888, 158.7090
1311.955, 73.43164
1313.021, 88.12109
1314.088, 345.7812
1315.154, 369.4141
1316.220, 442.0273
1317.286, 164.8184
1318.352, 338.3789
1319.417, 292.9141
1320.483, 430.4277
1321.548, 354.9141
1322.613, 62.37500
1323.678, 432.8047
1324.743, 153.2129
1325.807, 266.5996
1326.872, 178.9629
1327.936, 190.3066
1329.000, 289.6270
1330.064, 347.9238
1331.128, 200.1934
1332.191, 312.4414
1333.255, 90.66602
1334.318, 115.8691
1335.381, 203.0391
1336.444, 102.1816
1337.507, 198.0781
1338.569, 163.5156
1339.632, 257.5664
1340.694, 306.5918
1341.756, 258.5957
1342.818, 318.5723
1343.880, 236.5254
1344.941, 51.58789
1346.003, 289.4746
1347.064, 210.3203
1348.125, 106.1406
1349.186, 169.9277
1350.247, 43.68945
1351.308, 141.2578
1352.368, 205.3223
1353.428, 327.9863
1354.489, 180.6230
1355.549, 280.2734
1356.608, 256.8438
1357.668, 285.3867
1358.727, 296.9102
1359.787, 215.0020
1360.846, 315.4355
1361.905, 198.8398
1362.964, 264.1426
1364.022, 91.61328
1365.081, 530.6680
1366.139, 286.9922
1367.197, 172.0684
1368.255, 33.37500
1369.313, 471.5449
1370.371, 250.4844
1371.428, 286.3320
1372.486, 303.1191
1373.543, 236.3828
1374.600, 323.8418
1375.657, 363.7480
1376.713, 302.3516
1377.770, 239.0840
1378.826, 277.9062
1379.882, 211.7090
1380.938, 322.8359
1381.994, 256.5977
1383.050, 527.0469
1384.106, 304.1816
1385.161, 282.0508
1386.216, 151.4492
1387.271, 298.0059
1388.326, 66.47656
1389.381, 285.8750
1390.435, 403.2617
1391.490, 13.78320
1392.544, 253.4844
1393.598, 325.3086
1394.652, 142.7383
1395.705, 398.1816
1396.759, 296.7168
1397.812, 382.9121
1398.866, 180.2441
1399.919, 129.5527
1400.972, 176.8320
1402.024, 310.0859
1403.077, 172.3145
1404.129, 259.2285
1405.181, 330.5020
1406.233, 222.6543
1407.285, 272.7910
1408.337, 270.9062
1409.389, 126.3340
1410.440, 93.81445
1411.491, 159.5195
1412.542, 93.90820
1413.593, 164.6211
1414.644, 52.77148
1415.695, 74.12695
1416.745, 207.5410
1417.795, 225.1328
1418.845, 25.48047
1419.895, 179.4551
1420.945, 54.95117
1421.995, 58.66406
1423.044, 173.6641
1424.093, 50.04297
1425.142, 125.4102
1426.191, 309.4219
1427.240, 154.5664
1428.289, 69.69922
1429.337, 153.7852
1430.385, 65.83594
1431.433, 357.8203
1432.481, 311.8086
1433.529, 289.7695
1434.577, 480.6992
1435.624, 260.0703
1436.672, 260.9453
1437.719, 520.4375
1438.766, 327.5195
1439.812, 344.6719
1440.859, 267.4609
1441.905, 372.2383
1442.952, 108.0078
1443.998, 235.4219
1445.044, 423.1836
1446.090, 241.2617
1447.135, 487.0586
1448.181, 364.7773
1449.226, 522.4883
1450.271, 476.3320
1451.316, 439.2305
1452.361, 444.1250
1453.405, 448.4023
1454.450, 476.2852
1455.494, 491.4180
1456.538, 470.3711
1457.582, 462.8125
1458.626, 479.6523
1459.670, 334.3359
1460.713, 216.3320
1461.757, 351.9531
1462.800, 112.9180
1463.843, 453.5625
1464.886, 440.6445
1465.928, 355.0352
1466.971, 558.4609
1468.013, 159.5391
1469.055, 217.4141
1470.097, 112.4727
1471.139, 188.1523
1472.181, 302.6211
1473.222, 243.4180
1474.263, 354.0781
1475.305, 573.8906
1476.346, 88.39844
1477.386, 332.6133
1478.427, 233.0898
1479.468, 382.7578
1480.508, 125.6289
1481.548, 153.2266
1482.588, 301.9492
1483.628, 409.3711
1484.668, 371.4141
1485.707, 770.5625
1486.747, 321.3711
1487.786, 92.09375
1488.825, 91.70312
1489.864, 294.0469
1490.902, 110.4531
1491.941, 224.4375
1492.979, 110.1641
1494.017, 188.7266
1495.055, 242.3359
1496.093, 196.6094
1497.131, 62.99219
1498.168, 43.85156
1499.206, 95.77344
1500.243, 197.9844
1501.280, 192.2461
1502.317, 252.4570
1503.354, 168.4609
1504.390, 196.4609
1505.426, 27.45312
1506.463, 97.45312
1507.499, 5.464844
1508.535, 255.0781
1509.570, 53.07422
1510.606, 201.0664
1511.641, 204.0547
1512.676, 258.0195
1513.711, 248.9375
1514.746, 68.82422
1515.781, 265.6914
1516.816, 48.48828
1517.850, 200.3281
1518.884, 366.8320
1519.918, 91.64844
1520.952, 47.42578
1521.986, 270.8594
1523.019, 207.6523
1524.053, 295.4727
1525.086, 237.7305
1526.119, 135.5234
1527.152, 129.2070
1528.185, 268.0508
1529.217, 91.02344
1530.250, 495.0195
1531.282, 466.2930
1532.314, 402.2188
1533.346, 184.9336
1534.377, 148.4180
1535.409, 139.7539
1536.440, 42.90234
1537.472, 208.4648
1538.503, 124.3320
1539.534, 148.8008
1540.564, 404.6211
1541.595, 201.2695
1542.625, 188.5391
1543.656, 252.6602
1544.686, 45.05078
1545.716, 79.03516
1546.745, 363.4648
1547.775, 96.94531
1548.804, 64.17188
1549.834, 216.0625
1550.863, 166.5586
1551.892, 247.3281
1552.920, 29.81250
1553.949, 239.0703
1554.977, 255.4102
1556.006, 141.1992
1557.034, 436.8594
1558.062, 301.3789
1559.089, 69.61719
1560.117, 195.1719
1561.144, 49.93359
1562.172, 84.97656
1563.199, 162.6016
1564.226, 128.8984
1565.252, 421.7695
1566.279, 52.50781
1567.305, 360.2773
1568.332, 186.3477
1569.358, 3.910156
1570.384, 272.1680
1571.409, 234.5039
1572.435, 0.0000000E+00
##END=



