##NAMES=Clinochlore
##RRUFFID=R060725
##IDEAL CHEMISTRY=Mg_5_Al(AlSi_3_O_10_)(OH)_8_
##LOCALITY=Crestmore Quarry, Riverside, California, USA
##OWNER=RRUFF
##SOURCE=Bob Jenkins
##DESCRIPTION=Green transparent books of mica
##STATUS=The identification of this mineral has been confirmed by X-ray diffraction and chemical analysis
##URL=rruff.info/R060725
##MEASURED CHEMISTRY=(Mg_4.65_Al_1.12_Fe^2+^_0.17_[box]_0.06_)_Σ=6_(Si_3.00_Al_1.00_)_Σ=4_O_10_(OH)_8_
##PIN_ID=L01861
184.3410, 0.0000000E+00
185.5670, 121.6787
186.7920, 1.576660
188.0180, 22.58887
189.2430, 99.01611
190.4690, 40.15430
191.6940, 152.3843
192.9180, 182.6455
194.1430, 255.9124
195.3680, 337.8508
196.5920, 389.1094
197.8160, 424.4165
199.0400, 696.5986
200.2640, 733.1672
201.4880, 969.9668
202.7110, 1164.789
203.9350, 1344.586
205.1580, 1409.478
206.3810, 1378.622
207.6040, 1352.198
208.8270, 1166.311
210.0490, 924.8469
211.2710, 691.0288
212.4940, 534.9114
213.7160, 460.5571
214.9370, 374.5210
216.1590, 276.0374
217.3810, 209.3657
218.6020, 248.8523
219.8230, 130.6938
221.0440, 248.2725
222.2650, 96.18042
223.4860, 76.82739
224.7060, 116.7949
225.9260, 102.2524
227.1470, 145.7852
228.3670, 135.3901
229.5860, 60.06445
230.8060, 124.8062
232.0260, 29.61182
233.2450, 79.47900
234.4640, 112.4055
235.6830, 96.38940
236.9020, 129.4277
238.1200, 112.5149
239.3390, 115.1636
240.5570, 94.77979
241.7750, 101.0469
242.9930, 30.30762
244.2110, 1.609131
245.4290, 39.04834
246.6460, 16.66553
247.8630, 37.75806
249.0810, 67.77856
250.2980, 12.72510
251.5140, 40.26904
252.7310, 5.144531
253.9470, 9.514893
255.1640, 5.839111
256.3800, 66.88623
257.5960, 43.33887
258.8120, 98.47485
260.0270, 76.32568
261.2430, 42.78174
262.4580, 20.84814
263.6730, 5.875488
264.8880, 36.86401
266.1030, 47.18359
267.3170, 32.26611
268.5320, 35.38208
269.7460, 132.5288
270.9600, 80.70557
272.1740, 128.9109
273.3880, 186.1428
274.6010, 137.3977
275.8150, 193.6741
277.0280, 214.9700
278.2410, 192.2847
279.4540, 219.6174
280.6670, 242.9690
281.8790, 302.3376
283.0920, 257.7258
284.3040, 210.1338
285.5160, 272.5620
286.7280, 179.0105
287.9400, 219.4543
289.1510, 150.8818
290.3630, 172.2773
291.5740, 103.6931
292.7850, 111.1167
293.9960, 48.54590
295.2070, 158.9841
296.4170, 79.41309
297.6280, 112.8474
298.8380, 40.29663
300.0480, 106.7717
301.2580, 65.27197
302.4680, 83.79785
303.6770, 176.3489
304.8870, 203.9246
306.0960, 59.52515
307.3050, 97.15063
308.5140, 66.80029
309.7230, 120.4746
310.9310, 55.17334
312.1400, 35.89624
313.3480, 119.6428
314.5560, 151.4133
315.7640, 178.2078
316.9720, 144.0403
318.1790, 226.9141
319.3870, 240.8530
320.5940, 299.8250
321.8010, 294.7141
323.0080, 274.9158
324.2150, 266.0723
325.4210, 250.3010
326.6280, 233.6082
327.8340, 252.5095
329.0400, 312.3315
330.2460, 299.8579
331.4510, 355.0667
332.6570, 393.9622
333.8620, 359.2759
335.0680, 417.6313
336.2730, 400.0100
337.4780, 444.4072
338.6820, 468.8176
339.8870, 673.2361
341.0910, 660.6597
342.2950, 728.0869
343.5000, 977.5166
344.7030, 1099.950
345.9070, 1325.381
347.1110, 1584.805
348.3140, 1790.220
349.5170, 2178.627
350.7200, 2442.025
351.9230, 2730.417
353.1260, 3093.805
354.3290, 3379.188
355.5310, 3483.573
356.7330, 3598.959
357.9350, 3527.351
359.1370, 3416.748
360.3390, 3133.078
361.5400, 2692.386
362.7420, 2386.620
363.9430, 2066.859
365.1440, 1769.090
366.3450, 1526.292
367.5460, 1241.511
368.7460, 1089.691
369.9470, 955.8562
371.1470, 873.0413
372.3470, 704.2456
373.5470, 647.4695
374.7460, 624.7046
375.9460, 625.9663
377.1450, 481.0581
378.3450, 582.3564
379.5440, 482.6729
380.7430, 489.0071
381.9410, 383.3586
383.1400, 453.7278
384.3380, 542.1138
385.5370, 447.5166
386.7350, 475.9365
387.9320, 554.3696
389.1300, 483.2974
390.3280, 553.7595
391.5250, 524.7114
392.7220, 493.2129
393.9190, 504.1223
395.1160, 345.6396
396.3130, 390.1890
397.5100, 331.2686
398.7060, 249.1511
399.9020, 256.3398
401.0980, 243.9504
402.2940, 123.9319
403.4900, 130.5718
404.6860, 214.2261
405.8810, 168.4526
407.0760, 179.1238
408.2710, 135.6719
409.4660, 157.4688
410.6610, 131.1938
411.8550, 230.9329
413.0500, 181.6858
414.2440, 222.4521
415.4380, 285.2317
416.6320, 210.0249
417.8260, 186.8311
419.0190, 266.6506
420.2130, 348.4832
421.4060, 320.3289
422.5990, 349.1875
423.7920, 358.0588
424.9850, 376.9431
426.1770, 395.8403
427.3700, 398.7500
428.5620, 413.6724
429.7540, 488.6077
430.9460, 439.5554
432.1380, 367.5156
433.3290, 481.4888
434.5210, 406.4746
435.7120, 433.4731
436.9030, 396.4844
438.0940, 413.5088
439.2850, 384.5454
440.4750, 380.0063
441.6660, 383.4265
442.8560, 371.7324
444.0460, 389.8203
445.2360, 396.9207
446.4260, 410.3994
447.6160, 393.5244
448.8050, 413.6619
449.9940, 456.6392
451.1830, 461.9209
452.3720, 522.5371
453.5610, 492.7217
454.7500, 561.7993
455.9380, 560.0061
457.1260, 600.2681
458.3150, 686.1404
459.5020, 746.4780
460.6900, 847.9844
461.8780, 761.2617
463.0650, 717.9412
464.2530, 680.0652
465.4400, 712.3110
466.6270, 598.0203
467.8130, 628.4690
469.0000, 492.2273
470.1870, 392.2837
471.3730, 353.6118
472.5590, 271.5574
473.7450, 236.4768
474.9310, 187.0972
476.1160, 192.4578
477.3020, 150.8257
478.4870, 164.2012
479.6720, 215.5842
480.8570, 202.9741
482.0420, 185.3716
483.2270, 135.7759
484.4110, 174.1875
485.5960, 163.4431
486.7800, 137.0320
487.9640, 164.4648
489.1480, 176.2329
490.3310, 109.6799
491.5150, 218.1340
492.6980, 120.5952
493.8810, 157.0637
495.0640, 161.5427
496.2470, 202.0291
497.4300, 165.5225
498.6120, 192.0232
499.7950, 161.5312
500.9770, 198.0464
502.1590, 205.5686
503.3410, 215.0986
504.5220, 254.6401
505.7040, 236.1899
506.8850, 219.7476
508.0660, 212.3130
509.2470, 258.8865
510.4280, 344.4680
511.6090, 342.0579
512.7890, 396.6560
513.9700, 422.0703
515.1500, 339.8762
516.3300, 446.4983
517.5100, 500.1282
518.6900, 478.7661
519.8690, 564.4124
521.0490, 591.0664
522.2280, 671.7275
523.4070, 745.3311
524.5860, 800.0085
525.7640, 889.7585
526.9430, 925.4509
528.1210, 961.1504
529.3000, 1003.857
530.4780, 1064.570
531.6560, 1104.293
532.8330, 1221.036
534.0110, 1177.792
535.1880, 1318.559
536.3650, 1270.359
537.5430, 1359.166
538.7190, 1457.978
539.8960, 1572.800
541.0730, 1770.631
542.2490, 2000.471
543.4250, 2274.316
544.6020, 2571.179
545.7780, 2856.054
546.9530, 3388.935
548.1290, 3883.833
549.3040, 4227.741
550.4800, 4541.653
551.6550, 4747.583
552.8300, 4527.523
554.0040, 4047.469
555.1790, 3385.421
556.3540, 2711.377
557.5280, 2301.339
558.7020, 1844.306
559.8760, 1606.277
561.0500, 1220.254
562.2230, 1095.235
563.3970, 920.2212
564.5700, 783.2139
565.7430, 686.2319
566.9160, 619.2539
568.0890, 518.2803
569.2620, 535.3115
570.4340, 500.3506
571.6070, 407.3940
572.7790, 329.4419
573.9510, 339.4937
575.1230, 202.5557
576.2940, 161.6211
577.4660, 195.6914
578.6370, 247.7646
579.8080, 203.8423
580.9790, 158.9233
582.1500, 123.0073
583.3210, 48.09570
584.4910, 60.19629
585.6620, 65.30762
586.8320, 26.57812
588.0020, 38.52637
589.1720, 4.634277
590.3410, 66.25488
591.5110, 41.17529
592.6800, 4.113770
593.8500, 12.94727
595.0190, 32.98926
596.1880, 9.060059
597.3560, 17.88867
598.5250, 60.84473
599.6930, 51.82715
600.8620, 37.83496
602.0300, 65.86133
603.1970, 39.91602
604.3650, 46.61914
605.5330, 64.08984
606.7000, 39.22119
607.8680, 17.37207
609.0350, 4.532227
610.2020, 9.687988
611.3680, 47.15088
612.5350, 6.991699
613.7010, 34.16064
614.8680, 51.33203
616.0340, 25.47021
617.2000, 94.27393
618.3660, 160.0786
619.5310, 15.88574
620.6970, 16.69385
621.8620, 27.51318
623.0270, 20.33350
624.1920, 122.1558
625.3570, 71.97949
626.5220, 109.8042
627.6860, 127.6304
628.8500, 0.4575200
630.0140, 60.28516
631.1780, 88.11426
632.3420, 141.9443
633.5060, 125.7754
634.6700, 88.23438
635.8330, 136.0674
636.9960, 113.9014
638.1590, 179.7358
639.3220, 140.5713
640.4850, 152.4077
641.6470, 205.2446
642.8100, 233.0825
643.9720, 233.8486
645.1340, 261.6938
646.2960, 306.5396
647.4570, 319.3853
648.6190, 403.2319
649.7800, 429.0781
650.9420, 495.9253
652.1030, 587.9966
653.2640, 674.3423
654.4240, 780.4678
655.5850, 863.3154
656.7450, 958.1631
657.9060, 977.0107
659.0660, 1143.858
660.2260, 1229.706
661.3850, 1383.554
662.5450, 1526.437
663.7040, 1614.283
664.8640, 1810.351
666.0230, 1936.196
667.1820, 2178.043
668.3410, 2432.889
669.4990, 2594.734
670.6580, 2869.578
671.8160, 2943.422
672.9740, 3326.266
674.1320, 3532.906
675.2900, 3664.321
676.4480, 3858.163
677.6050, 3921.002
678.7630, 4097.841
679.9200, 4195.679
681.0770, 4212.516
682.2340, 4242.034
683.3900, 4178.047
684.5470, 4109.270
685.7030, 3968.101
686.8590, 3836.764
688.0150, 3602.757
689.1710, 3487.584
690.3270, 3271.578
691.4830, 3063.813
692.6380, 2884.634
693.7930, 2688.194
694.9480, 2530.269
696.1030, 2346.084
697.2580, 2205.896
698.4130, 2082.706
699.5670, 1996.515
700.7210, 1830.011
701.8750, 1706.424
703.0290, 1525.312
704.1830, 1483.846
705.3370, 1340.643
706.4900, 1363.438
707.6430, 1220.229
708.7970, 1135.776
709.9490, 1141.586
711.1020, 1011.370
712.2550, 964.1504
713.4070, 843.3545
714.5600, 819.1304
715.7120, 817.9023
716.8640, 715.6714
718.0160, 764.4375
719.1670, 623.2012
720.3190, 595.9614
721.4700, 577.7188
722.6210, 560.6123
723.7720, 522.9653
724.9230, 436.7129
726.0740, 443.0918
727.2250, 388.8330
728.3750, 485.5708
729.5250, 300.4766
730.6750, 386.9048
731.8250, 369.3726
732.9750, 291.0981
734.1240, 343.9390
735.2740, 288.6587
736.4230, 234.3315
737.5720, 161.0684
738.7210, 229.6816
739.8700, 224.1353
741.0190, 166.5649
742.1670, 123.8604
743.3150, 152.7192
744.4630, 162.4629
745.6110, 211.7505
746.7590, 205.3052
747.9070, 231.6060
749.0540, 245.2114
750.2020, 229.8838
751.3490, 243.6460
752.4960, 230.5659
753.6430, 226.0352
754.7890, 196.2598
755.9360, 181.9478
757.0820, 141.6343
758.2280, 167.0791
759.3740, 158.1626
760.5200, 215.8462
761.6660, 158.5288
762.8120, 163.2095
763.9570, 213.8892
765.1020, 115.5679
766.2470, 94.24512
767.3920, 88.26709
768.5370, 159.9424
769.6810, 97.61572
770.8260, 38.28809
771.9700, 4.040527
773.1140, 122.6230
774.2580, 108.2856
775.4020, 160.9463
776.5460, 71.60645
777.6890, 74.26465
778.8320, 38.92236
779.9750, 20.71143
781.1180, 8.378906
782.2610, 34.26562
783.4040, 92.90869
784.5460, 148.5503
785.6890, 126.1904
786.8310, 121.8296
787.9730, 74.46729
789.1150, 100.1040
790.2560, 61.88770
791.3980, 58.47021
792.5390, 28.00439
793.6810, 59.63525
794.8220, 79.26465
795.9630, 111.8926
797.1030, 103.5190
798.2440, 181.1450
799.3840, 8.768555
800.5240, 68.39062
801.6650, 3.011230
802.8040, 97.62744
803.9440, 61.24219
805.0840, 142.8564
806.2230, 110.4688
807.3630, 54.07959
808.5020, 140.6899
809.6410, 34.29834
810.7790, 7.094727
811.9180, 19.49609
813.0570, 108.0864
814.1950, 43.66846
815.3330, 19.24951
816.4710, 91.82910
817.6090, 44.40771
818.7470, 54.98486
819.8840, 65.56152
821.0220, 14.86279
822.1590, 60.69971
823.2960, 28.26221
824.4330, 70.82324
825.5690, 38.38281
826.7060, 76.94189
827.8420, 20.50049
828.9790, 59.04248
830.1150, 24.58447
831.2510, 20.12451
832.3860, 57.66455
833.5220, 11.20312
834.6570, 54.74121
835.7930, 67.27881
836.9280, 116.8149
838.0630, 75.35059
839.1980, 2.115234
840.3320, 71.58496
841.4670, 25.90283
842.6010, 49.39014
843.7350, 21.87646
844.8690, 8.638184
846.0030, 4.840332
847.1370, 9.316895
848.2700, 68.79297
849.4040, 19.73193
850.5370, 63.72998
851.6700, 20.19092
852.8030, 7.651367
853.9360, 68.11182
855.0680, 5.571289
856.2000, 50.02930
857.3330, 23.48682
858.4650, 32.05518
859.5970, 23.61719
860.7290, 14.80664
861.8600, 24.22949
862.9920, 85.65918
864.1230, 83.08789
865.2540, 3.516602
866.3850, 46.96191
867.5160, 85.41699
868.6460, 5.874023
869.7770, 55.34766
870.9070, 39.83008
872.0370, 113.3120
873.1670, 10.19971
874.2970, 36.29736
875.4270, 32.80811
876.5570, 11.67090
877.6860, 25.86035
878.8150, 35.40283
879.9440, 20.95752
881.0730, 43.53027
882.2020, 5.112793
883.3300, 25.29346
884.4590, 1.710449
885.5870, 31.88281
886.7150, 17.51758
887.8430, 42.07324
888.9710, 60.67383
890.0990, 67.30273
891.2260, 15.93994
892.3530, 67.57764
893.4810, 32.21436
894.6080, 35.14844
895.7340, 72.47021
896.8610, 56.08789
897.9880, 41.70654
899.1140, 9.324707
900.2400, 86.94336
901.3660, 58.56104
902.4920, 11.81982
903.6180, 95.79492
904.7430, 68.40918
905.8690, 43.02393
906.9940, 101.6387
908.1190, 45.63135
909.2440, 95.25049
910.3690, 150.8701
911.4930, 76.48975
912.6180, 159.1099
913.7420, 97.72998
914.8660, 77.35156
915.9900, 24.02588
917.1140, 138.6626
918.2380, 97.27295
919.3610, 32.88379
920.4850, 112.4946
921.6080, 89.10498
922.7310, 106.7163
923.8540, 155.3271
924.9760, 86.93896
926.0990, 76.55127
927.2210, 189.1636
928.3440, 150.7769
929.4660, 72.38965
930.5880, 121.0034
931.7090, 49.61621
932.8310, 103.2305
933.9520, 95.84473
935.0740, 156.4238
936.1950, 124.0420
937.3160, 137.4409
938.4360, 176.0605
939.5570, 129.6807
940.6780, 154.3013
941.7980, 107.9219
942.9180, 211.5425
944.0380, 195.1841
945.1580, 148.8252
946.2780, 229.6699
947.3970, 222.7695
948.5170, 116.4429
949.6360, 211.1157
950.7550, 241.7900
951.8740, 231.4644
952.9930, 169.1396
954.1110, 272.8145
955.2300, 181.4912
956.3480, 179.9141
957.4660, 174.5933
958.5840, 204.2720
959.7020, 156.9512
960.8190, 159.6318
961.9370, 195.3125
963.0540, 194.4102
964.1710, 201.8657
965.2880, 217.6631
966.4050, 196.4580
967.5220, 225.1421
968.6380, 204.8267
969.7550, 185.5215
970.8710, 211.2163
971.9870, 197.9121
973.1030, 256.6079
974.2190, 204.9194
975.3340, 247.8818
976.4500, 176.5801
977.5650, 128.2798
978.6800, 223.9995
979.7950, 246.9429
980.9100, 240.6221
982.0250, 273.1191
983.1390, 205.0293
984.2530, 268.3086
985.3680, 199.0146
986.4820, 190.7217
987.5950, 202.4375
988.7090, 168.1465
989.8230, 236.8564
990.9360, 190.5796
992.0490, 291.3354
993.1620, 236.9214
994.2750, 259.1108
995.3880, 219.8384
996.5010, 260.5674
997.6130, 245.2979
998.7250, 190.0293
999.8370, 194.7617
1000.949, 310.4956
1002.061, 230.2974
1003.173, 302.0488
1004.284, 254.7861
1005.396, 235.5244
1006.507, 128.4038
1007.618, 203.4780
1008.729, 179.2480
1009.839, 264.9883
1010.950, 148.9907
1012.060, 226.7329
1013.171, 133.5093
1014.281, 262.2554
1015.391, 212.9980
1016.500, 158.9692
1017.610, 94.14404
1018.719, 76.79199
1019.829, 61.98682
1020.938, 69.91846
1022.047, 82.66504
1023.156, 153.5342
1024.264, 204.2998
1025.373, 194.0454
1026.481, 172.7910
1027.589, 227.5361
1028.697, 269.1226
1029.805, 227.8662
1030.913, 149.6313
1032.020, 224.3745
1033.128, 143.1602
1034.235, 178.9023
1035.342, 322.7827
1036.449, 269.8511
1037.556, 308.5918
1038.663, 270.3325
1039.769, 339.0728
1040.875, 319.9121
1041.981, 404.6543
1043.087, 300.3960
1044.193, 341.1597
1045.299, 398.9009
1046.404, 371.6724
1047.510, 453.6436
1048.615, 364.5283
1049.720, 402.9258
1050.825, 431.6685
1051.930, 449.4102
1053.034, 441.1509
1054.139, 387.8921
1055.243, 462.6748
1056.347, 433.4141
1057.451, 385.1533
1058.555, 443.8916
1059.658, 245.7749
1060.762, 414.5112
1061.865, 306.2471
1062.968, 427.9829
1064.071, 473.7178
1065.174, 405.4521
1066.277, 413.1855
1067.380, 391.9453
1068.482, 327.4951
1069.584, 379.2881
1070.686, 348.0977
1071.788, 464.8286
1072.890, 482.5591
1073.992, 535.2886
1075.093, 488.0166
1076.194, 458.5220
1077.295, 494.2485
1078.396, 659.9824
1079.497, 663.8008
1080.598, 675.5352
1081.698, 819.2676
1082.799, 790.9976
1083.899, 790.7271
1084.999, 918.4541
1086.099, 865.1802
1087.199, 880.0576
1088.298, 736.9492
1089.398, 687.7407
1090.497, 618.4658
1091.596, 520.1890
1092.695, 511.9102
1093.794, 490.6304
1094.892, 355.3486
1095.991, 347.0718
1097.089, 306.8687
1098.187, 266.5884
1099.285, 223.3579
1100.383, 128.0747
1101.481, 212.7700
1102.579, 182.4829
1103.676, 181.1934
1104.773, 107.9019
1105.870, 61.60840
1106.967, 83.31494
1108.064, 37.04004
1109.161, 115.8633
1110.257, 15.58447
1111.353, 114.3032
1112.449, 76.02393
1113.545, 38.74268
1114.641, 35.45898
1115.737, 128.2124
1116.832, 94.93164
1117.928, 73.64795
1119.023, 20.36279
1120.118, 103.0752
1121.213, 85.78516
1122.308, 75.28809
1123.402, 17.99414
1124.497, 55.69775
1125.591, 10.40771
1126.685, 32.17236
1127.779, 55.88428
1128.873, 126.6553
1129.967, 31.36230
1131.060, 86.06738
1132.153, 93.77295
1133.247, 11.47266
1134.340, 59.83008
1135.433, 113.9883
1136.525, 41.64600
1137.618, 2.428223
1138.710, 50.08057
1139.802, 21.73340
1140.895, 35.38330
1141.987, 29.03076
1143.078, 53.67920
1144.170, 21.32520
1145.261, 28.96875
1146.353, 85.60986
1147.444, 14.75146
1148.535, 37.87305
1149.626, 28.49707
1150.716, 18.88867
1151.807, 6.337402
1152.897, 47.99609
1153.988, 44.41113
1155.078, 26.79785
1156.168, 46.74463
1157.257, 117.2847
1158.347, 119.8223
1159.436, 43.35742
1160.526, 89.89941
1161.615, 27.43896
1162.704, 42.97607
1163.793, 22.50977
1164.881, 49.04248
1165.970, 5.572266
1167.058, 114.0986
1168.147, 178.6255
1169.235, 152.1499
1170.323, 174.8228
1171.410, 11.80859
1172.498, 111.6982
1173.585, 64.20215
1174.673, 28.70410
1175.760, 97.20264
1176.847, 26.69873
1177.934, 2.191895
1179.020, 5.680664
1180.107, 23.16504
1181.193, 101.6523
1182.279, 110.1377
1183.365, 95.62012
1184.451, 36.09961
1185.537, 24.57666
1186.623, 64.05127
1187.708, 78.52246
1188.793, 120.9922
1189.878, 6.458496
1190.963, 92.92090
1192.048, 48.38086
1193.133, 57.83789
1194.217, 106.2925
1195.302, 94.74463
1196.386, 36.19434
1197.470, 29.64111
1198.554, 6.915039
1199.638, 21.51904
1200.721, 17.80859
1201.805, 54.37744
1202.888, 45.80225
1203.971, 67.22461
1205.054, 79.64404
1206.137, 69.93848
1207.219, 146.4351
1208.302, 34.80615
1209.384, 106.8252
1210.466, 92.48096
1211.548, 132.7847
1212.630, 175.0854
1213.712, 105.3833
1214.794, 49.67920
1215.875, 119.9727
1216.956, 6.263184
1218.037, 4.550293
1219.118, 21.35791
1220.199, 37.11279
1221.280, 46.39014
1222.360, 115.6655
1223.441, 128.9380
1224.521, 91.20801
1225.601, 40.47559
1226.681, 18.74072
1227.760, 99.00342
1228.840, 24.26318
1229.919, 107.5200
1230.999, 26.22559
1232.078, 144.0098
1233.157, 63.24219
1234.236, 81.47217
1235.314, 75.70068
1236.393, 55.92578
1237.471, 111.1494
1238.549, 12.37012
1239.627, 207.5884
1240.705, 143.7847
1241.783, 62.99756
1242.860, 152.2085
1243.938, 61.41699
1245.015, 26.62354
1246.092, 84.82764
1247.169, 134.0293
1248.246, 74.22803
1249.323, 85.41846
1250.399, 165.6128
1251.475, 40.19434
1252.552, 135.9722
1253.628, 55.10547
1254.703, 60.26807
1255.779, 23.36377
1256.855, 134.5215
1257.930, 20.67725
1259.005, 111.8301
1260.080, 49.98145
1261.155, 34.14551
1262.230, 46.29492
1263.305, 87.37793
1264.379, 0.5102540
1265.454, 42.65576
1266.528, 3.061035
1267.602, 47.06836
1268.676, 87.21484
1269.750, 150.3311
1270.823, 86.47510
1271.897, 98.61768
1272.970, 148.7593
1274.043, 126.8804
1275.116, 150.0312
1276.189, 104.1841
1277.261, 137.1074
1278.334, 117.2573
1279.406, 75.30908
1280.478, 11.03955
1281.550, 10.94971
1282.622, 38.11816
1283.694, 11.13379
1284.766, 132.2515
1285.837, 122.3892
1286.908, 113.5259
1287.979, 89.66162
1289.050, 79.79688
1290.121, 67.93213
1291.192, 71.04541
1292.262, 56.17871
1293.333, 40.52832
1294.403, 94.66016
1295.473, 58.65234
1296.543, 97.78271
1297.613, 138.9111
1298.682, 110.0391
1299.752, 108.1660
1300.821, 167.1924
1301.890, 120.3169
1302.959, 67.44043
1304.028, 100.5405
1305.096, 133.6611
1306.165, 144.7495
1307.233, 128.6387
1308.301, 121.6113
1309.370, 105.6821
1310.437, 109.4839
1311.505, 104.9121
1312.573, 126.0220
1313.640, 108.1318
1314.708, 129.1973
1315.775, 164.3047
1316.842, 86.41162
1317.908, 130.5181
1318.975, 186.4785
1320.042, 119.5830
1321.108, 141.6880
1322.174, 124.7910
1323.240, 133.8940
1324.306, 71.99658
1325.372, 130.0986
1326.438, 138.1738
1327.503, 210.4585
1328.568, 150.4990
1329.634, 130.5234
1330.699, 169.6260
1331.763, 119.7280
1332.828, 108.8311
1333.893, 106.9341
1334.957, 89.08496
1336.021, 200.3647
1337.085, 58.46045
1338.149, 134.4756
1339.213, 47.58154
1340.277, 147.6885
1341.340, 92.79688
1342.404, 96.90625
1343.467, 88.01660
1344.530, 72.12842
1345.593, 59.08838
1346.655, 56.03369
1347.718, 39.21924
1348.780, 55.48584
1349.843, 57.07324
1350.905, 84.48047
1351.967, 89.60254
1353.028, 92.72656
1354.090, 128.8496
1355.152, 47.89990
1356.213, 152.0269
1357.274, 89.10352
1358.335, 20.23340
1359.396, 67.38477
1360.457, 91.51758
1361.517, 84.65332
1362.578, 58.79102
1363.638, 92.92969
1364.698, 88.07129
1365.758, 97.21387
1366.818, 38.25684
1367.878, 116.4019
1368.937, 92.54883
1369.997, 95.69727
1371.056, 134.8730
1372.115, 50.02588
1373.174, 60.14258
1374.232, 122.3003
1375.291, 160.4609
1376.350, 129.6230
1377.408, 108.7886
1378.466, 115.9570
1379.524, 91.36377
1380.582, 57.56934
1381.640, 93.74658
1382.697, 104.9453
1383.754, 119.0786
1384.812, 69.26562
1385.869, 103.3950
1386.926, 119.5894
1387.983, 1.787109
1389.039, 85.44336
1390.096, 12.32031
1391.152, 146.5288
1392.208, 38.59961
1393.264, 12.16602
1394.320, 73.67725
1395.376, 51.97656
1396.431, 122.3726
1397.487, 86.62207
1398.542, 185.9473
1399.597, 74.20508
1400.652, 128.1274
1401.707, 150.3955
1402.762, 30.66846
1403.816, 133.9458
1404.871, 116.2339
1405.925, 86.57178
1406.979, 91.87939
1408.033, 34.56738
1409.086, 113.8301
1410.140, 146.1616
1411.194, 78.54883
1412.247, 165.9507
1413.300, 111.3223
1414.353, 121.7485
1415.406, 90.04785
1416.458, 103.4111
1417.511, 90.73584
1418.563, 42.06055
1419.616, 9.597656
1420.668, 23.62451
1421.720, 42.84326
1422.772, 178.0557
1423.823, 77.35742
1424.875, 127.5547
1425.926, 104.7363
1426.977, 98.90381
1428.028, 85.06104
1429.079, 71.20215
1430.130, 174.3994
1431.180, 196.5171
1432.231, 120.7061
1433.281, 132.2495
1434.331, 98.02734
1435.381, 166.4282
1436.431, 67.48438
1437.481, 94.42725
1438.530, 143.9805
1439.580, 124.2158
1440.629, 128.4541
1441.678, 209.6938
1442.727, 143.9365
1443.776, 190.1821
1444.824, 207.4297
1445.873, 193.6792
1446.921, 103.9395
1447.969, 81.20264
1449.017, 116.4683
1450.065, 163.7593
1451.113, 171.0762
1452.160, 145.4634
1453.208, 136.8555
1454.255, 112.2524
1455.302, 190.6553
1456.349, 169.0654
1457.396, 166.4814
1458.443, 152.9028
1459.489, 114.3296
1460.535, 148.7622
1461.582, 207.2012
1462.628, 167.6665
1463.674, 82.13867
1464.719, 207.6172
1465.765, 110.1025
1466.810, 178.5947
1467.856, 201.0933
1468.901, 91.59912
1469.946, 159.1113
1470.991, 147.6309
1472.035, 73.17432
1473.080, 119.7407
1474.124, 102.3154
1475.169, 22.89941
1476.213, 76.47021
1477.257, 163.0610
1478.300, 146.6562
1479.344, 95.86084
1480.388, 110.4453
1481.431, 71.03613
1482.474, 118.6089
1483.517, 91.16455
1484.560, 197.7266
1485.603, 157.2925
1486.645, 92.87451
1487.688, 164.4619
1488.730, 87.05322
1489.772, 48.64844
1490.814, 91.24902
1491.856, 64.40381
1492.898, 74.01221
1493.939, 136.6299
1494.981, 89.25732
1496.022, 36.89697
1497.063, 54.54883
1498.104, 111.2148
1499.145, 44.88867
1500.186, 99.57910
1501.226, 138.2944
1502.266, 70.02930
1503.307, 71.77979
1504.347, 40.54590
1505.387, 41.32812
1506.426, 74.12695
1507.466, 45.94336
1508.505, 60.77441
1509.545, 160.6191
1510.584, 57.47900
1511.623, 172.3530
1512.662, 117.2422
1513.700, 1.146484
1514.739, 1.934570
1515.777, 125.0005
1516.815, 123.9517
1517.854, 126.9175
1518.892, 17.10107
1519.929, 46.78467
1520.967, 28.79492
1522.004, 145.8330
1523.042, 46.89014
1524.079, 85.96924
1525.116, 44.92969
1526.153, 115.1943
1527.190, 140.3442
1528.226, 88.53613
1529.263, 162.7568
1530.299, 60.91553
1531.335, 181.1958
1532.371, 179.5088
1533.407, 138.8540
1534.443, 95.96240
1535.478, 57.28564
1536.514, 70.72363
1537.549, 82.19873
1538.584, 82.38281
1539.619, 174.2642
1540.654, 137.5854
1541.689, 148.4893
1542.723, 82.39453
1543.757, 73.67822
1544.792, 64.34961
1545.826, 107.4116
1546.860, 154.8301
1547.893, 32.20459
1548.927, 71.12109
1549.960, 83.27344
1550.994, 105.8730
1552.027, 123.9927
1553.060, 104.7915
1554.093, 26.60596
1555.126, 62.15186
1556.158, 19.66309
1557.191, 1.258789
1558.223, 44.08691
1559.255, 30.26514
1560.287, 4.496582
1561.319, 0.5991210
1562.350, 0.0000000E+00
##END=



