##NAMES=Clinohumite
##RRUFFID=R040122
##IDEAL CHEMISTRY=Mg_9_(SiO_4_)_4_F_2_
##LOCALITY=Anzahamazonono,  Madagascar
##OWNER=RRUFF
##SOURCE=University of Arizona Mineral Museum
##DESCRIPTION=Orange-brown blebs embedded in calcite matrix
##STATUS=The identification of this mineral has been confirmed by X-ray diffraction and chemical analysis
##URL=rruff.info/R040122
##MEASURED CHEMISTRY=(Mg_0.96_Fe_0.02_Ti_0.01_Ca_0.01_)_9_(SiO_4_)_4_(F_0.59_(OH)_0.41_)_2_
##PIN_ID=M00157
##ORIENTATION=Laser parallel to (0 1 1). Fiducial mark perpendicular to laser is parallel to a [1 0 0]
54.966, 0.000
56.365, 307.076
57.765, 361.897
59.164, 607.363
60.563, 515.224
61.962, 744.870
63.360, 758.550
64.758, 698.057
66.157, 474.719
67.554, 513.999
68.952, 471.376
70.349, 429.670
71.747, 426.646
73.144, 271.788
74.540, 271.886
75.937, 160.029
77.333, 63.018
78.729, 69.690
80.125, 60.492
81.521, 36.415
82.916, 119.170
84.311, 173.147
85.706, 15.685
87.101, 40.248
88.496, 25.013
89.890, 487.877
91.284, 547.675
92.678, 720.582
94.071, 490.719
95.465, 422.131
96.858, 185.813
98.251, 3.766
99.644, 35.988
101.036, 24.529
102.428, 109.801
103.820, 4.149
105.212, 1.698
106.604, 144.642
107.995, 94.248
109.387, 279.852
110.777, 17.704
112.168, 42.717
113.559, 15.896
114.949, 80.246
116.339, 84.765
117.729, 84.449
119.119, 10.296
120.508, 13.465
121.897, 6.148
123.286, 39.217
124.675, 13.747
126.063, 40.124
127.452, 24.350
128.840, 17.422
130.228, 13.658
131.615, 79.891
133.003, 114.279
134.390, 162.823
135.777, 210.522
137.164, 250.378
138.550, 362.413
139.937, 368.683
141.323, 462.155
142.709, 511.138
144.094, 495.576
145.480, 594.450
146.865, 620.395
148.250, 618.388
149.635, 630.403
151.019, 664.344
152.403, 671.218
153.788, 620.109
155.171, 724.979
156.555, 702.887
157.939, 625.868
159.322, 598.924
160.705, 570.028
162.088, 591.120
163.470, 501.227
164.853, 536.412
166.235, 580.688
167.617, 489.076
168.998, 391.592
170.380, 405.301
171.761, 433.155
173.142, 515.250
174.523, 671.384
175.904, 859.598
177.284, 1142.894
178.664, 1334.273
180.044, 1569.736
181.424, 1882.282
182.803, 2145.913
184.183, 2335.625
185.562, 2307.422
186.940, 2334.302
188.319, 2205.265
189.698, 1874.313
191.076, 1608.450
192.454, 1492.678
193.831, 1316.999
195.209, 1140.419
196.586, 1195.940
197.963, 1042.566
199.340, 1114.302
200.717, 1238.149
202.093, 1260.108
203.470, 1405.185
204.846, 1554.379
206.221, 1687.693
207.597, 1880.127
208.972, 1907.682
210.347, 1714.357
211.722, 1644.152
213.097, 1350.065
214.472, 1231.094
215.846, 975.237
217.220, 732.493
218.594, 583.860
219.967, 573.336
221.341, 535.801
222.714, 449.116
224.087, 361.128
225.460, 370.769
226.832, 315.029
228.204, 281.828
229.577, 314.228
230.948, 300.247
232.320, 279.846
233.692, 285.617
235.063, 314.093
236.434, 304.372
237.805, 456.307
239.175, 469.694
240.545, 367.187
241.916, 490.096
243.286, 410.889
244.655, 512.809
246.025, 373.313
247.394, 379.893
248.763, 364.524
250.132, 232.821
251.501, 341.790
252.869, 289.051
254.237, 232.426
255.605, 234.905
256.973, 231.443
258.340, 302.061
259.708, 364.766
261.075, 377.556
262.442, 373.151
263.808, 338.660
265.175, 278.807
266.541, 333.385
267.907, 401.990
269.273, 369.401
270.639, 540.853
272.004, 531.205
273.369, 708.473
274.734, 823.059
276.099, 926.389
277.463, 969.812
278.828, 1068.398
280.192, 1108.219
281.556, 985.467
282.919, 1055.537
284.283, 965.585
285.646, 960.124
287.009, 823.492
288.372, 867.054
289.734, 829.248
291.097, 747.651
292.459, 648.026
293.821, 640.362
295.183, 585.995
296.544, 580.691
297.905, 530.452
299.266, 486.274
300.627, 419.159
301.988, 480.105
303.348, 454.111
304.709, 427.178
306.069, 410.303
307.428, 438.485
308.788, 459.612
310.147, 499.051
311.507, 556.376
312.865, 610.786
314.224, 670.253
315.583, 737.776
316.941, 768.357
318.299, 829.014
319.657, 872.755
321.015, 874.616
322.372, 736.569
323.729, 826.645
325.086, 739.840
326.443, 706.178
327.800, 686.638
329.156, 680.260
330.512, 652.036
331.868, 689.961
333.224, 660.072
334.579, 736.332
335.935, 706.760
337.290, 716.338
338.645, 666.067
339.999, 645.947
341.354, 592.960
342.708, 549.133
344.062, 623.443
345.416, 525.885
346.769, 540.474
348.123, 545.210
349.476, 450.072
350.829, 501.067
352.182, 490.183
353.534, 559.398
354.887, 580.721
356.239, 590.140
357.591, 571.664
358.942, 574.287
360.294, 537.981
361.645, 480.754
362.996, 537.577
364.347, 426.443
365.698, 493.353
367.048, 503.300
368.398, 575.287
369.748, 658.853
371.098, 739.315
372.448, 877.462
373.797, 968.590
375.146, 1130.752
376.495, 1284.947
377.844, 1421.174
379.192, 1390.432
380.540, 1427.722
381.889, 1186.041
383.236, 1119.388
384.584, 1188.754
385.932, 1128.137
387.279, 1115.539
388.626, 1306.960
389.973, 1551.401
391.319, 1561.866
392.666, 1801.354
394.012, 1622.869
395.358, 1668.410
396.704, 1506.981
398.049, 1299.584
399.394, 1045.219
400.740, 703.887
402.084, 493.589
403.429, 206.327
404.774, 57.101
406.118, 155.916
407.462, 29.776
408.806, 25.707
410.150, 193.684
411.493, 208.698
412.836, 314.744
414.179, 382.835
415.522, 411.963
416.865, 526.140
418.207, 590.345
419.549, 554.578
420.891, 489.836
422.233, 487.120
423.575, 463.429
424.916, 280.764
426.257, 372.129
427.598, 395.521
428.939, 326.948
430.279, 410.429
431.619, 294.935
432.959, 339.466
434.299, 102.018
435.639, 13.591
436.978, 57.818
438.318, 31.781
439.657, 123.601
440.996, 33.006
442.334, 126.371
443.673, 87.763
445.011, 245.162
446.349, 157.618
447.687, 97.102
449.024, 58.595
450.361, 53.083
451.699, 78.570
453.036, 15.060
454.372, 116.459
455.709, 276.991
457.045, 304.533
458.381, 422.086
459.717, 400.648
461.053, 455.219
462.388, 645.799
463.724, 742.387
465.059, 780.982
466.394, 756.584
467.728, 905.193
469.063, 980.808
470.397, 900.429
471.731, 1014.055
473.065, 1120.685
474.398, 1150.319
475.732, 1353.958
477.065, 1315.599
478.398, 1462.847
479.731, 1597.938
481.063, 1791.026
482.396, 1904.789
483.728, 2134.265
485.060, 2381.624
486.391, 2447.397
487.723, 2698.612
489.054, 2788.271
490.385, 2896.025
491.716, 2992.132
493.047, 3047.514
494.377, 3037.985
495.708, 3149.731
497.038, 3201.727
498.368, 3141.556
499.697, 3278.979
501.027, 3375.859
502.356, 3475.995
503.685, 3363.538
505.014, 3432.005
506.342, 3331.057
507.671, 3355.613
508.999, 3239.543
510.327, 3198.064
511.655, 3206.666
512.982, 3087.718
514.310, 3084.129
515.637, 3069.450
516.964, 3149.703
518.291, 3101.817
519.617, 3377.275
520.944, 3583.363
522.270, 3560.540
523.596, 3903.718
524.921, 4174.780
526.247, 4497.532
527.572, 4661.239
528.897, 5046.897
530.222, 5452.505
531.547, 5913.065
532.871, 6275.580
534.196, 6627.043
535.520, 6818.458
536.844, 6972.823
538.167, 7026.139
539.491, 6853.407
540.814, 6640.622
542.137, 6347.787
543.460, 5798.902
544.783, 5437.968
546.105, 5051.982
547.427, 4773.945
548.749, 4417.856
550.071, 4058.716
551.393, 3851.524
552.714, 3608.282
554.035, 3183.988
555.356, 2901.642
556.677, 2694.244
557.998, 2488.792
559.318, 2345.289
560.638, 2265.733
561.958, 2111.124
563.278, 2114.462
564.597, 2105.747
565.917, 2027.978
567.236, 2092.155
568.555, 2261.279
569.874, 2143.349
571.192, 2431.363
572.511, 2374.324
573.829, 2420.229
575.147, 2348.081
576.464, 2427.877
577.782, 2379.618
579.099, 2331.303
580.416, 2311.934
581.733, 2422.508
583.050, 2554.027
584.366, 2775.491
585.683, 3098.898
586.999, 3211.250
588.315, 3421.547
589.630, 3624.786
590.946, 3595.970
592.261, 3517.098
593.576, 3195.169
594.891, 2984.183
596.206, 2794.007
597.520, 2843.910
598.834, 2816.701
600.148, 2874.141
601.462, 2976.832
602.776, 3095.466
604.089, 3124.918
605.402, 3238.949
606.715, 3309.064
608.028, 3333.270
609.341, 3127.551
610.653, 2960.039
611.965, 2723.040
613.277, 2370.284
614.589, 2177.476
615.901, 1830.612
617.212, 1710.695
618.523, 1526.726
619.834, 1347.703
621.145, 1174.628
622.456, 1082.500
623.766, 1003.319
625.076, 901.085
626.386, 868.800
627.696, 632.462
629.006, 497.070
630.315, 582.627
631.624, 343.133
632.933, 310.586
634.242, 250.989
635.551, 94.338
636.859, 51.598
638.167, 81.249
639.475, 18.729
640.783, 105.414
642.090, 88.744
643.398, 176.250
644.705, 104.979
646.012, 256.891
647.318, 228.065
648.625, 219.487
649.931, 353.148
651.237, 229.120
652.543, 299.333
653.849, 241.827
655.155, 241.568
656.460, 253.554
657.765, 183.790
659.070, 286.238
660.375, 215.951
661.679, 185.889
662.984, 262.035
664.288, 257.427
665.592, 187.060
666.895, 215.896
668.199, 172.949
669.502, 104.191
670.805, 129.587
672.108, 100.147
673.411, 134.854
674.713, 120.721
676.016, 18.743
677.318, 48.860
678.620, 50.913
679.921, 78.630
681.223, 76.303
682.524, 127.933
683.825, 100.529
685.126, 213.091
686.427, 230.621
687.727, 232.119
689.028, 316.587
690.328, 268.025
691.628, 388.435
692.927, 503.816
694.227, 451.171
695.526, 571.622
696.825, 630.800
698.124, 661.077
699.423, 707.330
700.721, 697.560
702.020, 773.104
703.318, 871.952
704.616, 917.116
705.913, 1030.260
707.211, 1141.385
708.508, 1399.491
709.805, 1551.580
711.102, 1535.651
712.399, 1792.706
713.695, 1777.747
714.992, 2144.772
716.288, 2266.784
717.584, 2493.783
718.879, 2591.769
720.175, 2903.745
721.470, 3386.708
722.765, 3567.662
724.060, 4000.608
725.355, 4557.545
726.649, 4935.474
727.944, 5658.396
729.238, 6424.314
730.532, 6967.224
731.825, 8205.129
733.119, 9191.034
734.412, 10048.932
735.705, 10970.831
736.998, 11934.726
738.291, 12754.620
739.584, 13452.515
740.876, 13952.414
742.168, 14431.309
743.460, 14700.210
744.752, 15108.110
746.043, 15712.020
747.334, 16546.930
748.626, 17121.846
749.916, 17719.768
751.207, 18515.701
752.498, 19067.645
753.788, 19744.598
755.078, 19600.582
756.368, 19710.578
757.658, 19334.602
758.947, 18290.645
760.237, 17616.748
761.526, 16234.902
762.815, 15090.094
764.104, 13679.315
765.392, 12421.570
766.680, 11621.851
767.969, 10543.158
769.257, 10668.483
770.544, 10064.839
771.832, 10430.220
773.119, 10773.619
774.406, 11590.046
775.693, 12364.502
776.980, 13227.978
778.267, 14933.477
779.553, 16266.007
780.839, 18178.561
782.125, 19496.139
783.411, 21067.744
784.697, 21613.379
785.982, 22066.051
787.267, 21902.746
788.552, 21110.473
789.837, 20154.232
791.122, 19613.422
792.406, 18038.805
793.690, 17114.213
794.974, 16018.987
796.258, 14599.077
797.542, 13687.323
798.825, 12715.194
800.108, 12329.654
801.391, 11841.718
802.674, 12139.738
803.957, 12606.444
805.239, 13164.919
806.522, 13931.345
807.804, 13934.533
809.085, 14241.537
810.367, 13867.763
811.649, 13092.436
812.930, 12833.688
814.211, 12535.746
815.492, 12392.443
816.772, 12707.279
818.053, 13047.579
819.333, 13564.428
820.613, 14370.952
821.893, 16165.928
823.173, 18018.859
824.452, 21348.373
825.732, 26320.570
827.011, 30727.887
828.290, 35465.348
829.568, 38756.992
830.847, 39817.371
832.125, 38546.188
833.403, 35518.973
834.681, 31616.836
835.959, 28860.891
837.236, 26863.309
838.514, 27039.857
839.791, 27990.512
841.068, 30068.303
842.345, 33006.207
843.621, 36974.227
844.898, 39284.371
846.174, 40583.629
847.450, 41552.023
848.726, 39382.516
850.001, 37299.121
851.277, 34948.840
852.552, 33657.664
853.827, 33745.609
855.102, 35018.664
856.376, 37755.852
857.651, 42051.133
858.925, 46541.547
860.199, 48037.066
861.473, 47026.730
862.746, 43576.504
864.020, 38782.391
865.293, 32724.381
866.566, 28571.486
867.839, 24341.705
869.112, 21043.045
870.384, 18515.488
871.656, 16616.037
872.928, 14972.688
874.200, 14049.452
875.472, 12756.320
876.744, 11771.309
878.015, 10781.411
879.286, 9770.618
880.557, 8982.929
881.828, 7915.349
883.098, 7225.868
884.369, 6281.493
885.639, 5790.224
886.909, 5154.057
888.178, 4660.995
889.448, 4273.039
890.717, 4015.188
891.987, 3564.445
893.256, 3311.808
894.524, 3011.273
895.793, 2729.841
897.061, 2626.513
898.330, 2509.284
899.598, 2223.156
900.865, 2267.126
902.133, 2093.199
903.401, 1897.725
904.668, 1894.996
905.935, 1882.564
907.202, 1728.743
908.468, 1766.844
909.735, 1699.544
911.001, 1722.309
912.267, 1660.735
913.533, 1773.343
914.799, 1956.561
916.064, 1993.243
917.330, 2321.252
918.595, 2300.834
919.860, 2414.489
921.124, 2797.029
922.389, 2987.907
923.653, 3528.047
924.918, 4119.069
926.182, 5474.704
927.445, 7190.692
928.709, 9528.803
929.972, 11969.360
931.236, 13668.254
932.499, 13552.646
933.761, 11718.136
935.024, 8601.151
936.286, 6380.585
937.549, 4604.418
938.811, 3257.936
940.073, 2569.595
941.334, 1967.854
942.596, 1533.246
943.857, 1446.499
945.118, 1223.873
946.379, 1165.979
947.640, 1080.634
948.900, 1156.656
950.161, 1182.480
951.421, 1250.626
952.681, 1355.539
953.940, 1569.933
955.200, 1867.182
956.459, 2348.819
957.719, 2838.445
958.978, 3507.853
960.236, 4331.186
961.495, 5792.545
962.753, 7561.317
964.012, 9700.360
965.270, 12142.181
966.527, 14352.508
967.785, 15420.597
969.043, 14837.166
970.300, 12951.489
971.557, 10515.690
972.814, 8271.311
974.071, 6325.748
975.327, 5006.342
976.583, 3735.070
977.840, 2990.939
979.095, 2271.531
980.351, 1803.666
981.607, 1551.020
982.862, 1118.254
984.117, 994.830
985.372, 987.907
986.627, 610.349
987.882, 777.956
989.136, 704.141
990.390, 531.493
991.644, 659.734
992.898, 639.648
994.152, 621.384
995.405, 632.752
996.659, 657.545
997.912, 678.903
999.165, 627.541
1000.417, 634.650
1001.670, 547.849
1002.922, 677.611
1004.174, 525.514
1005.426, 702.465
1006.678, 699.422
1007.930, 636.807
1009.181, 623.237
1010.432, 605.961
1011.683, 723.883
1012.934, 592.659
1014.185, 625.778
1015.435, 647.668
1016.685, 509.220
1017.935, 394.828
1019.185, 458.018
1020.435, 410.184
1021.684, 378.084
1022.934, 410.721
1024.183, 516.569
1025.432, 480.840
1026.680, 482.421
1027.929, 459.207
1029.177, 425.883
1030.425, 463.892
1031.673, 410.987
1032.921, 369.964
1034.169, 324.497
1035.416, 254.059
1036.663, 236.854
1037.911, 166.416
1039.157, 184.167
1040.404, 172.781
1041.650, 135.819
1042.897, 165.485
1044.143, 122.759
1045.389, 91.382
1046.634, 117.870
1047.880, 121.382
1049.125, 134.849
1050.371, 23.266
1051.615, 85.134
1052.860, 33.464
1054.105, 91.973
1055.349, 19.647
1056.593, 55.371
1057.837, 44.198
1059.081, 3.016
1060.325, 53.217
1061.568, 90.568
1062.812, 183.354
1064.055, 72.168
1065.298, 119.983
1066.540, 92.810
1067.783, 19.644
1069.025, 105.470
1070.267, 9.692
1071.509, 103.139
1072.751, 73.982
1073.993, 14.833
1075.234, 43.678
1076.475, 88.524
1077.716, 36.614
1078.957, 23.242
1080.198, 72.100
1081.438, 36.029
1082.679, 53.161
1083.919, 24.704
1085.159, 37.572
1086.398, 47.449
1087.638, 31.338
1088.877, 32.252
1090.116, 48.137
1091.355, 11.055
1092.594, 29.019
1093.833, 41.089
1095.071, 21.847
1096.309, 43.206
1097.547, 38.750
1098.785, 26.722
1100.023, 34.287
1101.260, 67.715
1102.498, 92.754
1103.735, 11.843
1104.972, 63.953
1106.208, 8.102
1107.445, 22.272
1108.681, 130.473
1109.918, 72.756
1111.154, 34.094
1112.389, 38.526
1113.625, 95.874
1114.860, 27.346
1116.096, 102.861
1117.331, 20.458
1118.566, 62.099
1119.800, 36.808
1121.035, 19.429
1122.269, 88.635
1123.503, 75.577
1124.737, 132.963
1125.971, 61.089
1127.205, 56.805
1128.438, 75.786
1129.671, 57.858
1130.904, 35.021
1132.137, 67.262
1133.370, 86.600
1134.602, 72.035
1135.834, 6.576
1137.066, 91.186
1138.298, 25.918
1139.530, 83.725
1140.762, 26.635
1141.993, 51.611
1143.224, 57.689
1144.455, 28.667
1145.686, 33.783
1146.917, 2.546
1148.147, 9.986
1149.377, 12.459
1150.607, 65.862
1151.837, 7.800
1153.067, 11.452
1154.296, 17.383
1155.526, 11.669
1156.755, 14.623
1157.984, 73.478
1159.213, 66.738
1160.441, 81.901
1161.670, 0.460
1162.898, 116.903
1164.126, 77.273
1165.354, 37.561
1166.581, 49.743
1167.809, 100.823
1169.036, 144.819
1170.263, 125.739
1171.490, 96.580
1172.717, 148.327
1173.943, 43.994
1175.170, 111.545
1176.396, 150.001
1177.622, 181.375
1178.848, 145.670
1180.073, 194.876
1181.299, 176.005
1182.524, 180.049
1183.749, 226.010
1184.974, 188.893
1186.199, 187.690
1187.423, 198.400
1188.648, 186.023
1189.872, 206.556
1191.096, 232.000
1192.320, 292.361
1193.543, 230.642
1194.767, 330.833
1195.990, 352.946
1197.213, 375.977
1198.436, 301.928
1199.659, 400.793
1200.881, 401.223
1202.104, 424.923
1203.326, 458.344
1204.548, 490.168
1205.770, 487.086
1206.991, 567.419
1208.213, 542.703
1209.434, 658.336
1210.655, 594.803
1211.876, 606.670
1213.096, 681.084
1214.317, 691.180
1215.537, 684.715
1216.757, 795.262
1217.977, 829.853
1219.197, 868.276
1220.417, 847.573
1221.636, 890.243
1222.855, 884.206
1224.074, 989.558
1225.293, 934.857
1226.512, 979.735
1227.731, 991.203
1228.949, 994.541
1230.167, 1000.942
1231.385, 1018.213
1232.603, 1242.088
1233.820, 1087.935
1235.038, 1173.742
1236.255, 1295.631
1237.472, 1238.316
1238.689, 1268.567
1239.906, 1384.342
1241.122, 1348.759
1242.338, 1425.977
1243.555, 1436.437
1244.771, 1362.403
1245.986, 1376.213
1247.202, 1398.131
1248.417, 1421.930
1249.633, 1435.891
1250.848, 1427.586
1252.063, 1457.235
1253.277, 1392.641
1254.492, 1493.464
1255.706, 1471.333
1256.920, 1472.818
1258.134, 1406.498
1259.348, 1489.278
1260.562, 1530.542
1261.775, 1531.409
1262.988, 1476.348
1264.201, 1555.438
1265.414, 1516.081
1266.627, 1604.722
1267.839, 1534.592
1269.052, 1617.470
1270.264, 1603.379
1271.476, 1665.396
1272.688, 1663.169
1273.899, 1665.796
1275.111, 1684.607
1276.322, 1682.709
1277.533, 1694.997
1278.744, 1734.776
1279.955, 1714.753
1281.165, 1740.706
1282.376, 1756.232
1283.586, 1810.838
1284.796, 1837.588
1286.006, 1744.747
1287.215, 1814.222
1288.425, 1818.023
1289.634, 1728.597
1290.843, 1814.195
1292.052, 1780.576
1293.261, 1807.090
1294.469, 1764.324
1295.678, 1741.443
1296.886, 1690.447
1298.094, 1608.766
1299.302, 1525.068
1300.509, 1482.595
1301.717, 1534.179
1302.924, 1565.304
1304.131, 1370.460
1305.338, 1398.215
1306.545, 1292.204
1307.752, 1274.192
1308.958, 1175.923
1310.164, 1242.210
1311.370, 1075.957
1312.576, 1329.294
1313.782, 1064.764
1314.987, 1064.886
1316.193, 994.543
1317.398, 1132.602
1318.603, 1076.141
1319.807, 1193.188
1321.012, 1011.862
1322.216, 1047.955
1323.421, 1052.340
1324.625, 991.573
1325.829, 1099.156
1327.032, 971.840
1328.236, 1064.617
1329.439, 984.934
1330.642, 912.310
1331.845, 974.450
1333.048, 974.647
1334.251, 973.300
1335.453, 921.220
1336.656, 857.408
1337.858, 908.020
1339.060, 813.633
1340.261, 867.075
1341.463, 771.349
1342.664, 799.497
1343.866, 754.986
1345.067, 721.813
1346.267, 631.452
1347.468, 688.019
1348.669, 611.562
1349.869, 674.066
1351.069, 726.394
1352.269, 559.609
1353.469, 614.687
1354.668, 540.638
1355.868, 510.467
1357.067, 558.156
1358.266, 494.706
1359.465, 537.116
1360.664, 462.376
1361.862, 482.492
1363.061, 437.456
1364.259, 404.282
1365.457, 341.972
1366.655, 363.372
1367.852, 422.949
1369.050, 405.252
1370.247, 396.425
1371.444, 412.473
1372.641, 321.403
1373.838, 281.210
1375.035, 282.900
1376.231, 313.482
1377.427, 321.967
1378.623, 196.363
1379.819, 166.678
1381.015, 248.923
1382.211, 317.125
1383.406, 226.304
1384.601, 286.497
1385.796, 192.771
1386.991, 226.267
1388.185, 129.748
1389.380, 175.113
1390.574, 299.393
1391.768, 185.581
1392.962, 259.660
1394.156, 144.700
1395.350, 140.650
1396.543, 140.525
1397.736, 188.344
1398.929, 212.093
1400.122, 140.716
1401.315, 202.188
1402.507, 166.519
1403.700, 62.827
1404.892, 144.102
1406.084, 76.361
1407.276, 109.594
1408.467, 92.787
1409.659, 43.895
1410.850, 66.002
1412.041, 83.073
1413.232, 73.016
1414.423, 17.862
1415.614, 0.334
1416.804, 107.469
1417.994, 14.251
1419.184, 94.048
1420.374, 28.811
1421.564, 36.574
1422.753, 22.692
1423.943, 33.004
1425.132, 7.694
1426.321, 66.391
1427.510, 25.942
1428.698, 47.309
1429.887, 79.706
1431.075, 3.127
1432.263, 6.440
1433.451, 22.999
1434.639, 24.461
1435.827, 0.060
1437.014, 83.434
1438.201, 51.935
1439.388, 49.560
1440.575, 51.946
1441.762, 5.445
1442.949, 66.069
1444.135, 29.605
1445.321, 56.039
1446.507, 2.636
1447.693, 41.560
1448.879, 132.146
1450.064, 87.964
1451.250, 144.400
1452.435, 22.655
1453.620, 194.583
1454.805, 143.749
1455.989, 124.355
1457.174, 250.660
1458.358, 177.101
1459.542, 258.577
1460.726, 273.348
1461.910, 306.963
1463.093, 355.749
1464.277, 251.447
1465.460, 330.062
1466.643, 347.762
1467.826, 258.402
1469.009, 337.643
1470.191, 272.392
1471.373, 401.758
1472.556, 362.371
1473.738, 388.494
1474.919, 335.061
1476.101, 421.130
1477.283, 333.380
1478.464, 386.916
1479.645, 387.563
1480.826, 394.354
1482.007, 435.528
1483.187, 434.254
1484.368, 442.115
1485.548, 374.399
1486.728, 325.494
1487.908, 324.654
1489.088, 335.798
1490.268, 353.487
1491.447, 421.438
1492.626, 435.544
1493.805, 499.209
1494.984, 562.546
1496.163, 548.729
1497.341, 541.679
1498.520, 586.732
1499.698, 568.055
1500.876, 591.354
1502.054, 657.936
1503.232, 600.936
1504.409, 632.199
1505.586, 600.131
1506.763, 636.504
1507.940, 690.323
1509.117, 545.689
1510.294, 575.345
1511.470, 643.395
1512.647, 557.568
1513.823, 557.076
1514.999, 473.313
1516.174, 441.661
1517.350, 308.508
1518.526, 343.872
1519.701, 279.812
1520.876, 146.807
1522.051, 139.684
1523.226, 29.428
1524.400, 10.448
1525.574, 83.535
1526.749, 30.232
1527.923, 0.000
##END=



