##NAMES=Clinozoisite
##RRUFFID=R040085
##IDEAL CHEMISTRY=Ca_2_Al_3_(Si_2_O_7_)(SiO_4_)O(OH)
##LOCALITY=Alamos, Sonora, Mexico
##OWNER=RRUFF
##SOURCE=University of Arizona Mineral Museum
##DESCRIPTION=Divergent aggregate of red thin prismatic crystals
##STATUS=The identification of this mineral has been confirmed by X-ray diffraction and chemical analysis
##URL=rruff.info/R040085
##MEASURED CHEMISTRY=Ca_2.03_(Al_0.90_Fe_0.13_)_3_(Si_1.00_O_4_)(Si_2.00_O_7_)O(OH)
##PIN_ID=S00052
##ORIENTATION=Laser parallel to -b* (0 -1 0). Fiducial mark perpendicular to laser is parallel to c [0 0 1]
118.891, 0.000
120.287, 5.949
121.683, 43.068
123.079, 358.975
124.475, 327.288
125.870, 470.808
127.265, 575.381
128.660, 638.137
130.055, 877.239
131.449, 831.846
132.843, 1090.994
134.237, 1193.741
135.631, 1379.271
137.024, 1547.018
138.417, 1626.583
139.810, 1857.990
141.203, 1651.850
142.596, 1808.809
143.988, 1757.117
145.380, 1516.386
146.771, 1676.864
148.163, 1417.433
149.554, 1588.109
150.945, 1438.921
152.336, 1419.886
153.726, 1301.015
155.117, 1262.321
156.507, 1253.844
157.896, 1285.610
159.286, 1411.164
160.675, 1543.271
162.064, 1824.109
163.453, 2045.808
164.842, 2116.732
166.230, 2173.236
167.618, 2090.810
169.006, 2225.574
170.393, 2189.039
171.781, 1887.318
173.168, 1709.593
174.555, 1431.457
175.941, 1353.303
177.328, 1225.385
178.714, 1127.693
180.100, 890.218
181.485, 742.949
182.871, 765.877
184.256, 578.992
185.641, 632.281
187.025, 515.736
188.410, 499.356
189.794, 433.176
191.178, 337.288
192.562, 221.862
193.945, 174.050
195.328, 85.758
196.711, 77.484
198.094, 7.079
199.476, 11.553
200.859, 34.062
202.241, 79.723
203.623, 33.693
205.004, 59.056
206.385, 13.417
207.766, 117.738
209.147, 72.005
210.528, 66.210
211.908, 71.900
213.288, 40.042
214.668, 48.423
216.048, 7.646
217.427, 26.212
218.806, 20.001
220.185, 13.715
221.564, 32.641
222.942, 60.933
224.320, 74.438
225.698, 67.878
227.076, 21.257
228.453, 95.426
229.830, 2.166
231.207, 268.964
232.584, 75.821
233.960, 162.738
235.337, 299.712
236.713, 396.744
238.088, 483.834
239.464, 690.982
240.839, 788.188
242.214, 915.441
243.589, 1262.746
244.964, 1360.094
246.338, 1717.449
247.712, 2004.786
249.086, 2372.125
250.459, 2749.493
251.833, 3006.906
253.206, 3264.373
254.579, 3151.861
255.951, 2889.396
257.324, 2796.997
258.696, 2344.655
260.068, 2136.685
261.439, 1806.466
262.811, 1389.579
264.182, 1437.309
265.553, 1232.316
266.924, 1190.266
268.294, 903.652
269.665, 1045.786
271.035, 953.498
272.404, 831.270
273.774, 819.102
275.143, 796.990
276.512, 754.935
277.881, 622.935
279.250, 640.988
280.618, 599.095
281.986, 497.254
283.354, 555.464
284.721, 379.252
286.089, 543.817
287.456, 389.178
288.823, 335.043
290.190, 421.301
291.556, 297.880
292.922, 504.727
294.288, 441.802
295.654, 429.076
297.019, 466.521
298.385, 594.118
299.750, 511.848
301.114, 559.698
302.479, 477.658
303.843, 345.720
305.207, 433.875
306.571, 232.111
307.935, 270.413
309.298, 208.777
310.661, 257.197
312.024, 145.668
313.387, 114.188
314.749, 62.762
316.111, 151.387
317.473, 100.060
318.835, 248.782
320.196, 147.556
321.558, 276.377
322.919, 365.242
324.279, 204.132
325.640, 363.066
327.000, 272.006
328.360, 530.904
329.720, 479.774
331.080, 588.623
332.439, 827.490
333.798, 786.389
335.157, 1065.325
336.516, 1124.233
337.874, 1093.138
339.232, 1352.085
340.590, 1311.077
341.948, 1450.113
343.305, 1599.193
344.662, 1908.315
346.019, 2157.479
347.376, 2586.682
348.733, 3045.923
350.089, 3425.205
351.445, 3974.524
352.801, 3923.880
354.156, 4043.271
355.512, 3802.699
356.867, 3182.160
358.222, 2841.652
359.576, 2201.175
360.931, 2030.725
362.285, 1669.941
363.639, 1289.038
364.992, 1108.678
366.346, 1048.346
367.699, 938.041
369.052, 705.521
370.405, 694.705
371.757, 549.768
373.110, 396.786
374.462, 454.073
375.814, 241.146
377.165, 219.510
378.516, 197.583
379.868, 187.531
381.218, 116.490
382.569, 46.491
383.920, 195.933
385.270, 86.831
386.620, 174.547
387.969, 165.024
389.319, 92.890
390.668, 142.199
392.017, 73.678
393.366, 33.912
394.714, 74.171
396.063, 124.452
397.411, 44.782
398.759, 64.866
400.106, 115.501
401.454, 24.100
402.801, 83.688
404.148, 66.757
405.495, 102.780
406.841, 52.261
408.187, 111.730
409.533, 8.853
410.879, 130.545
412.224, 29.931
413.570, 69.268
414.915, 8.601
416.260, 22.106
417.604, 67.143
418.949, 33.611
420.293, 114.423
421.637, 295.256
422.980, 306.104
424.324, 426.998
425.667, 527.887
427.010, 638.756
428.353, 829.650
429.695, 770.520
431.037, 841.385
432.379, 1052.250
433.721, 903.133
435.063, 904.037
436.404, 974.959
437.745, 1135.898
439.086, 1256.859
440.427, 1227.834
441.767, 1778.830
443.108, 1889.842
444.448, 2160.881
445.787, 2641.938
447.127, 2993.031
448.466, 3824.162
449.805, 4515.320
451.144, 4556.508
452.482, 5087.719
453.821, 4828.957
455.159, 4960.217
456.497, 4241.498
457.834, 3772.811
459.172, 3694.145
460.509, 2985.494
461.846, 2726.883
463.183, 2368.287
464.519, 2089.711
465.856, 2071.152
467.192, 1742.613
468.527, 1884.090
469.863, 1875.582
471.198, 1747.160
472.534, 1878.684
473.868, 1700.219
475.203, 1572.406
476.538, 1644.562
477.872, 1686.234
479.206, 1637.824
480.540, 1570.729
481.873, 1802.348
483.206, 1584.020
484.539, 1735.666
485.872, 1588.125
487.205, 1849.797
488.537, 1722.203
489.869, 1557.021
491.201, 1679.168
492.533, 1340.889
493.864, 1352.623
495.196, 1375.137
496.527, 1086.893
497.857, 1398.660
499.188, 1280.439
500.518, 1412.229
501.848, 1194.029
503.178, 1265.840
504.508, 1457.664
505.837, 1209.502
507.166, 1561.352
508.495, 1463.209
509.824, 1395.078
511.153, 1436.953
512.481, 1408.838
513.809, 1560.734
515.137, 1472.635
516.464, 1574.547
517.792, 1396.465
519.119, 1498.391
520.446, 1510.326
521.772, 1302.270
523.099, 1344.219
524.425, 1036.268
525.751, 968.252
527.077, 1350.299
528.402, 1242.279
529.728, 1134.277
531.053, 1006.281
532.377, 978.316
533.702, 650.365
535.027, 742.434
536.351, 464.520
537.675, 456.619
538.998, 168.730
540.322, 360.846
541.645, 92.971
542.968, 115.102
544.291, 8.900
545.613, 251.033
546.936, 53.182
548.258, 44.656
549.580, 107.488
550.902, 0.021
552.223, 42.123
553.544, 95.396
554.865, 102.033
556.186, 229.670
557.507, 111.822
558.827, 281.969
560.147, 406.293
561.467, 366.670
562.786, 520.600
564.106, 652.754
565.425, 843.131
566.744, 1312.816
568.063, 1672.623
569.381, 2324.424
570.700, 2714.391
572.018, 2773.078
573.335, 2691.182
574.653, 2028.246
575.970, 1755.680
577.288, 1323.850
578.604, 815.074
579.921, 827.211
581.238, 422.725
582.554, 453.230
583.870, 315.352
585.186, 298.641
586.501, 429.693
587.817, 391.801
589.132, 364.576
590.447, 356.674
591.761, 458.768
593.076, 451.035
594.390, 473.117
595.704, 705.193
597.018, 677.264
598.331, 779.328
599.645, 821.668
600.958, 889.668
602.271, 947.613
603.583, 1069.682
604.896, 1091.859
606.208, 1194.150
607.520, 1153.186
608.832, 1178.178
610.143, 1030.180
611.455, 992.176
612.766, 894.162
614.077, 716.527
615.387, 680.332
616.698, 662.293
618.008, 464.262
619.318, 449.922
620.628, 601.855
621.937, 194.150
623.247, 346.434
624.556, 218.707
625.865, 190.602
627.173, 212.484
628.482, 84.359
629.790, 236.223
631.098, 218.076
632.405, 49.918
633.713, 51.867
635.020, 83.686
636.327, 225.492
637.634, 27.287
638.941, 119.062
640.247, 90.941
641.553, 102.928
642.859, 45.027
644.165, 186.748
645.471, 48.455
646.776, 9.617
648.081, 62.031
649.386, 254.033
650.691, 255.654
651.995, 47.260
653.299, 298.848
654.603, 130.432
655.907, 372.002
657.210, 333.559
658.514, 265.104
659.817, 346.635
661.120, 388.152
662.422, 261.072
663.725, 302.566
665.027, 374.045
666.329, 295.512
667.630, 186.963
668.932, 318.402
670.233, 359.826
671.534, 161.238
672.835, 182.635
674.136, 144.020
675.436, 325.391
676.737, 216.746
678.036, 208.090
679.336, 109.418
680.636, 91.883
681.935, 101.664
683.234, 93.320
684.533, 164.590
685.832, 255.844
687.130, 327.086
688.428, 198.311
689.726, 119.525
691.024, 350.723
692.322, 181.906
693.619, 313.076
694.916, 174.229
696.213, 185.367
697.510, 196.490
698.806, 377.600
700.102, 18.693
701.398, 248.920
702.694, 159.969
703.990, 260.996
705.285, 248.312
706.580, 69.316
707.875, 169.008
709.170, 50.137
710.464, 100.770
711.758, 48.342
713.052, 172.486
714.346, 13.297
715.640, 4.094
716.933, 114.854
718.226, 64.391
719.519, 226.312
720.812, 183.000
722.105, 47.582
723.397, 181.844
724.689, 128.623
725.981, 40.926
727.272, 100.496
728.564, 149.850
729.855, 59.799
731.146, 49.510
732.437, 140.717
733.727, 109.055
735.017, 121.082
736.308, 18.799
737.597, 98.723
738.887, 161.266
740.176, 21.242
741.466, 108.811
742.755, 131.043
744.043, 40.887
745.332, 110.707
746.620, 100.512
747.908, 70.303
749.196, 100.076
750.484, 169.840
751.771, 109.586
753.059, 109.318
754.346, 59.037
755.633, 118.738
756.919, 1.574
758.206, 178.080
759.492, 67.723
760.778, 57.350
762.063, 106.957
763.349, 176.549
764.634, 126.129
765.919, 135.695
767.204, 175.246
768.489, 44.785
769.773, 5.693
771.057, 223.797
772.341, 83.273
773.625, 37.264
774.909, 192.154
776.192, 41.557
777.475, 40.943
778.758, 40.314
780.041, 109.668
781.323, 129.010
782.605, 98.338
783.887, 227.582
785.169, 206.957
786.451, 216.248
787.732, 57.221
789.013, 235.895
790.294, 125.057
791.575, 204.299
792.856, 252.467
794.136, 51.684
795.416, 40.848
796.696, 30.035
797.976, 268.412
799.255, 107.576
800.534, 36.006
801.813, 162.023
803.092, 20.715
804.371, 299.830
805.649, 128.934
806.927, 137.260
808.205, 127.822
809.483, 226.898
810.760, 395.965
812.037, 245.020
813.315, 284.064
814.591, 263.102
815.868, 17.871
817.144, 341.133
818.421, 310.127
819.697, 369.113
820.972, 78.090
822.248, 127.059
823.523, 346.020
824.798, 154.973
826.073, 163.918
827.348, 282.854
828.623, 221.783
829.897, 240.703
831.171, 99.617
832.445, 158.525
833.718, 247.424
834.992, 186.229
836.265, 345.098
837.538, 343.904
838.811, 282.818
840.083, 301.729
841.356, 450.631
842.628, 269.529
843.900, 318.422
845.171, 577.309
846.443, 706.189
847.714, 405.068
848.985, 763.939
850.256, 812.807
851.527, 911.670
852.797, 1320.529
854.067, 1307.725
855.337, 1626.580
856.607, 1575.436
857.876, 1744.285
859.146, 1833.150
860.415, 1773.814
861.684, 1790.539
862.953, 1713.797
864.221, 1712.652
865.489, 1756.025
866.757, 1484.885
868.025, 1502.051
869.293, 1748.732
870.560, 1627.592
871.828, 1809.992
873.095, 1818.850
874.361, 2063.826
875.628, 1942.035
876.894, 2397.125
878.160, 2276.004
879.426, 2259.973
880.692, 2600.221
881.958, 2309.104
883.223, 2131.936
884.488, 2115.430
885.753, 2044.309
887.018, 1724.100
888.282, 1592.977
889.546, 1358.473
890.810, 1288.977
892.074, 1227.859
893.338, 1135.568
894.601, 1165.516
895.864, 904.402
897.127, 1082.621
898.390, 881.512
899.652, 700.408
900.915, 969.125
902.177, 938.029
903.439, 756.936
904.700, 985.848
905.962, 724.764
907.223, 733.404
908.484, 982.330
909.745, 1009.383
911.006, 998.320
912.266, 867.102
913.526, 1215.770
914.786, 1064.709
916.046, 1013.654
917.306, 882.607
918.565, 792.309
919.824, 830.535
921.083, 589.117
922.342, 526.258
923.600, 385.238
924.859, 624.213
926.117, 269.488
927.375, 518.496
928.632, 317.141
929.890, 475.797
931.147, 234.461
932.404, 233.506
933.661, 182.559
934.918, 281.623
936.174, 9.299
937.430, 159.787
938.686, 111.117
939.942, 267.871
941.198, 216.984
942.453, 296.111
943.708, 24.748
944.963, 104.406
946.218, 123.455
947.472, 152.400
948.727, 71.234
949.981, 130.445
951.235, 106.979
952.488, 208.670
953.742, 77.939
954.995, 86.857
956.248, 16.154
957.501, 15.020
958.754, 85.201
960.006, 94.139
961.258, 143.492
962.510, 292.861
963.762, 12.246
965.014, 71.648
966.265, 31.066
967.516, 199.086
968.767, 288.539
970.018, 68.008
971.269, 467.496
972.519, 237.004
973.769, 16.529
975.019, 316.074
976.269, 435.643
977.518, 415.229
978.767, 594.838
980.017, 374.469
981.265, 704.121
982.514, 893.799
983.762, 643.498
985.011, 1103.346
986.259, 813.094
987.507, 692.867
988.754, 812.346
990.002, 502.174
991.249, 532.027
992.496, 621.906
993.743, 411.816
994.989, 561.758
996.236, 161.725
997.482, 421.725
998.728, 331.758
999.974, 241.820
1001.219, 421.922
1002.464, 392.057
1003.710, 442.227
1004.954, 342.443
1006.199, 322.697
1007.444, 262.992
1008.688, 236.871
1009.932, 243.709
1011.176, 254.133
1012.420, 244.613
1013.663, 354.857
1014.906, 455.135
1016.149, 465.465
1017.392, 315.828
1018.635, 386.229
1019.877, 86.668
1021.120, 387.131
1022.362, 297.818
1023.603, 498.342
1024.845, 442.553
1026.086, 423.230
1027.328, 444.018
1028.569, 605.570
1029.809, 542.025
1031.050, 496.355
1032.290, 506.203
1033.530, 435.588
1034.770, 375.463
1036.010, 685.438
1037.250, 425.500
1038.489, 775.629
1039.728, 525.863
1040.967, 726.131
1042.206, 516.424
1043.444, 736.742
1044.683, 567.086
1045.921, 527.457
1047.159, 747.879
1048.396, 518.330
1049.634, 638.816
1050.871, 639.326
1052.108, 569.871
1053.345, 320.467
1054.582, 521.117
1055.818, 531.820
1057.054, 632.568
1058.290, 223.350
1059.526, 524.076
1060.762, 572.072
1061.997, 452.932
1063.232, 663.529
1064.467, 384.461
1065.702, 575.432
1066.937, 276.447
1068.171, 417.502
1069.405, 398.602
1070.639, 317.764
1071.873, 398.918
1073.107, 460.113
1074.340, 331.350
1075.573, 442.648
1076.806, 513.986
1078.039, 395.369
1079.272, 746.791
1080.504, 398.260
1081.736, 739.771
1082.968, 811.328
1084.200, 702.926
1085.431, 994.506
1086.663, 1096.066
1087.894, 1197.664
1089.125, 1319.307
1090.355, 1210.988
1091.586, 1112.713
1092.816, 1484.477
1094.046, 1246.281
1095.276, 1268.125
1096.506, 980.008
1097.735, 1041.926
1098.965, 803.889
1100.194, 575.896
1101.423, 817.941
1102.651, 470.031
1103.880, 622.096
1105.108, 904.191
1106.336, 1466.324
1107.564, 758.521
1108.792, 850.797
1110.019, 593.143
1111.246, 995.562
1112.473, 908.055
1113.700, 830.621
1114.927, 943.262
1116.153, 675.980
1117.380, 928.773
1118.606, 1031.648
1119.831, 1094.602
1121.057, 857.670
1122.283, 440.857
1123.508, 364.139
1124.733, 507.512
1125.958, 180.998
1127.182, 504.609
1128.407, 98.320
1129.631, 192.135
1130.855, 206.051
1132.079, 10.076
1133.302, 244.215
1134.526, 258.475
1135.749, 167.139
1136.972, 507.383
1138.195, 632.041
1139.417, 246.846
1140.640, 421.807
1141.862, 126.930
1143.084, 452.230
1144.305, 307.725
1145.527, 443.414
1146.748, 569.320
1147.970, 509.338
1149.191, 451.811
1150.411, 528.420
1151.632, 395.295
1152.852, 412.445
1154.072, 519.891
1155.292, 407.648
1156.512, 544.977
1157.732, 503.395
1158.951, 46.100
1160.170, 731.324
1161.389, 316.494
1162.608, 491.545
1163.826, 256.381
1165.045, 250.881
1166.263, 354.854
1167.481, 198.033
1168.699, 110.066
1169.916, 370.252
1171.134, 22.309
1172.351, 345.484
1173.568, 203.984
1174.784, 79.543
1176.001, 229.646
1177.217, 74.924
1178.433, 83.340
1179.649, 0.000
##END=



