##NAMES=Clinohumite
##RRUFFID=R040122
##IDEAL CHEMISTRY=Mg_9_(SiO_4_)_4_F_2_
##LOCALITY=Anzahamazonono,  Madagascar
##OWNER=RRUFF
##SOURCE=University of Arizona Mineral Museum
##DESCRIPTION=Orange-brown blebs embedded in calcite matrix
##STATUS=The identification of this mineral has been confirmed by X-ray diffraction and chemical analysis
##URL=rruff.info/R040122
##MEASURED CHEMISTRY=(Mg_0.96_Fe_0.02_Ti_0.01_Ca_0.01_)_9_(SiO_4_)_4_(F_0.59_(OH)_0.41_)_2_
##PIN_ID=S00005
##ORIENTATION=Laser parallel to c* (0 0 1). Fiducial mark perpendicular to laser is parallel to a [1 0 0]
128.840, 0.000
130.228, 0.610
131.615, 78.761
133.003, 96.896
134.390, 24.606
135.777, 58.494
137.164, 105.116
138.550, 124.314
139.937, 57.613
141.323, 74.109
142.709, 125.666
144.094, 106.352
145.480, 84.274
146.865, 85.154
148.250, 117.109
149.635, 159.536
151.019, 117.175
152.403, 113.993
153.788, 81.900
155.171, 77.963
156.555, 89.289
157.939, 87.831
159.322, 120.607
160.705, 26.314
162.088, 83.927
163.470, 58.436
164.853, 41.899
166.235, 25.302
167.617, 17.698
168.998, 9.144
170.380, 17.243
171.761, 8.930
173.142, 67.834
174.523, 9.201
175.904, 89.585
177.284, 113.309
178.664, 125.768
180.044, 189.896
181.424, 152.410
182.803, 208.266
184.183, 336.353
185.562, 299.250
186.940, 260.320
188.319, 231.892
189.698, 198.494
191.076, 170.683
192.454, 254.177
193.831, 172.451
195.209, 187.313
196.586, 121.613
197.963, 105.817
199.340, 127.669
200.717, 154.852
202.093, 128.553
203.470, 97.170
204.846, 162.475
206.221, 97.351
207.597, 91.534
208.972, 166.086
210.347, 124.449
211.722, 83.743
213.097, 108.310
214.472, 125.370
215.846, 113.563
217.220, 62.313
218.594, 114.525
219.967, 20.609
221.341, 1.861
222.714, 61.185
224.087, 56.195
225.460, 27.169
226.832, 52.106
228.204, 35.990
229.577, 3.178
230.948, 38.231
232.320, 67.782
233.692, 67.337
235.063, 22.454
236.434, 28.850
237.805, 54.442
239.175, 11.415
240.545, 52.963
241.916, 15.482
243.286, 54.289
244.655, 46.147
246.025, 19.908
247.394, 28.384
248.763, 69.007
250.132, 72.751
251.501, 21.339
252.869, 68.146
254.237, 27.417
255.605, 32.942
256.973, 97.154
258.340, 84.487
259.708, 84.777
261.075, 49.614
262.442, 112.436
263.808, 89.002
265.175, 109.579
266.541, 124.660
267.907, 90.268
269.273, 87.087
270.639, 34.424
272.004, 10.231
273.369, 168.475
274.734, 142.476
276.099, 135.846
277.463, 111.984
278.828, 139.266
280.192, 129.764
281.556, 151.421
282.919, 147.939
284.283, 132.260
285.646, 114.174
287.009, 130.002
288.372, 55.435
289.734, 125.038
291.097, 63.888
292.459, 138.801
293.821, 47.764
295.183, 90.982
296.544, 58.152
297.905, 109.145
299.266, 96.937
300.627, 200.615
301.988, 238.118
303.348, 230.923
304.709, 268.825
306.069, 317.732
307.428, 281.322
308.788, 364.024
310.147, 308.661
311.507, 268.764
312.865, 277.411
314.224, 389.780
315.583, 425.016
316.941, 400.810
318.299, 451.815
319.657, 457.585
321.015, 497.331
322.372, 365.909
323.729, 396.867
325.086, 357.552
326.443, 334.750
327.800, 378.031
329.156, 352.523
330.512, 357.152
331.868, 241.703
333.224, 278.477
334.579, 271.216
335.935, 270.021
337.290, 273.087
338.645, 193.922
339.999, 257.075
341.354, 229.979
342.708, 279.793
344.062, 229.509
345.416, 338.432
346.769, 326.901
348.123, 287.128
349.476, 307.728
350.829, 373.999
352.182, 347.426
353.534, 332.543
354.887, 372.921
356.239, 352.021
357.591, 249.122
358.942, 269.394
360.294, 252.337
361.645, 170.728
362.996, 160.964
364.347, 191.074
365.698, 76.105
367.048, 203.134
368.398, 145.009
369.748, 95.789
371.098, 133.458
372.448, 117.109
373.797, 75.675
375.146, 117.066
376.495, 138.463
377.844, 132.819
379.192, 64.072
380.540, 8.023
381.889, 108.101
383.236, 5.698
384.584, 45.080
385.932, 22.338
387.279, 42.124
388.626, 13.372
389.973, 13.631
391.319, 83.732
392.666, 99.532
394.012, 2.452
395.358, 39.604
396.704, 10.775
398.049, 13.935
399.394, 3.716
400.740, 26.000
402.084, 9.639
403.429, 10.148
404.774, 34.948
406.118, 98.885
407.462, 18.399
408.806, 27.907
410.150, 49.434
411.493, 26.944
412.836, 53.208
414.179, 43.671
415.522, 94.777
416.865, 22.750
418.207, 38.561
419.549, 98.209
420.891, 105.702
422.233, 77.727
423.575, 171.056
424.916, 149.429
426.257, 262.575
427.598, 260.917
428.939, 305.161
430.279, 387.254
431.619, 349.455
432.959, 350.119
434.299, 403.054
435.639, 401.354
436.978, 380.498
438.318, 177.597
439.657, 451.433
440.996, 288.437
442.334, 337.489
443.673, 385.437
445.011, 309.155
446.349, 266.702
447.687, 364.062
449.024, 139.382
450.361, 170.276
451.699, 120.350
453.036, 142.048
454.372, 54.940
455.709, 40.316
457.045, 94.940
458.381, 129.970
459.717, 167.339
461.053, 186.823
462.388, 38.869
463.724, 136.359
465.059, 101.527
466.394, 94.188
467.728, 152.699
469.063, 114.593
470.397, 117.454
471.731, 47.577
473.065, 95.312
474.398, 136.721
475.732, 158.711
477.065, 250.858
478.398, 187.903
479.731, 230.290
481.063, 223.797
482.396, 250.920
483.728, 147.105
485.060, 434.809
486.391, 301.544
487.723, 268.735
489.054, 446.487
490.385, 396.541
491.716, 393.358
493.047, 564.479
494.377, 453.943
495.708, 547.883
497.038, 502.912
498.368, 511.431
499.697, 457.506
501.027, 504.982
502.356, 508.954
503.685, 533.110
505.014, 467.447
506.342, 569.065
507.671, 617.050
508.999, 511.263
510.327, 565.360
511.655, 509.373
512.982, 579.527
514.310, 506.079
515.637, 564.310
516.964, 547.208
518.291, 491.325
519.617, 555.268
520.944, 685.954
522.270, 470.288
523.596, 733.339
524.921, 845.334
526.247, 708.892
527.572, 740.509
528.897, 833.690
530.222, 966.347
531.547, 1000.103
532.871, 1010.594
534.196, 1198.528
535.520, 1239.364
536.844, 1213.858
538.167, 1304.250
539.491, 1134.101
540.814, 1102.797
542.137, 1281.971
543.460, 1409.986
544.783, 1459.126
546.105, 1415.763
547.427, 1613.766
548.749, 1501.982
550.071, 1450.123
551.393, 1168.143
552.714, 1015.369
554.035, 982.430
555.356, 926.422
556.677, 722.563
557.998, 769.019
559.318, 704.862
560.638, 719.821
561.958, 634.262
563.278, 570.239
564.597, 615.640
565.917, 622.046
567.236, 606.909
568.555, 589.226
569.874, 323.557
571.192, 596.750
572.511, 470.265
573.829, 573.256
575.147, 656.445
576.464, 457.206
577.782, 446.812
579.099, 492.511
580.416, 675.155
581.733, 537.536
583.050, 560.169
584.366, 552.568
585.683, 495.302
586.999, 497.886
588.315, 470.510
589.630, 413.335
590.946, 455.857
592.261, 338.237
593.576, 620.690
594.891, 592.997
596.206, 555.072
597.520, 566.157
598.834, 768.252
600.148, 719.527
601.462, 740.873
602.776, 782.281
604.089, 943.234
605.402, 1123.876
606.715, 1314.791
608.028, 1224.629
609.341, 1294.465
610.653, 1103.960
611.965, 823.413
613.277, 902.203
614.589, 720.736
615.901, 559.593
617.212, 498.461
618.523, 427.346
619.834, 366.169
621.145, 263.979
622.456, 302.296
623.766, 190.315
625.076, 218.130
626.386, 126.062
627.696, 313.679
629.006, 221.203
630.315, 248.058
631.624, 115.172
632.933, 22.336
634.242, 129.420
635.551, 126.736
636.859, 213.636
638.167, 60.581
639.475, 77.352
640.783, 64.076
642.090, 90.207
643.398, 77.384
644.705, 43.845
646.012, 20.006
647.318, 23.264
648.625, 43.053
649.931, 50.809
651.237, 24.179
652.543, 98.214
653.849, 117.883
655.155, 16.362
656.460, 19.234
657.765, 5.565
659.070, 159.646
660.375, 115.270
661.679, 79.645
662.984, 75.870
664.288, 21.196
665.592, 73.479
666.895, 77.557
668.199, 101.712
669.502, 64.518
670.805, 10.683
672.108, 37.340
673.411, 166.040
674.713, 19.203
676.016, 21.973
677.318, 95.148
678.620, 1.967
679.921, 20.139
681.223, 73.145
682.524, 3.988
683.825, 88.652
685.126, 1.236
686.427, 3.674
687.727, 14.039
689.028, 108.092
690.328, 89.908
691.628, 41.896
692.927, 36.430
694.227, 55.086
695.526, 66.473
696.825, 147.730
698.124, 148.867
699.423, 229.879
700.721, 60.773
702.020, 141.543
703.318, 202.213
704.616, 82.771
705.913, 73.207
707.211, 153.525
708.508, 323.723
709.805, 153.807
711.102, 243.777
712.399, 123.646
713.695, 223.230
714.992, 232.877
716.288, 82.160
717.584, 401.404
718.879, 180.189
720.175, 338.592
721.470, 167.076
722.765, 365.471
724.060, 463.707
725.355, 481.783
726.649, 668.654
727.944, 606.570
729.238, 763.863
730.532, 951.490
731.825, 689.371
733.119, 1106.342
734.412, 1163.215
735.705, 1230.246
736.998, 1518.059
738.291, 1565.232
739.584, 1572.939
740.876, 1740.887
742.168, 1998.744
743.460, 1975.711
744.752, 2113.127
746.043, 2259.988
747.334, 2376.424
748.626, 2591.863
749.916, 2559.117
751.207, 2895.438
752.498, 2761.795
753.788, 2909.082
755.078, 2935.855
756.368, 2892.342
757.658, 2818.832
758.947, 2475.338
760.237, 2371.758
761.526, 2248.090
762.815, 2054.336
764.104, 1690.500
765.392, 1757.461
766.680, 1543.664
767.969, 1349.652
769.257, 1505.492
770.544, 1362.115
771.832, 1366.922
773.119, 1682.236
774.406, 1616.330
775.693, 1700.879
776.980, 1894.209
778.267, 2227.781
779.553, 2460.934
780.839, 2654.660
782.125, 3067.746
783.411, 3271.189
784.697, 3333.941
785.982, 3249.840
787.267, 3173.037
788.552, 2724.182
789.837, 2706.924
791.122, 2629.566
792.406, 2395.977
793.690, 2321.092
794.974, 1952.107
796.258, 2143.760
797.542, 1884.941
798.825, 1536.395
800.108, 1847.486
801.391, 1736.980
802.674, 2054.102
803.957, 2054.266
805.239, 2349.316
806.522, 2415.977
807.804, 2477.939
809.085, 2708.609
810.367, 2395.598
811.649, 2584.500
812.930, 2862.064
814.211, 2552.824
815.492, 2753.408
816.772, 3163.400
818.053, 3096.365
819.333, 3302.719
820.613, 3792.482
821.893, 4522.266
823.173, 5432.195
824.452, 6755.691
825.732, 8592.531
827.011, 10077.668
828.290, 11987.852
829.568, 12146.650
830.847, 11725.047
832.125, 11667.105
833.403, 9364.312
834.681, 8412.984
835.959, 7302.902
837.236, 6620.045
838.514, 6670.965
839.791, 7138.596
841.068, 7186.609
842.345, 7903.236
843.621, 8422.547
844.898, 8474.707
846.174, 8154.119
847.450, 7651.434
848.726, 6640.811
850.001, 5990.377
851.277, 5719.684
852.552, 5169.529
853.827, 5139.381
855.102, 5468.605
856.376, 5781.611
857.651, 6622.406
858.925, 6941.723
860.199, 6781.184
861.473, 6231.027
862.746, 5551.215
864.020, 5110.826
865.293, 4070.656
866.566, 3420.367
867.839, 3069.553
869.112, 2469.283
870.384, 2388.643
871.656, 1929.066
872.928, 1718.492
874.200, 1308.029
875.472, 1397.570
876.744, 950.434
878.015, 920.416
879.286, 1102.881
880.557, 543.670
881.828, 564.566
883.098, 385.637
884.369, 426.559
885.639, 337.865
886.909, 352.889
888.178, 333.527
889.448, 294.170
890.717, 284.744
891.987, 155.332
893.256, 65.836
894.524, 6.303
895.793, 197.307
897.061, 37.701
898.330, 88.062
899.598, 208.389
900.865, 448.686
902.133, 128.961
903.401, 330.027
904.668, 230.652
905.935, 0.832
907.202, 440.971
908.468, 421.564
909.735, 821.648
911.001, 631.701
912.267, 891.727
913.533, 531.721
914.799, 801.871
916.064, 301.805
917.330, 71.711
918.595, 231.834
919.860, 261.674
921.124, 331.486
922.389, 21.762
923.653, 401.508
924.918, 71.230
926.182, 270.922
927.445, 80.590
928.709, 250.234
929.972, 209.859
931.236, 179.465
932.499, 49.262
933.761, 48.879
935.024, 201.580
936.286, 227.852
937.549, 62.730
938.811, 13.361
940.073, 15.986
941.334, 25.318
942.596, 24.629
943.857, 86.078
945.118, 86.838
946.379, 262.354
947.640, 31.541
948.900, 210.709
950.161, 89.867
951.421, 19.010
952.681, 218.221
953.940, 187.945
955.200, 187.078
956.459, 366.211
957.719, 325.357
958.978, 686.230
960.236, 865.416
961.495, 1424.973
962.753, 1524.299
964.012, 2133.479
965.270, 2294.389
966.527, 3003.562
967.785, 2652.932
969.043, 2042.434
970.300, 2091.660
971.557, 1571.895
972.814, 1214.701
974.071, 893.928
975.327, 934.146
976.583, 633.732
977.840, 664.133
979.095, 393.977
980.351, 113.287
981.607, 552.650
982.862, 62.822
984.117, 452.561
985.372, 125.420
986.627, 64.723
987.882, 197.402
989.136, 23.297
990.390, 145.980
991.644, 85.254
992.898, 144.527
994.152, 314.773
995.405, 64.062
996.659, 24.277
997.912, 46.426
999.165, 63.398
1000.417, 33.984
1001.670, 333.914
1002.922, 83.184
1004.174, 152.441
1005.426, 72.734
1006.678, 78.023
1007.930, 18.809
1009.181, 70.695
1010.432, 9.883
1011.683, 37.523
1012.934, 116.691
1014.185, 76.449
1015.435, 107.055
1016.685, 7.410
1017.935, 297.273
1019.185, 97.984
1020.435, 17.578
1021.684, 87.891
1022.934, 97.156
1024.183, 420.668
1025.432, 51.230
1026.680, 59.477
1027.929, 240.688
1029.177, 40.043
1030.425, 259.199
1031.673, 139.578
1032.921, 159.465
1034.169, 188.723
1035.416, 88.969
1036.663, 81.812
1037.911, 327.371
1039.157, 227.152
1040.404, 396.188
1041.650, 225.297
1042.897, 293.754
1044.143, 392.809
1045.389, 101.594
1046.634, 440.195
1047.880, 488.816
1049.125, 317.492
1050.371, 496.137
1051.615, 456.590
1052.860, 44.883
1054.105, 144.387
1055.349, 283.082
1056.593, 660.789
1057.837, 130.824
1059.081, 359.762
1060.325, 428.684
1061.568, 328.621
1062.812, 497.523
1064.055, 206.402
1065.298, 435.277
1066.540, 404.125
1067.783, 192.609
1069.025, 301.227
1070.267, 489.953
1071.509, 138.848
1072.751, 386.559
1073.993, 355.316
1075.234, 263.219
1076.475, 381.945
1077.716, 289.871
1078.957, 268.500
1080.198, 296.953
1081.438, 215.273
1082.679, 253.035
1083.919, 450.781
1085.159, 429.039
1086.398, 647.516
1087.638, 572.859
1088.877, 360.059
1090.116, 377.629
1091.355, 375.230
1092.594, 712.812
1093.833, 557.070
1095.071, 431.289
1096.309, 439.770
1097.547, 367.332
1098.785, 375.629
1100.023, 273.406
1101.260, 250.875
1102.498, 129.160
1103.735, 337.301
1104.972, 356.566
1106.208, 664.875
1107.445, 16.832
1108.681, 301.750
1109.918, 189.984
1111.154, 248.191
1112.389, 566.375
1113.625, 15.465
1114.860, 432.652
1116.096, 250.750
1117.331, 219.273
1118.566, 477.316
1119.800, 55.336
1121.035, 56.680
1122.269, 461.895
1123.503, 59.797
1124.737, 217.801
1125.971, 25.633
1127.205, 163.430
1128.438, 291.188
1129.671, 278.453
1130.904, 86.152
1132.137, 211.047
1133.370, 51.328
1134.602, 505.820
1135.834, 47.270
1137.066, 320.125
1138.298, 346.969
1139.530, 404.086
1140.762, 350.918
1141.993, 101.633
1143.224, 368.961
1144.455, 116.586
1145.686, 583.012
1146.917, 207.746
1148.147, 25.930
1149.377, 182.656
1150.607, 380.504
1151.837, 557.832
1153.067, 94.562
1154.296, 382.445
1155.526, 538.480
1156.755, 273.926
1157.984, 461.406
1159.213, 131.309
1160.441, 425.172
1161.670, 237.031
1162.898, 33.035
1164.126, 130.059
1165.354, 245.672
1166.581, 42.293
1167.809, 330.875
1169.036, 156.707
1170.263, 534.250
1171.490, 34.262
1172.717, 121.910
1173.943, 588.691
1175.170, 219.164
1176.396, 455.168
1177.622, 711.594
1178.848, 158.773
1180.073, 275.457
1181.299, 577.512
1182.524, 213.195
1183.749, 479.230
1184.974, 505.711
1186.199, 311.492
1187.423, 638.852
1188.648, 438.785
1189.872, 475.238
1191.096, 232.340
1192.320, 239.039
1193.543, 824.516
1194.767, 315.152
1195.990, 351.023
1197.213, 1106.566
1198.436, 143.766
1199.659, 699.254
1200.881, 366.691
1202.104, 651.797
1203.326, 557.207
1204.548, 235.945
1205.770, 590.820
1206.991, 686.152
1208.213, 255.152
1209.434, 600.426
1210.655, 725.660
1211.876, 553.102
1213.096, 988.289
1214.317, 385.781
1215.537, 600.652
1216.757, 985.742
1217.977, 493.555
1219.197, 568.094
1220.417, 923.098
1221.636, 750.645
1222.855, 1405.590
1224.074, 921.891
1225.293, 588.797
1226.512, 1414.219
1227.731, 851.238
1228.949, 875.781
1230.167, 820.445
1231.385, 795.656
1232.603, 1370.914
1233.820, 735.734
1235.038, 694.688
1236.255, 959.277
1237.472, 1194.715
1238.689, 659.672
1239.906, 1024.133
1241.122, 869.395
1242.338, 1003.699
1243.555, 847.805
1244.771, 661.785
1245.986, 925.703
1247.202, 899.465
1248.417, 724.305
1249.633, 1357.297
1250.848, 300.828
1252.063, 1144.172
1253.277, 987.418
1254.492, 501.125
1255.706, 1294.223
1256.920, 916.871
1258.134, 810.910
1259.348, 1053.789
1260.562, 925.223
1261.775, 1148.332
1262.988, 480.812
1264.201, 744.508
1265.414, 966.992
1266.627, 618.398
1267.839, 438.469
1269.052, 1120.719
1270.264, 561.875
1271.476, 733.590
1272.688, 844.406
1273.899, 675.688
1275.111, 727.391
1276.322, 868.957
1277.533, 40.379
1278.744, 710.789
1279.955, 698.547
1281.165, 709.660
1282.376, 817.398
1283.586, 378.438
1284.796, 1079.820
1286.006, 800.688
1287.215, 41.477
1288.425, 641.617
1289.634, 382.164
1290.843, 681.945
1292.052, 872.316
1293.261, 222.051
1294.469, 531.219
1295.678, 440.617
1296.886, 420.586
1298.094, 771.254
1299.302, 259.996
1300.509, 79.852
1301.717, 1021.414
1302.924, 330.281
1304.131, 313.195
1305.338, 493.656
1306.545, 157.539
1307.752, 831.504
1308.958, 241.422
1310.164, 625.703
1311.370, 594.703
1312.576, 109.301
1313.782, 547.594
1314.987, 206.594
1316.193, 157.141
1317.398, 815.203
1318.603, 288.242
1319.807, 29.660
1321.012, 853.402
1322.216, 96.137
1323.421, 339.215
1324.625, 361.832
1325.829, 165.207
1327.032, 728.211
1328.236, 450.617
1329.439, 22.969
1330.642, 684.953
1331.845, 256.625
1333.048, 49.219
1334.251, 462.305
1335.453, 314.105
1336.656, 405.879
1337.858, 558.734
1339.060, 31.523
1340.261, 593.633
1341.463, 726.168
1342.664, 268.750
1343.866, 791.258
1345.067, 143.688
1346.267, 656.035
1347.468, 948.324
1348.669, 110.547
1349.869, 952.688
1351.069, 824.738
1352.269, 96.730
1353.469, 908.652
1354.668, 800.523
1355.868, 202.348
1357.067, 1474.109
1358.266, 214.270
1359.465, 935.477
1360.664, 937.094
1361.862, 178.664
1363.061, 980.215
1364.259, 721.070
1365.457, 202.543
1366.655, 1233.074
1367.852, 384.332
1369.050, 275.797
1370.247, 587.254
1371.444, 246.367
1372.641, 797.660
1373.838, 817.344
1375.035, 598.582
1376.231, 583.781
1377.427, 683.320
1378.623, 101.672
1379.819, 1130.891
1381.015, 520.594
1382.211, 623.793
1383.406, 1482.648
1384.601, 540.336
1385.796, 1382.555
1386.991, 953.965
1388.185, 669.715
1389.380, 1245.535
1390.574, 864.445
1391.768, 335.875
1392.962, 1429.426
1394.156, 863.684
1395.350, 687.836
1396.543, 1353.500
1397.736, 157.723
1398.929, 1074.098
1400.122, 1005.613
1401.315, 299.766
1402.507, 1035.418
1403.700, 517.461
1404.892, 506.082
1406.084, 1262.941
1407.276, 257.746
1408.467, 752.504
1409.659, 729.941
1410.850, 266.891
1412.041, 799.766
1413.232, 774.301
1414.423, 588.523
1415.614, 775.457
1416.804, 847.938
1417.994, 760.777
1419.184, 928.289
1420.374, 584.426
1421.564, 507.379
1422.753, 829.520
1423.943, 87.418
1425.132, 1239.230
1426.321, 886.496
1427.510, 429.184
1428.698, 906.633
1429.887, 634.836
1431.075, 422.773
1432.263, 1484.473
1433.451, 469.773
1434.639, 694.531
1435.827, 923.340
1437.014, 441.801
1438.201, 616.930
1439.388, 702.035
1440.575, 327.254
1441.762, 1312.344
1442.949, 476.832
1444.135, 66.449
1445.321, 1543.461
1446.507, 7.109
1447.693, 507.719
1448.879, 1112.969
1450.064, 206.004
1451.250, 740.801
1452.435, 511.816
1453.620, 95.133
1454.805, 953.754
1455.989, 487.512
1457.174, 4.512
1458.358, 935.840
1459.542, 145.871
1460.726, 211.145
1461.910, 0.000
##END=



