##NAMES=Clinohumite
##RRUFFID=R040122
##IDEAL CHEMISTRY=Mg_9_(SiO_4_)_4_F_2_
##LOCALITY=Anzahamazonono,  Madagascar
##OWNER=RRUFF
##SOURCE=University of Arizona Mineral Museum
##DESCRIPTION=Orange-brown blebs embedded in calcite matrix
##STATUS=The identification of this mineral has been confirmed by X-ray diffraction and chemical analysis
##URL=rruff.info/R040122
##MEASURED CHEMISTRY=(Mg_0.96_Fe_0.02_Ti_0.01_Ca_0.01_)_9_(SiO_4_)_4_(F_0.59_(OH)_0.41_)_2_
##PIN_ID=S00005
##ORIENTATION=Laser parallel to c* (0 0 1). Fiducial mark perpendicular to laser is parallel to a [1 0 0]
131.615, 0.000
133.003, 20.734
134.390, 0.555
135.777, 27.369
137.164, 33.402
138.550, 21.144
139.937, 44.086
141.323, 20.197
142.709, 59.383
144.094, 6.143
145.480, 9.701
146.865, 34.112
148.250, 94.518
149.635, 61.047
151.019, 107.960
152.403, 112.937
153.788, 6.903
155.171, 44.884
156.555, 47.850
157.939, 91.777
159.322, 113.673
160.705, 66.594
162.088, 43.521
163.470, 45.597
164.853, 13.563
166.235, 32.647
167.617, 79.934
168.998, 59.373
170.380, 24.873
171.761, 66.466
173.142, 25.928
174.523, 23.559
175.904, 90.003
177.284, 79.580
178.664, 80.779
180.044, 106.719
181.424, 168.517
182.803, 95.238
184.183, 166.932
185.562, 118.658
186.940, 137.419
188.319, 136.773
189.698, 155.483
191.076, 74.326
192.454, 182.266
193.831, 69.168
195.209, 159.419
196.586, 244.861
197.963, 261.198
199.340, 148.923
200.717, 338.371
202.093, 138.482
203.470, 175.265
204.846, 164.563
206.221, 170.025
207.597, 135.242
208.972, 126.919
210.347, 155.676
211.722, 101.908
213.097, 27.341
214.472, 71.487
215.846, 3.663
217.220, 94.120
218.594, 41.862
219.967, 135.032
221.341, 129.751
222.714, 101.861
224.087, 117.206
225.460, 208.501
226.832, 149.750
228.204, 194.977
229.577, 182.177
230.948, 205.373
232.320, 245.811
233.692, 224.489
235.063, 206.727
236.434, 183.775
237.805, 193.616
239.175, 189.453
240.545, 195.918
241.916, 199.102
243.286, 115.606
244.655, 143.637
246.025, 119.259
247.394, 124.212
248.763, 180.991
250.132, 222.412
251.501, 232.614
252.869, 178.576
254.237, 205.354
255.605, 204.759
256.973, 153.147
258.340, 195.481
259.708, 236.480
261.075, 135.714
262.442, 62.071
263.808, 174.632
265.175, 47.351
266.541, 164.972
267.907, 108.672
269.273, 144.075
270.639, 15.692
272.004, 73.423
273.369, 22.199
274.734, 5.218
276.099, 105.003
277.463, 21.299
278.828, 96.883
280.192, 78.146
281.556, 106.416
282.919, 77.175
284.283, 53.146
285.646, 64.156
287.009, 116.055
288.372, 86.112
289.734, 47.888
291.097, 79.192
292.459, 50.665
293.821, 149.797
295.183, 93.424
296.544, 126.283
297.905, 39.092
299.266, 54.621
300.627, 44.398
301.988, 22.629
303.348, 63.903
304.709, 51.048
306.069, 128.099
307.428, 177.236
308.788, 168.238
310.147, 190.784
311.507, 224.578
312.865, 213.963
314.224, 500.854
315.583, 775.741
316.941, 500.236
318.299, 343.268
319.657, 567.129
321.015, 501.375
322.372, 347.256
323.729, 425.566
325.086, 299.848
326.443, 426.064
327.800, 209.165
329.156, 223.456
330.512, 272.251
331.868, 117.243
333.224, 184.432
334.579, 160.601
335.935, 127.275
337.290, 130.065
338.645, 60.369
339.999, 67.850
341.354, 4.539
342.708, 64.198
344.062, 56.162
345.416, 72.718
346.769, 25.369
348.123, 42.869
349.476, 123.045
350.829, 12.225
352.182, 93.602
353.534, 180.146
354.887, 77.616
356.239, 9.786
357.591, 18.107
358.942, 80.592
360.294, 91.299
361.645, 0.302
362.996, 7.921
364.347, 13.968
365.698, 5.986
367.048, 16.611
368.398, 52.724
369.748, 68.023
371.098, 8.152
372.448, 138.412
373.797, 28.153
375.146, 8.640
376.495, 87.852
377.844, 47.925
379.192, 66.789
380.540, 13.912
381.889, 15.116
383.236, 24.217
384.584, 63.121
385.932, 72.843
387.279, 8.929
388.626, 119.684
389.973, 68.401
391.319, 127.186
392.666, 206.015
394.012, 104.984
395.358, 73.509
396.704, 27.871
398.049, 31.195
399.394, 22.052
400.740, 30.773
402.084, 67.439
403.429, 85.153
404.774, 163.120
406.118, 171.025
407.462, 208.477
408.806, 203.393
410.150, 132.616
411.493, 141.445
412.836, 169.080
414.179, 86.745
415.522, 163.457
416.865, 119.518
418.207, 26.418
419.549, 192.260
420.891, 149.131
422.233, 155.390
423.575, 101.160
424.916, 156.550
426.257, 142.381
427.598, 147.203
428.939, 122.394
430.279, 112.278
431.619, 61.722
432.959, 95.615
434.299, 39.867
435.639, 63.524
436.978, 46.918
438.318, 100.774
439.657, 123.820
440.996, 207.701
442.334, 171.129
443.673, 134.569
445.011, 77.779
446.349, 100.775
447.687, 163.706
449.024, 56.748
450.361, 179.559
451.699, 72.106
453.036, 194.680
454.372, 77.028
455.709, 79.684
457.045, 111.994
458.381, 84.324
459.717, 86.137
461.053, 77.929
462.388, 159.544
463.724, 130.858
465.059, 146.634
466.394, 153.821
467.728, 115.603
469.063, 117.812
470.397, 49.871
471.731, 151.823
473.065, 4.224
474.398, 106.159
475.732, 99.658
477.065, 161.821
478.398, 54.382
479.731, 76.627
481.063, 168.473
482.396, 240.634
483.728, 66.447
485.060, 355.295
486.391, 116.646
487.723, 128.636
489.054, 281.645
490.385, 162.562
491.716, 114.019
493.047, 285.409
494.377, 65.881
495.708, 138.972
497.038, 20.805
498.368, 181.359
499.697, 171.150
501.027, 260.821
502.356, 289.179
503.685, 198.820
505.014, 277.863
506.342, 236.922
507.671, 256.805
508.999, 315.377
510.327, 164.336
511.655, 121.535
512.982, 173.456
514.310, 171.587
515.637, 235.756
516.964, 222.926
518.291, 104.444
519.617, 292.285
520.944, 199.778
522.270, 16.382
523.596, 181.442
524.921, 400.729
526.247, 219.872
527.572, 186.176
528.897, 141.882
530.222, 270.619
531.547, 217.919
532.871, 329.488
534.196, 135.982
535.520, 333.360
536.844, 151.773
538.167, 347.367
539.491, 318.756
540.814, 302.404
542.137, 338.476
543.460, 363.475
544.783, 297.934
546.105, 342.031
547.427, 386.615
548.749, 342.648
550.071, 309.031
551.393, 290.471
552.714, 235.730
554.035, 320.615
555.356, 274.980
556.677, 198.086
557.998, 271.328
559.318, 82.846
560.638, 286.307
561.958, 379.664
563.278, 293.369
564.597, 247.131
565.917, 365.523
567.236, 378.998
568.555, 403.051
569.874, 86.490
571.192, 229.570
572.511, 192.385
573.829, 394.471
575.147, 536.789
576.464, 299.426
577.782, 490.027
579.099, 252.211
580.416, 374.545
581.733, 405.734
583.050, 396.584
584.366, 378.320
585.683, 459.121
586.999, 449.834
588.315, 500.332
589.630, 480.684
590.946, 500.543
592.261, 470.582
593.576, 548.326
594.891, 789.557
596.206, 788.850
597.520, 828.514
598.834, 1118.193
600.148, 1508.121
601.462, 1607.795
602.776, 1927.213
604.089, 2146.168
605.402, 2555.211
606.715, 2694.451
608.028, 2702.922
609.341, 2472.629
610.653, 2251.031
611.965, 1780.004
613.277, 1598.246
614.589, 1406.410
615.901, 984.742
617.212, 882.748
618.523, 810.668
619.834, 758.422
621.145, 646.957
622.456, 575.732
623.766, 452.391
625.076, 430.221
626.386, 347.793
627.696, 345.275
629.006, 362.055
630.315, 259.475
631.624, 325.131
632.933, 72.115
634.242, 268.930
635.551, 145.965
636.859, 192.156
638.167, 258.459
639.475, 155.209
640.783, 62.154
642.090, 182.500
643.398, 249.709
644.705, 95.814
646.012, 21.867
647.318, 198.439
648.625, 104.410
649.931, 50.053
651.237, 176.324
652.543, 1.357
653.849, 116.787
655.155, 8.820
656.460, 94.205
657.765, 99.449
659.070, 224.973
660.375, 70.525
661.679, 125.605
662.984, 120.922
664.288, 25.975
665.592, 121.002
666.895, 106.188
668.199, 110.645
669.502, 15.168
670.805, 269.115
672.108, 56.697
673.411, 187.594
674.713, 48.252
676.016, 115.145
677.318, 179.363
678.620, 153.107
679.921, 105.096
681.223, 21.697
682.524, 7.494
683.825, 155.836
685.126, 11.051
686.427, 1.791
687.727, 15.062
689.028, 42.838
690.328, 41.305
691.628, 3.652
692.927, 3.227
694.227, 149.037
695.526, 57.959
696.825, 204.777
698.124, 17.383
699.423, 110.051
700.721, 117.242
702.020, 75.002
703.318, 187.371
704.616, 19.867
705.913, 2.092
707.211, 75.920
708.508, 85.840
709.805, 47.303
711.102, 89.049
712.399, 159.471
713.695, 8.488
714.992, 122.727
716.288, 17.408
717.584, 153.740
718.879, 75.213
720.175, 116.258
721.470, 52.961
722.765, 168.191
724.060, 19.330
725.355, 40.498
726.649, 99.789
727.944, 160.100
729.238, 210.191
730.532, 211.072
731.825, 62.436
733.119, 412.797
734.412, 183.902
735.705, 73.957
736.998, 324.461
738.291, 335.043
739.584, 135.537
740.876, 415.896
742.168, 376.543
743.460, 377.127
744.752, 377.875
746.043, 388.492
747.334, 539.148
748.626, 499.631
749.916, 480.266
751.207, 660.854
752.498, 351.393
753.788, 391.887
755.078, 622.330
756.368, 572.729
757.658, 513.076
758.947, 433.381
760.237, 403.637
761.526, 593.852
762.815, 284.021
764.104, 124.148
765.392, 495.084
766.680, 345.119
767.969, 355.107
769.257, 485.057
770.544, 555.439
771.832, 285.307
773.119, 585.133
774.406, 454.920
775.693, 524.670
776.980, 904.377
778.267, 1034.043
779.553, 893.490
780.839, 1162.809
782.125, 1401.748
783.411, 1580.645
784.697, 1559.582
785.982, 1218.057
787.267, 1396.787
788.552, 1054.033
789.837, 872.469
791.122, 890.494
792.406, 718.551
793.690, 836.859
794.974, 704.705
796.258, 991.654
797.542, 679.607
798.825, 667.811
800.108, 1085.230
801.391, 1071.139
802.674, 1329.051
803.957, 1226.477
805.239, 1413.172
806.522, 1770.916
807.804, 1665.797
809.085, 1773.260
810.367, 1738.619
811.649, 1765.895
812.930, 1923.199
814.211, 1978.287
815.492, 2128.074
816.772, 2235.475
818.053, 2212.834
819.333, 2338.850
820.613, 2606.172
821.893, 3093.416
823.173, 3810.664
824.452, 4674.535
825.732, 6032.416
827.011, 6793.688
828.290, 7941.199
829.568, 8133.010
830.847, 7800.197
832.125, 7038.068
833.403, 6035.391
834.681, 5533.709
835.959, 4957.273
837.236, 4661.750
838.514, 4679.088
839.791, 5304.336
841.068, 5689.447
842.345, 6595.238
843.621, 6917.584
844.898, 7205.535
846.174, 6880.840
847.450, 6447.834
848.726, 5825.105
850.001, 5156.607
851.277, 5194.105
852.552, 4920.145
853.827, 5368.666
855.102, 5856.543
856.376, 6428.148
857.651, 7445.568
858.925, 8021.811
860.199, 7887.289
861.473, 6947.961
862.746, 5797.609
864.020, 5344.494
865.293, 4061.570
866.566, 3280.551
867.839, 2685.629
869.112, 2172.867
870.384, 2057.473
871.656, 1604.875
872.928, 1401.957
874.200, 1119.227
875.472, 1401.770
876.744, 1019.273
878.015, 856.059
879.286, 943.047
880.557, 540.301
881.828, 687.828
883.098, 445.574
884.369, 683.340
885.639, 420.492
886.909, 508.789
888.178, 306.477
889.448, 163.719
890.717, 322.020
891.987, 230.324
893.256, 57.863
894.524, 166.172
895.793, 110.594
897.061, 328.906
898.330, 27.227
899.598, 205.547
900.865, 323.867
902.133, 112.207
903.401, 470.547
904.668, 268.891
905.935, 117.234
907.202, 345.590
908.468, 323.941
909.735, 372.297
911.001, 210.660
912.267, 369.035
913.533, 237.410
914.799, 355.797
916.064, 244.184
917.330, 38.031
918.595, 240.363
919.860, 158.758
921.124, 317.164
922.389, 24.422
923.653, 513.988
924.918, 12.410
926.182, 180.844
927.445, 129.277
928.709, 297.723
929.972, 156.180
931.236, 174.641
932.499, 183.113
933.761, 185.207
935.024, 20.090
936.286, 288.598
937.549, 197.113
938.811, 245.648
940.073, 404.195
941.334, 162.762
942.596, 8.660
943.857, 189.938
945.118, 8.555
946.379, 577.180
947.640, 25.828
948.900, 374.492
950.161, 103.176
951.421, 291.875
952.681, 340.594
953.940, 459.336
955.200, 328.098
956.459, 326.879
957.719, 275.688
958.978, 381.289
960.236, 504.090
961.495, 802.965
962.753, 1161.867
964.012, 1680.793
965.270, 1809.734
966.527, 2188.699
967.785, 2397.680
969.043, 1836.684
970.300, 1825.707
971.557, 1284.758
972.814, 1123.824
974.071, 692.914
975.327, 962.027
976.583, 521.172
977.840, 530.332
979.095, 499.543
980.351, 348.773
981.607, 558.047
982.862, 22.656
984.117, 306.660
985.372, 269.898
986.627, 69.289
987.882, 291.039
989.136, 200.504
990.390, 40.004
991.644, 259.512
992.898, 199.062
994.152, 248.645
995.405, 51.730
996.659, 97.922
997.912, 72.402
999.165, 7.293
1000.417, 57.016
1001.670, 246.789
1002.922, 136.578
1004.174, 53.598
1005.426, 116.227
1006.678, 133.875
1007.930, 286.035
1009.181, 75.961
1010.432, 125.922
1011.683, 89.094
1012.934, 80.863
1014.185, 249.207
1015.435, 179.301
1016.685, 100.477
1017.935, 249.785
1019.185, 50.082
1020.435, 240.461
1021.684, 113.422
1022.934, 103.855
1024.183, 484.703
1025.432, 205.215
1026.680, 15.785
1027.929, 276.383
1029.177, 67.008
1030.425, 237.660
1031.673, 289.625
1032.921, 500.320
1034.169, 231.082
1035.416, 121.855
1036.663, 22.656
1037.911, 563.480
1039.157, 244.328
1040.404, 565.199
1041.650, 186.090
1042.897, 246.996
1044.143, 557.934
1045.389, 151.113
1046.634, 579.805
1047.880, 460.746
1049.125, 391.703
1050.371, 682.688
1051.615, 766.109
1052.860, 237.125
1054.105, 498.164
1055.349, 469.219
1056.593, 880.293
1057.837, 121.520
1059.081, 622.633
1060.325, 603.762
1061.568, 335.641
1062.812, 566.812
1064.055, 308.004
1065.298, 559.215
1066.540, 520.445
1067.783, 320.836
1069.025, 332.109
1070.267, 593.398
1071.509, 274.707
1072.751, 605.562
1073.993, 326.902
1075.234, 348.258
1076.475, 489.629
1077.716, 271.020
1078.957, 552.426
1080.198, 553.844
1081.438, 385.277
1082.679, 456.727
1083.919, 438.184
1085.159, 269.656
1086.398, 621.141
1087.638, 422.641
1088.877, 624.195
1090.116, 605.766
1091.355, 327.344
1092.594, 828.805
1093.833, 490.410
1095.071, 312.023
1096.309, 613.652
1097.547, 345.289
1098.785, 436.930
1100.023, 438.578
1101.260, 300.242
1102.498, 241.910
1103.735, 533.590
1104.972, 605.750
1106.208, 867.441
1107.445, 20.859
1108.681, 500.895
1109.918, 212.605
1111.154, 244.324
1112.389, 616.039
1113.625, 27.770
1114.860, 329.492
1116.096, 501.223
1117.331, 342.953
1118.566, 574.691
1119.800, 126.426
1121.035, 138.160
1122.269, 629.906
1123.503, 31.656
1124.737, 533.387
1125.971, 85.109
1127.205, 286.852
1128.438, 488.836
1129.671, 240.613
1130.904, 142.387
1132.137, 404.570
1133.370, 83.633
1134.602, 528.164
1135.834, 50.023
1137.066, 411.801
1138.298, 475.523
1139.530, 506.418
1140.762, 468.289
1141.993, 251.926
1143.224, 543.762
1144.455, 216.973
1145.686, 211.711
1146.917, 278.621
1148.147, 183.535
1149.377, 325.430
1150.607, 267.000
1151.837, 589.785
1153.067, 200.285
1154.296, 402.852
1155.526, 337.582
1156.755, 209.547
1157.984, 743.012
1159.213, 235.000
1160.441, 857.422
1161.670, 553.848
1162.898, 115.797
1164.126, 512.379
1165.354, 500.930
1166.581, 152.902
1167.809, 739.965
1169.036, 38.043
1170.263, 503.945
1171.490, 53.926
1172.717, 315.934
1173.943, 581.164
1175.170, 185.023
1176.396, 337.055
1177.622, 751.848
1178.848, 6.102
1180.073, 465.953
1181.299, 716.762
1182.524, 288.828
1183.749, 600.898
1184.974, 454.750
1186.199, 266.836
1187.423, 900.559
1188.648, 512.980
1189.872, 665.086
1191.096, 578.457
1192.320, 260.578
1193.543, 956.609
1194.767, 350.379
1195.990, 462.527
1197.213, 1084.691
1198.436, 23.137
1199.659, 889.039
1200.881, 343.066
1202.104, 595.254
1203.326, 697.453
1204.548, 190.332
1205.770, 592.531
1206.991, 894.738
1208.213, 58.266
1209.434, 800.449
1210.655, 652.613
1211.876, 474.789
1213.096, 1056.969
1214.317, 370.609
1215.537, 512.711
1216.757, 1194.809
1217.977, 457.652
1219.197, 759.402
1220.417, 1030.969
1221.636, 482.945
1222.855, 1514.402
1224.074, 837.020
1225.293, 538.355
1226.512, 1519.680
1227.731, 761.434
1228.949, 912.574
1230.167, 673.668
1231.385, 865.125
1232.603, 791.891
1233.820, 697.109
1235.038, 789.031
1236.255, 979.934
1237.472, 1061.547
1238.689, 682.320
1239.906, 1063.043
1241.122, 633.695
1242.338, 924.293
1243.555, 834.793
1244.771, 785.238
1245.986, 1175.605
1247.202, 595.910
1248.417, 606.141
1249.633, 1466.320
1250.848, 216.438
1252.063, 1176.500
1253.277, 996.504
1254.492, 328.215
1255.706, 1257.684
1256.920, 877.066
1258.134, 746.359
1259.348, 865.570
1260.562, 534.688
1261.775, 1243.703
1262.988, 422.598
1264.201, 792.660
1265.414, 1091.152
1266.627, 469.520
1267.839, 570.941
1269.052, 1038.785
1270.264, 435.277
1271.476, 850.445
1272.688, 903.438
1273.899, 316.441
1275.111, 959.457
1276.322, 918.457
1277.533, 179.062
1278.744, 612.066
1279.955, 505.090
1281.165, 498.113
1282.376, 781.164
1283.586, 54.207
1284.796, 917.270
1286.006, 730.363
1287.215, 73.441
1288.425, 821.594
1289.634, 24.527
1290.843, 487.332
1292.052, 830.070
1293.261, 19.664
1294.469, 621.770
1295.678, 534.246
1296.886, 296.695
1298.094, 577.535
1299.302, 279.898
1300.509, 47.789
1301.717, 874.512
1302.924, 126.789
1304.131, 489.059
1305.338, 331.344
1306.545, 36.348
1307.752, 912.723
1308.958, 315.023
1310.164, 847.219
1311.370, 809.277
1312.576, 159.508
1313.782, 672.680
1314.987, 524.863
1316.193, 42.973
1317.398, 1109.176
1318.603, 51.324
1319.807, 133.480
1321.012, 915.629
1322.216, 77.793
1323.421, 589.969
1324.625, 712.168
1325.829, 45.680
1327.032, 1136.406
1328.236, 608.523
1329.439, 170.668
1330.642, 1162.852
1331.845, 195.086
1333.048, 457.359
1334.251, 818.844
1335.453, 251.145
1336.656, 723.578
1337.858, 1046.094
1339.060, 218.711
1340.261, 851.426
1341.463, 614.254
1342.664, 647.168
1343.866, 1290.281
1345.067, 212.984
1346.267, 926.184
1347.468, 1217.707
1348.669, 430.953
1349.869, 1240.055
1351.069, 1003.207
1352.269, 302.520
1353.469, 1509.594
1354.668, 1115.711
1355.868, 618.906
1357.067, 1720.832
1358.266, 283.793
1359.465, 1392.789
1360.664, 1294.270
1361.862, 418.074
1363.061, 1352.812
1364.259, 1091.223
1365.457, 430.926
1366.655, 1496.930
1367.852, 230.473
1369.050, 610.141
1370.247, 857.895
1371.444, 356.727
1372.641, 837.176
1373.838, 757.414
1375.035, 401.574
1376.231, 921.781
1377.427, 739.762
1378.623, 96.887
1379.819, 1115.777
1381.015, 299.926
1382.211, 1127.836
1383.406, 1847.746
1384.601, 740.668
1385.796, 1608.766
1386.991, 1508.211
1388.185, 594.359
1389.380, 1156.938
1390.574, 903.770
1391.768, 575.902
1392.962, 1765.086
1394.156, 801.230
1395.350, 1008.051
1396.543, 1857.285
1397.736, 5.527
1398.929, 1310.816
1400.122, 1081.555
1401.315, 581.512
1402.507, 1240.656
1403.700, 548.504
1404.892, 544.062
1406.084, 1546.219
1407.276, 65.562
1408.467, 968.402
1409.659, 857.828
1410.850, 7.078
1412.041, 767.949
1413.232, 325.105
1414.423, 0.000
##END=



