##NAMES=Colemanite
##RRUFFID=R050102
##IDEAL CHEMISTRY=CaB_3_O_4_(OH)_3_&#183;H_2_O
##LOCALITY=Kramer deposit, Boron, Kern County, California, USA
##OWNER=RRUFF
##SOURCE=Rock Currier
##DESCRIPTION=Colorless prismatic to tabular crystals
##STATUS=The identification of this mineral has been confirmed by X-ray diffraction and chemical analysis
##URL=rruff.info/R050102
##MEASURED CHEMISTRY=Ca_1.00_B_3.00_O_4_(OH)_3_Â·H_2_O ; trace amounts of Na; B assumed by stoichiometry and charge balance.
##PIN_ID=L00081
##ORIENTATION=Laser parallel to a* (1 0 0). Fiducial mark perpendicular to laser is parallel to b [0 1 0]
74.399, 0.000
75.797, 113.479
77.196, 8.808
78.594, 110.809
79.992, 657.811
81.389, 1235.959
82.787, 1893.490
84.184, 2529.272
85.581, 3239.408
86.978, 4110.414
88.374, 4139.515
89.770, 3835.128
91.166, 2947.958
92.562, 2048.127
93.958, 1323.878
95.353, 1283.373
96.748, 2015.351
98.143, 3388.794
99.538, 5662.998
100.932, 8027.509
102.326, 9752.020
103.720, 9627.365
105.114, 8259.802
106.508, 6740.312
107.901, 4957.510
109.294, 4349.943
110.687, 3652.488
112.079, 3331.728
113.472, 3227.627
114.864, 2681.072
116.256, 2481.876
117.647, 2160.079
119.039, 1626.635
120.430, 1016.847
121.821, 674.020
123.211, 606.361
124.602, 764.045
125.992, 1398.215
127.382, 1978.999
128.772, 2572.504
130.162, 2834.828
131.551, 2740.558
132.940, 2612.562
134.329, 2312.947
135.718, 2180.804
137.106, 1769.858
138.494, 1763.980
139.882, 1472.062
141.270, 1515.968
142.657, 1686.764
144.045, 1986.979
145.432, 2392.657
146.819, 2629.305
148.205, 2843.750
149.592, 2681.596
150.978, 2421.295
152.364, 1991.901
153.749, 1492.383
155.135, 1159.432
156.520, 788.191
157.905, 648.362
159.290, 507.555
160.674, 526.616
162.059, 455.895
163.443, 508.887
164.826, 809.591
166.210, 930.034
167.593, 1545.803
168.977, 2087.868
170.360, 2864.201
171.742, 3828.732
173.125, 4977.438
174.507, 6326.288
175.889, 7075.221
177.271, 7404.219
178.652, 6413.267
180.034, 4882.351
181.415, 3541.455
182.796, 2162.561
184.176, 1398.653
185.557, 776.725
186.937, 516.765
188.317, 261.754
189.697, 72.664
191.076, 70.468
192.456, 116.858
193.835, 111.327
195.213, 223.940
196.592, 135.698
197.970, 231.600
199.349, 131.646
200.726, 126.834
202.104, 225.168
203.482, 204.642
204.859, 177.252
206.236, 245.998
207.613, 216.878
208.989, 220.562
210.366, 221.397
211.742, 210.591
213.118, 49.029
214.493, 59.640
215.869, 8.359
217.244, 77.103
218.619, 164.405
219.994, 193.456
221.368, 310.085
222.742, 442.346
224.117, 405.142
225.490, 376.312
226.864, 357.709
228.237, 178.231
229.611, 182.797
230.984, 171.551
232.356, 169.397
233.729, 156.073
235.101, 50.300
236.473, 298.855
237.845, 379.064
239.216, 354.878
240.588, 392.277
241.959, 485.967
243.330, 566.164
244.701, 569.097
246.071, 600.484
247.441, 610.701
248.811, 610.163
250.181, 543.995
251.551, 551.767
252.920, 776.396
254.289, 572.944
255.658, 798.147
257.027, 768.396
258.395, 972.619
259.763, 1094.602
261.131, 1032.290
262.499, 1104.355
263.867, 1148.391
265.234, 1220.895
266.601, 1242.145
267.968, 1244.249
269.334, 1238.062
270.701, 1249.804
272.067, 1363.080
273.433, 1290.527
274.799, 1413.950
276.164, 1318.692
277.530, 1296.352
278.895, 1400.590
280.260, 1323.696
281.624, 1394.412
282.989, 1412.880
284.353, 1562.179
285.717, 1540.422
287.080, 1610.373
288.444, 1792.974
289.807, 1870.273
291.170, 2076.305
292.533, 2090.156
293.896, 2170.835
295.258, 2403.344
296.620, 2536.667
297.982, 2674.681
299.344, 2721.139
300.705, 2780.968
302.067, 2681.189
303.428, 2796.833
304.789, 2746.897
306.149, 2614.354
307.510, 2672.234
308.870, 2445.672
310.230, 2580.808
311.589, 2432.792
312.949, 2532.679
314.308, 2794.495
315.667, 3045.237
317.026, 3676.872
318.385, 4188.400
319.743, 4539.787
321.101, 4981.101
322.459, 5212.349
323.817, 5263.485
325.174, 4964.610
326.532, 4605.416
327.889, 4036.378
329.246, 3457.305
330.602, 3028.167
331.958, 2442.960
333.315, 2043.697
334.671, 1646.364
336.026, 1396.959
337.382, 1331.483
338.737, 996.934
340.092, 988.311
341.447, 746.613
342.802, 725.841
344.156, 630.992
345.510, 570.065
346.864, 619.059
348.218, 547.975
349.571, 646.810
350.925, 500.450
352.278, 480.681
353.630, 525.670
354.983, 460.448
356.336, 377.986
357.688, 312.758
359.040, 452.350
360.391, 358.375
361.743, 439.278
363.094, 388.354
364.445, 227.636
365.796, 279.646
367.147, 248.849
368.497, 239.678
369.847, 304.104
371.197, 129.272
372.547, 213.119
373.897, 198.826
375.246, 193.125
376.595, 174.478
377.944, 206.079
379.293, 227.867
380.641, 194.115
381.989, 380.059
383.337, 349.498
384.685, 366.143
386.032, 347.388
387.380, 316.418
388.727, 474.281
390.074, 267.027
391.421, 206.020
392.767, 95.083
394.113, 2.953
395.459, 45.770
396.805, 7.321
398.151, 8.310
399.496, 39.440
400.841, 0.113
402.186, 81.842
403.531, 41.582
404.875, 33.082
406.219, 144.402
407.564, 0.956
408.907, 6.480
410.251, 90.178
411.594, 0.949
412.937, 109.345
414.280, 75.836
415.623, 12.080
416.966, 151.838
418.308, 59.393
419.650, 46.089
420.992, 62.082
422.334, 44.842
423.675, 54.896
425.016, 5.916
426.357, 70.373
427.698, 36.200
429.038, 29.681
430.379, 48.071
431.719, 60.626
433.059, 61.549
434.399, 190.639
435.738, 121.648
437.077, 209.579
438.416, 157.434
439.755, 189.213
441.094, 154.918
442.432, 5.449
443.770, 182.103
445.108, 162.586
446.446, 119.999
447.783, 135.345
449.121, 166.622
450.458, 187.838
451.795, 304.989
453.131, 454.082
454.468, 346.113
455.804, 390.086
457.140, 420.002
458.476, 334.862
459.811, 477.666
461.146, 372.427
462.482, 511.138
463.816, 494.803
465.151, 415.423
466.486, 651.002
467.820, 642.544
469.154, 768.049
470.488, 920.521
471.821, 905.960
473.155, 1348.367
474.488, 1690.744
475.821, 2113.092
477.154, 2575.408
478.486, 3207.697
479.818, 3699.955
481.150, 3712.186
482.482, 3734.390
483.814, 2876.564
485.145, 2468.714
486.477, 1840.838
487.808, 1272.937
489.138, 1065.011
490.469, 847.060
491.799, 669.082
493.129, 586.966
494.459, 505.948
495.789, 382.914
497.119, 212.150
498.448, 344.071
499.777, 268.025
501.106, 116.938
502.434, 291.560
503.763, 202.084
505.091, 322.200
506.419, 117.051
507.747, 282.097
509.074, 353.852
510.402, 272.010
511.729, 374.548
513.056, 236.003
514.383, 234.680
515.709, 293.103
517.035, 157.022
518.361, 247.472
519.687, 188.313
521.013, 296.727
522.338, 217.840
523.663, 53.881
524.988, 348.734
526.313, 249.442
527.638, 300.153
528.962, 351.026
530.286, 402.583
531.610, 692.848
532.934, 594.337
534.257, 845.981
535.581, 667.823
536.904, 839.685
538.227, 781.793
539.549, 814.069
540.872, 876.250
542.194, 899.235
543.516, 982.113
544.838, 985.072
546.159, 867.962
547.480, 1200.731
548.802, 1123.885
550.123, 1226.472
551.443, 1538.827
552.764, 1630.613
554.084, 2000.026
555.404, 2471.375
556.724, 3001.242
558.044, 3931.326
559.363, 4942.787
560.682, 6852.501
562.001, 8907.161
563.320, 11214.430
564.639, 13142.313
565.957, 13193.291
567.275, 11963.356
568.593, 9343.979
569.911, 7468.621
571.228, 5399.078
572.546, 4152.708
573.863, 3508.542
575.180, 2688.479
576.496, 2239.750
577.813, 2116.932
579.129, 1805.062
580.445, 1707.326
581.761, 1445.764
583.076, 1453.688
584.392, 1305.500
585.707, 1372.698
587.022, 1525.003
588.337, 1337.305
589.651, 1619.818
590.966, 1638.221
592.280, 1830.878
593.594, 2004.133
594.907, 2307.165
596.221, 2900.660
597.534, 3273.979
598.847, 4347.478
600.160, 5420.907
601.473, 6753.529
602.785, 9317.202
604.097, 11900.872
605.409, 16334.418
606.721, 21868.125
608.033, 28632.008
609.344, 36136.043
610.655, 40360.227
611.966, 41044.438
613.277, 35918.758
614.588, 28903.090
615.898, 22137.457
617.208, 15901.891
618.518, 12408.015
619.828, 9102.552
621.137, 7057.105
622.446, 5611.686
623.755, 4326.329
625.064, 3740.998
626.373, 2855.693
627.681, 2440.418
628.990, 2025.167
630.298, 1569.955
631.605, 1524.770
632.913, 1149.613
634.220, 1054.483
635.527, 939.383
636.834, 634.309
638.141, 539.262
639.448, 514.242
640.754, 309.252
642.060, 394.290
643.366, 199.356
644.672, 104.450
645.977, 39.574
647.283, 114.727
648.588, 269.907
649.892, 164.883
651.197, 151.607
652.502, 28.207
653.806, 36.522
655.110, 138.775
656.414, 5.897
657.717, 277.553
659.021, 283.315
660.324, 558.731
661.627, 824.219
662.930, 879.762
664.232, 1445.274
665.534, 1984.083
666.837, 2419.664
668.138, 3105.276
669.440, 3010.924
670.742, 3306.606
672.043, 2612.325
673.344, 2368.078
674.645, 1833.870
675.946, 1279.701
677.246, 995.565
678.546, 751.466
679.846, 487.398
681.146, 463.366
682.446, 159.370
683.745, 385.409
685.045, 231.482
686.344, 287.590
687.642, 363.729
688.941, 69.903
690.239, 476.110
691.538, 252.349
692.836, 498.615
694.133, 324.911
695.431, 211.236
696.728, 427.589
698.025, 343.969
699.322, 410.375
700.619, 536.805
701.916, 253.262
703.212, 619.741
704.508, 366.248
705.804, 542.779
707.100, 679.336
708.395, 585.919
709.690, 812.534
710.985, 779.188
712.280, 745.878
713.575, 992.605
714.869, 729.373
716.164, 946.173
717.458, 893.013
718.751, 959.915
720.045, 906.867
721.338, 843.869
722.632, 990.946
723.925, 868.062
725.217, 935.217
726.510, 892.433
727.802, 829.686
729.095, 1067.004
730.386, 1014.380
731.678, 1171.795
732.970, 1409.285
734.261, 1736.827
735.552, 2204.415
736.843, 2632.031
738.134, 3479.692
739.424, 4677.400
740.715, 5645.141
742.005, 7393.108
743.295, 8580.926
744.584, 9516.932
745.874, 9894.800
747.163, 8634.910
748.452, 7947.100
749.741, 6341.373
751.030, 5152.124
752.318, 4120.473
753.607, 3279.310
754.895, 2755.654
756.182, 2099.694
757.470, 1721.439
758.758, 1507.784
760.045, 1619.318
761.332, 798.597
762.619, 776.817
763.905, 419.621
765.192, 547.661
766.478, 65.943
767.764, 282.576
769.050, 212.070
770.335, 110.317
771.621, 17.574
772.906, 71.221
774.191, 4.611
775.475, 93.091
776.760, 131.380
778.044, 427.897
779.329, 276.208
780.613, 664.847
781.896, 923.178
783.180, 1181.518
784.463, 2182.299
785.746, 2320.657
787.029, 3129.123
788.312, 3117.498
789.594, 2835.884
790.877, 2734.276
792.159, 1922.678
793.441, 1711.089
794.722, 1299.506
796.004, 667.931
797.285, 816.363
798.566, 534.804
799.847, 303.252
801.128, 381.706
802.408, 60.166
803.689, 208.635
804.969, 45.775
806.249, 47.308
807.528, 41.152
808.808, 9.325
810.087, 117.797
811.366, 173.781
812.645, 15.370
813.923, 33.041
815.202, 1.459
816.480, 0.120
817.758, 208.304
819.036, 83.267
820.314, 75.135
821.591, 93.542
822.868, 181.953
824.145, 300.367
825.422, 138.785
826.699, 427.208
827.975, 355.634
829.251, 704.062
830.527, 542.493
831.803, 790.927
833.079, 1139.363
834.354, 1097.802
835.629, 1396.242
836.904, 1614.685
838.179, 1453.129
839.454, 1621.573
840.728, 1790.020
842.002, 1408.468
843.276, 1746.916
844.550, 1235.364
845.824, 1343.814
847.097, 1182.264
848.370, 1050.714
849.643, 1029.164
850.916, 817.613
852.188, 666.062
853.461, 734.511
854.733, 542.958
856.005, 451.404
857.277, 449.850
858.548, 388.295
859.820, 286.738
861.091, 165.181
862.362, 413.620
863.633, 182.060
864.903, 220.495
866.173, 308.929
867.444, 167.360
868.713, 285.789
869.983, 344.215
871.253, 162.637
872.522, 451.056
873.791, 239.472
875.060, 447.883
876.329, 416.288
877.597, 344.689
878.866, 503.086
880.134, 281.479
881.402, 419.864
882.670, 388.244
883.937, 326.618
885.204, 444.985
886.472, 203.347
887.739, 191.700
889.005, 190.047
890.272, 68.393
891.538, 216.730
892.804, 135.062
894.070, 33.384
895.336, 231.693
896.601, 260.005
897.867, 88.132
899.132, 3.739
900.397, 35.610
901.662, 67.529
902.926, 169.511
904.190, 38.386
905.455, 26.270
906.718, 95.856
907.982, 58.064
909.246, 20.337
910.509, 92.598
911.772, 14.941
913.035, 137.328
914.298, 60.180
915.560, 32.327
916.823, 114.857
918.085, 62.518
919.347, 250.121
920.608, 27.087
921.870, 84.271
923.131, 98.549
924.392, 1.458
925.653, 76.062
926.914, 60.902
928.175, 137.863
929.435, 85.188
930.695, 211.679
931.955, 58.535
933.215, 225.375
934.474, 212.204
935.734, 9.023
936.993, 385.809
938.252, 72.582
939.511, 119.343
940.769, 316.093
942.027, 262.832
943.286, 319.562
944.544, 366.280
945.801, 272.988
947.059, 559.685
948.316, 486.371
949.573, 353.047
950.830, 599.712
952.087, 696.366
953.344, 693.010
954.600, 659.645
955.856, 826.267
957.112, 971.613
958.368, 1056.870
959.623, 1283.473
960.879, 1340.064
962.134, 1426.646
963.389, 1875.121
964.644, 1811.303
965.898, 2127.850
967.153, 2284.344
968.407, 2100.803
969.661, 2357.312
970.915, 1980.549
972.168, 2117.037
973.422, 2153.513
974.675, 1889.979
975.928, 1986.431
977.181, 1702.873
978.433, 1669.303
979.686, 1735.721
980.938, 1582.127
982.190, 1628.521
983.442, 1614.902
984.693, 1481.273
985.945, 1667.632
987.196, 1393.979
988.447, 1610.313
989.698, 1886.637
990.949, 1372.949
992.199, 2029.251
993.449, 2215.539
994.699, 2081.816
995.949, 2448.083
997.199, 2374.337
998.448, 2620.584
999.697, 2616.819
1000.947, 2443.045
1002.195, 2619.260
1003.444, 2215.465
1004.693, 2001.663
1005.941, 2187.850
1007.189, 1724.027
1008.437, 1750.194
1009.684, 1426.349
1010.932, 1492.492
1012.179, 1488.624
1013.426, 1034.742
1014.673, 1060.850
1015.920, 1196.945
1017.166, 743.027
1018.413, 1149.100
1019.659, 895.158
1020.905, 811.205
1022.151, 1017.239
1023.396, 683.262
1024.641, 1099.272
1025.887, 925.270
1027.132, 661.254
1028.376, 1087.228
1029.621, 693.188
1030.865, 989.139
1032.109, 905.077
1033.353, 831.007
1034.597, 886.926
1035.841, 802.835
1037.084, 868.735
1038.327, 1204.626
1039.570, 961.798
1040.813, 1177.672
1042.056, 1323.540
1043.298, 1269.401
1044.540, 1425.076
1045.782, 1490.925
1047.024, 1668.607
1048.266, 1674.445
1049.507, 1855.598
1050.748, 2487.174
1051.990, 2467.130
1053.230, 2680.183
1054.471, 3185.655
1055.711, 3622.996
1056.952, 4200.507
1058.192, 4580.337
1059.432, 4765.525
1060.671, 5583.090
1061.911, 5505.482
1063.150, 5680.146
1064.389, 5575.889
1065.628, 5223.641
1066.867, 5079.594
1068.105, 4505.319
1069.344, 4266.154
1070.582, 3910.696
1071.820, 3377.848
1073.058, 3294.659
1074.295, 3047.537
1075.532, 2685.793
1076.770, 2641.418
1078.007, 2407.247
1079.243, 2154.863
1080.480, 2180.703
1081.716, 1986.228
1082.953, 1792.075
1084.189, 1747.929
1085.424, 1651.356
1086.660, 1807.223
1087.895, 1332.997
1089.131, 1338.879
1090.366, 1554.767
1091.601, 1040.663
1092.835, 1376.568
1094.070, 982.482
1095.304, 788.407
1096.538, 964.343
1097.772, 600.287
1099.005, 726.227
1100.239, 712.178
1101.472, 528.141
1102.705, 704.115
1103.938, 520.010
1105.171, 495.908
1106.404, 741.790
1107.636, 417.690
1108.868, 633.429
1110.100, 509.174
1111.332, 54.830
1112.563, 710.529
1113.795, 306.179
1115.026, 411.808
1116.257, 727.438
1117.488, 183.071
1118.718, 618.704
1119.949, 474.352
1121.179, 289.999
1122.409, 875.646
1123.639, 431.289
1124.868, 496.930
1126.098, 722.566
1127.327, 368.195
1128.556, 683.816
1129.785, 629.428
1131.014, 575.035
1132.242, 890.635
1133.470, 586.234
1134.699, 561.838
1135.927, 997.453
1137.154, 673.076
1138.382, 968.715
1139.609, 914.361
1140.836, 560.027
1142.063, 1105.709
1143.290, 811.414
1144.517, 827.146
1145.743, 1203.465
1146.969, 769.270
1148.195, 1095.117
1149.421, 861.018
1150.647, 936.980
1151.872, 1253.352
1153.097, 949.350
1154.322, 1285.250
1155.547, 1351.059
1156.772, 1006.717
1157.996, 1142.359
1159.221, 1207.994
1160.445, 1043.617
1161.669, 1339.229
1162.892, 784.828
1164.116, 1010.420
1165.339, 1086.000
1166.562, 531.568
1167.785, 947.127
1169.008, 692.676
1170.231, 648.215
1171.453, 833.736
1172.675, 479.240
1173.897, 554.736
1175.119, 460.314
1176.341, 345.947
1177.562, 371.627
1178.783, 107.465
1180.004, 243.330
1181.225, 389.260
1182.446, 135.246
1183.666, 281.377
1184.887, 157.545
1186.107, 26.143
1187.327, 500.266
1188.546, 76.791
1189.766, 213.438
1190.985, 270.150
1192.204, 16.926
1193.423, 43.723
1194.642, 190.566
1195.861, 122.568
1197.079, 324.316
1198.297, 8.785
1199.515, 38.135
1200.733, 145.068
1201.951, 37.977
1203.168, 238.996
1204.385, 105.990
1205.602, 206.992
1206.819, 320.051
1208.036, 17.125
1209.253, 254.227
1210.469, 191.365
1211.685, 101.465
1212.901, 185.742
1214.117, 82.982
1215.332, 49.736
1216.548, 327.580
1217.763, 15.057
1218.978, 162.346
1220.193, 389.797
1221.407, 167.291
1222.622, 144.832
1223.836, 422.414
1225.050, 20.035
1226.264, 517.703
1227.477, 235.404
1228.691, 263.150
1229.904, 530.961
1231.117, 228.834
1232.330, 406.781
1233.543, 564.805
1234.755, 272.908
1235.968, 611.098
1237.180, 519.381
1238.392, 327.762
1239.604, 896.238
1240.815, 324.812
1242.027, 853.482
1243.238, 762.248
1244.449, 577.793
1245.660, 1046.666
1246.871, 965.615
1248.081, 1024.645
1249.291, 1292.635
1250.501, 1190.047
1251.711, 1321.867
1252.921, 1720.484
1254.131, 1348.693
1255.340, 1856.352
1256.549, 1602.473
1257.758, 1589.525
1258.967, 2024.609
1260.175, 1396.410
1261.384, 1732.785
1262.592, 1769.055
1263.800, 1385.203
1265.008, 1451.207
1266.216, 1177.047
1267.423, 812.691
1268.630, 1188.109
1269.838, 773.252
1271.044, 708.072
1272.251, 1102.508
1273.458, 436.678
1274.664, 680.336
1275.870, 504.529
1277.076, 348.645
1278.282, 684.453
1279.488, 331.271
1280.693, 398.949
1281.898, 486.891
1283.103, 114.998
1284.308, 383.340
1285.513, 282.049
1286.717, 111.320
1287.922, 271.451
1289.126, 462.707
1290.330, 14.920
1291.534, 618.469
1292.737, 223.109
1293.940, 279.395
1295.144, 447.666
1296.347, 0.721
1297.549, 544.893
1298.752, 246.279
1299.955, 0.000
##END=



