##NAMES=Colemanite
##RRUFFID=R050102
##IDEAL CHEMISTRY=CaB_3_O_4_(OH)_3_&#183;H_2_O
##LOCALITY=Kramer deposit, Boron, Kern County, California, USA
##OWNER=RRUFF
##SOURCE=Rock Currier
##DESCRIPTION=Colorless prismatic to tabular crystals
##STATUS=The identification of this mineral has been confirmed by X-ray diffraction and chemical analysis
##URL=rruff.info/R050102
##MEASURED CHEMISTRY=Ca_1.00_B_3.00_O_4_(OH)_3_Â·H_2_O ; trace amounts of Na; B assumed by stoichiometry and charge balance.
##PIN_ID=L00081
##ORIENTATION=Laser parallel to a* (1 0 0). Fiducial mark perpendicular to laser is parallel to b [0 1 0]
74.399, 0.000
75.797, 16.589
77.196, 250.097
78.594, 456.140
79.992, 875.951
81.389, 1338.391
82.787, 1854.201
84.184, 2698.481
85.581, 3497.409
86.978, 4527.581
88.374, 4886.363
89.770, 4921.975
91.166, 4385.038
92.562, 3665.965
93.958, 2942.679
95.353, 2373.399
96.748, 2246.899
98.143, 2372.335
99.538, 3129.126
100.932, 3696.876
102.326, 4455.295
103.720, 4144.172
105.114, 3287.069
106.508, 2890.057
107.901, 2062.317
109.294, 1710.191
110.687, 1505.626
112.079, 1408.063
113.472, 1677.854
114.864, 1115.270
116.256, 1040.549
117.647, 873.907
119.039, 535.562
120.430, 335.731
121.821, 224.609
123.211, 272.366
124.602, 439.142
125.992, 705.042
127.382, 1100.146
128.772, 1624.521
130.162, 2008.220
131.551, 1921.291
132.940, 1873.777
134.329, 1802.640
135.718, 1552.945
137.106, 1387.112
138.494, 1701.446
139.882, 1590.880
141.270, 1682.923
142.657, 1822.938
144.045, 2118.293
145.432, 2303.295
146.819, 2557.600
148.205, 2532.177
149.592, 2616.982
150.978, 2431.949
152.364, 2226.951
153.749, 1831.946
155.135, 1726.925
156.520, 1511.891
157.905, 1516.896
159.290, 1552.050
160.674, 1597.527
162.059, 1693.296
163.443, 1549.484
164.826, 1946.315
166.210, 1933.705
167.593, 2521.545
168.977, 2659.947
170.360, 3368.821
171.742, 4138.106
173.125, 4977.785
174.507, 6167.771
175.889, 6857.887
177.271, 7378.104
178.652, 6828.391
180.034, 5878.735
181.415, 5139.193
182.796, 3869.553
184.176, 3199.907
185.557, 2220.250
186.937, 1570.579
188.317, 1220.883
189.697, 731.132
191.076, 451.300
192.456, 101.365
193.835, 38.681
195.213, 308.835
196.592, 89.096
197.970, 339.462
199.349, 229.932
200.726, 170.501
202.104, 371.171
203.482, 281.939
204.859, 322.803
206.236, 363.760
207.613, 354.792
208.989, 295.903
210.366, 247.011
211.742, 148.292
213.118, 121.025
214.493, 231.008
215.869, 651.165
217.244, 883.455
218.619, 1426.618
219.994, 1827.032
221.368, 2307.347
222.742, 2587.258
224.117, 2678.072
225.490, 2366.907
226.864, 2283.733
228.237, 1819.108
229.611, 1774.104
230.984, 1688.438
232.356, 1732.733
233.729, 1796.984
235.101, 1821.192
236.473, 2085.356
237.845, 2190.002
239.216, 2266.271
240.588, 2343.350
241.959, 2384.552
243.330, 2435.055
244.701, 2403.576
246.071, 2365.895
247.441, 2000.328
248.811, 2166.652
250.181, 1981.729
251.551, 2069.621
252.920, 2207.660
254.289, 2018.282
255.658, 2467.149
257.027, 2406.037
258.395, 3090.604
259.763, 3007.790
261.131, 3229.270
262.499, 3473.210
263.867, 3380.320
265.234, 3616.170
266.601, 3493.814
267.968, 3430.850
269.334, 3184.771
270.701, 2878.057
272.067, 2988.158
273.433, 2593.067
274.799, 2277.358
276.164, 1859.935
277.530, 1633.869
278.895, 1415.581
280.260, 1087.854
281.624, 1050.713
282.989, 912.454
284.353, 1013.384
285.717, 863.508
287.080, 713.450
288.444, 783.261
289.807, 782.943
291.170, 1012.502
292.533, 981.938
293.896, 1081.257
295.258, 1260.459
296.620, 1409.545
297.982, 1508.522
299.344, 1597.256
300.705, 1945.445
302.067, 2072.989
303.428, 2449.930
304.789, 2756.246
306.149, 3301.890
307.510, 3817.352
308.870, 3812.230
310.230, 4057.071
311.589, 3631.876
312.949, 3336.645
314.308, 3071.373
315.667, 2756.063
317.026, 2920.712
318.385, 2955.322
319.743, 2929.892
321.101, 3204.420
322.459, 3548.906
323.817, 3533.352
325.174, 3447.755
326.532, 3422.111
327.889, 2966.423
329.246, 2740.725
330.602, 2575.029
331.958, 2219.235
333.315, 1913.674
334.671, 1637.854
336.026, 1482.027
337.382, 1377.258
338.737, 1181.932
340.092, 1116.610
341.447, 901.611
342.802, 965.467
344.156, 810.355
345.510, 874.030
346.864, 857.637
348.218, 691.174
349.571, 944.639
350.925, 628.033
352.278, 741.354
353.630, 714.605
354.983, 597.784
356.336, 619.488
357.688, 364.118
359.040, 661.669
360.391, 243.513
361.743, 428.900
363.094, 431.454
364.445, 377.522
365.796, 360.580
367.147, 309.128
368.497, 315.001
369.847, 263.245
371.197, 141.846
372.547, 239.080
373.897, 179.307
375.246, 295.624
376.595, 326.219
377.944, 357.757
379.293, 589.656
380.641, 431.482
381.989, 763.227
383.337, 844.905
384.685, 1146.515
386.032, 1168.059
387.380, 1299.540
388.727, 1254.389
390.074, 1112.324
391.421, 993.644
392.767, 944.916
394.113, 716.143
395.459, 707.328
396.805, 448.470
398.151, 649.565
399.496, 360.617
400.841, 261.619
402.186, 452.564
403.531, 53.454
404.875, 244.256
406.219, 35.018
407.564, 205.565
408.907, 76.063
410.251, 26.458
411.594, 76.733
412.937, 153.098
414.280, 153.146
415.623, 33.410
416.966, 163.830
418.308, 4.476
419.650, 95.261
420.992, 23.766
422.334, 207.332
423.675, 88.679
425.016, 19.792
426.357, 281.864
427.698, 6.195
429.038, 14.124
430.379, 98.077
431.719, 90.463
433.059, 43.031
434.399, 54.247
435.738, 71.416
437.077, 228.481
438.416, 65.458
439.755, 342.331
441.094, 179.122
442.432, 95.825
443.770, 212.432
445.108, 368.955
446.446, 525.398
447.783, 661.769
449.121, 958.006
450.458, 1174.234
451.795, 1500.393
453.131, 2106.481
454.468, 2322.510
455.804, 2668.470
457.140, 2754.363
458.476, 2300.189
459.811, 1905.951
461.146, 1491.649
462.482, 1307.286
463.816, 842.863
465.151, 648.383
466.486, 683.849
467.820, 409.263
469.154, 624.625
470.488, 569.939
471.821, 605.206
473.155, 930.425
474.488, 855.597
475.821, 1170.720
477.154, 1385.797
478.486, 1670.827
479.818, 1945.810
481.150, 1890.747
482.482, 2085.637
483.814, 1390.480
485.145, 1595.279
486.477, 960.127
487.808, 615.119
489.138, 668.506
490.469, 445.803
491.799, 550.377
493.129, 409.793
494.459, 454.476
495.789, 439.806
497.119, 179.957
498.448, 294.399
499.777, 283.671
501.106, 187.921
502.434, 442.116
503.763, 176.267
505.091, 780.292
506.419, 454.342
507.747, 788.348
509.074, 931.729
510.402, 1025.652
511.729, 1218.688
513.056, 1042.152
514.383, 775.459
515.709, 648.232
517.035, 651.061
518.361, 502.187
519.687, 265.378
521.013, 535.063
522.338, 307.460
523.663, 330.033
524.988, 672.340
526.313, 494.803
527.638, 667.071
528.962, 589.654
530.286, 662.100
531.610, 1173.408
532.934, 982.494
534.257, 1554.988
535.581, 1358.383
536.904, 2171.871
538.227, 2365.453
539.549, 2790.301
540.872, 3314.113
542.194, 3439.367
543.516, 3813.803
544.838, 3578.084
546.159, 2994.131
547.480, 3088.338
548.802, 2682.695
550.123, 2596.836
551.443, 2690.938
552.764, 2615.006
554.084, 3039.039
555.404, 3403.037
556.724, 3986.480
558.044, 5150.408
559.363, 6043.412
560.682, 8425.969
562.001, 10779.289
563.320, 13429.180
564.639, 15321.562
565.957, 15516.773
567.275, 14238.816
568.593, 11119.205
569.911, 9498.057
571.228, 7448.422
572.546, 6406.160
573.863, 5993.893
575.180, 5189.141
576.496, 4616.203
577.813, 4143.279
579.129, 3804.664
580.445, 3153.395
581.761, 2757.779
583.076, 2499.633
584.392, 2188.238
585.707, 2288.021
587.022, 2215.918
588.337, 1964.332
589.651, 2355.775
590.966, 2217.742
592.280, 2272.736
593.594, 2652.717
594.907, 2603.094
596.221, 3194.986
597.534, 3355.330
598.847, 4267.734
600.160, 5219.410
601.473, 6150.348
602.785, 8412.266
604.097, 10334.869
605.409, 13728.168
606.721, 18181.537
608.033, 23084.908
609.344, 28858.275
610.655, 31681.631
611.966, 31916.803
613.277, 27240.236
614.588, 21694.035
615.898, 16697.484
617.208, 11671.561
618.518, 9235.398
619.828, 6599.516
621.137, 5123.078
622.446, 4316.846
623.755, 3200.498
625.064, 2934.148
626.373, 2127.480
627.681, 1751.168
628.990, 1444.854
630.298, 1048.564
631.605, 1072.268
632.913, 665.992
634.220, 639.717
635.527, 613.438
636.834, 367.166
638.141, 300.889
639.448, 274.607
640.754, 158.324
642.060, 182.039
643.366, 75.746
644.672, 29.453
645.977, 206.848
647.283, 83.230
648.588, 121.441
649.892, 304.975
651.197, 51.457
652.502, 24.680
653.806, 151.328
655.110, 71.559
656.414, 135.754
657.717, 327.549
659.021, 109.748
660.324, 583.018
661.627, 905.186
662.930, 1018.580
664.232, 1841.887
665.534, 2205.842
666.837, 2899.451
668.138, 3535.260
669.440, 3498.852
670.742, 4082.641
672.043, 3316.254
673.344, 2879.559
674.645, 2253.367
675.946, 1796.684
677.246, 1319.383
678.546, 1012.713
679.846, 845.637
681.146, 548.674
682.446, 162.014
683.745, 455.357
685.045, 208.705
686.344, 352.053
687.642, 235.408
688.941, 161.230
690.239, 442.072
691.538, 75.379
692.836, 248.688
694.133, 221.990
695.431, 4.709
696.728, 278.582
698.025, 28.133
699.322, 45.139
700.619, 308.402
701.916, 58.340
703.212, 284.895
704.508, 28.123
705.804, 171.346
707.100, 234.561
708.395, 107.771
709.690, 470.975
710.985, 214.176
712.280, 347.369
713.575, 470.561
714.869, 253.748
716.164, 496.934
717.458, 260.119
718.751, 683.303
720.045, 516.498
721.338, 349.697
722.632, 742.926
723.925, 526.160
725.217, 739.406
726.510, 582.668
727.802, 805.945
729.095, 1069.285
730.386, 1092.688
731.678, 1426.127
732.970, 1759.635
734.261, 2293.166
735.552, 3176.746
736.843, 3690.346
738.134, 4724.023
739.424, 6117.746
740.715, 6911.490
742.005, 8685.332
743.295, 9439.195
744.584, 10026.479
745.874, 10070.414
747.163, 8654.387
748.452, 7858.400
749.741, 5922.955
751.030, 5180.445
752.318, 3887.324
753.607, 3057.682
754.895, 2604.859
756.182, 1873.820
757.470, 1513.314
758.758, 1204.596
760.045, 907.664
761.332, 790.635
762.619, 655.662
763.905, 240.887
765.192, 545.807
766.478, 39.410
767.764, 235.705
769.050, 60.701
770.335, 211.867
771.621, 27.973
772.906, 82.975
774.191, 38.988
775.475, 339.318
776.760, 134.064
778.044, 631.225
779.329, 445.609
780.613, 1161.363
781.896, 1205.213
783.180, 1290.014
784.463, 2510.607
785.746, 2614.707
787.029, 3393.959
788.312, 3358.824
789.594, 2893.131
790.877, 2689.758
792.159, 1773.490
793.441, 1587.412
794.722, 1141.822
796.004, 635.510
797.285, 789.184
798.566, 343.490
799.847, 306.844
801.128, 361.746
802.408, 12.672
803.689, 366.256
804.969, 35.062
806.249, 118.273
807.528, 270.900
808.808, 58.646
810.087, 502.033
811.366, 50.527
812.645, 583.979
813.923, 617.416
815.202, 370.842
816.480, 204.258
817.758, 277.658
819.036, 71.045
820.314, 154.412
821.591, 22.240
822.868, 161.070
824.145, 114.363
825.422, 157.637
826.699, 350.893
827.975, 114.133
829.251, 667.352
830.527, 360.559
831.803, 813.750
833.079, 1066.928
834.354, 950.092
835.629, 1213.240
836.904, 1496.371
838.179, 1429.488
839.454, 1772.590
840.728, 1585.672
842.002, 1578.740
843.276, 1795.488
844.550, 1158.523
845.824, 1471.539
847.097, 1374.539
848.370, 1137.525
849.643, 1120.072
850.916, 1013.025
852.188, 925.061
853.461, 817.861
854.733, 750.764
856.005, 771.848
857.277, 756.758
858.548, 927.389
859.820, 860.225
861.091, 886.346
862.362, 995.848
863.633, 868.633
864.903, 1011.402
866.173, 1144.154
867.444, 1086.891
868.713, 1439.609
869.983, 1302.309
871.253, 1254.994
872.522, 1817.660
873.791, 1650.438
875.060, 1813.070
876.329, 1705.684
877.597, 1668.281
878.866, 2010.859
880.134, 1713.982
881.402, 1916.527
882.670, 1529.055
883.937, 1531.564
885.204, 1674.053
886.472, 1086.527
887.739, 1278.980
889.005, 1111.414
890.272, 683.908
891.538, 1036.383
892.804, 628.840
894.070, 461.273
895.336, 883.686
896.601, 13.883
897.867, 388.496
899.132, 400.855
900.397, 313.193
901.662, 165.510
902.926, 12.199
904.190, 1.971
905.455, 56.754
906.718, 5.662
907.982, 33.607
909.246, 41.617
910.509, 69.613
911.772, 97.695
913.035, 95.852
914.298, 65.893
915.560, 37.604
916.823, 89.322
918.085, 121.010
919.347, 289.148
920.608, 62.320
921.870, 66.602
923.131, 145.250
924.392, 55.404
925.653, 143.748
926.914, 53.258
928.175, 107.727
929.435, 321.523
930.695, 189.215
931.955, 140.072
933.215, 380.514
934.474, 81.078
935.734, 58.387
936.993, 242.064
938.252, 37.508
939.511, 52.850
940.769, 183.176
942.027, 3.479
943.286, 353.729
944.544, 263.959
945.801, 144.164
947.059, 384.344
948.316, 364.502
949.573, 134.639
950.830, 364.748
952.087, 494.834
953.344, 554.939
954.600, 688.883
955.856, 766.164
957.112, 910.879
958.368, 900.523
959.623, 1160.598
960.879, 1179.988
962.134, 1030.043
963.389, 1929.383
964.644, 1559.412
965.898, 1879.416
967.153, 2049.398
968.407, 1699.270
969.661, 1909.236
970.915, 1338.494
972.168, 1548.072
973.422, 1595.428
974.675, 1294.977
975.928, 1424.303
977.181, 1173.779
978.433, 1003.547
979.686, 1162.785
980.938, 1072.502
982.190, 1222.197
983.442, 1111.869
984.693, 991.516
985.945, 1251.139
987.196, 1040.738
988.447, 1160.316
989.698, 1469.871
990.949, 969.408
992.199, 1588.924
993.449, 1468.416
994.699, 1377.918
995.949, 1807.396
997.199, 1446.857
998.448, 1746.307
999.697, 1755.723
1000.947, 1645.123
1002.195, 1724.502
1003.444, 1453.871
1004.693, 1403.219
1005.941, 1512.551
1007.189, 921.871
1008.437, 1871.176
1009.684, 1000.461
1010.932, 979.730
1012.179, 1008.979
1013.426, 748.209
1014.673, 907.422
1015.920, 596.615
1017.166, 545.787
1018.413, 974.943
1019.659, 514.082
1020.905, 423.201
1022.151, 822.301
1023.396, 281.381
1024.641, 890.441
1025.887, 549.484
1027.132, 378.510
1028.376, 827.516
1029.621, 176.502
1030.865, 795.467
1032.109, 455.324
1033.353, 584.297
1034.597, 693.207
1035.841, 522.621
1037.084, 561.502
1038.327, 920.367
1039.570, 568.424
1040.813, 847.262
1042.056, 706.354
1043.298, 925.164
1044.540, 1123.963
1045.782, 1172.371
1047.024, 1217.744
1048.266, 1066.615
1049.507, 1206.152
1050.748, 1201.314
1051.990, 1399.703
1053.230, 1637.420
1054.471, 1915.125
1055.711, 2298.090
1056.952, 2613.646
1058.192, 3097.412
1059.432, 3311.701
1060.671, 3603.234
1061.911, 3539.111
1063.150, 3709.049
1064.389, 3376.703
1065.628, 3423.719
1066.867, 3511.455
1068.105, 3139.607
1069.344, 2999.334
1070.582, 3356.949
1071.820, 2688.705
1073.058, 3155.184
1074.295, 3182.760
1075.532, 2859.309
1076.770, 3321.533
1078.007, 3059.326
1079.243, 3385.527
1080.480, 3473.664
1081.716, 3440.420
1082.953, 3369.074
1084.189, 3536.771
1085.424, 3408.668
1086.660, 3657.049
1087.895, 2800.273
1089.131, 2887.877
1090.366, 3116.027
1091.601, 1901.846
1092.835, 2500.549
1094.070, 2028.836
1095.304, 1676.623
1096.538, 1865.125
1097.772, 1153.508
1099.005, 1471.141
1100.239, 1249.520
1101.472, 907.896
1102.705, 1316.271
1103.938, 884.354
1105.171, 892.338
1106.404, 980.326
1107.636, 848.154
1108.868, 1225.926
1110.100, 863.680
1111.332, 401.412
1112.563, 1109.131
1113.795, 656.814
1115.026, 894.475
1116.257, 1102.105
1117.488, 229.711
1118.718, 1107.283
1119.949, 954.820
1121.179, 702.324
1122.409, 1429.807
1123.639, 577.258
1124.868, 1044.674
1126.098, 1302.062
1127.327, 659.432
1128.556, 1246.793
1129.785, 984.145
1131.014, 791.490
1132.242, 1658.836
1133.470, 1006.182
1134.699, 1223.535
1135.927, 1711.035
1137.154, 1218.426
1138.382, 1556.918
1139.609, 1514.389
1140.836, 982.105
1142.063, 1800.342
1143.290, 1347.873
1144.517, 1465.428
1145.743, 1935.902
1146.969, 1150.098
1148.195, 1768.613
1149.421, 1427.113
1150.647, 1395.596
1151.872, 2164.064
1153.097, 1442.520
1154.322, 1760.955
1155.547, 1589.379
1156.772, 1287.789
1157.996, 1576.182
1159.221, 1344.422
1160.445, 1192.783
1161.669, 1681.133
1162.892, 948.838
1164.116, 1267.146
1165.339, 1415.438
1166.562, 773.715
1167.785, 1521.787
1169.008, 899.840
1170.231, 867.824
1171.453, 1185.781
1172.675, 513.713
1173.897, 751.646
1175.119, 459.648
1176.341, 297.727
1177.562, 465.697
1178.783, 23.770
1180.004, 231.846
1181.225, 459.867
1182.446, 118.094
1183.666, 396.465
1184.887, 334.982
1186.107, 296.348
1187.327, 772.590
1188.546, 181.678
1189.766, 300.826
1190.985, 470.066
1192.204, 140.627
1193.423, 338.734
1194.642, 228.113
1195.861, 67.520
1197.079, 686.957
1198.297, 186.414
1199.515, 115.898
1200.733, 445.424
1201.951, 124.986
1203.168, 374.590
1204.385, 334.242
1205.602, 316.109
1206.819, 553.646
1208.036, 76.539
1209.253, 223.340
1210.469, 453.281
1211.685, 126.709
1212.901, 523.375
1214.117, 213.533
1215.332, 6.232
1216.548, 574.064
1217.763, 214.428
1218.978, 394.863
1220.193, 445.359
1221.407, 315.951
1222.622, 446.607
1223.836, 487.336
1225.050, 108.141
1226.264, 769.027
1227.477, 490.002
1228.691, 561.080
1229.904, 922.254
1231.117, 523.543
1232.330, 504.955
1233.543, 816.500
1234.755, 448.184
1235.968, 737.670
1237.180, 649.494
1238.392, 430.174
1239.604, 1269.592
1240.815, 399.916
1242.027, 1191.059
1243.238, 1003.881
1244.449, 631.752
1245.660, 1261.346
1246.871, 1199.965
1248.081, 1098.582
1249.291, 1307.832
1250.501, 1144.645
1251.711, 1221.547
1252.921, 1803.812
1254.131, 940.434
1255.340, 1764.711
1256.549, 1209.820
1257.758, 1604.504
1258.967, 1965.094
1260.175, 808.609
1261.384, 1771.484
1262.592, 1663.609
1263.800, 1134.875
1265.008, 1515.246
1266.216, 905.773
1267.423, 526.520
1268.630, 1217.715
1269.838, 297.984
1271.044, 499.223
1272.251, 1043.047
1273.458, 169.074
1274.664, 575.516
1275.870, 222.227
1277.076, 209.457
1278.282, 1057.426
1279.488, 196.625
1280.693, 157.383
1281.898, 470.246
1283.103, 4.797
1284.308, 442.316
1285.513, 192.348
1286.717, 102.668
1287.922, 533.871
1289.126, 503.723
1290.330, 2.328
1291.534, 0.000
##END=



