##NAMES=Columbite-(Fe)
##RRUFFID=R060001
##IDEAL CHEMISTRY=Fe^2+^Nb^5+^_2_O_6_
##LOCALITY=Gypsy mine, Minas Gerais, Brazil
##OWNER=RRUFF
##SOURCE=Eric Van Valkenburg
##DESCRIPTION=Steel gray fragment with internal red hints
##STATUS=The identification of this mineral has been confirmed by X-ray diffraction and chemical analysis
##URL=rruff.info/R060001
##MEASURED CHEMISTRY=(Fe^2+^_0.52_Mn^2+^_0.48_)_Σ=1_(Nb_1.61_Ta_0.39_)_Σ=2_O_6_
##PIN_ID=L00607
##ORIENTATION=Laser parallel to b* (0 1 0). Fiducial mark perpendicular to laser is parallel to c [0 0 1]
122.8270, 0.0000000E+00
124.0610, 38.61841
125.2950, 6.823486
126.5290, 178.2407
127.7630, 417.1113
128.9970, 587.7947
130.2300, 869.2520
131.4640, 1100.196
132.6970, 1331.456
133.9300, 1413.649
135.1630, 1640.093
136.3950, 1496.315
137.6280, 1598.294
138.8600, 1544.743
140.0920, 1351.245
141.3240, 1029.257
142.5560, 877.7307
143.7880, 732.8535
145.0190, 567.1980
146.2510, 479.9346
147.4820, 373.2273
148.7130, 240.5444
149.9440, 215.5134
151.1750, 200.3303
152.4050, 136.3125
153.6360, 126.4487
154.8660, 61.74146
156.0960, 9.187256
157.3260, 30.22290
158.5560, 32.50537
159.7850, 47.66675
161.0150, 39.70337
162.2440, 38.38794
163.4730, 28.39160
164.7020, 73.95264
165.9310, 56.40894
167.1590, 40.96313
168.3880, 42.60303
169.6160, 62.53540
170.8440, 136.0688
172.0720, 123.8723
173.3000, 135.7146
174.5280, 161.5923
175.7550, 120.5020
176.9820, 102.4402
178.2100, 197.4050
179.4370, 227.3931
180.6630, 212.4031
181.8900, 187.4529
183.1170, 205.5652
184.3430, 265.7363
185.5690, 332.1221
186.7950, 385.5730
188.0210, 450.0767
189.2470, 495.6687
190.4720, 539.2769
191.6970, 633.8640
192.9230, 746.4297
194.1480, 856.0615
195.3730, 993.3369
196.5970, 1136.385
197.8220, 1281.250
199.0460, 1443.249
200.2700, 1582.335
201.4940, 1674.582
202.7180, 1635.881
203.9420, 1575.271
205.1660, 1498.685
206.3890, 1417.088
207.6120, 1405.455
208.8350, 1444.786
210.0580, 1403.082
211.2810, 1364.343
212.5040, 1286.561
213.7260, 1224.689
214.9480, 1178.671
216.1700, 1104.531
217.3920, 997.3130
218.6140, 969.0635
219.8360, 903.7803
221.0570, 890.4785
222.2790, 829.1611
223.5000, 822.8289
224.7210, 874.4844
225.9410, 881.1294
227.1620, 884.7642
228.3820, 964.3887
229.6030, 1062.003
230.8230, 1127.607
232.0430, 1229.201
233.2630, 1436.785
234.4820, 1503.358
235.7020, 1588.922
236.9210, 1896.474
238.1400, 2163.035
239.3590, 2462.266
240.5780, 2588.278
241.7970, 2781.868
243.0150, 2994.892
244.2340, 3044.699
245.4520, 3054.278
246.6700, 2951.030
247.8880, 2795.690
249.1060, 2769.621
250.3230, 2564.098
251.5400, 2408.174
252.7580, 2127.562
253.9750, 2083.513
255.1920, 1998.334
256.4080, 1927.940
257.6250, 1908.024
258.8410, 1909.413
260.0580, 1912.417
261.2740, 1961.246
262.4900, 2033.283
263.7050, 2023.408
264.9210, 2210.206
266.1360, 2236.022
267.3520, 2250.598
268.5670, 2335.559
269.7820, 2383.675
270.9960, 2372.229
272.2110, 2248.265
273.4250, 2080.165
274.6400, 1956.391
275.8540, 1785.221
277.0680, 1720.045
278.2810, 1559.871
279.4950, 1470.023
280.7090, 1343.210
281.9220, 1257.229
283.1350, 1342.862
284.3480, 1343.512
285.5610, 1290.676
286.7730, 1328.436
287.9860, 1233.988
289.1980, 1198.358
290.4100, 1056.603
291.6220, 1078.813
292.8340, 951.9946
294.0460, 909.1755
295.2570, 823.3594
296.4690, 767.5393
297.6800, 703.7041
298.8910, 584.6189
300.1020, 594.5088
301.3120, 541.9126
302.5230, 639.3064
303.7330, 557.3889
304.9440, 661.4102
306.1540, 662.5513
307.3630, 665.2661
308.5730, 831.5681
309.7830, 916.1309
310.9920, 1043.859
312.2010, 1179.454
313.4100, 1412.901
314.6190, 1558.390
315.8280, 1739.097
317.0370, 1816.473
318.2450, 1875.306
319.4530, 1867.453
320.6610, 1793.713
321.8690, 1693.812
323.0770, 1458.850
324.2850, 1338.135
325.4920, 1195.418
326.6990, 1030.698
327.9060, 890.9712
329.1130, 765.2388
330.3200, 693.4993
331.5270, 641.7549
332.7330, 593.0029
333.9390, 510.2434
335.1450, 433.4802
336.3510, 400.7078
337.5570, 329.9314
338.7630, 244.1465
339.9680, 221.3525
341.1740, 197.5491
342.3790, 194.7356
343.5840, 167.2932
344.7890, 145.0771
345.9930, 129.2307
347.1980, 132.3721
348.4020, 121.5010
349.6060, 124.6169
350.8100, 157.7200
352.0140, 110.8101
353.2180, 87.88721
354.4210, 44.95093
355.6250, 148.9998
356.8280, 48.03638
358.0310, 24.05859
359.2340, 89.06519
360.4360, 9.060059
361.6390, 90.03833
362.8410, 89.00610
364.0430, 61.96289
365.2450, 23.90820
366.4470, 14.59351
367.6490, 21.24365
368.8510, 26.35034
370.0520, 14.51855
371.2530, 3.627197
372.4540, 38.20801
373.6550, 16.03101
374.8560, 86.83984
376.0560, 63.63818
377.2570, 64.42627
378.4570, 2.203613
379.6570, 17.96387
380.8570, 11.71045
382.0570, 12.55835
383.2560, 69.15283
384.4560, 13.14990
385.6550, 101.5247
386.8540, 85.18481
388.0530, 34.82837
389.2520, 138.4583
390.4510, 141.0693
391.6490, 91.63843
392.8470, 74.18335
394.0450, 116.2900
395.2430, 97.65283
396.4410, 211.7324
397.6390, 115.2158
398.8360, 148.6787
400.0340, 137.1213
401.2310, 70.55371
402.4280, 54.97803
403.6250, 16.39404
404.8210, 6.201416
406.0180, 50.18677
407.2140, 17.56689
408.4100, 3.935303
409.6060, 28.72266
410.8020, 12.40698
411.9980, 14.87085
413.1930, 22.87646
414.3890, 36.33447
415.5840, 51.47388
416.7790, 18.33984
417.9740, 7.753906
419.1680, 14.82104
420.3630, 38.13452
421.5570, 56.13916
422.7510, 32.20190
423.9450, 16.69092
425.1390, 17.56396
426.3330, 46.58179
427.5270, 16.77759
428.7200, 57.99268
429.9130, 9.248779
431.1060, 44.48169
432.2990, 45.20337
433.4920, 85.91699
434.6840, 93.46655
435.8770, 81.32104
437.0690, 102.0117
438.2610, 117.6953
439.4530, 117.3718
440.6450, 97.04102
441.8360, 139.7034
443.0280, 130.3596
444.2190, 140.0647
445.4100, 197.5613
446.6010, 153.2087
447.7920, 180.1213
448.9820, 182.7905
450.1730, 176.0999
451.3630, 202.5894
452.5530, 183.9141
453.7430, 245.9336
454.9330, 270.1531
456.1230, 303.9438
457.3120, 269.3511
458.5010, 367.4900
459.6910, 274.8413
460.8800, 331.6973
462.0680, 374.0964
463.2570, 459.3357
464.4460, 467.2517
465.6340, 509.8572
466.8220, 548.2930
468.0100, 547.9460
469.1980, 540.0103
470.3860, 547.6245
471.5730, 628.2314
472.7600, 562.8306
473.9480, 705.9778
475.1350, 696.6445
476.3210, 661.3218
477.5080, 750.9387
478.6950, 795.5022
479.8810, 778.1782
481.0670, 799.7273
482.2530, 909.2700
483.4390, 808.8057
484.6250, 871.3347
485.8100, 792.8572
486.9960, 906.3738
488.1810, 852.8835
489.3660, 862.3877
490.5510, 858.8857
491.7360, 833.3779
492.9200, 860.8643
494.1050, 849.3457
495.2890, 771.8062
496.4730, 808.1682
497.6570, 827.1807
498.8400, 807.6411
500.0240, 864.6919
501.2070, 852.3350
502.3910, 826.6946
503.5740, 857.9333
504.7570, 897.2959
505.9400, 910.6528
507.1220, 928.8574
508.3050, 961.4966
509.4870, 1020.898
510.6690, 1087.354
511.8510, 1138.486
513.0330, 1190.884
514.2140, 1187.438
515.3960, 1415.366
516.5770, 1404.813
517.7580, 1591.168
518.9390, 1683.413
520.1200, 1856.678
521.3010, 2004.592
522.4810, 2137.108
523.6610, 2283.436
524.8420, 2441.424
526.0220, 2709.724
527.2010, 2720.677
528.3810, 2845.071
529.5610, 2835.449
530.7400, 2859.390
531.9190, 2726.783
533.0980, 2809.176
534.2770, 2692.569
535.4560, 2495.925
536.6340, 2336.321
537.8120, 2289.717
538.9910, 2046.114
540.1690, 1928.513
541.3460, 1704.914
542.5240, 1677.317
543.7020, 1572.703
544.8790, 1339.030
546.0560, 1313.646
547.2330, 1188.134
548.4100, 1104.452
549.5870, 972.1387
550.7630, 853.2856
551.9400, 785.1345
553.1160, 767.5518
554.2920, 660.2034
555.4680, 631.7234
556.6440, 600.9473
557.8190, 529.7847
558.9950, 544.5542
560.1700, 466.0078
561.3450, 457.7617
562.5200, 497.4268
563.6950, 440.9827
564.8690, 426.3853
566.0440, 342.9692
567.2180, 333.9287
568.3920, 275.1794
569.5660, 185.3271
570.7400, 281.8577
571.9130, 200.5327
573.0870, 214.0825
574.2600, 145.6423
575.4330, 170.2122
576.6060, 135.7925
577.7790, 71.38354
578.9520, 111.9851
580.1240, 74.59741
581.2960, 41.22095
582.4690, 30.85596
583.6410, 25.50220
584.8120, 90.16016
585.9840, 19.17017
587.1560, 49.50293
588.3270, 27.81201
589.4980, 7.873291
590.6690, 36.42920
591.8400, 20.73413
593.0110, 56.03589
594.1810, 52.34766
595.3510, 11.66724
596.5220, 68.97998
597.6920, 40.30713
598.8610, 56.63696
600.0310, 39.97607
601.2010, 3.317139
602.3700, 83.64697
603.5390, 14.99609
604.7080, 54.33740
605.8770, 76.68530
607.0460, 37.04834
608.2140, 27.41064
609.3830, 12.76782
610.5510, 37.88477
611.7190, 24.55200
612.8870, 25.23462
614.0550, 17.06689
615.2220, 2.018311
616.3900, 2.910156
617.5570, 30.90112
618.7240, 59.84058
619.8910, 33.40137
621.0580, 75.36230
622.2240, 17.14185
623.3910, 107.9387
624.5570, 45.75220
625.7230, 45.58252
626.8890, 71.43018
628.0550, 17.29492
629.2200, 104.1775
630.3860, 129.0774
631.5510, 116.3311
632.7160, 245.9307
633.8810, 122.8843
635.0460, 111.8562
636.2100, 133.8464
637.3750, 156.8557
638.5390, 186.8857
639.7030, 145.9346
640.8670, 165.0044
642.0310, 133.0967
643.1950, 150.2090
644.3580, 95.34546
645.5210, 142.5022
646.6850, 34.67871
647.8480, 116.8760
649.0100, 71.09692
650.1730, 77.34229
651.3350, 49.62109
652.4980, 41.03857
653.6600, 18.27319
654.8220, 30.64111
655.9840, 31.03125
657.1450, 28.44702
658.3070, 21.88403
659.4680, 1.342529
660.6300, 28.69482
661.7910, 36.33105
662.9510, 66.86475
664.1120, 50.42505
665.2730, 40.01807
666.4330, 40.63281
667.5930, 128.2808
668.7530, 143.9504
669.9130, 170.6426
671.0730, 46.35889
672.2320, 53.09717
673.3920, 88.85791
674.5510, 115.6411
675.7100, 115.4470
676.8690, 76.27588
678.0280, 76.12720
679.1860, 44.00171
680.3450, 125.8987
681.5030, 104.8279
682.6610, 174.7830
683.8190, 152.7617
684.9770, 215.7744
686.1340, 181.8240
687.2920, 184.9116
688.4490, 154.0229
689.6060, 185.1650
690.7630, 194.3364
691.9200, 182.5676
693.0760, 249.8357
694.2330, 274.1404
695.3890, 165.4824
696.5450, 323.8591
697.7010, 215.2925
698.8570, 305.7710
700.0130, 332.3015
701.1680, 268.8701
702.3230, 256.4900
703.4780, 323.1589
704.6330, 398.8818
705.7880, 256.6411
706.9430, 348.4272
708.0970, 376.2612
709.2520, 318.1304
710.4060, 334.0249
711.5600, 421.9651
712.7140, 436.9299
713.8670, 453.9324
715.0210, 530.9756
716.1740, 425.0515
717.3270, 541.1567
718.4800, 482.2878
719.6330, 541.4556
720.7860, 538.6597
721.9380, 602.9038
723.0910, 475.1736
724.2430, 566.4761
725.3950, 515.9004
726.5470, 647.2734
727.6980, 743.4197
728.8500, 624.8491
730.0010, 639.6873
731.1530, 673.8308
732.3040, 641.3452
733.4550, 731.5081
734.6050, 700.5625
735.7560, 718.0657
736.9060, 811.9744
738.0560, 706.1729
739.2060, 769.1807
740.3560, 781.7056
741.5060, 818.7095
742.6560, 820.8926
743.8050, 896.4204
744.9540, 838.9233
746.1030, 826.3301
747.2520, 883.1843
748.4010, 957.6548
749.5500, 862.5989
750.6980, 894.5693
751.8460, 908.1206
752.9950, 912.8435
754.1420, 923.0098
755.2900, 995.9897
756.4380, 965.0503
757.5850, 1019.187
758.7330, 1018.232
759.8800, 1094.425
761.0270, 1150.646
762.1730, 1143.895
763.3200, 1138.173
764.4670, 1166.479
765.6130, 1172.627
766.7590, 1196.166
767.9050, 1205.549
769.0510, 1221.958
770.1960, 1220.393
771.3420, 1209.854
772.4870, 1253.342
773.6320, 1338.854
774.7770, 1395.392
775.9220, 1305.956
777.0670, 1401.543
778.2110, 1371.158
779.3560, 1422.797
780.5000, 1321.461
781.6440, 1469.151
782.7880, 1402.865
783.9320, 1408.604
785.0750, 1448.368
786.2180, 1410.009
787.3620, 1434.968
788.5050, 1427.805
789.6480, 1437.666
790.7900, 1455.139
791.9330, 1462.460
793.0750, 1488.393
794.2170, 1498.350
795.3590, 1516.330
796.5010, 1559.334
797.6430, 1523.787
798.7850, 1535.402
799.9260, 1495.476
801.0670, 1486.572
802.2080, 1543.691
803.3490, 1602.833
804.4900, 1565.998
805.6310, 1595.184
806.7710, 1560.394
807.9110, 1586.625
809.0510, 1614.878
810.1910, 1583.153
811.3310, 1611.450
812.4710, 1610.769
813.6100, 1610.109
814.7490, 1696.471
815.8880, 1720.854
817.0270, 1704.258
818.1660, 1717.529
819.3050, 1746.425
820.4430, 1826.973
821.5820, 1814.732
822.7200, 1905.221
823.8580, 1953.966
824.9950, 1914.514
826.1330, 1955.570
827.2710, 1966.157
828.4080, 2075.631
829.5450, 2138.685
830.6820, 2133.301
831.8190, 2153.961
832.9560, 2275.670
834.0920, 2223.117
835.2280, 2303.735
836.3650, 2492.793
837.5010, 2522.888
838.6360, 2502.784
839.7720, 2522.225
840.9080, 2761.166
842.0430, 2702.907
843.1780, 2858.732
844.3130, 2933.452
845.4480, 3020.305
846.5830, 3292.294
847.7170, 3331.874
848.8520, 3618.770
849.9860, 3682.708
851.1200, 3883.145
852.2540, 4147.879
853.3870, 4406.795
854.5210, 4681.975
855.6540, 5009.582
856.7880, 5418.253
857.9210, 5914.676
859.0540, 6483.825
860.1860, 7005.617
861.3190, 7496.928
862.4510, 8248.488
863.5840, 9057.026
864.7160, 9995.991
865.8480, 11087.06
866.9790, 12266.97
868.1110, 13509.38
869.2420, 15007.16
870.3740, 16564.32
871.5050, 18206.48
872.6360, 19347.67
873.7660, 20488.92
874.8970, 21171.24
876.0280, 21226.15
877.1580, 20662.08
878.2880, 19605.35
879.4180, 17948.26
880.5480, 15957.03
881.6770, 14142.49
882.8070, 12119.48
883.9360, 10057.81
885.0650, 8651.152
886.1940, 7116.582
887.3230, 6072.499
888.4520, 5076.883
889.5800, 4293.391
890.7090, 3642.853
891.8370, 3212.616
892.9650, 2899.647
894.0930, 2523.552
895.2200, 2181.394
896.3480, 1902.972
897.4750, 1809.974
898.6020, 1595.211
899.7290, 1449.646
900.8560, 1254.086
901.9830, 1208.529
903.1090, 1120.076
904.2360, 913.5999
905.3620, 917.1421
906.4880, 817.6284
907.6140, 704.1260
908.7400, 662.5842
909.8650, 595.0444
910.9900, 516.1208
912.1160, 447.9685
913.2410, 397.4324
914.3660, 378.9939
915.4900, 366.4597
916.6150, 376.9258
917.7390, 309.4148
918.8640, 340.8811
919.9880, 229.3479
921.1120, 228.8142
922.2350, 207.2803
923.3590, 157.7458
924.4820, 226.2109
925.6060, 183.6750
926.7290, 120.1663
927.8520, 190.6609
928.9740, 176.1553
930.0970, 69.63159
931.2190, 95.08838
932.3420, 72.54370
933.4640, 108.9976
934.5860, 132.4485
935.7080, 54.89722
936.8290, 60.34375
937.9510, 59.78857
939.0720, 30.23022
940.1930, 73.66968
941.3140, 73.10767
942.4350, 52.57153
943.5560, 27.97192
944.6760, 28.39868
945.7960, 27.82202
946.9170, 53.81226
948.0370, 72.65601
949.1560, 61.06616
950.2760, 13.47192
951.3960, 8.872070
952.5150, 32.69653
953.6340, 9.322998
954.7530, 3.039551
955.8720, 37.60376
956.9910, 32.27417
958.1090, 18.94043
959.2280, 10.34717
960.3460, 5.367188
961.4640, 43.90601
962.5820, 74.82715
963.6990, 2.609375
964.8170, 27.37207
965.9340, 16.85376
967.0510, 26.96851
968.1690, 37.82129
969.2850, 23.70605
970.4020, 77.61621
971.5190, 29.58057
972.6350, 25.57422
973.7510, 1.553711
974.8670, 40.59058
975.9830, 20.66382
977.0990, 62.23706
978.2150, 2.847412
979.3300, 51.02734
980.4450, 15.89331
981.5600, 30.22363
982.6750, 69.60376
983.7900, 34.46826
984.9050, 41.69214
986.0190, 13.88135
987.1340, 0.1721190
988.2480, 18.51782
989.3620, 25.80444
990.4750, 26.15869
991.5890, 37.54663
992.7020, 26.02686
993.8160, 10.35010
994.9290, 21.20093
996.0420, 53.19604
997.1550, 15.27563
998.2670, 5.731201
999.3800, 11.83252
1000.492, 43.57446
1001.604, 12.86792
1002.716, 13.49731
1003.828, 78.94092
1004.940, 48.04077
1006.051, 67.58130
1007.163, 45.00513
1008.274, 42.31226
1009.385, 16.60010
1010.496, 16.24756
1011.606, 56.32739
1012.717, 19.56494
1013.827, 25.79932
1014.937, 44.00195
1016.047, 20.23901
1017.157, 6.068115
1018.267, 12.07080
1019.377, 54.39795
1020.486, 26.50098
1021.595, 65.64014
1022.704, 52.48022
1023.813, 58.47363
1024.922, 37.51489
1026.030, 26.53931
1027.139, 32.57886
1028.247, 36.69214
1029.355, 54.82642
1030.463, 30.78027
1031.571, 22.72168
1032.678, 106.7573
1033.786, 94.66260
1034.893, 85.80762
1036.000, 65.00586
1037.107, 68.88477
1038.214, 67.79346
1039.321, 78.11060
1040.427, 76.71997
1041.533, 109.7258
1042.639, 114.7612
1043.745, 121.8003
1044.851, 117.5574
1045.957, 98.29980
1047.062, 73.03613
1048.168, 92.75635
1049.273, 114.4700
1050.378, 89.16260
1051.482, 120.8379
1052.587, 116.5264
1053.692, 119.2319
1054.796, 133.0393
1055.900, 122.9138
1057.004, 137.1350
1058.108, 114.7202
1059.212, 94.35645
1060.315, 93.91064
1061.418, 94.42480
1062.522, 99.17432
1063.625, 118.5903
1064.728, 118.0808
1065.830, 132.6116
1066.933, 130.0706
1068.035, 140.5886
1069.137, 119.2092
1070.239, 159.8601
1071.341, 143.2556
1072.443, 111.9131
1073.545, 168.6450
1074.646, 150.9924
1075.747, 127.3535
1076.848, 125.7898
1077.949, 164.3101
1079.050, 153.5996
1080.150, 154.9783
1081.251, 158.2358
1082.351, 117.4771
1083.451, 200.7021
1084.551, 106.9109
1085.651, 189.4688
1086.750, 122.2578
1087.850, 130.5398
1088.949, 153.4128
1090.048, 104.5598
1091.147, 110.4551
1092.246, 114.6265
1093.345, 184.2173
1094.443, 183.3508
1095.541, 172.6235
1096.639, 100.2329
1097.737, 95.36499
1098.835, 105.4253
1099.933, 170.4446
1101.030, 116.6711
1102.128, 152.8064
1103.225, 113.4277
1104.322, 134.0127
1105.419, 82.79810
1106.515, 154.0996
1107.612, 98.93896
1108.708, 106.9553
1109.804, 82.90747
1110.900, 119.9407
1111.996, 123.7908
1113.092, 81.49268
1114.187, 84.60327
1115.283, 58.40210
1116.378, 115.2390
1117.473, 62.53613
1118.568, 131.5476
1119.662, 79.32593
1120.757, 140.9460
1121.851, 104.4141
1122.946, 79.58179
1124.040, 77.23755
1125.134, 56.60986
1126.227, 65.95801
1127.321, 50.26880
1128.414, 77.40845
1129.508, 102.5693
1130.601, 93.31006
1131.693, 80.93774
1132.786, 29.54272
1133.879, 78.03394
1134.971, 37.97046
1136.064, 118.6863
1137.156, 39.27661
1138.248, 61.92505
1139.339, 59.44873
1140.431, 77.12109
1141.522, 31.06079
1142.614, 40.88330
1143.705, 68.38452
1144.796, 56.34741
1145.887, 98.39746
1146.977, 47.91162
1148.068, 1.283203
1149.158, 72.29126
1150.248, 16.76904
1151.338, 79.21680
1152.428, 43.07935
1153.518, 5.530518
1154.607, 66.72974
1155.696, 101.0894
1156.785, 56.16187
1157.874, 46.96606
1158.963, 24.81470
1160.052, 19.91211
1161.141, 93.14233
1162.229, 67.52490
1163.317, 27.02173
1164.405, 81.31250
1165.493, 9.593994
1166.581, 4.176514
1167.668, 50.33374
1168.756, 39.50708
1169.843, 78.65503
1170.930, 107.8516
1172.017, 114.0293
1173.103, 74.37500
1174.190, 60.69995
1175.276, 88.89136
1176.363, 135.0737
1177.449, 72.43628
1178.535, 69.50366
1179.620, 52.65820
1180.706, 53.91699
1181.791, 83.12012
1182.877, 47.35474
1183.962, 39.47388
1185.047, 106.5837
1186.131, 165.2102
1187.216, 40.30273
1188.300, 86.38599
1189.385, 37.48218
1190.469, 59.52002
1191.553, 77.54419
1192.637, 25.55884
1193.720, 86.58154
1194.804, 80.61279
1195.887, 38.63574
1196.970, 58.65015
1198.053, 33.65625
1199.136, 11.67480
1200.219, 5.854492
1201.301, 53.64087
1202.383, 1.611328
1203.465, 2.428711
1204.547, 61.52051
1205.629, 44.29004
1206.711, 22.22339
1207.792, 7.724365
1208.874, 75.63989
1209.955, 24.62012
1211.036, 73.51978
1212.117, 63.42480
1213.198, 104.3101
1214.278, 108.1882
1215.359, 6.023438
1216.439, 14.05493
1217.519, 18.92090
1218.599, 102.7791
1219.678, 78.64038
1220.758, 56.47607
1221.837, 16.62500
1222.917, 89.31079
1223.996, 30.15479
1225.075, 25.95898
1226.153, 81.80957
1227.232, 26.62451
1228.310, 33.42749
1229.389, 32.29248
1230.467, 45.70337
1231.545, 26.98608
1232.622, 91.83740
1233.700, 74.75439
1234.777, 55.62769
1235.855, 30.47241
1236.932, 21.34570
1238.009, 27.22632
1239.086, 22.38623
1240.162, 28.69409
1241.239, 40.12158
1242.315, 44.03809
1243.391, 61.96924
1244.467, 73.92163
1245.543, 24.66943
1246.619, 34.54077
1247.694, 31.56274
1248.769, 48.44604
1249.844, 18.41138
1250.919, 5.710449
1251.994, 8.343018
1253.069, 5.942627
1254.144, 16.36865
1255.218, 42.19458
1256.292, 32.23145
1257.366, 80.03589
1258.440, 90.93774
1259.514, 83.16577
1260.587, 92.25195
1261.661, 61.86157
1262.734, 61.59473
1263.807, 46.52393
1264.880, 10.38818
1265.952, 36.32690
1267.025, 21.50098
1268.097, 37.19214
1269.170, 0.2761230
1270.242, 28.14673
1271.314, 93.88867
1272.385, 75.67456
1273.457, 23.53662
1274.528, 36.38184
1275.600, 4.354492
1276.671, 61.19653
1277.742, 18.52734
1278.812, 38.38135
1279.883, 22.02490
1280.954, 46.87402
1282.024, 74.66699
1283.094, 68.80347
1284.164, 30.64697
1285.234, 26.48682
1286.303, 26.32397
1287.373, 69.12476
1288.442, 3.832764
1289.511, 29.49878
1290.580, 25.67358
1291.649, 51.13892
1292.718, 64.83545
1293.786, 55.64429
1294.855, 2.802490
1295.923, 45.67749
1296.991, 71.45825
1298.059, 56.19116
1299.126, 63.98291
1300.194, 107.7712
1301.261, 11.57837
1302.328, 14.35864
1303.395, 100.1348
1304.462, 52.90967
1305.529, 34.32129
1306.596, 57.42578
1307.662, 70.17041
1308.728, 16.90283
1309.794, 22.63892
1310.860, 18.37354
1311.926, 59.07568
1312.991, 47.74097
1314.057, 7.538086
1315.122, 67.17578
1316.187, 102.8308
1317.252, 38.54004
1318.317, 60.18042
1319.381, 51.88477
1320.446, 87.58716
1321.510, 88.47778
1322.574, 85.63379
1323.638, 105.5676
1324.702, 64.20117
1325.766, 68.88623
1326.829, 38.49365
1327.892, 76.98096
1328.956, 115.4197
1330.019, 102.0952
1331.081, 66.49097
1332.144, 71.79370
1333.206, 12.53735
1334.269, 80.09521
1335.331, 8.365234
1336.393, 84.07202
1337.455, 25.72266
1338.516, 76.26562
1339.578, 39.91187
1340.639, 151.5566
1341.701, 59.19775
1342.762, 76.95068
1343.822, 5.370605
1344.883, 78.85522
1345.944, 54.35962
1347.004, 58.98315
1348.064, 43.59131
1349.124, 34.19678
1350.184, 20.77637
1351.244, 47.50586
1352.304, 14.92334
1353.363, 48.58105
1354.422, 44.16772
1355.481, 121.6575
1356.540, 35.17480
1357.599, 50.68628
1358.657, 55.25122
1359.716, 50.73730
1360.774, 30.29810
1361.832, 65.85620
1362.890, 39.41260
1363.948, 64.90771
1365.006, 43.36328
1366.063, 37.84180
1367.120, 1.701416
1368.178, 76.77856
1369.234, 30.30469
1370.291, 18.84351
1371.348, 16.62036
1372.404, 99.90869
1373.461, 97.35547
1374.517, 0.1411130
1375.573, 79.39038
1376.629, 21.98462
1377.684, 87.47339
1378.740, 56.63989
1379.795, 53.00708
1380.850, 37.87158
1381.905, 84.50610
1382.960, 3.990234
1384.015, 95.42993
1385.070, 40.92114
1386.124, 0.5900880
1387.178, 40.89526
1388.232, 50.37817
1389.286, 48.85864
1390.340, 34.34741
1391.393, 26.41919
1392.447, 30.15479
1393.500, 4.408203
1394.553, 12.03711
1395.606, 18.47754
1396.659, 88.61011
1397.711, 41.98608
1398.764, 68.43604
1399.816, 138.8848
1400.868, 66.23877
1401.920, 13.64600
1402.972, 31.89941
1404.023, 40.34326
1405.075, 67.67578
1406.126, 73.71045
1407.177, 100.4795
1408.228, 78.92163
1409.279, 73.36035
1410.330, 46.64722
1411.380, 48.33154
1412.431, 103.5269
1413.481, 61.88940
1414.531, 64.58887
1415.580, 101.8413
1416.630, 55.21826
1417.680, 67.06470
1418.729, 67.50464
1419.778, 53.94580
1420.827, 54.85278
1421.876, 85.98389
1422.925, 60.43066
1423.973, 66.87744
1425.022, 81.32593
1426.070, 53.74097
1427.118, 36.15381
1428.166, 71.41846
1429.214, 102.6907
1430.261, 41.08374
1431.309, 65.44434
1432.356, 73.60669
1433.403, 57.06396
1434.450, 127.3955
1435.497, 71.07471
1436.543, 114.2986
1437.590, 63.56445
1438.636, 91.66919
1439.682, 54.51196
1440.728, 91.52832
1441.774, 81.04541
1442.819, 106.5813
1443.865, 101.1143
1444.910, 135.6445
1445.955, 120.1721
1447.000, 144.6753
1448.045, 168.2007
1449.090, 84.72729
1450.134, 97.34863
1451.178, 50.23071
1452.223, 109.6594
1453.267, 114.1506
1454.310, 47.65234
1455.354, 89.96973
1456.398, 121.4678
1457.441, 160.9209
1458.484, 144.8596
1459.527, 122.6667
1460.570, 92.15308
1461.613, 99.60376
1462.655, 63.08691
1463.698, 60.50830
1464.740, 92.97461
1465.782, 149.4321
1466.824, 80.56714
1467.866, 12.85376
1468.907, 141.9009
1469.948, 146.0674
1470.990, 77.40356
1472.031, 81.84839
1473.072, 50.99463
1474.112, 73.18237
1475.153, 24.58838
1476.194, 5.670410
1477.234, 27.06982
1478.274, 117.3345
1479.314, 45.10596
1480.354, 106.4875
1481.393, 34.83691
1482.433, 87.18359
1483.472, 63.35034
1484.511, 119.6257
1485.550, 41.96460
1486.589, 74.30078
1487.628, 61.62744
1488.666, 70.94360
1489.704, 67.25488
1490.743, 50.56299
1491.781, 79.89014
1492.819, 47.20972
1493.856, 58.52588
1494.894, 114.8367
1495.931, 111.1025
1496.968, 103.4070
1498.005, 74.70435
1499.042, 31.03760
1500.079, 20.78467
1501.115, 17.53882
1502.152, 17.02319
1503.188, 27.36230
1504.224, 107.6938
1505.260, 100.0171
1506.296, 66.33228
1507.331, 127.6470
1508.367, 67.97559
1509.402, 75.29712
1510.437, 131.6135
1511.472, 56.92334
1512.507, 75.25000
1513.541, 125.5688
1514.576, 33.88037
1515.610, 88.18799
1516.644, 85.21216
1517.678, 72.54541
1518.712, 36.91235
1519.746, 100.1772
1520.779, 114.0977
1521.813, 83.50635
1522.846, 59.00244
1523.879, 106.5061
1524.912, 114.0208
1525.944, 52.54297
1526.977, 111.0740
1528.009, 101.6150
1529.041, 87.16675
1530.073, 29.73145
1531.105, 61.31030
1532.137, 92.60010
1533.168, 51.58765
1534.200, 10.96143
1535.231, 17.64038
1536.262, 34.26074
1537.293, 51.90015
1538.324, 0.5617680
1539.354, 57.19849
1540.385, 50.91699
1541.415, 32.67188
1542.445, 64.47485
1543.475, 65.32153
1544.505, 1.803223
1545.534, 82.10327
1546.564, 63.04370
1547.593, 76.70044
1548.622, 123.7383
1549.651, 100.4775
1550.680, 155.6733
1551.708, 207.4072
1552.737, 199.9263
1553.765, 194.7986
1554.793, 289.8616
1555.821, 86.20947
1556.849, 19.35522
1557.877, 87.60693
1558.904, 0.6362300
1559.932, 66.01611
1560.959, 24.28906
1561.986, 24.42944
1563.013, 0.0000000E+00
##END=



