##NAMES=Cordierite
##RRUFFID=R040084
##IDEAL CHEMISTRY=Mg_2_Al_3_(AlSi_5_)O_18_
##LOCALITY=Norway
##OWNER=RRUFF
##SOURCE=University of Arizona Mineral Museum
##DESCRIPTION=Purple coarsely crystalline massive
##STATUS=The identification of this mineral has been confirmed by X-ray diffraction and chemical analysis
##URL=rruff.info/R040084
##MEASURED CHEMISTRY=(Mg_1.88_Fe^2+^_0.11_Ca_0.01_)_Σ=2_(Al_3.95_Fe^3+^_0.05_)_Σ=4_(Si_4.96_Al_0.04_)_Σ=5_O_18_·0.90H_2_O·Na_0.04_ ; H_2_O estimated by difference and verified by Raman spectroscopy
##PIN_ID=L00443
##ORIENTATION=Laser parallel to a* (1 0 0). Fiducial mark perpendicular to laser is parallel to -b [0 -1 0]
90.650, 0.000
92.046, 12.033
93.442, 2.626
94.838, 76.332
96.233, 25.159
97.628, 19.703
99.023, 54.657
100.418, 101.549
101.812, 116.095
103.206, 374.941
104.600, 549.071
105.994, 721.693
107.387, 1154.178
108.781, 1645.016
110.174, 3720.787
111.566, 3421.758
112.959, 3486.103
114.351, 3702.671
115.744, 2587.380
117.136, 2333.807
118.527, 2301.789
119.919, 2211.186
121.310, 2521.869
122.701, 2893.726
124.092, 3456.664
125.482, 3670.594
126.873, 4105.428
128.263, 4361.102
129.653, 4157.566
131.042, 3864.812
132.432, 3112.846
133.821, 2321.630
135.210, 1971.108
136.599, 1631.218
137.987, 1571.904
139.376, 1423.128
140.764, 1424.846
142.152, 1197.019
143.539, 1069.613
144.927, 1172.599
146.314, 1165.947
147.701, 1259.636
149.088, 1313.639
150.474, 1417.939
151.861, 1732.519
153.247, 2217.358
154.633, 2372.443
156.018, 2817.762
157.404, 3003.438
158.789, 2809.176
160.174, 2495.106
161.559, 2081.223
162.943, 1527.510
164.327, 1143.960
165.711, 880.651
167.095, 687.619
168.479, 674.980
169.862, 562.870
171.246, 581.283
172.628, 480.369
174.011, 409.999
175.394, 379.595
176.776, 399.377
178.158, 286.263
179.540, 369.130
180.922, 408.944
182.303, 300.750
183.684, 318.543
185.065, 518.418
186.446, 558.374
187.826, 568.348
189.207, 688.318
190.587, 628.291
191.967, 898.268
193.346, 898.247
194.726, 898.230
196.105, 1008.223
197.484, 718.225
198.862, 1018.238
200.241, 938.264
201.619, 978.303
202.997, 1178.354
204.375, 1148.421
205.753, 1348.502
207.130, 1318.596
208.507, 1278.703
209.884, 1158.825
211.261, 848.961
212.638, 679.111
214.014, 559.272
215.390, 529.446
216.766, 309.631
218.141, 179.825
219.517, 140.028
220.892, 70.239
222.267, 18.458
223.642, 7.316
225.016, 70.912
226.391, 51.147
227.765, 61.387
229.139, 21.628
230.512, 61.873
231.886, 152.120
233.259, 162.368
234.632, 482.615
236.005, 722.862
237.377, 983.109
238.749, 1207.109
240.122, 1273.183
241.493, 1558.599
242.865, 1238.999
244.237, 1313.369
245.608, 1061.012
246.979, 1043.607
248.350, 1155.186
249.720, 1235.222
251.090, 1790.722
252.461, 2448.445
253.830, 3535.830
255.200, 5185.426
256.570, 7176.979
257.939, 9332.479
259.308, 11054.086
260.677, 11692.142
262.045, 10495.220
263.414, 8140.521
264.782, 5767.564
266.150, 4108.510
267.517, 2895.881
268.885, 2273.500
270.252, 1632.871
271.619, 1271.854
272.986, 1130.821
274.353, 939.208
275.719, 939.823
277.085, 773.840
278.451, 793.010
279.817, 917.027
281.182, 908.271
282.548, 967.993
283.913, 1107.482
285.278, 1166.880
286.642, 1426.351
288.007, 1755.814
289.371, 2235.892
290.735, 2895.490
292.099, 3295.146
293.462, 3884.859
294.826, 4314.626
296.189, 4514.439
297.552, 4414.297
298.914, 4284.195
300.277, 4264.131
301.639, 4584.102
303.001, 4964.102
304.363, 5194.133
305.724, 5594.189
307.086, 5384.271
308.447, 5004.374
309.808, 4234.497
311.168, 3774.639
312.529, 2104.796
313.889, 1314.969
315.249, 915.155
316.609, 695.355
317.969, 515.564
319.328, 525.782
320.687, 706.011
322.046, 926.243
323.405, 1456.483
324.764, 1906.729
326.122, 2436.979
327.480, 2317.231
328.838, 2057.486
330.196, 1487.743
331.553, 1097.999
332.910, 888.252
334.267, 578.502
335.624, 428.743
336.981, 448.975
338.337, 349.193
339.693, 319.400
341.049, 199.594
342.405, 249.771
343.760, 209.938
345.116, 360.088
346.471, 260.226
347.826, 290.350
349.180, 440.458
350.535, 440.553
351.889, 490.633
353.243, 560.698
354.597, 690.748
355.950, 710.784
357.304, 660.805
358.657, 780.811
360.010, 690.802
361.362, 720.777
362.715, 680.738
364.067, 580.683
365.419, 440.614
366.771, 470.529
368.123, 340.429
369.474, 310.312
370.825, 230.181
372.176, 230.034
373.527, 159.869
374.877, 179.690
376.228, 219.493
377.578, 199.282
378.928, 169.054
380.277, 138.808
381.627, 38.545
382.976, 41.733
384.325, 17.955
385.674, 27.625
387.023, 77.219
388.371, 23.253
389.719, 6.468
391.067, 63.941
392.415, 54.390
393.762, 4.876
395.110, 15.391
396.457, 22.784
397.804, 46.511
399.150, 57.124
400.497, 87.779
401.843, 78.503
403.189, 49.276
404.535, 30.098
405.881, 71.001
407.226, 51.973
408.571, 133.021
409.916, 154.189
411.261, 65.481
412.605, 56.865
413.950, 158.361
415.294, 210.006
416.638, 41.813
417.981, 93.747
419.325, 24.261
420.668, 67.736
422.011, 159.788
423.354, 71.945
424.697, 104.166
426.039, 63.534
427.381, 18.773
428.723, 88.877
430.065, 126.522
431.406, 24.161
432.748, 41.774
434.089, 49.370
435.430, 166.946
436.770, 14.512
438.111, 37.955
439.451, 69.516
440.791, 33.030
442.131, 14.364
443.471, 61.723
444.810, 79.058
446.149, 92.036
447.488, 93.676
448.827, 110.958
450.166, 68.223
451.504, 125.466
452.842, 252.692
454.180, 169.900
455.518, 237.091
456.855, 354.263
458.193, 361.417
459.530, 228.553
460.867, 335.670
462.203, 222.783
463.540, 409.878
464.876, 376.953
466.212, 624.010
467.548, 671.047
468.883, 838.062
470.219, 805.060
471.554, 922.036
472.889, 838.993
474.224, 935.930
475.558, 952.847
476.892, 1009.747
478.227, 1046.631
479.561, 893.494
480.894, 1030.335
482.228, 977.156
483.561, 953.968
484.894, 1360.758
486.227, 1317.526
487.559, 1564.279
488.892, 1751.009
490.224, 1577.719
491.556, 1694.408
492.888, 1481.076
494.220, 1027.742
495.551, 924.405
496.882, 761.047
498.213, 607.668
499.544, 526.129
500.874, 370.891
502.205, 377.471
503.535, 224.050
504.865, 200.637
506.194, 197.202
507.524, 147.219
508.853, 200.328
510.182, 156.889
511.511, 153.445
512.840, 190.010
514.168, 172.580
515.496, 203.117
516.824, 199.666
518.152, 246.213
519.480, 282.758
520.807, 499.311
522.134, 530.081
523.461, 412.400
524.788, 668.935
526.114, 635.472
527.441, 591.988
528.767, 728.530
530.093, 945.050
531.418, 811.567
532.744, 1038.073
534.069, 1054.559
535.394, 1391.023
536.719, 1627.487
538.044, 1903.932
539.368, 2190.355
540.693, 2676.765
542.017, 3133.154
543.340, 3976.312
544.664, 4852.492
545.987, 6048.814
547.311, 8125.125
548.634, 10411.264
549.956, 13586.703
551.279, 16738.002
552.601, 20769.760
553.923, 23704.334
555.245, 24818.197
556.567, 23471.543
557.889, 21233.402
559.210, 17974.557
560.531, 14813.699
561.852, 12243.319
563.173, 10494.677
564.493, 9007.074
565.813, 8276.892
567.133, 7997.811
568.453, 8093.553
569.773, 8257.878
571.092, 9107.691
572.412, 10227.966
573.731, 11671.798
575.049, 13262.315
576.368, 14473.325
577.686, 15611.017
579.005, 15235.696
580.323, 14334.902
581.640, 12558.276
582.958, 10817.112
584.275, 8513.876
585.593, 7229.504
586.909, 5581.532
588.226, 4567.404
589.543, 3773.269
590.859, 2977.591
592.175, 2702.494
593.491, 2267.585
594.807, 1983.415
596.122, 1697.160
597.438, 1477.635
598.753, 1383.078
600.068, 1273.782
601.382, 1057.361
602.697, 1102.557
604.011, 918.071
605.325, 1023.755
606.639, 889.439
607.952, 885.196
609.266, 870.403
610.579, 936.147
611.892, 991.883
613.205, 997.613
614.518, 1133.338
615.830, 1089.056
617.142, 1354.766
618.454, 1560.471
619.766, 1559.649
621.078, 1855.426
622.389, 1841.110
623.700, 1916.790
625.011, 2122.463
626.322, 1848.129
627.632, 1753.789
628.943, 1479.443
630.253, 1225.092
631.563, 1170.871
632.872, 746.507
634.182, 872.951
635.491, 659.057
636.800, 604.675
638.109, 550.287
639.418, 455.895
640.726, 403.679
642.035, 391.044
643.343, 374.966
644.651, 441.055
645.958, 576.633
647.266, 722.216
648.573, 677.782
649.880, 483.344
651.187, 833.297
652.494, 772.895
653.800, 1198.440
655.106, 1164.017
656.412, 1384.439
657.718, 1690.041
659.024, 2015.571
660.329, 2305.574
661.634, 2907.738
662.939, 3573.242
664.244, 4728.822
665.549, 5846.854
666.853, 7732.644
668.157, 9431.829
669.461, 11103.812
670.765, 12592.948
672.069, 12289.863
673.372, 12100.206
674.675, 9989.854
675.978, 8399.392
677.281, 6861.244
678.583, 5330.882
679.886, 4418.308
681.188, 3596.658
682.490, 2717.820
683.792, 2383.204
685.093, 2018.734
686.394, 1814.101
687.696, 1543.336
688.997, 1470.367
690.297, 1285.705
691.598, 1211.034
692.898, 1050.868
694.198, 956.178
695.498, 841.479
696.798, 1067.843
698.097, 863.125
699.397, 1008.398
700.696, 893.678
701.995, 978.950
703.293, 1134.216
704.592, 1049.473
705.890, 1354.721
707.188, 1442.326
708.486, 1747.586
709.784, 1942.858
711.081, 2148.131
712.378, 2153.407
713.675, 2368.688
714.972, 2303.981
716.269, 1869.289
717.565, 1794.620
718.862, 1589.974
720.158, 1335.340
721.453, 1134.074
722.749, 1149.471
724.045, 1164.883
725.340, 1120.333
726.635, 1065.826
727.930, 891.340
729.224, 856.871
730.519, 952.448
731.813, 698.083
733.107, 953.735
734.401, 909.417
735.694, 855.097
736.988, 1020.801
738.281, 1036.551
739.574, 952.326
740.867, 938.134
742.160, 943.937
743.452, 799.750
744.744, 755.557
746.036, 591.355
747.328, 517.156
748.620, 542.954
749.911, 428.750
751.202, 524.537
752.493, 490.328
753.784, 306.137
755.075, 391.941
756.365, 387.762
757.655, 323.587
758.945, 229.409
760.235, 125.226
761.525, 271.037
762.814, 256.843
764.103, 112.641
765.392, 228.437
766.681, 104.225
767.969, 50.008
769.258, 135.783
770.546, 131.553
771.834, 47.316
773.122, 83.074
774.409, 41.175
775.697, 24.538
776.984, 50.242
778.271, 85.942
779.558, 116.785
780.844, 121.972
782.131, 153.002
783.417, 98.677
784.703, 94.346
785.989, 20.009
787.274, 115.664
788.560, 1.312
789.845, 6.946
791.130, 112.566
792.415, 58.182
793.699, 103.791
794.983, 20.605
796.268, 134.972
797.552, 20.543
798.835, 6.107
800.119, 121.659
801.402, 37.205
802.686, 82.746
803.969, 78.281
805.251, 56.188
806.534, 50.703
807.816, 54.740
809.098, 30.178
810.380, 64.390
811.662, 20.995
812.944, 36.372
814.225, 58.255
815.506, 92.927
816.787, 102.338
818.068, 17.597
819.349, 187.149
820.629, 7.991
821.909, 46.878
823.189, 91.786
824.469, 46.755
825.749, 11.763
827.028, 66.789
828.307, 56.113
829.586, 54.856
830.865, 92.132
832.144, 57.348
833.422, 22.604
834.700, 37.886
835.978, 83.198
837.256, 41.435
838.534, 153.937
839.811, 110.604
841.088, 54.858
842.365, 20.358
843.642, 64.124
844.919, 38.603
846.195, 66.907
847.472, 57.540
848.748, 31.986
850.023, 13.558
851.299, 220.884
852.575, 85.324
853.850, 169.763
855.125, 144.200
856.400, 18.637
857.674, 193.071
858.949, 337.506
860.223, 38.060
861.497, 46.350
862.771, 100.760
864.045, 175.168
865.318, 229.576
866.591, 239.635
867.864, 208.391
869.137, 182.798
870.410, 297.205
871.682, 151.610
872.955, 266.016
874.227, 59.580
875.499, 304.795
876.770, 139.167
878.042, 183.539
879.313, 387.910
880.584, 152.281
881.855, 386.651
883.126, 361.021
884.396, 475.391
885.667, 359.756
886.937, 344.123
888.207, 468.488
889.476, 452.854
890.746, 597.215
892.015, 571.578
893.284, 735.939
894.553, 880.297
895.822, 1194.656
897.090, 1219.016
898.359, 1573.373
899.627, 1977.727
900.895, 2152.082
902.163, 1976.436
903.430, 2040.789
904.698, 2345.143
905.965, 1579.498
907.232, 1563.852
908.499, 958.203
909.765, 822.555
911.032, 686.906
912.298, 751.260
913.564, 785.633
914.830, 920.004
916.095, 684.377
917.361, 778.762
918.626, 913.145
919.891, 1047.531
921.156, 1211.916
922.420, 796.305
923.685, 850.691
924.949, 815.080
926.213, 719.471
927.477, 600.379
928.740, 594.688
930.004, 529.082
931.267, 653.479
932.530, 597.879
933.793, 672.279
935.056, 506.684
936.318, 611.090
937.581, 545.498
938.843, 629.771
940.104, 694.186
941.366, 767.785
942.628, 701.723
943.889, 726.152
945.150, 760.586
946.411, 875.020
947.672, 877.277
948.932, 981.721
950.193, 976.066
951.453, 1100.016
952.713, 1164.471
953.973, 1338.922
955.232, 1183.387
956.491, 1367.863
957.751, 1387.955
959.010, 1728.400
960.268, 1912.898
961.527, 2367.363
962.785, 2646.977
964.044, 3441.418
965.302, 3865.928
966.559, 5055.965
967.817, 6273.842
969.075, 7728.379
970.332, 10542.836
971.589, 12894.848
972.846, 14869.098
974.102, 13669.953
975.359, 11888.012
976.615, 9418.918
977.871, 6912.047
979.127, 5371.746
980.383, 4042.891
981.638, 3353.398
982.893, 2551.594
984.149, 2502.023
985.404, 2084.670
986.658, 2066.389
987.913, 1905.334
989.167, 1800.059
990.421, 1885.043
991.675, 1939.795
992.929, 1970.742
994.183, 2114.094
995.436, 2308.928
996.689, 2676.998
997.942, 2847.357
999.195, 3262.244
1000.448, 3909.777
1001.700, 4823.635
1002.952, 5738.572
1004.204, 6863.527
1005.456, 9138.535
1006.708, 11753.574
1007.959, 15868.672
1009.210, 20603.779
1010.461, 24328.902
1011.712, 26641.703
1012.963, 25076.887
1014.213, 20852.072
1015.464, 17077.279
1016.714, 12642.504
1017.964, 10057.742
1019.214, 7572.992
1020.463, 5838.256
1021.712, 4933.533
1022.962, 3918.824
1024.210, 3364.131
1025.459, 2796.094
1026.708, 2021.426
1027.956, 2056.785
1029.204, 1622.158
1030.452, 1497.549
1031.700, 1382.951
1032.948, 1238.371
1034.195, 1133.805
1035.442, 1049.254
1036.689, 814.715
1037.936, 1060.191
1039.183, 815.682
1040.429, 971.184
1041.676, 946.703
1042.922, 862.242
1044.168, 797.789
1045.413, 703.383
1046.659, 778.986
1047.904, 754.604
1049.149, 720.275
1050.394, 785.963
1051.639, 743.242
1052.884, 767.391
1054.128, 683.133
1055.372, 688.889
1056.616, 574.658
1057.860, 570.438
1059.104, 676.232
1060.347, 602.037
1061.590, 597.854
1062.833, 408.330
1064.076, 484.174
1065.319, 480.029
1066.561, 358.188
1067.803, 554.064
1069.046, 410.240
1070.287, 456.150
1071.529, 472.070
1072.771, 348.182
1074.012, 424.121
1075.253, 380.176
1076.494, 406.139
1077.735, 412.127
1078.975, 108.580
1080.216, 284.648
1081.456, 260.729
1082.696, 87.332
1083.936, 333.463
1085.175, 159.605
1086.415, 285.760
1087.654, 301.920
1088.893, 148.092
1090.132, 264.398
1091.371, 180.592
1092.609, 278.672
1093.847, 364.889
1095.085, 171.111
1096.323, 207.803
1097.561, 254.053
1098.799, 20.781
1100.036, 227.049
1101.273, 243.330
1102.510, 200.314
1103.747, 486.613
1104.983, 324.594
1106.220, 722.250
1107.456, 628.588
1108.692, 575.207
1109.928, 771.580
1111.163, 697.963
1112.399, 794.961
1113.634, 591.566
1114.869, 387.996
1116.104, 374.730
1117.339, 351.221
1118.573, 307.719
1119.808, 214.666
1121.042, 181.230
1122.276, 337.926
1123.509, 544.525
1124.743, 321.160
1125.976, 47.816
1127.210, 194.482
1128.443, 48.824
1129.675, 278.686
1130.908, 25.420
1132.141, 115.676
1133.373, 133.336
1134.605, 40.141
1135.837, 104.580
1137.068, 261.873
1138.300, 30.680
1139.531, 217.246
1140.762, 5.850
1141.993, 18.355
1143.224, 319.287
1144.455, 113.264
1145.685, 257.193
1146.915, 124.115
1148.145, 98.275
1149.375, 312.072
1150.605, 179.143
1151.834, 226.451
1153.063, 143.516
1154.292, 0.461
1155.521, 242.688
1156.750, 189.939
1157.978, 176.836
1159.207, 190.811
1160.435, 248.066
1161.663, 355.184
1162.891, 403.174
1164.118, 415.469
1165.345, 448.930
1166.573, 416.230
1167.800, 343.102
1169.026, 371.160
1170.253, 278.199
1171.480, 235.645
1172.706, 383.115
1173.932, 430.373
1175.158, 570.285
1176.383, 947.676
1177.609, 795.248
1178.834, 813.238
1180.059, 1050.883
1181.284, 1498.281
1182.509, 1505.701
1183.734, 1673.260
1184.958, 2010.523
1186.182, 1717.850
1187.406, 1575.074
1188.630, 1413.451
1189.854, 1061.336
1191.077, 718.178
1192.301, 772.273
1193.524, 589.369
1194.747, 376.152
1195.969, 263.512
1197.192, 520.674
1198.414, 277.689
1199.636, 318.922
1200.858, 85.572
1202.080, 393.336
1203.302, 150.016
1204.523, 247.262
1205.744, 134.152
1206.966, 90.732
1208.186, 227.912
1209.407, 85.010
1210.628, 211.785
1211.848, 338.779
1213.068, 44.582
1214.288, 162.391
1215.508, 21.381
1216.727, 187.930
1217.947, 254.324
1219.166, 51.178
1220.385, 347.541
1221.604, 74.770
1222.822, 221.096
1224.041, 347.443
1225.259, 12.172
1226.477, 274.311
1227.695, 270.562
1228.913, 15.020
1230.130, 221.229
1231.348, 307.422
1232.565, 184.324
1233.782, 260.477
1234.999, 216.869
1236.215, 113.006
1237.432, 509.127
1238.648, 14.760
1239.864, 281.334
1241.080, 347.422
1242.296, 43.500
1243.511, 309.549
1244.726, 45.590
1245.942, 161.998
1247.156, 268.018
1248.371, 14.051
1249.586, 400.047
1250.800, 3.967
1252.014, 2.123
1253.228, 308.072
1254.442, 114.014
1255.656, 240.205
1256.869, 466.098
1258.083, 41.938
1259.296, 138.312
1260.509, 344.117
1261.722, 119.850
1262.934, 505.547
1264.147, 321.227
1265.359, 87.455
1266.571, 283.066
1267.783, 168.539
1268.994, 435.324
1270.206, 380.721
1271.417, 216.088
1272.628, 301.428
1273.839, 346.748
1275.050, 41.293
1276.260, 396.883
1277.471, 17.895
1278.681, 37.934
1279.891, 263.082
1281.101, 81.801
1282.310, 113.551
1283.520, 78.578
1284.729, 33.160
1285.938, 308.854
1287.147, 126.324
1288.356, 68.602
1289.564, 103.281
1290.773, 15.295
1291.981, 309.588
1293.189, 74.158
1294.397, 13.936
1295.604, 191.859
1296.812, 136.316
1298.019, 119.273
1299.226, 225.061
1300.433, 200.656
1301.640, 153.854
1302.846, 257.916
1304.053, 68.117
1305.259, 156.283
1306.465, 190.148
1307.671, 43.982
1308.876, 17.777
1310.082, 231.533
1311.287, 145.254
1312.492, 258.938
1313.697, 42.586
1314.902, 206.191
1316.106, 109.760
1317.310, 103.285
1318.515, 156.771
1319.719, 0.211
1320.922, 123.602
1322.126, 91.938
1323.329, 50.250
1324.533, 83.498
1325.736, 116.705
1326.939, 111.756
1328.141, 93.000
1329.344, 146.076
1330.546, 129.111
1331.748, 152.104
1332.950, 35.045
1334.152, 57.941
1335.354, 243.355
1336.555, 63.832
1337.757, 178.891
1338.958, 251.578
1340.159, 115.779
1341.359, 156.785
1342.560, 189.305
1343.760, 18.209
1344.960, 304.225
1346.160, 66.625
1347.360, 258.986
1348.560, 121.318
1349.759, 203.613
1350.959, 415.879
1352.158, 128.332
1353.357, 150.537
1354.555, 201.010
1355.754, 150.207
1356.952, 232.248
1358.151, 141.965
1359.349, 13.949
1360.546, 235.617
1361.744, 321.213
1362.941, 163.117
1364.139, 304.816
1365.336, 96.691
1366.533, 288.420
1367.730, 270.236
1368.926, 77.949
1370.123, 36.881
1371.319, 304.531
1372.515, 74.117
1373.711, 306.629
1374.906, 318.045
1376.102, 120.479
1377.297, 560.170
1378.492, 224.699
1379.687, 329.068
1380.882, 771.607
1382.077, 1265.545
1383.271, 1194.193
1384.465, 1329.496
1385.659, 1097.324
1386.853, 968.350
1388.047, 722.268
1389.240, 206.420
1390.434, 739.680
1391.627, 293.430
1392.820, 397.459
1394.013, 690.943
1395.205, 274.748
1396.398, 488.646
1397.590, 522.516
1398.782, 245.416
1399.974, 614.033
1401.166, 568.590
1402.357, 170.914
1403.549, 663.188
1404.740, 302.693
1405.931, 380.916
1407.122, 473.301
1408.313, 151.922
1409.503, 271.430
1410.693, 454.332
1411.883, 46.584
1413.073, 479.326
1414.263, 260.074
1415.453, 269.836
1416.642, 451.656
1417.831, 282.104
1419.020, 182.701
1420.209, 449.996
1421.398, 110.293
1422.587, 439.488
1423.775, 429.732
1424.963, 189.844
1426.151, 590.225
1427.339, 427.842
1428.526, 87.943
1429.714, 378.812
1430.901, 142.477
1432.088, 285.736
1433.275, 514.980
1434.462, 164.850
1435.648, 345.324
1436.835, 594.293
1438.021, 23.805
1439.207, 433.420
1440.393, 459.359
1441.579, 269.166
1442.764, 648.146
1443.949, 158.631
1445.135, 521.797
1446.320, 395.854
1447.504, 75.578
1448.689, 443.770
1449.873, 452.760
1451.058, 272.109
1452.242, 501.285
1453.426, 320.314
1454.609, 418.365
1455.793, 666.982
1456.976, 285.449
1458.159, 413.412
1459.342, 740.807
1460.525, 398.791
1461.708, 595.314
1462.890, 643.295
1464.073, 319.670
1465.255, 697.746
1466.437, 1002.490
1467.619, 590.721
1468.800, 768.816
1469.982, 415.889
1471.163, 491.902
1472.344, 588.770
1473.525, 276.404
1474.706, 431.701
1475.886, 568.527
1477.066, 34.314
1478.247, 883.650
1479.427, 396.854
1480.607, 424.576
1481.786, 711.037
1482.966, 519.592
1484.145, 366.348
1485.324, 525.020
1486.503, 693.643
1487.682, 542.268
1488.860, 580.900
1490.039, 239.592
1491.217, 618.395
1492.395, 557.324
1493.573, 106.471
1494.751, 715.717
1495.928, 475.225
1497.106, 264.994
1498.283, 557.594
1499.460, 407.043
1500.637, 486.859
1501.814, 486.936
1502.990, 42.762
1504.166, 347.736
1505.342, 498.463
1506.518, 166.916
1507.694, 417.840
1508.870, 469.961
1510.045, 273.768
1511.221, 491.027
1512.396, 184.633
1513.571, 254.471
1514.745, 497.148
1515.920, 81.002
1517.094, 1.260
1518.269, 0.000
##END=



