##NAMES=Cordierite
##RRUFFID=R040084
##IDEAL CHEMISTRY=Mg_2_Al_3_(AlSi_5_)O_18_
##LOCALITY=Norway
##OWNER=RRUFF
##SOURCE=University of Arizona Mineral Museum
##DESCRIPTION=Purple coarsely crystalline massive
##STATUS=The identification of this mineral has been confirmed by X-ray diffraction and chemical analysis
##URL=rruff.info/R040084
##MEASURED CHEMISTRY=(Mg_1.88_Fe^2+^_0.11_Ca_0.01_)_Σ=2_(Al_3.95_Fe^3+^_0.05_)_Σ=4_(Si_4.96_Al_0.04_)_Σ=5_O_18_·0.90H_2_O·Na_0.04_ ; H_2_O estimated by difference and verified by Raman spectroscopy
##PIN_ID=L00196
##ORIENTATION=Laser parallel to -c* (0 0 -1). Fiducial mark perpendicular to laser is parallel to a [1 0 0]
100.885, 0.000
102.283, 46.591
103.680, 7.056
105.077, 6.367
106.473, 51.475
107.870, 264.940
109.266, 434.682
110.662, 419.378
112.057, 737.989
113.453, 1009.725
114.848, 1344.012
116.243, 1510.564
117.638, 1929.247
119.032, 2509.677
120.426, 3241.496
121.820, 4314.478
123.214, 4608.442
124.608, 4373.238
126.001, 3568.738
127.394, 2484.889
128.787, 2201.876
130.179, 1699.947
131.571, 1589.039
132.963, 1299.656
134.355, 1120.588
135.747, 1061.432
137.138, 1022.227
138.529, 1033.078
139.920, 964.099
141.311, 1015.300
142.701, 958.653
144.091, 918.063
145.481, 909.563
146.870, 891.113
148.260, 922.699
149.649, 924.311
151.038, 1175.937
152.426, 1228.172
153.815, 1679.793
155.203, 2233.118
156.591, 2522.392
157.979, 3418.019
159.366, 3399.270
160.753, 3531.633
162.140, 2741.854
163.527, 2164.659
164.913, 1501.735
166.300, 1371.949
167.686, 996.670
169.071, 1046.173
170.457, 532.612
171.842, 458.438
173.227, 704.186
174.612, 256.016
175.996, 98.768
177.381, 232.283
178.765, 146.244
180.149, 230.133
181.532, 173.786
182.915, 237.202
184.299, 300.401
185.681, 213.428
187.064, 436.309
188.446, 319.067
189.828, 361.721
191.210, 264.275
192.592, 346.741
193.973, 499.125
195.355, 181.431
196.736, 563.663
198.116, 155.823
199.497, 257.914
200.877, 69.942
202.257, 8.088
203.637, 143.828
205.016, 5.701
206.395, 177.539
207.774, 20.669
209.153, 41.064
210.532, 2.742
211.910, 65.639
213.288, 85.923
214.666, 42.578
216.043, 8.857
217.421, 79.768
218.798, 11.818
220.175, 16.335
221.551, 134.820
222.928, 68.562
224.304, 64.586
225.680, 42.243
227.055, 31.411
228.431, 100.638
229.806, 120.075
231.181, 40.722
232.556, 561.303
233.930, 571.818
235.304, 1232.267
236.678, 1792.649
238.052, 2642.960
239.426, 3863.275
240.799, 4148.917
242.172, 4350.440
243.545, 3408.586
244.917, 2711.844
246.290, 2107.858
247.662, 1549.236
249.034, 1457.192
250.405, 1054.848
251.777, 1156.995
253.148, 1228.106
254.519, 1445.782
255.889, 1771.279
257.260, 2152.744
258.630, 3101.229
260.000, 3858.226
261.370, 4915.174
262.739, 4902.068
264.108, 3978.914
265.477, 2985.710
266.846, 1934.106
268.215, 1482.510
269.583, 910.863
270.951, 909.856
272.319, 779.043
273.686, 718.384
275.054, 737.850
276.421, 607.413
277.788, 937.057
279.154, 736.765
280.521, 1096.523
281.887, 1246.322
283.253, 1426.152
284.619, 2046.002
285.984, 2495.867
287.349, 3375.740
288.714, 4515.617
290.079, 5705.494
291.444, 8115.422
292.808, 10115.287
294.172, 12625.140
295.536, 13664.975
296.899, 14234.788
298.263, 13104.909
299.626, 11134.662
300.989, 9204.854
302.351, 7184.572
303.714, 5844.995
305.076, 4654.992
306.438, 3695.105
307.799, 3126.424
309.161, 2406.557
310.522, 2197.313
311.883, 1697.549
313.244, 1516.973
314.604, 1286.893
315.965, 1306.244
317.325, 1295.928
318.684, 1005.683
320.044, 1324.911
321.403, 1254.639
322.762, 1303.736
324.121, 1553.583
325.480, 1812.558
326.838, 2001.413
328.196, 1690.623
329.554, 1529.277
330.912, 988.690
332.270, 647.282
333.627, 625.846
334.984, 284.822
336.341, 313.500
337.697, 252.390
339.053, 351.379
340.409, 280.310
341.765, 119.220
343.121, 218.065
344.476, 26.857
345.831, 185.022
347.186, 263.459
348.541, 172.087
349.895, 440.107
351.250, 358.574
352.604, 726.509
353.957, 485.319
355.311, 663.169
356.664, 510.977
358.017, 648.742
359.370, 736.468
360.722, 624.284
362.075, 791.927
363.427, 759.529
364.779, 897.092
366.130, 1144.427
367.482, 1071.910
368.833, 1359.355
370.184, 1026.760
371.535, 1303.562
372.885, 890.890
374.235, 458.166
375.585, 352.820
376.935, 50.032
378.285, 75.719
379.634, 42.834
380.983, 33.649
382.332, 93.346
383.680, 150.183
385.029, 70.468
386.377, 113.704
387.725, 59.932
389.073, 35.050
390.420, 219.729
391.767, 61.427
393.114, 182.221
394.461, 105.969
395.808, 129.798
397.154, 163.714
398.500, 22.274
399.846, 241.783
401.191, 75.955
402.537, 140.198
403.882, 134.555
405.227, 39.048
406.571, 43.681
407.916, 121.523
409.260, 6.621
410.604, 201.579
411.948, 286.381
413.291, 121.030
414.635, 535.548
415.978, 399.941
417.321, 924.227
418.663, 908.454
420.006, 1402.643
421.348, 2096.807
422.690, 2710.952
424.031, 4305.079
425.373, 5569.189
426.714, 7693.281
428.055, 9477.355
429.396, 10571.404
430.736, 10955.430
432.077, 8999.436
433.417, 7123.411
434.757, 5247.357
436.096, 3601.279
437.436, 2945.170
438.775, 1889.030
440.114, 1652.861
441.452, 1256.662
442.791, 990.432
444.129, 924.169
445.467, 607.878
446.805, 611.556
448.142, 445.201
449.480, 518.815
450.817, 522.398
452.154, 315.949
453.490, 599.467
454.827, 362.956
456.163, 506.414
457.499, 589.840
458.835, 243.236
460.170, 436.600
461.505, 209.932
462.840, 313.229
464.175, 136.494
465.510, 229.725
466.844, 192.919
468.178, 6.079
469.512, 169.193
470.846, 42.271
472.179, 125.311
473.512, 338.313
474.845, 181.287
476.178, 374.226
477.511, 217.135
478.843, 190.027
480.175, 362.887
481.507, 165.721
482.839, 548.522
484.170, 101.294
485.501, 484.049
486.832, 376.775
488.163, 189.474
489.493, 522.143
490.823, 104.786
492.153, 317.399
493.483, 299.987
494.813, 182.550
496.142, 244.896
497.471, 184.296
498.800, 149.488
500.129, 151.973
501.457, 144.182
502.785, 145.489
504.113, 144.739
505.441, 316.161
506.769, 197.917
508.096, 139.968
509.423, 281.646
510.750, 154.035
512.077, 296.414
513.403, 48.803
514.729, 331.161
516.055, 613.551
517.381, 475.926
518.706, 508.279
520.032, 230.687
521.357, 433.071
522.681, 455.470
524.006, 417.848
525.330, 660.253
526.655, 552.674
527.978, 785.086
529.302, 807.512
530.626, 959.920
531.949, 1122.329
533.272, 1064.732
534.595, 1477.124
535.917, 1449.447
537.239, 1849.146
538.562, 2249.543
539.883, 2299.030
541.205, 2984.406
542.527, 3355.157
543.848, 4133.235
545.169, 5066.568
546.489, 6227.206
547.810, 8171.356
549.130, 10493.438
550.450, 13071.411
551.770, 16741.969
553.090, 20508.805
554.409, 24970.439
555.728, 26610.578
557.047, 27618.613
558.366, 25708.115
559.685, 22101.277
561.003, 19424.850
562.321, 15704.415
563.639, 13844.345
564.956, 12130.281
566.274, 10915.946
567.591, 9657.192
568.908, 8626.070
570.225, 8397.758
571.541, 7979.789
572.857, 8061.050
574.173, 8683.368
575.489, 8825.678
576.805, 10097.979
578.120, 10190.269
579.435, 10392.553
580.750, 10064.826
582.065, 8767.089
583.380, 7809.350
584.694, 6331.600
586.008, 5203.841
587.322, 4346.074
588.635, 3418.298
589.949, 3200.515
591.262, 2532.721
592.575, 2224.918
593.887, 2097.104
595.200, 1629.283
596.512, 1531.477
597.824, 1363.635
599.136, 1555.784
600.447, 1157.923
601.759, 1010.053
603.070, 1062.656
604.381, 924.767
605.692, 896.867
607.002, 738.959
608.312, 741.041
609.622, 863.113
610.932, 635.120
612.242, 877.785
613.551, 709.829
614.860, 631.862
616.169, 784.627
617.478, 786.306
618.786, 1008.674
620.094, 800.402
621.402, 892.393
622.710, 1273.807
624.018, 725.406
625.325, 1167.093
626.632, 927.574
627.939, 988.908
629.246, 950.368
630.552, 641.721
631.859, 843.720
633.165, 635.177
634.471, 497.068
635.776, 622.527
637.082, 283.920
638.387, 576.637
639.692, 428.481
640.996, 420.326
642.301, 515.373
643.605, 387.353
644.909, 579.167
646.213, 421.189
647.516, 493.274
648.820, 615.360
650.123, 1137.350
651.426, 1409.709
652.729, 1184.058
654.031, 835.683
655.333, 1084.483
656.636, 1010.212
657.937, 1406.384
659.239, 1355.800
660.540, 1797.266
661.842, 2129.303
663.142, 2522.052
664.443, 3593.807
665.744, 4285.396
667.044, 5577.064
668.344, 7111.941
669.644, 8171.762
670.944, 9723.057
672.243, 10147.404
673.542, 9241.156
674.841, 8453.511
676.140, 6713.105
677.438, 5465.271
678.737, 4095.619
680.035, 3237.649
681.333, 2681.317
682.630, 2011.313
683.928, 1955.765
685.225, 1485.965
686.522, 1428.553
687.819, 1314.576
689.115, 1189.941
690.412, 1193.654
691.708, 877.512
693.004, 1032.744
694.300, 915.129
695.595, 890.004
696.890, 1013.156
698.185, 835.311
699.480, 981.252
700.775, 1133.578
702.069, 921.777
703.363, 1650.166
704.657, 1442.289
705.951, 1782.918
707.244, 2184.787
708.538, 1981.410
709.831, 2934.602
711.124, 2897.018
712.416, 2973.650
713.709, 3235.482
715.001, 3230.008
716.293, 3052.752
717.585, 2685.307
718.876, 2697.529
720.167, 2969.625
721.459, 2841.986
722.749, 3464.984
724.040, 3346.693
725.331, 3466.674
726.621, 3608.352
727.911, 3090.699
729.201, 2802.746
730.490, 2394.350
731.780, 1896.326
733.069, 1477.877
734.358, 1309.447
735.646, 1230.965
736.935, 1152.434
738.223, 694.926
739.511, 896.344
740.799, 627.730
742.087, 779.598
743.374, 740.932
744.661, 442.559
745.948, 641.896
747.235, 345.088
748.522, 656.312
749.808, 517.506
751.094, 238.674
752.380, 579.811
753.666, 250.922
754.951, 492.004
756.236, 473.057
757.521, 134.084
758.806, 445.076
760.091, 296.041
761.375, 286.977
762.659, 357.885
763.943, 328.762
765.227, 459.611
766.511, 110.434
767.794, 301.219
769.077, 331.975
770.360, 82.705
771.643, 313.396
772.925, 174.061
774.207, 214.691
775.489, 255.295
776.771, 215.867
778.053, 496.410
779.334, 206.930
780.615, 197.416
781.896, 357.879
783.177, 78.314
784.457, 218.719
785.738, 249.096
787.018, 249.439
788.298, 449.758
789.577, 39.953
790.857, 400.266
792.136, 70.459
793.415, 140.615
794.694, 540.736
795.972, 39.172
797.251, 240.855
798.529, 290.850
799.807, 120.814
801.084, 210.742
802.362, 20.639
803.639, 230.498
804.916, 140.326
806.193, 19.883
807.470, 269.850
808.746, 60.447
810.022, 99.176
811.298, 128.762
812.574, 101.686
813.850, 207.768
815.125, 142.812
816.400, 36.484
817.675, 195.738
818.950, 135.035
820.224, 304.064
821.499, 26.865
822.773, 97.857
824.047, 151.049
825.320, 170.080
826.594, 1.352
827.867, 107.324
829.140, 254.037
830.413, 114.420
831.685, 107.162
832.958, 171.148
834.230, 160.574
835.502, 102.436
836.774, 14.400
838.045, 106.426
839.316, 21.443
840.588, 40.730
841.858, 30.729
843.129, 4.861
844.400, 7.658
845.670, 30.084
846.940, 37.428
848.210, 25.102
849.479, 2.697
850.749, 89.668
852.018, 43.010
853.287, 54.240
854.556, 78.549
855.824, 81.428
857.093, 115.602
858.361, 117.408
859.629, 189.471
860.896, 53.680
862.164, 3.090
863.431, 69.812
864.698, 53.502
865.965, 223.105
867.232, 20.318
868.498, 16.199
869.764, 62.678
871.030, 149.117
872.296, 185.521
873.562, 121.893
874.827, 8.227
876.092, 294.518
877.357, 109.223
878.622, 506.936
879.886, 103.061
881.151, 169.150
882.415, 535.205
883.679, 171.234
884.942, 287.227
886.206, 253.191
887.469, 259.127
888.732, 315.801
889.995, 10.908
891.258, 316.746
892.520, 282.553
893.782, 138.332
895.044, 364.082
896.306, 179.801
897.568, 395.490
898.829, 481.150
900.090, 266.783
901.351, 432.389
902.612, 267.967
903.872, 413.490
905.133, 489.014
906.393, 547.650
907.653, 709.980
908.912, 735.428
910.172, 800.361
911.431, 755.756
912.690, 839.441
913.949, 716.465
915.208, 911.783
916.466, 1137.078
917.724, 1091.207
918.982, 1121.992
920.240, 912.199
921.498, 1087.395
922.755, 871.824
924.012, 1126.969
925.269, 731.729
926.526, 856.631
927.782, 761.678
929.039, 696.531
930.295, 601.756
931.551, 866.521
932.806, 421.217
934.062, 1066.178
935.317, 560.324
936.572, 765.072
937.827, 799.879
939.082, 534.670
940.336, 1039.529
941.590, 710.416
942.844, 1095.234
944.098, 1259.180
945.352, 1083.395
946.605, 1718.152
947.859, 1598.848
949.112, 2253.412
950.364, 2618.111
951.617, 2472.127
952.869, 2406.496
954.121, 2150.047
955.373, 1884.490
956.625, 1998.533
957.877, 1640.113
959.128, 1674.660
960.379, 1843.611
961.630, 1807.404
962.881, 2321.297
964.131, 2377.541
965.381, 2941.727
966.631, 3695.314
967.881, 4698.744
969.131, 6622.822
970.380, 8496.797
971.630, 9421.238
972.879, 10431.949
974.128, 8528.176
975.376, 6601.986
976.625, 5453.629
977.873, 3755.840
979.121, 3039.424
980.369, 2466.459
981.616, 1810.043
982.864, 1785.553
984.111, 1189.355
985.358, 931.492
986.605, 1018.041
987.851, 589.346
989.097, 754.875
990.344, 568.363
991.589, 498.021
992.835, 628.342
994.081, 230.289
995.326, 512.127
996.571, 522.801
997.816, 346.127
999.061, 596.959
1000.305, 429.496
1001.550, 353.043
1002.794, 722.838
1004.037, 216.289
1005.281, 813.885
1006.525, 621.316
1007.768, 565.023
1009.011, 800.328
1010.254, 754.441
1011.496, 1043.795
1012.739, 926.664
1013.981, 810.336
1015.223, 1019.893
1016.465, 784.502
1017.706, 1066.189
1018.948, 839.799
1020.189, 773.607
1021.430, 897.783
1022.671, 532.119
1023.911, 326.189
1025.152, 679.633
1026.392, 224.346
1027.632, 640.773
1028.872, 375.494
1030.111, 229.521
1031.350, 423.826
1032.590, 478.615
1033.829, 382.998
1035.067, 697.781
1036.306, 152.598
1037.544, 427.438
1038.782, 362.301
1040.020, 296.111
1041.258, 450.965
1042.495, 515.855
1043.733, 570.234
1044.970, 541.402
1046.207, 299.684
1047.443, 334.570
1048.680, 399.455
1049.916, 184.342
1051.152, 239.225
1052.388, 154.111
1053.624, 538.994
1054.859, 363.873
1056.094, 269.633
1057.329, 484.555
1058.564, 299.471
1059.799, 264.699
1061.033, 479.617
1062.268, 324.992
1063.502, 340.734
1064.735, 535.641
1065.969, 211.076
1067.202, 645.988
1068.436, 40.896
1069.669, 316.049
1070.902, 330.990
1072.134, 335.930
1073.367, 492.393
1074.599, 47.324
1075.831, 342.725
1077.062, 337.908
1078.294, 7.170
1079.525, 78.959
1080.757, 243.875
1081.988, 348.783
1083.218, 244.271
1084.449, 19.238
1085.679, 264.547
1086.909, 361.617
1088.139, 156.605
1089.369, 232.836
1090.599, 607.986
1091.828, 193.674
1093.057, 479.523
1094.286, 554.490
1095.515, 190.410
1096.744, 666.213
1097.972, 501.258
1099.200, 847.213
1100.428, 752.410
1101.656, 1057.346
1102.883, 1581.518
1104.111, 1096.439
1105.338, 2092.867
1106.565, 2298.383
1107.791, 1913.809
1109.018, 2360.299
1110.244, 2285.275
1111.470, 2030.191
1112.696, 1796.783
1113.922, 1221.711
1115.147, 1277.252
1116.373, 952.996
1117.598, 387.949
1118.823, 894.564
1120.047, 490.211
1121.272, 195.203
1122.496, 571.389
1123.720, 156.391
1124.944, 371.436
1126.168, 628.002
1127.391, 26.969
1128.615, 888.861
1129.838, 145.271
1131.061, 411.041
1132.283, 486.846
1133.506, 27.223
1134.728, 479.359
1135.950, 225.445
1137.172, 10.596
1138.394, 378.324
1139.615, 211.578
1140.837, 277.244
1142.058, 607.506
1143.279, 72.881
1144.499, 482.699
1145.720, 231.035
1146.940, 356.377
1148.160, 593.668
1149.380, 291.932
1150.600, 588.230
1151.819, 525.795
1153.038, 322.312
1154.257, 768.178
1155.476, 597.018
1156.695, 333.361
1157.913, 720.855
1159.132, 638.166
1160.350, 614.498
1161.568, 637.715
1162.785, 183.875
1164.003, 818.824
1165.220, 535.652
1166.437, 592.033
1167.654, 1038.613
1168.871, 595.340
1170.087, 840.967
1171.304, 1018.201
1172.520, 624.939
1173.736, 1249.658
1174.951, 1378.695
1176.167, 1195.035
1177.382, 2260.020
1178.597, 2181.535
1179.812, 2446.117
1181.027, 3082.221
1182.241, 2856.943
1183.455, 3311.414
1184.669, 2837.625
1185.883, 2323.104
1187.097, 2607.461
1188.311, 1750.277
1189.524, 1725.197
1190.737, 1729.471
1191.950, 1237.617
1193.162, 1031.768
1194.375, 906.941
1195.587, 742.906
1196.799, 716.928
1198.011, 543.482
1199.223, 528.027
1200.434, 791.918
1201.646, 188.570
1202.857, 682.363
1204.068, 636.113
1205.279, 322.695
1206.489, 656.350
1207.699, 291.238
1208.909, 205.600
1210.119, 629.102
1211.329, 286.172
1212.539, 419.961
1213.748, 513.314
1214.957, 378.213
1216.166, 671.465
1217.375, 594.676
1218.583, 68.646
1219.792, 691.748
1221.000, 325.543
1222.208, 380.936
1223.415, 783.885
1224.623, 158.602
1225.830, 472.303
1227.037, 575.090
1228.244, 344.236
1229.451, 586.924
1230.658, 391.209
1231.864, 22.777
1233.070, 1035.297
1234.276, 187.768
1235.482, 450.178
1236.687, 322.537
1237.893, 284.861
1239.098, 557.105
1240.303, 269.316
1241.508, 301.490
1242.712, 483.627
1243.917, 265.693
1245.121, 447.715
1246.325, 529.703
1247.529, 88.344
1248.732, 723.525
1249.936, 155.361
1251.139, 378.777
1252.342, 400.523
1253.545, 152.232
1254.747, 514.508
1255.950, 816.133
1257.152, 137.717
1258.354, 679.252
1259.556, 400.742
1260.758, 353.271
1261.959, 744.623
1263.160, 155.855
1264.361, 389.383
1265.562, 740.432
1266.763, 271.357
1267.963, 832.760
1269.164, 743.568
1270.364, 194.281
1271.563, 724.781
1272.763, 384.406
1273.963, 244.691
1275.162, 404.795
1276.361, 394.826
1277.560, 375.109
1278.759, 224.234
1279.957, 344.035
1281.155, 684.311
1282.354, 53.510
1283.551, 47.100
1284.749, 452.953
1285.947, 157.879
1287.144, 521.162
1288.341, 150.121
1289.538, 38.693
1290.735, 528.297
1291.931, 106.957
1293.128, 124.539
1294.324, 295.219
1295.520, 73.510
1296.716, 242.111
1297.911, 400.223
1299.107, 291.816
1300.302, 287.100
1301.497, 84.816
1302.692, 107.566
1303.886, 280.648
1305.081, 201.949
1306.275, 315.176
1307.469, 613.082
1308.663, 260.029
1309.856, 246.891
1311.050, 193.533
1312.243, 160.094
1313.436, 406.572
1314.629, 92.969
1315.822, 149.279
1317.014, 885.484
1318.206, 21.611
1319.398, 207.629
1320.590, 523.555
1321.782, 180.617
1322.974, 825.055
1324.165, 230.615
1325.356, 233.924
1326.547, 811.369
1327.738, 176.576
1328.928, 341.693
1330.119, 796.727
1331.309, 48.324
1332.499, 446.502
1333.688, 591.238
1334.878, 25.896
1336.067, 770.461
1337.256, 344.936
1338.445, 159.311
1339.634, 743.598
1340.823, 77.809
1342.011, 451.918
1343.199, 745.939
1344.388, 120.111
1345.575, 842.859
1346.763, 617.006
1347.950, 50.672
1349.138, 843.951
1350.325, 287.469
1351.512, 400.457
1352.698, 833.010
1353.885, 26.332
1355.071, 499.059
1356.257, 732.248
1357.443, 104.619
1358.629, 1028.213
1359.814, 642.568
1361.000, 395.508
1362.185, 1046.875
1363.370, 410.266
1364.554, 92.605
1365.739, 905.129
1366.923, 137.887
1368.107, 379.422
1369.291, 772.152
1370.475, 184.223
1371.659, 717.855
1372.842, 181.338
1374.025, 66.408
1375.208, 884.105
1376.391, 987.523
1377.574, 1648.742
1378.756, 3241.078
1379.939, 2947.896
1381.121, 2743.939
1382.303, 1840.895
1383.484, 747.797
1384.666, 1584.258
1385.847, 602.361
1387.028, 668.283
1388.209, 1244.516
1389.390, 590.102
1390.570, 905.535
1391.751, 1212.025
1392.931, 208.182
1394.111, 1282.570
1395.291, 738.061
1396.470, 454.756
1397.649, 1339.650
1398.829, 693.805
1400.008, 638.629
1401.187, 1162.338
1402.365, 347.467
1403.544, 900.908
1404.722, 1268.074
1405.900, 85.648
1407.078, 1176.844
1408.255, 773.105
1409.433, 433.477
1410.610, 1295.543
1411.787, 518.309
1412.964, 763.670
1414.141, 1162.254
1415.317, 584.457
1416.494, 506.922
1417.670, 855.334
1418.846, 403.994
1420.022, 744.248
1421.197, 958.791
1422.373, 307.137
1423.548, 1207.252
1424.723, 570.205
1425.898, 247.799
1427.072, 996.846
1428.247, 427.234
1429.421, 612.543
1430.595, 1039.133
1431.769, 206.121
1432.942, 916.031
1434.116, 996.268
1435.289, 62.004
1436.462, 1150.158
1437.635, 298.967
1438.808, 612.234
1439.981, 1432.166
1441.153, 101.629
1442.325, 799.559
1443.497, 1133.152
1444.669, 188.516
1445.840, 885.801
1447.012, 1043.645
1448.183, 41.328
1449.354, 1298.949
1450.525, 266.414
1451.696, 373.676
1452.866, 1590.691
1454.036, 487.441
1455.206, 443.930
1456.376, 1410.070
1457.546, 302.289
1458.716, 1107.637
1459.885, 1231.191
1461.054, 305.715
1462.223, 1407.277
1463.392, 1081.336
1464.560, 349.578
1465.729, 1592.332
1466.897, 606.188
1468.065, 710.863
1469.233, 1495.801
1470.400, 499.973
1471.568, 984.863
1472.735, 1318.277
1473.902, 281.652
1475.069, 1017.340
1476.236, 1132.961
1477.402, 275.684
1478.569, 1756.922
1479.735, 701.164
1480.901, 596.938
1482.066, 1298.797
1483.232, 391.887
1484.397, 837.977
1485.562, 1480.574
1486.727, 116.742
1487.892, 1213.672
1489.057, 940.629
1490.221, 407.793
1491.386, 1155.180
1492.550, 602.914
1493.714, 341.227
1494.877, 1429.918
1496.041, 248.969
1497.204, 618.449
1498.367, 1308.461
1499.530, 31.012
1500.693, 750.410
1501.856, 1072.621
1503.018, 125.891
1504.180, 1446.918
1505.342, 572.121
1506.504, 388.492
1507.666, 1136.211
1508.827, 465.465
1509.988, 106.539
1511.149, 1570.469
1512.310, 135.223
1513.471, 689.816
1514.631, 1566.625
1515.792, 221.969
1516.952, 921.895
1518.112, 1054.055
1519.272, 3.973
1520.431, 0.000
##END=



