##NAMES=Cordierite
##RRUFFID=R040084
##IDEAL CHEMISTRY=Mg_2_Al_3_(AlSi_5_)O_18_
##LOCALITY=Norway
##OWNER=RRUFF
##SOURCE=University of Arizona Mineral Museum
##DESCRIPTION=Purple coarsely crystalline massive
##STATUS=The identification of this mineral has been confirmed by X-ray diffraction and chemical analysis
##URL=rruff.info/R040084
##MEASURED CHEMISTRY=(Mg_1.88_Fe^2+^_0.11_Ca_0.01_)_Σ=2_(Al_3.95_Fe^3+^_0.05_)_Σ=4_(Si_4.96_Al_0.04_)_Σ=5_O_18_·0.90H_2_O·Na_0.04_ ; H_2_O estimated by difference and verified by Raman spectroscopy
##PIN_ID=L00497
##ORIENTATION=Laser parallel to b* (0 1 0). Fiducial mark perpendicular to laser is parallel to c [0 0 1]
121.897, 0.000
123.286, 159.224
124.675, 519.011
126.063, 931.037
127.452, 1424.869
128.840, 1665.582
130.228, 1644.104
131.615, 1680.146
133.003, 1182.812
134.390, 811.498
135.777, 453.784
137.164, 240.799
138.550, 188.073
139.937, 43.297
141.323, 108.262
142.709, 7.166
144.094, 36.916
145.480, 8.567
146.865, 107.060
148.250, 173.230
149.635, 184.612
151.019, 421.455
152.403, 526.699
153.788, 902.775
155.171, 1190.714
156.555, 1576.547
157.939, 1784.312
159.322, 1732.040
160.705, 1509.773
162.088, 1221.551
163.470, 843.364
164.853, 531.218
166.235, 362.111
167.617, 120.036
168.998, 22.992
170.380, 0.785
171.761, 50.730
173.142, 21.742
174.523, 17.878
175.904, 86.467
177.284, 36.849
178.664, 57.188
180.044, 26.880
181.424, 122.045
182.803, 77.297
184.183, 59.630
185.562, 148.038
186.940, 72.516
188.319, 116.061
189.698, 112.670
191.076, 147.410
192.454, 207.298
193.831, 227.446
195.209, 212.664
196.586, 229.659
197.963, 113.788
199.340, 186.931
200.717, 138.269
202.093, 61.547
203.470, 165.773
204.846, 114.044
206.221, 201.408
207.597, 173.799
208.972, 126.181
210.347, 127.549
211.722, 154.906
213.097, 18.255
214.472, 78.595
215.846, 155.925
217.220, 50.247
218.594, 4.562
219.967, 47.867
221.341, 126.839
222.714, 31.556
224.087, 118.284
225.460, 5.023
226.832, 140.774
228.204, 27.463
229.577, 69.312
230.948, 52.113
232.320, 104.059
233.692, 84.169
235.063, 166.262
236.434, 562.335
237.805, 782.403
239.175, 810.463
240.545, 888.506
241.916, 1056.529
243.286, 794.533
244.655, 852.519
246.025, 614.484
247.394, 557.431
248.763, 593.478
250.132, 774.384
251.501, 792.270
252.869, 1060.135
254.237, 1658.475
255.605, 2736.355
256.973, 4124.136
258.340, 5934.570
259.708, 7494.138
261.075, 8122.402
262.442, 7697.080
263.808, 6531.809
265.175, 4750.807
266.541, 3419.891
267.907, 2507.702
269.273, 1887.435
270.639, 1284.382
272.004, 1054.894
273.369, 945.999
274.734, 707.459
276.099, 746.359
277.463, 650.216
278.828, 577.054
280.192, 683.584
281.556, 580.046
282.919, 516.652
284.283, 813.709
285.646, 775.791
287.009, 991.938
288.372, 1284.418
289.734, 1677.610
291.097, 2105.141
292.459, 2493.318
293.821, 3020.971
295.183, 3349.402
296.544, 3487.125
297.905, 3574.918
299.266, 3403.016
300.627, 3400.907
301.988, 3528.826
303.348, 3676.766
304.709, 4094.722
306.069, 4452.689
307.428, 4380.619
308.788, 4168.605
310.147, 3306.533
311.507, 2534.523
312.865, 1862.471
314.224, 1330.402
315.583, 908.242
316.941, 613.088
318.299, 423.884
319.657, 411.688
321.015, 569.480
322.372, 827.262
323.729, 1105.032
325.086, 1612.791
326.443, 1870.539
327.800, 1728.275
329.156, 1465.999
330.512, 1163.711
331.868, 891.411
333.224, 729.097
334.579, 616.758
335.935, 344.317
337.290, 361.753
338.645, 228.128
339.999, 315.428
341.354, 182.645
342.708, 186.914
344.062, 174.123
345.416, 201.327
346.769, 228.667
348.123, 335.859
349.476, 223.045
350.829, 280.486
352.182, 339.367
353.534, 476.531
354.887, 493.688
356.239, 560.836
357.591, 558.116
358.942, 575.244
360.294, 722.360
361.645, 559.465
362.996, 436.554
364.347, 503.628
365.698, 370.688
367.048, 277.730
368.398, 384.759
369.748, 291.772
371.098, 248.770
372.448, 245.753
373.797, 82.719
375.146, 139.669
376.495, 116.604
377.844, 123.523
379.192, 150.427
380.540, 127.314
381.889, 123.946
383.236, 80.804
384.584, 70.937
385.932, 85.992
387.279, 86.536
388.626, 72.708
389.973, 91.863
391.319, 1.376
392.666, 91.686
394.012, 45.584
395.358, 12.286
396.704, 48.968
398.049, 45.632
399.394, 52.280
400.740, 61.088
402.084, 35.502
403.429, 57.924
404.774, 28.609
406.118, 35.124
407.462, 101.620
408.806, 8.102
410.150, 53.392
411.493, 61.005
412.836, 2.568
414.179, 103.833
415.522, 49.780
416.865, 23.434
418.207, 97.118
419.549, 30.852
420.891, 5.369
422.233, 1.559
423.575, 72.278
424.916, 76.189
426.257, 10.176
427.598, 104.196
428.939, 31.727
430.279, 62.370
431.619, 63.483
432.959, 99.280
434.299, 95.006
435.639, 120.702
436.978, 117.463
438.318, 109.363
439.657, 87.399
440.996, 102.904
442.334, 48.400
443.673, 83.886
445.011, 10.639
446.349, 15.180
447.687, 50.230
449.024, 64.367
450.361, 69.026
451.699, 56.259
453.036, 31.530
454.372, 86.782
455.709, 32.029
457.045, 147.256
458.381, 122.476
459.717, 67.699
461.053, 192.906
462.388, 278.116
463.724, 283.312
465.059, 388.494
466.394, 273.663
467.728, 428.818
469.063, 573.979
470.397, 454.985
471.731, 404.255
473.065, 379.368
474.398, 384.467
475.732, 479.549
477.065, 544.618
478.398, 529.671
479.731, 454.710
481.063, 409.732
482.396, 394.739
483.728, 279.732
485.060, 424.710
486.391, 389.689
487.723, 344.653
489.054, 449.602
490.385, 364.536
491.716, 429.454
493.047, 394.357
494.377, 269.271
495.708, 254.173
497.038, 219.058
498.368, 156.340
499.697, 108.811
501.027, 123.677
502.356, 108.531
503.685, 193.414
505.014, 128.285
506.342, 83.142
507.671, 217.984
508.999, 122.864
510.327, 57.737
511.655, 7.400
512.982, 157.449
514.310, 152.286
515.637, 137.109
516.964, 81.937
518.291, 116.750
519.617, 171.550
520.944, 266.362
522.270, 211.169
523.596, 175.985
524.921, 390.789
526.247, 355.604
527.572, 380.408
528.897, 535.209
530.222, 599.996
531.547, 614.772
532.871, 739.540
534.196, 734.231
535.520, 1119.002
536.844, 1153.761
538.167, 1498.508
539.491, 1443.243
540.814, 1817.971
542.137, 2122.687
543.460, 2707.214
544.783, 3371.695
546.105, 4116.330
547.427, 5671.003
548.749, 7315.598
550.071, 9640.329
551.393, 12282.649
552.714, 15367.382
554.035, 18001.744
555.356, 19375.053
556.677, 18569.439
557.998, 17533.742
559.318, 14588.141
560.638, 12206.862
561.958, 10240.868
563.278, 8559.755
564.597, 7403.535
565.917, 6617.477
567.236, 6172.103
568.555, 6315.037
569.874, 6109.296
571.192, 6913.646
572.511, 7585.898
573.829, 8760.460
575.147, 10029.723
576.464, 11020.625
577.782, 12056.890
579.099, 11827.307
580.416, 11319.979
581.733, 10092.407
583.050, 8610.192
584.366, 7147.727
585.683, 5989.399
586.999, 4685.166
588.315, 3848.760
589.630, 3067.146
590.946, 2651.310
592.261, 2175.688
593.576, 1900.038
594.891, 1724.478
596.206, 1378.907
597.520, 1293.294
598.834, 1217.583
600.148, 1061.929
601.462, 925.818
602.776, 870.071
604.089, 773.329
605.402, 774.723
606.715, 858.626
608.028, 716.947
609.341, 817.446
610.653, 781.430
611.965, 725.050
613.277, 781.602
614.589, 905.153
615.901, 851.336
617.212, 1109.775
618.523, 1133.863
619.834, 1212.424
621.145, 1496.959
622.456, 1541.429
623.766, 1596.727
625.076, 1671.152
626.386, 1540.344
627.696, 1554.643
629.006, 1248.937
630.315, 1153.224
631.624, 917.506
632.933, 651.781
634.242, 696.412
635.551, 550.677
636.859, 474.937
638.167, 449.191
639.475, 408.751
640.783, 307.890
642.090, 402.128
643.398, 380.005
644.705, 334.232
646.012, 468.455
647.318, 552.794
648.625, 417.006
649.931, 431.214
651.237, 561.404
652.543, 565.613
653.849, 689.968
655.155, 774.215
656.460, 922.194
657.765, 1106.330
659.070, 1340.499
660.375, 1391.494
661.679, 2055.652
662.984, 2439.803
664.288, 3163.806
665.592, 4199.549
666.895, 5395.022
668.199, 7000.020
669.502, 8215.829
670.805, 9249.943
672.108, 9434.053
673.411, 9292.139
674.713, 8056.090
676.016, 6620.178
677.318, 5500.092
678.620, 4425.416
679.921, 3548.150
681.223, 2729.010
682.524, 2248.653
683.825, 1812.861
685.126, 1518.923
686.427, 1302.954
687.727, 1146.978
689.028, 1031.857
690.328, 932.684
691.628, 869.016
692.927, 780.679
694.227, 784.665
695.526, 809.177
696.825, 763.526
698.124, 747.519
699.423, 723.091
700.721, 727.042
702.020, 880.985
703.318, 894.923
704.616, 1028.852
705.913, 1122.775
707.211, 1156.691
708.508, 1490.610
709.805, 1614.535
711.102, 1848.441
712.399, 1793.270
713.695, 1907.170
714.992, 1931.064
716.288, 1464.953
717.584, 1588.860
718.879, 1132.765
720.175, 1206.687
721.470, 1070.604
722.765, 1104.519
724.060, 1098.426
725.355, 772.336
726.649, 896.238
727.944, 900.135
729.238, 684.038
730.532, 657.932
731.825, 431.843
733.119, 425.675
734.412, 529.713
735.705, 373.674
736.998, 597.638
738.291, 541.604
739.584, 435.594
740.876, 519.606
742.168, 493.625
743.460, 497.675
744.752, 321.723
746.043, 445.791
747.334, 279.854
748.626, 273.911
749.916, 187.963
751.207, 402.007
752.498, 216.045
753.788, 240.079
755.078, 258.467
756.368, 123.208
757.658, 312.146
758.947, 13.842
760.237, 150.162
761.526, 184.172
762.815, 128.181
764.104, 27.791
765.392, 106.235
766.680, 50.258
767.969, 25.722
769.257, 128.271
770.544, 17.738
771.832, 53.771
773.119, 150.153
774.406, 55.928
775.693, 17.949
776.980, 31.819
778.267, 4.318
779.553, 39.527
780.839, 66.634
782.125, 177.157
783.411, 240.942
784.697, 124.723
785.982, 428.496
787.267, 122.267
788.552, 6.030
789.837, 109.784
791.122, 103.532
792.406, 117.275
793.690, 131.015
794.974, 14.747
796.258, 188.474
797.542, 47.806
798.825, 95.878
800.108, 149.562
801.391, 33.242
802.674, 86.915
803.957, 61.144
805.239, 85.753
806.522, 57.854
807.804, 21.455
809.085, 45.051
810.367, 51.358
811.649, 62.192
812.930, 175.739
814.211, 100.718
815.492, 62.761
816.772, 86.235
818.053, 159.706
819.333, 176.827
820.613, 13.465
821.893, 10.118
823.173, 46.787
824.452, 66.518
825.732, 89.816
827.011, 56.887
828.290, 106.370
829.568, 59.624
830.847, 87.126
832.125, 13.932
833.403, 80.749
834.681, 32.381
835.959, 84.491
837.236, 8.597
838.514, 28.322
839.791, 74.738
841.068, 47.797
842.345, 9.147
843.621, 106.097
844.898, 96.892
846.174, 69.877
847.450, 92.860
848.726, 4.158
850.001, 1.142
851.277, 31.869
852.552, 25.123
853.827, 157.866
855.102, 80.853
856.376, 113.854
857.651, 186.854
858.925, 129.854
860.199, 82.853
861.473, 115.850
862.746, 28.845
864.020, 291.840
865.293, 15.166
866.566, 177.819
867.839, 230.804
869.112, 163.787
870.384, 216.771
871.656, 176.062
872.928, 242.734
874.200, 95.719
875.472, 228.703
876.744, 171.686
878.015, 174.668
879.286, 307.652
880.557, 80.635
881.828, 103.619
883.098, 146.604
884.369, 269.588
885.639, 102.570
886.909, 245.555
888.178, 88.541
889.448, 241.523
890.717, 324.508
891.987, 377.492
893.256, 320.477
894.524, 293.461
895.793, 556.445
897.061, 419.430
898.330, 552.414
899.598, 805.398
900.865, 908.383
902.133, 821.369
903.401, 1044.352
904.668, 777.359
905.935, 740.363
907.202, 563.371
908.468, 676.379
909.735, 649.389
911.001, 372.396
912.267, 583.824
913.533, 506.836
914.799, 619.852
916.064, 462.865
917.330, 443.420
918.595, 646.439
919.860, 719.379
921.124, 860.064
922.389, 653.086
923.653, 614.275
924.918, 523.203
926.182, 536.230
927.445, 455.029
928.709, 448.641
929.972, 460.725
931.236, 432.787
932.499, 485.709
933.761, 483.861
935.024, 466.912
936.286, 419.965
937.549, 453.021
938.811, 425.602
940.073, 529.148
941.334, 451.859
942.596, 444.934
943.857, 538.012
945.118, 571.514
946.379, 619.287
947.640, 657.062
948.900, 760.154
950.161, 559.607
951.421, 683.783
952.681, 686.891
953.940, 769.881
955.200, 832.996
956.459, 816.113
957.719, 963.248
958.978, 1086.365
960.236, 1239.334
961.495, 1632.406
962.753, 1601.748
964.012, 2264.891
965.270, 2368.043
966.527, 3094.326
967.785, 4197.488
969.043, 4990.660
970.300, 7233.838
971.557, 9205.418
972.814, 10437.266
974.071, 10509.328
975.327, 9139.133
976.583, 7242.340
977.840, 5565.551
979.095, 4134.785
980.351, 3208.012
981.607, 2611.248
982.862, 1908.656
984.117, 2211.291
985.372, 1539.184
986.627, 1612.408
987.882, 1532.781
989.136, 1195.932
990.390, 1357.631
991.644, 1410.967
992.898, 1384.312
994.152, 1718.398
995.405, 1574.943
996.659, 1908.324
997.912, 2081.715
999.165, 2365.123
1000.417, 2768.342
1001.670, 3471.418
1002.922, 4084.859
1004.174, 5046.723
1005.426, 6350.238
1006.678, 8687.254
1007.930, 11510.809
1009.181, 14994.391
1010.432, 18808.225
1011.683, 20481.832
1012.934, 20345.453
1014.185, 17419.145
1015.435, 13972.814
1016.685, 10755.840
1017.935, 8279.541
1019.185, 6483.277
1020.435, 4877.021
1021.684, 3780.773
1022.934, 3194.572
1024.183, 2498.881
1025.432, 2262.695
1026.680, 1836.521
1027.929, 1530.354
1029.177, 1424.207
1030.425, 1198.070
1031.673, 881.941
1032.921, 1095.838
1034.169, 709.742
1035.416, 773.654
1036.663, 677.578
1037.911, 611.504
1039.157, 505.441
1040.404, 579.385
1041.650, 533.334
1042.897, 617.295
1044.143, 531.260
1045.389, 425.234
1046.634, 549.225
1047.880, 523.217
1049.125, 607.242
1050.371, 471.271
1051.615, 595.311
1052.860, 449.357
1054.105, 378.035
1055.349, 532.098
1056.593, 466.199
1057.837, 270.549
1059.081, 654.627
1060.325, 409.180
1061.568, 463.271
1062.812, 487.379
1064.055, 331.803
1065.298, 367.945
1066.540, 320.039
1067.783, 314.588
1069.025, 268.734
1070.267, 292.889
1071.509, 407.234
1072.751, 341.408
1073.993, 355.713
1075.234, 460.156
1076.475, 264.373
1077.716, 358.617
1078.957, 332.908
1080.198, 277.184
1081.438, 211.469
1082.679, 375.896
1083.919, 171.805
1085.159, 316.131
1086.398, 140.467
1087.638, 315.279
1088.877, 169.623
1090.116, 224.936
1091.355, 159.285
1092.594, 158.070
1093.833, 318.271
1095.071, 222.629
1096.309, 147.291
1097.547, 251.912
1098.785, 236.270
1100.023, 48.730
1101.260, 266.090
1102.498, 80.455
1103.735, 254.818
1104.972, 399.246
1106.208, 353.879
1107.445, 568.270
1108.681, 542.707
1109.918, 497.186
1111.154, 761.572
1112.389, 565.971
1113.625, 450.910
1114.860, 395.309
1116.096, 379.736
1117.331, 405.982
1118.566, 260.404
1119.800, 224.883
1121.035, 249.779
1122.269, 334.252
1123.503, 458.730
1124.737, 493.221
1125.971, 77.705
1127.205, 382.725
1128.438, 47.217
1129.671, 142.451
1130.904, 66.939
1132.137, 27.770
1133.370, 33.996
1134.602, 118.520
1135.834, 76.355
1137.066, 289.031
1138.298, 15.773
1139.530, 179.381
1140.762, 44.674
1141.993, 50.334
1143.224, 234.824
1144.455, 31.443
1145.686, 236.557
1146.917, 283.107
1148.147, 201.715
1149.377, 139.275
1150.607, 235.846
1151.837, 60.225
1153.067, 171.756
1154.296, 83.096
1155.526, 165.324
1156.755, 106.244
1157.984, 10.916
1159.213, 106.670
1160.441, 333.217
1161.670, 57.689
1162.898, 349.912
1164.126, 29.023
1165.354, 123.229
1166.581, 203.025
1167.809, 188.172
1169.036, 312.578
1170.263, 446.262
1171.490, 1.062
1172.717, 345.473
1173.943, 230.850
1175.170, 265.324
1176.396, 372.523
1177.622, 448.182
1178.848, 382.201
1180.073, 700.816
1181.299, 625.502
1182.524, 899.762
1183.749, 805.064
1184.974, 1059.355
1186.199, 1163.762
1187.423, 938.371
1188.648, 812.514
1189.872, 677.945
1191.096, 341.910
1192.320, 586.516
1193.543, 392.721
1194.767, 176.668
1195.990, 346.254
1197.213, 270.703
1198.436, 214.629
1199.659, 279.863
1200.881, 65.160
1202.104, 428.723
1203.326, 163.111
1204.548, 107.191
1205.770, 361.055
1206.991, 65.287
1208.213, 189.113
1209.434, 213.785
1210.655, 107.592
1211.876, 271.385
1213.096, 305.779
1214.317, 90.164
1215.537, 293.926
1216.757, 338.846
1217.977, 152.588
1219.197, 196.350
1220.417, 170.184
1221.636, 144.521
1222.855, 278.594
1224.074, 213.150
1225.293, 197.236
1226.512, 305.795
1227.731, 339.447
1228.949, 183.717
1230.167, 1.373
1231.385, 402.145
1232.603, 287.047
1233.820, 110.721
1235.038, 314.250
1236.255, 17.771
1237.472, 381.107
1238.689, 164.371
1239.906, 237.533
1241.122, 410.668
1242.338, 163.768
1243.555, 176.750
1244.771, 339.664
1245.986, 92.555
1247.202, 134.266
1248.417, 267.018
1249.633, 319.719
1250.848, 232.383
1252.063, 184.980
1253.277, 287.961
1254.492, 240.494
1255.706, 233.148
1256.920, 295.611
1258.134, 298.021
1259.348, 131.074
1260.562, 503.365
1261.775, 325.605
1262.988, 7.885
1264.201, 490.348
1265.414, 252.471
1266.627, 165.416
1267.839, 277.455
1269.052, 270.045
1270.264, 352.312
1271.476, 304.221
1272.688, 146.484
1273.899, 388.277
1275.111, 99.961
1276.322, 313.066
1277.533, 94.605
1278.744, 74.543
1279.955, 447.990
1281.165, 139.566
1282.376, 78.209
1283.586, 119.730
1284.796, 130.541
1286.006, 108.297
1287.215, 180.166
1288.425, 135.859
1289.634, 11.369
1290.843, 152.305
1292.052, 13.193
1293.261, 134.270
1294.469, 65.307
1295.678, 5.492
1296.886, 366.096
1298.094, 73.363
1299.302, 107.066
1300.509, 26.047
1301.717, 65.770
1302.924, 204.426
1304.131, 24.096
1305.338, 3.910
1306.545, 243.779
1307.752, 86.676
1308.958, 37.178
1310.164, 362.492
1311.370, 48.205
1312.576, 81.391
1313.782, 240.496
1314.987, 110.479
1316.193, 138.539
1317.398, 226.775
1318.603, 45.434
1319.807, 206.340
1321.012, 7.545
1322.216, 25.605
1323.421, 318.709
1324.625, 28.232
1325.829, 154.793
1327.032, 257.789
1328.236, 60.754
1329.439, 253.689
1330.642, 226.578
1331.845, 179.387
1333.048, 292.166
1334.251, 49.816
1335.453, 352.135
1336.656, 174.238
1337.858, 16.830
1339.060, 499.027
1340.261, 38.926
1341.463, 213.551
1342.664, 385.785
1343.866, 77.775
1345.067, 110.139
1346.267, 422.387
1347.468, 224.457
1348.669, 294.678
1349.869, 346.199
1351.069, 257.051
1352.269, 518.717
1353.469, 150.711
1354.668, 481.934
1355.868, 463.035
1357.067, 214.340
1358.266, 216.135
1359.465, 527.623
1360.664, 119.260
1361.862, 401.068
1363.061, 362.094
1364.259, 341.240
1365.457, 412.861
1366.655, 143.914
1367.852, 165.561
1369.050, 276.385
1370.247, 13.135
1371.444, 377.236
1372.641, 207.451
1373.838, 106.523
1375.035, 475.777
1376.231, 105.041
1377.427, 331.773
1378.623, 358.559
1379.819, 337.445
1381.015, 434.832
1382.211, 1102.074
1383.406, 1364.068
1384.601, 1601.422
1385.796, 1187.512
1386.991, 734.250
1388.185, 793.957
1389.380, 411.717
1390.574, 321.926
1391.768, 558.525
1392.962, 391.090
1394.156, 597.346
1395.350, 345.812
1396.543, 211.629
1397.736, 469.025
1398.929, 276.057
1400.122, 391.385
1401.315, 603.166
1402.507, 128.162
1403.700, 324.604
1404.892, 476.307
1406.084, 282.170
1407.276, 228.506
1408.467, 414.215
1409.659, 98.439
1410.850, 412.990
1412.041, 157.205
1413.232, 219.498
1414.423, 714.283
1415.614, 196.188
1416.804, 436.754
1417.994, 435.541
1419.184, 12.613
1420.374, 521.168
1421.564, 302.922
1422.753, 45.117
1423.943, 218.104
1425.132, 371.080
1426.321, 204.600
1427.510, 428.256
1428.698, 87.943
1429.887, 85.891
1431.075, 497.863
1432.263, 90.662
1433.451, 410.926
1434.639, 604.547
1435.827, 206.123
1437.014, 554.758
1438.201, 234.355
1439.388, 325.113
1440.575, 665.158
1441.762, 458.891
1442.949, 452.229
1444.135, 425.854
1445.321, 346.611
1446.507, 374.771
1447.693, 296.395
1448.879, 186.559
1450.064, 539.596
1451.250, 322.660
1452.435, 95.766
1453.620, 577.676
1454.805, 117.848
1455.989, 423.527
1457.174, 446.988
1458.358, 190.564
1459.542, 382.689
1460.726, 274.104
1461.910, 2.029
1463.093, 0.000
##END=



