##NAMES=Cordierite
##RRUFFID=R040081
##IDEAL CHEMISTRY=Mg_2_Al_3_(AlSi_5_)O_18_
##LOCALITY=Laramie Range, Wyoming, USA
##OWNER=RRUFF
##SOURCE=University of Arizona Mineral Museum
##DESCRIPTION=Blue to purple coarsely crystalline
##STATUS=The identification of this mineral has been confirmed by X-ray diffraction and chemical analysis
##URL=rruff.info/R040081
##MEASURED CHEMISTRY=(Mg_1.80_Fe^2+^_0.20_)_Σ=2_Al_4.00_(Si_4.96_Al_0.04_)_Σ=5_O_18_·0.86H_2_O·Na_0.04_ ; H_2_O estimated by difference and verified by Raman spectroscopy
##PIN_ID=M00015
##ORIENTATION=Laser parallel to c* (0 0 1). Fiducial mark perpendicular to laser is parallel to a [1 0 0]
97.554, 0.000
98.947, 43.165
100.340, 2.812
101.732, 16.195
103.124, 12.407
104.516, 231.104
105.908, 417.294
107.300, 366.530
108.691, 751.637
110.082, 947.757
111.473, 1383.245
112.864, 2233.662
114.254, 3107.609
115.644, 4012.715
117.034, 5425.700
118.424, 6894.361
119.813, 8538.516
121.203, 8288.008
122.592, 6720.694
123.981, 4942.469
125.369, 3571.299
126.758, 2703.369
128.146, 1957.358
129.534, 1624.000
130.922, 1142.245
132.309, 879.051
133.696, 474.379
135.083, 580.232
136.470, 342.650
137.857, 373.615
139.243, 270.077
140.630, 316.978
142.016, 242.264
143.401, 398.899
144.787, 353.854
146.172, 600.100
147.557, 570.616
148.942, 708.383
150.327, 995.805
151.711, 1221.019
153.096, 1818.286
154.480, 2319.424
155.863, 2701.822
157.247, 2776.673
158.630, 2610.589
160.013, 2350.693
161.396, 1986.977
162.779, 1451.430
164.161, 1031.043
165.544, 664.809
166.926, 596.718
168.308, 307.763
169.689, 98.934
171.070, 185.708
172.452, 133.222
173.833, 110.260
175.213, 174.767
176.594, 128.774
177.974, 133.976
179.354, 73.569
180.734, 148.123
182.114, 39.557
183.493, 208.905
184.872, 288.194
186.251, 227.444
187.630, 380.667
189.008, 547.877
190.387, 648.080
191.765, 649.284
193.143, 662.495
194.520, 406.715
195.898, 242.950
197.275, 173.200
198.652, 249.471
200.029, 171.766
201.405, 180.100
202.782, 15.534
204.158, 152.855
205.534, 269.374
206.909, 62.068
208.285, 70.511
209.660, 117.109
211.035, 97.271
212.410, 74.368
213.784, 25.953
215.159, 38.216
216.533, 45.419
217.907, 62.518
219.281, 32.576
220.654, 70.231
222.027, 75.815
223.400, 92.961
224.773, 118.172
226.146, 110.396
227.518, 298.626
228.891, 436.862
230.263, 676.104
231.634, 1110.354
233.006, 1513.606
234.377, 2074.864
235.748, 2735.117
237.119, 3415.362
238.490, 3903.602
239.860, 3537.834
241.231, 3072.068
242.601, 2346.828
243.970, 2067.774
245.340, 1700.986
246.709, 1372.550
248.079, 1576.440
249.448, 1271.050
250.816, 1595.945
252.185, 1841.656
253.553, 2278.295
254.921, 2996.568
256.289, 3712.844
257.657, 4708.123
259.024, 5248.400
260.391, 4817.678
261.758, 3774.954
263.125, 2747.913
264.492, 1936.254
265.858, 1360.837
267.224, 1210.971
268.590, 807.235
269.956, 844.961
271.321, 774.919
272.687, 713.083
274.052, 608.427
275.416, 826.936
276.781, 825.590
278.146, 865.378
279.510, 1042.286
280.874, 1165.305
282.237, 1601.425
283.601, 1862.639
284.964, 2281.938
286.327, 3415.316
287.690, 4398.771
289.053, 5785.292
290.416, 7307.878
291.778, 8372.522
293.140, 9415.221
294.502, 9167.968
295.863, 8606.767
297.225, 7226.604
298.586, 6002.488
299.947, 5065.412
301.308, 3985.875
302.668, 3185.871
304.029, 2818.168
305.389, 2117.227
306.749, 1719.312
308.108, 1613.424
309.468, 1163.561
310.827, 1128.660
312.186, 885.843
313.545, 996.093
314.903, 871.313
316.262, 721.553
317.620, 824.797
318.978, 967.032
320.336, 1012.279
321.693, 1178.528
323.051, 1532.792
324.408, 1563.075
325.765, 1551.448
327.121, 1068.504
328.478, 848.583
329.834, 737.723
331.190, 543.357
332.546, 427.826
333.902, 571.620
335.257, 290.726
336.612, 286.088
337.967, 374.547
339.322, 264.908
340.677, 207.767
342.031, 183.252
343.385, 257.192
344.739, 416.409
346.093, 522.755
347.446, 650.104
348.799, 848.361
350.153, 942.850
351.505, 989.242
352.858, 904.746
354.210, 861.080
355.563, 924.412
356.915, 880.743
358.267, 980.071
359.618, 1090.237
360.969, 1149.723
362.321, 1393.045
363.672, 1629.365
365.022, 1807.684
366.373, 1657.862
367.723, 1599.176
369.073, 1313.484
370.423, 872.827
371.773, 594.128
373.122, 327.426
374.471, 417.781
375.821, 176.071
377.169, 357.081
378.518, 84.878
379.866, 74.521
381.215, 232.793
382.563, 96.057
383.910, 91.688
385.258, 61.467
386.605, 125.135
387.952, 187.127
389.299, 85.041
390.646, 90.992
391.992, 53.979
393.339, 127.992
394.685, 75.055
396.031, 83.621
397.376, 43.283
398.722, 38.441
400.067, 136.623
401.412, 67.855
402.757, 74.934
404.101, 72.576
405.446, 12.789
406.790, 77.723
408.134, 110.162
409.478, 151.531
410.821, 280.836
412.165, 376.227
413.508, 446.279
414.851, 675.430
416.193, 796.562
417.536, 995.693
418.878, 1658.818
420.220, 2167.939
421.562, 2877.057
422.904, 4136.170
424.245, 5645.279
425.586, 6796.398
426.927, 7592.529
428.268, 7145.668
429.609, 5798.811
430.949, 4444.959
432.289, 3497.113
433.629, 2473.266
434.969, 1897.420
436.309, 1268.576
437.648, 998.729
438.987, 830.883
440.326, 577.035
441.665, 536.182
443.003, 397.330
444.342, 447.473
445.680, 384.615
447.018, 413.756
448.355, 204.896
449.693, 433.033
451.030, 283.162
452.367, 549.309
453.704, 297.447
455.041, 424.584
456.377, 328.711
457.713, 278.836
459.049, 87.957
460.385, 82.076
461.721, 35.133
463.056, 97.299
464.391, 15.396
465.726, 174.471
467.061, 167.535
468.395, 125.988
469.730, 249.637
471.064, 91.322
472.398, 349.639
473.731, 22.594
475.065, 141.564
476.398, 97.527
477.731, 194.527
479.064, 201.514
480.397, 204.492
481.729, 209.465
483.062, 153.424
484.394, 80.373
485.725, 66.309
487.057, 34.217
488.389, 34.146
489.720, 33.039
491.051, 15.064
492.382, 24.789
493.712, 47.662
495.043, 85.482
496.373, 25.705
497.703, 74.971
499.032, 137.691
500.362, 1.652
501.691, 70.004
503.020, 17.650
504.349, 121.271
505.678, 114.883
507.007, 105.193
508.335, 39.867
509.663, 73.750
510.991, 97.387
512.319, 72.006
513.646, 231.615
514.973, 132.246
516.300, 344.863
517.627, 293.480
518.954, 231.090
520.280, 457.684
521.607, 283.342
522.933, 443.986
524.259, 371.621
525.584, 503.244
526.910, 646.854
528.235, 806.461
529.560, 1019.057
530.885, 885.643
532.209, 947.217
533.534, 1330.779
534.858, 1583.332
536.182, 1796.898
537.506, 2197.451
538.829, 2621.023
540.152, 2609.582
541.476, 3632.125
542.799, 3836.682
544.121, 5007.779
545.444, 6309.697
546.766, 7706.562
548.088, 10061.488
549.410, 12695.785
550.732, 15479.648
552.053, 18432.773
553.375, 19876.203
554.696, 20248.896
556.017, 19530.998
557.337, 17513.582
558.658, 15749.410
559.978, 13738.025
561.298, 12988.938
562.618, 11682.355
563.938, 10688.762
565.257, 9764.926
566.576, 8963.918
567.895, 8106.682
569.214, 7969.039
570.533, 7906.389
571.851, 8101.723
573.170, 9179.049
574.488, 9520.363
575.805, 10001.664
577.123, 9932.955
578.440, 9576.232
579.758, 8662.500
581.075, 7142.750
582.391, 6195.988
583.708, 5049.211
585.024, 4012.420
586.341, 3445.617
587.657, 3245.801
588.972, 2757.971
590.288, 2315.125
591.603, 1943.262
592.918, 1829.385
594.233, 1510.686
595.548, 1558.775
596.863, 1181.439
598.177, 1056.500
599.491, 980.547
600.805, 885.266
602.119, 766.279
603.432, 891.430
604.746, 851.656
606.059, 758.279
607.372, 615.633
608.685, 847.697
609.997, 539.275
611.309, 659.670
612.621, 500.432
613.933, 713.664
615.245, 789.818
616.557, 879.982
617.868, 809.156
619.179, 962.922
620.490, 885.908
621.801, 1149.059
623.111, 868.516
624.421, 1045.223
625.731, 710.547
627.041, 982.146
628.351, 657.379
629.660, 585.652
630.970, 721.891
632.279, 593.412
633.588, 543.986
634.896, 239.590
636.205, 411.479
637.513, 287.391
638.821, 434.172
640.129, 505.979
641.437, 680.744
642.744, 299.461
644.051, 474.998
645.358, 482.387
646.665, 653.562
647.972, 613.584
649.278, 462.602
650.584, 565.604
651.890, 1072.246
653.196, 865.520
654.502, 1081.211
655.807, 978.523
657.113, 1276.066
658.418, 1573.332
659.722, 1837.279
661.027, 2240.777
662.331, 2895.889
663.636, 3829.105
664.940, 4340.959
666.244, 5830.184
667.547, 6696.797
668.851, 7771.893
670.154, 7958.107
671.457, 7529.951
672.760, 6824.391
674.062, 5550.283
675.365, 4383.139
676.667, 3485.283
677.969, 2842.166
679.271, 2181.939
680.572, 1758.760
681.874, 1752.646
683.175, 1546.152
684.476, 1249.539
685.777, 1449.301
687.077, 1059.076
688.378, 1347.846
689.678, 1050.574
690.978, 969.203
692.278, 538.592
693.577, 1117.984
694.877, 622.957
696.176, 978.746
697.475, 834.582
698.774, 1059.656
700.072, 1014.615
701.371, 919.631
702.669, 971.961
703.967, 1341.451
705.265, 1826.281
706.562, 1911.691
707.860, 1796.793
709.157, 2212.268
710.454, 2278.682
711.751, 2700.387
713.047, 2297.205
714.344, 2375.625
715.640, 1846.111
716.936, 2099.695
718.232, 2320.408
719.527, 2161.713
720.823, 2409.281
722.118, 2544.047
723.413, 2504.492
724.708, 2444.785
726.002, 2434.229
727.297, 1864.469
728.591, 1729.350
729.885, 1652.393
731.179, 1175.488
732.472, 1001.904
733.766, 833.482
735.059, 751.445
736.352, 708.764
737.645, 534.662
738.937, 766.527
740.230, 434.793
741.522, 541.648
742.814, 713.689
744.106, 551.424
745.397, 449.127
746.689, 331.797
747.980, 488.436
749.271, 239.037
750.562, 479.607
751.853, 147.471
753.143, 304.971
754.433, 344.438
755.723, 124.871
757.013, 484.266
758.303, 33.625
759.592, 232.943
760.881, 9.227
762.170, 196.459
763.459, 262.652
764.748, 39.184
766.036, 176.902
767.325, 85.953
768.613, 208.963
769.901, 223.938
771.188, 2.123
772.476, 211.758
773.763, 3.607
775.050, 129.398
776.337, 206.158
777.624, 306.881
778.910, 321.578
780.196, 153.242
781.482, 83.865
782.768, 167.451
784.054, 167.998
785.339, 158.539
786.625, 123.951
787.910, 371.443
789.195, 141.193
790.479, 226.041
791.764, 215.240
793.048, 26.408
794.332, 231.531
795.616, 236.623
796.900, 242.678
798.183, 36.697
799.467, 133.670
800.750, 176.609
802.033, 69.486
803.316, 331.334
804.598, 122.867
805.880, 123.820
807.163, 134.469
808.445, 11.113
809.726, 38.727
811.008, 20.328
812.289, 120.113
813.570, 95.336
814.851, 119.750
816.132, 78.127
817.413, 97.535
818.693, 127.697
819.973, 177.109
821.253, 92.039
822.533, 280.932
823.813, 11.867
825.092, 95.242
826.371, 194.549
827.650, 33.693
828.929, 83.996
830.208, 247.643
831.486, 258.740
832.764, 84.693
834.042, 67.105
835.320, 44.490
836.598, 129.834
837.875, 15.777
839.152, 55.551
840.429, 284.891
841.706, 41.207
842.983, 44.484
844.259, 300.727
845.536, 68.057
846.812, 105.076
848.088, 94.826
849.363, 236.176
850.639, 218.148
851.914, 82.914
853.189, 174.936
854.464, 160.750
855.739, 456.525
857.013, 43.727
858.288, 65.049
859.562, 72.549
860.836, 146.105
862.110, 54.627
863.383, 310.107
864.656, 11.553
865.930, 211.957
867.203, 304.328
868.475, 284.668
869.748, 97.025
871.020, 232.186
872.292, 89.363
873.564, 257.500
874.836, 205.605
876.108, 35.676
877.379, 302.703
878.650, 259.697
879.922, 299.662
881.192, 139.594
882.463, 92.490
883.733, 311.348
885.004, 227.174
886.274, 179.967
887.544, 381.727
888.813, 226.453
890.083, 378.150
891.352, 353.814
892.621, 215.451
893.890, 305.055
895.159, 252.627
896.427, 320.168
897.695, 330.281
898.964, 499.164
900.232, 360.699
901.499, 468.125
902.767, 491.326
904.034, 238.693
905.301, 437.760
906.568, 687.066
907.835, 579.346
909.102, 692.904
910.368, 465.129
911.634, 850.172
912.900, 755.096
914.166, 952.582
915.432, 1027.293
916.697, 774.271
917.962, 1395.670
919.227, 1279.037
920.492, 1417.574
921.757, 1099.193
923.021, 1114.848
924.285, 1089.453
925.550, 980.006
926.813, 902.930
928.077, 670.113
929.341, 634.566
930.604, 960.584
931.867, 464.404
933.130, 805.662
934.393, 973.504
935.655, 610.184
936.918, 1124.328
938.180, 737.270
939.442, 922.975
940.703, 1095.244
941.965, 1158.359
943.226, 1470.141
944.488, 1682.000
945.749, 2106.648
947.009, 2210.607
948.270, 2655.820
949.530, 2849.043
950.791, 3199.324
952.051, 3001.041
953.311, 2494.912
954.570, 2541.848
955.830, 2205.260
957.089, 1867.824
958.348, 1798.393
959.607, 1737.334
960.866, 1649.867
962.124, 2029.045
963.383, 2382.047
964.641, 2863.785
965.899, 3614.188
967.156, 4680.668
968.414, 6239.953
969.671, 8056.086
970.928, 9614.535
972.185, 10393.654
973.442, 9375.109
974.699, 7924.125
975.955, 6045.863
977.211, 4191.969
978.468, 3636.787
979.723, 2650.855
980.979, 2162.980
982.234, 2166.246
983.490, 936.082
984.745, 1232.256
986.000, 1153.066
987.254, 791.895
988.509, 1102.713
989.763, 819.980
991.017, 743.531
992.271, 725.621
993.525, 771.434
994.779, 777.971
996.032, 656.096
997.285, 776.199
998.538, 303.365
999.791, 1127.500
1001.044, 295.791
1002.296, 794.924
1003.548, 540.230
1004.800, 777.580
1006.052, 871.191
1007.304, 788.160
1008.555, 1022.965
1009.807, 1166.447
1011.058, 1208.332
1012.309, 1364.523
1013.559, 1418.322
1014.810, 1137.170
1016.060, 1399.715
1017.310, 1315.127
1018.560, 965.400
1019.810, 1104.100
1021.060, 1203.730
1022.309, 719.230
1023.558, 806.117
1024.807, 510.697
1026.056, 821.049
1027.305, 495.670
1028.553, 695.395
1029.801, 537.990
1031.049, 300.740
1032.297, 505.805
1033.545, 708.648
1034.793, 377.393
1036.040, 458.811
1037.287, 625.047
1038.534, 559.846
1039.781, 690.240
1041.027, 669.312
1042.274, 410.766
1043.520, 605.070
1044.766, 406.775
1046.012, 309.246
1047.257, 437.971
1048.503, 727.670
1049.748, 241.350
1050.993, 724.008
1052.238, 578.646
1053.483, 275.264
1054.727, 190.527
1055.971, 659.092
1057.216, 373.635
1058.459, 502.346
1059.703, 411.846
1060.947, 451.365
1062.190, 481.549
1063.433, 350.529
1064.676, 446.086
1065.919, 271.746
1067.162, 743.922
1068.404, 82.852
1069.646, 185.404
1070.888, 547.391
1072.130, 285.350
1073.372, 343.006
1074.613, 568.078
1075.855, 338.434
1077.096, 46.102
1078.337, 610.266
1079.578, 249.285
1080.818, 408.785
1082.059, 272.410
1083.299, 331.852
1084.539, 176.688
1085.779, 304.418
1087.018, 95.598
1088.258, 365.082
1089.497, 160.551
1090.736, 180.223
1091.975, 229.023
1093.213, 113.828
1094.452, 220.258
1095.690, 136.258
1096.928, 433.312
1098.166, 408.730
1099.404, 693.582
1100.642, 516.988
1101.879, 907.801
1103.116, 1022.672
1104.353, 1386.980
1105.590, 1208.340
1106.827, 1722.988
1108.063, 1719.020
1109.299, 1933.945
1110.536, 1956.137
1111.771, 1577.391
1113.007, 1615.355
1114.243, 1460.004
1115.478, 1148.301
1116.713, 1077.797
1117.948, 731.652
1119.183, 371.066
1120.418, 577.688
1121.652, 911.211
1122.886, 461.371
1124.120, 496.488
1125.354, 161.566
1126.588, 316.613
1127.821, 138.746
1129.055, 365.562
1130.288, 252.797
1131.521, 172.008
1132.753, 101.984
1133.986, 49.305
1135.218, 394.555
1136.450, 331.590
1137.682, 429.703
1138.914, 202.402
1140.146, 26.918
1141.377, 152.000
1142.609, 2.535
1143.840, 117.137
1145.071, 407.727
1146.301, 143.867
1147.532, 245.316
1148.762, 246.617
1149.992, 270.789
1151.222, 440.160
1152.452, 553.875
1153.682, 380.156
1154.911, 646.004
1156.140, 496.027
1157.369, 507.836
1158.598, 642.387
1159.827, 909.648
1161.055, 598.203
1162.284, 810.723
1163.512, 674.254
1164.740, 1065.652
1165.967, 372.324
1167.195, 914.820
1168.422, 821.793
1169.650, 1091.418
1170.877, 972.555
1172.103, 1206.043
1173.330, 1375.203
1174.557, 1960.680
1175.783, 2121.117
1177.009, 2283.449
1178.235, 2948.348
1179.461, 3301.793
1180.686, 4159.684
1181.912, 4985.012
1183.137, 5064.016
1184.362, 5238.102
1185.587, 5084.133
1186.811, 4682.793
1188.036, 3869.898
1189.260, 3496.898
1190.484, 3161.449
1191.708, 2827.078
1192.932, 1995.770
1194.155, 1731.820
1195.378, 1268.770
1196.602, 1402.605
1197.825, 1013.211
1199.047, 1083.789
1200.270, 909.477
1201.492, 1088.504
1202.715, 895.004
1203.937, 820.895
1205.159, 558.605
1206.380, 607.391
1207.602, 357.020
1208.823, 433.820
1210.044, 479.285
1211.265, 579.902
1212.486, 551.531
1213.707, 423.797
1214.927, 483.328
1216.147, 328.684
1217.367, 460.074
1218.587, 462.941
1219.807, 292.906
1221.027, 429.191
1222.246, 161.945
1223.465, 280.605
1224.684, 731.078
1225.903, 423.742
1227.121, 138.832
1228.340, 505.820
1229.558, 305.555
1230.776, 444.270
1231.994, 224.629
1233.212, 588.113
1234.429, 269.633
1235.646, 275.883
1236.864, 459.312
1238.081, 210.699
1239.297, 422.168
1240.514, 450.875
1241.730, 411.910
1242.947, 338.480
1244.163, 241.488
1245.378, 370.375
1246.594, 468.113
1247.810, 364.781
1249.025, 579.977
1250.240, 238.223
1251.455, 228.336
1252.670, 194.324
1253.885, 282.188
1255.099, 153.918
1256.313, 141.316
1257.527, 441.074
1258.741, 263.336
1259.955, 11.461
1261.168, 412.445
1262.382, 354.254
1263.595, 511.641
1264.808, 375.160
1266.021, 554.539
1267.233, 580.586
1268.446, 770.688
1269.658, 767.621
1270.870, 790.559
1272.082, 707.379
1273.294, 631.703
1274.505, 459.152
1275.716, 585.410
1276.928, 185.062
1278.139, 390.230
1279.349, 236.102
1280.560, 380.012
1281.770, 199.660
1282.981, 14.469
1284.191, 279.648
1285.401, 77.859
1286.610, 115.281
1287.820, 297.801
1289.029, 142.566
1290.239, 471.383
1291.448, 333.605
1292.656, 59.316
1293.865, 65.262
1295.073, 2.148
1296.282, 245.238
1297.490, 4.270
1298.698, 54.570
1299.906, 24.113
1301.113, 128.383
1302.320, 28.848
1303.528, 175.922
1304.735, 19.875
1305.942, 87.727
1307.148, 333.965
1308.355, 89.547
1309.561, 188.957
1310.767, 156.254
1311.973, 46.441
1313.179, 53.617
1314.384, 18.805
1315.590, 117.902
1316.795, 172.371
1318.000, 208.711
1319.205, 296.938
1320.410, 171.949
1321.614, 167.148
1322.819, 230.652
1324.023, 282.348
1325.227, 676.945
1326.431, 291.219
1327.634, 80.652
1328.838, 17.934
1330.041, 334.727
1331.244, 413.070
1332.447, 110.621
1333.650, 310.809
1334.852, 404.672
1336.055, 73.680
1337.257, 347.457
1338.459, 490.188
1339.661, 500.941
1340.862, 515.590
1342.064, 308.371
1343.265, 551.285
1344.466, 514.492
1345.667, 855.867
1346.868, 707.625
1348.068, 464.895
1349.269, 453.953
1350.469, 669.684
1351.669, 649.555
1352.869, 584.430
1354.069, 671.203
1355.268, 214.680
1356.468, 571.375
1357.667, 776.078
1358.866, 571.301
1360.065, 901.289
1361.263, 482.504
1362.462, 446.691
1363.660, 716.555
1364.858, 531.816
1366.056, 689.605
1367.254, 736.449
1368.451, 830.500
1369.649, 551.438
1370.846, 848.398
1372.043, 650.172
1373.240, 951.344
1374.436, 789.973
1375.633, 478.832
1376.829, 675.410
1378.025, 697.324
1379.221, 1406.637
1380.417, 2093.402
1381.613, 3310.664
1382.808, 3183.023
1384.003, 4544.609
1385.199, 3024.180
1386.393, 1570.766
1387.588, 1290.879
1388.783, 773.266
1389.977, 694.238
1391.171, 420.430
1392.365, 530.719
1393.559, 655.227
1394.753, 515.008
1395.946, 561.738
1397.140, 451.070
1398.333, 461.699
1399.526, 305.605
1400.719, 464.836
1401.911, 539.152
1403.104, 518.375
1404.296, 305.402
1405.488, 593.168
1406.680, 77.223
1407.872, 323.152
1409.063, 474.711
1410.255, 18.766
1411.446, 565.223
1412.637, 54.258
1413.828, 439.699
1415.018, 353.293
1416.209, 419.043
1417.399, 457.059
1418.589, 570.711
1419.779, 337.797
1420.969, 289.750
1422.159, 174.516
1423.348, 315.148
1424.537, 551.875
1425.726, 313.758
1426.915, 325.695
1428.104, 218.613
1429.293, 269.605
1430.481, 100.066
1431.669, 316.832
1432.857, 358.387
1434.045, 19.957
1435.233, 229.676
1436.420, 277.137
1437.608, 131.676
1438.795, 362.781
1439.982, 292.195
1441.169, 61.211
1442.355, 115.238
1443.542, 309.832
1444.728, 0.000
##END=



