##NAMES=Cordierite
##RRUFFID=R040082
##IDEAL CHEMISTRY=Mg_2_Al_3_(AlSi_5_)O_18_
##LOCALITY=Madagascar
##OWNER=RRUFF
##SOURCE=University of Arizona Mineral Museum
##DESCRIPTION=Dark gray coarsely crystalline massive
##STATUS=The identification of this mineral has been confirmed by X-ray diffraction and chemical analysis
##URL=rruff.info/R040082
##MEASURED CHEMISTRY=(Mg_1.60_Fe^2+^_0.39_Mn_0.01_)_Σ=2_Al_4.00_(Si_4.95_Al_0.05_)_Σ=5_O_18_·1.05H_2_O·Na_0.05_ ; H_2_O estimated by difference and verified by Raman spectroscopy
##PIN_ID=M00024
##ORIENTATION=Laser parallel to -b* (0 -1 0). Fiducial mark perpendicular to laser is parallel to -a [-1 0 0]
90.587, 0.000
91.981, 60.226
93.375, 232.445
94.768, 120.524
96.161, 163.850
97.554, 141.390
98.947, 95.396
100.340, 41.762
101.732, 69.914
103.124, 17.162
104.516, 111.286
105.908, 180.322
107.300, 5.883
108.691, 97.788
110.082, 95.344
111.473, 350.796
112.864, 868.629
114.254, 742.950
115.644, 1380.456
117.034, 1826.290
118.424, 2093.387
119.813, 1913.104
121.203, 2128.232
122.592, 2509.919
123.981, 3179.666
125.369, 3409.059
126.758, 3565.223
128.146, 2786.227
129.534, 2133.321
130.922, 1351.718
132.309, 876.334
133.696, 483.106
135.083, 282.238
136.470, 111.161
137.857, 113.742
139.243, 87.697
140.630, 137.292
142.016, 183.404
143.401, 250.420
144.787, 379.540
146.172, 582.126
147.557, 789.139
148.942, 1280.857
150.327, 1897.258
151.711, 2386.328
153.096, 3285.595
154.480, 3828.854
155.863, 4192.792
157.247, 4025.014
158.630, 3313.841
160.013, 2460.028
161.396, 1613.548
162.779, 1029.078
164.161, 607.636
165.544, 366.182
166.926, 263.700
168.308, 80.189
169.689, 7.741
171.070, 168.496
172.452, 112.338
173.833, 96.387
175.213, 120.806
176.594, 55.583
177.974, 56.579
179.354, 73.641
180.734, 49.718
182.114, 0.166
183.493, 165.039
184.872, 133.304
186.251, 142.599
187.630, 56.887
189.008, 94.158
190.387, 151.426
191.765, 129.658
193.143, 80.839
194.520, 11.969
195.898, 157.034
197.275, 109.008
198.652, 165.878
200.029, 183.652
201.405, 208.336
202.782, 204.932
204.158, 287.434
205.534, 250.843
206.909, 115.153
208.285, 147.364
209.660, 126.476
211.035, 7.489
212.410, 50.607
213.784, 27.159
215.159, 5.814
216.533, 35.649
217.907, 5.237
219.281, 21.958
220.654, 74.798
222.027, 58.252
223.400, 58.810
224.773, 8.979
226.146, 138.729
227.518, 171.336
228.891, 241.848
230.263, 410.131
231.634, 583.602
233.006, 865.098
234.377, 1120.081
235.748, 1464.983
237.119, 1549.067
238.490, 1909.584
239.860, 1795.430
241.231, 1920.598
242.601, 1858.722
243.970, 1841.614
245.340, 1959.505
246.709, 2102.798
248.079, 2666.037
249.448, 3299.995
250.816, 4519.198
252.185, 6133.754
253.553, 8369.063
254.921, 11268.039
256.289, 14105.466
257.657, 16600.656
259.024, 17245.582
260.391, 15153.037
261.758, 11909.508
263.125, 8957.047
264.492, 6624.196
265.858, 4882.496
267.224, 4059.679
268.590, 2970.886
269.956, 2513.898
271.321, 2161.828
272.687, 1838.776
274.052, 1547.212
275.416, 1648.885
276.781, 1616.068
278.146, 1526.708
279.510, 1723.009
280.874, 1903.090
282.237, 2147.244
283.601, 2288.629
284.964, 2654.312
286.327, 3459.026
287.690, 3923.943
289.053, 4810.138
290.416, 5806.187
291.778, 6479.396
293.140, 7149.940
294.502, 7480.389
295.863, 7665.704
297.225, 7863.290
298.586, 7882.012
299.947, 8204.717
301.308, 8460.175
302.668, 8898.683
304.029, 9273.776
305.389, 9278.992
306.749, 8387.287
308.108, 7161.727
309.468, 5534.169
310.827, 4139.537
312.186, 2867.835
313.545, 2264.057
314.903, 1686.198
316.262, 1394.178
317.620, 1408.048
318.978, 1466.769
320.336, 1780.308
321.693, 2365.712
323.051, 3120.023
324.408, 3530.280
325.765, 3828.498
327.121, 3397.677
328.478, 2864.814
329.834, 2329.914
331.190, 1734.553
332.546, 1277.055
333.902, 1198.239
335.257, 982.560
336.612, 920.583
337.967, 859.319
339.322, 765.067
340.677, 826.153
342.031, 779.067
343.385, 802.142
344.739, 847.948
346.093, 729.344
347.446, 801.019
348.799, 835.417
350.153, 759.839
351.505, 853.383
352.858, 804.293
354.210, 668.628
355.563, 722.729
356.915, 661.358
358.267, 648.791
359.618, 581.962
360.969, 531.680
362.321, 480.791
363.672, 435.925
365.022, 444.113
366.373, 336.239
367.723, 346.660
369.073, 331.878
370.423, 285.297
371.773, 193.936
373.122, 180.350
374.471, 248.031
375.821, 182.097
377.169, 249.197
378.518, 61.675
379.866, 146.543
381.215, 161.276
382.563, 246.919
383.910, 126.207
385.258, 201.526
386.605, 239.740
387.952, 134.045
389.299, 187.013
390.646, 137.152
391.992, 160.544
393.339, 247.498
394.685, 102.409
396.031, 293.267
397.376, 65.080
398.722, 121.838
400.067, 16.545
401.412, 74.798
402.757, 65.785
404.101, 17.321
405.446, 18.193
406.790, 75.767
408.134, 32.413
409.478, 42.874
410.821, 58.080
412.165, 42.100
413.508, 10.731
414.851, 40.743
416.193, 31.828
417.536, 79.008
418.878, 143.310
420.220, 32.768
421.562, 158.322
422.904, 100.036
424.245, 59.879
425.586, 27.828
426.927, 24.136
428.268, 2.962
429.609, 32.789
430.949, 2.357
432.289, 50.349
433.629, 25.005
434.969, 33.435
436.309, 39.951
437.648, 0.448
438.987, 25.220
440.326, 6.910
441.665, 39.218
443.003, 20.350
444.342, 0.424
445.680, 41.437
447.018, 25.396
448.355, 15.699
449.693, 56.144
451.030, 57.951
452.367, 24.731
453.704, 110.473
455.041, 100.193
456.377, 93.896
457.713, 30.570
459.049, 170.245
460.385, 140.895
461.721, 260.538
463.056, 223.146
464.391, 285.721
465.726, 371.162
467.061, 434.851
468.395, 537.359
469.730, 662.865
471.064, 738.348
472.398, 885.806
473.731, 869.236
475.065, 951.640
476.398, 892.011
477.731, 869.349
479.064, 688.653
480.397, 610.927
481.729, 625.169
483.062, 473.380
484.394, 432.561
485.725, 431.711
487.057, 475.833
488.389, 330.932
489.720, 325.001
491.051, 305.062
492.382, 227.095
493.712, 205.125
495.043, 153.139
496.373, 114.126
497.703, 138.106
499.032, 171.065
500.362, 159.016
501.691, 195.964
503.020, 189.869
504.349, 163.815
505.678, 186.732
507.007, 228.650
508.335, 233.546
509.663, 268.924
510.991, 310.410
512.319, 361.137
513.646, 407.966
514.973, 536.774
516.300, 608.562
517.627, 584.330
518.954, 635.084
520.280, 836.816
521.607, 777.531
522.933, 961.225
524.259, 972.896
525.584, 1091.547
526.910, 1274.787
528.235, 1417.053
529.560, 1584.242
530.885, 1705.224
532.209, 1978.811
533.534, 2286.328
534.858, 2717.130
536.182, 3103.687
537.506, 3708.521
538.829, 4466.047
540.152, 5322.438
541.476, 6721.938
542.799, 8152.812
544.121, 10691.148
545.444, 13500.874
546.766, 17385.799
548.088, 22368.277
549.410, 28217.980
550.732, 33633.469
552.053, 38150.027
553.375, 40105.957
554.696, 38427.141
556.017, 34875.223
557.337, 29825.072
558.658, 24853.396
559.978, 20587.520
561.298, 17923.248
562.618, 15634.073
563.938, 14315.213
565.257, 14055.517
566.576, 13906.212
567.895, 14908.637
569.214, 16357.182
570.533, 18163.918
571.851, 20332.445
573.170, 23355.279
574.488, 25284.238
575.805, 26432.775
577.123, 25962.365
578.440, 24255.938
579.758, 21426.475
581.075, 17938.146
582.391, 15043.508
583.708, 12052.421
585.024, 9759.373
586.341, 8211.754
587.657, 6866.332
588.972, 5834.850
590.288, 4963.531
591.603, 4148.265
592.918, 3759.596
594.233, 3360.432
595.548, 3129.896
596.863, 2823.934
598.177, 2685.399
599.491, 2545.054
600.805, 2444.992
602.119, 2360.525
603.432, 2257.721
604.746, 2382.513
606.059, 2347.171
607.372, 2306.945
608.685, 2523.693
609.997, 2545.512
611.309, 2983.553
612.621, 3223.928
613.933, 3474.697
615.245, 3674.179
616.557, 4075.018
617.868, 4060.714
619.179, 4240.746
620.490, 4176.725
621.801, 4325.879
623.111, 4071.738
624.421, 4086.545
625.731, 3478.441
627.041, 3197.229
628.351, 2605.960
629.660, 2221.382
630.970, 2027.129
632.279, 1647.288
633.588, 1590.258
634.896, 1340.225
636.205, 1418.191
637.513, 1109.155
638.821, 1317.119
640.129, 1440.081
641.437, 1422.044
642.744, 1383.006
644.051, 1564.983
645.358, 1689.163
646.665, 1859.126
647.972, 1830.535
649.278, 1781.498
650.584, 1905.876
651.890, 2218.840
653.196, 2257.604
654.502, 2510.906
655.807, 2550.736
657.113, 3021.009
658.418, 3597.930
659.722, 4164.898
661.027, 5067.695
662.331, 6541.263
663.636, 8329.298
664.940, 10333.269
666.244, 12977.173
667.547, 15009.052
668.851, 16763.021
670.154, 16671.342
671.457, 15462.320
672.760, 13462.297
674.062, 10863.274
675.365, 8777.255
676.667, 6809.234
677.969, 5474.219
679.271, 4314.203
680.572, 3341.191
681.874, 2973.182
683.175, 2421.175
684.476, 1967.173
685.777, 1731.174
687.077, 1415.182
688.378, 1340.193
689.678, 1181.214
690.978, 1120.243
692.278, 897.279
693.577, 1022.324
694.877, 979.377
696.176, 1037.441
697.475, 924.516
698.774, 1130.600
700.072, 1167.691
701.371, 1348.793
702.669, 1386.904
703.967, 1647.024
705.265, 2078.152
706.562, 2414.291
707.860, 2464.439
709.157, 3096.598
710.454, 3058.766
711.751, 3363.944
713.047, 3136.131
714.344, 2747.331
715.640, 2343.543
716.936, 2084.771
718.232, 2044.041
719.527, 1902.323
720.823, 1718.623
722.118, 1684.949
723.413, 1516.316
724.708, 1351.712
726.002, 1329.124
727.297, 1170.690
728.591, 986.994
729.885, 981.462
731.179, 722.959
732.472, 654.488
733.766, 728.059
735.059, 567.688
736.352, 533.349
737.645, 546.071
738.937, 519.842
740.230, 505.631
741.522, 471.486
742.814, 467.341
744.106, 450.218
745.397, 419.111
746.689, 414.026
747.980, 446.958
749.271, 373.917
750.562, 312.907
751.853, 258.928
753.143, 310.970
754.433, 200.039
755.723, 5.131
757.013, 93.235
758.303, 14.099
759.592, 101.499
760.881, 25.658
762.170, 20.166
763.459, 46.979
764.748, 102.803
766.036, 37.662
767.325, 107.525
768.613, 115.427
769.901, 55.371
771.188, 208.328
772.476, 53.374
773.763, 151.433
775.050, 28.447
776.337, 2.342
777.624, 49.753
778.910, 139.861
780.196, 11.026
781.482, 49.186
782.768, 48.358
784.054, 22.542
785.339, 29.298
786.625, 17.914
787.910, 9.900
789.195, 30.730
790.479, 72.573
791.764, 122.433
793.048, 53.309
794.332, 139.199
795.616, 169.107
796.900, 123.030
798.183, 6.970
799.467, 21.076
800.750, 77.882
802.033, 84.145
803.316, 118.805
804.598, 84.229
805.880, 39.714
807.163, 62.675
808.445, 90.348
809.726, 2.606
811.008, 67.424
812.289, 80.468
813.570, 33.468
814.851, 76.578
816.132, 54.643
817.413, 62.714
818.693, 63.204
819.973, 19.858
821.253, 40.915
822.533, 121.027
823.813, 7.012
825.092, 75.964
826.371, 170.957
827.650, 85.971
828.929, 224.004
830.208, 300.055
831.486, 285.127
832.764, 317.736
834.042, 267.328
835.320, 241.458
836.598, 298.608
837.875, 220.787
839.152, 231.986
840.429, 476.217
841.706, 377.475
842.983, 524.770
844.259, 566.377
845.536, 610.520
846.812, 672.938
848.088, 585.381
849.363, 701.842
850.639, 814.338
851.914, 712.887
853.189, 889.479
854.464, 1028.095
855.739, 1188.753
857.013, 1115.432
858.288, 1278.137
859.562, 1523.861
860.836, 1477.608
862.110, 1260.378
863.383, 1503.169
864.656, 1158.980
865.930, 1007.814
867.203, 1024.670
868.475, 910.547
869.748, 782.446
871.020, 875.368
872.292, 751.312
873.564, 778.276
874.836, 754.263
876.108, 802.271
877.379, 838.302
878.650, 827.355
879.922, 776.430
881.192, 705.525
882.463, 816.644
883.733, 779.782
885.004, 792.944
886.274, 829.129
887.544, 892.334
888.813, 964.561
890.083, 1012.718
891.352, 1138.078
892.621, 1126.899
893.890, 1249.001
895.159, 1305.014
896.427, 1372.368
897.695, 1429.353
898.964, 1456.140
900.232, 1496.558
901.499, 1513.996
902.767, 1521.456
904.034, 1383.937
905.301, 1365.438
906.568, 1252.962
907.835, 1229.506
909.102, 1153.860
910.368, 1165.446
911.634, 1183.053
912.900, 1165.722
914.166, 1347.423
915.432, 1232.744
916.697, 1228.762
917.962, 1410.783
919.227, 1375.340
920.492, 1384.167
921.757, 1348.589
923.021, 1350.305
924.285, 1371.287
925.550, 1042.183
926.813, 1095.695
928.077, 1117.832
929.341, 1055.674
930.604, 1161.016
931.867, 1066.434
933.130, 1095.790
934.393, 1171.276
935.655, 1003.851
936.918, 1269.761
938.180, 1170.370
939.442, 1164.591
940.703, 1322.025
941.965, 1236.487
943.226, 1160.976
944.488, 1413.490
945.749, 1600.032
947.009, 1642.600
948.270, 1810.283
949.530, 1729.812
950.791, 1956.443
952.051, 1939.896
953.311, 1931.596
954.570, 2292.874
955.830, 2402.625
957.089, 2645.988
958.348, 2846.794
959.607, 3396.624
960.866, 3936.793
962.124, 4640.572
963.383, 5679.084
964.641, 7024.936
965.899, 8991.905
967.156, 11666.069
968.414, 15071.411
969.671, 18624.393
970.928, 20733.479
972.185, 20921.650
973.442, 18302.879
974.699, 14959.039
975.955, 11348.881
977.211, 8550.101
978.468, 6940.344
979.723, 5498.617
980.979, 4557.916
982.234, 4238.244
983.490, 3480.600
984.745, 3346.981
986.000, 3388.391
987.254, 3203.827
988.509, 3558.990
989.763, 3478.480
991.017, 3645.492
992.271, 3904.892
993.525, 4190.231
994.779, 4796.732
996.032, 5359.883
997.285, 6175.041
998.538, 6986.728
999.791, 9019.424
1001.044, 10778.714
1002.296, 13178.936
1003.548, 15567.798
1004.800, 18950.635
1006.052, 24004.045
1007.304, 30525.891
1008.555, 37183.473
1009.807, 41504.363
1011.058, 41383.281
1012.309, 37261.211
1013.559, 30505.174
1014.810, 23644.162
1016.060, 18285.168
1017.310, 14115.201
1018.560, 10885.259
1019.810, 8781.336
1021.060, 7151.438
1022.309, 5808.563
1023.558, 4999.711
1024.807, 4089.881
1026.056, 3488.073
1027.305, 2969.287
1028.553, 2670.523
1029.801, 2143.781
1031.049, 1811.060
1032.297, 1701.359
1033.545, 1593.680
1034.793, 1223.020
1036.040, 1136.383
1037.287, 1084.764
1038.534, 891.167
1039.781, 1047.589
1041.027, 711.032
1042.274, 764.495
1043.520, 865.979
1044.766, 673.486
1046.012, 584.013
1047.257, 619.562
1048.503, 744.129
1049.748, 627.717
1050.993, 602.324
1052.238, 553.955
1053.483, 460.604
1054.727, 460.274
1055.971, 440.522
1057.216, 347.672
1058.459, 467.410
1059.703, 503.170
1060.947, 537.946
1062.190, 504.163
1063.433, 501.008
1064.676, 437.685
1065.919, 372.160
1067.162, 483.549
1068.404, 402.506
1069.646, 359.004
1070.888, 495.038
1072.130, 483.127
1073.372, 500.591
1074.613, 632.794
1075.855, 545.833
1077.096, 596.824
1078.337, 792.846
1079.578, 684.340
1080.818, 700.639
1082.059, 800.039
1083.299, 829.501
1084.539, 648.534
1085.779, 545.327
1087.018, 447.821
1088.258, 479.337
1089.497, 346.872
1090.736, 368.421
1091.975, 415.981
1093.213, 271.555
1094.452, 306.140
1095.690, 198.736
1096.928, 334.344
1098.166, 329.964
1099.404, 381.594
1100.642, 355.236
1101.879, 477.465
1103.116, 556.562
1104.353, 774.261
1105.590, 857.967
1106.827, 1120.704
1108.063, 1057.449
1109.299, 955.202
1110.536, 992.984
1111.771, 696.776
1113.007, 617.593
1114.243, 531.090
1115.478, 388.938
1116.713, 368.812
1117.948, 334.707
1119.183, 131.623
1120.418, 195.546
1121.652, 368.478
1122.886, 560.426
1124.120, 518.376
1125.354, 247.335
1126.588, 150.297
1127.821, 110.263
1129.055, 118.232
1130.288, 121.204
1131.521, 120.179
1132.753, 7.167
1133.986, 58.170
1135.218, 171.177
1136.450, 42.820
1137.682, 150.123
1138.914, 55.941
1140.146, 25.007
1141.377, 76.113
1142.609, 174.253
1143.840, 53.447
1145.071, 34.647
1146.301, 3.154
1147.532, 54.966
1148.762, 51.213
1149.992, 130.394
1151.222, 91.597
1152.452, 1.187
1153.682, 82.023
1154.911, 93.757
1156.140, 14.454
1157.369, 39.341
1158.598, 151.143
1159.827, 180.955
1161.055, 151.774
1162.284, 238.363
1163.512, 275.991
1164.740, 368.288
1165.967, 327.142
1167.195, 472.004
1168.422, 316.872
1169.650, 452.750
1170.877, 376.579
1172.103, 430.363
1173.330, 519.080
1174.557, 730.778
1175.783, 800.480
1177.009, 876.169
1178.235, 1173.743
1179.461, 1325.274
1180.686, 1614.798
1181.912, 1771.309
1183.137, 1925.818
1184.362, 1733.326
1185.587, 1462.833
1186.811, 1373.340
1188.036, 928.844
1189.260, 881.448
1190.484, 657.948
1191.708, 606.402
1192.932, 431.899
1194.155, 212.910
1195.378, 198.556
1196.602, 347.037
1197.825, 101.756
1199.047, 248.910
1200.270, 151.465
1201.492, 259.205
1202.715, 57.677
1203.937, 115.594
1205.159, 111.423
1206.380, 83.870
1207.602, 71.820
1208.823, 124.252
1210.044, 5.861
1211.265, 64.217
1212.486, 91.860
1213.707, 41.550
1214.927, 61.889
1216.147, 24.812
1217.367, 90.856
1218.587, 126.438
1219.807, 45.790
1221.027, 4.779
1222.246, 119.012
1223.465, 100.927
1224.684, 37.376
1225.903, 59.530
1227.121, 31.562
1228.340, 109.609
1229.558, 80.653
1230.776, 17.692
1231.994, 62.721
1233.212, 116.743
1234.429, 267.760
1235.646, 193.758
1236.864, 426.741
1238.081, 337.715
1239.297, 329.671
1240.514, 419.616
1241.730, 286.507
1242.947, 217.390
1244.163, 195.265
1245.378, 270.051
1246.594, 385.802
1247.810, 135.489
1249.025, 346.108
1250.240, 236.602
1251.455, 243.218
1252.670, 292.659
1253.885, 320.075
1255.099, 241.460
1256.313, 122.814
1257.527, 381.419
1258.741, 304.700
1259.955, 66.941
1261.168, 191.137
1262.382, 361.291
1263.595, 348.379
1264.808, 369.459
1266.021, 486.509
1267.233, 379.528
1268.446, 554.499
1269.658, 550.439
1270.870, 690.261
1272.082, 656.036
1273.294, 677.762
1274.505, 592.438
1275.716, 614.086
1276.928, 568.748
1278.139, 655.003
1279.349, 555.256
1280.560, 640.761
1281.770, 438.522
1282.981, 375.447
1284.191, 411.263
1285.401, 379.275
1286.610, 336.535
1287.820, 354.906
1289.029, 338.987
1290.239, 381.777
1291.448, 351.571
1292.656, 467.355
1293.865, 458.130
1295.073, 499.895
1296.282, 404.647
1297.490, 480.389
1298.698, 412.121
1299.906, 345.844
1301.113, 418.562
1302.320, 384.272
1303.528, 310.978
1304.735, 285.678
1305.942, 353.370
1307.148, 549.051
1308.355, 461.717
1309.561, 638.371
1310.767, 604.014
1311.973, 725.643
1313.179, 608.260
1314.384, 791.838
1315.590, 679.543
1316.795, 772.077
1318.000, 632.411
1319.205, 756.430
1320.410, 786.307
1321.614, 558.731
1322.819, 732.327
1324.023, 681.467
1325.227, 599.245
1326.431, 602.915
1327.634, 537.493
1328.838, 385.541
1330.041, 396.542
1331.244, 309.504
1332.447, 122.428
1333.650, 87.313
1334.852, 159.161
1336.055, 20.975
1337.257, 158.754
1338.459, 44.502
1339.661, 80.215
1340.862, 128.719
1342.064, 70.354
1343.265, 34.941
1344.466, 95.502
1345.667, 67.033
1346.868, 114.540
1348.068, 50.025
1349.269, 9.511
1350.469, 128.861
1351.669, 147.188
1352.869, 133.744
1354.069, 186.345
1355.268, 39.890
1356.468, 117.853
1357.667, 195.497
1358.866, 14.038
1360.065, 116.473
1361.263, 10.208
1362.462, 9.009
1363.660, 95.062
1364.858, 48.002
1366.056, 167.792
1367.254, 109.436
1368.451, 103.073
1369.649, 136.200
1370.846, 113.557
1372.043, 170.262
1373.240, 224.562
1374.436, 231.950
1375.633, 209.343
1376.829, 263.735
1378.025, 347.796
1379.221, 340.887
1380.417, 451.803
1381.613, 658.220
1382.808, 1055.610
1384.003, 967.721
1385.199, 677.435
1386.393, 337.269
1387.588, 445.099
1388.783, 454.621
1389.977, 234.236
1391.171, 145.104
1392.365, 271.834
1393.559, 255.062
1394.753, 34.560
1395.946, 170.206
1397.140, 74.589
1398.333, 139.379
1399.526, 89.484
1400.719, 10.069
1401.911, 85.963
1403.104, 228.379
1404.296, 233.055
1405.488, 222.195
1406.680, 13.994
1407.872, 134.294
1409.063, 157.894
1410.255, 51.365
1411.446, 123.418
1412.637, 144.929
1413.828, 164.020
1415.018, 70.074
1416.209, 90.457
1417.399, 47.350
1418.589, 59.216
1419.779, 0.000
##END=



