##NAMES=Cordierite
##RRUFFID=R040082
##IDEAL CHEMISTRY=Mg_2_Al_3_(AlSi_5_)O_18_
##LOCALITY=Madagascar
##OWNER=RRUFF
##SOURCE=University of Arizona Mineral Museum
##DESCRIPTION=Dark gray coarsely crystalline massive
##STATUS=The identification of this mineral has been confirmed by X-ray diffraction and chemical analysis
##URL=rruff.info/R040082
##MEASURED CHEMISTRY=(Mg_1.60_Fe^2+^_0.39_Mn_0.01_)_Σ=2_Al_4.00_(Si_4.95_Al_0.05_)_Σ=5_O_18_·1.05H_2_O·Na_0.05_ ; H_2_O estimated by difference and verified by Raman spectroscopy
##PIN_ID=M00040
##ORIENTATION=Laser parallel to -c* (0 0 -1). Fiducial mark perpendicular to laser is parallel to a [1 0 0]
93.375, 0.000
94.768, 6.405
96.161, 66.136
97.554, 24.895
98.947, 101.561
100.340, 78.420
101.732, 250.966
103.124, 436.643
104.516, 861.973
105.908, 1582.742
107.300, 1933.062
108.691, 2822.569
110.082, 3705.810
111.473, 5550.924
112.864, 7921.086
114.254, 10557.879
115.644, 13956.941
117.034, 17256.982
118.424, 19803.812
119.813, 21177.494
121.203, 18524.025
122.592, 14287.299
123.981, 10742.460
125.369, 7754.674
126.758, 5901.479
128.146, 4215.201
129.534, 3299.962
130.922, 2289.986
132.309, 1679.631
133.696, 1214.415
135.083, 1166.455
136.470, 833.629
137.857, 1010.604
139.243, 1012.369
140.630, 901.917
142.016, 715.245
143.401, 772.351
144.787, 986.524
146.172, 1064.485
147.557, 1267.935
148.942, 1733.919
150.327, 2243.758
151.711, 3147.363
153.096, 4262.758
154.480, 5149.354
155.863, 6020.075
157.247, 6380.996
158.630, 5682.282
160.013, 4838.684
161.396, 3781.050
162.779, 2811.369
164.161, 1785.644
165.544, 1117.104
166.926, 567.754
168.308, 306.270
169.689, 136.883
171.070, 123.534
172.452, 110.435
173.833, 103.258
175.213, 174.494
176.594, 96.198
177.974, 230.573
179.354, 449.637
180.734, 311.434
182.114, 316.989
183.493, 439.316
184.872, 406.428
186.251, 338.332
187.630, 360.102
189.008, 253.552
190.387, 300.876
191.765, 252.017
193.143, 248.976
194.520, 146.754
195.898, 154.353
197.275, 83.773
198.652, 78.633
200.029, 187.087
201.405, 83.982
202.782, 65.706
204.158, 74.258
205.534, 210.639
206.909, 41.841
208.285, 88.852
209.660, 66.672
211.035, 230.695
212.410, 181.248
213.784, 214.981
215.159, 187.297
216.533, 115.869
217.907, 122.632
219.281, 57.078
220.654, 31.760
222.027, 155.388
223.400, 263.366
224.773, 411.176
226.146, 670.411
227.518, 937.469
228.891, 1368.584
230.263, 1719.704
231.634, 2428.646
233.006, 3084.418
234.377, 3906.148
235.748, 4665.953
237.119, 5128.094
238.490, 5584.078
239.860, 5244.789
241.231, 4772.056
242.601, 4222.979
243.970, 3846.531
245.340, 3530.688
246.709, 3379.698
248.079, 3410.243
249.448, 3459.789
250.816, 3954.221
252.185, 4712.938
253.553, 5834.133
254.921, 7320.790
256.289, 8871.319
257.657, 10570.738
259.024, 11189.980
260.391, 10456.651
261.758, 8019.728
263.125, 5997.139
264.492, 4355.738
265.858, 3199.504
267.224, 2605.395
268.590, 1908.371
269.956, 1787.409
271.321, 1605.487
272.687, 1524.584
274.052, 1461.688
275.416, 1750.776
276.781, 1878.839
278.146, 2154.863
279.510, 2745.843
280.874, 3276.770
282.237, 4204.640
283.601, 5243.447
284.964, 6679.191
286.327, 8800.862
287.690, 10782.461
289.053, 13113.958
290.416, 15753.341
291.778, 17512.602
293.140, 18495.744
294.502, 18245.783
295.863, 17803.711
297.225, 15557.536
298.586, 13229.256
299.947, 11255.862
301.308, 9259.367
302.668, 7770.768
304.029, 6363.064
305.389, 5204.260
306.749, 4253.353
308.108, 3605.345
309.468, 3070.227
310.827, 2580.990
312.186, 2278.641
313.545, 2265.172
314.903, 2201.589
316.262, 2139.888
317.620, 2283.735
318.978, 2432.150
320.336, 2691.260
321.693, 2866.171
323.051, 3175.999
324.408, 3260.758
325.765, 3282.448
327.121, 2602.070
328.478, 1976.622
329.834, 1523.103
331.190, 1341.508
332.546, 957.829
333.902, 1083.057
335.257, 853.182
336.612, 742.196
337.967, 725.032
339.322, 661.824
340.677, 799.336
342.031, 949.914
343.385, 1009.391
344.739, 1221.769
346.093, 1445.046
347.446, 1671.227
348.799, 1668.311
350.153, 1743.298
351.505, 1626.191
352.858, 1522.990
354.210, 1514.696
355.563, 1403.310
356.915, 1481.832
358.267, 1613.903
359.618, 1726.889
360.969, 2067.466
362.321, 2379.906
363.672, 2894.688
365.022, 3080.931
366.373, 3076.987
367.723, 2729.973
369.073, 2153.421
370.423, 1592.922
371.773, 1032.654
373.122, 721.133
374.471, 596.222
375.821, 295.265
377.169, 275.034
378.518, 49.388
379.866, 47.958
381.215, 103.929
382.563, 180.986
383.910, 177.672
385.258, 256.032
386.605, 203.140
387.952, 325.076
389.299, 208.210
390.646, 304.511
391.992, 319.002
393.339, 380.688
394.685, 364.580
396.031, 375.141
397.376, 350.093
398.722, 355.505
400.067, 269.287
401.412, 249.395
402.757, 218.876
404.101, 154.746
405.446, 121.001
406.790, 67.349
408.134, 150.324
409.478, 318.944
410.821, 560.254
412.165, 805.309
413.508, 1307.172
414.851, 1777.963
416.193, 2479.714
417.536, 3380.438
418.878, 4822.139
420.220, 6461.814
421.562, 8089.434
422.904, 10632.000
424.245, 12970.510
425.586, 14463.968
426.927, 14926.367
428.268, 13368.708
429.609, 11238.988
430.949, 8844.208
432.289, 7178.372
433.629, 5250.473
434.969, 4123.513
436.309, 3069.494
437.648, 2529.415
438.987, 2035.277
440.326, 1554.079
441.665, 1405.822
443.003, 1240.505
444.342, 1177.131
445.680, 1238.699
447.018, 1246.208
448.355, 1199.661
449.693, 1453.058
451.030, 1568.397
452.367, 1703.683
453.704, 1742.912
455.041, 1758.086
456.377, 1490.208
457.713, 1334.277
459.049, 980.293
460.385, 909.257
461.721, 821.171
463.056, 660.033
464.391, 706.846
465.726, 841.609
467.061, 740.323
468.395, 824.989
469.730, 1010.608
471.064, 987.180
472.398, 1213.705
473.731, 1243.185
475.065, 1386.619
476.398, 1422.010
477.731, 1472.356
479.064, 1481.662
480.397, 1351.927
481.729, 1532.156
483.062, 1391.347
484.394, 1516.501
485.725, 1310.620
487.057, 1236.703
488.389, 1231.750
489.720, 1093.765
491.051, 1040.744
492.382, 1021.690
493.712, 995.604
495.043, 897.485
496.373, 796.893
497.703, 779.803
499.032, 800.609
500.362, 738.123
501.691, 768.618
503.020, 755.201
504.349, 840.541
505.678, 721.205
507.007, 838.869
508.335, 762.523
509.663, 828.191
510.991, 845.875
512.319, 909.582
513.646, 960.323
514.973, 970.100
516.300, 1266.894
517.627, 1500.742
518.954, 1206.605
520.280, 1479.510
521.607, 1505.468
522.933, 1608.494
524.259, 1708.571
525.584, 1818.711
526.910, 1957.877
528.235, 2044.090
529.560, 2299.472
530.885, 2608.372
532.209, 2927.026
533.534, 3506.436
534.858, 4075.470
536.182, 4826.621
537.506, 5560.773
538.829, 6302.297
540.152, 7350.386
541.476, 8636.312
542.799, 10047.631
544.121, 12444.350
545.444, 15249.239
546.766, 19047.543
548.088, 23908.303
549.410, 29979.480
550.732, 35533.715
552.053, 41525.098
553.375, 44778.738
554.696, 45138.488
556.017, 43626.676
557.337, 39941.535
558.658, 36311.152
559.978, 32768.316
561.298, 30483.830
562.618, 27756.400
563.938, 25246.141
565.257, 22971.148
566.576, 20648.840
567.895, 19681.072
569.214, 19061.010
570.533, 19310.170
571.851, 19691.404
573.170, 21278.674
574.488, 22439.961
575.805, 22950.279
577.123, 22819.617
578.440, 21935.980
579.758, 19915.365
581.075, 17134.779
582.391, 14946.217
583.708, 12396.679
585.024, 10486.170
586.341, 9280.682
587.657, 7930.223
588.972, 6953.789
590.288, 6122.381
591.603, 5109.002
592.918, 4705.647
594.233, 4370.322
595.548, 3851.023
596.863, 3453.752
598.177, 3246.510
599.491, 3067.295
600.805, 2736.108
602.119, 2601.950
603.432, 2566.822
604.746, 2480.723
606.059, 2321.651
607.372, 2207.611
608.685, 2187.491
609.997, 2185.619
611.309, 2233.670
612.621, 2240.749
613.933, 2407.859
615.245, 2482.001
616.557, 2510.173
617.868, 2615.376
619.179, 2460.610
620.490, 2442.878
621.801, 2498.175
623.111, 2155.507
624.421, 2097.868
625.731, 1816.264
627.041, 1850.689
628.351, 1466.148
629.660, 1391.642
630.970, 1475.167
632.279, 1280.726
633.588, 1130.316
634.896, 966.941
636.205, 1033.600
637.513, 911.291
638.821, 1081.017
640.129, 1034.774
641.437, 1138.567
642.744, 982.395
644.051, 1199.256
645.358, 1130.150
646.665, 1262.079
647.972, 1300.044
649.278, 1430.041
650.584, 1591.143
651.890, 1812.209
653.196, 1945.438
654.502, 2399.574
655.807, 2505.927
657.113, 3015.494
658.418, 3790.600
659.722, 4365.107
661.027, 5385.654
662.331, 6630.479
663.636, 8229.521
664.940, 10195.963
666.244, 12303.660
667.547, 14169.997
668.851, 15694.044
670.154, 15723.431
671.457, 14432.341
672.760, 12738.758
674.062, 10273.360
675.365, 8194.769
676.667, 6413.301
677.969, 5161.816
679.271, 4127.080
680.572, 3283.812
681.874, 2941.229
683.175, 2702.291
684.476, 2427.809
685.777, 2328.775
687.077, 2102.727
688.378, 2039.132
689.678, 1967.467
690.978, 1724.938
692.278, 1374.532
693.577, 1540.129
694.877, 1326.716
696.176, 1290.111
697.475, 1266.385
698.774, 1510.148
700.072, 1604.874
701.371, 1761.137
702.669, 1915.187
703.967, 2378.006
705.265, 2852.209
706.562, 3244.202
707.860, 3565.398
709.157, 4262.928
710.454, 4477.419
711.751, 4806.127
713.047, 4520.842
714.344, 4451.703
715.640, 4309.711
716.936, 4101.842
718.232, 4501.087
719.527, 4538.443
720.823, 4877.891
722.118, 5006.414
723.413, 5062.975
724.708, 4949.560
726.002, 4772.162
727.297, 4263.775
728.591, 4017.397
729.885, 3784.023
731.179, 2504.658
732.472, 2219.297
733.766, 2068.941
735.059, 1491.594
736.352, 1690.249
737.645, 1521.910
738.937, 1685.576
740.230, 1260.246
741.522, 831.921
742.814, 813.601
744.106, 786.282
745.397, 706.968
746.689, 542.656
747.980, 604.348
749.271, 453.042
750.562, 666.739
751.853, 363.438
753.143, 454.139
754.433, 420.842
755.723, 359.545
757.013, 475.249
758.303, 339.954
759.592, 470.661
760.881, 431.367
762.170, 459.073
763.459, 448.778
764.748, 396.483
766.036, 514.188
767.325, 408.891
768.613, 454.593
769.901, 536.292
771.188, 428.990
772.476, 551.686
773.763, 472.380
775.050, 559.069
776.337, 567.757
777.624, 554.440
778.910, 574.121
780.196, 584.798
781.482, 488.469
782.768, 486.138
784.054, 624.801
785.339, 514.459
786.625, 445.111
787.910, 585.758
789.195, 497.399
790.479, 425.034
791.764, 365.664
793.048, 367.286
794.332, 404.901
795.616, 352.511
796.900, 276.111
798.183, 299.706
799.467, 227.291
800.750, 207.869
802.033, 128.439
803.316, 196.001
804.598, 43.553
805.880, 174.095
807.163, 35.628
808.445, 77.150
809.726, 29.663
811.008, 6.163
812.289, 8.354
813.570, 29.106
814.851, 30.554
816.132, 5.658
817.413, 87.600
818.693, 42.253
819.973, 124.951
821.253, 132.739
822.533, 157.621
823.813, 192.611
825.092, 198.730
826.371, 124.982
827.650, 253.328
828.929, 104.838
830.208, 200.434
831.486, 230.167
832.764, 288.055
834.042, 230.127
835.320, 255.354
836.598, 120.751
837.875, 190.248
839.152, 243.881
840.429, 146.680
841.706, 184.594
842.983, 102.642
844.259, 71.783
845.536, 216.002
846.812, 87.374
848.088, 133.832
849.363, 113.400
850.639, 14.071
851.914, 51.790
853.189, 128.579
854.464, 23.479
855.739, 65.404
857.013, 75.468
858.288, 1.413
859.562, 7.248
860.836, 111.040
862.110, 29.188
863.383, 110.520
864.656, 94.206
865.930, 147.869
867.203, 144.510
868.475, 175.128
869.748, 156.724
871.020, 180.294
872.292, 322.842
873.564, 263.363
874.836, 325.860
876.108, 293.332
877.379, 411.777
878.650, 457.198
879.922, 555.592
881.192, 402.961
882.463, 528.305
883.733, 470.622
885.004, 489.914
886.274, 468.182
887.544, 557.422
888.813, 444.639
890.083, 591.830
891.352, 613.778
892.621, 601.242
893.890, 724.252
895.159, 672.342
896.427, 663.408
897.695, 817.448
898.964, 825.464
900.232, 883.454
901.499, 919.422
902.767, 996.736
904.034, 1090.280
905.301, 1184.081
906.568, 1166.042
907.835, 1273.886
909.102, 1258.706
910.368, 1419.501
911.634, 1553.272
912.900, 1804.021
914.166, 1986.744
915.432, 2236.443
916.697, 2406.119
917.962, 2876.771
919.227, 2923.400
920.492, 3028.005
921.757, 2890.588
923.021, 2804.145
924.285, 2471.680
925.550, 2192.192
926.813, 1969.682
928.077, 1841.147
929.341, 1756.602
930.604, 1850.012
931.867, 1789.410
933.130, 1842.786
934.393, 1992.141
935.655, 1784.471
936.918, 2110.780
938.180, 2096.069
939.442, 2322.336
940.703, 2606.580
941.965, 2830.805
943.226, 3135.033
944.488, 3555.242
945.749, 4373.428
947.009, 5151.600
948.270, 6216.751
949.530, 7151.904
950.791, 8123.036
952.051, 8079.145
953.311, 7654.238
954.570, 6969.318
955.830, 6397.381
957.089, 5980.367
958.348, 5794.421
959.607, 5949.333
960.866, 6387.355
962.124, 6766.209
963.383, 7894.873
964.641, 9109.026
965.899, 10948.810
967.156, 13812.569
968.414, 17110.066
969.671, 20566.361
970.928, 22405.279
972.185, 22273.955
973.442, 19412.002
974.699, 15846.355
975.955, 12421.388
977.211, 9560.911
978.468, 7536.947
979.723, 6072.811
980.979, 4781.888
982.234, 4178.857
983.490, 3271.873
984.745, 2971.171
986.000, 2549.029
987.254, 2143.236
988.509, 2144.817
989.763, 1894.971
991.017, 1806.695
992.271, 1683.458
993.525, 1498.796
994.779, 1499.238
996.032, 1407.590
997.285, 1466.842
998.538, 1286.126
999.791, 1414.453
1001.044, 1280.029
1002.296, 1432.809
1003.548, 1507.191
1004.800, 1531.731
1006.052, 1811.843
1007.304, 1950.303
1008.555, 2238.113
1009.807, 2572.691
1011.058, 2723.598
1012.309, 2777.453
1013.559, 2857.128
1014.810, 2870.002
1016.060, 2875.820
1017.310, 2820.796
1018.560, 2518.781
1019.810, 2236.778
1021.060, 2059.784
1022.309, 1795.799
1023.558, 1604.822
1024.807, 1302.855
1026.056, 1233.906
1027.305, 1105.967
1028.553, 1138.038
1029.801, 1138.122
1031.049, 1011.217
1032.297, 930.329
1033.545, 918.463
1034.793, 783.610
1036.040, 760.784
1037.287, 823.972
1038.534, 795.192
1039.781, 810.442
1041.027, 658.708
1042.274, 703.990
1043.520, 677.287
1044.766, 527.597
1046.012, 570.942
1047.257, 512.300
1048.503, 587.668
1049.748, 534.055
1050.993, 561.464
1052.238, 538.904
1053.483, 437.358
1054.727, 456.833
1055.971, 470.319
1057.216, 544.819
1058.459, 408.346
1059.703, 481.890
1060.947, 487.454
1062.190, 522.032
1063.433, 378.626
1064.676, 428.781
1065.919, 398.890
1067.162, 437.548
1068.404, 340.227
1069.646, 372.923
1070.888, 416.638
1072.130, 394.379
1073.372, 423.145
1074.613, 462.932
1075.855, 357.745
1077.096, 326.573
1078.337, 458.417
1079.578, 301.290
1080.818, 393.178
1082.059, 412.084
1083.299, 437.017
1084.539, 424.963
1085.779, 447.925
1087.018, 436.900
1088.258, 603.221
1089.497, 564.225
1090.736, 681.242
1091.975, 719.594
1093.213, 788.638
1094.452, 949.694
1095.690, 1093.001
1096.928, 1207.164
1098.166, 1538.418
1099.404, 1871.551
1100.642, 2150.676
1101.879, 2750.479
1103.116, 3273.953
1104.353, 3954.941
1105.590, 4410.053
1106.827, 5128.231
1108.063, 5198.705
1109.299, 5245.516
1110.536, 4962.195
1111.771, 4570.467
1113.007, 4144.877
1114.243, 3948.897
1115.478, 2918.368
1116.713, 2434.723
1117.948, 1947.220
1119.183, 1656.596
1120.418, 1374.001
1121.652, 1407.460
1122.886, 1353.972
1124.120, 1189.547
1125.354, 1016.195
1126.588, 914.914
1127.821, 832.688
1129.055, 872.549
1130.288, 751.678
1131.521, 767.115
1132.753, 668.922
1133.986, 669.989
1135.218, 872.695
1136.450, 704.740
1137.682, 744.875
1138.914, 628.439
1140.146, 696.382
1141.377, 705.766
1142.609, 801.153
1143.840, 865.219
1145.071, 916.133
1146.301, 969.391
1147.532, 981.570
1148.762, 1023.790
1149.992, 1068.193
1151.222, 1132.591
1152.452, 1214.995
1153.682, 1267.189
1154.911, 1404.813
1156.140, 1488.413
1157.369, 1583.527
1158.598, 1729.968
1159.827, 1903.350
1161.055, 1788.774
1162.284, 1919.145
1163.512, 1982.948
1164.740, 1958.537
1165.967, 1985.759
1167.195, 2187.204
1168.422, 2469.283
1169.650, 2718.673
1170.877, 3045.248
1172.103, 3516.888
1173.330, 4235.345
1174.557, 5105.146
1175.783, 6003.721
1177.009, 6947.252
1178.235, 8610.910
1179.461, 10082.143
1180.686, 11640.062
1181.912, 12984.750
1183.137, 13554.888
1184.362, 12986.145
1185.587, 12099.077
1186.811, 10851.335
1188.036, 9521.707
1189.260, 8268.031
1190.484, 7026.622
1191.708, 5842.621
1192.932, 4875.723
1194.155, 3932.589
1195.378, 3444.198
1196.602, 2861.878
1197.825, 2429.937
1199.047, 2067.237
1200.270, 1797.976
1201.492, 1622.553
1202.715, 1298.309
1203.937, 1201.063
1205.159, 1103.613
1206.380, 824.490
1207.602, 737.755
1208.823, 702.628
1210.044, 654.753
1211.265, 538.037
1212.486, 484.987
1213.707, 525.213
1214.927, 462.688
1216.147, 368.982
1217.367, 418.822
1218.587, 351.210
1219.807, 264.312
1221.027, 255.422
1222.246, 147.859
1223.465, 219.935
1224.684, 231.590
1225.903, 167.662
1227.121, 81.293
1228.340, 122.872
1229.558, 59.962
1230.776, 140.359
1231.994, 59.859
1233.212, 135.525
1234.429, 19.272
1235.646, 44.912
1236.864, 80.102
1238.081, 135.732
1239.297, 97.402
1240.514, 51.515
1241.730, 41.368
1242.947, 2.267
1244.163, 111.181
1245.378, 5.857
1246.594, 125.863
1247.810, 22.757
1249.025, 38.784
1250.240, 25.764
1251.455, 68.523
1252.670, 84.448
1253.885, 34.361
1255.099, 16.440
1256.313, 120.225
1257.527, 26.367
1258.741, 28.552
1259.955, 73.759
1261.168, 8.005
1262.382, 41.729
1263.595, 14.653
1264.808, 309.529
1266.021, 542.265
1267.233, 570.193
1268.446, 629.839
1269.658, 454.817
1270.870, 337.788
1272.082, 243.383
1273.294, 178.397
1274.505, 85.259
1275.716, 28.986
1276.928, 38.333
1278.139, 41.841
1279.349, 43.354
1280.560, 51.155
1281.770, 5.044
1282.981, 21.724
1284.191, 10.490
1285.401, 9.701
1286.610, 35.139
1287.820, 49.051
1289.029, 74.008
1290.239, 79.938
1291.448, 18.847
1292.656, 50.725
1293.865, 57.547
1295.073, 28.438
1296.282, 38.312
1297.490, 1.984
1298.698, 24.604
1299.906, 22.212
1301.113, 36.703
1302.320, 7.206
1303.528, 93.568
1304.735, 11.113
1305.942, 5.139
1307.148, 129.347
1308.355, 34.522
1309.561, 5.662
1310.767, 14.764
1311.973, 84.827
1313.179, 32.854
1314.384, 144.841
1315.590, 103.792
1316.795, 91.703
1318.000, 2.426
1319.205, 58.395
1320.410, 116.176
1321.614, 17.917
1322.819, 100.610
1324.023, 5.260
1325.227, 5.143
1326.431, 18.398
1327.634, 23.108
1328.838, 35.325
1330.041, 50.290
1331.244, 22.978
1332.447, 8.272
1333.650, 37.472
1334.852, 28.622
1336.055, 60.727
1337.257, 49.215
1338.459, 79.773
1339.661, 137.718
1340.862, 30.621
1342.064, 1.479
1343.265, 33.714
1344.466, 111.034
1345.667, 11.743
1346.868, 108.402
1348.068, 109.023
1349.269, 3.396
1350.469, 31.131
1351.669, 21.612
1352.869, 91.233
1354.069, 67.152
1355.268, 12.924
1356.468, 32.378
1357.667, 64.728
1358.866, 25.136
1360.065, 53.332
1361.263, 39.474
1362.462, 4.575
1363.660, 10.088
1364.858, 32.896
1366.056, 4.876
1367.254, 79.882
1368.451, 132.775
1369.649, 4.496
1370.846, 136.172
1372.043, 53.788
1373.240, 13.608
1374.436, 189.059
1375.633, 163.456
1376.829, 123.537
1378.025, 256.400
1379.221, 426.741
1380.417, 780.610
1381.613, 1202.019
1382.808, 1241.668
1384.003, 1201.386
1385.199, 1290.384
1386.393, 780.875
1387.588, 491.414
1388.783, 282.241
1389.977, 288.998
1391.171, 132.892
1392.365, 290.782
1393.559, 212.665
1394.753, 161.724
1395.946, 199.737
1397.140, 194.704
1398.333, 236.626
1399.526, 165.249
1400.719, 282.967
1401.911, 297.133
1403.104, 232.798
1404.296, 255.520
1405.488, 298.050
1406.680, 166.616
1407.872, 177.981
1409.063, 211.319
1410.255, 162.737
1411.446, 266.610
1412.637, 147.920
1413.828, 143.820
1415.018, 236.060
1416.209, 277.479
1417.399, 219.598
1418.589, 287.406
1419.779, 230.298
1420.969, 269.264
1422.159, 228.777
1423.348, 156.084
1424.537, 185.770
1425.726, 228.119
1426.915, 286.053
1428.104, 252.479
1429.293, 278.667
1430.481, 221.461
1431.669, 261.562
1432.857, 217.810
1434.045, 224.857
1435.233, 277.698
1436.420, 240.879
1437.608, 188.641
1438.795, 131.284
1439.982, 246.497
1441.169, 227.427
1442.355, 166.462
1443.542, 333.158
1444.728, 150.766
1445.914, 245.602
1447.100, 199.856
1448.286, 244.364
1449.472, 270.105
1450.657, 382.182
1451.842, 217.140
1453.027, 210.013
1454.212, 276.738
1455.397, 169.396
1456.581, 297.212
1457.766, 335.623
1458.950, 228.001
1460.134, 267.681
1461.318, 254.836
1462.501, 252.702
1463.685, 265.484
1464.868, 225.176
1466.051, 213.830
1467.234, 140.312
1468.417, 182.521
1469.600, 194.357
1470.782, 239.047
1471.965, 204.547
1473.147, 257.455
1474.329, 163.999
1475.510, 147.613
1476.692, 180.281
1477.873, 197.118
1479.055, 169.913
1480.236, 232.915
1481.416, 158.911
1482.597, 236.993
1483.778, 122.307
1484.958, 207.090
1486.138, 121.918
1487.318, 201.658
1488.498, 211.315
1489.678, 139.925
1490.857, 151.516
1492.037, 247.110
1493.216, 223.701
1494.395, 62.368
1495.574, 216.143
1496.752, 84.015
1497.931, 221.100
1499.109, 19.666
1500.287, 60.721
1501.465, 101.327
1502.643, 198.106
1503.820, 200.014
1504.998, 89.067
1506.175, 66.319
1507.352, 115.821
1508.529, 91.510
1509.706, 119.294
1510.882, 227.416
1512.059, 333.310
1513.235, 131.094
1514.411, 4.433
1515.587, 212.337
1516.762, 211.523
1517.938, 79.912
1519.113, 29.578
1520.288, 0.000
##END=



