##NAMES=Cordierite
##RRUFFID=R040084
##IDEAL CHEMISTRY=Mg_2_Al_3_(AlSi_5_)O_18_
##LOCALITY=Norway
##OWNER=RRUFF
##SOURCE=University of Arizona Mineral Museum
##DESCRIPTION=Purple coarsely crystalline massive
##STATUS=The identification of this mineral has been confirmed by X-ray diffraction and chemical analysis
##URL=rruff.info/R040084
##MEASURED CHEMISTRY=(Mg_1.88_Fe^2+^_0.11_Ca_0.01_)_Σ=2_(Al_3.95_Fe^3+^_0.05_)_Σ=4_(Si_4.96_Al_0.04_)_Σ=5_O_18_·0.90H_2_O·Na_0.04_ ; H_2_O estimated by difference and verified by Raman spectroscopy
##PIN_ID=L00497
##ORIENTATION=Laser parallel to b* (0 1 0). Fiducial mark perpendicular to laser is parallel to c [0 0 1]
119.119, 0.000
120.508, 3.613
121.897, 352.828
123.286, 764.621
124.675, 1679.062
126.063, 2560.911
127.452, 3473.254
128.840, 4113.677
130.228, 4214.012
131.615, 3836.355
133.003, 2913.612
134.390, 3359.498
135.777, 1191.855
137.164, 716.227
138.550, 457.379
139.937, 267.338
141.323, 177.957
142.709, 131.793
144.094, 109.109
145.480, 96.231
146.865, 139.235
148.250, 268.680
149.635, 499.295
151.019, 722.499
152.403, 1020.641
153.788, 1369.130
155.171, 1891.307
156.555, 2442.196
157.939, 2749.177
159.322, 2875.241
160.705, 2565.385
162.088, 1998.277
163.470, 1372.274
164.853, 864.695
166.235, 603.237
167.617, 377.894
168.998, 193.674
170.380, 8.238
171.761, 53.363
173.142, 37.843
174.523, 14.516
175.904, 39.967
177.284, 18.615
178.664, 107.748
180.044, 71.056
181.424, 48.312
182.803, 34.520
184.183, 3.318
185.562, 59.803
186.940, 41.887
188.319, 85.061
189.698, 183.055
191.076, 314.108
192.454, 522.216
193.831, 610.457
195.209, 605.777
196.586, 516.117
197.963, 395.461
199.340, 429.811
200.717, 282.174
202.093, 239.665
203.470, 187.354
204.846, 143.768
206.221, 233.320
207.597, 139.519
208.972, 221.874
210.347, 271.351
211.722, 217.883
213.097, 201.455
214.472, 185.059
215.846, 192.684
217.220, 129.313
218.594, 83.198
219.967, 78.250
221.341, 15.788
222.714, 19.308
224.087, 16.190
225.460, 5.295
226.832, 12.238
228.204, 34.179
229.577, 122.893
230.948, 269.842
232.320, 604.864
233.692, 960.749
235.063, 1701.566
236.434, 2743.368
237.805, 3804.206
239.175, 4599.068
240.545, 5000.952
241.916, 4946.835
243.286, 4112.711
244.655, 3443.581
246.025, 2711.444
247.394, 2330.300
248.763, 2056.149
250.132, 2103.995
251.501, 2294.830
252.869, 2761.646
254.237, 3829.423
255.605, 5645.152
256.973, 8310.854
258.340, 11726.845
259.708, 14593.537
261.075, 15740.111
262.442, 15166.650
263.808, 12402.977
265.175, 9359.630
266.541, 6189.075
267.907, 4079.447
269.273, 2805.445
270.639, 1885.992
272.004, 1430.650
273.369, 1023.161
274.734, 767.666
276.099, 582.166
277.463, 488.660
278.828, 497.147
280.192, 349.967
281.556, 321.944
282.919, 175.545
284.283, 272.688
285.646, 226.250
287.009, 274.939
288.372, 195.179
289.734, 263.416
291.097, 298.647
292.459, 296.059
293.821, 342.238
295.183, 371.420
296.544, 342.833
297.905, 469.688
299.266, 431.199
300.627, 552.803
301.988, 658.166
303.348, 756.046
304.709, 851.810
306.069, 976.471
307.428, 1096.042
308.788, 932.529
310.147, 754.837
311.507, 464.876
312.865, 295.679
314.224, 244.056
315.583, 101.178
316.941, 106.102
318.299, 50.906
319.657, 147.710
321.015, 235.517
322.372, 298.327
323.729, 573.140
325.086, 839.956
326.443, 925.770
327.800, 975.582
329.156, 693.395
330.512, 531.208
331.868, 353.021
333.224, 288.709
334.579, 172.913
335.935, 53.479
337.290, 163.606
338.645, 125.979
339.999, 118.266
341.354, 100.764
342.708, 220.188
344.062, 223.859
345.416, 295.654
346.769, 424.870
348.123, 422.336
349.476, 569.517
350.829, 721.781
352.182, 819.744
353.534, 1087.532
354.887, 1152.188
356.239, 1444.928
357.591, 1633.088
358.942, 1967.944
360.294, 2327.940
361.645, 2952.566
362.996, 3782.188
364.347, 4995.806
365.698, 6221.421
367.048, 6937.031
368.398, 6942.461
369.748, 6118.057
371.098, 4863.463
372.448, 3632.043
373.797, 2630.616
375.146, 2046.179
376.495, 1549.734
377.844, 1261.280
379.192, 984.816
380.540, 758.134
381.889, 665.246
383.236, 477.322
384.584, 440.762
385.932, 312.260
387.279, 286.078
388.626, 290.229
389.973, 142.308
391.319, 177.994
392.666, 276.205
394.012, 107.626
395.358, 103.040
396.704, 48.447
398.049, 19.846
399.394, 70.237
400.740, 17.621
402.084, 51.997
403.429, 30.365
404.774, 69.724
406.118, 52.076
407.462, 14.419
408.806, 41.076
410.150, 35.917
411.493, 43.389
412.836, 4.688
414.179, 18.023
415.522, 40.250
416.865, 2.484
418.207, 40.771
419.549, 7.018
420.891, 97.255
422.233, 137.481
423.575, 167.697
424.916, 282.904
426.257, 458.102
427.598, 555.288
428.939, 649.453
430.279, 644.597
431.619, 597.729
432.959, 423.851
434.299, 328.966
435.639, 266.076
436.978, 201.181
438.318, 45.279
439.657, 173.370
440.996, 10.457
442.334, 48.467
443.673, 31.584
445.011, 40.390
446.349, 23.407
447.687, 68.463
449.024, 11.581
450.361, 58.731
451.699, 26.941
453.036, 1.809
454.372, 18.532
455.709, 45.767
457.045, 19.118
458.381, 28.019
459.717, 24.931
461.053, 14.604
462.388, 34.118
463.724, 127.612
465.059, 164.091
466.394, 266.556
467.728, 335.008
469.063, 415.447
470.397, 452.870
471.731, 490.280
473.065, 612.677
474.398, 690.062
475.732, 830.436
477.065, 1018.406
478.398, 1147.392
479.731, 1092.032
481.063, 1071.182
482.396, 976.520
483.728, 665.849
485.060, 732.171
486.391, 528.486
487.723, 525.799
489.054, 627.105
490.385, 457.403
491.716, 503.693
493.047, 400.976
494.377, 321.252
495.708, 282.475
497.038, 133.146
498.368, 149.378
499.697, 63.464
501.027, 8.446
502.356, 50.431
503.685, 31.888
505.014, 10.772
506.342, 2.576
507.671, 32.066
508.999, 9.693
510.327, 88.307
511.655, 42.929
512.982, 16.583
514.310, 13.253
515.637, 72.081
516.964, 53.593
518.291, 41.703
519.617, 6.995
520.944, 233.280
522.270, 125.601
523.596, 99.930
524.921, 173.262
526.247, 154.632
527.572, 167.005
528.897, 229.411
530.222, 316.809
531.547, 392.222
532.871, 410.639
534.196, 414.057
535.520, 484.484
536.844, 566.927
538.167, 826.362
539.491, 773.790
540.814, 1048.210
542.137, 1130.624
543.460, 1487.038
544.783, 1808.448
546.105, 2217.855
547.427, 3076.267
548.749, 3767.678
550.071, 5132.090
551.393, 6436.500
552.714, 8050.905
554.035, 9675.184
555.356, 10619.437
556.677, 10353.456
557.998, 10187.326
559.318, 8811.423
560.638, 7905.262
561.958, 6889.267
563.278, 6323.178
564.597, 6067.248
565.917, 6141.238
567.236, 6275.025
568.555, 6808.955
569.874, 7530.180
571.192, 8834.106
572.511, 10447.789
573.829, 12620.127
575.147, 14914.018
576.464, 17047.322
577.782, 18951.201
579.099, 19014.877
580.416, 18598.980
581.733, 16643.205
583.050, 14207.420
584.366, 11751.630
585.683, 9505.830
586.999, 7620.022
588.315, 6174.206
589.630, 5128.382
590.946, 4172.550
592.261, 3526.711
593.576, 3018.863
594.891, 2677.005
596.206, 2250.738
597.520, 1973.934
598.834, 1693.052
600.148, 1608.662
601.462, 1473.010
602.776, 1321.718
604.089, 1171.566
605.402, 1124.580
606.715, 1005.756
608.028, 931.476
609.341, 887.401
610.653, 869.292
611.965, 877.749
613.277, 863.673
614.589, 903.188
615.901, 872.534
617.212, 973.274
618.523, 1078.187
619.834, 1120.968
621.145, 1129.785
622.456, 1266.026
623.766, 1291.277
625.076, 1391.169
626.386, 1307.431
627.696, 1371.399
629.006, 1222.573
630.315, 1086.530
631.624, 962.480
632.933, 832.521
634.242, 784.460
635.551, 748.808
636.859, 663.886
638.167, 600.822
639.475, 570.013
640.783, 472.025
642.090, 613.140
643.398, 474.044
644.705, 512.235
646.012, 452.401
647.318, 501.390
648.625, 490.279
649.931, 545.446
651.237, 722.528
652.543, 585.415
653.849, 735.250
655.155, 737.103
656.460, 729.168
657.765, 981.864
659.070, 1101.990
660.375, 1185.525
661.679, 1603.066
662.984, 1951.969
664.288, 2458.484
665.592, 3055.502
666.895, 3965.996
668.199, 5030.011
669.502, 5950.979
670.805, 6844.237
672.108, 6922.198
673.411, 6835.857
674.713, 6008.199
676.016, 4912.727
677.318, 4197.317
678.620, 3320.951
679.921, 2548.456
681.223, 2217.412
682.524, 1802.053
683.825, 1612.121
685.126, 1312.058
686.427, 1136.938
687.727, 1083.793
689.028, 1013.920
690.328, 897.578
691.628, 810.278
692.927, 835.396
694.227, 847.006
695.526, 759.839
696.825, 796.427
698.124, 849.143
699.423, 905.749
700.721, 910.469
702.020, 911.146
703.318, 1025.859
704.616, 1036.527
705.913, 1129.037
707.211, 1165.568
708.508, 1277.400
709.805, 1376.941
711.102, 1400.405
712.399, 1370.992
713.695, 1340.371
714.992, 1272.675
716.288, 1139.292
717.584, 1098.706
718.879, 924.896
720.175, 846.291
721.470, 626.785
722.765, 601.159
724.060, 573.524
725.355, 468.878
726.649, 542.235
727.944, 369.583
729.238, 454.921
730.532, 444.258
731.825, 298.584
733.119, 436.904
734.412, 409.217
735.705, 346.521
736.998, 609.814
738.291, 451.097
739.584, 553.368
740.876, 487.628
742.168, 515.876
743.460, 476.113
744.752, 423.344
746.043, 376.553
747.334, 315.756
748.626, 244.948
749.916, 203.128
751.207, 183.770
752.498, 246.455
753.788, 188.603
755.078, 194.739
756.368, 231.867
757.658, 181.000
758.947, 107.123
760.237, 78.250
761.526, 84.375
762.815, 81.510
764.104, 46.640
765.392, 53.668
766.680, 141.910
767.969, 26.036
769.257, 102.151
770.544, 64.269
771.832, 76.384
773.119, 82.499
774.406, 50.611
775.693, 60.712
776.980, 40.803
778.267, 36.880
779.553, 5.945
780.839, 30.989
782.125, 135.023
783.411, 49.046
784.697, 194.057
785.982, 109.057
787.267, 76.045
788.552, 138.023
789.837, 17.995
791.122, 62.951
792.406, 95.895
793.690, 33.828
794.974, 74.748
796.258, 48.661
797.542, 126.562
798.825, 0.549
800.108, 31.317
801.391, 72.170
802.674, 94.012
803.957, 25.843
805.239, 44.660
806.522, 89.465
807.804, 11.740
809.085, 112.025
810.367, 41.781
811.649, 91.524
812.930, 70.257
814.211, 66.983
815.492, 98.713
816.772, 186.434
818.053, 66.149
819.333, 99.145
820.613, 12.497
821.893, 75.873
823.173, 74.721
824.452, 8.317
825.732, 64.100
827.011, 95.434
828.290, 15.042
829.568, 2.468
830.847, 1.041
832.125, 139.571
833.403, 42.196
834.681, 17.864
835.959, 156.562
837.236, 20.364
838.514, 130.197
839.791, 34.881
841.068, 66.053
842.345, 23.041
843.621, 16.062
844.898, 49.109
846.174, 72.203
847.450, 107.646
848.726, 22.487
850.001, 94.316
851.277, 43.137
852.552, 3.051
853.827, 34.740
855.102, 41.523
856.376, 29.296
857.651, 36.059
858.925, 73.812
860.199, 61.559
861.473, 7.296
862.746, 52.022
864.020, 177.740
865.293, 33.450
866.566, 152.151
867.839, 82.846
869.112, 145.533
870.384, 109.212
871.656, 4.114
872.928, 178.543
874.200, 32.194
875.472, 161.837
876.744, 95.474
878.015, 129.103
879.286, 221.727
880.557, 75.343
881.828, 146.954
883.098, 139.557
884.369, 221.155
885.639, 186.747
886.909, 163.895
888.178, 148.474
889.448, 296.048
890.717, 290.781
891.987, 331.343
893.256, 296.899
894.524, 300.451
895.793, 562.996
897.061, 590.536
898.330, 700.071
899.598, 728.601
900.865, 959.126
902.133, 1091.647
903.401, 1047.163
904.668, 971.675
905.935, 895.183
907.202, 731.687
908.468, 861.187
909.735, 707.684
911.001, 722.175
912.267, 920.665
913.533, 969.048
914.799, 1296.453
916.064, 1404.845
917.330, 1692.087
918.595, 2234.355
919.860, 2405.823
921.124, 2546.971
922.389, 2418.432
923.653, 1989.735
924.918, 1683.087
926.182, 1254.462
927.445, 1058.700
928.709, 1008.979
929.972, 756.193
931.236, 763.367
932.499, 661.893
933.761, 636.810
935.024, 488.241
936.286, 554.460
937.549, 505.888
938.811, 541.313
940.073, 523.643
941.334, 589.132
942.596, 464.139
943.857, 545.411
945.118, 670.819
946.379, 612.969
947.640, 697.197
948.900, 837.406
950.161, 778.817
951.421, 937.938
952.681, 990.074
953.940, 1094.383
955.200, 1112.783
956.459, 1187.897
957.719, 1435.110
958.978, 1526.512
960.236, 1865.957
961.495, 2117.384
962.753, 2428.589
964.012, 3220.004
965.270, 3761.330
966.527, 5002.645
967.785, 6714.070
969.043, 8755.495
970.300, 12626.810
971.557, 16310.802
972.814, 19021.693
974.071, 19127.154
975.327, 16108.513
976.583, 12549.233
977.840, 9105.457
979.095, 6486.889
980.351, 4786.206
981.607, 3596.633
982.862, 2596.850
984.117, 2218.382
985.372, 1586.037
986.627, 1375.235
987.882, 1109.745
989.136, 917.819
990.390, 869.021
991.644, 695.277
992.898, 664.552
994.152, 557.552
995.405, 506.033
996.659, 507.467
997.912, 463.485
999.165, 480.008
1000.417, 545.306
1001.670, 496.860
1002.922, 661.285
1004.174, 477.815
1005.426, 626.264
1006.678, 828.753
1007.930, 856.204
1009.181, 1208.694
1010.432, 1480.340
1011.683, 1471.986
1012.934, 1623.330
1014.185, 1444.963
1015.435, 1146.672
1016.685, 820.256
1017.935, 678.980
1019.185, 690.723
1020.435, 463.472
1021.684, 418.229
1022.934, 371.212
1024.183, 251.988
1025.432, 334.662
1026.680, 139.455
1027.929, 206.255
1029.177, 79.067
1030.425, 115.885
1031.673, 222.713
1032.921, 244.568
1034.169, 86.433
1035.416, 111.304
1036.663, 37.812
1037.911, 65.072
1039.157, 125.979
1040.404, 16.107
1041.650, 34.813
1042.897, 142.747
1044.143, 180.689
1045.389, 155.643
1046.634, 135.621
1047.880, 107.608
1049.125, 180.659
1050.371, 172.720
1051.615, 357.789
1052.860, 138.924
1054.105, 91.067
1055.349, 246.221
1056.593, 145.410
1057.837, 151.610
1059.081, 30.818
1060.325, 114.050
1061.568, 173.289
1062.812, 115.542
1064.055, 145.290
1065.298, 136.149
1066.540, 94.354
1067.783, 111.642
1069.025, 88.940
1070.267, 64.248
1071.509, 71.950
1072.751, 116.896
1073.993, 49.234
1075.234, 124.582
1076.475, 81.939
1077.716, 149.306
1078.957, 1.318
1080.198, 20.068
1081.438, 190.465
1082.679, 47.126
1083.919, 99.323
1085.159, 56.743
1086.398, 21.173
1087.638, 226.610
1088.877, 22.058
1090.116, 58.276
1091.355, 114.178
1092.594, 27.923
1093.833, 85.397
1095.071, 65.880
1096.309, 52.627
1097.547, 162.993
1098.785, 135.496
1100.023, 7.245
1101.260, 142.772
1102.498, 95.309
1103.735, 270.854
1104.972, 286.408
1106.208, 439.373
1107.445, 601.946
1108.681, 604.527
1109.918, 727.568
1111.154, 810.175
1112.389, 652.790
1113.625, 555.413
1114.860, 518.044
1116.096, 430.685
1117.331, 353.330
1118.566, 250.985
1119.800, 259.648
1121.035, 199.351
1122.269, 261.062
1123.503, 526.811
1124.737, 499.564
1125.971, 192.331
1127.205, 242.131
1128.438, 7.937
1129.671, 210.760
1130.904, 185.597
1132.137, 15.445
1133.370, 231.342
1134.602, 186.262
1135.834, 202.198
1137.066, 268.187
1138.298, 57.190
1139.530, 304.814
1140.762, 277.916
1141.993, 183.150
1143.224, 368.402
1144.455, 231.572
1145.686, 446.147
1146.917, 479.838
1148.147, 373.090
1149.377, 610.436
1150.607, 584.192
1151.837, 547.428
1153.067, 659.433
1154.296, 542.980
1155.526, 756.570
1156.755, 809.992
1157.984, 733.250
1159.213, 842.867
1160.441, 1016.786
1161.670, 880.054
1162.898, 1244.305
1164.126, 1107.883
1165.354, 1361.157
1166.581, 1566.466
1167.809, 1669.828
1169.036, 1923.312
1170.263, 2147.271
1171.490, 2360.558
1172.717, 3063.995
1173.943, 3487.390
1175.170, 4320.679
1176.396, 5144.589
1177.622, 6047.877
1178.848, 7631.584
1180.073, 9199.109
1181.299, 11392.563
1182.524, 13856.053
1183.749, 15679.816
1184.974, 17292.691
1186.199, 17348.631
1187.423, 15812.103
1188.648, 13535.362
1189.872, 10829.859
1191.096, 8253.189
1192.320, 6866.898
1193.543, 5264.379
1194.767, 4297.732
1195.990, 3423.897
1197.213, 2817.658
1198.436, 2401.119
1199.659, 1977.776
1200.881, 1631.056
1202.104, 1574.700
1203.326, 1174.948
1204.548, 1128.177
1205.770, 1031.720
1206.991, 718.096
1208.213, 731.541
1209.434, 595.776
1210.655, 538.975
1211.876, 522.395
1213.096, 415.854
1214.317, 409.055
1215.537, 362.257
1216.757, 315.753
1217.977, 288.962
1219.197, 263.029
1220.417, 316.268
1221.636, 309.485
1222.855, 132.846
1224.074, 176.068
1225.293, 119.424
1226.512, 172.882
1227.731, 356.110
1228.949, 89.341
1230.167, 61.802
1231.385, 235.036
1232.603, 148.249
1233.820, 101.465
1235.038, 124.678
1236.255, 27.895
1237.472, 220.044
1238.689, 13.262
1239.906, 106.480
1241.122, 209.700
1242.338, 112.921
1243.555, 55.234
1244.771, 118.457
1245.986, 31.682
1247.202, 154.905
1248.417, 138.130
1249.633, 141.353
1250.848, 204.548
1252.063, 62.264
1253.277, 170.899
1254.492, 144.035
1255.706, 7.116
1256.920, 330.188
1258.134, 153.259
1259.348, 106.281
1260.562, 369.296
1261.775, 302.306
1262.988, 195.298
1264.201, 568.280
1265.414, 291.260
1266.627, 604.235
1267.839, 767.203
1269.052, 990.481
1270.264, 1343.406
1271.476, 1306.321
1272.688, 1209.871
1273.899, 1172.746
1275.111, 725.611
1276.322, 658.688
1277.533, 461.405
1278.744, 284.071
1279.955, 356.663
1281.165, 159.188
1282.376, 161.672
1283.586, 244.135
1284.796, 26.583
1286.006, 229.915
1287.215, 122.334
1288.425, 35.271
1289.634, 147.573
1290.843, 9.921
1292.052, 52.243
1293.261, 144.646
1294.469, 33.066
1295.678, 50.057
1296.886, 252.291
1298.094, 105.495
1299.302, 86.665
1300.509, 78.802
1301.717, 120.919
1302.924, 213.013
1304.131, 64.916
1305.338, 47.106
1306.545, 239.104
1307.752, 31.080
1308.958, 93.029
1310.164, 214.956
1311.370, 6.859
1312.576, 148.730
1313.782, 120.572
1314.987, 52.379
1316.193, 324.158
1317.398, 135.911
1318.603, 147.643
1319.807, 209.356
1321.012, 61.054
1322.216, 202.538
1323.421, 83.990
1324.625, 24.584
1325.829, 136.795
1327.032, 128.127
1328.236, 79.433
1329.439, 140.705
1330.642, 1.953
1331.845, 133.157
1333.048, 144.330
1334.251, 35.472
1335.453, 166.574
1336.656, 87.643
1337.858, 21.325
1339.060, 159.651
1340.261, 159.397
1341.463, 81.473
1342.664, 132.316
1343.866, 166.861
1345.067, 173.879
1346.267, 95.006
1347.468, 64.290
1348.669, 186.369
1349.869, 107.020
1351.069, 2.336
1352.269, 128.425
1353.469, 48.973
1354.668, 249.424
1355.868, 129.789
1357.067, 122.673
1358.266, 205.548
1359.465, 218.413
1360.664, 121.260
1361.862, 314.096
1363.061, 66.921
1364.259, 189.735
1365.457, 282.504
1366.655, 165.303
1367.852, 238.092
1369.050, 170.644
1370.247, 143.106
1371.444, 485.869
1372.641, 298.484
1373.838, 270.956
1375.035, 453.687
1376.231, 221.273
1377.427, 513.926
1378.623, 746.041
1379.819, 1028.664
1381.015, 2201.277
1382.211, 4503.877
1383.406, 7986.465
1384.601, 8949.042
1385.796, 5691.604
1386.991, 2954.148
1388.185, 2036.680
1389.380, 969.202
1390.574, 981.719
1391.768, 764.231
1392.962, 565.902
1394.156, 702.523
1395.350, 442.887
1396.543, 514.438
1397.736, 570.108
1398.929, 389.729
1400.122, 560.808
1401.315, 702.550
1402.507, 294.118
1403.700, 534.483
1404.892, 505.831
1406.084, 324.369
1407.276, 414.740
1408.467, 426.227
1409.659, 287.776
1410.850, 558.481
1412.041, 132.505
1413.232, 243.479
1414.423, 443.992
1415.614, 100.669
1416.804, 319.789
1417.994, 280.391
1419.184, 144.134
1420.374, 351.035
1421.564, 146.801
1422.753, 166.568
1423.943, 283.730
1425.132, 167.313
1426.321, 245.034
1427.510, 354.734
1428.698, 135.736
1429.887, 243.617
1431.075, 261.642
1432.263, 61.277
1433.451, 310.536
1434.639, 289.118
1435.827, 118.407
1437.014, 357.559
1438.201, 36.669
1439.388, 265.638
1440.575, 404.446
1441.762, 173.083
1442.949, 381.543
1444.135, 259.811
1445.321, 247.877
1446.507, 325.818
1447.693, 233.674
1448.879, 271.637
1450.064, 429.571
1451.250, 127.584
1452.435, 305.466
1453.620, 433.216
1454.805, 150.758
1455.989, 397.134
1457.174, 372.224
1458.358, 119.439
1459.542, 416.108
1460.726, 294.410
1461.910, 193.378
1463.093, 482.462
1464.277, 125.800
1465.460, 251.099
1466.643, 368.252
1467.826, 94.781
1469.009, 307.313
1470.191, 373.725
1471.373, 119.937
1472.556, 385.956
1473.738, 241.772
1474.919, 157.346
1476.101, 422.646
1477.283, 77.692
1478.464, 202.603
1479.645, 327.182
1480.826, 151.134
1482.007, 197.842
1483.187, 254.528
1484.368, 71.549
1485.548, 308.650
1486.728, 255.940
1487.908, 6.405
1489.088, 401.861
1490.268, 61.024
1491.447, 110.815
1492.626, 431.442
1493.805, 0.624
1494.984, 156.782
1496.163, 297.420
1497.341, 0.000
##END=



