##NAMES=Cordierite
##RRUFFID=R040084
##IDEAL CHEMISTRY=Mg_2_Al_3_(AlSi_5_)O_18_
##LOCALITY=Norway
##OWNER=RRUFF
##SOURCE=University of Arizona Mineral Museum
##DESCRIPTION=Purple coarsely crystalline massive
##STATUS=The identification of this mineral has been confirmed by X-ray diffraction and chemical analysis
##URL=rruff.info/R040084
##MEASURED CHEMISTRY=(Mg_1.88_Fe^2+^_0.11_Ca_0.01_)_Σ=2_(Al_3.95_Fe^3+^_0.05_)_Σ=4_(Si_4.96_Al_0.04_)_Σ=5_O_18_·0.90H_2_O·Na_0.04_ ; H_2_O estimated by difference and verified by Raman spectroscopy
##PIN_ID=L00443
##ORIENTATION=Laser parallel to a* (1 0 0). Fiducial mark perpendicular to laser is parallel to -b [0 -1 0]
89.254, 0.000
90.650, 5.223
92.046, 126.766
93.442, 52.541
94.838, 223.860
96.233, 83.074
97.628, 5.715
99.023, 105.494
100.418, 233.819
101.812, 155.529
103.206, 258.745
104.600, 358.781
105.994, 680.091
107.387, 1079.274
108.781, 1797.987
110.174, 3786.921
111.566, 3907.690
112.959, 3825.531
114.351, 4854.843
115.744, 2820.583
117.136, 2437.622
118.527, 2425.834
119.919, 2545.110
121.310, 2735.353
122.701, 3096.484
124.092, 3698.656
125.482, 3911.776
126.873, 4205.527
128.263, 4299.880
129.653, 3754.852
131.042, 3360.469
132.432, 2656.700
133.821, 2013.490
135.210, 1742.785
136.599, 1532.538
137.987, 1345.708
139.376, 1145.263
140.764, 1106.174
142.152, 1009.410
143.539, 929.946
144.927, 963.761
146.314, 896.832
147.701, 1020.142
149.088, 1068.674
150.474, 1319.412
151.861, 1495.344
153.247, 1926.454
154.633, 2167.733
156.018, 2519.378
157.404, 2564.397
158.789, 2369.061
160.174, 2034.854
161.559, 1660.615
162.943, 1212.497
164.327, 806.566
165.711, 668.938
167.095, 584.732
168.479, 571.141
169.862, 536.277
171.246, 410.067
172.628, 304.229
174.011, 234.341
175.394, 334.451
176.776, 308.642
178.158, 315.813
179.540, 371.921
180.922, 289.964
182.303, 268.966
183.684, 363.957
185.065, 308.950
186.446, 382.942
187.826, 485.937
189.207, 566.939
190.587, 627.937
191.967, 785.917
193.346, 763.883
194.726, 782.836
196.105, 765.779
197.484, 653.713
198.862, 832.637
200.241, 833.553
201.619, 992.462
202.997, 1214.364
204.375, 1305.261
205.753, 1487.149
207.130, 1608.032
208.507, 1383.907
209.884, 1350.773
211.261, 927.633
212.638, 653.483
214.014, 468.324
215.390, 340.156
216.766, 180.979
218.141, 118.789
219.517, 125.588
220.892, 10.626
222.267, 38.148
223.642, 54.091
225.016, 62.249
226.391, 47.613
227.765, 58.896
229.139, 81.194
230.512, 48.509
231.886, 97.791
233.259, 205.811
234.632, 527.445
236.005, 843.061
237.377, 1200.219
238.749, 1408.787
240.122, 1449.088
241.493, 1485.820
242.865, 1264.393
244.237, 1194.292
245.608, 1201.512
246.979, 1198.903
248.350, 1297.239
249.720, 1550.104
251.090, 2023.709
252.461, 2974.238
253.830, 4371.119
255.200, 6087.615
256.570, 8291.161
257.939, 10212.188
259.308, 11195.945
260.677, 11156.845
262.045, 9362.516
263.414, 6939.570
264.782, 4722.675
266.150, 3406.670
267.517, 2389.206
268.885, 1821.920
270.252, 1350.792
271.619, 1061.818
272.986, 1239.473
274.353, 746.881
275.719, 730.323
277.085, 797.004
278.451, 703.515
279.817, 772.463
281.182, 784.081
282.548, 822.107
283.913, 837.572
285.278, 919.235
286.642, 1187.249
288.007, 1552.032
289.371, 1906.073
290.735, 2380.132
292.099, 2874.226
293.462, 3438.350
294.826, 3572.501
296.189, 3606.677
297.552, 3720.874
298.914, 3625.090
300.277, 3719.322
301.639, 3673.568
303.001, 4057.827
304.363, 4372.095
305.724, 4706.373
307.086, 4460.656
308.447, 3934.946
309.808, 3119.238
311.168, 2173.535
312.529, 1417.831
313.889, 1312.128
315.249, 628.424
316.609, 494.718
317.969, 341.009
319.328, 335.296
320.687, 593.576
322.046, 829.835
323.405, 1212.071
324.764, 1686.282
326.122, 2000.487
327.480, 1824.684
328.838, 1618.872
330.196, 1233.049
331.553, 898.216
332.910, 629.366
334.267, 419.499
335.624, 327.611
336.981, 324.699
338.337, 126.765
339.693, 217.808
341.049, 153.825
342.405, 120.821
343.760, 125.794
345.116, 214.743
346.471, 181.670
347.826, 286.574
349.180, 306.454
350.535, 328.312
351.889, 429.147
353.243, 506.959
354.597, 570.747
355.950, 604.513
357.304, 665.262
358.657, 689.971
360.010, 729.666
361.362, 720.337
362.715, 694.985
364.067, 717.610
365.419, 736.212
366.771, 647.789
368.123, 625.346
369.474, 482.877
370.825, 495.387
372.176, 309.871
373.527, 284.334
374.877, 217.772
376.228, 267.188
377.578, 236.578
378.928, 164.946
380.277, 111.292
381.627, 21.613
382.976, 90.907
384.325, 89.092
385.674, 55.661
387.023, 21.895
388.371, 55.281
389.719, 9.113
391.067, 105.739
392.415, 71.881
393.762, 42.546
395.110, 49.485
396.457, 9.565
397.804, 93.683
399.150, 104.860
400.497, 35.106
401.843, 121.425
403.189, 174.815
404.535, 89.344
405.881, 79.967
407.226, 117.685
408.571, 181.551
409.916, 45.567
411.261, 107.730
412.605, 74.034
413.950, 97.480
415.294, 29.062
416.638, 67.744
417.981, 20.489
419.325, 50.726
420.668, 1.928
422.011, 104.905
423.354, 15.832
424.697, 32.807
426.039, 45.158
427.381, 28.100
428.723, 121.010
430.065, 207.905
431.406, 136.784
432.748, 120.645
434.089, 68.488
435.430, 95.307
436.770, 47.104
438.111, 43.316
439.451, 52.182
440.791, 41.311
442.131, 54.980
443.471, 90.619
444.810, 68.233
446.149, 30.818
447.488, 118.363
448.827, 30.886
450.166, 135.366
451.504, 147.823
452.842, 232.258
454.180, 318.668
455.518, 365.055
456.855, 367.418
458.193, 491.756
459.530, 377.070
460.867, 482.361
462.203, 492.648
463.540, 622.915
464.876, 693.180
466.212, 843.420
467.548, 1073.646
468.883, 1203.849
470.219, 1214.025
471.554, 1264.176
472.889, 1174.303
474.224, 1134.404
475.558, 1164.479
476.892, 1144.530
478.227, 1194.557
479.561, 1264.556
480.894, 1264.530
482.228, 1434.479
483.561, 1624.404
484.894, 2074.303
486.227, 2344.177
487.559, 2434.033
488.892, 2703.864
490.224, 2653.678
491.556, 2263.463
492.888, 1983.226
494.220, 1462.978
495.551, 1192.706
496.882, 1082.408
498.213, 1182.087
499.544, 1091.755
500.874, 671.428
502.205, 391.075
503.535, 280.729
504.865, 250.358
506.194, 299.963
507.524, 329.559
508.853, 179.154
510.182, 178.738
511.511, 168.302
512.840, 247.840
514.168, 257.392
515.496, 226.920
516.824, 226.438
518.152, 215.969
519.480, 245.476
520.807, 524.978
522.134, 234.496
523.461, 414.024
524.788, 503.564
526.114, 403.098
527.441, 582.628
528.767, 532.134
530.093, 641.616
531.418, 681.076
532.744, 830.525
534.069, 979.949
535.394, 1089.357
536.719, 1308.773
538.044, 1688.184
539.368, 1817.600
540.693, 2247.011
542.017, 2685.896
543.340, 3435.261
544.664, 4234.604
545.987, 5288.482
547.311, 7167.040
548.634, 9126.323
549.956, 12052.956
551.279, 14683.475
552.601, 18046.094
553.923, 20425.125
555.245, 20879.012
556.567, 19615.309
557.889, 17586.244
559.210, 14736.392
560.531, 12250.835
561.852, 10099.782
563.173, 8765.300
564.493, 7666.107
565.813, 7147.435
567.133, 6916.326
568.453, 7081.146
569.773, 7214.443
571.092, 7903.781
572.412, 9085.186
573.731, 10405.072
575.049, 11779.212
576.368, 12850.887
577.686, 13575.488
579.005, 13253.667
580.323, 12239.606
581.640, 10588.805
582.958, 9013.562
584.275, 7367.222
585.593, 6125.073
586.909, 4926.739
588.226, 3831.072
589.543, 3139.885
590.859, 2578.688
592.175, 2247.467
593.491, 1905.739
594.807, 1664.363
596.122, 1382.051
597.438, 1109.586
598.753, 1197.369
600.068, 1094.786
601.382, 892.599
602.697, 851.057
604.011, 809.131
605.325, 816.056
606.639, 744.669
607.952, 751.553
609.266, 790.212
610.579, 668.882
611.892, 677.542
613.205, 766.271
614.518, 809.717
615.830, 953.554
617.142, 1032.194
618.454, 1250.816
619.766, 1334.636
621.078, 1583.438
622.389, 1577.434
623.700, 1596.024
625.011, 1647.064
626.322, 1505.639
627.632, 1454.207
628.943, 1282.767
630.253, 1101.318
631.563, 859.939
632.872, 628.475
634.182, 567.011
635.491, 525.532
636.800, 454.045
638.109, 502.553
639.418, 381.051
640.726, 359.543
642.035, 428.029
643.343, 326.599
644.651, 396.558
645.958, 265.022
647.266, 484.551
648.573, 443.003
649.880, 521.486
651.187, 703.201
652.494, 561.769
653.800, 860.191
655.106, 918.801
656.412, 1150.299
657.718, 1425.038
659.024, 1663.438
660.329, 1959.020
661.634, 2657.401
662.939, 3025.776
664.244, 4167.293
665.549, 5251.432
666.853, 6782.543
668.157, 8291.065
669.461, 9799.399
670.765, 10656.503
672.069, 10474.981
673.372, 10046.045
674.675, 8282.872
675.978, 7041.346
677.281, 5563.396
678.583, 4461.220
679.886, 3646.656
681.188, 2983.174
682.490, 2475.102
683.792, 2167.787
685.093, 1706.036
686.394, 1544.262
687.696, 1302.477
688.997, 1243.185
690.297, 1111.381
691.598, 1019.989
692.898, 950.742
694.198, 967.866
695.498, 782.388
696.798, 874.540
698.097, 752.676
699.397, 850.900
700.696, 639.019
701.995, 827.127
703.293, 945.326
704.592, 933.485
705.890, 1121.593
707.188, 1269.704
708.486, 1497.844
709.784, 1736.003
711.081, 1894.154
712.378, 1902.320
713.675, 1860.488
714.972, 1988.686
716.269, 1596.913
717.565, 1385.151
718.862, 1113.425
720.158, 1211.748
721.453, 1040.099
722.749, 1228.475
724.045, 1046.886
725.340, 995.350
726.635, 1063.830
727.930, 882.344
729.224, 860.882
730.519, 879.452
731.813, 868.035
733.107, 1066.641
734.401, 1075.259
735.694, 1073.871
736.988, 1272.491
738.281, 1301.144
739.574, 1219.808
740.867, 1138.486
742.160, 1017.161
743.452, 915.836
744.744, 714.503
746.036, 713.162
747.328, 541.812
748.620, 550.455
749.911, 589.092
751.202, 577.722
752.493, 536.350
753.784, 522.534
755.075, 423.599
756.365, 422.220
757.655, 310.838
758.945, 219.450
760.235, 167.737
761.525, 276.664
762.814, 115.266
764.103, 73.866
765.392, 252.461
766.681, 81.046
767.969, 49.625
769.258, 88.196
770.546, 116.759
771.834, 65.314
773.122, 163.861
774.409, 67.598
775.697, 20.888
776.984, 70.636
778.271, 77.785
779.558, 23.802
780.844, 74.580
782.131, 82.956
783.417, 131.325
784.703, 169.687
785.989, 48.041
787.274, 156.389
788.560, 64.729
789.845, 93.063
791.130, 261.391
792.415, 169.711
793.699, 68.025
794.983, 66.332
796.268, 154.634
797.552, 42.928
798.835, 8.784
800.119, 119.481
801.402, 2.260
802.686, 115.981
803.969, 54.216
805.251, 37.556
806.534, 30.636
807.816, 108.819
809.098, 16.998
810.380, 34.832
811.662, 86.697
812.944, 61.376
814.225, 100.557
815.506, 87.441
816.787, 145.435
818.068, 36.579
819.349, 78.626
820.629, 30.730
821.909, 17.133
823.189, 64.990
824.469, 127.158
825.749, 20.611
827.028, 31.624
828.307, 123.893
829.586, 13.765
830.865, 48.588
832.144, 140.978
833.422, 103.456
834.700, 121.182
835.978, 48.621
837.256, 61.281
838.534, 46.016
839.811, 83.310
841.088, 82.690
842.365, 32.112
843.642, 45.146
844.919, 7.598
846.195, 110.351
847.472, 53.171
848.748, 96.029
850.023, 58.943
851.299, 128.103
852.575, 15.146
853.850, 132.187
855.125, 49.224
856.400, 16.259
857.674, 23.291
858.949, 100.321
860.223, 157.349
861.497, 142.496
862.771, 221.399
864.045, 128.423
865.318, 105.444
866.591, 112.463
867.864, 179.481
869.137, 246.499
870.410, 273.514
871.682, 260.527
872.955, 327.538
874.227, 164.548
875.499, 471.557
876.770, 268.562
878.042, 255.565
879.313, 542.567
880.584, 209.567
881.855, 316.564
883.126, 413.560
884.396, 420.552
885.667, 367.542
886.937, 404.529
888.207, 591.515
889.476, 578.497
890.746, 725.479
892.015, 992.457
893.284, 989.433
894.553, 1226.405
895.822, 1423.377
897.090, 1810.348
898.359, 2297.315
899.627, 2644.281
900.895, 2931.247
902.163, 2708.209
903.430, 2395.173
904.698, 2052.134
905.965, 1569.093
907.232, 1336.051
908.499, 1153.009
909.765, 919.966
911.032, 856.922
912.298, 873.877
913.564, 820.831
914.830, 907.784
916.095, 804.739
917.361, 901.703
918.626, 1038.668
919.891, 965.637
921.156, 1012.530
922.420, 659.498
923.685, 846.469
924.949, 713.431
926.213, 640.401
927.477, 612.168
928.740, 550.945
930.004, 540.530
931.267, 567.515
932.530, 532.042
933.793, 679.079
935.056, 546.117
936.318, 603.158
937.581, 620.200
938.843, 547.169
940.104, 584.218
941.366, 781.264
942.628, 508.319
943.889, 745.375
945.150, 682.434
946.411, 869.496
947.672, 1076.562
948.932, 1023.631
950.193, 1090.612
951.453, 1216.202
952.713, 1263.283
953.973, 1399.297
955.232, 1306.386
956.491, 1463.438
957.751, 1487.268
959.010, 1704.240
960.268, 2171.368
961.527, 2368.308
962.785, 2922.354
964.044, 3583.158
965.302, 4040.303
966.559, 5210.263
967.817, 6167.420
969.075, 7804.584
970.332, 10348.605
971.589, 12380.005
972.846, 13614.424
974.102, 12601.438
975.359, 10508.631
976.615, 8517.056
977.871, 6244.105
979.127, 4828.572
980.383, 3677.975
981.638, 2965.028
982.893, 2448.524
984.149, 2146.231
985.404, 1866.326
986.658, 1875.701
987.913, 1649.350
989.167, 1582.242
990.421, 1639.948
991.675, 1647.326
992.929, 1784.714
994.183, 1859.643
995.436, 1897.100
996.689, 2344.685
997.942, 2444.848
999.195, 2778.641
1000.448, 3300.314
1001.700, 3923.839
1002.952, 4731.381
1004.204, 5868.840
1005.456, 7856.432
1006.708, 10044.040
1007.959, 13401.634
1009.210, 17589.281
1010.461, 20436.980
1011.712, 22134.732
1012.963, 20512.498
1014.213, 16990.279
1015.464, 13828.073
1016.714, 10005.905
1017.964, 7973.749
1019.214, 6211.606
1020.463, 4519.478
1021.712, 3847.369
1022.962, 3065.273
1024.210, 2493.189
1025.459, 2281.119
1026.708, 1719.060
1027.956, 1667.016
1029.204, 1354.984
1030.452, 1172.967
1031.700, 1210.961
1032.948, 888.971
1034.195, 846.993
1035.442, 905.033
1036.689, 653.085
1037.936, 841.155
1039.183, 689.240
1040.429, 667.338
1041.676, 795.458
1042.922, 613.607
1044.168, 521.771
1045.413, 519.992
1046.659, 598.225
1047.904, 576.472
1049.149, 494.768
1050.394, 493.076
1051.639, 741.399
1052.884, 439.736
1054.128, 548.084
1055.372, 526.452
1056.616, 354.833
1057.860, 453.227
1059.104, 401.636
1060.347, 480.057
1061.590, 418.489
1062.833, 356.933
1064.076, 465.387
1065.319, 433.852
1066.561, 254.862
1067.803, 423.363
1069.046, 262.961
1070.287, 411.473
1071.529, 429.995
1072.771, 308.925
1074.012, 277.469
1075.253, 276.023
1076.494, 254.589
1077.735, 313.188
1078.975, 253.964
1080.216, 342.629
1081.456, 251.304
1082.696, 141.565
1083.936, 320.344
1085.175, 199.088
1086.415, 227.841
1087.654, 356.896
1088.893, 166.017
1090.132, 294.991
1091.371, 163.777
1092.609, 312.630
1093.847, 291.432
1095.085, 100.240
1096.323, 229.683
1097.561, 198.505
1098.799, 97.723
1100.036, 266.963
1101.273, 195.814
1102.510, 135.064
1103.747, 393.939
1104.983, 533.484
1106.220, 714.021
1107.456, 682.932
1108.692, 675.066
1109.928, 793.992
1111.163, 582.926
1112.399, 612.392
1113.634, 651.658
1114.869, 500.652
1116.104, 360.287
1117.339, 459.481
1118.573, 258.524
1119.808, 197.586
1121.042, 216.679
1122.276, 305.788
1123.509, 504.904
1124.743, 314.024
1125.976, 223.188
1127.210, 212.356
1128.443, 48.457
1129.675, 151.335
1130.908, 0.561
1132.141, 70.653
1133.373, 120.483
1134.605, 30.189
1135.837, 19.932
1137.068, 89.694
1138.300, 29.956
1139.531, 143.911
1140.762, 103.312
1141.993, 50.100
1143.224, 233.953
1144.455, 56.353
1145.685, 354.929
1146.915, 204.644
1148.145, 35.399
1149.375, 234.997
1150.605, 114.780
1151.834, 214.329
1153.063, 190.127
1154.292, 49.920
1155.521, 242.479
1156.750, 112.557
1157.978, 172.356
1159.207, 201.278
1160.435, 381.234
1161.663, 301.691
1162.891, 341.636
1164.118, 266.582
1165.345, 406.472
1166.573, 336.633
1167.800, 336.258
1169.026, 488.010
1170.253, 437.426
1171.480, 437.009
1172.706, 586.857
1173.932, 576.259
1175.158, 716.496
1176.383, 826.518
1177.609, 1015.884
1178.834, 1305.799
1180.059, 1455.925
1181.284, 1855.740
1182.509, 2176.284
1183.734, 2485.999
1184.958, 2756.999
1186.182, 2437.133
1187.406, 2346.549
1188.630, 2228.538
1189.854, 1641.995
1191.077, 1311.747
1192.301, 1092.004
1193.524, 791.570
1194.747, 741.535
1195.969, 569.619
1197.192, 619.426
1198.414, 459.116
1199.636, 229.137
1200.858, 308.721
1202.080, 419.441
1203.302, 189.482
1204.523, 279.137
1205.744, 219.262
1206.966, 218.938
1208.186, 138.004
1209.407, 137.279
1210.628, 186.312
1211.848, 245.773
1213.068, 45.176
1214.288, 104.654
1215.508, 16.402
1216.727, 172.979
1217.947, 242.201
1219.166, 21.598
1220.385, 150.463
1221.604, 239.873
1222.822, 168.832
1224.041, 357.641
1225.259, 30.189
1226.477, 340.541
1227.695, 259.434
1228.913, 174.756
1230.130, 134.307
1231.348, 152.881
1232.565, 212.047
1233.782, 80.570
1234.999, 69.330
1236.215, 107.832
1237.432, 426.322
1238.648, 144.805
1239.864, 223.275
1241.080, 241.734
1242.296, 20.184
1243.511, 318.609
1244.726, 77.010
1245.942, 75.398
1247.156, 223.771
1248.371, 82.721
1249.586, 241.068
1250.800, 29.402
1252.014, 2.164
1253.228, 256.139
1254.442, 25.570
1255.656, 193.000
1256.869, 191.242
1258.083, 69.416
1259.296, 127.797
1260.509, 305.910
1261.722, 53.945
1262.934, 161.949
1264.147, 289.936
1265.359, 228.197
1266.571, 386.188
1267.783, 224.008
1268.994, 272.242
1270.206, 479.965
1271.417, 237.705
1272.628, 326.111
1273.839, 263.727
1275.050, 80.602
1276.260, 428.578
1277.471, 46.086
1278.681, 94.490
1279.891, 251.959
1281.101, 130.967
1282.310, 136.680
1283.520, 44.002
1284.729, 29.129
1285.938, 268.449
1287.147, 74.459
1288.356, 26.961
1289.564, 170.223
1290.773, 16.061
1291.981, 172.885
1293.189, 119.668
1294.397, 55.895
1295.604, 172.848
1296.812, 229.523
1298.019, 53.830
1299.226, 172.750
1300.433, 160.707
1301.640, 105.752
1302.846, 172.131
1304.053, 101.584
1305.259, 134.623
1306.465, 60.791
1307.671, 136.920
1308.876, 36.988
1310.082, 149.045
1311.287, 95.041
1312.492, 211.000
1313.697, 16.914
1314.902, 312.783
1316.106, 218.609
1317.310, 154.391
1318.515, 260.133
1319.719, 85.832
1320.922, 111.488
1322.126, 277.096
1323.329, 132.666
1324.533, 98.189
1325.736, 153.662
1326.939, 59.094
1328.141, 174.479
1329.344, 39.809
1330.546, 95.086
1331.748, 240.320
1332.950, 15.510
1334.152, 9.359
1335.354, 158.562
1336.555, 116.404
1337.757, 198.539
1338.958, 113.443
1340.159, 81.695
1341.359, 133.090
1342.560, 157.838
1343.760, 102.549
1344.960, 177.219
1346.160, 51.852
1347.360, 96.441
1348.560, 151.357
1349.759, 85.867
1350.959, 140.342
1352.158, 284.801
1353.357, 229.201
1354.555, 523.570
1355.754, 177.904
1356.952, 272.125
1358.151, 103.807
1359.349, 287.943
1360.546, 170.959
1361.744, 205.875
1362.941, 159.916
1364.139, 343.508
1365.336, 147.461
1366.533, 251.375
1367.730, 305.256
1368.926, 9.105
1370.123, 40.688
1371.319, 245.443
1372.515, 50.906
1373.711, 161.129
1374.906, 305.160
1376.102, 128.488
1377.297, 380.521
1378.492, 216.570
1379.687, 513.025
1380.882, 909.582
1382.077, 1475.514
1383.271, 1429.957
1384.465, 1432.855
1385.659, 1293.748
1386.853, 967.676
1388.047, 600.539
1389.240, 386.803
1390.434, 542.156
1391.627, 147.658
1392.820, 443.607
1394.013, 669.688
1395.205, 265.729
1396.398, 551.727
1397.590, 427.678
1398.782, 222.926
1399.974, 507.146
1401.166, 330.037
1402.357, 234.070
1403.549, 474.184
1404.740, 315.037
1405.931, 357.652
1407.122, 431.916
1408.313, 205.572
1409.503, 252.496
1410.693, 270.035
1411.883, 153.605
1413.073, 465.066
1414.263, 237.605
1415.453, 83.967
1416.642, 497.041
1417.831, 268.070
1419.020, 141.393
1420.209, 344.307
1421.398, 67.463
1422.587, 449.543
1423.775, 271.002
1424.963, 171.762
1426.151, 534.107
1427.339, 247.211
1428.526, 112.795
1429.714, 374.361
1430.901, 82.340
1432.088, 143.061
1433.275, 382.592
1434.462, 232.891
1435.648, 292.785
1436.835, 344.938
1438.021, 146.637
1439.207, 447.430
1440.393, 268.959
1441.579, 319.721
1442.764, 440.873
1443.949, 252.748
1445.135, 374.568
1446.320, 362.314
1447.504, 193.125
1448.689, 513.561
1449.873, 424.574
1451.058, 305.904
1452.242, 447.057
1453.426, 418.043
1454.609, 258.920
1455.793, 558.287
1456.976, 168.740
1458.159, 368.697
1459.342, 617.951
1460.525, 337.844
1461.708, 437.148
1462.890, 487.176
1464.073, 236.264
1465.255, 466.053
1466.437, 395.021
1467.619, 263.000
1468.800, 663.105
1469.982, 271.865
1471.163, 278.984
1472.344, 537.729
1473.525, 407.330
1474.706, 505.936
1475.886, 523.627
1477.066, 36.148
1478.247, 664.047
1479.427, 203.297
1480.607, 263.285
1481.786, 493.180
1482.966, 313.510
1484.145, 294.025
1485.324, 384.496
1486.503, 234.896
1487.682, 365.271
1488.860, 445.639
1490.039, 46.068
1491.217, 416.547
1492.395, 387.092
1493.573, 127.764
1494.751, 498.553
1495.928, 349.607
1497.106, 170.840
1498.283, 392.867
1499.460, 113.344
1500.637, 253.867
1501.814, 384.379
1502.990, 5.158
1504.166, 305.254
1505.342, 351.785
1506.518, 251.369
1507.694, 380.883
1508.870, 211.041
1510.045, 171.762
1511.221, 357.521
1512.396, 3.746
1513.571, 154.635
1514.745, 231.531
1515.920, 0.303
1517.094, 46.762
1518.269, 0.000
##END=



