##NAMES=Cordierite
##RRUFFID=R040084
##IDEAL CHEMISTRY=Mg_2_Al_3_(AlSi_5_)O_18_
##LOCALITY=Norway
##OWNER=RRUFF
##SOURCE=University of Arizona Mineral Museum
##DESCRIPTION=Purple coarsely crystalline massive
##STATUS=The identification of this mineral has been confirmed by X-ray diffraction and chemical analysis
##URL=rruff.info/R040084
##MEASURED CHEMISTRY=(Mg_1.88_Fe^2+^_0.11_Ca_0.01_)_Σ=2_(Al_3.95_Fe^3+^_0.05_)_Σ=4_(Si_4.96_Al_0.04_)_Σ=5_O_18_·0.90H_2_O·Na_0.04_ ; H_2_O estimated by difference and verified by Raman spectroscopy
##PIN_ID=L00497
##ORIENTATION=Laser parallel to b* (0 1 0). Fiducial mark perpendicular to laser is parallel to c [0 0 1]
105.212, 0.000
106.604, 15.806
107.995, 176.462
109.387, 235.388
110.777, 287.465
112.168, 383.548
113.559, 492.310
114.949, 663.285
116.339, 756.348
117.729, 844.881
119.119, 848.625
120.508, 1055.951
121.897, 1297.646
123.286, 1678.189
124.675, 2089.921
126.063, 2456.808
127.452, 2682.316
128.840, 2820.827
130.228, 2547.349
131.615, 2417.891
133.003, 1877.456
134.390, 1340.599
135.777, 926.095
137.164, 677.236
138.550, 542.123
139.937, 422.684
141.323, 322.678
142.709, 284.570
144.094, 256.635
145.480, 282.027
146.865, 268.783
148.250, 308.186
149.635, 361.615
151.019, 397.099
152.403, 533.614
153.788, 639.168
155.171, 761.756
156.555, 977.377
157.939, 1098.027
159.322, 1060.705
160.705, 984.417
162.088, 749.597
163.470, 512.726
164.853, 400.598
166.235, 367.733
167.617, 235.047
168.998, 270.367
170.380, 213.970
171.761, 183.600
173.142, 160.253
174.523, 69.928
175.904, 1.621
177.284, 25.341
178.664, 53.896
180.044, 22.989
181.424, 3.105
182.803, 88.580
184.183, 10.996
185.562, 88.069
186.940, 21.834
188.319, 92.332
189.698, 52.439
191.076, 16.183
192.454, 160.948
193.831, 105.771
195.209, 183.664
196.586, 212.599
197.963, 118.559
199.340, 269.529
200.717, 235.505
202.093, 256.484
203.470, 392.464
204.846, 631.442
206.221, 743.417
207.597, 844.387
208.972, 903.344
210.347, 888.287
211.722, 706.215
213.097, 439.196
214.472, 309.417
215.846, 189.293
217.220, 40.153
218.594, 7.010
219.967, 36.198
221.341, 93.368
222.714, 105.111
224.087, 92.192
225.460, 114.695
226.832, 70.485
228.204, 30.206
229.577, 10.128
230.948, 31.745
232.320, 163.369
233.692, 219.475
235.063, 473.567
236.434, 796.646
237.805, 1128.707
239.175, 1274.750
240.545, 1381.256
241.916, 1525.776
243.286, 1343.759
244.655, 1164.718
246.025, 997.609
247.394, 926.855
248.763, 981.372
250.132, 1200.531
251.501, 1464.027
252.869, 1980.301
254.237, 2774.168
255.605, 3967.969
256.973, 5459.725
258.340, 6954.724
259.708, 7927.059
261.075, 8059.788
262.442, 7280.056
263.808, 5949.319
265.175, 4302.601
266.541, 3025.933
267.907, 2166.138
269.273, 1439.040
270.639, 1003.104
272.004, 769.182
273.369, 653.702
274.734, 426.497
276.099, 406.811
277.463, 337.369
278.828, 333.742
280.192, 265.098
281.556, 240.290
282.919, 179.597
284.283, 270.051
285.646, 239.591
287.009, 270.797
288.372, 446.571
289.734, 444.641
291.097, 655.827
292.459, 725.644
293.821, 952.615
295.183, 1012.446
296.544, 1021.220
297.905, 1086.979
299.266, 1043.720
300.627, 1131.433
301.988, 1088.114
303.348, 1241.764
304.709, 1378.386
306.069, 1502.974
307.428, 1530.464
308.788, 1384.850
310.147, 1187.130
311.507, 885.317
312.865, 550.489
314.224, 382.646
315.583, 206.785
316.941, 161.909
318.299, 79.016
319.657, 114.105
321.015, 64.178
322.372, 205.231
323.729, 273.267
325.086, 460.285
326.443, 575.276
327.800, 600.167
329.156, 474.916
330.512, 365.528
331.868, 227.104
333.224, 131.645
334.579, 91.173
335.935, 35.686
337.290, 42.178
338.645, 0.651
339.999, 17.929
341.354, 7.350
342.708, 62.326
344.062, 0.354
345.416, 44.888
346.769, 16.873
348.123, 113.836
349.476, 123.035
350.829, 91.392
352.182, 187.571
353.534, 307.927
354.887, 350.337
356.239, 357.554
357.591, 473.424
358.942, 531.709
360.294, 698.037
361.645, 762.271
362.996, 983.794
364.347, 1250.052
365.698, 1517.078
367.048, 1726.110
368.398, 1712.095
369.748, 1453.166
371.098, 1223.109
372.448, 934.031
373.797, 690.932
375.146, 571.813
376.495, 535.672
377.844, 419.508
379.192, 376.323
380.540, 314.118
381.889, 261.388
383.236, 296.350
384.584, 254.323
385.932, 73.538
387.279, 119.325
388.626, 67.701
389.973, 51.420
391.319, 61.210
392.666, 85.679
394.012, 16.342
395.358, 42.415
396.704, 26.784
398.049, 36.609
399.394, 7.982
400.740, 5.331
402.084, 0.346
403.429, 46.050
404.774, 22.208
406.118, 17.444
407.462, 2.656
408.806, 70.157
410.150, 5.017
411.493, 24.907
412.836, 19.832
414.179, 17.795
415.522, 83.811
416.865, 70.888
418.207, 79.042
419.549, 64.299
420.891, 13.458
422.233, 1.879
423.575, 67.729
424.916, 92.261
426.257, 73.720
427.598, 105.148
428.939, 104.174
430.279, 133.957
431.619, 123.339
432.959, 103.712
434.299, 129.071
435.639, 161.413
436.978, 92.738
438.318, 15.041
439.657, 29.313
440.996, 36.556
442.334, 43.229
443.673, 49.924
445.011, 13.951
446.349, 40.128
447.687, 71.178
449.024, 29.206
450.361, 100.203
451.699, 75.177
453.036, 163.124
454.372, 115.049
455.709, 144.950
457.045, 219.828
458.381, 262.684
459.717, 236.529
461.053, 373.351
462.388, 412.162
463.724, 534.952
465.059, 728.726
466.394, 864.478
467.728, 985.208
469.063, 1099.928
470.397, 1267.627
471.731, 1350.306
473.065, 1261.964
474.398, 1206.605
475.732, 1144.233
477.065, 1139.338
478.398, 1151.432
479.731, 1185.958
481.063, 1250.509
482.396, 1335.827
483.728, 1481.342
485.060, 1935.838
486.391, 2281.323
487.723, 2549.798
489.054, 2946.253
490.385, 2977.709
491.716, 2873.148
493.047, 2537.570
494.377, 1991.975
495.708, 1639.268
497.038, 1269.290
498.368, 1003.518
499.697, 665.719
501.027, 589.869
502.356, 471.419
503.685, 287.211
505.014, 311.406
506.342, 187.683
507.671, 245.956
508.999, 213.226
510.327, 109.554
511.655, 76.739
512.982, 100.060
514.310, 82.363
515.637, 123.659
516.964, 76.946
518.291, 21.216
519.617, 82.467
520.944, 99.718
522.270, 37.952
523.596, 84.181
524.921, 152.396
526.247, 127.609
527.572, 217.804
528.897, 108.004
530.222, 257.188
531.547, 232.355
532.871, 247.508
534.196, 273.645
535.520, 333.766
536.844, 363.875
538.167, 470.970
539.491, 550.049
540.814, 590.112
542.137, 768.164
543.460, 1018.208
544.783, 1247.257
546.105, 1615.976
547.427, 2219.963
548.749, 2774.733
550.071, 3675.356
551.393, 4665.099
552.714, 5877.984
554.035, 6859.877
555.356, 7542.344
556.677, 7281.778
557.998, 6904.099
559.318, 5955.605
560.638, 5146.975
561.958, 4347.989
563.278, 3706.115
564.597, 3303.997
565.917, 3161.726
567.236, 3116.854
568.555, 3173.396
569.874, 3454.942
571.192, 3927.357
572.511, 4407.008
573.829, 5166.772
575.147, 6022.379
576.464, 6848.784
577.782, 7514.667
579.099, 7551.463
580.416, 7182.886
581.733, 6523.585
583.050, 5575.963
584.366, 4688.487
585.683, 3810.892
586.999, 3087.445
588.315, 2439.984
589.630, 1971.637
590.946, 1573.232
592.261, 1339.735
593.576, 1119.332
594.891, 969.014
596.206, 834.436
597.520, 656.805
598.834, 559.502
600.148, 526.328
601.462, 397.396
602.776, 402.409
604.089, 292.317
605.402, 351.172
606.715, 405.427
608.028, 349.135
609.341, 360.724
610.653, 357.221
611.965, 297.726
613.277, 335.238
614.589, 344.740
615.901, 322.439
617.212, 437.655
618.523, 459.325
619.834, 508.360
621.145, 565.147
622.456, 594.127
623.766, 640.631
625.076, 583.374
626.386, 545.319
627.696, 529.042
629.006, 487.605
630.315, 444.060
631.624, 370.102
632.933, 313.222
634.242, 333.818
635.551, 184.713
636.859, 145.331
638.167, 160.841
639.475, 141.031
640.783, 123.960
642.090, 123.344
643.398, 109.717
644.705, 115.047
646.012, 143.690
647.318, 187.571
648.625, 242.345
649.931, 177.845
651.237, 268.316
652.543, 220.999
653.849, 320.625
655.155, 352.211
656.460, 349.761
657.765, 452.479
659.070, 472.069
660.375, 633.066
661.679, 887.362
662.984, 1039.918
664.288, 1531.217
665.592, 1744.374
666.895, 2298.819
668.199, 2909.126
669.502, 3500.447
670.805, 4032.737
672.108, 4127.344
673.411, 4141.598
674.713, 3453.733
676.016, 2851.049
677.318, 2486.447
678.620, 1895.658
679.921, 1475.088
681.223, 1247.107
682.524, 1006.265
683.825, 776.564
685.126, 701.381
686.427, 520.659
687.727, 451.310
689.028, 494.390
690.328, 364.711
691.628, 397.954
692.927, 415.047
694.227, 419.267
695.526, 377.550
696.825, 358.811
698.124, 318.974
699.423, 428.186
700.721, 416.293
702.020, 497.398
703.318, 538.607
704.616, 540.626
705.913, 611.646
707.211, 540.649
708.508, 762.936
709.805, 790.960
711.102, 884.940
712.399, 874.707
713.695, 852.283
714.992, 814.042
716.288, 689.068
717.584, 757.035
718.879, 566.160
720.175, 551.137
721.470, 365.109
722.765, 478.077
724.060, 460.043
725.355, 399.027
726.649, 473.012
727.944, 456.002
729.238, 349.998
730.532, 537.997
731.825, 507.018
733.119, 770.057
734.412, 815.116
735.705, 953.192
736.998, 1189.265
738.291, 1260.338
739.584, 1250.402
740.876, 1096.459
742.168, 1107.508
743.460, 940.548
744.752, 739.580
746.043, 595.602
747.334, 500.616
748.626, 420.621
749.916, 359.617
751.207, 317.604
752.498, 279.583
753.788, 161.559
755.078, 189.529
756.368, 254.494
757.658, 164.469
758.947, 134.438
760.237, 127.410
761.526, 8.624
762.815, 73.325
764.104, 30.268
765.392, 158.201
766.680, 33.126
767.969, 56.633
769.257, 103.946
770.544, 47.843
771.832, 34.271
773.119, 50.582
774.406, 31.575
775.693, 18.236
776.980, 14.964
778.267, 81.813
779.553, 22.582
780.839, 30.661
782.125, 55.065
783.411, 26.780
784.697, 82.486
785.982, 0.818
787.267, 18.136
788.552, 42.521
789.837, 1.167
791.122, 32.801
792.406, 56.423
793.690, 3.963
794.974, 25.633
796.258, 7.219
797.542, 23.207
798.825, 22.659
800.108, 11.863
801.391, 63.626
802.674, 1.837
803.957, 39.287
805.239, 43.728
806.522, 3.158
807.804, 4.575
809.085, 10.982
810.367, 11.623
811.649, 14.247
812.930, 10.107
814.211, 66.549
815.492, 121.745
816.772, 18.031
818.053, 87.307
819.333, 53.425
820.613, 74.199
821.893, 46.974
823.173, 28.861
824.452, 36.275
825.732, 33.596
827.011, 25.498
828.290, 42.574
829.568, 4.354
830.847, 63.293
832.125, 39.721
833.403, 52.272
834.681, 10.304
835.959, 41.352
837.236, 35.575
838.514, 68.506
839.791, 15.382
841.068, 13.262
842.345, 18.133
843.621, 22.014
844.898, 37.887
846.174, 11.249
847.450, 37.599
848.726, 19.438
850.001, 21.960
851.277, 42.382
852.552, 27.906
853.827, 49.713
855.102, 47.513
856.376, 20.305
857.651, 12.911
858.925, 59.857
860.199, 114.619
861.473, 34.626
862.746, 51.103
864.020, 114.824
865.293, 40.540
866.566, 136.249
867.839, 33.953
869.112, 43.649
870.384, 174.340
871.656, 18.025
872.928, 112.704
874.200, 133.376
875.472, 165.043
876.744, 152.703
878.015, 98.358
879.286, 125.251
880.557, 159.653
881.828, 159.292
883.098, 240.925
884.369, 330.553
885.639, 186.174
886.909, 358.791
888.178, 312.401
889.448, 476.008
890.717, 657.607
891.987, 708.201
893.256, 833.789
894.524, 935.373
895.793, 1302.949
897.061, 1497.521
898.330, 1836.089
899.598, 2376.650
900.865, 2647.208
902.133, 2777.760
903.401, 2728.307
904.668, 2168.849
905.935, 1769.387
907.202, 1328.918
908.468, 1253.446
909.735, 1036.970
911.001, 725.488
912.267, 795.002
913.533, 742.512
914.799, 825.969
916.064, 780.410
917.330, 772.669
918.595, 879.160
919.860, 969.422
921.124, 956.781
922.389, 904.261
923.653, 829.575
924.918, 715.362
926.182, 722.683
927.445, 545.627
928.709, 538.806
929.972, 365.781
931.236, 379.222
932.499, 374.411
933.761, 369.388
935.024, 262.718
936.286, 374.926
937.549, 314.367
938.811, 399.213
940.073, 374.969
941.334, 428.241
942.596, 437.588
943.857, 325.432
945.118, 438.760
946.379, 460.397
947.640, 439.598
948.900, 549.719
950.161, 525.148
951.421, 665.617
952.681, 627.766
953.940, 625.664
955.200, 707.661
956.459, 772.924
957.719, 894.203
958.978, 1092.264
960.236, 1292.372
961.495, 1692.517
962.753, 1811.691
964.012, 2480.707
965.270, 2880.849
966.527, 3486.590
967.785, 4287.023
969.043, 4757.205
970.300, 6237.643
971.557, 7564.229
972.814, 8449.518
974.071, 8489.829
975.327, 7267.979
976.583, 5828.250
977.840, 4396.125
979.095, 3154.514
980.351, 2436.709
981.607, 1876.436
982.862, 1352.484
984.117, 1242.788
985.372, 1019.556
986.627, 818.972
987.882, 754.490
989.136, 609.797
990.390, 664.734
991.644, 692.965
992.898, 579.194
994.152, 671.983
995.405, 610.260
996.659, 754.614
997.912, 656.110
999.165, 724.478
1000.417, 964.774
1001.670, 975.089
1002.922, 1415.496
1004.174, 1555.850
1005.426, 1976.303
1006.678, 2566.753
1007.930, 3467.101
1009.181, 4526.632
1010.432, 5697.154
1011.683, 6227.693
1012.934, 6365.963
1014.185, 5516.491
1015.435, 4487.062
1016.685, 3507.616
1017.935, 2658.250
1019.185, 2038.802
1020.435, 1579.401
1021.684, 1210.062
1022.934, 1060.569
1024.183, 771.238
1025.432, 741.912
1026.680, 552.591
1027.929, 563.271
1029.177, 421.957
1030.425, 383.646
1031.673, 295.339
1032.921, 268.400
1034.169, 191.779
1035.416, 263.509
1036.663, 245.251
1037.911, 272.994
1039.157, 258.929
1040.404, 281.501
1041.650, 209.260
1042.897, 164.045
1044.143, 144.834
1045.389, 118.629
1046.634, 254.445
1047.880, 152.266
1049.125, 242.093
1050.371, 245.930
1051.615, 209.853
1052.860, 130.617
1054.105, 167.468
1055.349, 181.321
1056.593, 157.190
1057.837, 62.062
1059.081, 217.938
1060.325, 141.822
1061.568, 153.711
1062.812, 199.610
1064.055, 150.515
1065.298, 175.427
1066.540, 159.855
1067.783, 131.388
1069.025, 123.312
1070.267, 142.324
1071.509, 115.260
1072.751, 55.363
1073.993, 9.638
1075.234, 135.599
1076.475, 46.564
1077.716, 63.664
1078.957, 118.648
1080.198, 61.723
1081.438, 190.719
1082.679, 48.719
1083.919, 104.483
1085.159, 165.752
1086.398, 106.775
1087.638, 98.368
1088.877, 109.398
1090.116, 90.777
1091.355, 86.437
1092.594, 163.257
1093.833, 54.568
1095.071, 55.621
1096.309, 17.068
1097.547, 108.522
1098.785, 119.688
1100.023, 22.269
1101.260, 93.542
1102.498, 94.695
1103.735, 75.804
1104.972, 186.916
1106.208, 248.029
1107.445, 299.145
1108.681, 400.263
1109.918, 261.383
1111.154, 412.505
1112.389, 273.632
1113.625, 345.063
1114.860, 256.199
1116.096, 177.355
1117.331, 279.100
1118.566, 150.255
1119.800, 81.409
1121.035, 142.771
1122.269, 113.962
1123.503, 405.152
1124.737, 336.361
1125.971, 107.569
1127.205, 218.786
1128.438, 59.988
1129.671, 101.220
1130.904, 162.432
1132.137, 353.660
1133.370, 355.573
1134.602, 156.815
1135.834, 61.940
1137.066, 119.658
1138.298, 99.076
1139.530, 112.302
1140.762, 63.938
1141.993, 104.591
1143.224, 246.959
1144.455, 39.900
1145.686, 181.424
1146.917, 243.209
1148.147, 105.002
1149.377, 176.802
1150.607, 218.589
1151.837, 140.439
1153.067, 132.178
1154.296, 143.840
1155.526, 186.673
1156.755, 368.171
1157.984, 199.307
1159.213, 181.004
1160.441, 357.273
1161.670, 298.787
1162.898, 420.751
1164.126, 415.433
1165.354, 476.540
1166.581, 541.357
1167.809, 413.118
1169.036, 634.338
1170.263, 786.268
1171.490, 607.528
1172.717, 949.064
1173.943, 950.609
1175.170, 1191.997
1176.396, 1453.477
1177.622, 1754.652
1178.848, 2235.994
1180.073, 2691.266
1181.299, 3224.769
1182.524, 4105.896
1183.749, 4639.041
1184.974, 5110.080
1186.199, 5252.007
1187.423, 4753.943
1188.648, 4184.951
1189.872, 3381.375
1191.096, 2462.855
1192.320, 2154.523
1193.543, 1660.338
1194.767, 1281.299
1195.990, 1163.312
1197.213, 976.048
1198.436, 727.404
1199.659, 628.763
1200.881, 480.371
1202.104, 581.320
1203.326, 335.411
1204.548, 436.523
1205.770, 397.461
1206.991, 239.951
1208.213, 191.188
1209.434, 174.258
1210.655, 155.496
1211.876, 246.403
1213.096, 188.001
1214.317, 78.950
1215.537, 199.984
1216.757, 91.935
1217.977, 162.963
1219.197, 74.253
1220.417, 35.929
1221.636, 166.833
1222.855, 167.736
1224.074, 88.683
1225.293, 169.712
1226.512, 100.770
1227.731, 171.590
1228.949, 182.578
1230.167, 16.349
1231.385, 64.448
1232.603, 175.344
1233.820, 6.125
1235.038, 226.896
1236.255, 47.656
1237.472, 128.407
1238.689, 39.138
1239.906, 69.854
1241.122, 190.553
1242.338, 41.237
1243.555, 41.899
1244.771, 112.550
1245.986, 6.847
1247.202, 93.732
1248.417, 124.203
1249.633, 144.631
1250.848, 195.045
1252.063, 185.442
1253.277, 193.949
1254.492, 336.229
1255.706, 206.840
1256.920, 166.840
1258.134, 237.099
1259.348, 77.330
1260.562, 267.501
1261.775, 217.647
1262.988, 27.737
1264.201, 267.783
1265.414, 187.806
1266.627, 107.945
1267.839, 307.896
1269.052, 297.812
1270.264, 489.594
1271.476, 549.444
1272.688, 389.289
1273.899, 479.246
1275.111, 247.182
1276.322, 407.609
1277.533, 247.454
1278.744, 27.126
1279.955, 196.989
1281.165, 166.602
1282.376, 74.147
1283.586, 153.724
1284.796, 119.115
1286.006, 59.886
1287.215, 99.347
1288.425, 66.828
1289.634, 6.132
1290.843, 73.228
1292.052, 32.573
1293.261, 32.071
1294.469, 31.333
1295.678, 33.083
1296.886, 26.888
1298.094, 39.105
1299.302, 48.245
1300.509, 2.688
1301.717, 76.343
1302.924, 165.339
1304.131, 44.288
1305.338, 56.800
1306.545, 72.062
1307.752, 20.890
1308.958, 190.353
1310.164, 218.309
1311.370, 33.062
1312.576, 35.510
1313.782, 134.038
1314.987, 22.530
1316.193, 120.985
1317.398, 59.406
1318.603, 57.791
1319.807, 87.574
1321.012, 65.895
1322.216, 134.188
1323.421, 92.457
1324.625, 39.296
1325.829, 11.153
1327.032, 136.750
1328.236, 5.515
1329.439, 152.075
1330.642, 22.616
1331.845, 23.134
1333.048, 163.591
1334.251, 55.993
1335.453, 64.385
1336.656, 44.727
1337.858, 44.952
1339.060, 205.339
1340.261, 25.598
1341.463, 5.826
1342.664, 86.015
1343.866, 86.184
1345.067, 56.193
1346.267, 246.222
1347.468, 14.247
1348.669, 145.815
1349.869, 215.717
1351.069, 15.644
1352.269, 113.560
1353.469, 3.215
1354.668, 112.455
1355.868, 231.937
1357.067, 61.019
1358.266, 180.383
1359.465, 159.586
1360.664, 37.221
1361.862, 156.892
1363.061, 96.632
1364.259, 56.352
1365.457, 186.055
1366.655, 185.341
1367.852, 175.008
1369.050, 153.848
1370.247, 146.595
1371.444, 242.830
1372.641, 162.413
1373.838, 141.984
1375.035, 241.567
1376.231, 180.119
1377.427, 269.668
1378.623, 328.638
1379.819, 457.348
1381.015, 795.979
1382.211, 1732.250
1383.406, 2679.850
1384.601, 2997.361
1385.796, 2054.792
1386.991, 1080.625
1388.185, 949.491
1389.380, 509.153
1390.574, 426.361
1391.768, 361.677
1392.962, 252.787
1394.156, 218.800
1395.350, 277.477
1396.543, 174.745
1397.736, 212.435
1398.929, 272.338
1400.122, 175.797
1401.315, 289.912
1402.507, 266.582
1403.700, 321.364
1404.892, 256.845
1406.084, 214.321
1407.276, 155.754
1408.467, 201.379
1409.659, 117.164
1410.850, 276.609
1412.041, 179.803
1413.232, 9.433
1414.423, 236.239
1415.614, 130.678
1416.804, 94.200
1417.994, 118.140
1419.184, 21.570
1420.374, 96.652
1421.564, 160.787
1422.753, 75.386
1423.943, 159.465
1425.132, 133.746
1426.321, 118.107
1427.510, 242.264
1428.698, 3.758
1429.887, 140.042
1431.075, 193.720
1432.263, 57.622
1433.451, 201.847
1434.639, 105.726
1435.827, 59.617
1437.014, 213.591
1438.201, 127.664
1439.388, 61.931
1440.575, 276.408
1441.762, 100.258
1442.949, 245.643
1444.135, 299.864
1445.321, 143.007
1446.507, 252.656
1447.693, 215.445
1448.879, 159.426
1450.064, 283.210
1451.250, 198.387
1452.435, 120.067
1453.620, 213.083
1454.805, 134.426
1455.989, 185.593
1457.174, 287.860
1458.358, 90.606
1459.542, 213.350
1460.726, 246.137
1461.910, 10.854
1463.093, 242.810
1464.277, 156.978
1465.460, 211.768
1466.643, 277.277
1467.826, 14.965
1469.009, 123.329
1470.191, 113.240
1471.373, 0.000
##END=



