##NAMES=Cordierite
##RRUFFID=R040082
##IDEAL CHEMISTRY=Mg_2_Al_3_(AlSi_5_)O_18_
##LOCALITY=Madagascar
##OWNER=RRUFF
##SOURCE=University of Arizona Mineral Museum
##DESCRIPTION=Dark gray coarsely crystalline massive
##STATUS=The identification of this mineral has been confirmed by X-ray diffraction and chemical analysis
##URL=rruff.info/R040082
##MEASURED CHEMISTRY=(Mg_1.60_Fe^2+^_0.39_Mn_0.01_)_Σ=2_Al_4.00_(Si_4.95_Al_0.05_)_Σ=5_O_18_·1.05H_2_O·Na_0.05_ ; H_2_O estimated by difference and verified by Raman spectroscopy
##PIN_ID=M00022
##ORIENTATION=Laser parallel to a* (1 0 0). Fiducial mark perpendicular to laser is parallel to b [0 1 0]
75.239, 0.000
76.635, 24.393
78.031, 137.323
79.427, 616.464
80.823, 1596.599
82.218, 2959.130
83.614, 4054.139
85.009, 5075.388
86.404, 6281.532
87.798, 6883.104
89.193, 7096.245
90.587, 6644.160
91.981, 5791.578
93.375, 4996.779
94.768, 4325.582
96.161, 3635.875
97.554, 3137.760
98.947, 2772.479
100.340, 2339.908
101.732, 2257.983
103.124, 2214.902
104.516, 2390.089
105.908, 2545.234
107.300, 2906.206
108.691, 3195.688
110.082, 3540.510
111.473, 4093.988
112.864, 5056.576
114.254, 6413.976
115.644, 8175.079
117.034, 9886.954
118.424, 11291.538
119.813, 11669.106
121.203, 12363.195
122.592, 11431.994
123.981, 10417.014
125.369, 9389.029
126.758, 8222.533
128.146, 7147.049
129.534, 5706.938
130.922, 4298.066
132.309, 3000.041
133.696, 1993.814
135.083, 1622.337
136.470, 1040.752
137.857, 1093.000
139.243, 785.858
140.630, 731.294
142.016, 557.276
143.401, 743.839
144.787, 728.996
146.172, 978.624
147.557, 1242.515
148.942, 1493.729
150.327, 2098.249
151.711, 2573.766
153.096, 3582.246
154.480, 4259.542
155.863, 4867.701
157.247, 5096.572
158.630, 4355.711
160.013, 3164.854
161.396, 2357.119
162.779, 1554.344
164.161, 966.420
165.544, 732.401
166.926, 412.333
168.308, 260.248
169.689, 84.506
171.070, 116.865
172.452, 137.860
173.833, 218.794
175.213, 271.657
176.594, 258.445
177.974, 196.149
179.354, 81.767
180.734, 12.293
182.114, 50.729
183.493, 252.929
184.872, 222.672
186.251, 381.501
187.630, 355.416
189.008, 475.917
190.387, 706.503
191.765, 594.676
193.143, 939.930
194.520, 801.266
195.898, 1152.680
197.275, 1251.991
198.652, 1648.396
200.029, 1885.874
201.405, 2342.420
202.782, 2721.033
204.158, 3303.713
205.534, 3533.453
206.909, 2996.224
208.285, 2388.974
209.660, 1801.482
211.035, 1061.150
212.410, 316.479
213.784, 90.279
215.159, 44.801
216.533, 55.774
217.907, 139.649
219.281, 210.424
220.654, 245.160
222.027, 158.859
223.400, 122.525
224.773, 27.159
226.146, 216.239
227.518, 394.665
228.891, 813.603
230.263, 1220.882
231.634, 1832.901
233.006, 2439.901
234.377, 3084.013
235.748, 4111.469
237.119, 4634.943
238.490, 5358.905
239.860, 5354.422
241.231, 5301.758
242.601, 5087.727
243.970, 5180.480
245.340, 5542.979
246.709, 5999.322
248.079, 7279.285
249.448, 8822.728
250.816, 11054.865
252.185, 13994.796
253.553, 17370.428
254.921, 20637.674
256.289, 23382.480
257.657, 26315.781
259.024, 27304.535
260.391, 24643.703
261.758, 19041.242
263.125, 14112.130
264.492, 10015.334
265.858, 7180.822
267.224, 5563.562
268.590, 4146.539
269.956, 3478.734
271.321, 2824.135
272.687, 2401.726
274.052, 2088.499
275.416, 2159.439
276.781, 2032.538
278.146, 1871.775
279.510, 2264.146
280.874, 2324.642
282.237, 2507.254
283.601, 2297.973
284.964, 2433.794
286.327, 2705.709
287.690, 3143.715
289.053, 3693.746
290.416, 4379.729
291.778, 4866.677
293.140, 5222.900
294.502, 5658.746
295.863, 5652.879
297.225, 5683.076
298.586, 5571.336
299.947, 5710.650
301.308, 5921.016
302.668, 6166.432
304.029, 6605.890
305.389, 6741.391
306.749, 6249.932
308.108, 5270.512
309.468, 3721.121
310.827, 2488.746
312.186, 1350.328
313.545, 746.854
314.903, 300.379
316.262, 38.068
317.620, 63.518
318.978, 172.021
320.336, 373.523
321.693, 815.104
323.051, 1426.637
324.408, 2134.161
325.765, 3092.678
327.121, 3195.186
328.478, 3197.685
329.834, 2873.176
331.190, 2297.658
332.546, 1350.134
333.902, 1281.602
335.257, 729.601
336.612, 577.229
337.967, 346.169
339.322, 237.774
340.677, 253.672
342.031, 132.006
343.385, 18.477
344.739, 83.711
346.093, 68.537
347.446, 164.958
348.799, 270.066
350.153, 169.557
351.505, 269.745
352.858, 176.531
354.210, 262.864
355.563, 270.693
356.915, 426.955
358.267, 703.201
359.618, 842.014
360.969, 1953.188
362.321, 1733.324
363.672, 2207.443
365.022, 2701.550
366.373, 2672.643
367.723, 2424.719
369.073, 2379.781
370.423, 1490.828
371.773, 927.860
373.122, 732.877
374.471, 619.850
375.821, 309.798
377.169, 303.731
378.518, 38.091
379.866, 49.777
381.215, 2.347
382.563, 164.754
383.910, 245.275
385.258, 237.633
386.605, 182.257
387.952, 334.267
389.299, 188.056
390.646, 317.946
391.992, 210.048
393.339, 239.373
394.685, 276.008
396.031, 194.968
397.376, 408.228
398.722, 110.828
400.067, 234.698
401.412, 301.881
402.757, 86.394
404.101, 98.959
405.446, 150.590
406.790, 79.327
408.134, 0.854
409.478, 50.984
410.821, 245.081
412.165, 305.953
413.508, 432.320
414.851, 517.457
416.193, 604.602
417.536, 709.750
418.878, 822.900
420.220, 1117.050
421.562, 1123.198
422.904, 1429.340
424.245, 1899.476
425.586, 2139.604
426.927, 2365.723
428.268, 2051.830
429.609, 1954.926
430.949, 1788.008
432.289, 1621.075
433.629, 1229.128
434.969, 1278.165
436.309, 962.185
437.648, 929.187
438.987, 855.170
440.326, 750.133
441.665, 773.947
443.003, 807.000
444.342, 827.903
445.680, 893.783
447.018, 993.642
448.355, 1161.479
449.693, 1404.291
451.030, 1651.081
452.367, 1985.848
453.704, 2071.593
455.041, 2223.095
456.377, 2417.013
457.713, 2404.687
459.049, 2522.338
460.385, 2725.965
461.721, 3098.566
463.056, 3382.145
464.391, 3712.696
465.726, 4481.224
467.061, 4719.726
468.395, 4983.201
469.730, 5111.650
471.064, 4718.075
472.398, 4762.474
473.731, 4315.847
475.065, 4285.381
476.398, 4504.513
477.731, 4270.325
479.064, 4593.839
480.397, 4924.084
481.729, 5707.303
483.062, 6398.496
484.394, 7514.662
485.725, 8236.808
487.057, 8950.926
488.389, 9092.020
489.720, 8509.093
491.051, 7152.164
492.382, 5716.211
493.712, 4321.274
495.043, 3311.318
496.373, 2454.359
497.703, 1752.427
499.032, 1480.508
500.362, 1185.634
501.691, 929.777
503.020, 741.484
504.349, 525.126
505.678, 438.635
507.007, 311.681
508.335, 245.098
509.663, 132.558
510.991, 144.023
512.319, 159.487
513.646, 229.934
514.973, 56.376
516.300, 180.775
517.627, 347.170
518.954, 54.581
520.280, 326.965
521.607, 430.370
522.933, 376.819
524.259, 365.307
525.584, 455.820
526.910, 760.348
528.235, 795.876
529.560, 1090.414
530.885, 1189.949
532.209, 1480.497
533.534, 1902.041
534.858, 2193.587
536.182, 2679.133
537.506, 3151.674
538.829, 3874.963
540.152, 4696.468
541.476, 5858.553
542.799, 6893.314
544.121, 8981.458
545.444, 11440.035
546.766, 14671.808
548.088, 18892.541
549.410, 23964.684
550.732, 28997.074
552.053, 34299.637
553.375, 37597.363
554.696, 37610.809
556.017, 35316.898
557.337, 30906.387
558.658, 26432.203
559.978, 22530.682
561.298, 20205.152
562.618, 17946.182
563.938, 16537.416
565.257, 15744.570
566.576, 15138.845
567.895, 16094.768
569.214, 17173.318
570.533, 18898.430
571.851, 20979.754
573.170, 24312.076
574.488, 27026.398
575.805, 29196.713
577.123, 29483.029
578.440, 28273.346
579.758, 25753.652
581.075, 21465.961
582.391, 18362.262
583.708, 14383.562
585.024, 11662.862
586.341, 9680.156
587.657, 7757.445
588.972, 6472.733
590.288, 5336.018
591.603, 4362.299
592.918, 3764.576
594.233, 3494.850
595.548, 2896.121
596.863, 2617.388
598.177, 2218.651
599.491, 2162.912
600.805, 1936.169
602.119, 1716.422
603.432, 1482.671
604.746, 1462.966
606.059, 1495.157
607.372, 1494.396
608.685, 1568.631
609.997, 1645.861
611.309, 1737.088
612.621, 1878.311
613.933, 2058.531
615.245, 2308.747
616.557, 2504.960
617.868, 2648.169
619.179, 2601.373
620.490, 2410.576
621.801, 2400.773
623.111, 2198.968
624.421, 2004.158
625.731, 1711.284
627.041, 1523.798
628.351, 1130.706
629.660, 989.882
630.970, 804.704
632.279, 599.222
633.588, 569.386
634.896, 466.547
636.205, 421.727
637.513, 217.930
638.821, 257.130
640.129, 308.326
641.437, 394.519
642.744, 219.707
644.051, 230.509
645.358, 352.691
646.665, 487.265
647.972, 602.126
649.278, 547.301
650.584, 722.207
651.890, 930.729
653.196, 1135.466
654.502, 1466.161
655.807, 1583.864
657.113, 2244.356
658.418, 2733.084
659.722, 3734.643
661.027, 4458.465
662.331, 5776.693
663.636, 7494.031
664.940, 9501.252
666.244, 12183.003
667.547, 14201.267
668.851, 16251.670
670.154, 16910.744
671.457, 16108.089
672.760, 14291.332
674.062, 11742.642
675.365, 9509.644
676.667, 7378.932
677.969, 5962.365
679.271, 4861.736
680.572, 3937.123
681.874, 3694.084
683.175, 2991.562
684.476, 2807.436
685.777, 2572.918
687.077, 2337.056
688.378, 2312.121
689.678, 2157.028
690.978, 2046.294
692.278, 1979.829
693.577, 2018.861
694.877, 1970.163
696.176, 2236.404
697.475, 2234.236
698.774, 2434.141
700.072, 2552.877
701.371, 2651.938
702.669, 2623.316
703.967, 3027.312
705.265, 3557.498
706.562, 3779.645
707.860, 3885.883
709.157, 4606.184
710.454, 4623.557
711.751, 4863.012
713.047, 4579.528
714.344, 4478.162
715.640, 3866.836
716.936, 3425.582
718.232, 3374.418
719.527, 3171.290
720.823, 2952.202
722.118, 2999.166
723.413, 2919.165
724.708, 2761.181
726.002, 2969.199
727.297, 2619.197
728.591, 2891.169
729.885, 3242.117
731.179, 3332.039
732.472, 3753.936
733.766, 4192.809
735.059, 4506.655
736.352, 4813.479
737.645, 4636.275
738.937, 4446.047
740.230, 3944.795
741.522, 3628.515
742.814, 3463.210
744.106, 3164.881
745.397, 2955.523
746.689, 2631.142
747.980, 2632.734
749.271, 2550.301
750.562, 2595.841
751.853, 2145.354
753.143, 2135.843
754.433, 1855.305
755.723, 1461.741
757.013, 1405.150
758.303, 1007.533
759.592, 1096.890
760.881, 817.220
762.170, 908.523
763.459, 676.802
764.748, 1292.052
766.036, 1312.276
767.325, 925.475
768.613, 367.646
769.901, 431.790
771.188, 409.907
772.476, 459.998
773.763, 293.062
775.050, 348.098
776.337, 383.107
777.624, 383.090
778.910, 437.045
780.196, 444.975
781.482, 463.466
782.768, 358.750
784.054, 451.597
785.339, 374.417
786.625, 271.211
787.910, 437.977
789.195, 387.716
790.479, 302.427
791.764, 416.111
793.048, 204.770
794.332, 387.399
795.616, 241.002
796.900, 318.578
798.183, 98.127
799.467, 229.643
800.750, 126.131
802.033, 47.412
803.316, 200.964
804.598, 95.689
805.880, 41.550
807.163, 2.751
808.445, 108.104
809.726, 28.523
811.008, 120.812
812.289, 27.273
813.570, 187.504
814.851, 237.889
816.132, 228.455
817.413, 278.198
818.693, 214.144
819.973, 234.256
821.253, 185.543
822.533, 135.968
823.813, 61.503
825.092, 75.385
826.371, 66.744
827.650, 107.577
828.929, 103.439
830.208, 134.038
831.486, 128.444
832.764, 207.661
834.042, 193.008
835.320, 139.507
836.598, 101.129
837.875, 44.855
839.152, 85.925
840.429, 37.397
841.706, 99.508
842.983, 34.566
844.259, 57.561
845.536, 47.278
846.812, 41.158
848.088, 3.507
849.363, 85.132
850.639, 168.729
851.914, 16.303
853.189, 8.157
854.464, 141.338
855.739, 86.138
857.013, 208.252
858.288, 158.672
859.562, 303.069
860.836, 297.444
862.110, 238.796
863.383, 443.125
864.656, 295.431
865.930, 477.713
867.203, 409.971
868.475, 450.205
869.748, 402.415
871.020, 548.601
872.292, 634.762
873.564, 639.899
874.836, 754.012
876.108, 728.099
877.379, 935.161
878.650, 941.198
879.922, 958.212
881.192, 1033.200
882.463, 1130.163
883.733, 1245.102
885.004, 1241.018
886.274, 1445.909
887.544, 1849.777
888.813, 1966.624
890.083, 2404.445
891.352, 3035.246
892.621, 3336.024
893.890, 4017.780
895.159, 4507.514
896.427, 5360.225
897.695, 6565.918
898.964, 7408.588
900.232, 8371.238
901.499, 8613.865
902.767, 8288.472
904.034, 7273.059
905.301, 6259.627
906.568, 5226.174
907.835, 4389.702
909.102, 3682.212
910.368, 3355.701
911.634, 3291.173
912.900, 3053.625
914.166, 2981.059
915.432, 2951.475
916.697, 2719.873
917.962, 3132.252
919.227, 2990.614
920.492, 3154.959
921.757, 2887.287
923.021, 2780.598
924.285, 2579.893
925.550, 2412.170
926.813, 2258.435
928.077, 2190.687
929.341, 2058.924
930.604, 2173.145
931.867, 2029.355
933.130, 1976.551
934.393, 2183.732
935.655, 1970.911
936.918, 2363.080
938.180, 2541.255
939.442, 2339.422
940.703, 2434.582
941.965, 2509.728
943.226, 2678.882
944.488, 2835.025
945.749, 3279.171
947.009, 3494.341
948.270, 3731.498
949.530, 4303.653
950.791, 4841.183
952.051, 5039.318
953.311, 4989.080
954.570, 5439.547
955.830, 5508.705
957.089, 5883.135
958.348, 6460.973
959.607, 7410.626
960.866, 8512.307
962.124, 10024.042
963.383, 11836.968
964.641, 13837.761
965.899, 16013.521
967.156, 18714.129
968.414, 22445.354
969.671, 26855.463
970.928, 29997.623
972.185, 30944.533
973.442, 27990.535
974.699, 22998.680
975.955, 17977.523
977.211, 13600.534
978.468, 10688.125
979.723, 8390.185
980.979, 7474.553
982.234, 6814.047
983.490, 5409.943
984.745, 4557.930
986.000, 4131.895
987.254, 3750.280
988.509, 3798.138
989.763, 3735.602
991.017, 3802.607
992.271, 3890.733
993.525, 4122.057
994.779, 4609.532
996.032, 4769.676
997.285, 5351.547
998.538, 5570.908
999.791, 6624.056
1001.044, 7381.254
1002.296, 8920.904
1003.548, 10786.542
1004.800, 13463.431
1006.052, 17488.080
1007.304, 22001.508
1008.555, 27619.391
1009.807, 31777.215
1011.058, 32936.152
1012.309, 30660.160
1013.559, 25988.168
1014.810, 20734.203
1016.060, 15891.260
1017.310, 12214.337
1018.560, 9473.442
1019.810, 7584.570
1021.060, 6353.727
1022.309, 4933.903
1023.558, 4184.100
1024.807, 3496.318
1026.056, 3142.577
1027.305, 2539.856
1028.553, 2373.153
1029.801, 2059.470
1031.049, 1689.805
1032.297, 1605.172
1033.545, 1724.560
1034.793, 1355.962
1036.040, 1286.404
1037.287, 1228.865
1038.534, 1096.347
1039.781, 1278.845
1041.027, 1158.391
1042.274, 978.957
1043.520, 1086.562
1044.766, 806.190
1046.012, 911.839
1047.257, 836.515
1048.503, 916.210
1049.748, 845.684
1050.993, 834.661
1052.238, 706.433
1053.483, 639.222
1054.727, 584.031
1055.971, 745.859
1057.216, 731.707
1058.459, 676.578
1059.703, 683.467
1060.947, 679.374
1062.190, 726.301
1063.433, 775.244
1064.676, 751.207
1065.919, 539.187
1067.162, 835.184
1068.404, 549.200
1069.646, 659.233
1070.888, 634.287
1072.130, 583.358
1073.372, 610.736
1074.613, 591.524
1075.855, 557.355
1077.096, 571.028
1078.337, 519.397
1079.578, 435.715
1080.818, 578.521
1082.059, 571.012
1083.299, 713.238
1084.539, 456.005
1085.779, 489.381
1087.018, 560.790
1088.258, 448.518
1089.497, 549.762
1090.736, 388.406
1091.975, 455.404
1093.213, 556.171
1094.452, 597.158
1095.690, 585.474
1096.928, 831.486
1098.166, 740.730
1099.404, 960.441
1100.642, 969.424
1101.879, 1454.718
1103.116, 1533.813
1104.353, 1935.910
1105.590, 2115.772
1106.827, 2477.412
1108.063, 2344.275
1109.299, 2598.489
1110.536, 2501.545
1111.771, 2189.891
1113.007, 2029.340
1114.243, 1660.615
1115.478, 1506.783
1116.713, 1241.133
1117.948, 1048.607
1119.183, 834.536
1120.418, 894.191
1121.652, 1273.559
1122.886, 1667.388
1124.120, 1429.391
1125.354, 1111.906
1126.588, 717.418
1127.821, 502.968
1129.055, 520.263
1130.288, 469.823
1131.521, 339.095
1132.753, 279.919
1133.986, 348.602
1135.218, 350.293
1136.450, 201.898
1137.682, 468.516
1138.914, 282.889
1140.146, 263.098
1141.377, 302.586
1142.609, 343.625
1143.840, 334.133
1145.071, 519.221
1146.301, 434.635
1147.532, 478.605
1148.762, 417.998
1149.992, 409.936
1151.222, 554.973
1152.452, 636.320
1153.682, 597.844
1154.911, 718.881
1156.140, 635.775
1157.369, 769.475
1158.598, 931.230
1159.827, 1083.869
1161.055, 1176.924
1162.284, 1223.105
1163.512, 1359.949
1164.740, 1517.490
1165.967, 1623.748
1167.195, 1839.527
1168.422, 1860.861
1169.650, 2135.809
1170.877, 2351.033
1172.103, 2684.500
1173.330, 3272.918
1174.557, 4119.893
1175.783, 4953.477
1177.009, 6111.465
1178.235, 7301.090
1179.461, 8770.471
1180.686, 10342.900
1181.912, 11902.344
1183.137, 12782.070
1184.362, 12612.941
1185.587, 11584.354
1186.811, 10096.748
1188.036, 8503.598
1189.260, 7006.340
1190.484, 5829.818
1191.708, 4757.746
1192.932, 3644.293
1194.155, 3010.523
1195.378, 2572.057
1196.602, 2050.406
1197.825, 1620.750
1199.047, 1515.051
1200.270, 1123.311
1201.492, 1220.865
1202.715, 700.840
1203.937, 657.002
1205.159, 588.061
1206.380, 697.293
1207.602, 572.846
1208.823, 433.207
1210.044, 382.945
1211.265, 341.039
1212.486, 157.668
1213.707, 195.275
1214.927, 284.234
1216.147, 89.799
1217.367, 357.242
1218.587, 267.760
1219.807, 121.258
1221.027, 220.045
1222.246, 13.508
1223.465, 5.090
1224.684, 106.301
1225.903, 21.945
1227.121, 6.715
1228.340, 45.590
1229.558, 126.869
1230.776, 55.875
1231.994, 21.672
1233.212, 80.506
1234.429, 28.406
1235.646, 13.344
1236.864, 60.678
1238.081, 82.334
1239.297, 45.604
1240.514, 62.508
1241.730, 129.658
1242.947, 7.105
1244.163, 27.178
1245.378, 92.461
1246.594, 35.033
1247.810, 120.490
1249.025, 18.100
1250.240, 65.771
1251.455, 44.502
1252.670, 134.270
1253.885, 152.098
1255.099, 43.008
1256.313, 246.689
1257.527, 38.287
1258.741, 30.225
1259.955, 84.867
1261.168, 48.783
1262.382, 33.080
1263.595, 101.533
1264.808, 36.918
1266.021, 105.574
1267.233, 196.990
1268.446, 106.439
1269.658, 81.066
1270.870, 209.309
1272.082, 261.469
1273.294, 243.584
1274.505, 60.941
1275.716, 33.936
1276.928, 10.879
1278.139, 3.459
1279.349, 47.713
1280.560, 57.297
1281.770, 83.984
1282.981, 16.600
1284.191, 154.844
1285.401, 31.572
1286.610, 42.102
1287.820, 55.420
1289.029, 87.242
1290.239, 59.840
1291.448, 51.152
1292.656, 82.773
1293.865, 42.637
1295.073, 92.439
1296.282, 72.812
1297.490, 2.850
1298.698, 44.443
1299.906, 87.973
1301.113, 113.449
1302.320, 31.135
1303.528, 18.203
1304.735, 60.525
1305.942, 61.660
1307.148, 113.787
1308.355, 43.854
1309.561, 54.859
1310.767, 22.801
1311.973, 72.674
1313.179, 13.484
1314.384, 109.229
1315.590, 77.910
1316.795, 63.537
1318.000, 18.373
1319.205, 107.166
1320.410, 182.273
1321.614, 105.352
1322.819, 169.646
1324.023, 17.885
1325.227, 213.051
1326.431, 208.154
1327.634, 3.797
1328.838, 118.170
1330.041, 208.078
1331.244, 210.934
1332.447, 36.270
1333.650, 130.443
1334.852, 13.902
1336.055, 106.670
1337.257, 160.234
1338.459, 48.701
1339.661, 157.127
1340.862, 197.477
1342.064, 77.771
1343.265, 25.008
1344.466, 208.180
1345.667, 141.299
1346.868, 268.365
1348.068, 219.377
1349.269, 90.342
1350.469, 194.250
1351.669, 276.105
1352.869, 230.914
1354.069, 299.672
1355.268, 209.592
1356.468, 441.256
1357.667, 316.092
1358.866, 227.820
1360.065, 368.352
1361.263, 130.865
1362.462, 414.305
1363.660, 452.703
1364.858, 243.064
1366.056, 383.385
1367.254, 323.006
1368.451, 375.330
1369.649, 252.521
1370.846, 423.316
1372.043, 319.814
1373.240, 451.711
1374.436, 448.758
1375.633, 336.199
1376.829, 347.129
1378.025, 400.828
1379.221, 546.891
1380.417, 805.812
1381.613, 1322.715
1382.808, 2252.434
1384.003, 2305.383
1385.199, 1789.770
1386.393, 1038.518
1387.588, 760.326
1388.783, 594.377
1389.977, 443.773
1391.171, 426.236
1392.365, 387.047
1393.559, 424.062
1394.753, 317.699
1395.946, 320.350
1397.140, 382.318
1398.333, 360.311
1399.526, 212.477
1400.719, 481.465
1401.911, 417.803
1403.104, 404.750
1404.296, 181.545
1405.488, 483.928
1406.680, 257.730
1407.872, 264.881
1409.063, 475.291
1410.255, 330.229
1411.446, 204.119
1412.637, 152.611
1413.828, 291.447
1415.018, 210.260
1416.209, 366.027
1417.399, 134.477
1418.589, 335.303
1419.779, 259.215
1420.969, 364.336
1422.159, 369.629
1423.348, 281.646
1424.537, 301.275
1425.726, 307.623
1426.915, 271.381
1428.104, 265.957
1429.293, 195.621
1430.481, 101.162
1431.669, 125.424
1432.857, 314.035
1434.045, 255.354
1435.233, 352.195
1436.420, 255.611
1437.608, 277.566
1438.795, 313.787
1439.982, 410.809
1441.169, 412.805
1442.355, 284.713
1443.542, 391.062
1444.728, 328.699
1445.914, 368.773
1447.100, 463.180
1448.286, 430.973
1449.472, 231.637
1450.657, 387.229
1451.842, 399.736
1453.027, 360.125
1454.212, 478.422
1455.397, 450.471
1456.581, 416.016
1457.766, 473.609
1458.950, 420.221
1460.134, 411.631
1461.318, 337.268
1462.501, 201.232
1463.685, 468.430
1464.868, 246.531
1466.051, 499.715
1467.234, 325.746
1468.417, 218.188
1469.600, 338.600
1470.782, 300.211
1471.965, 162.668
1473.147, 313.113
1474.329, 346.629
1475.510, 254.260
1476.692, 287.326
1477.873, 205.799
1479.055, 61.900
1480.236, 407.047
1481.416, 64.182
1482.597, 302.324
1483.778, 179.480
1484.958, 155.643
1486.138, 122.828
1487.318, 89.969
1488.498, 138.297
1489.678, 85.615
1490.857, 205.973
1492.037, 223.404
1493.216, 384.961
1494.395, 271.334
1495.574, 551.467
1496.752, 6.439
1497.931, 201.561
1499.109, 3.822
1500.287, 19.266
1501.465, 108.539
1502.643, 49.080
1503.820, 99.947
1504.998, 218.006
1506.175, 207.289
1507.352, 95.830
1508.529, 56.656
1509.706, 10.566
1510.882, 77.943
1512.059, 193.070
1513.235, 181.920
1514.411, 49.381
1515.587, 307.609
1516.762, 70.471
1517.938, 44.236
1519.113, 248.432
1520.288, 0.314
1521.463, 0.000
##END=



