##NAMES=Cordierite
##RRUFFID=R040082
##IDEAL CHEMISTRY=Mg_2_Al_3_(AlSi_5_)O_18_
##LOCALITY=Madagascar
##OWNER=RRUFF
##SOURCE=University of Arizona Mineral Museum
##DESCRIPTION=Dark gray coarsely crystalline massive
##STATUS=The identification of this mineral has been confirmed by X-ray diffraction and chemical analysis
##URL=rruff.info/R040082
##MEASURED CHEMISTRY=(Mg_1.60_Fe^2+^_0.39_Mn_0.01_)_Σ=2_Al_4.00_(Si_4.95_Al_0.05_)_Σ=5_O_18_·1.05H_2_O·Na_0.05_ ; H_2_O estimated by difference and verified by Raman spectroscopy
##PIN_ID=M00040
##ORIENTATION=Laser parallel to -c* (0 0 -1). Fiducial mark perpendicular to laser is parallel to a [1 0 0]
90.587, 0.000
91.981, 22.589
93.375, 102.427
94.768, 21.192
96.161, 393.190
97.554, 246.525
98.947, 581.326
100.340, 352.880
101.732, 163.713
103.124, 411.049
104.516, 610.541
105.908, 1236.705
107.300, 1607.207
108.691, 2255.291
110.082, 3036.213
111.473, 4478.828
112.864, 6449.053
114.254, 8850.075
115.644, 11858.340
117.034, 14957.456
118.424, 17965.336
119.813, 20282.926
121.203, 20016.834
122.592, 18079.092
123.981, 16565.699
125.369, 15237.646
126.758, 13967.093
128.146, 11483.200
129.534, 8962.114
130.922, 6205.841
132.309, 4273.519
133.696, 2916.166
135.083, 2171.725
136.470, 1515.021
137.857, 1465.293
139.243, 1161.076
140.630, 958.726
142.016, 890.341
143.401, 971.242
144.787, 1137.823
146.172, 1417.924
147.557, 1855.914
148.942, 2425.017
150.327, 3236.013
151.711, 4315.965
153.096, 5539.037
154.480, 6625.995
155.863, 7308.474
157.247, 7406.436
158.630, 6542.500
160.013, 5384.534
161.396, 4065.533
162.779, 2828.485
164.161, 1921.379
165.544, 1223.209
166.926, 685.052
168.308, 430.611
169.689, 226.438
171.070, 169.659
172.452, 114.618
173.833, 77.450
175.213, 28.197
176.594, 7.148
177.974, 9.440
179.354, 114.988
180.734, 44.481
182.114, 19.924
183.493, 139.320
184.872, 73.682
186.251, 98.025
187.630, 45.661
189.008, 12.604
190.387, 5.197
191.765, 61.073
193.143, 2.975
194.520, 1.057
195.898, 39.171
197.275, 75.372
198.652, 31.663
200.029, 22.949
201.405, 1.458
202.782, 18.863
204.158, 14.161
205.534, 119.345
206.909, 33.411
208.285, 64.364
209.660, 35.206
211.035, 125.062
212.410, 74.306
213.784, 111.919
215.159, 64.518
216.533, 79.251
217.907, 21.131
219.281, 16.868
220.654, 64.750
222.027, 251.494
223.400, 434.077
224.773, 567.469
226.146, 910.699
227.518, 1369.711
228.891, 2029.114
230.263, 2772.322
231.634, 3852.957
233.006, 4993.483
234.377, 6359.779
235.748, 7639.831
237.119, 8630.678
238.490, 9291.453
239.860, 8716.323
241.231, 8229.049
242.601, 7759.497
243.970, 7110.708
245.340, 6663.095
246.709, 6588.658
248.079, 7267.451
249.448, 8184.400
250.816, 10325.590
252.185, 13441.035
253.553, 17312.949
254.921, 22429.676
256.289, 27454.783
257.657, 32451.805
259.024, 33921.719
260.391, 30499.760
261.758, 23397.029
263.125, 16667.387
264.492, 11519.793
265.858, 7878.223
267.224, 5664.649
268.590, 3895.058
269.956, 2968.431
271.321, 2322.754
272.687, 1835.017
274.052, 1585.210
275.416, 1384.623
276.781, 1168.342
278.146, 916.276
279.510, 991.441
280.874, 914.488
282.237, 986.155
283.601, 1113.625
284.964, 1190.636
286.327, 1431.252
287.690, 1698.451
289.053, 1915.528
290.416, 2230.490
291.778, 2454.343
293.140, 2688.093
294.502, 2711.744
295.863, 2775.295
297.225, 2647.732
298.586, 2785.015
299.947, 2791.159
301.308, 2775.182
302.668, 2923.104
304.029, 2948.862
305.389, 3022.478
306.749, 2817.900
308.108, 2565.148
309.468, 2051.174
310.827, 1648.084
312.186, 1207.887
313.545, 1123.609
314.903, 859.245
316.262, 918.616
317.620, 1031.747
318.978, 1233.697
320.336, 1552.571
321.693, 1912.407
323.051, 2381.209
324.408, 2626.979
325.765, 2855.714
327.121, 2247.417
328.478, 1862.087
329.834, 1489.724
331.190, 1219.327
332.546, 1063.896
333.902, 1119.330
335.257, 1011.468
336.612, 1049.310
337.967, 1101.004
339.322, 1048.037
340.677, 1257.103
342.031, 1383.720
343.385, 1677.782
344.739, 1966.713
346.093, 2228.241
347.446, 2524.688
348.799, 2726.313
350.153, 3038.779
351.505, 3136.377
352.858, 3306.365
354.210, 3550.319
355.563, 3823.677
356.915, 4432.969
358.267, 5151.921
359.618, 6268.401
360.969, 7843.528
362.321, 9655.318
363.672, 11562.964
365.022, 12886.688
366.373, 12873.114
367.723, 11288.351
369.073, 9149.819
370.423, 7100.355
371.773, 5196.258
373.122, 4080.722
374.471, 3256.051
375.821, 2493.510
377.169, 2112.555
378.518, 1499.525
379.866, 1255.523
381.215, 960.124
382.563, 741.875
383.910, 469.381
385.258, 430.938
386.605, 725.816
387.952, 446.222
389.299, 789.488
390.646, 248.281
391.992, 20.956
393.339, 89.249
394.685, 90.614
396.031, 91.053
397.376, 206.564
398.722, 250.175
400.067, 228.898
401.412, 271.726
402.757, 180.671
404.101, 246.707
405.446, 361.888
406.790, 223.309
408.134, 282.963
409.478, 194.912
410.821, 160.121
412.165, 52.619
413.508, 107.657
414.851, 152.777
416.193, 223.841
417.536, 390.886
418.878, 666.895
420.220, 793.868
421.562, 1163.809
422.904, 1559.719
424.245, 1890.593
425.586, 2231.430
426.927, 2324.232
428.268, 2042.996
429.609, 1623.724
430.949, 1321.415
432.289, 1039.070
433.629, 627.688
434.969, 523.271
436.309, 304.817
437.648, 209.327
438.987, 133.794
440.326, 76.220
441.665, 75.479
443.003, 116.935
444.342, 133.228
445.680, 212.481
447.018, 275.547
448.355, 349.880
449.693, 460.032
451.030, 641.153
452.367, 889.247
453.704, 894.311
455.041, 955.346
456.377, 783.353
457.713, 638.333
459.049, 479.285
460.385, 437.212
461.721, 340.114
463.056, 367.991
464.391, 356.844
465.726, 503.674
467.061, 575.480
468.395, 708.265
469.730, 1177.028
471.064, 1267.772
472.398, 1673.497
473.731, 1864.203
475.065, 2221.890
476.398, 2218.561
477.731, 2274.214
479.064, 2013.852
480.397, 1961.475
481.729, 1618.083
483.062, 1405.678
484.394, 1222.260
485.725, 1009.827
487.057, 852.381
488.389, 809.922
489.720, 690.451
491.051, 600.968
492.382, 424.472
493.712, 338.965
495.043, 266.447
496.373, 235.920
497.703, 171.388
499.032, 231.853
500.362, 134.312
501.691, 177.784
503.020, 60.275
504.349, 217.770
505.678, 194.298
507.007, 259.866
508.335, 192.453
509.663, 274.080
510.991, 271.733
512.319, 314.442
513.646, 350.199
514.973, 318.023
516.300, 512.909
517.627, 566.857
518.954, 521.853
520.280, 682.915
521.607, 698.063
522.933, 811.275
524.259, 854.552
525.584, 1007.915
526.910, 1100.329
528.235, 1288.776
529.560, 1519.243
530.885, 1679.769
532.209, 1953.332
533.534, 2356.937
534.858, 2694.625
536.182, 3054.367
537.506, 3616.174
538.829, 4227.031
540.152, 4775.919
541.476, 5631.833
542.799, 6472.787
544.121, 7995.705
545.444, 9558.474
546.766, 11982.437
548.088, 14989.274
549.410, 18655.230
550.732, 22330.244
552.053, 26043.809
553.375, 28258.127
554.696, 29008.406
556.017, 28720.707
557.337, 27349.807
558.658, 26119.213
559.978, 24939.014
561.298, 24889.186
562.618, 24290.127
563.938, 23719.990
565.257, 23592.693
566.576, 23471.162
567.895, 25128.971
569.214, 27270.387
570.533, 30430.086
571.851, 33696.637
573.170, 38885.004
574.488, 42764.797
575.805, 45385.961
577.123, 45620.836
578.440, 43939.863
579.758, 39498.906
581.075, 33785.961
582.391, 28897.029
583.708, 23269.105
585.024, 19209.197
586.341, 16382.305
587.657, 13409.419
588.972, 11446.547
590.288, 9731.691
591.603, 8141.847
592.918, 7273.014
594.233, 6437.194
595.548, 5631.096
596.863, 4977.626
598.177, 4430.870
599.491, 4057.806
600.805, 3663.778
602.119, 3444.038
603.432, 3197.396
604.746, 3035.114
606.059, 2758.125
607.372, 2666.444
608.685, 2658.776
609.997, 2458.124
611.309, 2524.484
612.621, 2475.860
613.933, 2530.251
615.245, 2586.655
616.557, 2701.075
617.868, 2778.508
619.179, 2640.957
620.490, 2624.420
621.801, 2725.899
623.111, 2457.392
624.421, 2391.899
625.731, 2164.422
627.041, 2171.958
628.351, 1896.510
629.660, 1818.077
630.970, 1799.658
632.279, 1515.255
633.588, 1417.866
634.896, 1317.585
636.205, 1298.131
637.513, 1146.787
638.821, 1107.456
640.129, 1074.141
641.437, 1088.839
642.744, 1051.553
644.051, 1097.281
645.358, 1118.023
646.665, 1203.780
647.972, 1178.832
649.278, 1267.618
650.584, 1391.692
651.890, 1552.637
653.196, 1734.658
654.502, 2041.993
655.807, 2110.346
657.113, 2624.460
658.418, 3304.276
659.722, 3889.890
661.027, 4852.995
662.331, 6028.664
663.636, 7719.778
664.940, 9460.449
666.244, 11588.149
667.547, 13262.169
668.851, 14772.963
670.154, 15006.849
671.457, 13881.641
672.760, 12163.950
674.062, 10020.118
675.365, 8032.553
676.667, 6380.786
677.969, 5125.759
679.271, 4165.830
680.572, 3460.022
681.874, 3106.451
683.175, 2830.403
684.476, 2540.727
685.777, 2419.115
687.077, 2102.323
688.378, 2147.470
689.678, 1908.122
690.978, 1723.513
692.278, 1439.961
693.577, 1431.302
694.877, 1213.287
696.176, 1190.568
697.475, 1108.782
698.774, 1210.471
700.072, 1283.698
701.371, 1192.981
702.669, 1283.946
703.967, 1449.108
705.265, 1814.160
706.562, 2015.101
707.860, 2183.038
709.157, 2588.996
710.454, 2744.994
711.751, 2986.032
713.047, 2814.109
714.344, 2757.256
715.640, 2327.482
716.936, 2006.784
718.232, 2014.170
719.527, 1660.619
720.823, 1566.146
722.118, 1532.780
723.413, 1447.486
724.708, 1272.278
726.002, 1174.134
727.297, 866.043
728.591, 941.977
729.885, 876.907
731.179, 683.833
732.472, 726.752
733.766, 636.662
735.059, 570.561
736.352, 710.449
737.645, 602.326
738.937, 600.192
740.230, 507.047
741.522, 566.891
742.814, 487.724
744.106, 578.544
745.397, 394.353
746.689, 286.150
747.980, 347.935
749.271, 289.707
750.562, 349.467
751.853, 289.216
753.143, 267.955
754.433, 290.686
755.723, 202.410
757.013, 238.438
758.303, 203.833
759.592, 272.530
760.881, 248.216
762.170, 286.891
763.459, 231.551
764.748, 164.198
766.036, 224.831
767.325, 260.449
768.613, 210.053
769.901, 233.643
771.188, 279.217
772.476, 313.777
773.763, 316.405
775.050, 335.853
776.337, 301.368
777.624, 314.868
778.910, 274.351
780.196, 326.820
781.482, 302.273
782.768, 324.710
784.054, 341.131
785.339, 353.536
786.625, 286.925
787.910, 293.298
789.195, 367.654
790.479, 243.994
791.764, 302.316
793.048, 196.623
794.332, 287.912
795.616, 222.184
796.900, 279.438
798.183, 192.676
799.467, 137.897
800.750, 141.100
802.033, 45.285
803.316, 127.449
804.598, 48.597
805.880, 83.724
807.163, 69.831
808.445, 17.918
809.726, 14.979
811.008, 60.012
812.289, 9.976
813.570, 34.483
814.851, 17.091
816.132, 112.221
817.413, 118.449
818.693, 62.779
819.973, 126.181
821.253, 82.690
822.533, 110.283
823.813, 142.974
825.092, 188.782
826.371, 116.730
827.650, 177.781
828.929, 117.967
830.208, 146.257
831.486, 189.667
832.764, 143.217
834.042, 192.885
835.320, 260.308
836.598, 141.235
837.875, 67.606
839.152, 36.934
840.429, 177.628
841.706, 97.250
842.983, 105.617
844.259, 117.728
845.536, 55.320
846.812, 54.062
848.088, 48.872
849.363, 40.252
850.639, 10.354
851.914, 93.577
853.189, 43.404
854.464, 8.635
855.739, 127.282
857.013, 48.182
858.288, 71.063
859.562, 108.926
860.836, 99.772
862.110, 117.601
863.383, 132.454
864.656, 160.208
865.930, 163.985
867.203, 172.747
868.475, 203.491
869.748, 231.817
871.020, 232.925
872.292, 301.615
873.564, 237.287
874.836, 238.940
876.108, 357.575
877.379, 319.191
878.650, 377.787
879.922, 417.364
881.192, 416.921
882.463, 397.459
883.733, 455.978
885.004, 429.477
886.274, 405.957
887.544, 536.418
888.813, 522.862
890.083, 487.286
891.352, 592.692
892.621, 556.081
893.890, 654.451
895.159, 637.805
896.427, 852.139
897.695, 848.990
898.964, 1020.758
900.232, 945.042
901.499, 1076.311
902.767, 1141.561
904.034, 1195.796
905.301, 1303.016
906.568, 1485.219
907.835, 1539.406
909.102, 1733.579
910.368, 1957.736
911.634, 2331.878
912.900, 2697.006
914.166, 3324.119
915.432, 3982.218
916.697, 4789.302
917.962, 5555.372
919.227, 6026.428
920.492, 6198.473
921.757, 5716.503
923.021, 5221.520
924.285, 4476.523
925.550, 3787.515
926.813, 3318.494
928.077, 2840.461
929.341, 2512.326
930.604, 2491.358
931.867, 2152.291
933.130, 2086.212
934.393, 2179.121
935.655, 2083.019
936.918, 2278.906
938.180, 2353.782
939.442, 2358.648
940.703, 2624.505
941.965, 2832.350
943.226, 3116.187
944.488, 3528.013
945.749, 4209.829
947.009, 4910.637
948.270, 5746.438
949.530, 6678.231
950.791, 7369.017
952.051, 7596.791
953.311, 7341.567
954.570, 7058.054
955.830, 6662.813
957.089, 6592.291
958.348, 6653.906
959.607, 7197.451
960.866, 7946.690
962.124, 9350.795
963.383, 11250.275
964.641, 13892.809
965.899, 18162.754
967.156, 23685.738
968.414, 30348.701
969.671, 37628.219
970.928, 41874.195
972.185, 41409.148
973.442, 36239.793
974.699, 28763.680
975.955, 21426.477
977.211, 15848.371
978.468, 11977.765
979.723, 9138.306
980.979, 6939.587
982.234, 5839.082
983.490, 4425.843
984.745, 3787.520
986.000, 3138.080
987.254, 2716.415
988.509, 2662.236
989.763, 2558.718
991.017, 2223.312
992.271, 2221.761
993.525, 1722.474
994.779, 1542.708
996.032, 1420.227
997.285, 1552.706
998.538, 1361.310
999.791, 1540.281
1001.044, 1489.969
1002.296, 1669.743
1003.548, 1763.052
1004.800, 2021.833
1006.052, 2462.569
1007.304, 2858.638
1008.555, 3544.520
1009.807, 3889.524
1011.058, 4220.653
1012.309, 4057.809
1013.559, 3655.995
1014.810, 3476.201
1016.060, 3092.431
1017.310, 2833.683
1018.560, 2248.954
1019.810, 2070.246
1021.060, 1815.558
1022.309, 1520.890
1023.558, 1363.242
1024.807, 1104.615
1026.056, 988.008
1027.305, 759.423
1028.553, 778.859
1029.801, 726.345
1031.049, 623.854
1032.297, 579.398
1033.545, 525.301
1034.793, 527.563
1036.040, 464.210
1037.287, 459.891
1038.534, 486.614
1039.781, 538.359
1041.027, 368.141
1042.274, 332.949
1043.520, 343.782
1044.766, 368.653
1046.012, 278.557
1047.257, 222.492
1048.503, 398.457
1049.748, 245.456
1050.993, 292.490
1052.238, 254.566
1053.483, 180.672
1054.727, 193.821
1055.971, 312.002
1057.216, 219.220
1058.459, 273.476
1059.703, 330.771
1060.947, 207.095
1062.190, 273.448
1063.433, 256.827
1064.676, 163.251
1065.919, 186.700
1067.162, 252.179
1068.404, 359.709
1069.646, 281.418
1070.888, 403.857
1072.130, 175.491
1073.372, 190.152
1074.613, 203.867
1075.855, 164.607
1077.096, 192.377
1078.337, 278.172
1079.578, 215.994
1080.818, 292.842
1082.059, 262.718
1083.299, 214.619
1084.539, 172.546
1085.779, 201.500
1087.018, 203.479
1088.258, 209.485
1089.497, 279.517
1090.736, 307.576
1091.975, 328.660
1093.213, 380.772
1094.452, 476.910
1095.690, 565.075
1096.928, 718.627
1098.166, 941.992
1099.404, 1399.238
1100.642, 1590.133
1101.879, 2086.477
1103.116, 2199.805
1104.353, 2725.161
1105.590, 3079.555
1106.827, 3617.968
1108.063, 3667.409
1109.299, 3801.897
1110.536, 3606.808
1111.771, 3247.343
1113.007, 3066.934
1114.243, 3074.400
1115.478, 2178.050
1116.713, 1735.741
1117.948, 1638.499
1119.183, 1269.326
1120.418, 1265.208
1121.652, 1502.161
1122.886, 1594.175
1124.120, 1394.256
1125.354, 1084.413
1126.588, 981.658
1127.821, 808.972
1129.055, 891.375
1130.288, 952.848
1131.521, 921.398
1132.753, 976.039
1133.986, 993.832
1135.218, 1054.638
1136.450, 952.551
1137.682, 1047.530
1138.914, 1075.573
1140.146, 1129.971
1141.377, 1241.580
1142.609, 1269.845
1143.840, 1341.668
1145.071, 1454.811
1146.301, 1582.588
1147.532, 1769.296
1148.762, 1883.724
1149.992, 1865.727
1151.222, 2065.545
1152.452, 2286.233
1153.682, 2263.965
1154.911, 2589.291
1156.140, 2688.132
1157.369, 3057.261
1158.598, 3277.169
1159.827, 3603.072
1161.055, 3646.345
1162.284, 3987.261
1163.512, 4342.330
1164.740, 4770.561
1165.967, 5305.554
1167.195, 6031.481
1168.422, 6650.492
1169.650, 7657.455
1170.877, 8719.401
1172.103, 10389.548
1173.330, 12236.674
1174.557, 14857.694
1175.783, 17756.928
1177.009, 21525.707
1178.235, 26265.992
1179.461, 31328.576
1180.686, 36135.664
1181.912, 40253.145
1183.137, 41698.395
1184.362, 40008.156
1185.587, 35702.121
1186.811, 30833.340
1188.036, 25293.590
1189.260, 20801.729
1190.484, 17127.299
1191.708, 13885.037
1192.932, 11282.484
1194.155, 9322.656
1195.378, 7675.389
1196.602, 6583.162
1197.825, 5669.966
1199.047, 4862.500
1200.270, 3964.154
1201.492, 3458.697
1202.715, 2836.169
1203.937, 2546.286
1205.159, 2244.821
1206.380, 2057.652
1207.602, 1777.011
1208.823, 1462.462
1210.044, 1345.882
1211.265, 1146.134
1212.486, 1037.904
1213.707, 907.939
1214.927, 876.885
1216.147, 750.520
1217.367, 736.281
1218.587, 565.405
1219.807, 567.273
1221.027, 514.599
1222.246, 385.217
1223.465, 439.207
1224.684, 399.802
1225.903, 275.429
1227.121, 198.995
1228.340, 275.793
1229.558, 279.309
1230.776, 113.775
1231.994, 252.242
1233.212, 149.724
1234.429, 143.222
1235.646, 29.734
1236.864, 64.261
1238.081, 134.801
1239.297, 81.354
1240.514, 56.913
1241.730, 64.486
1242.947, 25.927
1244.163, 13.330
1245.378, 7.272
1246.594, 85.882
1247.810, 67.496
1249.025, 76.132
1250.240, 13.771
1251.455, 1.422
1252.670, 50.084
1253.885, 30.758
1255.099, 0.558
1256.313, 55.863
1257.527, 37.835
1258.741, 1.484
1259.955, 38.826
1261.168, 116.799
1262.382, 173.414
1263.595, 108.027
1264.808, 162.637
1266.021, 282.251
1267.233, 377.994
1268.446, 513.730
1269.658, 622.322
1270.870, 593.928
1272.082, 508.516
1273.294, 407.104
1274.505, 344.419
1275.716, 182.131
1276.928, 119.951
1278.139, 106.653
1279.349, 3.671
1280.560, 39.929
1281.770, 27.395
1282.981, 93.121
1284.191, 15.238
1285.401, 9.448
1286.610, 96.165
1287.820, 72.415
1289.029, 47.137
1290.239, 33.977
1291.448, 25.954
1292.656, 2.981
1293.865, 16.030
1295.073, 24.134
1296.282, 0.915
1297.490, 15.472
1298.698, 13.209
1299.906, 6.126
1301.113, 5.646
1302.320, 0.133
1303.528, 6.728
1304.735, 25.696
1305.942, 30.147
1307.148, 26.370
1308.355, 8.133
1309.561, 10.397
1310.767, 32.782
1311.973, 17.204
1313.179, 40.601
1314.384, 58.973
1315.590, 110.318
1316.795, 28.635
1318.000, 40.923
1319.205, 73.182
1320.410, 29.413
1321.614, 84.388
1322.819, 32.749
1324.023, 31.146
1325.227, 141.911
1326.431, 11.076
1327.634, 70.113
1328.838, 13.214
1330.041, 47.364
1331.244, 89.431
1332.447, 17.814
1333.650, 20.890
1334.852, 43.034
1336.055, 22.332
1337.257, 0.743
1338.459, 4.808
1339.661, 14.320
1340.862, 2.942
1342.064, 2.506
1343.265, 29.111
1344.466, 21.234
1345.667, 27.458
1346.868, 6.803
1348.068, 2.981
1349.269, 8.810
1350.469, 12.685
1351.669, 37.394
1352.869, 35.510
1354.069, 126.517
1355.268, 32.132
1356.468, 70.780
1357.667, 57.279
1358.866, 56.750
1360.065, 93.377
1361.263, 12.591
1362.462, 9.610
1363.660, 75.048
1364.858, 59.330
1366.056, 111.208
1367.254, 71.670
1368.451, 121.083
1369.649, 115.375
1370.846, 131.615
1372.043, 90.743
1373.240, 146.784
1374.436, 183.747
1375.633, 302.603
1376.829, 300.847
1378.025, 463.075
1379.221, 860.288
1380.417, 1653.483
1381.613, 3032.286
1382.808, 4400.287
1384.003, 4402.653
1385.199, 2967.750
1386.393, 1596.814
1387.588, 994.847
1388.783, 605.322
1389.977, 485.321
1391.171, 373.277
1392.365, 357.208
1393.559, 291.112
1394.753, 275.988
1395.946, 375.838
1397.140, 384.656
1398.333, 320.441
1399.526, 272.101
1400.719, 361.822
1401.911, 350.397
1403.104, 248.890
1404.296, 313.192
1405.488, 351.614
1406.680, 318.452
1407.872, 281.511
1409.063, 228.549
1410.255, 186.723
1411.446, 190.450
1412.637, 226.043
1413.828, 213.251
1415.018, 231.760
1416.209, 270.323
1417.399, 118.216
1418.589, 198.668
1419.779, 175.216
1420.969, 186.868
1422.159, 185.371
1423.348, 180.892
1424.537, 193.110
1425.726, 180.795
1426.915, 227.943
1428.104, 201.009
1429.293, 209.542
1430.481, 102.262
1431.669, 153.797
1432.857, 158.731
1434.045, 210.014
1435.233, 211.561
1436.420, 246.667
1437.608, 172.394
1438.795, 152.333
1439.982, 216.246
1441.169, 161.050
1442.355, 163.045
1443.542, 178.750
1444.728, 226.143
1445.914, 208.239
1447.100, 218.032
1448.286, 256.681
1449.472, 203.149
1450.657, 289.439
1451.842, 226.570
1453.027, 249.498
1454.212, 210.257
1455.397, 178.806
1456.581, 230.125
1457.766, 214.200
1458.950, 165.022
1460.134, 228.646
1461.318, 164.316
1462.501, 176.934
1463.685, 207.365
1464.868, 181.894
1466.051, 235.925
1467.234, 136.757
1468.417, 189.855
1469.600, 146.009
1470.782, 169.504
1471.965, 164.608
1473.147, 174.061
1474.329, 224.854
1475.510, 120.908
1476.692, 17.914
1477.873, 101.983
1479.055, 147.431
1480.236, 182.215
1481.416, 81.108
1482.597, 26.886
1483.778, 94.515
1484.958, 105.006
1486.138, 91.374
1487.318, 195.635
1488.498, 66.818
1489.678, 80.950
1490.857, 118.030
1492.037, 85.120
1493.216, 92.285
1494.395, 41.667
1495.574, 100.181
1496.752, 3.912
1497.931, 97.289
1499.109, 3.078
1500.287, 21.356
1501.465, 1.746
1502.643, 1.566
1503.820, 25.456
1504.998, 59.847
1506.175, 151.313
1507.352, 236.270
1508.529, 140.193
1509.706, 23.652
1510.882, 19.354
1512.059, 10.483
1513.235, 51.399
1514.411, 10.774
1515.587, 0.224
1516.762, 0.000
##END=



