##NAMES=Corundum
##RRUFFID=R060020
##IDEAL CHEMISTRY=Al_2_O_3_
##LOCALITY=Yogo Gulch, Montana, USA
##OWNER=RRUFF
##SOURCE=American Museum of Natural History
##DESCRIPTION=Water rounded light blue fragment
##STATUS=The identification of this mineral has been confirmed by X-ray diffraction and chemical analysis
##URL=rruff.info/R060020
##MEASURED CHEMISTRY=(Al_1.99_Fe^3+^_0.01_)_Î£=2_O_3_ ; Fe^3+^ by charge balance
##PIN_ID=L01955
##ORIENTATION=Laser parallel to c* (0 0 1). Fiducial mark perpendicular to laser is parallel to b [0 1 0]
179.5050, 136.8613
180.7290, 44.83008
181.9520, 48.55469
183.1760, 53.28613
184.3990, 45.40625
185.6220, 31.11426
186.8450, 102.4512
188.0670, 92.98730
189.2900, 150.5000
190.5120, 245.9922
191.7340, 472.4668
192.9560, 711.9258
194.1780, 828.3711
195.4000, 962.8027
196.6220, 745.2227
197.8430, 549.6299
199.0640, 446.1934
200.2860, 517.4033
201.5070, 415.0576
202.7270, 497.9775
203.9480, 439.4131
205.1690, 408.4395
206.3890, 336.5244
207.6090, 33.25781
208.8290, 125.3584
210.0490, 30.77734
211.2690, 5.732422
212.4890, 111.4365
213.7080, 33.77539
214.9280, 8.450195
216.1470, 111.9121
217.3660, 81.24121
218.5850, 38.91504
219.8030, 85.97754
221.0220, 141.7490
222.2400, 11.09668
223.4590, 33.06836
224.6770, 38.72168
225.8950, 74.64746
227.1120, 71.32422
228.3300, 127.7734
229.5480, 138.6084
230.7650, 27.21289
231.9820, 47.72168
233.1990, 9.682617
234.4160, 44.33301
235.6330, 42.31543
236.8490, 201.2705
238.0660, 3.195313
239.2820, 205.0898
240.4980, 60.95605
241.7140, 269.7822
242.9300, 83.56348
244.1460, 10.68652
245.3610, 107.0352
246.5770, 21.72461
247.7920, 32.38281
249.0070, 67.00879
250.2220, 89.60449
251.4370, 90.06152
252.6510, 66.94336
253.8660, 85.51465
255.0800, 76.90820
256.2940, 63.65039
257.5080, 226.6787
258.7220, 55.06055
259.9360, 379.3877
261.1490, 368.0059
262.3630, 191.7666
263.5760, 27.34766
264.7890, 87.63965
266.0020, 70.71973
267.2150, 70.88184
268.4270, 134.8955
269.6400, 119.4082
270.8520, 160.7559
272.0640, 243.1484
273.2760, 158.5811
274.4880, 133.0469
275.7000, 223.5439
276.9120, 260.0645
278.1230, 220.6094
279.3340, 440.1699
280.5450, 312.7539
281.7560, 530.3467
282.9670, 389.9473
284.1780, 321.5459
285.3880, 371.1426
286.5980, 210.7344
287.8090, 251.3184
289.0190, 191.8945
290.2290, 106.4619
291.4380, 183.0088
292.6480, 37.45605
293.8570, 143.4883
295.0670, 11.87402
296.2760, 161.0771
297.4850, 99.49121
298.6930, 78.26074
299.9020, 93.59863
301.1110, 30.21289
302.3190, 118.4961
303.5270, 65.27832
304.7350, 19.88965
305.9430, 40.98047
307.1510, 18.17871
308.3580, 23.39648
309.5660, 21.34180
310.7730, 52.58887
311.9800, 46.01855
313.1870, 62.05762
314.3940, 83.82031
315.6010, 49.42480
316.8070, 87.39551
318.0130, 51.49219
319.2200, 76.62402
320.4260, 73.67285
321.6310, 4.455078
322.8370, 41.73145
324.0430, 66.52832
325.2480, 134.6035
326.4540, 55.41895
327.6590, 34.07324
328.8640, 11.79688
330.0680, 138.2900
331.2730, 160.0977
332.4780, 43.52734
333.6820, 20.94336
334.8860, 86.10840
336.0900, 70.51270
337.2940, 11.21973
338.4980, 40.34180
339.7010, 94.78418
340.9050, 140.0098
342.1080, 86.22754
343.3110, 50.46777
344.5140, 25.89746
345.7170, 28.67188
346.9200, 113.0781
348.1220, 174.5312
349.3240, 31.87207
350.5270, 76.09473
351.7290, 167.2393
352.9310, 16.65625
354.1320, 173.3975
355.3340, 122.0605
356.5350, 223.9893
357.7370, 330.9668
358.9380, 263.2734
360.1390, 282.9424
361.3400, 290.6592
362.5400, 268.7178
363.7410, 364.8789
364.9410, 331.3818
366.1410, 358.8164
367.3410, 540.9414
368.5410, 378.2314
369.7410, 381.4443
370.9400, 567.5957
372.1400, 654.7227
373.3390, 568.8115
374.5380, 767.8525
375.7370, 823.8682
376.9360, 967.9131
378.1350, 999.5508
379.3330, 1110.501
380.5310, 1157.429
381.7300, 993.3320
382.9280, 1108.209
384.1260, 1020.070
385.3230, 1136.908
386.5210, 1328.726
387.7180, 1248.521
388.9160, 1428.898
390.1130, 1461.650
391.3100, 1621.382
392.5060, 1608.090
393.7030, 1677.776
394.9000, 1770.442
396.0960, 1756.095
397.2920, 1749.731
398.4880, 1645.353
399.6840, 1623.955
400.8800, 1514.534
402.0750, 1395.094
403.2710, 1270.056
404.4660, 1050.131
405.6610, 1105.620
406.8560, 1277.085
408.0510, 1486.585
409.2450, 1684.178
410.4400, 2192.964
411.6340, 2110.774
412.8280, 2555.256
414.0220, 3056.089
415.2160, 3809.803
416.4100, 3961.406
417.6030, 3792.429
418.7970, 3211.060
419.9900, 2362.629
421.1830, 1812.303
422.3760, 1329.747
423.5690, 1088.645
424.7610, 752.3438
425.9540, 767.4297
427.1460, 603.0361
428.3380, 581.2705
429.5300, 441.4736
430.7220, 609.6465
431.9140, 655.7861
433.1050, 638.8955
434.2970, 356.9727
435.4880, 324.0166
436.6790, 172.6738
437.8700, 243.6484
439.0610, 198.6895
440.2510, 224.8887
441.4420, 167.2168
442.6320, 315.8545
443.8220, 191.8398
445.0120, 339.7676
446.2020, 519.7188
447.3910, 455.1826
448.5810, 409.8330
449.7700, 231.7930
450.9600, 207.3711
452.1490, 235.0410
453.3370, 209.5186
454.5260, 134.7090
455.7150, 218.6143
456.9030, 43.06934
458.0910, 145.8281
459.2800, 206.1152
460.4670, 168.8691
461.6550, 153.1562
462.8430, 247.9492
464.0300, 104.6084
465.2180, 2.500000
466.4050, 134.7256
467.5920, 51.33496
468.7790, 107.5410
469.9650, 240.3281
471.1520, 93.37598
472.3380, 70.26172
473.5250, 50.39746
474.7110, 7.476563
475.8970, 118.2188
477.0820, 225.5703
478.2680, 132.0254
479.4540, 36.11719
480.6390, 85.21973
481.8240, 39.05664
483.0090, 227.4014
484.1940, 264.8643
485.3780, 245.9434
486.5630, 424.9570
487.7470, 200.3662
488.9320, 199.8311
490.1160, 166.9971
491.3000, 173.3838
492.4830, 181.8154
493.6670, 211.4590
494.8500, 194.9248
496.0340, 210.4834
497.2170, 152.5391
498.4000, 223.5098
499.5820, 178.7910
500.7650, 174.0498
501.9480, 186.2871
503.1300, 387.5020
504.3120, 415.8555
505.4940, 650.8662
506.6760, 665.0195
507.8580, 758.1504
509.0390, 961.2588
510.2210, 1074.348
511.4020, 1231.414
512.5830, 1206.457
513.7640, 1342.481
514.9450, 1275.482
516.1250, 1356.465
517.3060, 1450.425
518.4860, 1262.364
519.6660, 1265.291
520.8460, 1137.609
522.0260, 1036.447
523.2060, 853.9541
524.3850, 841.7998
525.5650, 717.6260
526.7440, 625.4297
527.9230, 668.2139
529.1020, 640.9775
530.2810, 546.8438
531.4590, 520.5674
532.6380, 571.2705
533.8160, 615.9531
534.9940, 447.6143
536.1720, 323.2559
537.3500, 276.8770
538.5270, 333.4756
539.7050, 225.0537
540.8820, 303.6113
542.0590, 232.2236
543.2360, 366.5986
544.4130, 311.2002
545.5900, 57.17773
546.7660, 235.4199
547.9430, 196.6113
549.1190, 112.6855
550.2950, 154.4102
551.4710, 102.6289
552.6470, 90.45410
553.8220, 163.3545
554.9980, 84.26953
556.1730, 110.8984
557.3480, 131.1562
558.5230, 50.94141
559.6980, 148.8301
560.8730, 173.1680
562.0470, 7.738281
563.2220, 207.5273
564.3960, 45.05664
565.5700, 150.6895
566.7440, 58.46484
567.9170, 166.5586
569.0910, 266.1836
570.2640, 323.6445
571.4380, 388.4297
572.6110, 505.6191
573.7840, 425.8105
574.9570, 713.3086
576.1290, 577.3398
577.3020, 442.3164
578.4740, 547.8320
579.6460, 324.4453
580.8180, 99.24023
581.9900, 253.1758
583.1620, 59.25000
584.3330, 207.1289
585.5040, 164.9258
586.6760, 195.7539
587.8470, 133.3652
589.0180, 101.1816
590.1880, 94.58594
591.3590, 57.72070
592.5290, 64.21484
593.7000, 70.00977
594.8700, 51.42578
596.0400, 95.49414
597.2090, 213.9102
598.3790, 149.4023
599.5490, 206.4707
600.7180, 131.7695
601.8870, 183.8789
603.0560, 88.90039
604.2250, 125.7285
605.3940, 131.0879
606.5620, 180.3652
607.7300, 174.3223
608.8990, 224.8398
610.0670, 269.6836
611.2350, 281.0879
612.4020, 235.9160
613.5700, 278.6348
614.7370, 317.1934
615.9050, 598.6172
617.0720, 475.5762
618.2390, 638.9590
619.4060, 777.9629
620.5720, 761.5625
621.7390, 935.4141
622.9050, 1019.102
624.0710, 923.5195
625.2370, 1318.914
626.4030, 1351.330
627.5690, 1787.730
628.7340, 1709.133
629.9000, 1959.527
631.0650, 2015.916
632.2300, 2298.254
633.3950, 2485.621
634.5600, 2645.475
635.7240, 2852.816
636.8890, 3018.191
638.0530, 2932.418
639.2170, 2774.812
640.3810, 2733.559
641.5450, 2594.871
642.7080, 2432.201
643.8720, 2356.043
645.0350, 2322.332
646.1980, 2097.598
647.3610, 1840.844
648.5240, 1503.070
649.6870, 1401.271
650.8490, 1333.471
652.0120, 1250.652
653.1740, 1129.578
654.3360, 963.9473
655.4980, 902.0957
656.6600, 666.1895
657.8210, 578.2578
658.9830, 723.3047
660.1440, 473.3281
661.3050, 475.4863
662.4660, 674.4824
663.6270, 452.4590
664.7870, 491.4199
665.9480, 332.4551
667.1080, 340.3730
668.2680, 327.2676
669.4280, 262.1367
670.5880, 319.9863
671.7480, 520.8145
672.9070, 592.6191
674.0670, 546.4004
675.2260, 401.4492
676.3850, 427.1797
677.5440, 596.8867
678.7030, 716.5684
679.8610, 346.2227
681.0200, 282.8535
682.1780, 96.45508
683.3360, 224.0273
684.4940, 238.5684
685.6520, 117.5195
686.8090, 125.0039
687.9670, 149.6973
689.1240, 26.21875
690.2810, 107.2109
691.4380, 79.62891
692.5950, 51.49023
693.7520, 77.31445
694.9080, 25.08789
696.0650, 73.80664
697.2210, 203.0117
698.3770, 77.40820
699.5330, 116.6504
700.6880, 96.99414
701.8440, 20.67188
702.9990, 39.19922
704.1550, 78.25586
705.3100, 47.21289
706.4650, 49.82422
707.6190, 155.9746
708.7740, 189.3965
709.9290, 106.7832
711.0830, 243.1855
712.2370, 237.3887
713.3910, 159.5000
714.5450, 265.7773
715.6980, 274.5078
716.8520, 277.9336
718.0050, 386.9785
719.1580, 227.9961
720.3110, 235.6621
721.4640, 153.0586
722.6170, 288.2051
723.7700, 229.9414
724.9220, 288.4785
726.0740, 6.4452998E-02
727.2260, 294.3379
728.3780, 147.6602
729.5300, 192.0801
730.6810, 315.5742
731.8330, 264.7402
732.9840, 377.5391
734.1350, 326.8203
735.2860, 431.6348
736.4370, 275.8125
737.5880, 449.0215
738.7380, 395.0469
739.8880, 742.3594
741.0390, 780.3594
742.1890, 1040.490
743.3380, 1223.174
744.4880, 1402.967
745.6380, 1552.098
746.7870, 1648.385
747.9360, 1828.006
749.0850, 1875.277
750.2340, 1730.645
751.3830, 1764.879
752.5310, 1631.463
753.6800, 1462.855
754.8280, 1265.275
755.9760, 1042.346
757.1240, 1121.062
758.2720, 886.6895
759.4190, 861.8906
760.5670, 720.6523
761.7140, 631.7012
762.8610, 441.5801
764.0080, 546.5859
765.1550, 396.0996
766.3020, 600.5156
767.4480, 418.2988
768.5950, 337.3574
769.7410, 554.5312
770.8870, 408.3984
772.0330, 237.8496
773.1780, 479.6387
774.3240, 415.4980
775.4690, 399.4785
776.6140, 574.2090
777.7590, 282.3750
778.9040, 514.5000
780.0490, 495.5918
781.1940, 247.9746
782.3380, 470.9727
783.4820, 666.0371
784.6260, 516.4727
785.7700, 432.3418
786.9140, 481.2754
788.0580, 603.6406
789.2010, 424.7246
790.3450, 501.0996
791.4880, 430.3301
792.6310, 375.4473
793.7730, 584.3848
794.9160, 495.8691
796.0590, 622.2246
797.2010, 679.9492
798.3430, 346.9160
799.4850, 622.1426
800.6270, 530.3789
801.7690, 622.5117
802.9100, 366.8379
804.0520, 614.4375
805.1930, 493.9023
806.3340, 651.2578
807.4750, 601.9570
808.6160, 586.2266
809.7560, 777.4961
810.8970, 436.0664
812.0370, 323.0215
813.1770, 586.3906
814.3170, 605.4609
815.4570, 483.6406
816.5960, 616.0488
817.7360, 596.6582
818.8750, 476.3262
820.0140, 562.2148
821.1530, 525.9434
822.2920, 428.2305
823.4310, 485.4922
824.5690, 336.2012
825.7070, 424.7070
826.8460, 336.8027
827.9840, 280.3555
829.1220, 448.2910
830.2590, 376.5547
831.3970, 260.3965
832.5340, 350.2266
833.6710, 294.0254
834.8080, 291.1914
835.9450, 322.0684
837.0820, 330.1094
838.2190, 395.1230
839.3550, 428.8828
840.4910, 350.4316
841.6270, 382.5645
842.7630, 232.7910
843.8990, 304.2480
845.0350, 284.7559
846.1700, 385.7324
847.3060, 302.5488
848.4410, 371.7520
849.5760, 118.5371
850.7100, 216.6973
851.8450, 204.1484
852.9800, 432.6387
854.1140, 349.9121
855.2480, 564.2832
856.3820, 268.2324
857.5160, 236.0664
858.6500, 335.5918
859.7830, 333.7109
860.9170, 331.4766
862.0500, 344.8906
863.1830, 432.3418
864.3160, 290.6758
865.4480, 250.8027
866.5810, 187.4160
867.7130, 264.1445
868.8460, 110.6152
869.9780, 207.3359
871.1100, 61.19531
872.2410, 140.5664
873.3730, 17.08398
874.5050, 155.4766
875.6360, 243.5566
876.7670, 123.5156
877.8980, 229.3691
879.0290, 126.4258
880.1590, 97.27148
881.2900, 62.05078
882.4200, 249.8555
883.5500, 213.1191
884.6800, 81.64844
885.8100, 290.1016
886.9400, 292.3027
888.0690, 222.7168
889.1990, 30.67969
890.3280, 23.44531
891.4570, 326.2070
892.5860, 162.8672
893.7140, 177.8887
894.8430, 4.044922
895.9710, 2.378906
897.1000, 34.60352
898.2280, 86.38477
899.3560, 47.05469
900.4830, 155.7871
901.6110, 169.9531
902.7380, 72.11719
903.8660, 86.56445
904.9930, 9.523438
906.1200, 28.28320
907.2460, 115.1016
908.3730, 27.67383
909.5000, 87.04102
910.6260, 198.5645
911.7520, 213.9473
912.8780, 135.4004
914.0040, 134.9785
915.1290, 132.7305
916.2550, 52.06445
917.3800, 133.7461
918.5050, 107.9961
919.6300, 17.48828
920.7550, 133.4336
921.8800, 107.7637
923.0040, 57.40625
924.1290, 49.33008
925.2530, 209.6113
926.3770, 8.294922
927.5010, 16.48242
928.6250, 280.9531
929.7480, 139.9570
930.8720, 159.3496
931.9950, 59.97266
933.1180, 230.5059
934.2410, 64.34180
935.3640, 142.7871
936.4860, 17.01367
937.6090, 99.02148
938.7310, 21.95508
939.8530, 42.25195
940.9750, 57.50391
942.0970, 174.2305
943.2180, 9.009766
944.3400, 45.86133
945.4610, 200.4648
946.5820, 97.01172
947.7030, 226.1504
948.8240, 46.01367
949.9450, 248.0293
951.0650, 183.2324
952.1860, 121.6152
953.3060, 389.5117
954.4260, 68.12695
955.5460, 221.6719
956.6650, 89.81445
957.7850, 201.2793
958.9040, 89.84375
960.0230, 149.5371
961.1420, 76.38086
962.2610, 70.28125
963.3800, 176.5605
964.4990, 58.33594
965.6170, 261.8047
966.7350, 11.34570
967.8530, 82.73633
968.9710, 1.962891
970.0890, 188.3984
971.2070, 262.7871
972.3240, 327.9766
973.4410, 374.5996
974.5580, 333.8984
975.6750, 324.6270
976.7920, 263.4531
977.9090, 115.2598
979.0250, 198.9785
980.1410, 109.0312
981.2580, 53.10352
982.3740, 85.27344
983.4890, 167.7090
984.6050, 226.1465
985.7200, 249.1855
986.8360, 236.7852
987.9510, 279.6309
989.0660, 285.8164
990.1810, 284.0312
991.2950, 307.7559
992.4100, 284.9629
993.5240, 266.8262
994.6390, 281.2422
995.7530, 270.7305
996.8660, 109.2168
997.9800, 174.7012
999.0940, 347.9375
1000.207, 221.3027
1001.320, 467.0176
1002.433, 530.4395
1003.546, 292.1777
1004.659, 101.1797
1005.772, 243.6523
1006.884, 35.15039
1007.996, 259.8750
1009.108, 123.2793
1010.220, 151.3281
1011.332, 163.9121
1012.444, 103.2832
1013.555, 141.8613
1014.666, 144.4297
1015.777, 132.5977
1016.888, 255.1758
1017.999, 180.1055
1019.110, 192.5938
1020.220, 242.0020
1021.331, 179.7012
1022.441, 274.4707
1023.551, 338.2070
1024.661, 294.7578
1025.770, 424.5117
1026.880, 0.4843750
1027.989, 184.4082
1029.098, 82.28320
1030.207, 162.0195
1031.316, 146.9648
1032.425, 208.8926
1033.533, 180.5840
1034.642, 314.6074
1035.750, 290.2715
1036.858, 239.2695
1037.966, 257.9863
1039.073, 71.24805
1040.181, 54.27539
1041.288, 221.0781
1042.396, 153.6875
1043.503, 283.4414
1044.610, 59.78125
1045.716, 37.38086
1046.823, 115.3984
1047.929, 153.0176
1049.036, 239.4492
1050.142, 13.71094
1051.248, 230.8555
1052.353, 159.2852
1053.459, 280.8066
1054.564, 169.2461
1055.670, 314.8203
1056.775, 312.1367
1057.880, 126.5020
1058.985, 256.3457
1060.089, 121.3438
1061.194, 270.6426
1062.298, 138.6055
1063.402, 323.7559
1064.506, 203.3398
1065.610, 210.0703
1066.713, 251.0547
1067.817, 422.5078
1068.920, 236.6387
1070.023, 257.3633
1071.126, 243.6309
1072.229, 172.2871
1073.332, 168.7168
1074.435, 42.57617
1075.537, 21.25000
1076.639, 216.7930
1077.741, 324.8320
1078.843, 350.2148
1079.945, 40.97461
1081.046, 164.0977
1082.148, 113.7773
1083.249, 56.70312
1084.350, 239.9395
1085.451, 20.75586
1086.551, 159.0312
1087.652, 161.9062
1088.752, 245.8926
1089.853, 155.0645
1090.953, 119.9219
1092.053, 256.6328
1093.152, 297.3105
1094.252, 187.5215
1095.351, 275.5859
1096.451, 8.191406
1097.550, 52.27930
1098.649, 83.69922
1099.748, 105.5000
1100.846, 240.8906
1101.945, 201.1523
1103.043, 242.2402
1104.141, 63.63867
1105.239, 147.1895
1106.337, 43.68945
1107.434, 35.13477
1108.532, 155.5234
1109.629, 42.66992
1110.726, 18.71680
1111.823, 111.5078
1112.920, 190.7832
1114.017, 213.9395
1115.113, 177.0820
1116.210, 177.9844
1117.306, 344.7441
1118.402, 52.43750
1119.498, 451.6914
1120.593, 388.2227
1121.689, 233.0000
1122.784, 255.6602
1123.879, 267.3867
1124.974, 420.8945
1126.069, 223.6328
1127.164, 297.4023
1128.259, 352.5195
1129.353, 307.4141
1130.447, 377.3828
1131.541, 207.5195
1132.635, 291.2539
1133.729, 186.3125
1134.822, 185.3906
1135.916, 207.0859
1137.009, 229.4102
1138.102, 234.3281
1139.195, 88.75781
1140.288, 245.6719
1141.380, 95.53906
1142.473, 144.1484
1143.565, 380.0977
1144.657, 120.5938
1145.749, 95.37109
1146.841, 65.12891
1147.932, 44.08984
1149.024, 78.50000
1150.115, 70.64844
1151.206, 24.30078
1152.297, 174.2578
1153.388, 81.73828
1154.479, 120.1836
1155.569, 138.4883
1156.659, 155.9414
1157.750, 161.6875
1158.839, 188.9336
1159.929, 277.7305
1161.019, 154.9688
1162.108, 255.5469
1163.198, 38.94141
1164.287, 42.64062
1165.376, 299.3945
1166.465, 148.5078
1167.553, 198.4062
1168.642, 178.9453
1169.730, 237.5742
1170.818, 106.3867
1171.906, 236.9805
1172.994, 181.6797
1174.082, 107.9453
1175.170, 156.5156
1176.257, 132.1016
1177.344, 144.6602
1178.431, 227.5898
1179.518, 257.5352
1180.605, 207.0742
1181.691, 371.3477
1182.778, 198.6445
1183.864, 308.4375
1184.950, 198.6680
1186.036, 129.5625
1187.122, 392.1172
1188.207, 100.6289
1189.292, 134.6328
1190.378, 110.0508
1191.463, 282.3945
1192.548, 144.3164
1193.632, 185.6367
1194.717, 91.45312
1195.801, 183.9805
1196.886, 283.9727
1197.970, 88.23047
1199.054, 139.8750
1200.137, 2.347656
1201.221, 282.0625
1202.305, 46.52344
1203.388, 164.6875
1204.471, 65.65625
1205.554, 57.37891
1206.637, 300.4414
1207.719, 326.9453
1208.802, 241.1875
1209.884, 274.4766
1210.966, 129.6367
1212.048, 87.42578
1213.130, 190.8945
1214.212, 191.9688
1215.293, 242.8906
1216.374, 208.0781
1217.456, 294.4453
1218.536, 235.7852
1219.617, 376.4297
1220.698, 3.347656
1221.778, 426.6758
1222.859, 294.2266
1223.939, 7.777344
1225.019, 258.9414
1226.099, 336.4219
1227.178, 333.8789
1228.258, 121.6602
1229.337, 373.3711
1230.417, 180.6172
1231.496, 114.7500
1232.574, 99.66016
1233.653, 335.6992
1234.732, 330.9414
1235.810, 427.4844
1236.888, 341.5703
1237.966, 578.5938
1239.044, 420.1680
1240.122, 58.86719
1241.199, 221.7852
1242.277, 108.3711
1243.354, 308.9297
1244.431, 399.3984
1245.508, 224.3398
1246.585, 305.5820
1247.661, 345.2031
1248.738, 176.0742
1249.814, 145.5625
1250.890, 83.06641
1251.966, 348.5898
1253.042, 94.85938
1254.117, 116.4727
1255.193, 33.73828
1256.268, 90.55469
1257.343, 165.1328
1258.418, 152.7617
1259.493, 70.60938
1260.567, 165.9648
1261.642, 0.4726560
1262.716, 0.6992190
1263.790, 146.5781
1264.864, 216.1523
1265.938, 345.4844
1267.011, 355.9570
1268.085, 241.5273
1269.158, 368.3633
1270.231, 228.2852
1271.304, 246.9258
1272.377, 16.71484
1273.450, 11.80078
1274.522, 186.0234
1275.594, 243.9414
1276.666, 318.7227
1277.738, 296.4258
1278.810, 18.59766
1279.882, 134.3320
1280.953, 172.6797
1282.025, 10.46484
1283.096, 306.1016
1284.167, 123.7500
1285.238, 6.164063
1286.308, 19.28516
1287.379, 27.66797
1288.449, 5.195313
1289.519, 339.4844
1290.589, 329.9141
1291.659, 712.3867
1292.729, 330.8164
1293.798, 278.2188
1294.868, 304.8906
1295.937, 332.4219
1297.006, 498.5898
1298.075, 690.2930
1299.143, 876.2070
1300.212, 143.1953
1301.280, 274.6758
1302.348, 299.1367
1303.416, 539.2383
1304.484, 417.3008
1305.552, 450.4141
1306.620, 337.5352
1307.687, 497.9531
1308.754, 293.4492
1309.821, 643.6836
1310.888, 323.2695
1311.955, 449.3711
1313.021, 378.8672
1314.088, 326.8672
1315.154, 262.5273
1316.220, 266.8633
1317.286, 232.2891
1318.352, 251.9531
1319.417, 476.1602
1320.483, 398.1875
1321.548, 500.5781
1322.613, 762.0938
1323.678, 356.1484
1324.743, 239.5508
1325.807, 206.3281
1326.872, 372.2500
1327.936, 503.3516
1329.000, 318.8320
1330.064, 416.4414
1331.128, 321.2539
1332.191, 392.2812
1333.255, 285.2695
1334.318, 169.7734
1335.381, 253.2617
1336.444, 45.23828
1337.507, 332.8906
1338.569, 575.1211
1339.632, 326.7070
1340.694, 342.0820
1341.756, 468.9922
1342.818, 338.0859
1343.880, 395.2031
1344.941, 393.9453
1346.003, 443.6094
1347.064, 398.8711
1348.125, 431.9648
1349.186, 440.9297
1350.247, 413.7031
1351.308, 462.6562
1352.368, 374.7422
1353.428, 362.3633
1354.489, 339.4961
1355.549, 296.6992
1356.608, 331.9219
1357.668, 218.6797
1358.727, 436.7617
1359.787, 440.5234
1360.846, 578.1797
1361.905, 459.9102
1362.964, 449.4297
1364.022, 419.6797
1365.081, 371.5938
1366.139, 109.8516
1367.197, 196.1289
1368.255, 211.4141
1369.313, 268.8672
1370.371, 343.5898
1371.428, 554.6445
1372.486, 220.2734
1373.543, 522.7773
1374.600, 453.3281
1375.657, 350.5469
1376.713, 32.21875
1377.770, 425.9648
1378.826, 340.1094
1379.882, 177.8711
1380.938, 335.3320
1381.994, 168.0469
1383.050, 245.0117
1384.106, 263.2891
1385.161, 152.4180
1386.216, 336.6797
1387.271, 211.1133
1388.326, 119.7930
1389.381, 396.4414
1390.435, 435.1719
1391.490, 76.66406
1392.544, 120.4062
1393.598, 240.1367
1394.652, 169.5742
1395.705, 96.62891
1396.759, 215.7578
1397.812, 192.6562
1398.866, 46.30469
1399.919, 319.8320
1400.972, 204.3086
1402.024, 53.65625
1403.077, 85.23828
1404.129, 35.30859
1405.181, 34.32422
1406.233, 116.3789
1407.285, 2.343750
1408.337, 73.17578
1409.389, 205.4492
1410.440, 230.5352
1411.491, 370.2188
1412.542, 282.2461
1413.593, 196.8242
1414.644, 218.6914
1415.695, 307.8359
1416.745, 233.6250
1417.795, 314.2383
1418.845, 334.9688
1419.895, 334.5469
1420.945, 275.8516
1421.995, 146.3945
1423.044, 271.7891
1424.093, 351.2188
1425.142, 359.7617
1426.191, 199.0664
1427.240, 199.8828
1428.289, 592.7266
1429.337, 477.8125
1430.385, 182.8438
1431.433, 536.5000
1432.481, 400.5742
1433.529, 545.2773
1434.577, 470.1016
1435.624, 707.4688
1436.672, 659.0469
1437.719, 818.1523
1438.766, 721.6797
1439.812, 818.6914
1440.859, 689.4141
1441.905, 694.7305
1442.952, 836.4531
1443.998, 758.2305
1445.044, 767.3359
1446.090, 804.4727
1447.135, 621.4375
1448.181, 703.4219
1449.226, 621.3555
1450.271, 699.0352
1451.316, 381.5625
1452.361, 491.5234
1453.405, 510.4766
1454.450, 458.2500
1455.494, 639.9844
1456.538, 360.5117
1457.582, 626.2812
1458.626, 266.0859
1459.670, 567.8125
1460.713, 591.6250
1461.757, 658.3945
1462.800, 553.1172
1463.843, 547.8086
1464.886, 472.2617
1465.928, 507.3320
1466.971, 334.1484
1468.013, 90.67188
1469.055, 110.0508
1470.097, 613.5352
1471.139, 225.6211
1472.181, 252.5234
1473.222, 401.6016
1474.263, 146.9688
1475.305, 284.7344
1476.346, 357.1758
1477.386, 250.5547
1478.427, 677.7539
1479.468, 303.9648
1480.508, 277.1875
1481.548, 294.6641
1482.588, 649.4922
1483.628, 741.9609
1484.668, 573.6914
1485.707, 445.7227
1486.747, 328.9023
1487.786, 570.1016
1488.825, 17.56250
1489.864, 234.3633
1490.902, 635.7812
1491.941, 333.5859
1492.979, 289.5859
1494.017, 162.7891
1495.055, 214.2695
1496.093, 324.8359
1497.131, 61.16797
1498.168, 373.7656
1499.206, 150.3086
1500.243, 32.03516
1501.280, 233.3281
1502.317, 170.5156
1503.354, 78.07031
1504.390, 38.61328
1505.426, 52.93359
1506.463, 363.6914
1507.499, 65.24219
1508.535, 375.8203
1509.570, 272.4219
1510.606, 407.0742
1511.641, 126.7930
1512.676, 411.4883
1513.711, 503.1094
1514.746, 321.6523
1515.781, 354.1836
1516.816, 366.7617
1517.850, 235.1328
1518.884, 296.9102
1519.918, 279.9961
1520.952, 350.2031
1521.986, 278.2617
1523.019, 385.4219
1524.053, 313.7812
1525.086, 354.3203
1526.119, 334.5469
1527.152, 325.2344
1528.185, 458.7500
1529.217, 340.1094
1530.250, 406.9531
1531.282, 736.1953
1532.314, 504.1367
1533.346, 274.9297
1534.377, 388.3906
1535.409, 643.3867
1536.440, 402.9883
1537.472, 334.0273
1538.503, 229.7031
1539.534, 55.66016
1540.564, 358.8594
1541.595, 166.4961
1542.625, 189.7852
1543.656, 401.8320
1544.686, 332.8789
1545.716, 238.8125
1546.745, 296.7930
1547.775, 433.2734
1548.804, 52.90234
1549.834, 327.7422
1550.863, 158.5977
1551.892, 263.9766
1552.920, 210.6406
1553.949, 352.4922
1554.977, 106.7852
1556.006, 215.3203
1557.034, 516.6914
1558.062, 224.8867
1559.089, 353.8320
1560.117, 312.7422
1561.144, 190.9648
1562.172, 96.55078
1563.199, 261.3906
1564.226, 399.3672
1565.252, 373.7031
1566.279, 45.34375
1567.305, 0.5117190
1568.332, 99.06250
1569.358, 157.4766
1570.384, 41.72656
1571.409, 0.4296880
1572.435, 0.0000000E+00
##END=



