##NAMES=Corundum
##RRUFFID=R040096
##IDEAL CHEMISTRY=Al_2_O_3_
##LOCALITY=Sri Lanka
##OWNER=RRUFF
##SOURCE=University of Arizona Mineral Museum
##DESCRIPTION=Pale purple hexagonal prism
##STATUS=The identification of this mineral has been confirmed by X-ray diffraction and chemical analysis
##URL=rruff.info/R040096
##MEASURED CHEMISTRY=Al_2.00_O_3_
##PIN_ID=L01198
##ORIENTATION=Laser parallel to a* (1 0 0). Fiducial mark perpendicular to laser is parallel to c [0 0 1]
113.2080, 0.0000000E+00
114.4400, 0.8408200
115.6710, 25.25391
116.9030, 63.65088
118.1340, 91.25684
119.3650, 77.44531
120.5960, 11.83301
121.8270, 99.15869
123.0580, 60.23975
124.2880, 91.93799
125.5190, 22.18018
126.7490, 166.8677
127.9790, 112.9424
129.2090, 125.3535
130.4390, 34.05811
131.6680, 64.02246
132.8980, 157.2119
134.1270, 132.5977
135.3560, 111.1602
136.5850, 171.1167
137.8140, 227.0366
139.0430, 218.2534
140.2710, 140.3643
141.5000, 235.7275
142.7280, 142.2021
143.9560, 144.7729
145.1840, 49.42920
146.4120, 177.1616
147.6390, 96.00977
148.8670, 92.91016
150.0940, 157.8545
151.3210, 75.83789
152.5490, 175.8638
153.7750, 63.92285
155.0020, 162.0317
156.2290, 150.1738
157.4550, 45.42920
158.6810, 5.100586
159.9080, 86.52441
161.1340, 91.31641
162.3590, 117.1533
163.5850, 62.00342
164.8110, 159.8379
166.0360, 107.6626
167.2610, 89.47900
168.4860, 63.29541
169.7110, 98.10352
170.9360, 113.8950
172.1610, 92.68262
173.3850, 141.4634
174.6100, 153.2461
175.8340, 155.0293
177.0580, 128.8203
178.2820, 129.8516
179.5050, 206.3794
180.7290, 131.3779
181.9520, 113.1133
183.1760, 167.7793
184.3990, 123.4302
185.6220, 156.8926
186.8450, 177.6772
188.0670, 171.3081
189.2900, 173.9868
190.5120, 131.6440
191.7340, 98.55469
192.9560, 156.0811
194.1780, 43.79150
195.4000, 120.8682
196.6220, 142.8662
197.8430, 118.5791
199.0640, 130.2822
200.2860, 128.3423
201.5070, 131.7744
202.7270, 132.4238
203.9480, 134.1279
205.1690, 132.3960
206.3890, 110.8359
207.6090, 73.13184
208.8290, 106.5679
210.0490, 90.33008
211.2690, 182.9502
212.4890, 113.7061
213.7080, 30.96826
214.9280, 95.41553
216.1470, 118.5273
217.3660, 59.86328
218.5850, 134.6182
219.8030, 70.42188
221.0220, 122.9814
222.2400, 45.87744
223.4590, 132.9644
224.6770, 54.40479
225.8950, 23.05566
227.1120, 133.5063
228.3300, 195.9712
229.5480, 82.96191
230.7650, 75.40576
231.9820, 84.12891
233.1990, 56.94336
234.4160, 55.84961
235.6330, 58.77197
236.8490, 113.6567
238.0660, 72.35596
239.2820, 20.73975
240.4980, 169.1123
241.7140, 109.4946
242.9300, 51.95215
244.1460, 105.3066
245.3610, 21.64307
246.5770, 169.9585
247.7920, 14.70654
249.0070, 26.60986
250.2220, 68.90820
251.4370, 156.1855
252.6510, 116.4399
253.8660, 79.66650
255.0800, 118.8647
256.2940, 106.0415
257.5080, 125.1963
258.7220, 205.3247
259.9360, 234.3979
261.1490, 147.2480
262.3630, 39.32324
263.5760, 92.44727
264.7890, 32.60791
266.0020, 51.80078
267.2150, 35.01953
268.4270, 84.25928
269.6400, 2.516602
270.8520, 142.7871
272.0640, 72.07129
273.2760, 80.36963
274.4880, 28.68164
275.7000, 23.99951
276.9120, 11.31934
278.1230, 20.64258
279.3340, 26.96826
280.5450, 45.29443
281.7560, 43.72705
282.9670, 36.20312
284.1780, 57.26221
285.3880, 2.577148
286.5980, 29.88623
287.8090, 5.189941
289.0190, 49.51123
290.2290, 111.7690
291.4380, 48.70605
292.6480, 89.54834
293.8570, 14.32861
295.0670, 56.20117
296.2760, 10.57129
297.4850, 45.79102
298.6930, 78.20215
299.9020, 93.63086
301.1110, 61.83643
302.3190, 19.36572
303.5270, 33.37256
304.7350, 14.31104
305.9430, 70.49756
307.1510, 9.047852
308.3580, 148.5737
309.5660, 13.10645
310.7730, 65.59668
311.9800, 70.23340
313.1870, 117.0078
314.3940, 151.5444
315.6010, 44.20703
316.8070, 155.8569
318.0130, 5.186523
319.2200, 141.3584
320.4260, 69.36621
321.6310, 43.66895
322.8370, 58.35693
324.0430, 101.4185
325.2480, 20.58398
326.4540, 78.56055
327.6590, 103.3438
328.8640, 169.9932
330.0680, 38.15723
331.2730, 109.3242
332.4780, 45.81494
333.6820, 142.9585
334.8860, 140.3481
336.0900, 249.7041
337.2940, 101.1177
338.4980, 262.4219
339.7010, 332.7764
340.9050, 196.9155
342.1080, 146.8853
343.3110, 170.9619
344.5140, 47.32617
345.7170, 194.9492
346.9200, 296.7197
348.1220, 184.8721
349.3240, 98.73828
350.5270, 187.4434
351.7290, 75.50684
352.9310, 92.61328
354.1320, 140.3340
355.3340, 157.2412
356.5350, 65.17578
357.7370, 66.46484
358.9380, 171.8887
360.1390, 233.8311
361.3400, 104.7129
362.5400, 167.5645
363.7410, 181.4766
364.9410, 178.2090
366.1410, 202.3516
367.3410, 197.2500
368.5410, 198.5586
369.7410, 159.3613
370.9400, 379.8477
372.1400, 299.1904
373.3390, 445.8369
374.5380, 574.9902
375.7370, 615.6348
376.9360, 627.8213
378.1350, 598.8213
379.3330, 644.4043
380.5310, 435.4619
381.7300, 347.8994
382.9280, 371.2598
384.1260, 329.6113
385.3230, 413.9834
386.5210, 307.9453
387.7180, 344.0566
388.9160, 204.0312
390.1130, 318.8525
391.3100, 465.7109
392.5060, 285.9453
393.7030, 417.6895
394.9000, 398.5664
396.0960, 383.5107
397.2920, 461.4336
398.4880, 531.4668
399.6840, 580.1494
400.8800, 647.7266
402.0750, 665.2627
403.2710, 1045.896
404.4660, 1571.282
405.6610, 2424.098
406.8560, 3904.296
408.0510, 5401.353
409.2450, 6442.968
410.4400, 7890.602
411.6340, 11293.03
412.8280, 16466.47
414.0220, 22389.65
415.2160, 26531.52
416.4100, 25041.99
417.6030, 19462.67
418.7970, 13746.83
419.9900, 8765.788
421.1830, 5206.081
422.3760, 2752.324
423.5690, 1648.600
424.7610, 1007.806
425.9540, 769.5928
427.1460, 750.7236
428.3380, 637.2891
429.5300, 482.0586
430.7220, 469.8496
431.9140, 316.7988
433.1050, 333.9736
434.2970, 173.1318
435.4880, 245.8311
436.6790, 104.8584
437.8700, 177.4131
439.0610, 98.10352
440.2510, 228.6270
441.4420, 181.5186
442.6320, 176.4473
443.8220, 150.3174
445.0120, 155.9727
446.2020, 88.13379
447.3910, 178.2529
448.5810, 67.09375
449.7700, 126.3301
450.9600, 129.4082
452.1490, 176.2188
453.3370, 80.32715
454.5260, 93.27441
455.7150, 56.85156
456.9030, 111.3555
458.0910, 78.19629
459.2800, 78.17676
460.4670, 29.16309
461.6550, 96.87695
462.8430, 24.53125
464.0300, 148.0596
465.2180, 52.68359
466.4050, 81.73828
467.5920, 170.8896
468.7790, 22.65137
469.9650, 78.09570
471.1520, 92.16797
472.3380, 153.7227
473.5250, 69.12305
474.7110, 67.81934
475.8970, 146.5439
477.0820, 83.21387
478.2680, 86.83691
479.4540, 68.41504
480.6390, 89.78320
481.8240, 26.72949
483.0090, 119.6895
484.1940, 155.0615
485.3780, 124.3896
486.5630, 51.67383
487.7470, 24.47949
488.9320, 176.6680
490.1160, 75.81250
491.3000, 138.9121
492.4830, 166.7314
493.6670, 11.25586
494.8500, 54.34570
496.0340, 138.9668
497.2170, 87.74121
498.4000, 75.53809
499.5820, 23.90039
500.7650, 16.69629
501.9480, 55.88867
503.1300, 64.51562
504.3120, 65.84180
505.4940, 48.33008
506.6760, 82.88770
507.8580, 2.654297
509.0390, 0.7451170
510.2210, 13.08691
511.4020, 46.38672
512.5830, 111.5625
513.7640, 140.7695
514.9450, 61.93164
516.1250, 173.0449
517.3060, 50.11523
518.4860, 153.1367
519.6660, 191.1104
520.8460, 46.95801
522.0260, 163.8906
523.2060, 66.69336
524.3850, 78.44531
525.5650, 72.15234
526.7440, 62.80957
527.9230, 154.4209
529.1020, 111.9844
530.2810, 138.5000
531.4590, 160.9688
532.6380, 153.1846
533.8160, 153.4023
534.9940, 161.1035
536.1720, 128.3906
537.3500, 105.6270
538.5270, 103.8135
539.7050, 71.05371
540.8820, 148.4746
542.0590, 166.5146
543.2360, 169.8184
544.4130, 139.7607
545.5900, 23.34570
546.7660, 82.83887
547.9430, 218.6084
549.1190, 250.4844
550.2950, 96.68164
551.4710, 98.78809
552.6470, 128.3857
553.8220, 132.5664
554.9980, 138.6816
556.1730, 29.37793
557.3480, 1.557617
558.5230, 2.384766
559.6980, 137.4121
560.8730, 174.1680
562.0470, 71.81543
563.2220, 84.69824
564.3960, 74.55469
565.5700, 101.4775
566.7440, 191.3066
567.9170, 93.04004
569.0910, 240.6729
570.2640, 128.2861
571.4380, 141.9043
572.6110, 70.49805
573.7840, 75.04492
574.9570, 67.60254
576.1290, 176.7266
577.3020, 83.22168
578.4740, 128.1436
579.6460, 39.14453
580.8180, 120.0488
581.9900, 58.00488
583.1620, 71.64844
584.3330, 79.66992
585.5040, 148.3223
586.6760, 173.9629
587.8470, 191.6367
589.0180, 2.7344000E-02
590.1880, 183.3926
591.3590, 149.1309
592.5290, 44.28320
593.7000, 203.8193
594.8700, 210.4619
596.0400, 295.1426
597.2090, 82.86133
598.3790, 231.5869
599.5490, 136.7695
600.7180, 176.4268
601.8870, 68.90137
603.0560, 235.6641
604.2250, 223.4502
605.3940, 164.2119
606.5620, 177.6826
607.7300, 172.2969
608.8990, 379.5830
610.0670, 214.7646
611.2350, 368.8916
612.4020, 345.9121
613.5700, 113.2676
614.7370, 201.3008
615.9050, 177.8096
617.0720, 317.0820
618.2390, 521.3984
619.4060, 442.3760
620.5720, 393.4404
621.7390, 316.1777
622.9050, 506.1729
624.0710, 501.4102
625.2370, 571.4131
626.4030, 739.3027
627.5690, 793.3682
628.7340, 767.1895
629.9000, 914.9199
631.0650, 1195.026
632.2300, 1689.477
633.3950, 2013.804
634.5600, 2699.085
635.7240, 3495.105
636.8890, 4251.746
638.0530, 5590.131
639.2170, 6915.268
640.3810, 8248.168
641.5450, 9391.522
642.7080, 9894.478
643.8720, 9846.535
645.0350, 8908.213
646.1980, 7479.021
647.3610, 6045.332
648.5240, 4614.543
649.6870, 3576.854
650.8490, 2851.951
652.0120, 2162.396
653.1740, 1923.169
654.3360, 1681.733
655.4980, 1424.761
656.6600, 1227.556
657.8210, 1012.324
658.9830, 963.6367
660.1440, 808.3516
661.3050, 769.2461
662.4660, 755.1621
663.6270, 662.8223
664.7870, 655.3691
665.9480, 534.7344
667.1080, 583.8867
668.2680, 473.9551
669.4280, 402.1123
670.5880, 411.1064
671.7480, 283.2979
672.9070, 441.9229
674.0670, 273.9619
675.2260, 486.9746
676.3850, 378.8096
677.5440, 376.1494
678.7030, 250.0928
679.8610, 195.1787
681.0200, 329.5107
682.1780, 200.5889
683.3360, 318.2803
684.4940, 412.1875
685.6520, 185.8682
686.8090, 278.6973
687.9670, 236.9912
689.1240, 150.3467
690.2810, 160.1387
691.4380, 30.66309
692.5950, 119.1924
693.7520, 122.6758
694.9080, 211.2129
696.0650, 83.27539
697.2210, 98.03320
698.3770, 145.4336
699.5330, 144.2314
700.6880, 159.3027
701.8440, 91.44141
702.9990, 85.90137
704.1550, 57.88379
705.3100, 68.48340
706.4650, 80.29688
707.6190, 91.53906
708.7740, 85.58398
709.9290, 72.93750
711.0830, 66.54688
712.2370, 65.65234
713.3910, 52.57324
714.5450, 83.34863
715.6980, 45.79102
716.8520, 42.59375
718.0050, 63.34473
719.1580, 19.62305
720.3110, 124.6338
721.4640, 138.0166
722.6170, 19.23828
723.7700, 79.76562
724.9220, 79.53809
726.0740, 191.5068
727.2260, 24.41113
728.3780, 4.012695
729.5300, 212.8311
730.6810, 14.35742
731.8330, 44.76660
732.9840, 27.48730
734.1350, 142.1016
735.2860, 84.50391
736.4370, 123.8896
737.5880, 207.2148
738.7380, 79.95801
739.8880, 34.37109
741.0390, 48.06543
742.1890, 154.5752
743.3380, 74.22363
744.4880, 274.7275
745.6380, 134.6104
746.7870, 171.0186
747.9360, 223.9072
749.0850, 27.78711
750.2340, 69.40234
751.3830, 97.06445
752.5310, 156.8135
753.6800, 189.4961
754.8280, 73.91797
755.9760, 227.1777
757.1240, 61.60156
758.2720, 249.9512
759.4190, 98.99414
760.5670, 9.250000
761.7140, 225.3770
762.8610, 65.94141
764.0080, 290.6895
765.1550, 162.0098
766.3020, 148.8340
767.4480, 122.6953
768.5950, 159.7949
769.7410, 128.7949
770.8870, 174.5469
772.0330, 83.19727
773.1780, 112.9023
774.3240, 39.11719
775.4690, 37.88672
776.6140, 73.99023
777.7590, 27.23047
778.9040, 108.2070
780.0490, 62.95312
781.1940, 30.56641
782.3380, 115.5234
783.4820, 29.27930
784.6260, 197.3555
785.7700, 106.4336
786.9140, 125.1406
788.0580, 25.21289
789.2010, 92.90625
790.3450, 71.87891
791.4880, 139.7500
792.6310, 176.8398
793.7730, 92.90234
794.9160, 203.2695
796.0590, 164.0820
797.2010, 94.32812
798.3430, 131.9004
799.4850, 234.2109
800.6270, 162.7383
801.7690, 26.73047
802.9100, 210.2695
804.0520, 30.26367
805.1930, 132.6406
806.3340, 296.0566
807.4750, 110.2402
808.6160, 73.80469
809.7560, 189.1133
810.8970, 385.0879
812.0370, 80.84961
813.1770, 376.7656
814.3170, 162.9668
815.4570, 243.9805
816.5960, 165.1523
817.7360, 170.8984
818.8750, 237.7324
820.0140, 320.7871
821.1530, 226.4707
822.2920, 337.4004
823.4310, 163.6738
824.5690, 176.5352
825.7070, 183.0605
826.8460, 151.4609
827.9840, 204.9570
829.1220, 219.7051
830.2590, 221.7266
831.3970, 205.0508
832.5340, 186.2266
833.6710, 98.28125
834.8080, 112.8672
835.9450, 95.58398
837.0820, 53.73633
838.2190, 161.0508
839.3550, 82.73828
840.4910, 173.4199
841.6270, 212.6797
842.7630, 126.6055
843.8990, 324.6523
845.0350, 126.0215
846.1700, 207.0898
847.3060, 243.5977
848.4410, 279.0996
849.5760, 313.2051
850.7100, 325.8555
851.8450, 261.8477
852.9800, 306.5664
854.1140, 275.2363
855.2480, 177.0996
856.3820, 235.5742
857.5160, 309.4629
858.6500, 223.7344
859.7830, 277.7227
860.9170, 115.6816
862.0500, 206.9551
863.1830, 184.5547
864.3160, 191.3242
865.4480, 205.2949
866.5810, 159.4277
867.7130, 201.5098
868.8460, 197.6543
869.9780, 221.9688
871.1100, 95.39453
872.2410, 114.6113
873.3730, 264.6621
874.5050, 295.2422
875.6360, 160.4219
876.7670, 0.5605470
877.8980, 168.1719
879.0290, 109.6582
880.1590, 70.51758
881.2900, 220.0996
882.4200, 325.8184
883.5500, 74.58398
884.6800, 230.7109
885.8100, 119.4746
886.9400, 54.87695
888.0690, 143.0156
889.1990, 7.394531
890.3280, 30.02734
891.4570, 146.8496
892.5860, 94.61523
893.7140, 97.49023
894.8430, 158.1562
895.9710, 92.89062
897.1000, 112.1504
898.2280, 233.7656
899.3560, 174.8633
900.4830, 264.4609
901.6110, 52.33594
902.7380, 69.68945
903.8660, 35.38477
904.9930, 239.5332
906.1200, 136.0000
907.2460, 99.46484
908.3730, 75.33398
909.5000, 1.113281
910.6260, 37.61133
911.7520, 18.52539
912.8780, 337.2656
914.0040, 145.7715
915.1290, 227.8438
916.2550, 37.92578
917.3800, 109.0371
918.5050, 70.64062
919.6300, 182.6094
920.7550, 64.17383
921.8800, 2.736328
923.0040, 98.44727
924.1290, 244.2656
925.2530, 26.41992
926.3770, 34.42969
927.5010, 241.8027
928.6250, 161.6133
929.7480, 108.8184
930.8720, 226.6133
931.9950, 107.1836
933.1180, 252.4043
934.2410, 64.85938
935.3640, 5.316406
936.4860, 382.5820
937.6090, 1.265625
938.7310, 78.71094
939.8530, 15.00195
940.9750, 190.7793
942.0970, 232.8691
943.2180, 124.9980
944.3400, 170.3184
945.4610, 235.5625
946.5820, 32.47070
947.7030, 3.701172
948.8240, 135.3496
949.9450, 164.2969
951.0650, 87.10352
952.1860, 118.5215
953.3060, 160.4766
954.4260, 257.0840
955.5460, 166.2051
956.6650, 92.34570
957.7850, 150.4004
958.9040, 81.61523
960.0230, 4.919922
961.1420, 36.57031
962.2610, 11.00977
963.3800, 40.74805
964.4990, 47.64844
965.6170, 14.87109
966.7350, 23.76172
967.8530, 15.21289
968.9710, 67.74609
970.0890, 114.3945
971.2070, 139.3047
972.3240, 144.5996
973.4410, 209.5703
974.5580, 189.3223
975.6750, 245.8672
976.7920, 321.4258
977.9090, 287.5215
979.0250, 206.5371
980.1410, 255.1250
981.2580, 121.5996
982.3740, 99.99023
983.4890, 205.2500
984.6050, 209.2480
985.7200, 219.3496
986.8360, 209.0332
987.9510, 259.4375
989.0660, 425.1211
990.1810, 193.9375
991.2950, 183.1055
992.4100, 90.09180
993.5240, 277.7070
994.6390, 78.45703
995.7530, 227.9492
996.8660, 244.9785
997.9800, 188.3438
999.0940, 178.9766
1000.207, 328.5332
1001.320, 218.2871
1002.433, 367.0156
1003.546, 184.2383
1004.659, 404.1582
1005.772, 344.8809
1006.884, 169.5254
1007.996, 351.0938
1009.108, 304.5703
1010.220, 251.9902
1011.332, 449.2852
1012.444, 253.2910
1013.555, 320.5430
1014.666, 331.6484
1015.777, 460.1562
1016.888, 152.3164
1017.999, 338.9082
1019.110, 213.2695
1020.220, 264.9141
1021.331, 200.7363
1022.441, 366.1895
1023.551, 319.1680
1024.661, 400.8594
1025.770, 287.8379
1026.880, 317.0918
1027.989, 297.6016
1029.098, 350.5762
1030.207, 117.5059
1031.316, 231.1680
1032.425, 177.8750
1033.533, 263.2305
1034.642, 212.6758
1035.750, 299.2383
1036.858, 437.3223
1037.966, 133.8398
1039.073, 247.8984
1040.181, 275.4961
1041.288, 68.82227
1042.396, 53.87109
1043.503, 312.5742
1044.610, 193.3359
1045.716, 252.1914
1046.823, 28.65820
1047.929, 169.7148
1049.036, 104.8066
1050.142, 289.1973
1051.248, 5.962891
1052.353, 302.7910
1053.459, 46.31055
1054.564, 290.9805
1055.670, 240.2578
1056.775, 281.0469
1057.880, 177.8945
1058.985, 170.6777
1060.089, 430.2109
1061.194, 47.90625
1062.298, 328.4785
1063.402, 278.9062
1064.506, 275.8184
1065.610, 270.5508
1066.713, 234.6465
1067.817, 316.7168
1068.920, 271.1797
1070.023, 257.2715
1071.126, 238.1562
1072.229, 317.0820
1073.332, 46.07031
1074.435, 108.1777
1075.537, 425.4414
1076.639, 33.26758
1077.741, 148.0898
1078.843, 99.49414
1079.945, 244.7227
1081.046, 361.6758
1082.148, 353.8984
1083.249, 211.2832
1084.350, 206.1562
1085.451, 303.0039
1086.551, 194.6582
1087.652, 377.4082
1088.752, 17.63281
1089.853, 112.4629
1090.953, 533.9570
1092.053, 70.38086
1093.152, 48.47656
1094.252, 140.2305
1095.351, 316.7012
1096.451, 166.2871
1097.550, 248.8340
1098.649, 182.8828
1099.748, 257.3262
1100.846, 173.3438
1101.945, 241.6992
1103.043, 218.1758
1104.141, 154.9746
1105.239, 156.3105
1106.337, 112.0000
1107.434, 3.656250
1108.532, 12.82422
1109.629, 20.08984
1110.726, 218.8691
1111.823, 104.4570
1112.920, 194.5352
1114.017, 232.4922
1115.113, 40.56445
1116.210, 118.5488
1117.306, 12.96094
1118.402, 11.51953
1119.498, 198.0820
1120.593, 82.74609
1121.689, 181.7383
1122.784, 419.0547
1123.879, 236.1895
1124.974, 53.02344
1126.069, 225.3672
1127.164, 115.0117
1128.259, 298.3906
1129.353, 177.4258
1130.447, 104.0938
1131.541, 117.2793
1132.635, 10.31641
1133.729, 276.1035
1134.822, 58.69141
1135.916, 218.2676
1137.009, 359.8320
1138.102, 8.792969
1139.195, 16.38477
1140.288, 86.75977
1141.380, 190.8145
1142.473, 262.2266
1143.565, 32.38672
1144.657, 120.8770
1145.749, 114.3633
1146.841, 147.9707
1147.932, 80.15234
1149.024, 185.7734
1150.115, 147.6289
1151.206, 188.8730
1152.297, 111.2656
1153.388, 221.6250
1154.479, 180.0254
1155.569, 255.7812
1156.659, 286.4492
1157.750, 150.3418
1158.839, 317.7734
1159.929, 249.3730
1161.019, 177.6953
1162.108, 15.73047
1163.198, 96.01562
1164.287, 342.0000
1165.376, 405.4766
1166.465, 214.5820
1167.553, 50.56641
1168.642, 343.7969
1169.730, 412.9922
1170.818, 151.4531
1171.906, 414.8203
1172.994, 125.9766
1174.082, 170.1875
1175.170, 168.4805
1176.257, 112.5742
1177.344, 342.5781
1178.431, 309.8008
1179.518, 201.6992
1180.605, 437.9453
1181.691, 370.5938
1182.778, 296.0547
1183.864, 230.4258
1184.950, 12.72266
1186.036, 206.8750
1187.122, 306.4648
1188.207, 144.8672
1189.292, 455.0273
1190.378, 213.3711
1191.463, 125.9805
1192.548, 293.9062
1193.632, 258.9805
1194.717, 242.1562
1195.801, 147.6914
1196.886, 188.3516
1197.970, 227.0859
1199.054, 287.2188
1200.137, 229.9805
1201.221, 115.9570
1202.305, 1.589844
1203.388, 333.4883
1204.471, 188.1445
1205.554, 205.9023
1206.637, 185.9648
1207.719, 212.9219
1208.802, 120.0117
1209.884, 178.0898
1210.966, 173.1758
1212.048, 245.6914
1213.130, 219.1641
1214.212, 245.3281
1215.293, 264.8164
1216.374, 334.9648
1217.456, 389.2773
1218.536, 467.4922
1219.617, 525.8750
1220.698, 286.4922
1221.778, 218.3984
1222.859, 304.9648
1223.939, 295.1641
1225.019, 314.9023
1226.099, 303.5469
1227.178, 301.9219
1228.258, 317.7734
1229.337, 313.0703
1230.417, 286.5156
1231.496, 296.5117
1232.574, 245.4023
1233.653, 277.5508
1234.732, 324.7773
1235.810, 287.1211
1236.888, 257.0039
1237.966, 431.5000
1239.044, 332.1875
1240.122, 375.9609
1241.199, 210.8945
1242.277, 363.7852
1243.354, 240.0000
1244.431, 448.4336
1245.508, 280.2070
1246.585, 382.2969
1247.661, 403.2266
1248.738, 288.0156
1249.814, 327.4336
1250.890, 332.9375
1251.966, 308.5625
1253.042, 338.0664
1254.117, 309.3320
1255.193, 321.1680
1256.268, 282.0391
1257.343, 237.7148
1258.418, 318.7383
1259.493, 331.5586
1260.567, 418.5391
1261.642, 346.0117
1262.716, 275.1953
1263.790, 67.39844
1264.864, 388.6250
1265.938, 411.4609
1267.011, 544.0820
1268.085, 233.5547
1269.158, 20.83594
1270.231, 14.15625
1271.304, 56.38672
1272.377, 177.3516
1273.450, 139.1914
1274.522, 275.5742
1275.594, 447.0664
1276.666, 310.4414
1277.738, 10.12500
1278.810, 57.01562
1279.882, 338.0273
1280.953, 67.33203
1282.025, 252.7305
1283.096, 151.2500
1284.167, 240.2148
1285.238, 272.9727
1286.308, 168.9648
1287.379, 23.54297
1288.449, 181.8906
1289.519, 57.68359
1290.589, 99.55859
1291.659, 135.0156
1292.729, 132.5820
1293.798, 19.11328
1294.868, 103.2461
1295.937, 212.6992
1297.006, 49.64453
1298.075, 41.72266
##END=



