##NAMES=Covellite
##RRUFFID=R060143
##IDEAL CHEMISTRY=Cu^1+^S
##LOCALITY=Butte, Montana, USA
##OWNER=RRUFF
##SOURCE=Marcus Origlieri
##DESCRIPTION=Irridescent blue to purple hexagonal plates
##STATUS=The identification of this mineral has been confirmed by X-ray diffraction and chemical analysis
##URL=rruff.info/R060143
##MEASURED CHEMISTRY=Cu_1.00_S_1.00_
##PIN_ID=L00760
##ORIENTATION=Laser parallel to -a* (-1 0 0). Fiducial mark perpendicular to laser is parallel to -c [0 0 -1]
164.8110, 0.0000000E+00
166.0360, 23.96765
167.2610, 8.0261000E-02
168.4860, 36.41196
169.7110, 49.79279
170.9360, 101.1237
172.1610, 54.80377
173.3850, 37.73502
174.6100, 36.99081
175.8340, 4.250549
177.0580, 68.96393
178.2820, 50.06665
179.5050, 67.10526
180.7290, 66.95895
181.9520, 100.0380
183.1760, 52.23837
184.3990, 62.49802
185.6220, 110.8930
186.8450, 95.75943
188.0670, 126.9960
189.2900, 125.6684
190.5120, 169.5610
191.7340, 194.3243
192.9560, 232.4993
194.1780, 187.6170
195.4000, 243.5661
196.6220, 230.7604
197.8430, 217.7852
199.0640, 245.9139
200.2860, 287.6843
201.5070, 327.4173
202.7270, 310.2488
203.9480, 249.8428
205.1690, 131.7021
206.3890, 61.50136
207.6090, 42.65565
208.8290, 38.55750
210.0490, 48.13370
211.2690, 117.6823
212.4890, 114.0433
213.7080, 84.25626
214.9280, 54.67110
216.1470, 34.15805
217.3660, 48.27251
218.5850, 37.64264
219.8030, 32.98634
221.0220, 28.35446
222.2400, 39.04126
223.4590, 62.01675
224.6770, 58.22276
225.8950, 86.72244
227.1120, 52.88206
228.3300, 49.38841
229.5480, 91.50587
230.7650, 24.21597
231.9820, 41.56943
233.1990, 73.80589
234.4160, 100.0848
235.6330, 83.66106
236.8490, 113.0836
238.0660, 55.06499
239.2820, 128.9960
240.4980, 81.98854
241.7140, 57.55605
242.9300, 75.03786
244.1460, 69.72517
245.3610, 78.00615
246.5770, 105.5867
247.7920, 159.5323
249.0070, 151.2260
250.2220, 156.1577
251.4370, 184.8603
252.6510, 255.6601
253.8660, 300.9616
255.0800, 335.0429
256.2940, 387.3152
257.5080, 595.3938
258.7220, 570.8491
259.9360, 583.1301
261.1490, 624.7977
262.3630, 485.9229
263.5760, 488.6727
264.7890, 435.7813
266.0020, 501.8500
267.2150, 398.8353
268.4270, 375.8396
269.6400, 316.7941
270.8520, 256.9970
272.0640, 230.9599
273.2760, 94.66544
274.4880, 137.3974
275.7000, 201.0756
276.9120, 86.90140
278.1230, 72.83023
279.3340, 66.84263
280.5450, 8.909935
281.7560, 71.69928
282.9670, 20.43687
284.1780, 9.584530
285.3880, 8.224991
286.5980, 7.9856999E-02
287.8090, 8.726883
289.0190, 23.24058
290.2290, 1.413322
291.4380, 9.482403
292.6480, 28.04517
293.8570, 10.32897
295.0670, 3.165325
296.2760, 13.90553
297.4850, 11.75526
298.6930, 22.82758
299.9020, 0.6874520
301.1110, 17.45548
302.3190, 27.11896
303.5270, 25.81729
304.7350, 20.96972
305.9430, 9.140635
307.1510, 31.66707
308.3580, 1.460531
309.5660, 18.26325
310.7730, 10.14056
311.9800, 24.15830
313.1870, 24.21407
314.3940, 20.47648
315.6010, 24.71762
316.8070, 50.89472
318.0130, 40.07467
319.2200, 59.23044
320.4260, 46.38480
321.6310, 65.95898
322.8370, 20.13087
324.0430, 75.29845
325.2480, 63.46273
326.4540, 45.62484
327.6590, 93.78374
328.8640, 15.93900
330.0680, 48.08925
331.2730, 53.23482
332.4780, 68.37067
333.6820, 24.50207
334.8860, 37.63071
336.0900, 71.75231
337.2940, 24.86809
338.4980, 60.97551
339.7010, 24.07947
340.9050, 6.851506
342.1080, 21.26963
343.3110, 18.81931
344.5140, 29.40808
345.7170, 2.457440
346.9200, 36.50460
348.1220, 21.55422
349.3240, 25.53182
350.5270, 3.748089
351.7290, 28.90681
352.9310, 34.95205
354.1320, 16.59715
355.3340, 9.587717
356.5350, 47.96065
357.7370, 24.97985
358.9380, 15.82476
360.1390, 53.86062
361.3400, 46.64759
362.5400, 9.766055
363.7410, 38.72216
364.9410, 18.66763
366.1410, 29.52834
367.3410, 55.19049
368.5410, 10.62494
369.7410, 34.55624
370.9400, 24.24686
372.1400, 18.74472
373.3390, 48.16897
374.5380, 14.71220
375.7370, 10.01063
376.9360, 46.96169
378.1350, 15.28718
379.3330, 49.46575
380.5310, 59.27775
381.7300, 75.99915
382.9280, 44.88914
384.1260, 68.85802
385.3230, 67.70491
386.5210, 29.44829
387.7180, 55.30544
388.9160, 60.15691
390.1130, 10.06833
391.3100, 36.11689
392.5060, 11.59517
393.7030, 20.30106
394.9000, 16.41049
396.0960, 39.53577
397.2920, 50.67477
398.4880, 32.82387
399.6840, 42.98398
400.8800, 48.15394
402.0750, 30.33652
403.2710, 47.53040
404.4660, 39.94836
405.6610, 39.95362
406.8560, 39.18255
408.0510, 38.43174
409.2450, 40.69590
410.4400, 43.07002
411.6340, 69.29166
412.8280, 55.61520
414.0220, 57.95057
415.2160, 74.30283
416.4100, 23.66841
417.6030, 40.04879
418.7970, 24.45614
419.9900, 54.88933
421.1830, 61.30656
422.3760, 56.68162
423.5690, 39.04568
424.7610, 187.9345
425.9540, 135.3502
427.1460, 177.6479
428.3380, 142.6584
429.5300, 211.6392
430.7220, 238.3225
431.9140, 204.3675
433.1050, 257.6517
434.2970, 280.3341
435.4880, 329.5376
436.6790, 331.5291
437.8700, 414.7088
439.0610, 495.6411
440.2510, 587.6786
441.4420, 716.3446
442.6320, 772.7419
443.8220, 914.7802
445.0120, 1072.366
446.2020, 1291.640
447.3910, 1512.997
448.5810, 1805.793
449.7700, 2450.361
450.9600, 2657.313
452.1490, 3152.669
453.3370, 3485.754
454.5260, 4128.363
455.7150, 4845.954
456.9030, 5602.551
458.0910, 6523.128
459.2800, 7426.750
460.4670, 8490.503
461.6550, 9682.215
462.8430, 11558.02
464.0300, 14093.78
465.2180, 17389.62
466.4050, 22195.28
467.5920, 28160.18
468.7790, 36628.05
469.9650, 47615.86
471.1520, 58462.77
472.3380, 63928.43
473.5250, 61619.26
474.7110, 52826.13
475.8970, 41018.07
477.0820, 30915.83
478.2680, 23058.66
479.4540, 17459.63
480.6390, 13344.43
481.8240, 10655.38
483.0090, 8451.182
484.1940, 6893.499
485.3780, 5588.309
486.5630, 4779.326
487.7470, 4005.189
488.9320, 3496.861
490.1160, 3027.771
491.3000, 2651.574
492.4830, 2336.505
493.6670, 2157.743
494.8500, 1827.603
496.0340, 1712.469
497.2170, 1488.345
498.4000, 1318.173
499.5820, 1179.367
500.7650, 1062.526
501.9480, 1065.070
503.1300, 947.5063
504.3120, 885.8480
505.4940, 737.0056
506.6760, 762.2253
507.8580, 659.2200
509.0390, 688.7198
510.2210, 626.1900
511.4020, 630.7746
512.5830, 586.8228
513.7640, 531.6156
514.9450, 543.3932
516.1250, 502.9553
517.3060, 504.4003
518.4860, 500.3725
519.6660, 478.8995
520.8460, 465.6652
522.0260, 468.1168
523.2060, 457.7793
524.3850, 458.8034
525.5650, 453.4106
526.7440, 430.7095
527.9230, 430.1368
529.1020, 401.6381
530.2810, 386.0967
531.4590, 402.1234
532.6380, 360.8093
533.8160, 394.7759
534.9940, 375.1074
536.1720, 351.3367
537.3500, 330.4006
538.5270, 333.0554
539.7050, 346.4453
540.8820, 346.7492
542.0590, 367.1031
543.2360, 304.7600
544.4130, 284.4110
545.5900, 300.9207
546.7660, 288.4193
547.9430, 294.9009
549.1190, 295.0550
550.2950, 241.3022
551.4710, 238.6039
552.6470, 300.0307
553.8220, 249.3303
554.9980, 303.7722
556.1730, 251.5524
557.3480, 272.3880
558.5230, 191.5846
559.6980, 251.8667
560.8730, 202.3208
562.0470, 223.3106
563.2220, 186.2524
564.3960, 187.7367
565.5700, 239.2194
566.7440, 168.2207
567.9170, 154.7853
569.0910, 115.0103
570.2640, 173.5732
571.4380, 124.2251
572.6110, 153.6334
573.7840, 176.1630
574.9570, 150.7169
576.1290, 115.3031
577.3020, 132.9180
578.4740, 120.4900
579.6460, 133.2588
580.8180, 147.8876
581.9900, 149.6202
583.1620, 178.2273
584.3330, 163.8367
585.5040, 157.4495
586.6760, 162.1849
587.8470, 201.8183
589.0180, 158.4618
590.1880, 180.1167
591.3590, 164.7773
592.5290, 229.4402
593.7000, 240.1067
594.8700, 279.7739
596.0400, 227.4478
597.2090, 261.1234
598.3790, 295.8054
599.5490, 288.4886
600.7180, 310.1744
601.8870, 276.8620
603.0560, 262.5522
604.2250, 221.2413
605.3940, 237.9294
606.5620, 224.6161
607.7300, 174.3027
608.8990, 169.9902
610.0670, 150.6764
611.2350, 163.3612
612.4020, 114.0470
613.5700, 92.73220
614.7370, 100.4673
615.9050, 63.14912
617.0720, 71.66963
618.2390, 113.5068
619.4060, 65.18305
620.5720, 64.85686
621.7390, 41.01446
622.9050, 52.68404
624.0710, 53.35182
625.2370, 33.02009
626.4030, 39.72898
627.5690, 11.39944
628.7340, 15.06508
629.9000, 48.72916
631.0650, 14.60954
632.2300, 32.04046
633.3950, 18.94631
634.5600, 17.57400
635.7240, 23.17535
636.8890, 15.82442
638.0530, 9.590281
639.2170, 21.19740
640.3810, 4.991533
641.5450, 13.56544
642.7080, 5.802584
643.8720, 2.898842
645.0350, 15.61097
646.1980, 1.044403
647.3610, 8.794436
648.5240, 4.648935
649.6870, 16.09608
650.8490, 17.17730
652.0120, 5.501390
653.1740, 3.840727
654.3360, 0.8073560
655.4980, 11.79045
656.6600, 6.467246
657.8210, 11.03268
658.9830, 51.66335
660.1440, 30.77793
661.3050, 19.16381
662.4660, 9.122993
663.6270, 0.6147680
664.7870, 0.9368950
665.9480, 38.50208
667.1080, 9.935410
668.2680, 11.62678
669.4280, 9.796675
670.5880, 7.042399
671.7480, 14.40145
672.9070, 10.27974
674.0670, 0.3499040
675.2260, 22.82273
676.3850, 5.807207
677.5440, 1.588126
678.7030, 22.88953
679.8610, 42.21189
681.0200, 28.08478
682.1780, 5.795473
683.3360, 3.171414
684.4940, 16.46456
685.6520, 15.86300
686.8090, 18.11627
687.9670, 4.189548
689.1240, 4.178038
690.2810, 33.67104
691.4380, 47.56801
692.5950, 2.540645
693.7520, 40.94193
694.9080, 7.936305
696.0650, 5.350382
697.2210, 7.836657
698.3770, 5.070445
699.5330, 20.50310
700.6880, 2.886880
701.8440, 5.353966
702.9990, 39.77504
704.1550, 49.20173
705.3100, 5.170730
706.4650, 31.12702
707.6190, 1.278146
708.7740, 4.542852
709.9290, 26.80969
711.0830, 4.062353
712.2370, 46.57861
713.3910, 41.44225
714.5450, 37.73590
715.6980, 36.09928
716.8520, 57.53314
718.0050, 24.89622
719.1580, 40.22050
720.3110, 30.47341
721.4640, 81.27161
722.6170, 52.25201
723.7700, 54.03217
724.9220, 32.80382
726.0740, 90.62778
727.2260, 94.37962
728.3780, 75.71326
729.5300, 99.61475
730.6810, 61.77465
731.8330, 98.88016
732.9840, 69.58540
734.1350, 136.7688
735.2860, 67.77196
736.4370, 83.87457
737.5880, 104.7698
738.7380, 147.9256
739.8880, 156.1889
741.0390, 155.5057
742.1890, 67.11759
743.3380, 118.7358
744.4880, 106.3442
745.6380, 62.94279
746.7870, 84.14940
747.9360, 91.72817
749.0850, 89.29730
750.2340, 74.50019
751.3830, 79.04949
752.5310, 47.58894
753.6800, 60.34711
754.8280, 109.6374
755.9760, 75.14680
757.1240, 93.64646
758.2720, 103.1363
759.4190, 19.61624
760.5670, 108.0822
761.7140, 66.53826
762.8610, 112.9847
764.0080, 48.42127
765.1550, 57.84744
766.3020, 110.2640
767.4480, 83.67094
768.5950, 106.0680
769.7410, 87.51074
770.8870, 77.88850
772.0330, 28.65567
773.1780, 60.01188
774.3240, 74.15012
775.4690, 31.48750
776.6140, 63.81420
777.7590, 29.13166
778.9040, 74.41023
780.0490, 78.07444
781.1940, 62.94843
782.3380, 43.22736
783.4820, 71.22783
784.6260, 17.31750
785.7700, 50.54726
786.9140, 59.38503
788.0580, 12.21855
789.2010, 2.389030
790.3450, 22.89639
791.4880, 22.67153
792.6310, 0.6728130
793.7730, 0.7323360
794.9160, 40.20372
796.0590, 19.29586
797.2010, 44.42665
798.3430, 35.54917
799.4850, 33.69849
800.6270, 24.69931
801.7690, 45.52369
802.9100, 41.24963
804.0520, 37.96278
805.1930, 28.28501
806.3340, 26.05694
807.4750, 27.97809
808.6160, 23.33034
809.7560, 18.71383
810.8970, 17.52811
812.0370, 5.717977
813.1770, 12.72996
814.3170, 8.284073
815.4570, 35.55836
816.5960, 13.53628
817.7360, 16.52702
818.8750, 30.51092
820.0140, 5.213843
821.1530, 10.84811
822.2920, 3.695275
823.4310, 15.52179
824.5690, 11.36528
825.7070, 10.90681
826.8460, 43.59940
827.9840, 15.13247
829.1220, 5.520839
830.2590, 2.553285
831.3970, 28.44087
832.5340, 1.1898000E-02
833.6710, 26.47685
834.8080, 35.52384
835.9450, 10.55377
837.0820, 32.58172
838.2190, 5.338135
839.3550, 2.730062
840.4910, 5.165905
841.6270, 29.64152
842.7630, 30.93353
843.8990, 1.339888
845.0350, 2.345207
846.1700, 1.491523
847.3060, 11.11409
848.4410, 4.004702
849.5760, 5.273565
850.7100, 5.474599
851.8450, 6.755675
852.9800, 8.064325
854.1140, 6.401091
855.2480, 6.699761
856.3820, 6.028309
857.5160, 7.480217
858.6500, 1.806769
859.7830, 10.90110
860.9170, 2.606048
862.0500, 0.1947480
863.1830, 19.89297
864.3160, 8.411705
865.4480, 1.724451
866.5810, 6.041600
867.7130, 5.333962
868.8460, 13.30469
869.9780, 7.027584
871.1100, 4.366769
872.2410, 23.75818
873.3730, 3.070730
874.5050, 7.434373
875.6360, 8.897741
876.7670, 10.18275
877.8980, 17.43141
879.0290, 24.04391
880.1590, 15.65445
881.2900, 33.26348
882.4200, 9.269951
883.5500, 6.474303
884.6800, 33.07785
885.8100, 9.951166
886.9400, 9.282205
888.0690, 3.881235
889.1990, 89.42994
890.3280, 53.02957
891.4570, 77.62820
892.5860, 80.22587
893.7140, 61.82281
894.8430, 99.41907
895.9710, 93.52919
897.1000, 73.12407
898.2280, 97.71867
899.3560, 111.3126
900.4830, 185.8638
901.6110, 147.4573
902.7380, 173.0582
903.8660, 161.6621
904.9930, 182.2661
906.1200, 240.8747
907.2460, 280.4867
908.3730, 310.8604
909.5000, 326.4819
910.6260, 370.1211
911.7520, 450.6044
912.8780, 511.2444
914.0040, 564.7054
915.1290, 621.9261
916.2550, 610.0070
917.3800, 704.6658
918.5050, 713.3185
919.6300, 724.9969
920.7550, 836.4023
921.8800, 894.0953
923.0040, 934.7918
924.1290, 984.1796
925.2530, 1048.709
926.3770, 1100.306
927.5010, 1047.910
928.6250, 1123.760
929.7480, 981.6910
930.8720, 884.4409
931.9950, 879.0607
933.1180, 797.8179
934.2410, 734.5734
935.3640, 663.3476
936.4860, 654.0895
937.6090, 571.8715
938.7310, 546.6578
939.8530, 478.4465
940.9750, 509.2263
942.0970, 464.0120
943.2180, 460.8141
944.3400, 388.6150
945.4610, 423.4147
946.5820, 325.2279
947.7030, 348.9283
948.8240, 244.7282
949.9450, 265.4963
951.0650, 230.3533
952.1860, 190.1858
953.3060, 222.0393
954.4260, 162.9104
955.5460, 165.6827
956.6650, 157.5328
957.7850, 128.2737
958.9040, 173.1557
960.0230, 118.0266
961.1420, 109.7074
962.2610, 125.6248
963.3800, 102.1816
964.4990, 101.1112
965.6170, 77.99270
966.7350, 59.95408
967.8530, 78.74110
968.9710, 88.71846
970.0890, 80.70829
971.2070, 101.7101
972.3240, 124.4046
973.4410, 78.96373
974.5580, 94.56325
975.6750, 52.15409
976.7920, 125.1993
977.9090, 136.2516
979.0250, 109.1050
980.1410, 109.7995
981.2580, 174.5569
982.3740, 110.6412
983.4890, 119.7391
984.6050, 124.8418
985.7200, 92.51063
986.8360, 115.1065
987.9510, 155.6279
989.0660, 131.2164
990.1810, 170.8396
991.2950, 149.5302
992.4100, 140.6757
993.5240, 147.6412
994.6390, 146.8103
995.7530, 180.9909
996.8660, 190.1160
997.9800, 204.3094
999.0940, 181.9173
1000.207, 189.6568
1001.320, 179.7282
1002.433, 170.5533
1003.546, 166.7752
1004.659, 137.5151
1005.772, 146.4315
1006.884, 110.2447
1007.996, 117.2738
1009.108, 146.0390
1010.220, 167.6931
1011.332, 131.3061
1012.444, 122.5891
1013.555, 124.8785
1014.666, 126.1741
1015.777, 131.4761
1016.888, 120.4740
1017.999, 123.2574
1019.110, 107.2398
1020.220, 118.6695
1021.331, 133.0029
1022.441, 132.9486
1023.551, 126.2951
1024.661, 145.6484
1025.770, 120.0076
1026.880, 115.3728
1027.989, 137.7446
1029.098, 123.1226
1030.207, 141.5095
1031.316, 121.9047
1032.425, 140.3067
1033.533, 133.7199
1034.642, 142.6387
1035.750, 130.1898
1036.858, 139.5147
1037.966, 152.7109
1039.073, 150.1561
1040.181, 135.3658
1041.288, 137.8236
1042.396, 185.6221
1043.503, 143.7675
1044.610, 149.2448
1045.716, 87.72910
1046.823, 161.8227
1047.929, 164.8648
1049.036, 140.3680
1050.142, 170.0558
1051.248, 168.5709
1052.353, 149.7875
1053.459, 155.9054
1054.564, 134.4087
1055.670, 118.9485
1056.775, 190.6339
1057.880, 175.1865
1058.985, 167.7499
1060.089, 97.31932
1061.194, 122.8949
1062.298, 187.1463
1063.402, 104.7404
1064.506, 170.9282
1065.610, 160.5335
1066.713, 134.1440
1067.817, 117.7600
1068.920, 157.3808
1070.023, 87.31750
1071.126, 109.9489
1072.229, 110.5854
1073.332, 75.22697
1074.435, 131.8735
1075.537, 104.2574
1076.639, 131.9142
1077.741, 105.5759
1078.843, 155.2426
1079.945, 121.9144
1081.046, 125.5915
1082.148, 120.2786
1083.249, 119.9708
1084.350, 110.6677
1085.451, 112.9860
1086.551, 107.6271
1087.652, 97.76516
1088.752, 97.48154
1089.853, 96.06250
1090.953, 86.92883
1092.053, 101.6606
1093.152, 93.69320
1094.252, 88.43948
1095.351, 65.92583
1096.451, 71.07417
1097.550, 96.46060
1098.649, 92.23464
1099.748, 110.2311
1100.846, 115.7961
1101.945, 135.5880
1103.043, 123.3835
1104.141, 133.2024
1105.239, 64.57751
1106.337, 108.4323
1107.434, 65.26082
1108.532, 51.09481
1109.629, 73.93248
1110.726, 43.77373
1111.823, 140.6195
1112.920, 157.4705
1114.017, 155.3269
1115.113, 238.1865
1116.210, 332.0494
1117.306, 388.9157
1118.402, 457.7871
1119.498, 493.0742
1120.593, 474.5470
1121.689, 520.4359
1122.784, 548.3302
1123.879, 516.1320
1124.974, 541.3475
1126.069, 463.9547
1127.164, 331.2749
1128.259, 236.3603
1129.353, 204.2747
1130.447, 107.1917
1131.541, 68.11561
1132.635, 72.04285
1133.729, 52.97708
1134.822, 34.72657
1135.916, 25.85643
1137.009, 18.80184
1138.102, 12.75130
1139.195, 39.57486
1140.288, 16.53611
1141.380, 47.52424
1142.473, 34.49668
1143.565, 44.63215
1144.657, 52.61142
1145.749, 21.59253
1146.841, 31.57561
1147.932, 12.43946
1149.024, 6.452469
1150.115, 7.281920
1151.206, 12.86444
1152.297, 14.49799
1153.388, 10.51878
1154.479, 22.46043
1155.569, 0.4552110
1156.659, 12.43763
1157.750, 18.42131
1158.839, 9.870485
1159.929, 3.392933
1161.019, 13.40356
1162.108, 11.88423
1163.198, 29.87829
1164.287, 14.96150
1165.376, 2.028633
1166.465, 12.22364
1167.553, 8.514975
1168.642, 10.94053
1169.730, 22.91953
1170.818, 11.74608
1171.906, 31.87304
1172.994, 5.152340
1174.082, 9.005551
1175.170, 7.786453
1176.257, 6.753874
1177.344, 9.278342
1178.431, 8.304858
1179.518, 13.65369
1180.605, 2.387168
1181.691, 10.57047
1182.778, 9.168703
1183.864, 3.982811
1184.950, 24.23534
1186.036, 26.38946
1187.122, 42.70480
1188.207, 26.22295
1189.292, 41.12653
1190.378, 34.03004
1191.463, 72.93371
1192.548, 6.992166
1193.632, 11.73488
1194.717, 1.477993
1195.801, 14.52435
1196.886, 3.415871
1197.970, 6.322036
1199.054, 15.98930
1200.137, 3.895800
1201.221, 24.99202
1202.305, 7.898032
1203.388, 17.96271
1204.471, 26.65516
1205.554, 8.914522
1206.637, 31.42174
1207.719, 16.30080
1208.802, 66.17968
1209.884, 18.05778
1210.966, 15.93544
1212.048, 10.89183
1213.130, 5.767869
1214.212, 38.64331
1215.293, 3.135207
1216.374, 1.577628
1217.456, 28.28612
1218.536, 17.14878
1219.617, 8.010680
1220.698, 32.87147
1221.778, 54.92244
1222.859, 10.99742
1223.939, 33.63206
1225.019, 3.458555
1226.099, 64.34808
1227.178, 9.184067
1228.258, 20.01966
1229.337, 52.86204
1230.417, 15.69493
1231.496, 69.55013
1232.574, 26.38029
1233.653, 24.94130
1234.732, 4.231583
1235.810, 2.588385
1236.888, 49.40618
1237.966, 35.22225
1239.044, 16.03742
1240.122, 51.84998
1241.199, 20.66067
1242.277, 55.46985
1243.354, 68.27688
1244.431, 103.0823
1245.508, 90.16174
1246.585, 88.71841
1247.661, 57.48742
1248.738, 57.28705
1249.814, 38.08451
1250.890, 24.88014
1251.966, 5.673458
1253.042, 1.569025
1254.117, 9.296359
1255.193, 15.40549
1256.268, 10.73446
1257.343, 1.499053
1258.418, 9.262596
1259.493, 10.95983
1260.567, 50.08021
1261.642, 65.80825
1262.716, 94.05323
1263.790, 63.81186
1264.864, 41.54073
1265.938, 22.26720
1267.011, 40.99160
1268.085, 34.07246
1269.158, 22.40895
1270.231, 7.101875
1271.304, 43.20916
1272.377, 3.896319
1273.450, 19.60786
1274.522, 19.28834
1275.594, 48.96610
1276.666, 55.64125
1277.738, 48.46378
1278.810, 34.79717
1279.882, 44.07232
1280.953, 22.01522
1282.025, 40.67760
1283.096, 47.73201
1284.167, 11.38982
1285.238, 32.04479
1286.308, 64.69770
1287.379, 83.34805
1288.449, 60.99593
1289.519, 10.64149
1290.589, 0.7152730
1291.659, 45.75044
1292.729, 1.112467
1293.798, 11.04035
1294.868, 63.15984
1295.937, 68.65063
1297.006, 74.61443
1298.075, 94.19035
1299.143, 51.83411
1300.212, 90.68108
1301.280, 85.28341
1302.348, 51.58928
1303.416, 72.51222
1304.484, 21.10656
1305.552, 65.69834
1306.620, 13.68397
1307.687, 26.72708
1308.754, 40.31307
1309.821, 82.71815
1310.888, 39.29879
1311.955, 8.181448
1313.021, 32.16590
1314.088, 63.77015
1315.154, 81.34097
1316.220, 51.77169
1317.286, 45.33964
1318.352, 30.90559
1319.417, 32.46896
1320.483, 36.02957
1321.548, 41.92082
1322.613, 78.52939
1323.678, 21.49142
1324.743, 80.04007
1325.807, 8.586799
1326.872, 24.13172
1327.936, 37.67484
1329.000, 32.90563
1330.064, 54.57305
1331.128, 55.11073
1332.191, 43.64151
1333.255, 32.17028
1334.318, 34.97983
1335.381, 61.50487
1336.444, 13.02810
1337.507, 33.54847
1338.569, 51.06713
1339.632, 7.173978
1340.694, 48.08403
1341.756, 56.58182
1342.818, 5.073978
1343.880, 54.78981
1344.941, 51.07462
1346.003, 26.56112
1347.064, 75.04598
1348.125, 17.52919
1349.186, 1.954319
1350.247, 69.52419
1351.308, 12.27569
1352.368, 40.40694
1353.428, 1.546771
1354.489, 44.39835
1355.549, 26.06598
1356.608, 11.52837
1357.668, 42.98573
1358.727, 3.869906
1359.787, 48.89156
1360.846, 8.659986
1361.905, 59.78108
1362.964, 58.64874
1364.022, 58.05479
1365.081, 50.48593
1366.139, 13.91564
1367.197, 26.34394
1368.255, 35.77095
1369.313, 33.19656
1370.371, 80.62103
1371.428, 34.03818
1372.486, 46.10297
1373.543, 100.9232
1374.600, 45.41919
1375.657, 36.19717
1376.713, 79.60751
1377.770, 32.01674
1378.826, 45.42915
1379.882, 42.83544
1380.938, 50.33853
1381.994, 35.42966
1383.050, 53.13239
1384.106, 30.12360
1385.161, 35.35175
1386.216, 78.75267
1387.271, 5.847582
1388.326, 45.27590
1389.381, 7.327549
1390.435, 4.064436
1391.490, 62.32221
1392.544, 19.73680
1393.598, 33.21678
1394.652, 28.67896
1395.705, 54.20216
1396.759, 59.59058
1397.812, 6.043615
1398.866, 43.34290
1399.919, 5.570624
1400.972, 30.95671
1402.024, 65.34270
1403.077, 86.72614
1404.129, 1.610883
1405.181, 15.55197
1406.233, 18.93708
1407.285, 7.324419
1408.337, 41.74659
1409.389, 50.28093
1410.440, 44.67633
1411.491, 37.15451
1412.542, 41.55014
1413.593, 56.94142
1414.644, 33.33331
1415.695, 32.81934
1416.745, 18.29131
1417.795, 10.86376
1418.845, 15.62993
1419.895, 4.924070
1420.945, 57.38778
1421.995, 42.73705
1423.044, 36.08999
1424.093, 13.51373
1425.142, 28.86993
1426.191, 24.22588
1427.240, 26.58409
1428.289, 4.941953
1429.337, 31.30030
1430.385, 97.65746
1431.433, 60.01075
1432.481, 78.31632
1433.529, 14.70023
1434.577, 42.57697
1435.624, 73.91715
1436.672, 37.25846
1437.719, 73.59696
1438.766, 75.90582
1439.812, 33.39981
1440.859, 30.76556
1441.905, 64.58002
1442.952, 49.90728
1443.998, 89.29550
1445.044, 43.65023
1446.090, 54.86586
1447.135, 35.09796
1448.181, 5.409860
1449.226, 25.13370
1450.271, 27.61426
1451.316, 22.07790
1452.361, 65.55569
1453.405, 41.03165
1454.450, 47.50584
1455.494, 1.014952
1456.538, 44.46264
1457.582, 35.78158
1458.626, 62.24572
1459.670, 15.67078
1460.713, 33.14161
1461.757, 50.61150
1462.800, 34.86537
1463.843, 85.33849
1464.886, 38.64180
1465.928, 31.10343
1466.971, 66.38031
1468.013, 32.97570
1469.055, 22.42768
1470.097, 24.88271
1471.139, 30.33675
1472.181, 49.79118
1473.222, 30.24505
1474.263, 10.69861
1475.305, 78.14884
1476.346, 31.59707
1477.386, 53.04505
1478.427, 20.51133
1479.468, 17.01315
1480.508, 2.472974
1481.548, 61.50711
1482.588, 67.25161
1483.628, 46.72467
1484.668, 64.19697
1485.707, 21.70442
1486.747, 48.61700
1487.786, 20.08268
1488.825, 23.59087
1489.864, 49.82548
1490.902, 46.28392
1491.941, 31.77889
1492.979, 73.27369
1494.017, 59.76940
1495.055, 40.26578
1496.093, 55.43467
1497.131, 7.871636
1498.168, 55.37445
1499.206, 1.877017
1500.243, 5.615599
1501.280, 40.82656
1502.317, 28.33878
1503.354, 21.85370
1504.390, 25.36515
1505.426, 49.87842
1506.463, 42.43375
1507.499, 53.91427
1508.535, 42.42806
1509.570, 35.94469
1510.606, 25.46744
1511.641, 39.89293
1512.676, 9.752003
1513.711, 34.96790
1514.746, 33.23509
1515.781, 17.29724
1516.816, 21.30436
1517.850, 5.862135
1518.884, 10.42604
1519.918, 61.01561
1520.952, 38.64240
1521.986, 64.15031
1523.019, 65.04555
1524.053, 77.49310
1525.086, 62.14930
1526.119, 49.81190
1527.152, 52.90173
1528.185, 17.58261
1529.217, 59.27938
1530.250, 36.99025
1531.282, 54.70807
1532.314, 26.47746
1533.346, 4.258087
1534.377, 88.05021
1535.409, 12.71369
1536.440, 48.29049
1537.472, 92.88667
1538.503, 88.71548
1539.534, 15.57523
1540.564, 14.45238
1541.595, 47.34832
1542.625, 30.26621
1543.656, 90.16253
1544.686, 1.917877
1545.716, 58.98102
1546.745, 42.19337
1547.775, 17.72017
1548.804, 49.23093
1549.834, 103.7226
1550.863, 67.89149
1551.892, 112.3424
1552.920, 123.5648
1553.949, 138.9950
1554.977, 233.5843
1556.006, 104.7937
1557.034, 44.41562
1558.062, 1.792717
1559.089, 60.91198
1560.117, 41.32546
1561.144, 59.00820
1562.172, 73.28856
1563.199, 12.52431
1564.226, 41.85152
1565.252, 0.4998510
1566.279, 55.33644
1567.305, 27.58498
1568.332, 30.33413
1569.358, 41.63163
1570.384, 15.17053
1571.409, 3.0258000E-02
1572.435, 0.0000000E+00
##END=



