##NAMES=Covellite
##RRUFFID=R060143
##IDEAL CHEMISTRY=Cu^1+^S
##LOCALITY=Butte, Montana, USA
##OWNER=RRUFF
##SOURCE=Marcus Origlieri
##DESCRIPTION=Irridescent blue to purple hexagonal plates
##STATUS=The identification of this mineral has been confirmed by X-ray diffraction and chemical analysis
##URL=rruff.info/R060143
##MEASURED CHEMISTRY=Cu_1.00_S_1.00_
##PIN_ID=L00760
##ORIENTATION=Laser parallel to -a* (-1 0 0). Fiducial mark perpendicular to laser is parallel to -c [0 0 -1]
164.8110, 0.0000000E+00
166.0360, 142.1117
167.2610, 0.6721800
168.4860, 46.65881
169.7110, 77.91565
170.9360, 168.4175
172.1610, 11.99445
173.3850, 51.69110
174.6100, 1.701172
175.8340, 5.992798
177.0580, 52.62195
178.2820, 50.40271
179.5050, 79.56854
180.7290, 101.1954
181.9520, 95.78546
183.1760, 112.2839
184.3990, 221.5365
185.6220, 125.7136
186.8450, 214.4283
188.0670, 200.5880
189.2900, 209.9318
190.5120, 249.5500
191.7340, 332.5576
192.9560, 528.5093
194.1780, 462.1333
195.4000, 540.5558
196.6220, 458.0460
197.8430, 419.1376
199.0640, 522.8197
200.2860, 542.5079
201.5070, 529.4863
202.7270, 578.2529
203.9480, 469.4283
205.1690, 185.4025
206.3890, 105.4952
207.6090, 44.43509
208.8290, 82.76523
210.0490, 76.05298
211.2690, 89.00867
212.4890, 103.7497
213.7080, 82.63776
214.9280, 106.9034
216.1470, 56.34320
217.3660, 32.17249
218.5850, 39.12112
219.8030, 52.79044
221.0220, 14.31390
222.2400, 47.32840
223.4590, 31.05490
224.6770, 73.72086
225.8950, 24.60968
227.1120, 4.536255
228.3300, 12.84119
229.5480, 32.14551
230.7650, 111.1987
231.9820, 76.10268
233.1990, 53.15869
234.4160, 160.9044
235.6330, 109.0122
236.8490, 101.9678
238.0660, 162.2106
239.2820, 199.7242
240.4980, 209.5928
241.7140, 198.5782
242.9300, 267.5784
244.1460, 307.2901
245.3610, 278.8505
246.5770, 356.3001
247.7920, 431.3203
249.0070, 542.8136
250.2220, 669.3620
251.4370, 771.7047
252.6510, 873.0648
253.8660, 1037.738
255.0800, 1225.091
256.2940, 1505.291
257.5080, 1895.538
258.7220, 1976.003
259.9360, 2063.087
261.1490, 2189.948
262.3630, 1980.209
263.5760, 1974.005
264.7890, 1887.822
266.0020, 1722.433
267.2150, 1728.114
268.4270, 1529.696
269.6400, 1269.463
270.8520, 1086.767
272.0640, 880.1054
273.2760, 724.6984
274.4880, 678.3932
275.7000, 538.3512
276.9120, 505.8884
278.1230, 398.4583
279.3340, 304.1877
280.5450, 201.6988
281.7560, 196.4666
282.9670, 192.9478
284.1780, 158.3773
285.3880, 111.7726
286.5980, 142.2181
287.8090, 72.53113
289.0190, 49.68526
290.2290, 104.9684
291.4380, 48.16126
292.6480, 6.426239
293.8570, 91.91492
295.0670, 32.75235
296.2760, 17.57981
297.4850, 43.59136
298.6930, 39.83387
299.9020, 39.52553
301.1110, 15.20641
302.3190, 31.70803
303.5270, 0.5978050
304.7350, 39.90035
305.9430, 30.93933
307.1510, 28.95481
308.3580, 19.19261
309.5660, 2.682537
310.7730, 23.00668
311.9800, 12.81052
313.1870, 9.091843
314.3940, 13.97286
315.6010, 9.009921
316.8070, 19.89897
318.0130, 5.971572
319.2200, 37.69517
320.4260, 20.36619
321.6310, 26.05098
322.8370, 66.92921
324.0430, 26.77350
325.2480, 55.61167
326.4540, 52.42640
327.6590, 35.21809
328.8640, 69.98669
330.0680, 31.73395
331.2730, 40.45919
332.4780, 62.15187
333.6820, 43.81880
334.8860, 36.61438
336.0900, 44.08229
337.2940, 25.95590
338.4980, 36.10918
339.7010, 31.77511
340.9050, 35.23203
342.1080, 32.85710
343.3110, 43.09604
344.5140, 52.48842
345.7170, 55.86128
346.9200, 45.22908
348.1220, 83.18015
349.3240, 85.21376
350.5270, 54.18087
351.7290, 96.03926
352.9310, 54.69223
354.1320, 85.89933
355.3340, 71.69104
356.5350, 69.17817
357.7370, 132.5819
358.9380, 63.97459
360.1390, 70.32486
361.3400, 82.16608
362.5400, 62.22452
363.7410, 72.05681
364.9410, 82.90649
366.1410, 96.34669
367.3410, 66.06358
368.5410, 99.77341
369.7410, 72.31695
370.9400, 108.6553
372.1400, 65.80515
373.3390, 77.22451
374.5380, 144.4238
375.7370, 82.95934
376.9360, 103.1664
378.1350, 110.9473
379.3330, 93.03647
380.5310, 73.81349
381.7300, 114.5244
382.9280, 145.4573
384.1260, 94.51978
385.3230, 74.01646
386.5210, 83.61474
387.7180, 69.72519
388.9160, 84.79675
390.1130, 82.90714
391.3100, 81.01881
392.5060, 71.17749
393.7030, 88.34291
394.9000, 79.84519
396.0960, 80.35374
397.2920, 84.95690
398.4880, 80.17934
399.6840, 90.42287
400.8800, 100.9695
402.0750, 78.28329
403.2710, 94.56372
404.4660, 90.50799
405.6610, 82.03384
406.8560, 92.11678
408.0510, 86.36810
409.2450, 113.7786
410.4400, 148.1426
411.6340, 160.5269
412.8280, 123.9306
414.0220, 91.34881
415.2160, 112.7812
416.4100, 128.2397
417.6030, 100.2648
418.7970, 79.21693
419.9900, 106.9196
421.1830, 87.71313
422.3760, 89.48395
423.5690, 108.2863
424.7610, 91.95322
425.9540, 105.3688
427.1460, 176.9410
428.3380, 175.4244
429.5300, 101.7412
430.7220, 208.2052
431.9140, 179.3674
433.1050, 222.3681
434.2970, 264.7393
435.4880, 276.7443
436.6790, 386.3459
437.8700, 360.7389
439.0610, 425.7361
440.2510, 517.4649
441.4420, 569.8218
442.6320, 678.4842
443.8220, 767.2027
445.0120, 1001.484
446.2020, 1126.765
447.3910, 1289.037
448.5810, 1525.854
449.7700, 1871.170
450.9600, 2114.782
452.1490, 2616.817
453.3370, 3060.402
454.5260, 3422.236
455.7150, 4188.964
456.9030, 4797.942
458.0910, 5523.948
459.2800, 6281.955
460.4670, 7242.276
461.6550, 8310.328
462.8430, 9779.660
464.0300, 11771.81
465.2180, 14564.03
466.4050, 18456.60
467.5920, 23784.85
468.7790, 30868.36
469.9650, 39820.86
471.1520, 48805.20
472.3380, 55047.82
473.5250, 53197.14
474.7110, 45463.57
475.8970, 35430.16
477.0820, 26617.61
478.2680, 20053.62
479.4540, 15118.10
480.6390, 11691.38
481.8240, 9159.582
483.0090, 7375.905
484.1940, 6031.336
485.3780, 4909.728
486.5630, 4153.240
487.7470, 3601.841
488.9320, 3134.646
490.1160, 2572.205
491.3000, 2321.504
492.4830, 2051.156
493.6670, 1778.543
494.8500, 1606.757
496.0340, 1467.229
497.2170, 1307.043
498.4000, 1198.151
499.5820, 1118.422
500.7650, 1025.286
501.9480, 884.7710
503.1300, 920.4266
504.3120, 704.7361
505.4940, 685.3085
506.6760, 697.1922
507.8580, 584.2873
509.0390, 562.9038
510.2210, 565.5649
511.4020, 532.1676
512.5830, 517.9969
513.7640, 502.8537
514.9450, 492.0116
516.1250, 487.4869
517.3060, 512.5753
518.4860, 482.2551
519.6660, 416.6843
520.8460, 451.3096
522.0260, 412.7438
523.2060, 423.2956
524.3850, 471.0508
525.5650, 366.0306
526.7440, 400.1736
527.9230, 354.9689
529.1020, 348.6443
530.2810, 392.3745
531.4590, 396.2428
532.6380, 366.2275
533.8160, 406.4002
534.9940, 344.8371
536.1720, 413.0916
537.3500, 381.2906
538.5270, 437.0203
539.7050, 410.5514
540.8820, 417.3222
542.0590, 326.8343
543.2360, 379.1164
544.4130, 315.4046
545.5900, 319.6609
546.7660, 345.5495
547.9430, 313.5408
549.1190, 301.3841
550.2950, 319.4956
551.4710, 322.5312
552.6470, 280.5357
553.8220, 341.2201
554.9980, 275.9294
556.1730, 286.3557
557.3480, 290.3809
558.5230, 221.5503
559.6980, 298.9000
560.8730, 216.7351
562.0470, 257.3350
563.2220, 264.6591
564.3960, 282.2770
565.5700, 209.9157
566.7440, 232.5719
567.9170, 223.5125
569.0910, 133.6702
570.2640, 176.3965
571.4380, 208.3535
572.6110, 182.6967
573.7840, 163.9051
574.9570, 137.3618
576.1290, 95.23936
577.3020, 115.9102
578.4740, 195.7797
579.6460, 157.2661
580.8180, 182.6415
581.9900, 231.0199
583.1620, 247.4170
584.3330, 202.8291
585.5040, 229.2558
586.6760, 203.7009
587.8470, 219.1467
589.0180, 326.5956
590.1880, 303.0583
591.3590, 286.5348
592.5290, 362.0307
593.7000, 333.5267
594.8700, 386.0301
596.0400, 396.5410
597.2090, 299.0612
598.3790, 343.5898
599.5490, 250.1214
600.7180, 359.6576
601.8870, 266.2008
603.0560, 260.7477
604.2250, 230.2972
605.3940, 242.8565
606.5620, 205.4158
607.7300, 203.9718
608.8990, 204.5255
610.0670, 200.0802
611.2350, 164.6348
612.4020, 94.19226
613.5700, 100.7454
614.7370, 112.2959
615.9050, 116.8429
617.0720, 138.3857
618.2390, 97.92488
619.4060, 123.4627
620.5720, 100.9968
621.7390, 104.5279
622.9050, 122.0566
624.0710, 74.58231
625.2370, 79.10425
626.4030, 75.62242
627.5690, 62.15325
628.7340, 11.76990
629.9000, 47.27237
631.0650, 36.76987
632.2300, 2.268707
633.3950, 30.76464
634.5600, 29.25704
635.7240, 26.75398
636.8890, 46.30915
638.0530, 11.11683
639.2170, 18.35734
640.3810, 7.177412
641.5450, 22.27289
642.7080, 24.84056
643.8720, 1.579353
645.0350, 36.98787
646.1980, 26.77117
647.3610, 20.27390
648.5240, 20.30331
649.6870, 25.10717
650.8490, 1.303757
652.0120, 27.06583
653.1740, 28.40534
654.3360, 11.06155
655.4980, 21.58236
656.6600, 6.110043
657.8210, 2.555492
658.9830, 33.88753
660.1440, 5.232483
661.3050, 11.56967
662.4660, 2.874523
663.6270, 15.01283
664.7870, 14.57454
665.9480, 6.340441
667.1080, 23.87523
668.2680, 15.14047
669.4280, 16.74202
670.5880, 1.592083
671.7480, 3.458054
672.9070, 30.03741
674.0670, 18.83762
675.2260, 51.30749
676.3850, 0.2559800
677.5440, 22.70811
678.7030, 9.336342
679.8610, 10.75043
681.0200, 8.489414
682.1780, 11.61160
683.3360, 12.75099
684.4940, 22.08660
685.6520, 12.08228
686.8090, 7.723301
687.9670, 4.517206
689.1240, 3.025951
690.2810, 13.59522
691.4380, 11.24342
692.5950, 7.556540
693.7520, 19.10743
694.9080, 31.75755
696.0650, 20.14169
697.2210, 2.599295
698.3770, 10.43432
699.5330, 3.565960
700.6880, 34.62832
701.8440, 3.861467
702.9990, 12.63254
704.1550, 25.11710
705.3100, 4.829689
706.4650, 13.50614
707.6190, 0.4662740
708.7740, 17.13452
709.9290, 5.232716
711.0830, 119.5828
712.2370, 12.07760
713.3910, 43.23373
714.5450, 9.533016
715.6980, 24.89101
716.8520, 7.071960
718.0050, 43.00660
719.1580, 69.33511
720.3110, 79.84982
721.4640, 114.7420
722.6170, 81.91444
723.7700, 119.2256
724.9220, 66.37482
726.0740, 78.51249
727.2260, 149.6383
728.3780, 151.7521
729.5300, 148.3995
730.6810, 164.4875
731.8330, 173.7187
732.9840, 150.7953
734.1350, 141.8495
735.2860, 162.7180
736.4370, 157.1340
737.5880, 164.3226
738.7380, 180.7894
739.8880, 176.7812
741.0390, 194.7610
742.1890, 209.8575
743.3380, 205.3551
744.4880, 193.7633
745.6380, 234.6924
746.7870, 150.6089
747.9360, 153.4509
749.0850, 151.1517
750.2340, 195.1762
751.3830, 110.0417
752.5310, 168.8947
753.6800, 146.7346
754.8280, 118.5622
755.9760, 158.3767
757.1240, 124.1789
758.2720, 200.9680
759.4190, 148.7448
760.5670, 121.5090
761.7140, 107.2637
762.8610, 79.08614
764.0080, 115.7358
765.1550, 86.45303
766.3020, 51.15810
767.4480, 133.6791
768.5950, 131.3621
769.7410, 93.03487
770.8870, 116.3270
772.0330, 84.46919
773.1780, 74.83832
774.3240, 59.21643
775.4690, 52.82785
776.6140, 72.34457
777.7590, 75.81638
778.9040, 135.5616
780.0490, 21.05152
781.1940, 102.1978
782.3380, 132.2720
783.4820, 0.2036020
784.6260, 42.24352
785.7700, 29.59459
786.9140, 86.92478
788.0580, 87.30586
789.2010, 88.13997
790.3450, 4.509070
791.4880, 33.86189
792.6310, 21.98522
793.7730, 30.20612
794.9160, 36.12536
796.0590, 78.95067
797.2010, 55.27385
798.3430, 53.12050
799.4850, 92.08120
800.6270, 63.84297
801.7690, 82.57258
802.9100, 147.1731
804.0520, 140.4291
805.1930, 175.5072
806.3340, 127.1836
807.4750, 126.4827
808.6160, 63.96925
809.7560, 89.08434
810.8970, 103.7920
812.0370, 102.4130
813.1770, 135.5243
814.3170, 99.01059
815.4570, 77.94765
816.5960, 109.7656
817.7360, 18.25127
818.8750, 90.10950
820.0140, 60.68703
821.1530, 111.1398
822.2920, 74.00308
823.4310, 48.48009
824.5690, 44.08273
825.7070, 37.51699
826.8460, 50.92311
827.9840, 63.34678
829.1220, 73.25539
830.2590, 120.5926
831.3970, 80.34389
832.5340, 86.25006
833.6710, 52.67350
834.8080, 97.94962
835.9450, 99.40206
837.0820, 36.46976
838.2190, 67.37713
839.3550, 120.3552
840.4910, 87.95663
841.6270, 70.73325
842.7630, 109.1759
843.8990, 145.6393
845.0350, 39.88263
846.1700, 100.5521
847.3060, 22.98118
848.4410, 77.02608
849.5760, 57.20220
850.7100, 29.12791
851.8450, 70.62869
852.9800, 12.57209
854.1140, 4.674145
855.2480, 13.60475
856.3820, 1.278499
857.5160, 7.618139
858.6500, 29.69970
859.7830, 1.682673
860.9170, 22.66189
862.0500, 32.62828
863.1830, 36.60383
864.3160, 11.57755
865.4480, 0.2571740
866.5810, 38.66909
867.7130, 1.461958
868.8460, 12.59488
869.9780, 40.33847
871.1100, 7.574935
872.2410, 10.64610
873.3730, 8.892502
874.5050, 0.9865000
875.6360, 27.91613
876.7670, 98.81830
877.8980, 14.07590
879.0290, 49.82742
880.1590, 2.752712
881.2900, 50.35691
882.4200, 59.22450
883.5500, 11.90763
884.6800, 7.557346
885.8100, 14.65059
886.9400, 29.65806
888.0690, 61.50485
889.1990, 12.35245
890.3280, 12.20061
891.4570, 57.04961
892.5860, 18.89921
893.7140, 95.75018
894.8430, 73.60754
895.9710, 37.46608
897.1000, 147.0213
898.2280, 139.8959
899.3560, 154.7714
900.4830, 190.1606
901.6110, 167.5360
902.7380, 217.3067
903.8660, 226.0551
904.9930, 254.3410
906.1200, 291.9274
907.2460, 304.1600
908.3730, 357.0733
909.5000, 375.9919
910.6260, 397.8493
911.7520, 470.6889
912.8780, 435.6273
914.0040, 510.5732
915.1290, 606.5263
916.2550, 599.0483
917.3800, 654.0259
918.5050, 735.0084
919.6300, 831.6196
920.7550, 809.5154
921.8800, 856.2643
923.0040, 884.2789
924.1290, 979.2983
925.2530, 1019.323
926.3770, 1101.377
927.5010, 1039.242
928.6250, 1120.987
929.7480, 1032.848
930.8720, 900.7977
931.9950, 871.8597
933.1180, 809.9116
934.2410, 688.9653
935.3640, 662.0449
936.4860, 662.1323
937.6090, 553.2357
938.7310, 523.3518
939.8530, 512.4777
940.9750, 482.6095
942.0970, 463.7581
943.2180, 431.2776
944.3400, 393.4333
945.4610, 374.2949
946.5820, 322.5173
947.7030, 320.7629
948.8240, 315.0403
949.9450, 241.3326
951.0650, 254.6317
952.1860, 277.9427
953.3060, 243.2586
954.4260, 230.5995
955.5460, 184.9577
956.6650, 124.3298
957.7850, 212.7097
958.9040, 150.1029
960.0230, 250.5047
961.1420, 142.9153
962.2610, 114.3450
963.3800, 234.7933
964.4990, 165.2549
965.6170, 154.7296
966.7350, 144.2124
967.8530, 188.7033
968.9710, 176.2124
970.0890, 137.7408
971.2070, 192.2836
972.3240, 176.8462
973.4410, 127.4162
974.5580, 46.99820
975.6750, 98.58936
976.7920, 132.1895
977.9090, 143.7999
979.0250, 94.43256
980.1410, 108.0762
981.2580, 96.80939
982.3740, 126.4089
983.4890, 108.0873
984.6050, 105.7816
985.7200, 150.4833
986.8360, 184.1959
987.9510, 134.9144
989.0660, 125.9470
990.1810, 141.5817
991.2950, 151.0261
992.4100, 159.0895
993.5240, 220.8682
994.6390, 133.5047
995.7530, 220.2989
996.8660, 301.1065
997.9800, 208.9221
999.0940, 248.7519
1000.207, 247.0509
1001.320, 243.9050
1002.433, 166.6121
1003.546, 104.4790
1004.659, 128.3651
1005.772, 128.4358
1006.884, 92.37502
1007.996, 82.52319
1009.108, 100.1705
1010.220, 66.10771
1011.332, 45.79345
1012.444, 115.6174
1013.555, 55.03642
1014.666, 129.5402
1015.777, 9.586300
1016.888, 27.57393
1017.999, 113.4679
1019.110, 114.6710
1020.220, 123.5460
1021.331, 138.3310
1022.441, 136.1129
1023.551, 112.6687
1024.661, 114.7315
1025.770, 84.80290
1026.880, 22.88313
1027.989, 39.16641
1029.098, 74.26421
1030.207, 16.03529
1031.316, 20.44128
1032.425, 122.5586
1033.533, 60.68439
1034.642, 61.62704
1035.750, 43.31163
1036.858, 18.53653
1037.966, 10.28270
1039.073, 74.87438
1040.181, 42.03971
1041.288, 38.21327
1042.396, 93.61171
1043.503, 76.80141
1044.610, 100.1200
1045.716, 111.1365
1046.823, 84.37409
1047.929, 107.5966
1049.036, 105.5191
1050.142, 76.75912
1051.248, 159.0070
1052.353, 145.3507
1053.459, 100.4079
1054.564, 203.6859
1055.670, 201.8776
1056.775, 243.1712
1057.880, 113.4722
1058.985, 155.7804
1060.089, 113.1003
1061.194, 81.42905
1062.298, 174.7656
1063.402, 146.1105
1064.506, 125.4631
1065.610, 150.8232
1066.713, 170.1900
1067.817, 69.56424
1068.920, 158.9454
1070.023, 102.3337
1071.126, 178.7289
1072.229, 129.1310
1073.332, 107.5398
1074.435, 126.9557
1075.537, 134.4494
1076.639, 156.1391
1077.741, 148.6188
1078.843, 88.24657
1079.945, 118.1115
1081.046, 109.5788
1082.148, 74.34019
1083.249, 77.81886
1084.350, 110.3034
1085.451, 138.7983
1086.551, 152.2990
1087.652, 164.4649
1088.752, 95.16975
1089.853, 144.6919
1090.953, 124.5894
1092.053, 60.75211
1093.152, 170.2901
1094.252, 51.83280
1095.351, 97.38086
1096.451, 89.93392
1097.550, 127.4913
1098.649, 147.0539
1099.748, 121.7070
1100.846, 7.278847
1101.945, 88.85638
1103.043, 2.442171
1104.141, 68.03239
1105.239, 56.63512
1106.337, 47.23870
1107.434, 115.8463
1108.532, 17.68110
1109.629, 111.2993
1110.726, 43.92141
1111.823, 149.5473
1112.920, 202.1769
1114.017, 84.81071
1115.113, 115.4476
1116.210, 285.0887
1117.306, 210.7335
1118.402, 277.5964
1119.498, 307.2480
1120.593, 232.9071
1121.689, 276.5730
1122.784, 314.2472
1123.879, 268.9259
1124.974, 202.6112
1126.069, 173.2992
1127.164, 130.0114
1128.259, 106.7282
1129.353, 72.64859
1130.447, 79.80988
1131.541, 73.97654
1132.635, 71.68498
1133.729, 15.40491
1134.822, 41.45772
1135.916, 21.18791
1137.009, 1.746231
1138.102, 58.52356
1139.195, 16.48476
1140.288, 10.23463
1141.380, 83.99117
1142.473, 12.25091
1143.565, 13.50270
1144.657, 64.26271
1145.749, 51.03554
1146.841, 1.187366
1147.932, 23.58990
1149.024, 0.4586850
1150.115, 8.917633
1151.206, 18.70615
1152.297, 26.50108
1153.388, 19.90363
1154.479, 52.77568
1155.569, 40.12739
1156.659, 44.23857
1157.750, 71.83219
1158.839, 18.36672
1159.929, 76.42482
1161.019, 28.94068
1162.108, 5.697020
1163.198, 42.07505
1164.287, 2.847570
1165.376, 15.24385
1166.465, 10.75534
1167.553, 9.122734
1168.642, 11.04595
1169.730, 28.37243
1170.818, 19.10764
1171.906, 4.843555
1172.994, 16.34239
1174.082, 64.30501
1175.170, 1.684074
1176.257, 13.25454
1177.344, 53.45351
1178.431, 3.161774
1179.518, 10.75424
1180.605, 15.56248
1181.691, 11.25540
1182.778, 4.654294
1183.864, 11.88051
1184.950, 26.30321
1186.036, 14.03110
1187.122, 39.62607
1188.207, 37.28265
1189.292, 29.93908
1190.378, 48.59464
1191.463, 34.94145
1192.548, 38.93582
1193.632, 34.55743
1194.717, 26.21041
1195.801, 52.86247
1196.886, 26.51362
1197.970, 52.16385
1199.054, 20.81340
1200.137, 6.461781
1201.221, 13.10922
1202.305, 34.75572
1203.388, 52.40101
1204.471, 40.05341
1205.554, 0.3037190
1206.637, 1.372871
1207.719, 16.93646
1208.802, 40.57108
1209.884, 4.141991
1210.966, 21.68815
1212.048, 1.440560
1213.130, 40.85444
1214.212, 63.42916
1215.293, 24.06210
1216.374, 37.63295
1217.456, 9.604217
1218.536, 48.95526
1219.617, 11.51237
1220.698, 54.06739
1221.778, 15.62053
1222.859, 41.17154
1223.939, 61.72018
1225.019, 34.26719
1226.099, 74.81132
1227.178, 37.35357
1228.258, 14.89342
1229.337, 0.4311330
1230.417, 60.96491
1231.496, 4.497032
1232.574, 35.07547
1233.653, 83.60247
1234.732, 4.126767
1235.810, 11.69180
1236.888, 39.21077
1237.966, 0.2727510
1239.044, 7.732754
1240.122, 73.24113
1241.199, 51.74725
1242.277, 81.25012
1243.354, 69.75043
1244.431, 118.2477
1245.508, 24.74197
1246.585, 11.23364
1247.661, 0.7241120
1248.738, 44.20902
1249.814, 21.69085
1250.890, 18.16986
1251.966, 31.64603
1253.042, 9.119075
1254.117, 13.58900
1255.193, 52.05578
1256.268, 47.51959
1257.343, 8.019759
1258.418, 16.42616
1259.493, 3.743862
1260.567, 7.0676997E-02
1261.642, 49.71522
1262.716, 16.13200
1263.790, 16.95796
1264.864, 58.93531
1265.938, 3.677924
1267.011, 5.697770
1268.085, 6.930624
1269.158, 45.42621
1270.231, 76.47781
1271.304, 53.31182
1272.377, 11.43398
1273.450, 11.77778
1274.522, 50.12175
1275.594, 29.46252
1276.666, 46.73250
1277.738, 9.622238
1278.810, 6.963498
1279.882, 35.42737
1280.953, 58.73518
1282.025, 0.9605100
1283.096, 6.334359
1284.167, 1.375538
1285.238, 91.90562
1286.308, 46.27907
1287.379, 116.5531
1288.449, 118.6292
1289.519, 106.9002
1290.589, 77.57803
1291.659, 76.56132
1292.729, 119.8302
1293.798, 99.09518
1294.868, 57.54924
1295.937, 132.2665
1297.006, 126.5224
1298.075, 78.67717
1299.143, 29.93252
1300.212, 88.18480
1301.280, 83.43375
1302.348, 61.46325
1303.416, 92.70641
1304.484, 62.82588
1305.552, 68.23070
1306.620, 111.4654
1307.687, 96.69711
1308.754, 83.23421
1309.821, 133.4604
1310.888, 67.68336
1311.955, 47.81569
1313.021, 3.245336
1314.088, 18.46001
1315.154, 54.76604
1316.220, 62.97564
1317.286, 65.18264
1318.352, 40.38708
1319.417, 99.58947
1320.483, 31.78968
1321.548, 5.988492
1322.613, 11.18836
1323.678, 118.3833
1324.743, 13.57625
1325.807, 59.76686
1326.872, 74.95494
1327.936, 57.14071
1329.000, 89.32443
1330.064, 19.50539
1331.128, 10.67883
1332.191, 3.841692
1333.255, 101.0023
1334.318, 84.08399
1335.381, 46.73026
1336.444, 48.58025
1337.507, 7.980959
1338.569, 12.29356
1339.632, 62.86905
1340.694, 14.70284
1341.756, 65.82322
1342.818, 4.262855
1343.880, 16.03619
1344.941, 3.488007
1346.003, 49.38057
1347.064, 117.4670
1348.125, 4.551670
1349.186, 8.634604
1350.247, 62.71557
1351.308, 12.79455
1352.368, 34.91309
1353.428, 49.94786
1354.489, 53.02173
1355.549, 16.09393
1356.608, 77.16501
1357.668, 57.14817
1358.727, 52.21585
1359.787, 11.71482
1360.846, 19.33759
1361.905, 36.39262
1362.964, 11.04412
1364.022, 47.48581
1365.081, 59.52253
1366.139, 6.665428
1367.197, 28.36697
1368.255, 57.39818
1369.313, 77.42764
1370.371, 89.45611
1371.428, 67.47626
1372.486, 66.49534
1373.543, 62.68233
1374.600, 89.92178
1375.657, 55.72307
1376.713, 60.88626
1377.770, 3.752840
1378.826, 38.76661
1379.882, 42.77970
1380.938, 27.79180
1381.994, 59.80372
1383.050, 48.85566
1384.106, 46.86596
1385.161, 28.61185
1386.216, 22.62111
1387.271, 24.14062
1388.326, 23.52260
1389.381, 36.06494
1390.435, 34.07300
1391.490, 40.75119
1392.544, 42.75996
1393.598, 24.94255
1394.652, 1.912992
1395.705, 86.70620
1396.759, 11.28270
1397.812, 55.72622
1398.866, 23.80400
1399.919, 72.81876
1400.972, 95.72677
1402.024, 69.74490
1403.077, 13.76423
1404.129, 8.974018
1405.181, 59.79522
1406.233, 33.06753
1407.285, 43.09286
1408.337, 7.120445
1409.389, 29.54469
1410.440, 23.50332
1411.491, 10.93607
1412.542, 2.028826
1413.593, 15.00933
1414.644, 3.051409
1415.695, 42.02191
1416.745, 71.02534
1417.795, 16.42957
1418.845, 32.18373
1419.895, 81.21980
1420.945, 28.25951
1421.995, 133.3455
1423.044, 36.43462
1424.093, 88.50266
1425.142, 74.57887
1426.191, 45.63933
1427.240, 77.70364
1428.289, 100.7724
1429.337, 103.8516
1430.385, 77.93549
1431.433, 110.0275
1432.481, 202.1284
1433.529, 90.22417
1434.577, 166.2657
1435.624, 247.3315
1436.672, 248.3840
1437.719, 208.4389
1438.766, 231.5025
1439.812, 273.5697
1440.859, 258.6466
1441.905, 306.7306
1442.952, 277.8253
1443.998, 235.9346
1445.044, 323.0945
1446.090, 302.2502
1447.135, 315.5328
1448.181, 350.4761
1449.226, 285.9868
1450.271, 256.1354
1451.316, 284.2827
1452.361, 275.4290
1453.405, 287.5739
1454.450, 248.7089
1455.494, 254.8588
1456.538, 225.8234
1457.582, 217.0950
1458.626, 212.6504
1459.670, 193.2877
1460.713, 194.1424
1461.757, 164.3053
1462.800, 141.4694
1463.843, 135.6345
1464.886, 192.8006
1465.928, 137.9678
1466.971, 127.1377
1468.013, 159.0735
1469.055, 114.9941
1470.097, 162.1447
1471.139, 74.70006
1472.181, 146.8511
1473.222, 176.0041
1474.263, 92.15929
1475.305, 73.31453
1476.346, 115.4731
1477.386, 84.63492
1478.427, 125.7988
1479.468, 70.96530
1480.508, 104.1501
1481.548, 110.3514
1482.588, 48.55178
1483.628, 129.7840
1484.668, 55.03176
1485.707, 85.31420
1486.747, 14.57669
1487.786, 37.83826
1488.825, 59.09953
1489.864, 86.05611
1490.902, 82.87520
1491.941, 70.59818
1492.979, 80.88990
1494.017, 36.04176
1495.055, 44.34135
1496.093, 72.89503
1497.131, 7.161484
1498.168, 44.43341
1499.206, 8.290976
1500.243, 24.98951
1501.280, 4.275005
1502.317, 55.56561
1503.354, 3.860601
1504.390, 91.16077
1505.426, 5.466898
1506.463, 39.77930
1507.499, 0.9019150
1508.535, 148.4223
1509.570, 5.751274
1510.606, 14.08220
1511.641, 52.40710
1512.676, 22.06048
1513.711, 1.080946
1514.746, 21.42650
1515.781, 11.81860
1516.816, 47.27805
1517.850, 64.72133
1518.884, 67.20583
1519.918, 21.70185
1520.952, 18.22209
1521.986, 57.79643
1523.019, 0.6000800
1524.053, 46.02053
1525.086, 10.11485
1526.119, 39.31744
1527.152, 61.99557
1528.185, 47.69338
1529.217, 42.41104
1530.250, 53.43322
1531.282, 62.95731
1532.314, 64.82534
1533.346, 50.72106
1534.377, 56.65079
1535.409, 7.662050
1536.440, 21.39499
1537.472, 54.44699
1538.503, 79.54106
1539.534, 6.452749
1540.564, 9.954468
1541.595, 26.94364
1542.625, 24.23308
1543.656, 61.76641
1544.686, 45.82758
1545.716, 14.93095
1546.745, 18.07557
1547.775, 37.26282
1548.804, 59.14814
1549.834, 40.66619
1550.863, 79.74508
1551.892, 124.8464
1552.920, 188.9653
1553.949, 170.0930
1554.977, 214.8889
1556.006, 150.0673
1557.034, 9.841768
1558.062, 99.86878
1559.089, 21.55719
1560.117, 74.57769
1561.144, 102.9907
1562.172, 88.70688
1563.199, 114.1727
1564.226, 72.69365
1565.252, 103.0024
1566.279, 75.09676
1567.305, 43.01501
1568.332, 38.78237
1569.358, 107.1839
1570.384, 40.84546
1571.409, 0.3432830
1572.435, 0.0000000E+00
##END=



