##NAMES=Covellite
##RRUFFID=R060306
##IDEAL CHEMISTRY=Cu^1+^S
##LOCALITY=3800' level, Leonard mine, Butte, Silver Bow County, Montana, USA
##OWNER=RRUFF
##SOURCE=Michael Scott
##DESCRIPTION=Blue iridescent metallic hexagonal plates
##STATUS=The identification of this mineral has been confirmed by X-ray diffraction and chemical analysis
##URL=rruff.info/R060306
##MEASURED CHEMISTRY=Cu_1.00_S_1.00_
##PIN_ID=M00169
##ORIENTATION=Laser parallel to -a* (-1 0 0). Fiducial mark perpendicular to laser is parallel to c [0 0 1]
52.67100, 0.0000000E+00
53.91000, 14.76886
55.14900, 1.067505
56.38700, 10.64746
57.62600, 6.542389
58.86400, 1.374878
60.10300, 1.303650
61.34100, 25.60941
62.57900, 73.86108
63.81700, 101.9422
65.05400, 46.75464
66.29200, 9.215637
67.52900, 17.74512
68.76700, 15.81281
70.00400, 63.83997
71.24100, 84.29382
72.47700, 51.13794
73.71400, 37.33997
74.95100, 83.87067
76.18700, 142.7039
77.42300, 139.8162
78.65900, 139.1868
79.89500, 165.7969
81.13100, 213.6303
82.36700, 296.6721
83.60200, 406.9093
84.83700, 460.3326
86.07200, 439.9341
87.30800, 443.7034
88.54200, 559.6309
89.77700, 652.7092
91.01200, 745.9337
92.24600, 833.3002
93.48000, 919.7825
94.71400, 977.3920
95.94800, 1031.115
97.18200, 1070.944
98.41600, 1135.875
99.64900, 1191.902
100.8830, 1300.021
102.1160, 1356.226
103.3490, 1389.514
104.5820, 1572.882
105.8150, 1748.327
107.0470, 1983.845
108.2800, 2574.436
109.5120, 2892.095
110.7440, 2502.821
111.9760, 2134.611
113.2080, 2044.466
114.4400, 2056.384
115.6710, 1901.382
116.9030, 1660.481
118.1340, 1473.633
119.3650, 1595.838
120.5960, 1309.984
121.8270, 1353.400
123.0580, 993.7561
124.2880, 979.1605
125.5190, 867.6163
126.7490, 806.1807
127.9790, 819.7913
129.2090, 907.4212
130.4390, 937.0818
131.6680, 976.7727
132.8980, 1000.485
134.1270, 1127.241
135.3560, 1183.035
136.5850, 1392.841
137.8140, 1500.662
139.0430, 1682.505
140.2710, 1766.376
141.5000, 1582.279
142.7280, 1392.202
143.9560, 1139.145
145.1840, 966.1091
146.4120, 792.0939
147.6390, 716.1001
148.8670, 603.1281
150.0940, 576.1786
151.3210, 558.2516
152.5490, 568.3476
153.7750, 460.4668
155.0020, 449.6093
156.2290, 429.7755
157.4550, 346.9653
158.6810, 303.1788
159.9080, 311.4164
161.1340, 251.6779
162.3590, 321.9631
163.5850, 329.2721
164.8110, 350.6052
166.0360, 356.9619
167.2610, 303.3425
168.4860, 323.7468
169.7110, 323.1747
170.9360, 340.6262
172.1610, 320.1013
173.3850, 265.5999
174.6100, 269.1217
175.8340, 273.7733
177.0580, 277.3621
178.2820, 271.6791
179.5050, 293.3610
180.7290, 300.9703
181.9520, 277.6029
183.1760, 322.2584
184.3990, 336.9371
185.6220, 319.6386
186.8450, 384.3630
188.0670, 416.1100
189.2900, 395.8794
190.5120, 358.6713
191.7340, 357.4850
192.9560, 423.3207
194.1780, 375.1785
195.4000, 438.0579
196.6220, 437.9590
197.8430, 419.1970
199.0640, 488.3683
200.2860, 442.6663
201.5070, 520.2227
202.7270, 474.3269
203.9480, 462.7761
205.1690, 384.2542
206.3890, 297.5227
207.6090, 208.5223
208.8290, 224.0510
210.0490, 192.0507
211.2690, 180.2567
212.4890, 227.9379
213.7080, 244.3859
214.9280, 243.8535
216.1470, 199.7002
217.3660, 172.0022
218.5850, 169.3461
219.8030, 194.7301
221.0220, 178.1524
222.2400, 174.8296
223.4590, 156.3243
224.6770, 190.3307
225.8950, 170.8925
227.1120, 150.2719
228.3300, 177.4567
229.5480, 148.1112
230.7650, 106.7948
231.9820, 137.6548
233.1990, 162.3940
234.4160, 162.1600
235.6330, 148.9521
236.8490, 181.7697
238.0660, 147.6121
239.2820, 142.4787
240.4980, 165.3690
241.7140, 196.2825
242.9300, 195.2188
244.1460, 242.1774
245.3610, 229.1580
246.5770, 318.1600
247.7920, 331.1832
249.0070, 374.2273
250.2220, 434.2920
251.4370, 444.3765
252.6510, 612.4812
253.8660, 662.6055
255.0800, 793.7491
256.2940, 845.9119
257.5080, 999.0935
258.7220, 1326.294
259.9360, 1505.512
261.1490, 1334.749
262.3630, 1251.003
263.5760, 1179.275
264.7890, 1126.564
266.0020, 1057.869
267.2150, 988.1920
268.4270, 917.5312
269.6400, 780.8872
270.8520, 711.2593
272.0640, 567.6475
273.2760, 496.0511
274.4880, 386.4706
275.7000, 304.9055
276.9120, 307.3560
278.1230, 231.8215
279.3340, 199.3025
280.5450, 124.7985
281.7560, 110.3097
282.9670, 95.83594
284.1780, 82.37708
285.3880, 84.93323
286.5980, 89.50427
287.8090, 77.09009
289.0190, 70.69055
290.2290, 67.66284
291.4380, 53.48755
292.6480, 48.57996
293.8570, 37.23901
295.0670, 8.912476
296.2760, 15.60034
297.4850, 3.697388
298.6930, 15.01855
299.9020, 0.2512210
301.1110, 28.50708
302.3190, 13.75366
303.5270, 19.98840
304.7350, 8.212402
305.9430, 7.576050
307.1510, 6.378418
308.3580, 17.19458
309.5660, 14.02429
310.7730, 24.86768
311.9800, 15.72449
313.1870, 5.594971
314.3940, 29.47876
315.6010, 11.37598
316.8070, 35.28625
318.0130, 27.20984
319.2200, 58.14661
320.4260, 62.09631
321.6310, 63.05823
322.8370, 50.03284
324.0430, 32.01221
325.2480, 65.99915
326.4540, 75.99890
327.6590, 63.01147
328.8640, 75.03662
330.0680, 55.07446
331.2730, 47.12488
332.4780, 54.18774
333.6820, 37.26306
334.8860, 23.35071
336.0900, 9.450684
337.2940, 26.56287
338.4980, 24.68726
339.7010, 9.823730
340.9050, 7.027832
342.1080, 36.86902
343.3110, 36.36829
344.5140, 34.65222
345.7170, 43.39880
346.9200, 13.24146
348.1220, 17.07031
349.3240, 15.88818
350.5270, 33.69312
351.7290, 4.493530
352.9310, 35.27893
354.1320, 21.93848
355.3340, 1.827393
356.5350, 34.57886
357.7370, 28.32825
358.9380, 15.07324
360.1390, 34.80701
361.3400, 18.46082
362.5400, 19.74402
363.7410, 13.04236
364.9410, 5.355835
366.1410, 3.315674
367.3410, 27.02551
368.5410, 9.617432
369.7410, 37.75195
370.9400, 16.86414
372.1400, 11.47046
373.3390, 17.93347
374.5380, 52.35327
375.7370, 1.206909
376.9360, 8.252075
378.1350, 62.72778
379.3330, 95.22729
380.5310, 49.74097
381.7300, 44.27161
382.9280, 99.82202
384.1260, 67.38745
385.3230, 45.97021
386.5210, 52.57373
387.7180, 100.1985
388.9160, 98.83911
390.1130, 84.49390
391.3100, 118.1626
392.5060, 93.84644
393.7030, 69.54431
394.9000, 107.2594
396.0960, 81.99414
397.2920, 40.74573
398.4880, 91.51257
399.6840, 70.29456
400.8800, 77.08960
402.0750, 106.8976
403.2710, 83.71826
404.4660, 81.55164
405.6610, 79.39758
406.8560, 78.44958
408.0510, 75.13330
409.2450, 84.02612
410.4400, 99.93298
411.6340, 88.85437
412.8280, 93.78784
414.0220, 85.73279
415.2160, 72.69177
416.4100, 79.66321
417.6030, 56.64819
418.7970, 106.6481
419.9900, 137.6615
421.1830, 112.6875
422.3760, 140.7244
423.5690, 110.7742
424.7610, 155.8408
425.9540, 114.9187
427.1460, 174.0074
428.3380, 166.1069
429.5300, 196.2174
430.7220, 255.3385
431.9140, 271.4736
433.1050, 344.6202
434.2970, 355.7817
435.4880, 409.9536
436.6790, 452.1355
437.8700, 519.2329
439.0610, 619.5303
440.2510, 694.7429
441.4420, 801.8762
442.6320, 931.1086
443.8220, 1089.309
445.0120, 1277.962
446.2020, 1494.365
447.3910, 1739.943
448.5810, 2032.978
449.7700, 2340.269
450.9600, 2767.569
452.1490, 3255.879
453.3370, 3778.198
454.5260, 4404.526
455.7150, 5097.865
456.9030, 5854.212
458.0910, 6657.568
459.2800, 7589.931
460.4670, 8598.306
461.6550, 9911.688
462.8430, 11932.08
464.0300, 14286.48
465.2180, 17759.89
466.4050, 22540.31
467.5920, 28816.73
468.7790, 36822.18
469.9650, 46657.62
471.1520, 54938.07
472.3380, 58961.52
473.5250, 56027.00
474.7110, 47650.48
475.8970, 37599.95
477.0820, 28632.45
478.2680, 21482.95
479.4540, 16569.46
480.6390, 12934.98
481.8240, 10101.50
483.0090, 8039.040
484.1940, 6685.267
485.3780, 5677.192
486.5630, 4671.142
487.7470, 4012.217
488.9320, 3437.848
490.1160, 3024.993
491.3000, 2652.831
492.4830, 2365.137
493.6670, 2044.269
494.8500, 1857.636
496.0340, 1728.677
497.2170, 1494.301
498.4000, 1380.784
499.5820, 1265.854
500.7650, 1126.215
501.9480, 1042.177
503.1300, 988.2605
504.3120, 894.9502
505.4940, 863.6287
506.6760, 807.3381
507.8580, 713.0312
509.0390, 741.5857
510.2210, 634.5544
511.4020, 636.3639
512.5830, 625.0876
513.7640, 583.6932
514.9450, 604.1599
516.1250, 578.2854
517.3060, 601.3831
518.4860, 528.6704
519.6660, 526.0637
520.8460, 559.2173
522.0260, 488.1056
523.2060, 541.6904
524.3850, 475.9298
525.5650, 468.0760
526.7440, 513.8062
527.9230, 468.3849
529.1020, 424.0992
530.2810, 406.5256
531.4590, 413.6301
532.6380, 427.7285
533.8160, 408.0638
534.9940, 412.2167
536.1720, 399.1055
537.3500, 380.5948
538.5270, 380.4553
539.7050, 383.9097
540.8820, 403.4004
542.0590, 378.4791
543.2360, 360.5194
544.4130, 353.5374
545.5900, 299.5504
546.7660, 350.6091
547.9430, 340.1855
549.1190, 307.5089
550.2950, 262.8538
551.4710, 274.2708
552.6470, 253.8195
553.8220, 254.8340
554.9980, 271.7823
556.1730, 266.2355
557.3480, 247.3824
558.5230, 236.8132
559.6980, 214.5565
560.8730, 222.9978
562.0470, 224.2458
563.2220, 232.1643
564.3960, 193.5081
565.5700, 193.7854
566.7440, 141.8093
567.9170, 192.7524
569.0910, 187.7036
570.2640, 131.7076
571.4380, 190.6409
572.6110, 139.3989
573.7840, 116.5148
574.9570, 132.4938
576.1290, 146.4430
577.3020, 151.3790
578.4740, 144.5809
579.6460, 152.2949
580.8180, 120.2302
581.9900, 114.1652
583.1620, 106.3652
584.3330, 161.0347
585.5040, 132.9689
586.6760, 153.9070
587.8470, 195.8467
589.0180, 174.7925
590.1880, 152.7388
591.3590, 232.6841
592.5290, 228.6282
593.7000, 197.5712
594.8700, 198.5129
596.0400, 224.4534
597.2090, 233.3923
598.3790, 227.3298
599.5490, 210.2659
600.7180, 226.2002
601.8870, 170.1328
603.0560, 200.0636
604.2250, 176.9945
605.3940, 142.9235
606.5620, 171.8503
607.7300, 133.7751
608.8990, 122.6979
610.0670, 114.6183
611.2350, 89.53650
612.4020, 96.45215
613.5700, 90.36548
614.7370, 104.2762
615.9050, 69.18433
617.0720, 42.08984
618.2390, 49.99268
619.4060, 52.89258
620.5720, 65.78967
621.7390, 45.68372
622.9050, 79.57483
624.0710, 60.46265
625.2370, 45.34912
626.4030, 53.23950
627.5690, 8.133789
628.7340, 16.52197
629.9000, 2.802246
631.0650, 15.83313
632.2300, 2.263916
633.3950, 9.631409
634.5600, 30.52930
635.7240, 12.42468
636.8890, 45.32300
638.0530, 34.21741
639.2170, 32.10883
640.3810, 32.00317
641.5450, 34.89917
642.7080, 14.88373
643.8720, 14.20099
645.0350, 19.51593
646.1980, 14.40448
647.3610, 26.44373
648.5240, 11.32294
649.6870, 3.197815
650.8490, 2.748840
652.0120, 19.11090
653.1740, 4.034241
654.3360, 3.175537
655.4980, 1.017944
656.6600, 15.09351
657.8210, 20.18646
658.9830, 2.684570
660.1440, 30.89850
661.3050, 12.86169
662.4660, 5.335388
663.6270, 15.59460
664.7870, 3.127747
665.9480, 7.006714
667.1080, 20.30737
668.2680, 22.09717
669.4280, 1.369202
670.5880, 6.395020
671.7480, 6.961060
672.9070, 0.6577150
674.0670, 5.511169
675.2260, 7.760864
676.3850, 17.15973
677.5440, 6.441345
678.7030, 0.1885380
679.8610, 0.2413940
681.0200, 11.35260
682.1780, 14.93567
683.3360, 16.61090
684.4940, 17.24847
685.6520, 15.74695
686.8090, 0.3021850
687.9670, 5.830566
689.1240, 11.70190
690.2810, 3.746155
691.4380, 1.208374
692.5950, 20.63196
693.7520, 27.04791
694.9080, 3.456360
696.0650, 13.85272
697.2210, 4.239990
698.3770, 1.384521
699.5330, 4.951111
700.6880, 11.76477
701.8440, 45.06470
702.9990, 9.396545
704.1550, 8.248718
705.3100, 25.85272
706.4650, 36.14624
707.6190, 36.42090
708.7740, 29.69928
709.9290, 43.23840
711.0830, 1.501404
712.2370, 22.74963
713.3910, 2.011353
714.5450, 39.60901
715.6980, 66.82373
716.8520, 43.03094
718.0050, 34.23059
719.1580, 72.42224
720.3110, 63.60645
721.4640, 113.7830
722.6170, 44.95209
723.7700, 107.1136
724.9220, 61.26746
726.0740, 90.41382
727.2260, 98.41486
728.3780, 94.54590
729.5300, 116.6692
730.6810, 104.7848
731.8330, 122.8927
732.9840, 119.9929
734.1350, 135.0853
735.2860, 143.1700
736.4370, 150.2469
737.5880, 137.3163
738.7380, 127.3778
739.8880, 139.4316
741.0390, 153.4777
742.1890, 112.9187
743.3380, 134.9493
744.4880, 128.9722
745.6380, 146.9873
746.7870, 132.9948
747.9360, 136.9944
749.0850, 125.9863
750.2340, 84.97052
751.3830, 107.9470
752.5310, 79.12286
753.6800, 114.8769
754.8280, 69.83032
755.9760, 70.77600
757.1240, 105.7141
758.2720, 73.64453
759.4190, 66.56726
760.5670, 71.48236
761.7140, 74.38983
762.8610, 77.28973
764.0080, 81.18201
765.1550, 75.31970
766.3020, 93.89990
767.4480, 57.76923
768.5950, 60.47894
769.7410, 43.33301
770.8870, 51.76410
772.0330, 77.56189
773.1780, 71.39288
774.3240, 70.20068
775.4690, 55.01654
776.6140, 59.82477
777.7590, 46.93335
778.9040, 59.41846
780.0490, 31.20392
781.1940, 9.969788
782.3380, 9.715454
783.4820, 44.47003
784.6260, 25.19287
785.7700, 56.93097
786.9140, 49.58862
788.0580, 22.04974
789.2010, 41.19073
790.3450, 51.89410
791.4880, 9.929443
792.6310, 75.32617
793.7730, 31.62366
794.9160, 25.94769
796.0590, 1.067261
797.2010, 48.95544
798.3430, 60.21686
799.4850, 25.74231
800.6270, 38.57001
801.7690, 46.74176
802.9100, 13.00543
804.0520, 54.68323
805.1930, 2.488831
806.3340, 15.19934
807.4750, 10.17389
808.6160, 32.46814
809.7560, 25.76703
810.8970, 0.8272710
812.0370, 8.067261
813.1770, 18.56885
814.3170, 15.53192
815.4570, 7.989380
816.5960, 12.91461
817.7360, 7.801392
818.8750, 17.90204
820.0140, 28.42548
821.1530, 0.7735600
822.2920, 14.87640
823.4310, 5.421448
824.5690, 6.199280
825.7070, 18.22742
826.8460, 21.23212
827.9840, 6.162170
829.1220, 18.95807
830.2590, 8.285889
831.3970, 19.67743
832.5340, 33.56183
833.6710, 27.74994
834.8080, 9.651672
835.9450, 17.76166
837.0820, 9.879822
838.2190, 17.99365
839.3550, 18.58319
840.4910, 0.4520260
841.6270, 16.42365
842.7630, 9.851624
843.8990, 19.79498
845.0350, 11.54309
846.1700, 8.174500
847.3060, 30.17450
848.4410, 8.695801
849.5760, 27.85632
850.7100, 11.84924
851.8450, 35.46997
852.9800, 64.79944
854.1140, 32.12598
855.2480, 24.40527
856.3820, 27.72632
857.5160, 29.04443
858.6500, 20.35999
859.7830, 35.67285
860.9170, 20.98328
862.0500, 16.29102
863.1830, 21.40369
864.3160, 37.89136
865.4480, 5.184082
866.5810, 30.47449
867.7130, 33.76257
868.8460, 23.04871
869.9780, 9.332520
871.1100, 59.61438
872.2410, 16.89417
873.3730, 33.17188
874.5050, 3.447754
875.6360, 40.72180
876.7670, 55.99402
877.8980, 15.73560
879.0290, 35.52942
880.1590, 47.79285
881.2900, 35.05444
882.4200, 39.31470
883.5500, 43.83447
884.6800, 29.83069
885.8100, 56.08789
886.9400, 35.34436
888.0690, 45.59973
889.1990, 58.85376
890.3280, 58.10669
891.4570, 85.35938
892.5860, 119.6110
893.7140, 111.8617
894.8430, 127.1116
895.9710, 141.1953
897.1000, 144.6085
898.2280, 162.8560
899.3560, 194.1028
900.4830, 204.3490
901.6110, 246.5947
902.7380, 239.8401
903.8660, 276.0850
904.9930, 296.3306
906.1200, 312.5725
907.2460, 307.8232
908.3730, 401.0745
909.5000, 409.3254
910.6260, 454.5765
911.7520, 554.8275
912.8780, 560.0825
914.0040, 568.3376
915.1290, 631.5930
916.2550, 673.7603
917.3800, 777.5979
918.5050, 799.4337
919.6300, 789.6919
920.7550, 883.7985
921.8800, 877.0613
923.0040, 964.3250
924.1290, 1031.405
925.2530, 1097.674
926.3770, 1090.944
927.5010, 1117.856
928.6250, 1027.138
929.7480, 965.3694
930.8720, 898.5808
931.9950, 844.1902
933.1180, 777.5083
934.2410, 707.8375
935.3640, 634.1211
936.4860, 584.4624
937.6090, 584.8115
938.7310, 532.0116
939.8530, 488.3713
940.9750, 478.2079
942.0970, 382.5164
943.2180, 412.7812
944.3400, 392.1693
945.4610, 349.5603
946.5820, 294.7184
947.7030, 317.9961
948.8240, 264.3917
949.9450, 270.6587
951.0650, 216.0055
952.1860, 195.4049
953.3060, 205.7733
954.4260, 142.9873
955.5460, 137.4241
956.6650, 130.7335
957.7850, 119.1774
958.9040, 104.5593
960.0230, 124.9609
961.1420, 100.4170
962.2610, 127.8818
963.3800, 138.3296
964.4990, 95.80859
965.6170, 90.29053
966.7350, 143.7756
967.8530, 128.2659
968.9710, 129.7600
970.0890, 71.25952
971.2070, 150.7941
972.3240, 114.8441
973.4410, 142.4023
974.5580, 90.92444
975.6750, 101.4177
976.7920, 113.1541
977.9090, 147.6940
979.0250, 141.2483
980.1410, 110.7948
981.2580, 118.0762
982.3740, 137.6296
983.4890, 127.1902
984.6050, 164.7549
985.7200, 159.9303
986.8360, 179.5072
987.9510, 156.0875
989.0660, 165.6715
990.1810, 150.2593
991.2950, 197.8508
992.4100, 182.4462
993.5240, 137.0452
994.6390, 207.6476
995.7530, 172.2539
996.8660, 192.8638
997.9800, 176.6173
999.0940, 197.2406
1000.207, 157.8677
1001.320, 213.4985
1002.433, 239.1332
1003.546, 186.7720
1004.659, 157.4144
1005.772, 179.0608
1006.884, 174.7114
1007.996, 159.3662
1009.108, 157.0249
1010.220, 177.6875
1011.332, 171.6682
1012.444, 170.6222
1013.555, 174.2970
1014.666, 167.9757
1015.777, 147.6589
1016.888, 127.3488
1017.999, 177.0442
1019.110, 146.9896
1020.220, 111.7950
1021.331, 172.5029
1022.441, 125.2148
1023.551, 125.9308
1024.661, 193.8081
1025.770, 158.5325
1026.880, 165.2612
1027.989, 162.9941
1029.098, 152.7314
1030.207, 185.4797
1031.316, 138.2324
1032.425, 141.9893
1033.533, 178.7504
1034.642, 99.51587
1035.750, 164.2855
1036.858, 173.0593
1037.966, 175.8395
1039.073, 166.6237
1040.181, 183.2271
1041.288, 160.1025
1042.396, 127.8995
1043.503, 139.7008
1044.610, 178.5062
1045.716, 128.2284
1046.823, 166.0437
1047.929, 158.3582
1049.036, 152.4711
1050.142, 146.8193
1051.248, 175.6536
1052.353, 143.4938
1053.459, 198.1196
1054.564, 131.9689
1055.670, 130.8220
1056.775, 94.67957
1057.880, 94.44104
1058.985, 147.4246
1060.089, 123.2952
1061.194, 127.6339
1062.298, 166.6877
1063.402, 136.6598
1064.506, 175.2552
1065.610, 155.1509
1066.713, 167.0504
1067.817, 133.2632
1068.920, 151.0021
1070.023, 151.9125
1071.126, 170.8265
1072.229, 219.1008
1073.332, 112.0226
1074.435, 103.3584
1075.537, 147.2897
1076.639, 138.2249
1077.741, 119.1635
1078.843, 128.1052
1079.945, 118.0518
1081.046, 108.0018
1082.148, 177.9554
1083.249, 101.9171
1084.350, 161.8824
1085.451, 116.8510
1086.551, 109.8229
1087.652, 109.8033
1088.752, 118.7870
1089.853, 117.7742
1090.953, 84.76892
1092.053, 136.7671
1093.152, 45.76843
1094.252, 111.7728
1095.351, 119.5485
1096.451, 124.5588
1097.550, 101.5723
1098.649, 85.58838
1099.748, 110.6074
1100.846, 42.62927
1101.945, 94.65405
1103.043, 85.44788
1104.141, 70.48242
1105.239, 108.5219
1106.337, 100.5684
1107.434, 103.6173
1108.532, 71.66931
1109.629, 78.72742
1110.726, 95.78821
1111.823, 93.85608
1112.920, 140.9265
1114.017, 163.0009
1115.113, 172.0778
1116.210, 259.1570
1117.306, 336.3328
1118.402, 480.4187
1119.498, 498.5073
1120.593, 584.5981
1121.689, 611.6912
1122.784, 704.8441
1123.879, 691.9419
1124.974, 679.0420
1126.069, 606.1445
1127.164, 518.2495
1128.259, 424.0515
1129.353, 331.3092
1130.447, 208.8998
1131.541, 140.0171
1132.635, 97.13647
1133.729, 28.25793
1134.822, 21.38123
1135.916, 26.50647
1137.009, 36.63379
1138.102, 33.79773
1139.195, 49.96533
1140.288, 65.09851
1141.380, 31.23352
1142.473, 54.37036
1143.565, 32.50903
1144.657, 30.65149
1145.749, 7.795532
1146.841, 16.98645
1147.932, 0.9294430
1149.024, 18.17468
1150.115, 8.674683
1151.206, 4.524902
1152.297, 17.62549
1153.388, 24.77722
1154.479, 17.93066
1155.569, 5.914673
1156.659, 1.240112
1157.750, 1.430908
1158.839, 4.588257
1159.929, 6.747070
1161.019, 11.68408
1162.108, 11.73047
1163.198, 14.89563
1164.287, 13.95215
1165.376, 5.229614
1166.465, 18.39832
1167.553, 1.568115
1168.642, 6.136230
1169.730, 11.30811
1170.818, 17.51929
1171.906, 2.352783
1172.994, 13.81360
1174.082, 3.980835
1175.170, 27.14893
1176.257, 18.36731
1177.344, 35.79480
1178.431, 25.95740
1179.518, 6.879028
1180.605, 3.282349
1181.691, 17.44434
1182.778, 35.60693
1183.864, 15.22974
1184.950, 43.92712
1186.036, 8.084473
1187.122, 39.24268
1188.207, 12.42261
1189.292, 0.5817870
1190.378, 2.740967
1191.463, 25.09937
1192.548, 2.934570
1193.632, 34.78857
1194.717, 12.66028
1195.801, 25.46204
1196.886, 13.58459
1197.970, 5.292603
1199.054, 14.17236
1200.137, 2.940552
1201.221, 14.05359
1202.305, 5.833008
1203.388, 18.27686
1204.471, 6.612915
1205.554, 27.49377
1206.637, 12.60034
1207.719, 30.71533
1208.802, 30.82214
1209.884, 35.93872
1210.966, 33.04553
1212.048, 24.15222
1213.130, 19.25903
1214.212, 54.36560
1215.293, 12.47217
1216.374, 43.57861
1217.456, 57.68481
1218.536, 11.79065
1219.617, 27.89673
1220.698, 15.00244
1221.778, 13.10803
1222.859, 12.21350
1223.939, 14.98950
1225.019, 10.57056
1226.099, 23.53479
1227.178, 45.64014
1228.258, 37.74487
1229.337, 18.84949
1230.417, 19.95618
1231.496, 40.05981
1232.574, 9.836670
1233.653, 25.25964
1234.732, 7.355591
1235.810, 39.45105
1236.888, 38.54614
1237.966, 45.64600
1239.044, 46.74500
1240.122, 35.84363
1241.199, 41.04724
1242.277, 39.07849
1243.354, 44.17505
1244.431, 38.27075
1245.508, 49.36584
1246.585, 2.460205
1247.661, 37.55273
1248.738, 25.66431
1249.814, 44.75610
1250.890, 7.846924
1251.966, 3.937012
1253.042, 11.02539
1254.117, 22.11328
1255.193, 34.27637
1256.268, 17.36230
1257.343, 10.44739
1258.418, 3.468506
1259.493, 8.389648
1260.567, 17.68091
1261.642, 25.75073
1262.716, 22.81946
1263.790, 48.88708
1264.864, 27.95374
1265.938, 33.01929
1267.011, 6.083740
1268.085, 6.146729
1269.158, 24.26733
1270.231, 44.32812
1271.304, 26.38794
1272.377, 11.44653
1273.450, 9.504028
1274.522, 54.56042
1275.594, 6.615479
1276.666, 3.331055
1277.738, 0.7160640
1278.810, 62.75891
1279.882, 38.55444
1280.953, 51.49304
1282.025, 19.53198
1283.096, 18.56946
1284.167, 36.60559
1285.238, 26.48340
1286.308, 7.516724
1287.379, 53.54822
1288.449, 17.57837
1289.519, 20.39319
1290.589, 52.64502
1291.659, 23.27246
1292.729, 38.28247
1293.798, 47.29089
1294.868, 71.29785
1295.937, 18.30322
1297.006, 0.3084720
1298.075, 64.30847
1299.143, 28.30701
1300.212, 62.48901
1301.280, 42.40161
1302.348, 41.39539
1303.416, 25.38757
1304.484, 1.444824
1305.552, 51.53418
1306.620, 18.51880
1307.687, 36.50171
1308.754, 26.17871
1309.821, 31.15857
1310.888, 53.13770
1311.955, 49.11511
1313.021, 41.32727
1314.088, 48.30151
1315.154, 40.30261
1316.220, 8.274048
1317.286, 51.24353
1318.352, 71.19543
1319.417, 44.16187
1320.483, 7.664063
1321.548, 28.45386
1322.613, 51.32642
1323.678, 28.57898
1324.743, 43.53723
1325.807, 16.50537
1326.872, 38.15198
1327.936, 23.27563
1329.000, 26.23035
1330.064, 79.18396
1331.128, 46.78064
1332.191, 63.73254
1333.255, 21.28442
1334.318, 20.23474
1335.381, 7.184204
1336.444, 9.384644
1337.507, 7.105591
1338.569, 32.05237
1339.632, 41.99829
1340.694, 50.94324
1341.756, 22.88733
1342.818, 45.83044
1343.880, 64.77283
1344.941, 25.71411
1346.003, 79.65442
1347.064, 59.59802
1348.125, 70.57080
1349.186, 39.55176
1350.247, 32.48804
1351.308, 48.14087
1352.368, 43.11377
1353.428, 16.33142
1354.489, 47.35730
1355.549, 58.28845
1356.608, 36.21863
1357.668, 12.14783
1358.727, 44.07617
1359.787, 58.10925
1360.846, 35.26904
1361.905, 23.19421
1362.964, 64.19360
1364.022, 63.11719
1365.081, 34.30994
1366.139, 29.23181
1367.197, 23.15295
1368.255, 6.073242
1369.313, 38.00146
1370.371, 74.91980
1371.428, 37.83313
1372.486, 41.77539
1373.543, 61.68726
1374.600, 30.50439
1375.657, 10.56689
1376.713, 72.53540
1377.770, 33.44385
1378.826, 46.35181
1379.882, 43.20178
1380.938, 30.13440
1381.994, 4.040405
1383.050, 38.98608
1384.106, 59.89050
1385.161, 38.79443
1386.216, 35.25610
1387.271, 29.34290
1388.326, 66.24536
1389.381, 46.14771
1390.435, 52.04968
1391.490, 20.95117
1392.544, 33.85242
1393.598, 29.75317
1394.652, 36.61865
1395.705, 4.602539
1396.759, 49.50208
1397.812, 42.40149
1398.866, 24.30029
1399.919, 54.19836
1400.972, 71.08765
1402.024, 46.96350
1403.077, 43.85583
1404.129, 50.16003
1405.181, 39.71167
1406.233, 66.58289
1407.285, 24.43835
1408.337, 61.29321
1409.389, 32.14709
1410.440, 16.99976
1411.491, 33.85107
1412.542, 31.69983
1413.593, 17.51160
1414.644, 35.35706
1415.695, 33.20081
1416.745, 9.380615
1417.795, 7.769165
1418.845, 18.06567
1419.895, 32.89893
1420.945, 26.73047
1421.995, 52.56006
1423.044, 47.72839
1424.093, 25.15369
1425.142, 18.97412
1426.191, 55.79138
1427.240, 63.61023
1428.289, 30.42822
1429.337, 28.24475
1430.385, 3.060181
1431.433, 12.55969
1432.481, 31.37671
1433.529, 36.19214
1434.577, 25.00671
1435.624, 38.82190
1436.672, 42.83301
1437.719, 49.63049
1438.766, 12.42664
1439.812, 50.22827
1440.859, 10.06055
1441.905, 47.89331
1442.952, 23.68884
1443.998, 42.48083
1445.044, 42.28540
1446.090, 26.03613
1447.135, 22.90283
1448.181, 62.33594
1449.226, 44.25525
1450.271, 37.17651
1451.316, 15.10327
1452.361, 20.03296
1453.405, 29.96497
1454.450, 21.90027
1455.494, 21.82581
1456.538, 31.74854
1457.582, 43.68103
1458.626, 16.61279
1459.670, 50.54370
1460.713, 44.47388
1461.757, 23.40283
1462.800, 13.32727
1463.843, 40.24597
1464.886, 50.16162
1465.928, 32.07349
1466.971, 29.98682
1468.013, 30.90686
1469.055, 37.82568
1470.097, 35.73071
1471.139, 53.58606
1472.181, 19.48853
1473.222, 12.39001
1474.263, 10.38342
1475.305, 41.16589
1476.346, 8.936157
1477.386, 11.96167
1478.427, 14.24255
1479.468, 3.652100
1480.508, 34.55615
1481.548, 29.46460
1482.588, 62.37268
1483.628, 35.28015
1484.668, 3.104492
1485.707, 30.01013
1486.747, 42.91528
1487.786, 6.820190
1488.825, 22.72925
1489.864, 17.35327
1490.902, 23.56519
1491.941, 29.48462
1492.979, 39.40515
1494.017, 21.32776
1495.055, 47.22266
1496.093, 55.16943
1497.131, 16.10632
1498.168, 41.04297
1499.206, 36.98584
1500.243, 0.9315190
1501.280, 9.880127
1502.317, 25.69067
1503.354, 54.64893
1504.390, 41.61060
1505.426, 18.57300
1506.463, 38.50610
1507.499, 15.42163
1508.535, 52.39490
1509.570, 55.07935
1510.606, 11.35925
1511.641, 73.35034
1512.676, 62.32019
1513.711, 49.31348
1514.746, 32.30835
1515.781, 42.28491
1516.816, 35.28223
1517.850, 35.22412
1518.884, 38.22388
1519.918, 6.226074
1520.952, 42.23047
1521.986, 33.23840
1523.019, 52.15259
1524.053, 32.05444
1525.086, 39.08423
1526.119, 83.98108
1527.152, 10.88977
1528.185, 72.79712
1529.217, 49.95056
1530.250, 49.35449
1531.282, 46.12659
1532.314, 42.91528
1533.346, 38.04871
1534.377, 43.45117
1535.409, 28.14001
1536.440, 40.38831
1537.472, 43.92737
1538.503, 26.65723
1539.534, 40.27246
1540.564, 61.80603
1541.595, 21.22693
1542.625, 44.85974
1543.656, 32.46387
1544.686, 44.03662
1545.716, 51.57520
1546.745, 3.513184
1547.775, 24.91479
1548.804, 64.33972
1549.834, 29.55872
1550.863, 80.07617
1551.892, 79.66980
1552.920, 116.3417
1553.949, 113.9994
1554.977, 113.6804
1556.006, 98.35938
1557.034, 57.96240
1558.062, 31.66040
1559.089, 26.37048
1560.117, 1.404297
1561.144, 37.11633
1562.172, 24.63635
1563.199, 23.10999
1564.226, 15.50964
1565.252, 14.94019
1566.279, 11.53516
1567.305, 16.36194
1568.332, 10.19324
1569.358, 16.73230
1570.384, 9.7534001E-02
1571.409, 0.0000000E+00
##END=



