##NAMES=Creedite
##RRUFFID=R050141
##IDEAL CHEMISTRY=Ca_3_Al_2_(S^6+^O_4_)(OH)_2_F_8_&#183;2H_2_O
##LOCALITY=Mina de Navidad, Rodeo, Durango, Mexico
##OWNER=RRUFF
##SOURCE=Dave Bunk Minerals
##DESCRIPTION=Radiating group of bladed crystals
##STATUS=The identification of this mineral has been confirmed by X-ray diffraction and chemical analysis
##URL=rruff.info/R050141
##MEASURED CHEMISTRY=Ca_3.00_Al_2.00_(S_1.00_O_4_)(OH)_2_(F_7.31_(OH)_0.69_)_Σ=8_·2H_2_O ; OH estimated by stoichiometry and charge balance OH=10-F
##PIN_ID=L00255
##ORIENTATION=Laser parallel to a* (1 0 0). Fiducial mark perpendicular to laser is parallel to b [0 1 0]
101.812, 0.000
103.206, 1.187
104.600, 88.904
105.994, 6.315
107.387, 149.482
108.781, 127.309
110.174, 294.005
111.566, 369.570
112.959, 260.190
114.351, 296.960
115.744, 142.721
117.136, 227.124
118.527, 228.226
119.919, 245.364
121.310, 247.558
122.701, 314.269
124.092, 497.526
125.482, 557.828
126.873, 873.858
128.263, 919.868
129.653, 1704.938
131.042, 2190.913
132.432, 2373.882
133.821, 2246.885
135.210, 1201.528
136.599, 885.650
137.987, 471.810
139.376, 392.066
140.764, 294.129
142.152, 213.368
143.539, 236.137
144.927, 87.194
146.314, 170.179
147.701, 119.707
149.088, 195.677
150.474, 69.131
151.861, 176.122
153.247, 109.701
154.633, 13.113
156.018, 97.152
157.404, 2.416
158.789, 6.750
160.174, 23.679
161.559, 33.643
162.943, 67.369
164.327, 15.404
165.711, 62.888
167.095, 37.776
168.479, 157.929
169.862, 194.580
171.246, 213.044
172.628, 419.304
174.011, 366.537
175.394, 411.225
176.776, 353.534
178.158, 320.818
179.540, 407.285
180.922, 225.367
182.303, 317.623
183.684, 321.486
185.065, 620.635
186.446, 727.998
187.826, 1146.622
189.207, 1493.381
190.587, 1818.457
191.967, 2310.782
193.346, 1775.164
194.726, 1465.836
196.105, 984.621
197.484, 685.655
198.862, 672.911
200.241, 447.841
201.619, 565.572
202.997, 374.989
204.375, 491.379
205.753, 382.722
207.130, 355.493
208.507, 373.157
209.884, 286.490
211.261, 433.318
212.638, 422.213
214.014, 557.330
215.390, 671.530
216.766, 719.958
218.141, 713.079
219.517, 408.724
220.892, 435.968
222.267, 305.603
223.642, 266.822
225.016, 200.155
226.391, 140.614
227.765, 147.842
229.139, 32.002
230.512, 101.109
231.886, 9.171
233.259, 86.432
234.632, 13.140
236.005, 16.681
237.377, 43.468
238.749, 56.414
240.122, 86.674
241.493, 3.090
242.865, 10.240
244.237, 35.602
245.608, 30.597
246.979, 51.985
248.350, 16.852
249.720, 110.172
251.090, 11.006
252.461, 48.674
253.830, 132.251
255.200, 8.235
256.570, 116.573
257.939, 11.726
259.308, 23.001
260.677, 12.617
262.045, 23.446
263.414, 8.351
264.782, 136.739
266.150, 27.988
267.517, 46.706
268.885, 59.441
270.252, 6.336
271.619, 60.305
272.986, 6.625
274.353, 19.537
275.719, 1.192
277.085, 22.815
278.451, 33.331
279.817, 147.741
281.182, 36.040
282.548, 163.215
283.913, 87.268
285.278, 260.206
286.642, 217.038
288.007, 198.772
289.371, 321.391
290.735, 165.908
292.099, 292.315
293.462, 212.553
294.826, 186.646
296.189, 260.595
297.552, 181.368
298.914, 202.996
300.277, 118.536
301.639, 213.011
303.001, 146.430
304.363, 145.792
305.724, 210.096
307.086, 141.340
308.447, 213.524
309.808, 176.146
311.168, 310.057
312.529, 265.684
313.889, 185.561
315.249, 333.719
316.609, 230.385
317.969, 245.714
319.328, 147.487
320.687, 83.624
322.046, 118.927
323.405, 49.663
324.764, 104.800
326.122, 39.968
327.480, 72.583
328.838, 71.779
330.196, 5.213
331.553, 122.185
332.910, 1.004
334.267, 82.834
335.624, 43.592
336.981, 60.502
338.337, 113.354
339.693, 7.132
341.049, 121.858
342.405, 33.543
343.760, 123.171
345.116, 68.464
346.471, 40.962
347.826, 185.326
349.180, 64.620
350.535, 158.829
351.889, 117.961
353.243, 138.036
354.597, 136.076
355.950, 62.088
357.304, 222.074
358.657, 153.045
360.010, 174.000
361.362, 175.936
362.715, 159.854
364.067, 265.755
365.419, 102.635
366.771, 299.496
368.123, 217.338
369.474, 296.163
370.825, 391.971
372.176, 253.765
373.527, 439.387
374.877, 277.150
376.228, 331.893
377.578, 247.616
378.928, 147.326
380.277, 288.013
381.627, 118.698
382.976, 223.363
384.325, 102.010
385.674, 169.612
387.023, 213.039
388.371, 76.194
389.719, 206.089
391.067, 110.009
392.415, 204.746
393.762, 223.337
395.110, 118.327
396.457, 262.801
397.804, 141.104
399.150, 186.732
400.497, 269.772
401.843, 199.983
403.189, 333.507
404.535, 188.128
405.881, 286.510
407.226, 62.501
408.571, 179.425
409.916, 163.653
411.261, 66.574
412.605, 131.326
413.950, 45.895
415.294, 109.119
416.638, 76.964
417.981, 9.410
419.325, 152.376
420.668, 19.141
422.011, 110.812
423.354, 42.595
424.697, 78.441
426.039, 107.253
427.381, 15.958
428.723, 137.121
430.065, 48.573
431.406, 164.216
432.748, 182.180
434.089, 196.745
435.430, 360.376
436.770, 273.476
438.111, 523.866
439.451, 632.714
440.791, 810.675
442.131, 950.352
443.471, 748.312
444.810, 912.014
446.149, 766.373
447.488, 923.443
448.827, 993.314
450.166, 847.092
451.504, 1040.134
452.842, 762.741
454.180, 892.750
455.518, 885.522
456.855, 892.172
458.193, 1238.359
459.530, 1147.963
460.867, 1494.646
462.203, 1372.966
463.540, 1282.671
464.876, 1340.089
466.212, 1046.494
467.548, 1175.160
468.883, 875.529
470.219, 940.192
471.554, 994.692
472.889, 857.531
474.224, 1279.360
475.558, 1145.890
476.892, 1665.703
478.227, 1847.412
479.561, 2209.191
480.894, 3058.573
482.228, 2973.686
483.561, 3968.959
484.894, 3525.895
486.227, 3056.130
487.559, 2874.046
488.892, 1861.174
490.224, 1799.321
491.556, 1311.984
492.888, 998.347
494.220, 942.928
495.551, 504.123
496.882, 670.135
498.213, 432.239
499.544, 464.563
500.874, 448.289
502.205, 319.649
503.535, 442.599
504.865, 221.967
506.194, 316.108
507.524, 324.137
508.853, 227.771
510.182, 354.902
511.511, 172.430
512.840, 363.792
514.168, 287.240
515.496, 302.685
516.824, 439.825
518.152, 317.575
519.480, 572.104
520.807, 487.726
522.134, 511.360
523.461, 708.934
524.788, 630.679
526.114, 1004.023
527.441, 900.984
528.767, 1147.724
530.093, 1293.475
531.418, 1239.299
532.744, 1535.046
534.069, 1091.825
535.394, 1293.575
536.719, 1120.760
538.044, 886.630
539.368, 926.226
540.693, 586.709
542.017, 703.196
543.340, 523.940
544.664, 425.603
545.987, 590.317
547.311, 283.298
548.634, 503.636
549.956, 281.001
551.279, 308.775
552.601, 403.532
553.923, 144.377
555.245, 326.065
556.567, 161.643
557.889, 199.057
559.210, 215.948
560.531, 51.784
561.852, 190.638
563.173, 68.545
564.493, 149.646
565.813, 206.538
567.133, 100.203
568.453, 273.111
569.773, 148.022
571.092, 262.811
572.412, 202.757
573.731, 109.360
575.049, 251.237
576.368, 65.987
577.686, 151.356
579.005, 151.334
580.323, 72.006
581.640, 210.966
582.958, 66.653
584.275, 244.660
585.593, 105.686
586.909, 161.124
588.226, 330.218
589.543, 158.139
590.859, 406.276
592.175, 341.422
593.491, 526.592
594.807, 729.768
596.122, 671.956
597.438, 950.175
598.753, 951.377
600.068, 955.584
601.382, 1133.792
602.697, 872.003
604.011, 1014.216
605.325, 687.431
606.639, 530.647
607.952, 478.862
609.266, 180.079
610.579, 313.295
611.892, 130.512
613.205, 99.729
614.518, 198.952
615.830, 10.823
617.142, 188.398
618.454, 15.624
619.766, 186.850
621.078, 189.078
622.389, 93.308
623.700, 331.539
625.011, 252.773
626.322, 452.008
627.632, 666.244
628.943, 849.481
630.253, 1143.610
631.563, 875.849
632.872, 743.217
634.182, 476.517
635.491, 306.757
636.800, 334.140
638.109, 158.380
639.418, 162.622
640.726, 156.362
642.035, 145.608
643.343, 250.326
644.651, 110.577
645.958, 226.831
647.266, 226.730
648.573, 69.989
649.880, 324.421
651.187, 55.685
652.494, 213.954
653.800, 113.891
655.106, 83.164
656.412, 176.476
657.718, 23.752
659.024, 153.032
660.329, 144.730
661.634, 58.014
662.939, 242.299
664.244, 26.585
665.549, 149.873
666.853, 139.264
668.157, 71.553
669.461, 223.843
670.765, 35.133
672.069, 182.423
673.372, 112.819
674.675, 68.112
675.978, 200.402
677.281, 65.693
678.583, 204.983
679.886, 183.043
681.188, 86.332
682.490, 178.619
683.792, 2.953
685.093, 171.331
686.394, 79.042
687.696, 17.323
688.997, 83.601
690.297, 29.710
691.598, 107.985
692.898, 7.709
694.198, 40.385
695.498, 134.860
696.798, 81.718
698.097, 68.484
699.397, 40.684
700.696, 23.115
701.995, 115.072
703.293, 72.119
704.592, 45.026
705.890, 9.812
707.188, 22.585
708.486, 90.539
709.784, 18.034
711.081, 19.075
712.378, 46.818
713.675, 28.634
714.972, 23.428
716.269, 47.898
717.565, 91.131
718.862, 35.157
720.158, 16.081
721.453, 178.927
722.749, 12.934
724.045, 58.059
725.340, 93.047
726.635, 27.925
727.930, 109.905
729.224, 57.882
730.519, 68.857
731.813, 107.827
733.107, 25.097
734.401, 175.851
735.694, 16.206
736.988, 100.722
738.281, 107.646
739.574, 33.634
740.867, 163.550
742.160, 59.461
743.452, 116.679
744.744, 186.583
746.036, 90.542
747.328, 225.436
748.620, 107.324
749.911, 200.207
751.202, 191.084
752.493, 59.956
753.784, 250.047
755.075, 85.907
756.365, 158.776
757.655, 268.637
758.945, 98.493
760.235, 308.343
761.525, 175.188
762.814, 244.028
764.103, 343.861
765.392, 184.688
766.681, 368.512
767.969, 207.330
769.258, 268.353
770.546, 293.159
771.834, 224.719
773.122, 288.880
774.409, 192.667
775.697, 180.547
776.984, 222.322
778.271, 81.091
779.558, 205.954
780.844, 98.710
782.131, 114.460
783.417, 201.223
784.703, 13.040
785.989, 227.711
787.274, 39.418
788.560, 56.119
789.845, 236.812
791.130, 16.501
792.415, 168.221
793.699, 128.876
794.983, 12.525
796.268, 169.162
797.552, 21.207
798.835, 168.396
800.119, 75.992
801.402, 9.603
802.686, 215.202
803.969, 30.794
805.251, 122.378
806.534, 109.956
807.816, 9.527
809.098, 232.085
810.380, 62.636
811.662, 111.181
812.944, 141.710
814.225, 16.241
815.506, 220.762
816.787, 101.275
818.068, 134.782
819.349, 217.280
820.629, 46.774
821.909, 159.260
823.189, 90.739
824.469, 94.211
825.749, 229.677
827.028, 46.136
828.307, 206.587
829.586, 119.031
830.865, 83.469
832.144, 201.900
833.422, 8.324
834.700, 138.734
835.978, 97.138
837.256, 37.534
838.534, 193.705
839.811, 18.913
841.088, 146.441
842.365, 140.713
843.642, 7.053
844.919, 167.350
846.195, 62.670
847.472, 56.547
848.748, 82.730
850.023, 26.028
851.299, 153.583
852.575, 82.867
853.850, 63.146
855.125, 156.182
856.400, 6.449
857.674, 164.469
858.949, 54.719
860.223, 36.346
861.497, 249.305
862.771, 8.462
864.045, 124.674
865.318, 69.786
866.591, 28.197
867.864, 171.696
869.137, 48.189
870.410, 87.962
871.682, 92.116
872.955, 51.786
874.227, 243.110
875.499, 10.782
876.770, 90.224
878.042, 236.312
879.313, 71.603
880.584, 143.313
881.855, 55.347
883.126, 131.376
884.396, 172.401
885.667, 11.578
886.937, 198.379
888.207, 68.381
889.476, 115.858
890.746, 229.853
892.015, 61.157
893.284, 85.672
894.553, 122.620
895.822, 17.453
897.090, 133.476
898.359, 24.401
899.627, 170.322
900.895, 186.241
902.163, 39.155
903.430, 213.066
904.698, 45.974
905.965, 0.854
907.232, 142.753
908.499, 38.666
909.765, 115.558
911.032, 99.445
912.298, 113.518
913.564, 161.401
914.830, 37.281
916.095, 143.157
917.361, 91.030
918.626, 93.570
919.891, 220.438
921.156, 16.698
922.420, 167.154
923.685, 106.003
924.949, 2.150
926.213, 200.690
927.477, 11.528
928.740, 97.374
930.004, 211.218
931.267, 10.058
932.530, 193.896
933.793, 80.732
935.056, 28.566
936.318, 296.396
937.581, 22.334
938.843, 221.160
940.104, 144.853
941.366, 32.613
942.628, 246.432
943.889, 13.106
945.150, 160.919
946.411, 214.738
947.672, 90.057
948.932, 205.888
950.193, 125.232
951.453, 94.043
952.713, 326.905
953.973, 119.071
955.232, 315.878
956.491, 198.514
957.751, 178.317
959.010, 338.120
960.268, 260.253
961.527, 315.052
962.785, 320.822
964.044, 229.626
965.302, 508.429
966.559, 408.813
967.817, 459.614
969.075, 663.413
970.332, 436.210
971.589, 731.006
972.846, 763.700
974.102, 749.495
975.359, 1170.288
976.615, 1038.081
977.871, 1638.873
979.127, 1901.559
980.383, 2270.349
981.638, 3622.138
982.893, 4720.929
984.149, 8303.717
985.404, 14098.732
986.658, 20414.525
987.913, 29470.320
989.167, 23135.971
990.421, 15131.761
991.675, 10015.125
992.929, 5176.917
994.183, 3878.709
995.436, 2645.670
996.689, 1711.472
997.942, 1717.241
999.195, 1110.986
1000.448, 1078.813
1001.700, 957.461
1002.952, 545.310
1004.204, 876.220
1005.456, 416.126
1006.708, 456.042
1007.959, 475.333
1009.210, 262.267
1010.461, 358.208
1011.712, 388.078
1012.963, 199.043
1014.213, 434.704
1015.464, 130.676
1016.714, 279.649
1017.964, 273.531
1019.214, 11.525
1020.463, 279.921
1021.712, 175.946
1022.962, 137.971
1024.210, 292.259
1025.459, 58.292
1026.708, 251.192
1027.956, 222.233
1029.204, 123.274
1030.452, 247.424
1031.700, 25.469
1032.948, 187.514
1034.195, 223.562
1035.442, 18.611
1036.689, 291.553
1037.936, 112.623
1039.183, 194.694
1040.429, 243.773
1041.676, 80.854
1042.922, 192.868
1044.168, 144.974
1045.413, 41.082
1046.659, 293.881
1047.904, 81.009
1049.149, 118.078
1050.394, 236.210
1051.639, 53.402
1052.884, 182.537
1054.128, 81.672
1055.372, 4.810
1056.616, 159.722
1057.860, 69.120
1059.104, 136.999
1060.347, 120.120
1061.590, 10.541
1062.833, 169.581
1064.076, 88.713
1065.319, 22.845
1066.561, 202.979
1067.803, 25.744
1069.046, 194.388
1070.287, 157.521
1071.529, 9.788
1072.771, 275.927
1074.012, 80.068
1075.253, 162.966
1076.494, 277.109
1077.735, 82.958
1078.975, 310.114
1080.216, 376.270
1081.456, 524.646
1082.696, 494.807
1083.936, 290.968
1085.175, 537.113
1086.415, 653.278
1087.654, 310.417
1088.893, 553.592
1090.132, 262.768
1091.371, 241.140
1092.609, 383.319
1093.847, 29.447
1095.085, 203.938
1096.323, 215.128
1097.561, 5.504
1098.799, 201.697
1100.036, 15.903
1101.273, 99.021
1102.510, 172.086
1103.747, 349.417
1104.983, 243.900
1106.220, 158.073
1107.456, 150.443
1108.692, 223.618
1109.928, 45.796
1111.163, 152.893
1112.399, 219.071
1113.634, 21.250
1114.869, 267.430
1116.104, 217.613
1117.339, 222.796
1118.573, 438.108
1119.808, 202.292
1121.042, 440.641
1122.276, 569.825
1123.509, 516.009
1124.743, 894.325
1125.976, 937.508
1127.210, 924.690
1128.443, 1497.155
1129.675, 1230.337
1130.908, 1860.832
1132.141, 2402.014
1133.373, 2699.194
1134.605, 4010.626
1135.837, 3862.809
1137.068, 3950.991
1138.300, 3986.412
1139.531, 2476.592
1140.762, 2299.067
1141.993, 1766.390
1143.224, 983.577
1144.455, 1164.093
1145.685, 659.282
1146.915, 530.469
1148.145, 674.765
1149.375, 255.949
1150.605, 466.774
1151.834, 392.313
1153.063, 220.565
1154.292, 478.741
1155.521, 149.139
1156.750, 273.320
1157.978, 326.885
1159.207, 70.060
1160.435, 314.256
1161.663, 229.615
1162.891, 167.786
1164.118, 378.325
1165.345, 97.522
1166.573, 211.681
1167.800, 282.834
1169.026, 67.106
1170.253, 379.882
1171.480, 564.768
1172.706, 627.854
1173.932, 382.321
1175.158, 257.486
1176.383, 344.647
1177.609, 536.062
1178.834, 355.234
1180.059, 812.401
1181.284, 949.029
1182.509, 1199.186
1183.734, 1981.456
1184.958, 1741.775
1186.182, 1715.928
1187.406, 1465.225
1188.630, 755.365
1189.854, 701.500
1191.077, 487.094
1192.301, 238.235
1193.524, 504.370
1194.747, 144.596
1195.969, 277.725
1197.192, 328.266
1198.414, 71.453
1199.636, 331.562
1200.858, 248.701
1202.080, 148.795
1203.302, 386.883
1204.523, 86.246
1205.744, 185.303
1206.966, 269.544
1208.186, 36.726
1209.407, 263.592
1210.628, 137.542
1211.848, 123.580
1213.068, 357.611
1214.288, 59.252
1215.508, 292.598
1216.727, 262.605
1217.947, 19.529
1219.166, 368.524
1220.385, 160.811
1221.604, 66.791
1222.822, 344.765
1224.041, 30.924
1225.259, 135.010
1226.477, 290.936
1227.695, 28.524
1228.913, 283.431
1230.130, 171.331
1231.348, 149.748
1232.565, 333.631
1233.782, 115.554
1234.999, 174.431
1236.215, 344.290
1237.432, 59.395
1238.648, 253.241
1239.864, 235.077
1241.080, 4.038
1242.296, 300.785
1243.511, 64.602
1244.726, 129.414
1245.942, 324.221
1247.156, 50.189
1248.371, 293.927
1249.586, 220.713
1250.800, 97.470
1252.014, 327.246
1253.228, 61.018
1254.442, 207.031
1255.656, 352.793
1256.869, 13.451
1258.083, 298.290
1259.296, 275.020
1260.509, 114.079
1261.722, 296.798
1262.934, 158.511
1264.147, 82.336
1265.359, 304.025
1266.571, 74.692
1267.783, 221.471
1268.994, 333.045
1270.206, 83.612
1271.417, 265.143
1272.628, 162.665
1273.839, 49.492
1275.050, 419.997
1276.260, 45.471
1277.471, 175.059
1278.681, 335.513
1279.891, 0.960
1281.101, 323.392
1282.310, 156.813
1283.520, 62.227
1284.729, 353.617
1285.938, 51.998
1287.147, 88.397
1288.356, 265.725
1289.564, 14.984
1290.773, 240.404
1291.981, 199.664
1293.189, 27.087
1294.397, 284.401
1295.604, 21.639
1296.812, 205.939
1298.019, 104.832
1299.226, 284.888
1300.433, 72.776
1301.640, 262.202
1302.846, 61.747
1304.053, 312.252
1305.259, 119.234
1306.465, 79.206
1307.671, 196.162
1308.876, 47.106
1310.082, 117.035
1311.287, 254.952
1312.492, 39.143
1313.697, 260.732
1314.902, 172.595
1316.106, 44.444
1317.310, 335.270
1318.515, 62.080
1319.719, 132.874
1320.922, 310.655
1322.126, 63.418
1323.329, 191.165
1324.533, 129.896
1325.736, 38.613
1326.939, 267.314
1328.141, 96.999
1329.344, 9.331
1330.546, 306.722
1331.748, 90.355
1332.950, 202.975
1334.152, 269.583
1335.354, 60.826
1336.555, 331.729
1337.757, 131.271
1338.958, 39.203
1340.159, 312.292
1341.359, 43.744
1342.560, 108.181
1343.760, 307.545
1344.960, 115.957
1346.160, 228.356
1347.360, 203.742
1348.560, 6.116
1349.759, 296.459
1350.959, 82.816
1352.158, 95.161
1353.357, 355.277
1354.555, 4.400
1355.754, 287.902
1356.952, 244.159
1358.151, 28.402
1359.349, 270.491
1360.546, 183.710
1361.744, 14.918
1362.941, 360.773
1364.139, 56.118
1365.336, 197.290
1366.533, 378.329
1367.730, 11.517
1368.926, 249.823
1370.123, 304.974
1371.319, 23.097
1372.515, 268.898
1373.711, 151.015
1374.906, 31.117
1376.102, 306.214
1377.297, 105.606
1378.492, 114.710
1379.687, 335.725
1380.882, 57.659
1382.077, 284.678
1383.271, 265.555
1384.465, 103.545
1385.659, 368.707
1386.853, 203.618
1388.047, 113.750
1389.240, 394.697
1390.434, 78.838
1391.627, 215.891
1392.820, 354.987
1394.013, 14.067
1395.205, 401.990
1396.398, 292.856
1397.590, 61.744
1398.782, 371.768
1399.974, 134.454
1401.166, 127.086
1402.357, 381.597
1403.549, 52.552
1404.740, 264.208
1405.931, 333.629
1407.122, 86.693
1408.313, 347.568
1409.503, 240.539
1410.693, 51.382
1411.883, 324.887
1413.073, 211.170
1414.263, 139.684
1415.453, 430.856
1416.642, 30.800
1417.831, 237.176
1419.020, 304.122
1420.209, 57.902
1421.398, 346.844
1422.587, 202.140
1423.775, 103.049
1424.963, 418.639
1426.151, 204.707
1427.339, 95.706
1428.526, 372.635
1429.714, 61.483
1430.901, 202.501
1432.088, 323.112
1433.275, 41.237
1434.462, 301.053
1435.648, 248.912
1436.835, 14.644
1438.021, 392.949
1439.207, 110.495
1440.393, 194.204
1441.579, 463.817
1442.764, 26.162
1443.949, 263.917
1445.135, 358.505
1446.320, 82.749
1447.504, 405.011
1448.689, 304.496
1449.873, 116.934
1451.058, 418.240
1452.242, 159.116
1453.426, 118.454
1454.609, 458.630
1455.793, 114.816
1456.976, 234.611
1458.159, 402.714
1459.342, 47.563
1460.525, 408.908
1461.708, 399.723
1462.890, 60.475
1464.073, 453.344
1465.255, 202.629
1466.437, 106.201
1467.619, 478.621
1468.800, 79.546
1469.982, 315.644
1471.163, 390.565
1472.344, 21.853
1473.525, 440.008
1474.706, 321.816
1475.886, 31.638
1477.066, 513.411
1478.247, 239.114
1479.427, 130.156
1480.607, 506.301
1481.786, 76.393
1482.966, 186.088
1484.145, 258.971
1485.324, 105.966
1486.503, 231.960
1487.682, 375.947
1488.860, 33.911
1490.039, 324.858
1491.217, 261.833
1492.395, 89.870
1493.573, 431.938
1494.751, 154.064
1495.928, 116.226
1497.106, 388.436
1498.283, 36.484
1499.460, 217.319
1500.637, 337.159
1501.814, 32.993
1502.990, 322.035
1504.166, 277.311
1505.342, 5.402
1506.518, 347.902
1507.694, 154.222
1508.870, 137.542
1510.045, 398.842
1511.221, 3.023
1512.396, 234.454
1513.571, 352.169
1514.745, 7.262
1515.920, 176.253
1517.094, 310.077
1518.269, 1.412
1519.443, 325.658
1520.616, 146.883
1521.790, 0.000
##END=



