##NAMES=Creedite
##RRUFFID=R050141
##IDEAL CHEMISTRY=Ca_3_Al_2_(S^6+^O_4_)(OH)_2_F_8_&#183;2H_2_O
##LOCALITY=Mina de Navidad, Rodeo, Durango, Mexico
##OWNER=RRUFF
##SOURCE=Dave Bunk Minerals
##DESCRIPTION=Radiating group of bladed crystals
##STATUS=The identification of this mineral has been confirmed by X-ray diffraction and chemical analysis
##URL=rruff.info/R050141
##MEASURED CHEMISTRY=Ca_3.00_Al_2.00_(S_1.00_O_4_)(OH)_2_(F_7.31_(OH)_0.69_)_Σ=8_·2H_2_O ; OH estimated by stoichiometry and charge balance OH=10-F
##PIN_ID=L00255
##ORIENTATION=Laser parallel to a* (1 0 0). Fiducial mark perpendicular to laser is parallel to b [0 1 0]
101.812, 0.000
103.206, 13.427
104.600, 130.445
105.994, 3.633
107.387, 189.403
108.781, 217.000
110.174, 429.274
111.566, 755.604
112.959, 691.802
114.351, 644.763
115.744, 251.216
117.136, 369.668
118.527, 255.383
119.919, 276.983
121.310, 309.568
122.701, 417.455
124.092, 734.873
125.482, 840.625
126.873, 1072.852
128.263, 696.256
129.653, 521.524
131.042, 377.729
132.432, 167.838
133.821, 251.225
135.210, 111.725
136.599, 230.892
137.987, 19.551
139.376, 54.480
140.764, 55.263
142.152, 6.887
143.539, 81.229
144.927, 5.545
146.314, 118.486
147.701, 79.078
149.088, 169.051
150.474, 195.452
151.861, 275.369
153.247, 290.749
154.633, 129.026
156.018, 177.811
157.404, 10.659
158.789, 47.543
160.174, 139.427
161.559, 138.868
162.943, 195.869
164.327, 209.215
165.711, 492.267
167.095, 508.982
168.479, 745.767
169.862, 864.437
171.246, 1194.191
172.628, 1821.573
174.011, 1599.574
175.394, 1656.261
176.776, 1289.305
178.158, 1243.140
179.540, 1210.803
180.922, 916.707
182.303, 1149.947
183.684, 1039.227
185.065, 1507.764
186.446, 1690.651
187.826, 2354.136
189.207, 3195.871
190.587, 3942.011
191.967, 4978.313
193.346, 3694.326
194.726, 3015.030
196.105, 1861.227
197.484, 1350.177
198.862, 1061.251
200.241, 586.554
201.619, 672.856
202.997, 345.621
204.375, 405.042
205.753, 289.228
207.130, 201.278
208.507, 268.081
209.884, 147.356
211.261, 256.578
212.638, 89.618
214.014, 197.312
215.390, 123.112
216.766, 130.713
218.141, 216.109
219.517, 48.642
220.892, 274.923
222.267, 127.829
223.642, 283.300
225.016, 295.560
226.391, 195.914
227.765, 255.524
229.139, 27.021
230.512, 184.520
231.886, 19.433
233.259, 110.918
234.632, 91.448
236.005, 34.558
237.377, 123.471
238.749, 89.268
240.122, 121.958
241.493, 11.211
242.865, 61.258
244.237, 82.882
245.608, 46.615
246.979, 114.169
248.350, 48.630
249.720, 79.431
251.090, 58.517
252.461, 3.575
253.830, 120.213
255.200, 31.934
256.570, 145.718
257.939, 22.720
259.308, 65.775
260.677, 17.208
262.045, 34.429
263.414, 80.867
264.782, 87.899
266.150, 58.252
267.517, 45.156
268.885, 15.810
270.252, 21.677
271.619, 75.126
272.986, 105.848
274.353, 22.249
275.719, 107.565
277.085, 5.299
278.451, 18.936
279.817, 142.481
281.182, 8.061
282.548, 217.300
283.913, 28.579
285.278, 167.754
286.642, 134.829
288.007, 75.779
289.371, 187.608
290.735, 63.358
292.099, 239.035
293.462, 110.640
294.826, 124.143
296.189, 160.556
297.552, 18.894
298.914, 215.161
300.277, 40.357
301.639, 231.484
303.001, 166.032
304.363, 156.712
305.724, 349.301
307.086, 184.969
308.447, 357.477
309.808, 216.893
311.168, 264.363
312.529, 352.574
313.889, 232.050
315.249, 385.459
316.609, 154.805
317.969, 276.088
319.328, 161.085
320.687, 100.198
322.046, 196.053
323.405, 33.304
324.764, 205.984
326.122, 52.565
327.480, 126.310
328.838, 107.026
330.196, 69.666
331.553, 186.226
332.910, 38.720
334.267, 216.104
335.624, 93.352
336.981, 123.520
338.337, 215.583
339.693, 46.548
341.049, 203.456
342.405, 16.297
343.760, 158.057
345.116, 172.958
346.471, 122.556
347.826, 196.052
349.180, 69.699
350.535, 304.031
351.889, 123.651
353.243, 184.841
354.597, 201.979
355.950, 120.071
357.304, 275.129
358.657, 95.025
360.010, 184.028
361.362, 213.001
362.715, 129.948
364.067, 241.858
365.419, 77.735
366.771, 225.593
368.123, 183.643
369.474, 179.249
370.825, 207.470
372.176, 89.171
373.527, 255.053
374.877, 83.460
376.228, 227.765
377.578, 191.880
378.928, 93.499
380.277, 267.163
381.627, 80.411
382.976, 312.024
384.325, 149.370
385.674, 161.965
387.023, 304.303
388.371, 90.679
389.719, 330.620
391.067, 198.798
392.415, 329.886
393.762, 359.744
395.110, 224.597
396.457, 408.981
397.804, 187.195
399.150, 345.969
400.497, 253.444
401.843, 247.824
403.189, 379.278
404.535, 156.911
405.881, 398.774
407.226, 210.900
408.571, 277.090
409.916, 299.490
411.261, 225.599
412.605, 381.713
413.950, 221.585
415.294, 365.628
416.638, 324.112
417.981, 293.432
419.325, 424.046
420.668, 294.007
422.011, 525.066
423.354, 432.330
424.697, 591.676
426.039, 689.891
427.381, 682.953
428.723, 1094.979
430.065, 978.742
431.406, 1484.331
432.748, 1740.539
434.089, 2227.388
435.430, 3538.705
436.770, 4254.849
438.111, 7329.133
439.451, 9634.977
440.791, 12541.251
442.131, 14108.653
443.471, 9943.657
444.810, 8311.326
446.149, 5049.731
447.488, 3739.165
448.827, 2943.439
450.166, 1936.312
451.504, 1972.766
452.842, 1231.506
454.180, 1285.145
455.518, 1152.227
456.855, 986.348
458.193, 1183.603
459.530, 854.714
460.867, 1156.166
462.203, 913.564
463.540, 851.052
464.876, 867.253
466.212, 519.404
467.548, 698.082
468.883, 447.331
470.219, 458.982
471.554, 476.347
472.889, 339.909
474.224, 541.535
475.558, 322.938
476.892, 496.535
478.227, 568.592
479.561, 561.159
480.894, 779.361
482.228, 582.171
483.561, 978.380
484.894, 797.632
486.227, 659.869
487.559, 762.299
488.892, 323.186
490.224, 462.984
491.556, 260.544
492.888, 285.660
494.220, 286.955
495.551, 98.182
496.882, 325.893
498.213, 80.726
499.544, 173.940
500.874, 197.299
502.205, 75.455
503.535, 194.508
504.865, 1.531
506.194, 141.489
507.524, 77.296
508.853, 3.590
510.182, 188.977
511.511, 13.654
512.840, 211.151
514.168, 53.214
515.496, 81.350
516.824, 144.145
518.152, 34.512
519.480, 178.171
520.807, 42.230
522.134, 95.412
523.461, 160.249
524.788, 39.444
526.114, 166.167
527.441, 6.600
528.767, 134.458
530.093, 120.507
531.418, 7.320
532.744, 185.360
534.069, 35.656
535.394, 172.324
536.719, 154.611
538.044, 47.753
539.368, 268.493
540.693, 0.179
542.017, 224.520
543.340, 157.832
544.664, 166.904
545.987, 330.972
547.311, 151.543
548.634, 376.322
549.956, 223.634
551.279, 229.015
552.601, 304.334
553.923, 84.719
555.245, 310.055
556.567, 172.394
557.889, 194.083
559.210, 250.448
560.531, 27.954
561.852, 346.362
563.173, 110.772
564.493, 286.618
565.813, 296.044
567.133, 203.080
568.453, 398.534
569.773, 192.990
571.092, 290.685
572.412, 240.173
573.731, 140.952
575.049, 348.457
576.368, 94.964
577.686, 211.708
579.005, 165.236
580.323, 87.030
581.640, 280.578
582.958, 51.132
584.275, 287.384
585.593, 216.971
586.909, 196.742
588.226, 366.366
589.543, 192.011
590.859, 453.681
592.175, 411.356
593.491, 495.811
594.807, 776.518
596.122, 652.239
597.438, 1038.431
598.753, 986.163
600.068, 1292.116
601.382, 1534.867
602.697, 1174.630
604.011, 1505.510
605.325, 1001.278
606.639, 791.047
607.952, 683.826
609.266, 281.607
610.579, 458.882
611.892, 190.668
613.205, 273.544
614.518, 238.333
615.830, 48.123
617.142, 391.355
618.454, 110.153
619.766, 175.952
621.078, 150.756
622.389, 58.560
623.700, 348.110
625.011, 158.917
626.322, 332.724
627.632, 369.532
628.943, 357.339
630.253, 949.813
631.563, 403.623
632.872, 517.432
634.182, 308.242
635.491, 167.050
636.800, 314.049
638.109, 4.859
639.418, 203.669
640.726, 172.586
642.035, 86.400
643.343, 299.274
644.651, 37.093
645.958, 316.916
647.266, 244.741
648.573, 230.569
649.880, 456.659
651.187, 237.491
652.494, 541.328
653.800, 447.722
655.106, 552.562
656.412, 893.462
657.718, 687.305
659.024, 1190.151
660.329, 1243.999
661.634, 1344.851
662.939, 1886.488
664.244, 1485.344
665.549, 1799.201
666.853, 1547.831
668.157, 1221.692
669.461, 1345.181
670.765, 806.044
672.069, 1041.908
673.372, 718.772
674.675, 594.639
675.978, 737.641
677.281, 406.510
678.583, 574.379
679.886, 426.315
681.188, 278.187
682.490, 432.065
683.792, 160.938
685.093, 366.599
686.394, 168.904
687.696, 211.779
688.997, 270.443
690.297, 56.357
691.598, 265.234
692.898, 684.126
694.198, 278.005
695.498, 256.884
696.798, 37.009
698.097, 221.739
699.397, 94.642
700.696, 26.505
701.995, 305.367
703.293, 0.636
704.592, 123.223
705.890, 58.083
707.188, 9.943
708.486, 233.801
709.784, 16.768
711.081, 114.078
712.378, 67.922
713.675, 3.235
714.972, 156.603
716.269, 14.250
717.565, 90.084
718.862, 60.916
720.158, 40.073
721.453, 228.734
722.749, 56.461
724.045, 171.310
725.340, 50.080
726.635, 16.332
727.930, 191.422
729.224, 81.806
730.519, 136.898
731.813, 113.600
733.107, 4.392
734.401, 203.094
735.694, 80.208
736.988, 145.443
738.281, 83.092
739.574, 3.548
740.867, 266.089
742.160, 16.722
743.452, 175.392
744.744, 86.022
746.036, 50.689
747.328, 268.312
748.620, 4.068
749.911, 196.552
751.202, 129.169
752.493, 80.136
753.784, 187.426
755.075, 28.015
756.365, 152.120
757.655, 122.678
758.945, 40.768
760.235, 271.759
761.525, 63.281
762.814, 144.661
764.103, 188.176
765.392, 13.314
766.681, 220.181
767.969, 36.672
769.258, 85.168
770.546, 161.650
771.834, 6.127
773.122, 205.690
774.409, 69.154
775.697, 93.614
776.984, 217.069
778.271, 0.520
779.558, 185.046
780.844, 59.480
782.131, 90.911
783.417, 271.336
784.703, 30.242
785.989, 239.497
787.274, 64.885
788.560, 71.270
789.845, 227.650
791.130, 37.975
792.415, 224.368
793.699, 101.580
794.983, 33.913
796.268, 271.242
797.552, 45.570
798.835, 221.893
800.119, 83.212
801.402, 82.526
802.686, 265.835
803.969, 14.148
805.251, 194.455
806.534, 136.756
807.816, 6.053
809.098, 310.340
810.380, 44.622
811.662, 235.899
812.944, 271.171
814.225, 122.448
815.506, 429.721
816.787, 163.989
818.068, 207.253
819.349, 345.512
820.629, 90.767
821.909, 331.018
823.189, 192.264
824.469, 216.507
825.749, 325.746
827.028, 59.979
828.307, 327.208
829.586, 137.431
830.865, 180.654
832.144, 303.872
833.422, 42.085
834.700, 240.293
835.978, 148.496
837.256, 65.698
838.534, 356.896
839.811, 7.911
841.088, 201.265
842.365, 195.436
843.642, 48.602
844.919, 181.764
846.195, 1.080
847.472, 107.062
848.748, 137.200
850.023, 17.332
851.299, 269.436
852.575, 45.557
853.850, 128.672
855.125, 190.718
856.400, 22.824
857.674, 266.666
858.949, 81.762
860.223, 90.853
861.497, 223.801
862.771, 11.117
864.045, 240.889
865.318, 95.947
866.591, 76.001
867.864, 286.627
869.137, 0.672
870.410, 202.570
871.682, 160.598
872.955, 16.622
874.227, 283.094
875.499, 84.106
876.770, 161.510
878.042, 256.515
879.313, 2.485
880.584, 322.294
881.855, 40.279
883.126, 114.974
884.396, 285.951
885.667, 20.405
886.937, 333.156
888.207, 109.121
889.476, 94.833
890.746, 267.791
892.015, 38.232
893.284, 185.029
894.553, 116.954
895.822, 26.540
897.090, 256.457
898.359, 25.374
899.627, 220.276
900.895, 214.186
902.163, 67.941
903.430, 268.846
904.698, 16.747
905.965, 155.177
907.232, 194.071
908.499, 36.000
909.765, 209.867
911.032, 87.731
912.298, 98.284
913.564, 265.149
914.830, 25.989
916.095, 309.855
917.361, 146.695
918.626, 48.566
919.891, 293.402
921.156, 27.145
922.420, 184.976
923.685, 174.806
924.949, 6.192
926.213, 245.016
927.477, 81.837
928.740, 184.658
930.004, 255.477
931.267, 6.549
932.530, 299.371
933.793, 81.191
935.056, 129.009
936.318, 275.825
937.581, 3.026
938.843, 330.782
940.104, 132.589
941.366, 85.394
942.628, 276.198
943.889, 35.812
945.150, 276.612
946.411, 257.417
947.672, 68.115
948.932, 386.821
950.193, 144.566
951.453, 201.364
952.713, 409.166
953.973, 75.966
955.232, 424.788
956.491, 269.326
957.751, 240.123
959.010, 466.919
960.268, 196.157
961.527, 448.951
962.785, 350.699
964.044, 279.505
965.302, 656.524
966.559, 434.328
967.817, 550.130
969.075, 787.931
970.332, 478.730
971.589, 869.529
972.846, 755.327
974.102, 853.124
975.359, 1467.919
976.615, 1204.714
977.871, 1984.508
979.127, 2163.302
980.383, 2579.094
981.638, 4227.885
982.893, 5271.674
984.149, 9222.463
985.404, 15809.183
986.658, 22495.975
987.913, 32562.752
989.167, 25469.545
990.421, 16516.332
991.675, 10841.686
992.929, 5501.468
994.183, 4287.251
995.436, 2780.997
996.689, 1790.793
997.942, 1788.576
999.195, 1069.371
1000.448, 1144.166
1001.700, 1008.733
1002.952, 617.536
1004.204, 868.298
1005.456, 523.100
1006.708, 514.929
1007.959, 626.625
1009.210, 281.455
1010.461, 452.288
1011.712, 429.119
1012.963, 234.952
1014.213, 517.209
1015.464, 124.046
1016.714, 334.883
1017.964, 371.720
1019.214, 148.558
1020.463, 495.588
1021.712, 173.521
1022.962, 188.361
1024.210, 362.021
1025.459, 27.873
1026.708, 326.725
1027.956, 216.592
1029.204, 146.460
1030.452, 347.508
1031.700, 85.381
1032.948, 235.235
1034.195, 284.132
1035.442, 29.971
1036.689, 280.825
1037.936, 90.709
1039.183, 137.594
1040.429, 321.509
1041.676, 7.425
1042.922, 206.625
1044.168, 204.574
1045.413, 19.476
1046.659, 267.429
1047.904, 97.663
1049.149, 144.575
1050.394, 299.528
1051.639, 49.323
1052.884, 268.611
1054.128, 83.545
1055.372, 90.399
1056.616, 210.357
1057.860, 107.455
1059.104, 164.899
1060.347, 150.827
1061.590, 19.872
1062.833, 315.064
1064.076, 82.018
1065.319, 107.111
1066.561, 308.065
1067.803, 14.979
1069.046, 334.979
1070.287, 256.937
1071.529, 11.091
1072.771, 310.050
1074.012, 116.010
1075.253, 215.877
1076.494, 333.840
1077.735, 68.149
1078.975, 388.115
1080.216, 309.080
1081.456, 242.923
1082.696, 648.902
1083.936, 309.881
1085.175, 612.861
1086.415, 702.842
1087.654, 312.488
1088.893, 613.480
1090.132, 304.473
1091.371, 316.686
1092.609, 399.678
1093.847, 82.685
1095.085, 268.565
1096.323, 262.571
1097.561, 21.422
1098.799, 319.576
1100.036, 23.574
1101.273, 149.541
1102.510, 363.539
1103.747, 39.463
1104.983, 331.750
1106.220, 134.743
1107.456, 52.926
1108.692, 355.920
1109.928, 26.915
1111.163, 196.303
1112.399, 262.298
1113.634, 40.707
1114.869, 320.331
1116.104, 130.305
1117.339, 104.280
1118.573, 403.254
1119.808, 93.228
1121.042, 348.412
1122.276, 424.385
1123.509, 253.358
1124.743, 715.542
1125.976, 491.513
1127.210, 545.483
1128.443, 969.456
1129.675, 624.427
1130.908, 1187.452
1132.141, 1384.424
1133.373, 1554.396
1134.605, 2538.608
1135.837, 2302.579
1137.068, 2522.549
1138.300, 2635.564
1139.531, 1542.533
1140.762, 1558.695
1141.993, 1161.667
1143.224, 651.638
1144.455, 979.008
1145.685, 458.977
1146.915, 457.948
1148.145, 608.091
1149.375, 191.065
1150.605, 504.039
1151.834, 354.011
1153.063, 91.981
1154.292, 504.550
1155.521, 101.517
1156.750, 287.482
1157.978, 354.118
1159.207, 104.079
1160.435, 395.083
1161.663, 227.114
1162.891, 68.076
1164.118, 426.116
1165.345, 59.074
1166.573, 185.028
1167.800, 361.477
1169.026, 25.431
1170.253, 370.381
1171.480, 221.380
1172.706, 118.326
1173.932, 457.392
1175.158, 93.333
1176.383, 326.271
1177.609, 462.419
1178.834, 257.354
1180.059, 731.287
1181.284, 627.331
1182.509, 826.257
1183.734, 1444.699
1184.958, 1135.619
1186.182, 1303.538
1187.406, 1111.412
1188.630, 464.324
1189.854, 626.211
1191.077, 342.359
1192.301, 237.273
1193.524, 460.367
1194.747, 4.564
1195.969, 242.463
1197.192, 338.421
1198.414, 17.312
1199.636, 400.598
1200.858, 214.552
1202.080, 141.429
1203.302, 406.303
1204.523, 14.052
1205.744, 206.666
1206.966, 236.789
1208.186, 16.157
1209.407, 349.891
1210.628, 114.062
1211.848, 91.904
1213.068, 412.750
1214.288, 83.917
1215.508, 276.229
1216.727, 374.074
1217.947, 18.078
1219.166, 400.911
1220.385, 131.741
1221.604, 83.565
1222.822, 352.386
1224.041, 4.736
1225.259, 269.544
1226.477, 396.348
1227.695, 21.610
1228.913, 415.166
1230.130, 223.937
1231.348, 133.938
1232.565, 472.698
1233.782, 94.452
1234.999, 261.201
1236.215, 437.945
1237.432, 22.822
1238.648, 384.556
1239.864, 222.283
1241.080, 2.991
1242.296, 420.728
1243.511, 88.440
1244.726, 173.244
1245.942, 334.950
1247.156, 4.322
1248.371, 434.359
1249.586, 281.038
1250.800, 26.721
1252.014, 402.395
1253.228, 35.063
1254.442, 212.859
1255.656, 385.522
1256.869, 41.817
1258.083, 322.826
1259.296, 241.465
1260.509, 66.024
1261.722, 316.658
1262.934, 168.288
1264.147, 159.087
1265.359, 445.694
1266.571, 32.297
1267.783, 277.975
1268.994, 404.536
1270.206, 33.093
1271.417, 392.643
1272.628, 138.189
1273.839, 102.299
1275.050, 480.838
1276.260, 72.370
1277.471, 205.433
1278.681, 423.957
1279.891, 30.478
1281.101, 449.999
1282.310, 240.509
1283.520, 76.017
1284.729, 398.521
1285.938, 43.008
1287.147, 213.444
1288.356, 326.875
1289.564, 39.713
1290.773, 386.679
1291.981, 230.069
1293.189, 48.521
1294.397, 453.941
1295.604, 151.290
1296.812, 163.602
1298.019, 386.909
1299.226, 89.792
1300.433, 329.581
1301.640, 338.839
1302.846, 6.093
1304.053, 332.423
1305.259, 81.639
1306.465, 74.848
1307.671, 315.050
1308.876, 73.246
1310.082, 241.434
1311.287, 372.615
1312.492, 14.791
1313.697, 293.958
1314.902, 240.028
1316.106, 81.183
1317.310, 343.370
1318.515, 64.480
1319.719, 174.583
1320.922, 380.678
1322.126, 42.764
1323.329, 367.839
1324.533, 293.906
1325.736, 66.965
1326.939, 354.017
1328.141, 150.053
1329.344, 143.089
1330.546, 432.563
1331.748, 14.424
1332.950, 238.571
1334.152, 363.693
1335.354, 98.327
1336.555, 378.614
1337.757, 159.546
1338.958, 19.541
1340.159, 458.074
1341.359, 79.962
1342.560, 150.842
1343.760, 377.519
1344.960, 77.396
1346.160, 282.268
1347.360, 275.467
1348.560, 28.675
1349.759, 439.946
1350.959, 39.806
1352.158, 50.659
1353.357, 369.134
1354.555, 52.020
1355.754, 256.805
1356.952, 339.612
1358.151, 30.412
1359.349, 291.208
1360.546, 229.917
1361.744, 57.710
1362.941, 433.296
1364.139, 162.086
1365.336, 219.864
1366.533, 423.642
1367.730, 18.419
1368.926, 310.852
1370.123, 394.633
1371.319, 16.755
1372.515, 319.879
1373.711, 120.443
1374.906, 42.979
1376.102, 529.472
1377.297, 124.116
1378.492, 225.575
1379.687, 377.969
1380.882, 61.317
1382.077, 414.551
1383.271, 300.111
1384.465, 112.547
1385.659, 518.986
1386.853, 167.409
1388.047, 139.590
1389.240, 542.792
1390.434, 91.188
1391.627, 259.908
1392.820, 451.201
1394.013, 29.436
1395.205, 451.921
1396.398, 309.035
1397.590, 65.138
1398.782, 461.473
1399.974, 229.797
1401.166, 185.050
1402.357, 479.072
1403.549, 65.372
1404.740, 279.607
1405.931, 370.667
1407.122, 50.781
1408.313, 399.016
1409.503, 266.024
1410.693, 78.235
1411.883, 478.008
1413.073, 177.121
1414.263, 151.351
1415.453, 448.290
1416.642, 14.270
1417.831, 347.353
1419.020, 431.755
1420.209, 16.753
1421.398, 462.647
1422.587, 260.708
1423.775, 90.460
1424.963, 530.349
1426.151, 141.398
1427.339, 145.442
1428.526, 440.540
1429.714, 311.134
1430.901, 321.990
1432.088, 297.868
1433.275, 247.464
1434.462, 78.343
1435.648, 62.658
1436.835, 5.085
1438.021, 523.907
1439.207, 178.304
1440.393, 256.924
1441.579, 605.967
1442.764, 43.228
1443.949, 440.768
1445.135, 436.298
1446.320, 46.830
1447.504, 494.107
1448.689, 260.567
1449.873, 170.558
1451.058, 574.996
1452.242, 205.150
1453.426, 261.564
1454.609, 497.947
1455.793, 64.313
1456.976, 310.593
1458.159, 490.952
1459.342, 41.500
1460.525, 498.358
1461.708, 381.458
1462.890, 101.508
1464.073, 556.179
1465.255, 255.699
1466.437, 230.666
1467.619, 556.469
1468.800, 109.519
1469.982, 304.006
1471.163, 564.939
1472.344, 1.676
1473.525, 537.101
1474.706, 334.834
1475.886, 20.535
1477.066, 595.495
1478.247, 235.503
1479.427, 139.231
1480.607, 562.701
1481.786, 142.835
1482.966, 321.571
1484.145, 474.651
1485.324, 68.457
1486.503, 371.645
1487.682, 380.821
1488.860, 1.977
1490.039, 518.109
1491.217, 297.038
1492.395, 97.409
1493.573, 591.802
1494.751, 205.245
1495.928, 230.724
1497.106, 507.307
1498.283, 66.380
1499.460, 326.213
1500.637, 346.896
1501.814, 35.239
1502.990, 360.825
1504.166, 323.010
1505.342, 62.317
1506.518, 483.793
1507.694, 183.178
1508.870, 267.686
1510.045, 467.331
1511.221, 88.482
1512.396, 251.961
1513.571, 408.232
1514.745, 37.369
1515.920, 279.695
1517.094, 312.484
1518.269, 1.047
1519.443, 420.257
1520.616, 185.155
1521.790, 0.000
##END=



