##NAMES=Creedite
##RRUFFID=R050141
##IDEAL CHEMISTRY=Ca_3_Al_2_(S^6+^O_4_)(OH)_2_F_8_&#183;2H_2_O
##LOCALITY=Mina de Navidad, Rodeo, Durango, Mexico
##OWNER=RRUFF
##SOURCE=Dave Bunk Minerals
##DESCRIPTION=Radiating group of bladed crystals
##STATUS=The identification of this mineral has been confirmed by X-ray diffraction and chemical analysis
##URL=rruff.info/R050141
##MEASURED CHEMISTRY=Ca_3.00_Al_2.00_(S_1.00_O_4_)(OH)_2_(F_7.31_(OH)_0.69_)_Σ=8_·2H_2_O ; OH estimated by stoichiometry and charge balance OH=10-F
##PIN_ID=L00115
##ORIENTATION=Laser parallel to -b* (0 -1 0). Fiducial mark perpendicular to laser is parallel to c [0 0 1]
103.206, 0.000
104.600, 24.135
105.994, 56.513
107.387, 151.016
108.781, 215.631
110.174, 402.022
111.566, 593.993
112.959, 576.807
114.351, 571.721
115.744, 346.566
117.136, 207.452
118.527, 85.459
119.919, 153.678
121.310, 43.304
122.701, 102.975
124.092, 132.346
125.482, 109.026
126.873, 188.958
128.263, 112.103
129.653, 151.437
131.042, 43.945
132.432, 87.638
133.821, 74.003
135.210, 2.532
136.599, 96.125
137.987, 51.171
139.376, 56.554
140.764, 18.625
142.152, 25.198
143.539, 19.022
144.927, 18.984
146.314, 124.986
147.701, 7.969
149.088, 166.934
150.474, 105.885
151.861, 193.823
153.247, 112.826
154.633, 109.897
156.018, 152.945
157.404, 57.099
158.789, 98.452
160.174, 72.037
161.559, 28.593
162.943, 88.186
164.327, 86.611
165.711, 163.810
167.095, 104.974
168.479, 184.387
169.862, 260.486
171.246, 288.180
172.628, 431.229
174.011, 382.229
175.394, 445.211
176.776, 396.200
178.158, 454.111
179.540, 372.009
180.922, 357.894
182.303, 360.767
183.684, 319.628
185.065, 433.769
186.446, 445.912
187.826, 677.648
189.207, 685.384
190.587, 888.125
191.967, 941.870
193.346, 764.622
194.726, 793.380
196.105, 488.143
197.484, 385.909
198.862, 268.680
200.241, 166.456
201.619, 229.236
202.997, 112.464
204.375, 166.427
205.753, 59.108
207.130, 109.795
208.507, 111.490
209.884, 73.639
211.261, 75.868
212.638, 43.083
214.014, 163.603
215.390, 63.779
216.766, 36.006
218.141, 119.436
219.517, 37.075
220.892, 99.481
222.267, 44.083
223.642, 174.088
225.016, 15.483
226.391, 31.951
227.765, 122.390
229.139, 14.835
230.512, 144.284
231.886, 8.747
233.259, 92.232
234.632, 34.727
236.005, 31.247
237.377, 70.790
238.749, 2.666
240.122, 98.885
241.493, 12.442
242.865, 164.999
244.237, 87.605
245.608, 106.193
246.979, 145.755
248.350, 6.691
249.720, 187.862
251.090, 73.428
252.461, 121.997
253.830, 143.562
255.200, 80.131
256.570, 211.708
257.939, 37.283
259.308, 153.849
260.677, 85.414
262.045, 77.979
263.414, 88.543
264.782, 10.893
266.150, 71.670
267.517, 19.777
268.885, 56.657
270.252, 36.294
271.619, 59.045
272.986, 115.870
274.353, 74.745
275.719, 149.655
277.085, 94.594
278.451, 149.544
279.817, 184.503
281.182, 143.472
282.548, 326.450
283.913, 93.436
285.278, 223.430
286.642, 144.351
288.007, 82.263
289.371, 227.186
290.735, 66.117
292.099, 195.057
293.462, 43.004
294.826, 149.957
296.189, 60.915
297.552, 77.877
298.914, 118.841
300.277, 42.195
301.639, 110.756
303.001, 8.649
304.363, 48.597
305.724, 136.019
307.086, 28.966
308.447, 171.911
309.808, 50.855
311.168, 112.797
312.529, 46.738
313.889, 15.324
315.249, 127.606
316.609, 37.466
317.969, 119.448
319.328, 27.642
320.687, 55.256
322.046, 25.152
323.405, 52.956
324.764, 19.914
326.122, 72.220
327.480, 77.580
328.838, 2.358
330.196, 27.130
331.553, 145.899
332.910, 2.336
334.267, 136.423
335.624, 0.171
336.981, 54.914
338.337, 98.368
339.693, 39.107
341.049, 153.834
342.405, 8.441
343.760, 178.277
345.116, 79.994
346.471, 132.708
347.826, 185.422
349.180, 65.124
350.535, 225.809
351.889, 142.493
353.243, 226.177
354.597, 155.859
355.950, 92.541
357.304, 233.222
358.657, 78.715
360.010, 204.394
361.362, 128.136
362.715, 209.812
364.067, 261.487
365.419, 172.270
366.771, 358.917
368.123, 301.366
369.474, 454.011
370.825, 457.418
372.176, 413.298
373.527, 500.929
374.877, 285.508
376.228, 348.102
377.578, 267.669
378.928, 186.203
380.277, 199.732
381.627, 180.376
382.976, 326.916
384.325, 162.451
385.674, 255.691
387.023, 280.217
388.371, 166.240
389.719, 334.787
391.067, 142.334
392.415, 328.881
393.762, 309.428
395.110, 268.375
396.457, 417.924
397.804, 232.810
399.150, 401.364
400.497, 245.916
401.843, 343.796
403.189, 238.347
404.535, 287.693
405.881, 362.242
407.226, 49.789
408.571, 281.335
409.916, 133.879
411.261, 174.517
412.605, 187.060
413.950, 41.602
415.294, 271.167
416.638, 105.731
417.981, 184.294
419.325, 265.856
420.668, 86.417
422.011, 268.992
423.354, 84.567
424.697, 283.140
426.039, 192.713
427.381, 233.143
428.723, 392.722
430.065, 265.606
431.406, 571.184
432.748, 556.760
434.089, 806.335
435.430, 1113.915
436.770, 1345.491
438.111, 2269.066
439.451, 2775.637
440.791, 3398.206
442.131, 3499.772
443.471, 2985.335
444.810, 2504.895
446.149, 1783.452
447.488, 1433.005
448.827, 1012.557
450.166, 772.104
451.504, 737.649
452.842, 404.192
454.180, 533.732
455.518, 436.269
456.855, 426.803
458.193, 455.334
459.530, 274.861
460.867, 527.386
462.203, 320.605
463.540, 356.124
464.876, 351.478
466.212, 228.999
467.548, 353.520
468.883, 89.038
470.219, 277.553
471.554, 176.065
472.889, 200.574
474.224, 295.081
475.558, 127.996
476.892, 290.496
478.227, 255.001
479.561, 298.496
480.894, 340.598
482.228, 240.087
483.561, 551.573
484.894, 300.059
486.227, 342.562
487.559, 355.848
488.892, 138.350
490.224, 280.302
491.556, 125.800
492.888, 194.311
494.220, 216.969
495.551, 47.475
496.882, 197.281
498.213, 6.216
499.544, 215.283
500.874, 35.780
502.205, 53.276
503.535, 190.503
504.865, 19.995
506.194, 141.485
507.524, 28.974
508.853, 121.460
510.182, 97.945
511.511, 29.428
512.840, 153.909
514.168, 37.389
515.496, 121.866
516.824, 108.342
518.152, 24.183
519.480, 259.273
520.807, 12.272
522.134, 176.171
523.461, 90.612
524.788, 28.948
526.114, 126.471
527.441, 24.109
528.767, 179.291
530.093, 36.875
531.418, 68.271
532.744, 200.666
534.069, 10.941
535.394, 178.442
536.719, 89.823
538.044, 108.203
539.368, 207.581
540.693, 75.236
542.017, 183.096
543.340, 110.431
544.664, 93.760
545.987, 213.103
547.311, 25.531
548.634, 198.878
549.956, 55.223
551.279, 95.574
552.601, 110.916
553.923, 15.878
555.245, 182.447
556.567, 3.790
557.889, 122.108
559.210, 113.425
560.531, 26.740
561.852, 174.057
563.173, 20.629
564.493, 149.668
565.813, 98.964
567.133, 138.258
568.453, 217.550
569.773, 27.841
571.092, 207.138
572.412, 48.433
573.731, 115.516
575.049, 220.807
576.368, 50.097
577.686, 231.384
579.005, 94.670
580.323, 142.714
581.640, 228.000
582.958, 84.284
584.275, 341.567
585.593, 116.847
586.909, 253.128
588.226, 258.410
589.543, 188.697
590.859, 432.981
592.175, 354.264
593.491, 497.043
594.807, 623.321
596.122, 560.598
597.438, 983.874
598.753, 1080.148
600.068, 1418.421
601.382, 1558.691
602.697, 1528.959
604.011, 1726.225
605.325, 1227.488
606.639, 1087.750
607.952, 877.017
609.266, 500.281
610.579, 593.543
611.892, 311.803
613.205, 352.061
614.518, 249.318
615.830, 157.571
617.142, 243.422
618.454, 350.073
619.766, 349.321
621.078, 210.581
622.389, 189.840
623.700, 415.097
625.011, 149.352
626.322, 390.612
627.632, 252.868
628.943, 209.123
630.253, 345.377
631.563, 96.631
632.872, 279.882
634.182, 253.139
635.491, 190.395
636.800, 357.660
638.109, 97.925
639.418, 304.200
640.726, 242.472
642.035, 296.742
643.343, 402.945
644.651, 188.229
645.958, 468.533
647.266, 320.835
648.573, 260.138
649.880, 456.601
651.187, 177.899
652.494, 421.200
653.800, 167.499
655.106, 278.799
656.412, 281.669
657.718, 79.965
659.024, 282.259
660.329, 225.551
661.634, 163.847
662.939, 252.141
664.244, 83.433
665.549, 286.723
666.853, 64.011
668.157, 138.298
669.461, 259.583
670.765, 70.866
672.069, 338.147
673.372, 166.427
674.675, 177.705
675.978, 221.167
677.281, 107.442
678.583, 270.649
679.886, 133.921
681.188, 211.192
682.490, 235.352
683.792, 30.619
685.093, 321.083
686.394, 11.348
687.696, 137.610
688.997, 224.871
690.297, 33.132
691.598, 192.422
692.898, 38.680
694.198, 78.937
695.498, 156.194
696.798, 49.551
698.097, 223.572
699.397, 21.794
700.696, 34.014
701.995, 223.234
703.293, 72.546
704.592, 135.628
705.890, 26.803
707.188, 19.978
708.486, 116.151
709.784, 5.676
711.081, 180.980
712.378, 8.855
713.675, 357.967
714.972, 240.121
716.269, 34.274
717.565, 200.428
718.862, 45.581
720.158, 68.924
721.453, 338.078
722.749, 556.231
724.045, 234.384
725.340, 77.538
726.635, 95.419
727.930, 157.573
729.224, 86.273
730.519, 195.830
731.813, 127.934
733.107, 106.039
734.401, 206.143
735.694, 53.809
736.988, 223.263
738.281, 142.336
739.574, 54.584
740.867, 229.657
742.160, 26.269
743.452, 181.787
744.744, 64.843
746.036, 93.900
747.328, 287.956
748.620, 18.986
749.911, 310.057
751.202, 142.101
752.493, 146.861
753.784, 289.906
755.075, 14.951
756.365, 298.997
757.655, 146.043
758.945, 119.091
760.235, 418.138
761.525, 153.187
762.814, 302.771
764.103, 345.820
765.392, 184.870
766.681, 363.921
767.969, 227.972
769.258, 287.025
770.546, 342.078
771.834, 203.131
773.122, 383.186
774.409, 104.242
775.697, 251.298
776.984, 238.355
778.271, 77.413
779.558, 258.472
780.844, 7.531
782.131, 188.615
783.417, 187.677
784.703, 8.739
785.989, 306.408
787.274, 68.473
788.560, 101.539
789.845, 293.606
791.130, 48.674
792.415, 274.843
793.699, 57.914
794.983, 150.986
796.268, 185.059
797.552, 91.868
798.835, 278.157
800.119, 59.184
801.402, 164.210
802.686, 293.238
803.969, 48.732
805.251, 285.271
806.534, 124.275
807.816, 99.281
809.098, 242.287
810.380, 19.692
811.662, 336.321
812.944, 182.335
814.225, 76.362
815.506, 354.390
816.787, 122.420
818.068, 254.451
819.349, 224.484
820.629, 138.542
821.909, 374.603
823.189, 162.665
824.469, 258.729
825.749, 263.794
827.028, 136.862
828.307, 395.932
829.586, 148.004
830.865, 229.090
832.144, 275.179
833.422, 116.274
834.700, 309.373
835.978, 84.473
837.256, 142.585
838.534, 321.697
839.811, 95.822
841.088, 221.763
842.365, 160.894
843.642, 126.028
844.919, 314.164
846.195, 21.309
847.472, 172.456
848.748, 141.606
850.023, 106.759
851.299, 307.110
852.575, 31.292
853.850, 234.472
855.125, 264.660
856.400, 42.850
857.674, 352.960
858.949, 64.160
860.223, 153.363
861.497, 214.562
862.771, 48.772
864.045, 335.119
865.318, 54.342
866.591, 143.550
867.864, 252.784
869.137, 20.022
870.410, 266.263
871.682, 99.507
872.955, 23.755
874.227, 373.015
875.499, 25.277
876.770, 187.543
878.042, 198.816
879.313, 18.908
880.584, 324.364
881.855, 54.641
883.126, 318.132
884.396, 219.416
885.667, 41.704
886.937, 322.996
888.207, 25.709
889.476, 224.825
890.746, 350.118
892.015, 7.581
893.284, 314.715
894.553, 149.016
895.822, 179.323
897.090, 298.632
898.359, 81.945
899.627, 300.259
900.895, 99.577
902.163, 108.401
903.430, 300.729
904.698, 23.947
905.965, 200.379
907.232, 235.709
908.499, 45.112
909.765, 302.452
911.032, 73.796
912.298, 291.146
913.564, 240.500
914.830, 41.146
916.095, 345.202
917.361, 61.555
918.626, 154.914
919.891, 322.277
921.156, 18.645
922.420, 394.018
923.685, 70.397
924.949, 81.782
926.213, 304.173
927.477, 123.569
928.740, 276.972
930.004, 230.380
931.267, 47.794
932.530, 366.215
933.793, 31.366
935.056, 149.061
936.318, 277.494
937.581, 22.069
938.843, 412.373
940.104, 158.821
941.366, 133.316
942.628, 336.776
943.889, 5.757
945.150, 374.757
946.411, 105.236
947.672, 103.721
948.932, 326.212
950.193, 53.792
951.453, 292.297
952.713, 287.808
953.973, 97.327
955.232, 423.852
956.491, 75.222
957.751, 300.761
959.010, 381.308
960.268, 139.861
961.527, 497.130
962.785, 259.412
964.044, 172.988
965.302, 569.939
966.559, 257.530
967.817, 454.128
969.075, 565.734
970.332, 382.349
971.589, 716.474
972.846, 460.104
974.102, 676.744
975.359, 860.391
976.615, 686.047
977.871, 1234.711
979.127, 1229.385
980.383, 1584.067
981.638, 2530.589
982.893, 3326.291
984.149, 5480.001
985.404, 9143.725
986.658, 13507.454
987.913, 16771.197
989.167, 14334.947
990.421, 10408.709
991.675, 6722.521
992.929, 3986.305
994.183, 2920.099
995.436, 1739.043
996.689, 1317.859
997.942, 1113.688
999.195, 624.527
1000.448, 916.379
1001.700, 653.287
1002.952, 495.137
1004.204, 739.998
1005.456, 295.830
1006.708, 425.673
1007.959, 589.170
1009.210, 149.955
1010.461, 468.746
1011.712, 263.667
1012.963, 243.453
1014.213, 499.245
1015.464, 35.046
1016.714, 425.851
1017.964, 299.233
1019.214, 112.050
1020.463, 457.864
1021.712, 60.679
1022.962, 319.492
1024.210, 466.304
1025.459, 50.118
1026.708, 525.909
1027.956, 168.481
1029.204, 178.277
1030.452, 404.349
1031.700, 91.374
1032.948, 296.149
1034.195, 330.080
1035.442, 80.887
1036.689, 413.625
1037.936, 209.558
1039.183, 306.284
1040.429, 486.938
1041.676, 120.658
1042.922, 457.808
1044.168, 201.710
1045.413, 169.642
1046.659, 509.583
1047.904, 61.543
1049.149, 404.772
1050.394, 377.754
1051.639, 71.747
1052.884, 443.750
1054.128, 194.104
1055.372, 211.116
1056.616, 296.139
1057.860, 5.174
1059.104, 414.220
1060.347, 183.280
1061.590, 45.350
1062.833, 354.433
1064.076, 79.334
1065.319, 260.717
1066.561, 381.819
1067.803, 118.932
1069.046, 486.936
1070.287, 209.072
1071.529, 123.252
1072.771, 482.478
1074.012, 117.717
1075.253, 355.006
1076.494, 317.310
1077.735, 104.606
1078.975, 414.912
1080.216, 122.218
1081.456, 230.539
1082.696, 437.810
1083.936, 117.094
1085.175, 419.392
1086.415, 288.703
1087.654, 165.016
1088.893, 599.342
1090.132, 33.680
1091.371, 354.031
1092.609, 392.395
1093.847, 36.770
1095.085, 374.155
1096.323, 247.554
1097.561, 116.963
1098.799, 452.385
1100.036, 153.815
1101.273, 290.254
1102.510, 294.707
1103.747, 62.177
1104.983, 470.658
1106.220, 152.150
1107.456, 245.659
1108.692, 344.186
1109.928, 44.275
1111.163, 297.283
1112.399, 164.864
1113.634, 37.537
1114.869, 282.084
1116.104, 74.747
1117.339, 220.434
1118.573, 311.159
1119.808, 85.092
1121.042, 346.696
1122.276, 219.509
1123.509, 128.381
1124.743, 424.130
1125.976, 146.055
1127.210, 286.008
1128.443, 378.026
1129.675, 5.916
1130.908, 344.180
1132.141, 313.309
1133.373, 240.470
1134.605, 502.662
1135.837, 261.888
1137.068, 436.150
1138.300, 477.452
1139.531, 91.793
1140.762, 454.057
1141.993, 319.482
1143.224, 74.825
1144.455, 555.341
1145.685, 112.908
1146.915, 249.530
1148.145, 477.207
1149.375, 108.944
1150.605, 515.787
1151.834, 188.338
1153.063, 179.664
1154.292, 485.001
1155.521, 5.703
1156.750, 350.852
1157.978, 319.370
1159.207, 69.842
1160.435, 468.201
1161.663, 193.356
1162.891, 207.400
1164.118, 500.308
1165.345, 0.183
1166.573, 299.357
1167.800, 358.771
1169.026, 175.730
1170.253, 371.001
1171.480, 150.789
1172.706, 241.821
1173.932, 444.659
1175.158, 5.710
1176.383, 341.220
1177.609, 353.057
1178.834, 50.700
1180.059, 481.790
1181.284, 84.905
1182.509, 267.349
1183.734, 415.289
1184.958, 63.355
1186.182, 390.103
1187.406, 257.045
1188.630, 0.568
1189.854, 0.000
##END=



