##NAMES=Creedite
##RRUFFID=R050141
##IDEAL CHEMISTRY=Ca_3_Al_2_(S^6+^O_4_)(OH)_2_F_8_&#183;2H_2_O
##LOCALITY=Mina de Navidad, Rodeo, Durango, Mexico
##OWNER=RRUFF
##SOURCE=Dave Bunk Minerals
##DESCRIPTION=Radiating group of bladed crystals
##STATUS=The identification of this mineral has been confirmed by X-ray diffraction and chemical analysis
##URL=rruff.info/R050141
##MEASURED CHEMISTRY=Ca_3.00_Al_2.00_(S_1.00_O_4_)(OH)_2_(F_7.31_(OH)_0.69_)_Σ=8_·2H_2_O ; OH estimated by stoichiometry and charge balance OH=10-F
##PIN_ID=L00255
##ORIENTATION=Laser parallel to a* (1 0 0). Fiducial mark perpendicular to laser is parallel to b [0 1 0]
103.206, 0.000
104.600, 159.628
105.994, 1.383
107.387, 143.025
108.781, 199.185
110.174, 417.483
111.566, 561.801
112.959, 460.930
114.351, 365.578
115.744, 177.967
117.136, 288.735
118.527, 173.192
119.919, 218.349
121.310, 187.291
122.701, 190.843
124.092, 484.946
125.482, 528.551
126.873, 677.627
128.263, 433.430
129.653, 572.257
131.042, 533.864
132.432, 405.906
133.821, 476.468
135.210, 244.911
136.599, 238.609
137.987, 69.468
139.376, 79.362
140.764, 112.060
142.152, 11.577
143.539, 97.330
144.927, 12.897
146.314, 125.292
147.701, 34.478
149.088, 122.270
150.474, 72.592
151.861, 50.403
153.247, 109.762
154.633, 1.075
156.018, 11.551
157.404, 21.761
158.789, 15.230
160.174, 16.079
161.559, 10.661
162.943, 39.828
164.327, 31.540
165.711, 270.946
167.095, 235.620
168.479, 296.290
169.862, 460.696
171.246, 604.498
172.628, 1015.539
174.011, 871.170
175.394, 1001.414
176.776, 736.607
178.158, 682.218
179.540, 654.094
180.922, 410.578
182.303, 596.802
183.684, 536.311
185.065, 840.346
186.446, 1008.672
187.826, 1338.929
189.207, 1880.796
190.587, 2298.986
191.967, 2894.737
193.346, 2194.182
194.726, 1719.939
196.105, 1143.034
197.484, 777.402
198.862, 696.021
200.241, 452.202
201.619, 485.227
202.997, 390.958
204.375, 391.473
205.753, 282.744
207.130, 242.835
208.507, 264.915
209.884, 140.983
211.261, 158.033
212.638, 117.208
214.014, 206.118
215.390, 179.406
216.766, 168.574
218.141, 229.503
219.517, 77.945
220.892, 163.497
222.267, 104.836
223.642, 167.065
225.016, 161.865
226.391, 131.940
227.765, 185.783
229.139, 39.459
230.512, 104.933
231.886, 38.918
233.259, 74.828
234.632, 73.696
236.005, 5.353
237.377, 95.516
238.749, 22.268
240.122, 70.998
241.493, 32.473
242.865, 23.090
244.237, 25.783
245.608, 31.506
246.979, 107.725
248.350, 41.606
249.720, 118.311
251.090, 80.980
252.461, 70.685
253.830, 104.208
255.200, 12.675
256.570, 103.264
257.939, 28.713
259.308, 0.260
260.677, 25.159
262.045, 42.910
263.414, 32.265
264.782, 106.631
266.150, 9.615
267.517, 45.715
268.885, 65.636
270.252, 65.852
271.619, 92.363
272.986, 64.246
274.353, 67.221
275.719, 40.207
277.085, 10.453
278.451, 10.787
279.817, 109.930
281.182, 2.019
282.548, 159.926
283.913, 9.229
285.278, 84.511
286.642, 146.146
288.007, 45.676
289.371, 189.098
290.735, 69.428
292.099, 153.668
293.462, 66.818
294.826, 120.840
296.189, 128.707
297.552, 58.465
298.914, 96.126
300.277, 35.727
301.639, 180.263
303.001, 158.552
304.363, 162.806
305.724, 280.124
307.086, 236.857
308.447, 374.968
309.808, 300.542
311.168, 366.601
312.529, 418.155
313.889, 357.031
315.249, 460.618
316.609, 305.029
317.969, 378.619
319.328, 288.174
320.687, 231.948
322.046, 236.976
323.405, 118.617
324.764, 180.183
326.122, 100.571
327.480, 143.226
328.838, 142.738
330.196, 36.964
331.553, 149.117
332.910, 67.199
334.267, 155.192
335.624, 100.118
336.981, 82.980
338.337, 132.769
339.693, 9.498
341.049, 182.175
342.405, 46.812
343.760, 129.378
345.116, 139.098
346.471, 39.528
347.826, 193.872
349.180, 52.400
350.535, 193.494
351.889, 106.949
353.243, 141.821
354.597, 195.640
355.950, 75.449
357.304, 208.189
358.657, 140.104
360.010, 175.768
361.362, 172.405
362.715, 120.014
364.067, 221.596
365.419, 128.150
366.771, 182.673
368.123, 131.174
369.474, 180.565
370.825, 184.777
372.176, 134.067
373.527, 241.822
374.877, 87.639
376.228, 155.176
377.578, 185.162
378.928, 83.019
380.277, 222.811
381.627, 52.844
382.976, 219.961
384.325, 94.679
385.674, 143.998
387.023, 182.676
388.371, 143.327
389.719, 266.834
391.067, 177.550
392.415, 271.026
393.762, 255.288
395.110, 193.760
396.457, 349.756
397.804, 169.735
399.150, 271.435
400.497, 277.592
401.843, 207.694
403.189, 274.642
404.535, 194.020
405.881, 304.188
407.226, 141.435
408.571, 158.831
409.916, 237.084
411.261, 123.671
412.605, 239.984
413.950, 103.010
415.294, 222.950
416.638, 166.173
417.981, 186.143
419.325, 326.359
420.668, 176.784
422.011, 292.195
423.354, 190.031
424.697, 289.776
426.039, 411.296
427.381, 325.092
428.723, 593.003
430.065, 515.675
431.406, 798.076
432.748, 927.453
434.089, 1196.154
435.430, 1870.970
436.770, 2185.224
438.111, 3903.748
439.451, 5092.534
440.791, 6635.485
442.131, 7409.502
443.471, 5295.771
444.810, 4306.951
446.149, 2734.743
447.488, 2076.525
448.827, 1619.584
450.166, 1102.995
451.504, 1176.192
452.842, 726.779
454.180, 759.797
455.518, 691.326
456.855, 598.169
458.193, 756.028
459.530, 841.440
460.867, 729.130
462.203, 624.289
463.540, 570.299
464.876, 637.204
466.212, 397.113
467.548, 535.424
468.883, 296.617
470.219, 310.901
471.554, 384.172
472.889, 290.447
474.224, 467.709
475.558, 301.958
476.892, 521.196
478.227, 552.421
479.561, 588.646
480.894, 863.864
482.228, 667.967
483.561, 1079.099
484.894, 849.730
486.227, 790.614
487.559, 812.230
488.892, 420.950
490.224, 489.662
491.556, 330.762
492.888, 216.486
494.220, 296.830
495.551, 85.578
496.882, 258.089
498.213, 120.521
499.544, 129.157
500.874, 104.087
502.205, 52.918
503.535, 213.083
504.865, 5.683
506.194, 79.316
507.524, 69.415
508.853, 7.731
510.182, 118.473
511.511, 18.681
512.840, 106.797
514.168, 61.420
515.496, 38.732
516.824, 104.601
518.152, 2.510
519.480, 148.093
520.807, 49.845
522.134, 72.585
523.461, 159.105
524.788, 41.052
526.114, 166.609
527.441, 64.405
528.767, 236.987
530.093, 228.784
531.418, 123.602
532.744, 280.210
534.069, 117.328
535.394, 203.751
536.719, 167.462
538.044, 141.437
539.368, 224.852
540.693, 83.743
542.017, 187.042
543.340, 129.008
544.664, 113.629
545.987, 220.328
547.311, 138.365
548.634, 258.080
549.956, 135.093
551.279, 118.179
552.601, 293.157
553.923, 44.015
555.245, 213.982
556.567, 115.974
557.889, 117.233
559.210, 202.235
560.531, 94.113
561.852, 221.171
563.173, 87.327
564.493, 208.156
565.813, 292.185
567.133, 215.970
568.453, 443.919
569.773, 236.958
571.092, 382.116
572.412, 266.159
573.731, 207.883
575.049, 376.180
576.368, 112.198
577.686, 198.853
579.005, 226.907
580.323, 92.135
581.640, 302.201
582.958, 108.282
584.275, 256.461
585.593, 203.581
586.909, 217.943
588.226, 406.109
589.543, 212.294
590.859, 576.807
592.175, 574.042
593.491, 735.418
594.807, 965.687
596.122, 867.981
597.438, 1204.444
598.753, 1088.752
600.068, 1199.127
601.382, 1355.446
602.697, 1011.772
604.011, 1217.996
605.325, 772.334
606.639, 635.701
607.952, 546.041
609.266, 287.384
610.579, 383.867
611.892, 216.211
613.205, 201.557
614.518, 195.941
615.830, 107.296
617.142, 252.738
618.454, 61.096
619.766, 213.457
621.078, 195.912
622.389, 119.276
623.700, 298.900
625.011, 195.268
626.322, 371.634
627.632, 578.000
628.943, 663.365
630.253, 1027.098
631.563, 725.459
632.872, 668.984
634.182, 474.476
635.491, 233.840
636.800, 334.287
638.109, 113.657
639.418, 177.067
640.726, 157.435
642.035, 104.805
643.343, 238.176
644.651, 19.547
645.958, 238.918
647.266, 201.291
648.573, 147.958
649.880, 316.334
651.187, 152.867
652.494, 309.293
653.800, 289.896
655.106, 286.276
656.412, 515.770
657.718, 421.151
659.024, 636.540
660.329, 696.917
661.634, 668.309
662.939, 1048.499
664.244, 751.892
665.549, 985.287
666.853, 829.553
668.157, 627.950
669.461, 784.845
670.765, 462.241
672.069, 566.639
673.372, 401.009
674.675, 355.407
675.978, 419.650
677.281, 235.047
678.583, 341.444
679.886, 269.841
681.188, 148.238
682.490, 276.649
683.792, 81.231
685.093, 203.626
686.394, 125.701
687.696, 53.095
688.997, 204.489
690.297, 10.046
691.598, 143.436
692.898, 96.887
694.198, 14.276
695.498, 147.663
696.798, 36.529
698.097, 168.839
699.397, 52.276
700.696, 15.643
701.995, 177.009
703.293, 38.380
704.592, 107.964
705.890, 41.306
707.188, 21.302
708.486, 152.025
709.784, 14.412
711.081, 61.901
712.378, 50.284
713.675, 23.144
714.972, 72.150
716.269, 31.366
717.565, 40.908
718.862, 18.177
720.158, 44.949
721.453, 110.288
722.749, 46.371
724.045, 136.835
725.340, 58.038
726.635, 0.587
727.930, 108.607
729.224, 13.197
730.519, 1.983
731.813, 93.156
733.107, 5.476
734.401, 158.698
735.694, 14.869
736.988, 88.035
738.281, 101.197
739.574, 11.954
740.867, 165.191
742.160, 10.332
743.452, 101.492
744.744, 93.623
746.036, 15.250
747.328, 171.861
748.620, 28.033
749.911, 115.087
751.202, 91.167
752.493, 21.305
753.784, 183.374
755.075, 46.438
756.365, 101.418
757.655, 158.487
758.945, 6.370
760.235, 203.738
761.525, 55.783
762.814, 110.908
764.103, 156.942
765.392, 26.029
766.681, 124.976
767.969, 74.975
769.258, 57.405
770.546, 125.393
771.834, 44.375
773.122, 148.352
774.409, 69.322
775.697, 43.287
776.984, 122.246
778.271, 10.199
779.558, 146.585
780.844, 83.523
782.131, 84.457
783.417, 212.384
784.703, 58.694
785.989, 159.185
787.274, 27.057
788.560, 34.923
789.845, 175.062
791.130, 37.085
792.415, 135.673
793.699, 59.487
794.983, 130.295
796.268, 231.815
797.552, 75.458
798.835, 216.660
800.119, 285.543
801.402, 286.160
802.686, 13.703
803.969, 93.850
805.251, 32.707
806.534, 34.254
807.816, 17.685
809.098, 236.403
810.380, 43.114
811.662, 175.818
812.944, 134.516
814.225, 93.223
815.506, 251.923
816.787, 120.618
818.068, 119.307
819.349, 215.990
820.629, 26.666
821.909, 237.336
823.189, 105.999
824.469, 116.659
825.749, 212.312
827.028, 121.958
828.307, 191.604
829.586, 54.243
830.865, 120.875
832.144, 224.502
833.422, 90.122
834.700, 120.736
835.978, 66.343
837.256, 19.056
838.534, 233.519
839.811, 10.913
841.088, 76.634
842.365, 179.175
843.642, 30.709
844.919, 170.086
846.195, 55.606
847.472, 92.119
848.748, 94.491
850.023, 11.991
851.299, 148.556
852.575, 52.040
853.850, 95.516
855.125, 134.852
856.400, 20.683
857.674, 194.594
858.949, 80.026
860.223, 53.414
861.497, 201.615
862.771, 15.029
864.045, 151.557
865.318, 46.957
866.591, 13.345
867.864, 173.354
869.137, 16.733
870.410, 60.231
871.682, 74.550
872.955, 14.233
874.227, 191.303
875.499, 32.646
876.770, 105.055
878.042, 194.379
879.313, 13.697
880.584, 207.668
881.855, 53.975
883.126, 89.294
884.396, 170.340
885.667, 12.518
886.937, 225.201
888.207, 64.479
889.476, 100.582
890.746, 214.851
892.015, 49.886
893.284, 171.277
894.553, 99.499
895.822, 48.508
897.090, 221.719
898.359, 58.008
899.627, 128.907
900.895, 152.104
902.163, 42.673
903.430, 136.860
904.698, 36.043
905.965, 67.133
907.232, 160.306
908.499, 6.044
909.765, 123.111
911.032, 34.262
912.298, 38.515
913.564, 178.661
914.830, 31.773
916.095, 195.909
917.361, 107.041
918.626, 71.030
919.891, 287.154
921.156, 16.727
922.420, 121.347
923.685, 93.446
924.949, 60.455
926.213, 213.546
927.477, 86.633
928.740, 127.625
930.004, 243.705
931.267, 0.478
932.530, 280.611
933.793, 134.696
935.056, 91.776
936.318, 176.854
937.581, 52.558
938.843, 207.628
940.104, 208.531
941.366, 17.538
942.628, 275.510
943.889, 29.528
945.150, 169.496
946.411, 185.477
947.672, 9.505
948.932, 251.503
950.193, 98.508
951.453, 99.511
952.713, 292.510
953.973, 100.508
955.232, 267.362
956.491, 114.355
957.751, 92.188
959.010, 331.126
960.268, 146.886
961.527, 284.893
962.785, 266.759
964.044, 204.737
965.302, 467.259
966.559, 284.238
967.817, 423.216
969.075, 546.190
970.332, 307.163
971.589, 623.132
972.846, 495.934
974.102, 601.915
975.359, 936.894
976.615, 789.871
977.871, 1177.846
979.127, 1399.818
980.383, 1795.788
981.638, 2743.688
982.893, 3690.653
984.149, 6147.616
985.404, 10573.576
986.658, 15459.535
987.913, 21795.473
989.167, 17439.244
990.421, 11345.196
991.675, 7409.469
992.929, 3873.423
994.183, 2862.375
995.436, 1974.161
996.689, 1272.111
997.942, 1201.999
999.195, 752.945
1000.448, 783.890
1001.700, 682.413
1002.952, 391.363
1004.204, 586.244
1005.456, 309.336
1006.708, 293.289
1007.959, 430.992
1009.210, 192.950
1010.461, 362.927
1011.712, 285.854
1012.963, 141.834
1014.213, 293.575
1015.464, 36.605
1016.714, 255.515
1017.964, 243.230
1019.214, 43.214
1020.463, 234.013
1021.712, 113.203
1022.962, 110.201
1024.210, 216.591
1025.459, 24.602
1026.708, 319.506
1027.956, 179.528
1029.204, 64.550
1030.452, 273.397
1031.700, 26.418
1032.948, 121.434
1034.195, 211.461
1035.442, 52.510
1036.689, 225.307
1037.936, 35.311
1039.183, 126.313
1040.429, 279.317
1041.676, 36.320
1042.922, 193.631
1044.168, 181.650
1045.413, 89.668
1046.659, 266.662
1047.904, 3.693
1049.149, 99.722
1050.394, 221.756
1051.639, 13.168
1052.884, 213.833
1054.128, 91.873
1055.372, 4.849
1056.616, 160.886
1057.860, 65.077
1059.104, 100.024
1060.347, 404.029
1061.590, 110.067
1062.833, 262.018
1064.076, 104.027
1065.319, 93.111
1066.561, 308.124
1067.803, 528.316
1069.046, 503.370
1070.287, 184.423
1071.529, 29.151
1072.771, 305.205
1074.012, 118.257
1075.253, 255.310
1076.494, 333.361
1077.735, 107.616
1078.975, 411.675
1080.216, 323.735
1081.456, 277.303
1082.696, 679.362
1083.936, 461.421
1085.175, 749.480
1086.415, 792.539
1087.654, 469.615
1088.893, 674.690
1090.132, 360.765
1091.371, 311.722
1092.609, 406.795
1093.847, 95.943
1095.085, 328.032
1096.323, 298.120
1097.561, 115.489
1098.799, 288.577
1100.036, 69.664
1101.273, 81.750
1102.510, 215.190
1103.747, 42.726
1104.983, 255.488
1106.220, 78.557
1107.456, 86.688
1108.692, 240.806
1109.928, 23.890
1111.163, 116.315
1112.399, 174.396
1113.634, 64.522
1114.869, 139.239
1116.104, 86.290
1117.339, 70.339
1118.573, 318.516
1119.808, 64.565
1121.042, 276.541
1122.276, 321.590
1123.509, 190.638
1124.743, 545.972
1125.976, 465.017
1127.210, 471.061
1128.443, 775.103
1129.675, 568.144
1130.908, 914.391
1132.141, 1180.429
1133.373, 1223.466
1134.605, 1997.723
1135.837, 1836.756
1137.068, 1932.787
1138.300, 2040.203
1139.531, 1238.241
1140.762, 1171.386
1141.993, 949.432
1143.224, 471.475
1144.455, 737.743
1145.685, 394.784
1146.915, 334.822
1148.145, 458.961
1149.375, 141.995
1150.605, 354.029
1151.834, 200.116
1153.063, 9.146
1154.292, 376.624
1155.521, 92.646
1156.750, 211.676
1157.978, 243.266
1159.207, 49.290
1160.435, 295.553
1161.663, 210.788
1162.891, 39.804
1164.118, 333.817
1165.345, 110.830
1166.573, 214.837
1167.800, 261.039
1169.026, 8.041
1170.253, 263.038
1171.480, 226.674
1172.706, 134.670
1173.932, 369.028
1175.158, 186.018
1176.383, 306.003
1177.609, 476.202
1178.834, 383.181
1180.059, 799.155
1181.284, 867.033
1182.509, 1096.999
1183.734, 1803.107
1184.958, 1554.066
1186.182, 1615.023
1187.406, 1297.448
1188.630, 692.397
1189.854, 721.349
1191.077, 446.388
1192.301, 260.346
1193.524, 421.300
1194.747, 89.300
1195.969, 302.163
1197.192, 325.309
1198.414, 56.271
1199.636, 283.714
1200.858, 166.182
1202.080, 94.101
1203.302, 304.938
1204.523, 97.049
1205.744, 255.413
1206.966, 241.317
1208.186, 14.783
1209.407, 278.524
1210.628, 185.404
1211.848, 28.397
1213.068, 313.439
1214.288, 25.303
1215.508, 203.963
1216.727, 223.965
1217.947, 50.238
1219.166, 297.092
1220.385, 179.938
1221.604, 97.780
1222.822, 307.616
1224.041, 33.652
1225.259, 199.473
1226.477, 277.286
1227.695, 69.600
1228.913, 301.159
1230.130, 105.912
1231.348, 127.058
1232.565, 281.805
1233.782, 104.622
1234.999, 114.364
1236.215, 346.103
1237.432, 44.945
1238.648, 293.684
1239.864, 218.418
1241.080, 100.877
1242.296, 380.614
1243.511, 155.069
1244.726, 330.890
1245.942, 408.996
1247.156, 395.188
1248.371, 13.169
1249.586, 106.364
1250.800, 51.644
1252.014, 388.325
1253.228, 72.004
1254.442, 79.434
1255.656, 358.103
1256.869, 15.744
1258.083, 261.403
1259.296, 209.052
1260.509, 17.194
1261.722, 222.439
1262.934, 196.067
1264.147, 56.850
1265.359, 392.462
1266.571, 51.930
1267.783, 188.365
1268.994, 292.919
1270.206, 23.470
1271.417, 233.014
1272.628, 145.541
1273.839, 107.193
1275.050, 360.705
1276.260, 41.212
1277.471, 216.713
1278.681, 302.203
1279.891, 38.689
1281.101, 303.168
1282.310, 100.641
1283.520, 16.087
1284.729, 382.526
1285.938, 5.061
1287.147, 96.176
1288.356, 227.568
1289.564, 39.954
1290.773, 280.344
1291.981, 144.717
1293.189, 70.081
1294.397, 290.515
1295.604, 124.796
1296.812, 82.067
1298.019, 307.330
1299.226, 9.559
1300.433, 228.671
1301.640, 235.886
1302.846, 58.906
1304.053, 277.293
1305.259, 38.458
1306.465, 44.619
1307.671, 270.771
1308.876, 130.860
1310.082, 95.986
1311.287, 255.103
1312.492, 20.789
1313.697, 191.295
1314.902, 213.166
1316.106, 5.224
1317.310, 353.330
1318.515, 22.359
1319.719, 145.375
1320.922, 248.382
1322.126, 45.370
1323.329, 166.347
1324.533, 161.313
1325.736, 0.271
1326.939, 281.213
1328.141, 89.145
1329.344, 102.080
1330.546, 262.771
1331.748, 15.674
1332.950, 176.564
1334.152, 260.973
1335.354, 33.158
1336.555, 299.688
1337.757, 147.526
1338.958, 32.645
1340.159, 273.164
1341.359, 49.964
1342.560, 92.754
1343.760, 276.497
1344.960, 13.275
1346.160, 227.042
1347.360, 235.991
1348.560, 51.196
1349.759, 241.459
1350.959, 340.683
1352.158, 353.763
1353.357, 21.531
1354.555, 134.794
1355.754, 69.934
1356.952, 2.387
1358.151, 173.393
1359.349, 107.922
1360.546, 65.988
1361.744, 23.846
1362.941, 379.316
1364.139, 112.889
1365.336, 222.464
1366.533, 428.042
1367.730, 17.569
1368.926, 209.585
1370.123, 305.888
1371.319, 35.140
1372.515, 319.419
1373.711, 117.681
1374.906, 22.083
1376.102, 364.478
1377.297, 77.865
1378.492, 186.076
1379.687, 320.444
1380.882, 70.800
1382.077, 258.146
1383.271, 255.103
1384.465, 7.279
1385.659, 387.542
1386.853, 247.819
1388.047, 34.746
1389.240, 430.140
1390.434, 64.439
1391.627, 246.583
1392.820, 402.325
1394.013, 5.215
1395.205, 365.428
1396.398, 296.633
1397.590, 5.581
1398.782, 426.500
1399.974, 211.678
1401.166, 112.382
1402.357, 376.158
1403.549, 10.001
1404.740, 284.121
1405.931, 327.100
1407.122, 59.133
1408.313, 299.315
1409.503, 266.390
1410.693, 4.300
1411.883, 350.672
1413.073, 192.657
1414.263, 195.634
1415.453, 428.503
1416.642, 57.520
1417.831, 307.903
1419.020, 352.814
1420.209, 92.399
1421.398, 317.937
1422.587, 205.765
1423.775, 151.636
1424.963, 430.763
1426.151, 113.725
1427.339, 101.487
1428.526, 351.286
1429.714, 0.410
1430.901, 281.361
1432.088, 302.021
1433.275, 79.330
1434.462, 387.973
1435.648, 286.883
1436.835, 60.205
1438.021, 400.576
1439.207, 144.889
1440.393, 211.221
1441.579, 427.541
1442.764, 62.568
1443.949, 280.205
1445.135, 372.521
1446.320, 57.995
1447.504, 409.076
1448.689, 230.039
1449.873, 106.179
1451.058, 415.705
1452.242, 144.037
1453.426, 199.729
1454.609, 479.723
1455.793, 121.965
1456.976, 297.049
1458.159, 487.873
1459.342, 42.662
1460.525, 357.727
1461.708, 367.964
1462.890, 78.586
1464.073, 448.272
1465.255, 288.871
1466.437, 139.106
1467.619, 484.672
1468.800, 143.193
1469.982, 275.660
1471.163, 461.134
1472.344, 7.329
1473.525, 413.419
1474.706, 309.810
1475.886, 19.822
1477.066, 528.455
1478.247, 123.243
1479.427, 88.040
1480.607, 423.919
1481.786, 188.707
1482.966, 159.562
1484.145, 505.469
1485.324, 58.387
1486.503, 347.410
1487.682, 342.171
1488.860, 14.338
1490.039, 431.605
1491.217, 324.986
1492.395, 143.451
1493.573, 436.009
1494.751, 201.525
1495.928, 190.117
1497.106, 453.220
1498.283, 105.344
1499.460, 238.489
1500.637, 304.648
1501.814, 23.187
1502.990, 384.818
1504.166, 276.631
1505.342, 74.533
1506.518, 470.118
1507.694, 187.053
1508.870, 171.180
1510.045, 326.925
1511.221, 15.616
1512.396, 172.165
1513.571, 286.583
1514.745, 0.000
##END=



