##NAMES=Crocoite
##RRUFFID=R050044
##IDEAL CHEMISTRY=Pb^2+^Cr^6+^O_4_
##LOCALITY=Red Ledge mine, Dundas, Tasmania
##OWNER=RRUFF
##SOURCE=Eugene Schlepp
##DESCRIPTION=Red crystal fragment
##STATUS=The identification of this mineral has been confirmed by X-ray diffraction and chemical analysis
##URL=rruff.info/R050044
##MEASURED CHEMISTRY=Pb_1.02_Cr_0.99_O_4_
##PIN_ID=L00130
##ORIENTATION=Laser parallel to b* (0 1 0). Fiducial mark perpendicular to laser is parallel to -c [0 0 -1]
171.945, 0.000
173.333, 0.732
174.720, 111.875
176.108, 66.655
177.495, 60.915
178.881, 81.068
180.268, 96.747
181.654, 90.426
183.040, 95.522
184.426, 68.296
185.812, 113.688
187.197, 125.044
188.582, 167.177
189.967, 148.196
191.351, 188.323
192.736, 136.865
194.120, 149.888
195.504, 124.900
196.887, 165.443
198.271, 138.226
199.654, 81.107
201.036, 114.718
202.419, 105.995
203.801, 101.170
205.184, 74.589
206.565, 61.667
207.947, 49.910
209.328, 33.826
210.710, 40.529
212.090, 8.952
213.471, 63.838
214.851, 79.374
216.232, 64.845
217.611, 62.043
218.991, 32.181
220.370, 81.202
221.750, 99.674
223.129, 63.990
224.507, 78.121
225.886, 75.260
227.264, 70.459
228.642, 75.568
230.019, 8.433
231.397, 75.739
232.774, 34.083
234.151, 37.774
235.528, 111.565
236.904, 59.413
238.281, 33.355
239.656, 28.652
241.032, 20.559
242.408, 95.745
243.783, 58.000
245.158, 10.790
246.533, 75.481
247.907, 46.239
249.282, 21.961
250.656, 13.646
252.029, 61.287
253.403, 19.888
254.776, 59.494
256.149, 47.209
257.522, 15.030
258.895, 8.944
260.267, 7.064
261.639, 18.995
263.011, 22.892
264.382, 1.734
265.754, 24.459
267.125, 5.321
268.496, 15.084
269.866, 6.841
271.237, 1.601
272.607, 28.622
273.977, 60.821
275.346, 7.987
276.716, 49.123
278.085, 47.221
279.454, 2.277
280.823, 33.711
282.191, 9.515
283.559, 8.171
284.927, 36.794
286.295, 17.966
287.662, 13.669
289.030, 13.803
290.397, 4.793
291.763, 9.594
293.130, 44.183
294.496, 22.223
295.862, 35.252
297.228, 54.898
298.594, 27.472
299.959, 63.863
301.324, 50.832
302.689, 47.881
304.053, 52.886
305.418, 45.871
306.782, 28.657
308.146, 105.521
309.509, 47.308
310.873, 31.916
312.236, 92.412
313.599, 86.960
314.961, 84.629
316.324, 96.840
317.686, 111.187
319.048, 136.357
320.409, 179.409
321.771, 223.340
323.132, 260.223
324.493, 304.999
325.854, 364.753
327.214, 389.474
328.574, 451.983
329.934, 459.463
331.294, 477.006
332.654, 497.462
334.013, 606.885
335.372, 720.444
336.731, 849.065
338.089, 946.819
339.448, 977.870
340.806, 1030.019
342.164, 962.998
343.521, 908.957
344.879, 817.519
346.236, 778.066
347.593, 714.387
348.949, 637.625
350.306, 587.656
351.662, 519.653
353.018, 503.406
354.373, 456.076
355.729, 449.578
357.084, 484.068
358.439, 447.332
359.794, 419.521
361.148, 388.543
362.503, 339.433
363.857, 313.117
365.210, 287.724
366.564, 219.048
367.917, 250.158
369.270, 249.139
370.623, 236.833
371.976, 302.334
373.328, 420.665
374.680, 545.896
376.032, 711.785
377.384, 871.950
378.735, 920.048
380.086, 857.957
381.437, 804.709
382.788, 692.140
384.138, 553.735
385.488, 441.294
386.838, 346.636
388.188, 264.980
389.538, 214.244
390.887, 172.317
392.236, 147.320
393.585, 142.579
394.933, 144.456
396.282, 140.918
397.630, 170.310
398.977, 175.176
400.325, 156.690
401.672, 142.925
403.020, 141.865
404.366, 123.069
405.713, 135.688
407.059, 126.029
408.406, 127.783
409.752, 120.224
411.097, 109.174
412.443, 87.334
413.788, 89.082
415.133, 88.362
416.478, 91.182
417.822, 90.418
419.167, 80.608
420.511, 58.417
421.854, 65.130
423.198, 61.402
424.541, 60.024
425.884, 78.078
427.227, 85.462
428.570, 107.691
429.912, 70.163
431.254, 89.455
432.596, 78.434
433.938, 67.790
435.280, 68.038
436.621, 71.687
437.962, 94.820
439.303, 84.955
440.643, 79.197
441.983, 90.689
443.323, 73.460
444.663, 109.133
446.003, 91.102
447.342, 124.719
448.681, 130.057
450.020, 103.473
451.359, 91.313
452.697, 120.935
454.035, 104.344
455.373, 72.805
456.711, 145.800
458.048, 108.773
459.386, 105.971
460.723, 109.941
462.059, 118.621
463.396, 130.273
464.732, 136.408
466.068, 142.131
467.404, 152.159
468.740, 158.729
470.075, 165.925
471.410, 159.678
472.745, 169.008
474.080, 179.320
475.414, 183.233
476.748, 168.650
478.082, 180.133
479.416, 170.711
480.749, 221.263
482.083, 210.751
483.416, 203.465
484.749, 209.246
486.081, 170.006
487.413, 193.638
488.745, 188.376
490.077, 182.039
491.409, 197.603
492.740, 178.172
494.072, 193.734
495.402, 136.244
496.733, 168.722
498.064, 173.157
499.394, 134.554
500.724, 146.908
502.054, 125.227
503.383, 98.499
504.712, 161.730
506.041, 131.922
507.370, 152.074
508.699, 139.579
510.027, 154.656
511.355, 129.696
512.683, 152.699
514.011, 135.684
515.338, 138.615
516.666, 104.512
517.993, 126.373
519.319, 110.200
520.646, 118.993
521.972, 119.753
523.298, 111.480
524.624, 150.175
525.950, 118.840
527.275, 159.474
528.600, 130.079
529.925, 150.655
531.250, 159.204
532.574, 149.728
533.898, 170.225
535.222, 148.698
536.546, 145.147
537.869, 198.571
539.193, 195.970
540.516, 158.346
541.839, 166.699
543.161, 240.030
544.484, 271.339
545.806, 323.625
547.128, 378.891
548.449, 499.134
549.771, 628.357
551.092, 695.406
552.413, 851.332
553.734, 836.226
555.054, 825.109
556.374, 705.964
557.694, 596.926
559.014, 508.892
560.334, 427.765
561.653, 340.567
562.972, 257.352
564.291, 238.045
565.610, 189.776
566.928, 173.451
568.247, 155.124
569.565, 113.749
570.882, 149.315
572.200, 123.777
573.517, 111.237
574.834, 122.678
576.151, 107.121
577.468, 87.547
578.784, 83.917
580.100, 74.161
581.416, 61.855
582.732, 60.704
584.047, 38.941
585.362, 32.265
586.677, 16.319
587.992, 12.035
589.307, 2.290
590.621, 27.614
591.935, 18.887
593.249, 6.893
594.563, 7.298
595.876, 27.516
597.189, 36.275
598.502, 23.129
599.815, 38.047
601.127, 46.966
602.440, 37.993
603.752, 13.911
605.064, 18.934
606.375, 18.851
607.686, 9.780
608.998, 13.834
610.308, 6.021
611.619, 9.991
612.930, 5.108
614.240, 0.378
615.550, 0.446
616.860, 2.388
618.169, 3.648
619.478, 10.815
620.787, 28.970
622.096, 32.113
623.405, 37.652
624.713, 38.514
626.021, 34.617
627.329, 37.801
628.637, 20.997
629.945, 33.246
631.252, 11.491
632.559, 22.712
633.866, 31.944
635.172, 6.729
636.479, 0.442
637.785, 15.105
639.091, 14.140
640.396, 31.595
641.702, 8.318
643.007, 6.028
644.312, 29.635
645.617, 0.322
646.921, 7.989
648.226, 35.621
649.530, 16.273
650.834, 10.875
652.137, 16.506
653.441, 21.918
654.744, 25.461
656.047, 27.016
657.350, 26.404
658.652, 7.838
659.954, 21.177
661.256, 7.399
662.558, 7.881
663.860, 45.235
665.161, 14.331
666.462, 26.042
667.763, 12.475
669.064, 25.801
670.365, 0.780
671.665, 29.565
672.965, 63.921
674.265, 28.132
675.564, 36.434
676.864, 56.667
678.163, 42.935
679.462, 41.207
680.760, 98.443
682.059, 100.842
683.357, 35.110
684.655, 82.549
685.953, 72.865
687.250, 70.269
688.548, 70.708
689.845, 81.111
691.142, 81.111
692.438, 79.208
693.735, 98.337
695.031, 86.763
696.327, 111.186
697.623, 114.125
698.918, 118.026
700.214, 125.444
701.509, 134.860
702.804, 131.275
704.098, 144.689
705.393, 117.102
706.687, 157.514
707.981, 171.927
709.275, 245.340
710.568, 128.755
711.861, 125.170
713.155, 133.586
714.447, 169.004
715.740, 188.422
717.032, 165.842
718.325, 157.264
719.617, 175.688
720.908, 154.114
722.200, 198.542
723.491, 137.974
724.782, 199.407
726.073, 172.809
727.364, 204.249
728.654, 169.693
729.944, 235.112
731.234, 212.565
732.524, 224.986
733.814, 206.336
735.103, 219.681
736.392, 209.997
737.681, 219.807
738.969, 268.553
740.258, 244.754
741.546, 262.939
742.834, 279.907
744.122, 279.750
745.409, 244.146
746.697, 276.357
747.984, 284.504
749.270, 263.422
750.557, 281.212
751.844, 292.901
753.130, 284.075
754.416, 303.108
755.701, 275.241
756.987, 313.852
758.272, 307.065
759.557, 324.828
760.842, 331.772
762.127, 326.496
763.411, 329.996
764.695, 323.931
765.979, 310.399
767.263, 319.661
768.547, 292.273
769.830, 332.229
771.113, 343.225
772.396, 318.145
773.679, 379.032
774.961, 399.514
776.243, 368.903
777.525, 412.141
778.807, 437.080
780.089, 422.016
781.370, 420.247
782.651, 469.329
783.932, 522.527
785.213, 518.012
786.493, 566.909
787.773, 569.170
789.053, 627.906
790.333, 672.618
791.613, 670.294
792.892, 709.090
794.171, 799.126
795.450, 858.038
796.729, 898.873
798.007, 961.721
799.285, 993.688
800.563, 1046.539
801.841, 1055.458
803.119, 1147.474
804.396, 1217.482
805.673, 1331.489
806.950, 1443.553
808.227, 1557.575
809.504, 1583.751
810.780, 1846.876
812.056, 1987.018
813.332, 2204.176
814.607, 2470.356
815.883, 2835.552
817.158, 3448.772
818.433, 3991.010
819.708, 5039.880
820.982, 6458.163
822.256, 8050.466
823.531, 9820.784
824.804, 12029.104
826.078, 13537.456
827.352, 14005.832
828.625, 13764.226
829.898, 13022.643
831.170, 12671.089
832.443, 12699.562
833.715, 13638.061
834.988, 14556.577
836.259, 15935.120
837.531, 17083.689
838.803, 17572.279
840.074, 17340.887
841.345, 17189.518
842.616, 16498.168
843.886, 16306.833
845.157, 16515.521
846.427, 15764.228
847.697, 15462.951
848.966, 14201.690
850.236, 12690.453
851.505, 11349.233
852.774, 9668.028
854.043, 8416.846
855.312, 7822.684
856.580, 6680.541
857.849, 6065.417
859.117, 5375.312
860.384, 4814.221
861.652, 4237.148
862.919, 3809.091
864.186, 3378.051
865.453, 3029.027
866.720, 2862.020
867.986, 2532.029
869.253, 2359.053
870.519, 2166.094
871.784, 2020.152
873.050, 1859.226
874.315, 1759.316
875.581, 1588.423
876.846, 1590.546
878.110, 1437.685
879.375, 1407.841
880.639, 1321.013
881.903, 1193.202
883.167, 1196.407
884.431, 1127.629
885.694, 1078.867
886.957, 1113.122
888.220, 1007.394
889.483, 1000.682
890.746, 922.988
892.008, 928.311
893.270, 859.652
894.532, 824.010
895.794, 830.387
897.056, 772.784
898.317, 762.202
899.578, 771.667
900.839, 693.121
902.099, 730.597
903.360, 702.094
904.620, 685.620
905.880, 622.176
907.140, 718.759
908.399, 628.374
909.659, 619.021
910.918, 638.699
912.177, 556.402
913.435, 586.177
914.694, 556.345
915.952, 557.250
917.210, 502.049
918.468, 532.868
919.726, 478.710
920.983, 483.108
922.240, 559.990
923.497, 551.122
924.754, 543.042
926.011, 515.981
927.267, 501.941
928.523, 516.927
929.779, 506.976
931.035, 495.646
932.290, 507.662
933.546, 460.755
934.801, 459.157
936.056, 431.945
937.310, 450.057
938.565, 405.243
939.819, 375.468
941.073, 459.813
942.327, 404.086
943.580, 400.346
944.833, 371.455
946.087, 331.906
947.340, 399.212
948.592, 356.611
949.845, 362.945
951.097, 350.292
952.349, 309.653
953.601, 307.222
954.853, 346.921
956.104, 314.321
957.355, 356.287
958.606, 317.713
959.857, 315.128
961.108, 294.643
962.358, 305.336
963.608, 280.335
964.858, 271.407
966.108, 274.734
967.357, 249.449
968.607, 275.668
969.856, 281.838
971.105, 259.582
972.353, 266.432
973.602, 250.978
974.850, 245.113
976.098, 223.747
977.346, 218.051
978.594, 202.252
979.841, 224.143
981.088, 216.307
982.335, 168.917
983.582, 213.171
984.828, 186.858
986.075, 140.208
987.321, 173.947
988.567, 134.255
989.812, 181.153
991.058, 144.448
992.303, 132.202
993.548, 136.601
994.793, 109.706
996.038, 66.477
997.282, 112.857
998.526, 89.594
999.770, 127.478
1001.014, 73.807
1002.258, 56.564
1003.501, 84.890
1004.744, 61.080
1005.987, 80.863
1007.230, 21.480
1008.473, 32.282
1009.715, 57.074
1010.957, 74.944
1012.199, 82.927
1013.441, 31.735
1014.682, 30.570
1015.923, 17.388
1017.164, 14.693
1018.405, 31.039
1019.646, 33.872
1020.886, 33.709
1022.127, 43.551
1023.367, 38.396
1024.606, 21.246
1025.846, 36.100
1027.085, 22.432
1028.325, 31.820
1029.564, 14.687
1030.802, 12.557
1032.041, 15.432
1033.279, 15.828
1034.517, 16.191
1035.755, 36.077
1036.993, 5.966
1038.230, 23.859
1039.468, 58.755
1040.705, 23.653
1041.942, 47.554
1043.178, 45.458
1044.415, 24.363
1045.651, 38.273
1046.887, 34.185
1048.123, 2.902
1049.358, 62.017
1050.594, 40.936
1051.829, 48.864
1053.064, 22.793
1054.299, 20.723
1055.533, 28.653
1056.768, 7.586
1058.002, 29.519
1059.236, 41.451
1060.469, 7.386
1061.703, 3.680
1062.936, 17.747
1064.169, 7.819
1065.402, 47.107
1066.635, 7.032
1067.867, 22.955
1069.100, 19.123
1070.332, 14.792
1071.564, 10.295
1072.795, 7.614
1074.027, 25.521
1075.258, 22.426
1076.489, 3.329
1077.720, 1.770
1078.950, 15.873
1080.181, 1.984
1081.411, 1.903
1082.641, 44.213
1083.871, 16.353
1085.100, 37.502
1086.330, 2.327
1087.559, 0.153
1088.788, 3.022
1090.016, 36.202
1091.245, 25.595
1092.473, 15.609
1093.701, 2.826
1094.929, 2.950
1096.157, 0.278
1097.384, 7.884
1098.612, 54.245
1099.839, 12.999
1101.066, 17.252
1102.292, 18.520
1103.519, 26.195
1104.745, 37.096
1105.971, 35.585
1107.197, 26.740
1108.423, 5.911
1109.648, 2.556
1110.873, 17.809
1112.098, 0.806
1113.323, 14.410
1114.548, 26.993
1115.772, 2.421
1116.996, 16.863
1118.220, 9.322
1119.444, 12.798
1120.667, 24.705
1121.891, 6.201
1123.114, 19.687
1124.337, 14.835
1125.560, 3.620
1126.782, 6.937
1128.004, 42.513
1129.227, 17.128
1130.448, 26.767
1131.670, 31.562
1132.892, 27.113
1134.113, 16.819
1135.334, 7.448
1136.555, 2.300
1137.776, 8.067
1138.996, 34.144
1140.216, 8.345
1141.436, 3.469
1142.656, 38.697
1143.876, 10.853
1145.095, 54.018
1146.315, 2.150
1147.534, 14.273
1148.753, 58.371
1149.971, 3.539
1151.190, 20.630
1152.408, 6.685
1153.626, 10.723
1154.844, 56.789
1156.061, 82.800
1157.279, 44.811
1158.496, 34.802
1159.713, 65.781
1160.930, 59.751
1162.146, 86.718
1163.363, 76.668
1164.579, 108.607
1165.795, 94.754
1167.010, 83.672
1168.226, 109.596
1169.441, 118.531
1170.657, 113.418
1171.871, 108.323
1173.086, 112.273
1174.301, 118.227
1175.515, 104.535
1176.729, 116.422
1177.943, 109.246
1179.157, 97.290
1180.370, 149.120
1181.584, 115.422
1182.797, 120.341
1184.010, 122.364
1185.222, 109.219
1186.435, 179.067
1187.647, 140.798
1188.859, 123.738
1190.071, 192.541
1191.283, 191.758
1192.494, 170.482
1193.706, 197.277
1194.917, 168.900
1196.128, 142.578
1197.338, 148.798
1198.549, 198.597
1199.759, 196.205
1200.969, 206.963
1202.179, 191.907
1203.389, 226.528
1204.598, 221.139
1205.807, 210.175
1207.016, 209.706
1208.225, 209.348
1209.434, 278.472
1210.642, 196.881
1211.850, 217.357
1213.058, 254.820
1214.266, 213.356
1215.474, 210.257
1216.681, 224.679
1217.889, 219.029
1219.096, 194.424
1220.302, 250.949
1221.509, 183.322
1222.715, 265.792
1223.922, 206.206
1225.128, 193.998
1226.334, 198.670
1227.539, 205.166
1228.745, 195.255
1229.950, 168.065
1231.155, 181.375
1232.360, 156.678
1233.564, 199.058
1234.769, 161.158
1235.973, 195.512
1237.177, 165.395
1238.381, 195.807
1239.584, 157.839
1240.787, 217.086
1241.991, 215.151
1243.194, 141.316
1244.396, 186.437
1245.599, 155.579
1246.801, 158.625
1248.004, 191.513
1249.206, 168.724
1250.407, 155.234
1251.609, 191.397
1252.810, 120.464
1254.012, 136.499
1255.212, 162.336
1256.413, 151.889
1257.614, 165.565
1258.814, 184.527
1260.014, 156.464
1261.214, 148.934
1262.414, 181.363
1263.614, 168.204
1264.813, 144.720
1266.012, 135.671
1267.211, 154.502
1268.410, 108.358
1269.609, 125.834
1270.807, 151.218
1272.005, 156.905
1273.203, 159.912
1274.401, 164.266
1275.598, 150.596
1276.796, 141.244
1277.993, 128.456
1279.190, 118.195
1280.387, 116.454
1281.583, 115.026
1282.780, 97.262
1283.976, 131.973
1285.172, 92.032
1286.368, 91.747
1287.563, 120.441
1288.759, 71.568
1289.954, 101.288
1291.149, 73.944
1292.343, 98.078
1293.538, 84.767
1294.732, 50.142
1295.927, 110.816
1297.121, 77.702
1298.314, 62.693
1299.508, 121.307
1300.701, 70.997
1301.895, 83.510
1303.087, 91.994
1304.280, 78.680
1305.473, 71.211
1306.665, 98.979
1307.857, 76.495
1309.049, 33.001
1310.241, 100.538
1311.433, 69.025
1312.624, 63.500
1313.815, 98.964
1315.006, 65.418
1316.197, 52.006
1317.388, 48.586
1318.578, 17.114
1319.768, 60.054
1320.958, 82.542
1322.148, 31.010
1323.338, 65.396
1324.527, 14.746
1325.716, 40.077
1326.906, 28.396
1328.094, 47.692
1329.283, 46.128
1330.471, 77.248
1331.660, 30.509
1332.848, 47.753
1334.035, 12.985
1335.223, 60.204
1336.411, 40.405
1337.598, 0.583
1338.785, 61.742
1339.972, 9.112
1341.158, 33.012
1342.345, 71.119
1343.531, 34.215
1344.717, 18.325
1345.903, 55.393
1347.089, 54.499
1348.274, 11.582
1349.459, 95.587
1350.644, 31.576
1351.829, 57.551
1353.014, 54.514
1354.198, 66.464
1355.383, 67.399
1356.567, 44.321
1357.751, 67.228
1358.934, 79.124
1360.118, 29.006
1361.301, 116.874
1362.484, 31.759
1363.667, 61.595
1364.850, 34.417
1366.032, 35.227
1367.215, 83.024
1368.397, 10.811
1369.579, 23.585
1370.760, 39.344
1371.942, 24.103
1373.123, 74.855
1374.304, 44.607
1375.485, 6.594
1376.666, 67.093
1377.847, 23.350
1379.027, 0.596
1380.207, 41.830
1381.387, 52.047
1382.567, 35.246
1383.747, 61.443
1384.926, 48.639
1386.105, 60.839
1387.284, 48.033
1388.463, 25.229
1389.641, 28.420
1390.820, 25.346
1391.998, 54.813
1393.176, 28.005
1394.354, 53.190
1395.532, 37.379
1396.709, 41.604
1397.886, 36.847
1399.063, 36.111
1400.240, 61.386
1401.417, 19.672
1402.593, 15.962
1403.769, 8.778
1404.945, 29.498
1406.121, 44.787
1407.297, 41.951
1408.472, 9.190
1409.648, 67.469
1410.823, 8.754
1411.998, 29.019
1413.172, 30.285
1414.347, 19.247
1415.521, 54.420
1416.695, 27.620
1417.869, 5.410
1419.043, 31.069
1420.216, 61.932
1421.390, 27.329
1422.563, 63.913
1423.736, 33.767
1424.909, 58.585
1426.081, 56.778
1427.254, 2.649
1428.426, 42.148
1429.598, 26.417
1430.770, 37.210
1431.941, 17.583
1433.113, 31.710
1434.284, 34.448
1435.455, 2.329
1436.626, 1.647
1437.796, 3.227
1438.967, 6.674
1440.137, 35.705
1441.307, 18.505
1442.477, 59.322
1443.646, 18.196
1444.816, 13.683
1445.985, 59.580
1447.154, 2.254
1448.323, 36.453
1449.492, 59.206
1450.660, 25.937
1451.829, 44.776
1452.997, 44.289
1454.165, 52.609
1455.332, 71.209
1456.500, 6.873
1457.667, 6.403
1458.834, 11.017
1460.001, 5.134
1461.168, 8.752
1462.335, 9.772
1463.501, 23.823
1464.667, 28.336
1465.833, 33.191
1466.999, 30.318
1468.165, 37.050
1469.330, 39.109
1470.495, 33.227
1471.660, 66.510
1472.825, 41.567
1473.990, 33.533
1475.154, 22.267
1476.318, 48.381
1477.482, 30.963
1478.646, 39.153
1479.810, 31.768
1480.974, 48.858
1482.137, 63.792
1483.300, 29.678
1484.463, 9.318
1485.626, 22.073
1486.788, 2.088
1487.950, 2.444
1489.113, 11.753
1490.275, 15.192
1491.436, 20.819
1492.598, 43.130
1493.759, 28.421
1494.920, 33.638
1496.081, 48.782
1497.242, 44.972
1498.403, 16.198
1499.563, 52.425
1500.724, 5.340
1501.884, 1.097
1503.043, 22.619
1504.203, 7.963
1505.363, 14.305
1506.522, 44.665
1507.681, 11.054
1508.840, 16.497
1509.999, 52.469
1511.157, 75.180
1512.315, 41.023
1513.474, 70.177
1514.632, 0.129
1515.789, 0.000
##END=



