##NAMES=Cuprite
##RRUFFID=R050384
##IDEAL CHEMISTRY=Cu^1+^_2_O
##LOCALITY=Lavender Pit, Bisbee, Warren District, Cochise County, Arizona, USA
##OWNER=RRUFF
##SOURCE=University of Arizona Mineral Museum
##DESCRIPTION=Deep red to nearly black cubes
##STATUS=The identification of this mineral has been confirmed by X-ray diffraction and chemical analysis
##URL=rruff.info/R050384
##MEASURED CHEMISTRY=Cu_2.00_O
##PIN_ID=M00339
##ORIENTATION=Laser parallel to b* (0 1 0). Fiducial mark perpendicular to laser is parallel to c [0 0 1]
53.91000, 0.0000000E+00
55.14900, 153.5381
56.38700, 83.49487
57.62600, 141.7378
58.86400, 262.6970
60.10300, 347.7227
61.34100, 240.2703
62.57900, 51.14355
63.81700, 49.05200
65.05400, 23.75317
66.29200, 40.38086
67.52900, 50.67896
68.76700, 206.0786
70.00400, 300.5117
71.24100, 282.7102
72.47700, 163.4395
73.71400, 448.4988
74.95100, 487.7065
76.18700, 699.8979
77.42300, 716.9224
78.65900, 872.6450
79.89500, 1052.945
81.13100, 1305.711
82.36700, 1574.846
83.60200, 1684.264
84.83700, 1809.884
86.07200, 1791.636
87.30800, 1809.457
88.54200, 2146.288
89.77700, 2375.079
91.01200, 2710.797
92.24600, 2966.412
93.48000, 3197.865
94.71400, 3267.101
95.94800, 3303.077
97.18200, 3537.755
98.41600, 3842.097
99.64900, 4150.070
100.8830, 4483.639
102.1160, 4667.775
103.3490, 5035.449
104.5820, 5701.639
105.8150, 6268.012
107.0470, 6444.896
108.2800, 6555.789
109.5120, 6604.140
110.7440, 6401.495
111.9760, 6523.914
113.2080, 6516.629
114.4400, 6867.461
115.6710, 6665.510
116.9030, 6441.923
118.1340, 6086.690
119.3650, 5751.805
120.5960, 5518.256
121.8270, 5790.038
123.0580, 5743.141
124.2880, 5764.561
125.5190, 5531.349
126.7490, 5745.605
127.9790, 5888.356
129.2090, 6074.456
130.4390, 6161.707
131.6680, 6424.168
132.8980, 6572.740
134.1270, 6678.433
135.3560, 6941.328
136.5850, 7123.447
137.8140, 7294.794
139.0430, 7574.240
140.2710, 7663.857
141.5000, 7616.663
142.7280, 7212.610
143.9560, 7214.719
145.1840, 6995.941
146.4120, 6838.281
147.6390, 6526.742
148.8670, 6481.327
150.0940, 6536.038
151.3210, 6412.880
152.5490, 6178.853
153.7750, 6168.918
155.0020, 6107.199
156.2290, 5974.575
157.4550, 5940.084
158.6810, 5842.732
159.9080, 5679.517
161.1340, 5635.438
162.3590, 5488.494
163.5850, 5448.688
164.8110, 5208.015
166.0360, 5172.479
167.2610, 5158.078
168.4860, 5256.808
169.7110, 5408.673
170.9360, 5466.671
172.1610, 5242.800
173.3850, 5519.060
174.6100, 5511.449
175.8340, 5647.967
177.0580, 5856.615
178.2820, 6065.389
179.5050, 6292.291
180.7290, 6495.319
181.9520, 6761.475
183.1760, 7185.753
184.3990, 7756.159
185.6220, 8072.698
186.8450, 8523.366
188.0670, 8591.158
189.2900, 8628.069
190.5120, 8688.101
191.7340, 8716.250
192.9560, 8855.519
194.1780, 9041.903
195.4000, 9661.215
196.6220, 10383.93
197.8430, 10568.15
199.0640, 10459.77
200.2860, 10464.51
201.5070, 10359.33
202.7270, 10204.84
203.9480, 10214.48
205.1690, 10481.47
206.3890, 10490.53
207.6090, 11362.38
208.8290, 12286.15
210.0490, 13075.61
211.2690, 13874.37
212.4890, 15275.20
213.7080, 15960.58
214.9280, 16697.07
216.1470, 17358.09
217.3660, 17387.44
218.5850, 16323.99
219.8030, 14756.33
221.0220, 12852.29
222.2400, 10932.49
223.4590, 9331.380
224.6770, 8145.275
225.8950, 7073.898
227.1120, 6612.652
228.3300, 5961.720
229.5480, 5541.588
230.7650, 5117.972
231.9820, 4704.460
233.1990, 4395.835
234.4160, 4061.373
235.6330, 3825.062
236.8490, 3519.904
238.0660, 3391.893
239.2820, 3094.021
240.4980, 2972.289
241.7140, 2773.691
242.9300, 2432.224
244.1460, 2387.884
245.3610, 2228.668
246.5770, 2175.574
247.7920, 1948.600
249.0070, 1967.741
250.2220, 1749.998
251.4370, 1752.377
252.6510, 1611.864
253.8660, 1311.557
255.0800, 1422.271
256.2940, 1466.583
257.5080, 1448.066
258.7220, 1178.236
259.9360, 1233.153
261.1490, 1158.078
262.3630, 1077.746
263.5760, 1178.658
264.7890, 945.8867
266.0020, 1006.930
267.2150, 926.5908
268.4270, 918.4697
269.6400, 849.4746
270.8520, 885.0977
272.0640, 797.1035
273.2760, 753.1885
274.4880, 821.3545
275.7000, 948.5986
276.9120, 838.9189
278.1230, 828.3164
279.3340, 849.7910
280.5450, 826.3418
281.7560, 784.9668
282.9670, 731.6670
284.1780, 729.4404
285.3880, 695.2871
286.5980, 734.2070
287.8090, 795.1992
289.0190, 734.2627
290.2290, 616.3965
291.4380, 710.6016
292.6480, 655.8770
293.8570, 751.2217
295.0670, 604.6357
296.2760, 725.1191
297.4850, 789.6719
298.6930, 634.2920
299.9020, 814.9805
301.1110, 679.7363
302.3190, 689.5615
303.5270, 787.4688
304.7350, 694.4648
305.9430, 590.5508
307.1510, 647.7246
308.3580, 648.9609
309.5660, 624.2637
310.7730, 641.6289
311.9800, 399.0576
313.1870, 505.5488
314.3940, 526.3066
315.6010, 656.9941
316.8070, 318.7842
318.0130, 369.5215
319.2200, 328.3193
320.4260, 409.1768
321.6310, 303.0938
322.8370, 271.0693
324.0430, 312.1035
325.2480, 254.1973
326.4540, 173.3477
327.6590, 180.5557
328.8640, 128.8203
330.0680, 132.1426
331.2730, 69.51953
332.4780, 65.95410
333.6820, 35.12109
334.8860, 76.01270
336.0900, 6.572266
337.2940, 0.2109380
338.4980, 41.90234
339.7010, 131.3535
340.9050, 20.59375
342.1080, 142.7900
343.3110, 8.013672
344.5140, 137.1641
345.7170, 213.3438
346.9200, 239.5332
348.1220, 69.74023
349.3240, 103.8936
350.5270, 91.00488
351.7290, 171.0674
352.9310, 141.1143
354.1320, 92.13574
355.3340, 107.1055
356.5350, 120.0176
357.7370, 136.8896
358.9380, 113.7324
360.1390, 74.54785
361.3400, 138.3223
362.5400, 51.08203
363.7410, 165.7939
364.9410, 0.5058590
366.1410, 0.1552730
367.3410, 62.25879
368.5410, 51.25879
369.7410, 83.73242
370.9400, 15.18066
372.1400, 83.57520
373.3390, 48.05566
374.5380, 8.752930
375.7370, 57.49219
376.9360, 52.29688
378.1350, 196.1484
379.3330, 119.0645
380.5310, 366.2832
381.7300, 171.3223
382.9280, 173.4229
384.1260, 241.6436
385.3230, 426.8652
386.5210, 528.1475
387.7180, 480.4883
388.9160, 539.8877
390.1130, 609.3447
391.3100, 628.8613
392.5060, 784.4346
393.7030, 787.0645
394.9000, 764.0000
396.0960, 930.7432
397.2920, 1030.543
398.4880, 1036.396
399.6840, 1160.307
400.8800, 1195.270
402.0750, 1302.288
403.2710, 1289.360
404.4660, 1340.486
405.6610, 1350.666
406.8560, 1372.898
408.0510, 1484.182
409.2450, 1446.520
410.4400, 1388.908
411.6340, 1342.352
412.8280, 1453.848
414.0220, 1307.396
415.2160, 1391.993
416.4100, 1192.642
417.6030, 1196.341
418.7970, 1321.092
419.9900, 1086.891
421.1830, 1129.747
422.3760, 1137.654
423.5690, 956.6094
424.7610, 977.6172
425.9540, 967.6738
427.1460, 850.7812
428.3380, 772.9434
429.5300, 775.1543
430.7220, 650.4141
431.9140, 645.7256
433.1050, 481.0889
434.2970, 505.5000
435.4880, 309.9590
436.6790, 483.4658
437.8700, 234.0244
439.0610, 340.6328
440.2510, 311.2949
441.4420, 314.0049
442.6320, 249.8174
443.8220, 264.8594
445.0120, 247.3311
446.2020, 254.3398
447.3910, 259.4727
448.5810, 215.6504
449.7700, 249.4199
450.9600, 224.6641
452.1490, 188.3711
453.3370, 193.5615
454.5260, 157.7959
455.7150, 113.0752
456.9030, 78.40039
458.0910, 42.76855
459.2800, 85.16699
460.4670, 230.6064
461.6550, 153.1992
462.8430, 207.6914
464.0300, 152.1768
465.2180, 166.7861
466.4050, 289.4404
467.5920, 214.1396
468.7790, 130.9053
469.9650, 267.7129
471.1520, 402.5664
472.3380, 167.4902
473.5250, 316.4805
474.7110, 279.5107
475.8970, 300.5811
477.0820, 438.6914
478.2680, 536.1357
479.4540, 548.3193
480.6390, 556.4609
481.8240, 552.7773
483.0090, 331.6484
484.1940, 444.2969
485.3780, 455.6514
486.5630, 346.0986
487.7470, 420.6826
488.9320, 233.4863
490.1160, 425.9551
491.3000, 412.6123
492.4830, 220.6914
493.6670, 353.3545
494.8500, 347.1904
496.0340, 392.5156
497.2170, 248.1152
498.4000, 338.0205
499.5820, 200.3281
500.7650, 284.8164
501.9480, 264.4102
503.1300, 254.8096
504.3120, 202.2002
505.4940, 201.1621
506.6760, 156.6816
507.8580, 179.3281
509.0390, 187.0049
510.2210, 193.2227
511.4020, 182.9160
512.5830, 167.7500
513.7640, 130.8584
514.9450, 111.8779
516.1250, 54.31641
517.3060, 61.48242
518.4860, 39.05078
519.6660, 46.24414
520.8460, 39.83398
522.0260, 1.460938
523.2060, 20.12012
524.3850, 69.81445
525.5650, 6.546875
526.7440, 44.10352
527.9230, 37.11621
529.1020, 38.95410
530.2810, 67.82617
531.4590, 36.73730
532.6380, 104.6826
533.8160, 17.66406
534.9940, 28.68359
536.1720, 40.26172
537.3500, 36.80566
538.5270, 88.90723
539.7050, 38.04102
540.8820, 173.2168
542.0590, 189.4336
543.2360, 241.6826
544.4130, 174.9639
545.5900, 187.2773
546.7660, 210.6260
547.9430, 201.0127
549.1190, 170.4307
550.2950, 241.8789
551.4710, 212.3633
552.6470, 233.0225
553.8220, 193.0557
554.9980, 217.6289
556.1730, 226.2363
557.3480, 141.8770
558.5230, 402.5488
559.6980, 267.2607
560.8730, 428.0059
562.0470, 271.3486
563.2220, 347.1836
564.3960, 433.0977
565.5700, 331.4375
566.7440, 277.3721
567.9170, 346.1445
569.0910, 272.1240
570.2640, 310.8408
571.4380, 321.4717
572.6110, 333.3594
573.7840, 380.5947
574.9570, 341.8057
576.1290, 320.0410
577.3020, 220.3018
578.4740, 271.0957
579.6460, 219.4053
580.8180, 94.76562
581.9900, 106.1445
583.1620, 14.54883
584.3330, 27.97363
585.5040, 4.578125
586.6760, 58.11523
587.8470, 94.49121
589.0180, 98.76465
590.1880, 93.27832
591.3590, 44.05762
592.5290, 73.49805
593.7000, 195.9629
594.8700, 229.4492
596.0400, 172.6475
597.2090, 252.9346
598.3790, 310.6875
599.5490, 225.2617
600.7180, 272.7607
601.8870, 369.3926
603.0560, 548.0537
604.2250, 454.7461
605.3940, 556.1182
606.5620, 742.7197
607.7300, 851.7275
608.8990, 900.9609
610.0670, 979.0039
611.2350, 1169.724
612.4020, 1183.708
613.5700, 1401.479
614.7370, 1448.475
615.9050, 1714.401
617.0720, 1726.339
618.2390, 1938.881
619.4060, 1895.037
620.5720, 2078.537
621.7390, 2043.781
622.9050, 2324.798
624.0710, 2416.525
625.2370, 2430.677
626.4030, 2198.832
627.5690, 2161.935
628.7340, 2148.113
629.9000, 2346.438
631.0650, 2048.673
632.2300, 2037.930
633.3950, 1844.210
634.5600, 1718.511
635.7240, 1829.250
636.8890, 1744.859
638.0530, 1755.250
639.2170, 1733.011
640.3810, 1679.819
641.5450, 1646.569
642.7080, 1575.686
643.8720, 1534.175
645.0350, 1435.734
646.1980, 1381.692
647.3610, 1232.275
648.5240, 1198.123
649.6870, 1042.105
650.8490, 956.8301
652.0120, 961.7139
653.1740, 770.3135
654.3360, 773.9141
655.4980, 574.6543
656.6600, 582.3330
657.8210, 647.6250
658.9830, 345.2949
660.1440, 474.1797
661.3050, 548.8545
662.4660, 218.2041
663.6270, 233.0029
664.7870, 284.1816
665.9480, 263.0850
667.1080, 236.8252
668.2680, 254.8135
669.4280, 266.5752
670.5880, 241.0146
671.7480, 173.7930
672.9070, 144.1172
674.0670, 266.9365
675.2260, 114.1816
676.3850, 176.7988
677.5440, 269.9170
678.7030, 115.7334
679.8610, 221.2666
681.0200, 165.0986
682.1780, 112.3242
683.3360, 135.9746
684.4940, 107.6631
685.6520, 169.5801
686.8090, 148.9736
687.9670, 184.9775
689.1240, 270.8770
690.2810, 124.7168
691.4380, 15.62988
692.5950, 195.2373
693.7520, 231.8057
694.9080, 146.1416
696.0650, 108.4268
697.2210, 217.2510
698.3770, 72.24316
699.5330, 67.36328
700.6880, 2.634766
701.8440, 189.4258
702.9990, 62.66309
704.1550, 33.14551
705.3100, 142.3584
706.4650, 20.07422
707.6190, 13.95020
708.7740, 82.54395
709.9290, 55.72559
711.0830, 24.09766
712.2370, 16.33984
713.3910, 191.0020
714.5450, 142.6504
715.6980, 132.3711
716.8520, 4.959961
718.0050, 137.7217
719.1580, 3.955078
720.3110, 200.0098
721.4640, 91.15723
722.6170, 132.2676
723.7700, 161.1904
724.9220, 161.9463
726.0740, 67.83691
727.2260, 53.88379
728.3780, 24.71289
729.5300, 40.83105
730.6810, 150.1709
731.8330, 177.5430
732.9840, 110.1367
734.1350, 25.78418
735.2860, 23.18555
736.4370, 46.60840
737.5880, 78.80469
738.7380, 89.81152
739.8880, 96.26562
741.0390, 107.8662
742.1890, 100.9307
743.3380, 47.22559
744.4880, 42.71484
745.6380, 78.65039
746.7870, 60.01074
747.9360, 89.36719
749.0850, 52.07617
750.2340, 67.91895
751.3830, 47.90918
752.5310, 110.0996
753.6800, 201.4609
754.8280, 229.7324
755.9760, 6.298828
757.1240, 107.7812
758.2720, 79.23242
759.4190, 46.98535
760.5670, 195.0723
761.7140, 8.242188
762.8610, 152.2754
764.0080, 163.7324
765.1550, 235.3555
766.3020, 176.4746
767.4480, 157.6396
768.5950, 269.8760
769.7410, 309.7920
770.8870, 235.2158
772.0330, 310.2725
773.1780, 117.3682
774.3240, 159.2666
775.4690, 303.1748
776.6140, 234.6523
777.7590, 311.8916
778.9040, 334.2812
780.0490, 103.5957
781.1940, 311.4473
782.3380, 330.0674
783.4820, 153.4111
784.6260, 345.9180
785.7700, 196.1260
786.9140, 168.0518
788.0580, 231.9814
789.2010, 199.9795
790.3450, 318.9404
791.4880, 292.4697
792.6310, 253.0410
793.7730, 270.6348
794.9160, 127.3662
796.0590, 281.8848
797.2010, 232.7695
798.3430, 284.8730
799.4850, 359.4521
800.6270, 258.4854
801.7690, 175.4629
802.9100, 228.3047
804.0520, 283.3887
805.1930, 226.2949
806.3340, 276.5234
807.4750, 123.3105
808.6160, 276.0088
809.7560, 144.7217
810.8970, 91.27051
812.0370, 163.0801
813.1770, 254.2930
814.3170, 192.9541
815.4570, 264.1465
816.5960, 49.08691
817.7360, 36.06055
818.8750, 162.6104
820.0140, 298.5771
821.1530, 185.4854
822.2920, 115.9541
823.4310, 52.68262
824.5690, 205.8584
825.7070, 228.5938
826.8460, 84.11133
827.9840, 219.4434
829.1220, 288.0713
830.2590, 294.5889
831.3970, 49.23633
832.5340, 128.4746
833.6710, 78.02246
834.8080, 21.10156
835.9450, 145.1943
837.0820, 64.47754
838.2190, 55.51855
839.3550, 44.14160
840.4910, 92.62891
841.6270, 9.521484
842.7630, 31.94531
843.8990, 56.12695
845.0350, 71.48145
846.1700, 26.18066
847.3060, 24.96582
848.4410, 60.86719
849.5760, 12.93359
850.7100, 162.2178
851.8450, 138.0723
852.9800, 161.6621
854.1140, 121.7227
855.2480, 14.03027
856.3820, 16.40137
857.5160, 67.79590
858.6500, 210.5352
859.7830, 79.04395
860.9170, 137.3154
862.0500, 48.10938
863.1830, 19.67676
864.3160, 1.940430
865.4480, 44.55176
866.5810, 45.42188
867.7130, 16.20605
868.8460, 65.63281
869.9780, 10.90137
871.1100, 74.09082
872.2410, 57.77246
873.3730, 85.45410
874.5050, 163.6445
875.6360, 55.79785
876.7670, 23.62012
877.8980, 26.04199
879.0290, 94.66797
880.1590, 35.54297
881.2900, 3.727539
882.4200, 36.05176
883.5500, 41.33887
884.6800, 0.2568360
885.8100, 29.20117
886.9400, 46.34375
888.0690, 53.33496
889.1990, 63.54395
890.3280, 73.65039
891.4570, 111.1445
892.5860, 57.59277
893.7140, 40.06738
894.8430, 22.45508
895.9710, 11.13379
897.1000, 47.21484
898.2280, 39.75488
899.3560, 93.89746
900.4830, 147.9736
901.6110, 57.21387
902.7380, 106.9004
903.8660, 72.14062
904.9930, 38.34180
906.1200, 114.3672
907.2460, 141.5996
908.3730, 189.1816
909.5000, 193.9922
910.6260, 43.30762
911.7520, 148.2627
912.8780, 98.84570
914.0040, 2.296875
915.1290, 155.6152
916.2550, 95.27539
917.3800, 27.34277
918.5050, 118.2773
919.6300, 109.6719
920.7550, 72.34961
921.8800, 167.6201
923.0040, 138.8848
924.1290, 131.3164
925.2530, 157.5518
926.3770, 92.48730
927.5010, 57.49609
928.6250, 15.06445
929.7480, 3.309570
930.8720, 93.80078
931.9950, 31.75098
933.1180, 36.30957
934.2410, 119.3516
935.3640, 31.29883
936.4860, 67.04492
937.6090, 40.30859
938.7310, 0.5332030
939.8530, 211.2148
940.9750, 99.12305
942.0970, 5.398438
943.2180, 191.4492
944.3400, 165.7832
945.4610, 181.5664
946.5820, 93.75586
947.7030, 6.054688
948.8240, 85.32617
949.9450, 174.0430
951.0650, 210.4492
952.1860, 174.3047
953.3060, 19.27930
954.4260, 122.8457
955.5460, 112.6953
956.6650, 193.1133
957.7850, 104.6719
958.9040, 207.6973
960.0230, 49.35938
961.1420, 112.8691
962.2610, 229.7930
963.3800, 100.1250
964.4990, 30.83398
965.6170, 115.0000
966.7350, 99.35547
967.8530, 2.273438
968.9710, 216.3203
970.0890, 214.1113
971.2070, 180.9082
972.3240, 62.56055
973.4410, 230.4492
974.5580, 331.2715
975.6750, 369.6309
976.7920, 154.3535
977.9090, 261.5117
979.0250, 242.8047
980.1410, 218.3770
981.2580, 371.0918
982.3740, 193.3223
983.4890, 78.07812
984.6050, 182.8555
985.7200, 116.1758
986.8360, 193.4766
987.9510, 28.69922
989.0660, 302.3711
990.1810, 200.8516
991.2950, 254.6387
992.4100, 333.7676
993.5240, 122.1309
994.6390, 148.5996
995.7530, 235.1992
996.8660, 221.7520
997.9800, 219.0215
999.0940, 199.3418
1000.207, 85.52344
1001.320, 122.3359
1002.433, 138.3926
1003.546, 98.46094
1004.659, 251.2422
1005.772, 170.3203
1006.884, 193.3730
1007.996, 251.3965
1009.108, 242.8848
1010.220, 349.4844
1011.332, 312.0273
1012.444, 323.3105
1013.555, 418.0664
1014.666, 295.7617
1015.777, 287.2578
1016.888, 349.9766
1017.999, 377.5977
1019.110, 337.2852
1020.220, 387.1465
1021.331, 318.2520
1022.441, 249.1387
1023.551, 396.4902
1024.661, 245.1875
1025.770, 218.3145
1026.880, 280.1250
1027.989, 407.2168
1029.098, 474.6387
1030.207, 493.6094
1031.316, 500.8477
1032.425, 459.1055
1033.533, 461.6738
1034.642, 408.0703
1035.750, 512.1074
1036.858, 313.8633
1037.966, 326.8066
1039.073, 332.8340
1040.181, 520.5215
1041.288, 383.5625
1042.396, 389.8301
1043.503, 392.0391
1044.610, 447.9141
1045.716, 571.2988
1046.823, 510.0684
1047.929, 549.6973
1049.036, 487.8398
1050.142, 554.7891
1051.248, 570.7695
1052.353, 522.9727
1053.459, 512.4961
1054.564, 539.8066
1055.670, 454.2539
1056.775, 444.0430
1057.880, 425.3359
1058.985, 572.7305
1060.089, 566.9238
1061.194, 524.2070
1062.298, 473.3945
1063.402, 530.1895
1064.506, 379.9199
1065.610, 389.8438
1066.713, 602.1934
1067.817, 300.9609
1068.920, 527.2715
1070.023, 467.7070
1071.126, 516.8340
1072.229, 425.7422
1073.332, 520.6621
1074.435, 447.4023
1075.537, 307.0488
1076.639, 363.9160
1077.741, 330.9023
1078.843, 320.9160
1079.945, 396.7207
1081.046, 220.1152
1082.148, 257.2324
1083.249, 368.8105
1084.350, 533.5488
1085.451, 399.5000
1086.551, 126.8555
1087.652, 400.6172
1088.752, 356.3535
1089.853, 438.6719
1090.953, 554.8789
1092.053, 218.1367
1093.152, 249.3555
1094.252, 367.9863
1095.351, 215.2031
1096.451, 400.0137
1097.550, 501.4707
1098.649, 473.5469
1099.748, 206.0664
1100.846, 463.5371
1101.945, 339.0801
1103.043, 269.3594
1104.141, 467.6992
1105.239, 270.2207
1106.337, 321.7305
1107.434, 355.1367
1108.532, 432.9883
1109.629, 325.6133
1110.726, 182.4121
1111.823, 299.3867
1112.920, 369.4258
1114.017, 205.9453
1115.113, 293.8535
1116.210, 157.9629
1117.306, 470.5938
1118.402, 418.8633
1119.498, 428.0918
1120.593, 238.0352
1121.689, 587.5781
1122.784, 557.1133
1123.879, 393.1309
1124.974, 293.8652
1126.069, 287.6953
1127.164, 340.1895
1128.259, 352.8711
1129.353, 268.5977
1130.447, 50.58789
1131.541, 354.7676
1132.635, 187.3066
1133.729, 212.3555
1134.822, 367.0254
1135.916, 142.3672
1137.009, 88.07617
1138.102, 46.19336
1139.195, 65.58008
1140.288, 275.3203
1141.380, 39.62305
1142.473, 106.3926
1143.565, 31.40625
1144.657, 377.8379
1145.749, 64.65234
1146.841, 201.4160
1147.932, 250.0781
1149.024, 214.3633
1150.115, 78.20508
1151.206, 20.33398
1152.297, 149.9434
1153.388, 204.2480
1154.479, 85.78711
1155.569, 236.2754
1156.659, 160.0430
1157.750, 127.3164
1158.839, 236.1738
1159.929, 200.8496
1161.019, 218.0918
1162.108, 379.3984
1163.198, 30.77734
1164.287, 132.7988
1165.376, 79.46094
1166.465, 195.8477
1167.553, 222.2598
1168.642, 108.3340
1169.730, 231.3906
1170.818, 160.5605
1171.906, 315.7402
1172.994, 66.27539
1174.082, 271.2715
1175.170, 142.6953
1176.257, 126.2871
1177.344, 195.9121
1178.431, 39.09180
1179.518, 108.6680
1180.605, 32.11328
1181.691, 163.5801
1182.778, 212.8730
1183.864, 338.8965
1184.950, 325.2812
1186.036, 360.6797
1187.122, 222.7754
1188.207, 66.43555
1189.292, 33.14844
1190.378, 131.1094
1191.463, 150.6660
1192.548, 61.99609
1193.632, 105.6738
1194.717, 236.4688
1195.801, 117.1504
1196.886, 153.2031
1197.970, 164.4375
1199.054, 136.5488
1200.137, 241.9688
1201.221, 144.3047
1202.305, 328.0156
1203.388, 317.6934
1204.471, 323.6035
1205.554, 212.6406
1206.637, 220.0781
1207.719, 135.9707
1208.802, 115.1270
1209.884, 287.3145
1210.966, 237.0273
1212.048, 143.8672
1213.130, 330.2422
1214.212, 58.83398
1215.293, 184.4844
1216.374, 370.4473
1217.456, 117.5488
1218.536, 322.4199
1219.617, 26.74609
1220.698, 379.7656
1221.778, 206.1152
1222.859, 73.11719
1223.939, 197.9648
1225.019, 382.5645
1226.099, 316.8418
1227.178, 300.7617
1228.258, 444.8574
1229.337, 297.9336
1230.417, 149.0859
1231.496, 345.3867
1232.574, 378.6055
1233.653, 74.41797
1234.732, 359.3770
1235.810, 259.6445
1236.888, 361.5742
1237.966, 261.8945
1239.044, 313.1211
1240.122, 354.1426
1241.199, 272.3652
1242.277, 438.9883
1243.354, 214.9199
1244.431, 397.8789
1245.508, 212.8770
1246.585, 162.2812
1247.661, 406.8145
1248.738, 466.5195
1249.814, 340.8633
1250.890, 437.7383
1251.966, 551.8086
1253.042, 240.8555
1254.117, 134.5762
1255.193, 122.4004
1256.268, 404.5605
1257.343, 410.2715
1258.418, 361.6641
1259.493, 262.3320
1260.567, 167.4453
1261.642, 426.6582
1262.716, 562.4121
1263.790, 393.9629
1264.864, 415.6719
1265.938, 469.0762
1267.011, 526.8047
1268.085, 459.1973
1269.158, 641.3711
1270.231, 474.4805
1271.304, 670.2227
1272.377, 528.4023
1273.450, 492.0234
1274.522, 460.2930
1275.594, 552.6211
1276.666, 298.6816
1277.738, 661.9609
1278.810, 524.5781
1279.882, 298.4238
1280.953, 350.1445
1282.025, 477.4238
1283.096, 314.7598
1284.167, 433.5859
1285.238, 650.9199
1286.308, 265.1562
1287.379, 340.7949
1288.449, 476.7695
1289.519, 369.1484
1290.589, 570.1562
1291.659, 406.4922
1292.729, 533.8945
1293.798, 408.2188
1294.868, 518.2852
1295.937, 560.8516
1297.006, 410.4180
1298.075, 620.4414
1299.143, 325.1953
1300.212, 440.8750
1301.280, 561.3828
1302.348, 379.2695
1303.416, 602.5273
1304.484, 811.8711
1305.552, 580.4023
1306.620, 254.4883
1307.687, 738.0586
1308.754, 513.3828
1309.821, 609.1914
1310.888, 656.9180
1311.955, 434.0352
1313.021, 435.3867
1314.088, 355.7891
1315.154, 450.7930
1316.220, 494.7031
1317.286, 482.5703
1318.352, 372.3242
1319.417, 247.3555
1320.483, 422.3086
1321.548, 302.9258
1322.613, 446.9492
1323.678, 512.1055
1324.743, 617.1094
1325.807, 421.7891
1326.872, 405.4727
1327.936, 323.3828
1329.000, 418.1719
1330.064, 233.9766
1331.128, 424.1914
1332.191, 647.2148
1333.255, 488.7617
1334.318, 673.3984
1335.381, 358.8203
1336.444, 408.1445
1337.507, 363.1758
1338.569, 309.1484
1339.632, 434.3047
1340.694, 521.9141
1341.756, 340.9023
1342.818, 385.9414
1343.880, 579.1953
1344.941, 453.0391
1346.003, 322.0664
1347.064, 506.1992
1348.125, 380.8281
1349.186, 247.6523
1350.247, 238.0508
1351.308, 426.2695
1352.368, 594.7539
1353.428, 455.7500
1354.489, 295.3750
1355.549, 417.8203
1356.608, 154.8359
1357.668, 456.6172
1358.727, 390.6875
1359.787, 304.7109
1360.846, 286.4609
1361.905, 213.4766
1362.964, 402.7930
1364.022, 41.11719
1365.081, 369.9844
1366.139, 265.4102
1367.197, 320.1562
1368.255, 0.6328130
1369.313, 284.0703
1370.371, 246.9844
1371.428, 28.74609
1372.486, 367.5234
1373.543, 214.0547
1374.600, 61.05469
1375.657, 53.14453
1376.713, 94.36328
1377.770, 185.0898
1378.826, 111.2070
1379.882, 39.69531
1380.938, 272.1562
1381.994, 114.4414
1383.050, 47.72266
1384.106, 367.2695
1385.161, 12.11719
1386.216, 258.6094
1387.271, 295.1602
1388.326, 81.18359
1389.381, 5.644531
1390.435, 323.9297
1391.490, 71.97656
1392.544, 87.39844
1393.598, 213.1523
1394.652, 138.6211
1395.705, 6.609375
1396.759, 31.83203
1397.812, 182.7617
1398.866, 180.3086
1399.919, 277.8125
1400.972, 186.1719
1402.024, 537.6914
1403.077, 48.67969
1404.129, 112.6914
1405.181, 199.4375
1406.233, 195.3125
1407.285, 212.8359
1408.337, 95.39062
1409.389, 143.2344
1410.440, 198.1914
1411.491, 401.3945
1412.542, 228.7344
1413.593, 366.3867
1414.644, 67.80078
1415.695, 369.3828
1416.745, 270.9062
1417.795, 280.0156
1418.845, 103.6094
1419.895, 211.3008
1420.945, 300.3203
1421.995, 263.4023
1423.044, 526.7695
1424.093, 473.1875
1425.142, 189.5234
1426.191, 333.3555
1427.240, 588.6914
1428.289, 297.5977
1429.337, 703.4961
1430.385, 342.5039
1431.433, 191.9766
1432.481, 328.2539
1433.529, 578.2891
1434.577, 636.0508
1435.624, 641.6406
1436.672, 680.9336
1437.719, 558.0664
1438.766, 555.1836
1439.812, 691.0547
1440.859, 739.5742
1441.905, 546.2969
1442.952, 555.9727
1443.998, 467.6758
1445.044, 754.0820
1446.090, 587.1992
1447.135, 736.1211
1448.181, 1137.020
1449.226, 1079.996
1450.271, 1074.602
1451.316, 714.8984
1452.361, 783.4727
1453.405, 705.4609
1454.450, 525.6484
1455.494, 681.4180
1456.538, 859.5781
1457.582, 532.8633
1458.626, 466.9648
1459.670, 663.5312
1460.713, 616.5977
1461.757, 635.7461
1462.800, 523.8281
1463.843, 591.1172
1464.886, 629.5781
1465.928, 554.1641
1466.971, 538.5234
1468.013, 390.9258
1469.055, 346.2031
1470.097, 524.5273
1471.139, 345.4727
1472.181, 195.1914
1473.222, 568.3750
1474.263, 552.9453
1475.305, 606.8438
1476.346, 726.4727
1477.386, 577.0195
1478.427, 282.8633
1479.468, 432.8750
1480.508, 343.7852
1481.548, 473.9492
1482.588, 497.8633
1483.628, 396.6328
1484.668, 546.0156
1485.707, 65.42188
1486.747, 443.7031
1487.786, 308.8789
1488.825, 318.3477
1489.864, 548.8398
1490.902, 277.7148
1491.941, 734.6016
1492.979, 539.9727
1494.017, 155.4141
1495.055, 340.4766
1496.093, 253.3281
1497.131, 350.4336
1498.168, 329.6914
1499.206, 354.8594
1500.243, 71.94141
1501.280, 234.9883
1502.317, 99.44141
1503.354, 795.5781
1504.390, 367.6719
1505.426, 52.81641
1506.463, 377.3828
1507.499, 31.30469
1508.535, 379.1914
1509.570, 2.437500
1510.606, 120.5000
1511.641, 165.7227
1512.676, 301.1328
1513.711, 5.515625
1514.746, 219.6445
1515.781, 166.1289
1516.816, 168.7109
1517.850, 238.4023
1518.884, 243.4141
1519.918, 278.2422
1520.952, 0.3007810
1521.986, 0.0000000E+00
##END=



