##NAMES=Datolite
##RRUFFID=R050136
##IDEAL CHEMISTRY=CaB(SiO_4_)(OH)
##LOCALITY=Charcas, San Luis Potosi, Mexico
##OWNER=RRUFF
##SOURCE=Dave Bunk Minerals
##DESCRIPTION=Pale green tabular crystals
##STATUS=The identification of this mineral has been confirmed by X-ray diffraction and chemical analysis
##URL=rruff.info/R050136
##MEASURED CHEMISTRY=Ca_1.00_BSi_1.00_O_4_(OH) ; trace amounts of Fe; B and OH estimated by stoichiometry end charge balance
##PIN_ID=L00284
##ORIENTATION=Laser parallel to -b* (0 -1 0). Fiducial mark perpendicular to laser is parallel to c [0 0 1]
90.650, 0.000
92.046, 1.447
93.442, 13.447
94.838, 72.896
96.233, 31.059
97.628, 104.505
99.023, 150.265
100.418, 169.075
101.812, 161.067
103.206, 169.624
104.600, 223.304
105.994, 224.822
107.387, 335.882
108.781, 210.236
110.174, 308.698
111.566, 260.142
112.959, 306.459
114.351, 354.532
115.744, 303.273
117.136, 382.664
118.527, 300.736
119.919, 342.620
121.310, 261.924
122.701, 323.518
124.092, 368.398
125.482, 404.569
126.873, 602.002
128.263, 778.671
129.653, 1260.642
131.042, 1955.973
132.432, 2756.543
133.821, 2952.391
135.210, 2170.365
136.599, 1194.422
137.987, 587.561
139.376, 420.776
140.764, 253.520
142.152, 199.863
143.539, 225.745
144.927, 175.576
146.314, 244.041
147.701, 280.843
149.088, 534.188
150.474, 706.824
151.861, 1055.506
153.247, 1324.233
154.633, 1097.018
156.018, 879.133
157.404, 597.600
158.789, 804.177
160.174, 1135.780
161.559, 2025.385
162.943, 3383.989
164.327, 4462.599
165.711, 4890.215
167.095, 3059.874
168.479, 1628.040
169.862, 862.137
171.246, 596.677
172.628, 629.178
174.011, 786.885
175.394, 1310.289
176.776, 1432.465
178.158, 1438.791
179.540, 823.130
180.922, 409.473
182.303, 226.887
183.684, 76.311
185.065, 126.748
186.446, 27.200
187.826, 59.667
189.207, 9.848
190.587, 95.653
191.967, 138.171
193.346, 39.708
194.726, 62.261
196.105, 36.168
197.484, 24.420
198.862, 35.975
200.241, 9.646
201.619, 55.306
202.997, 70.275
204.375, 62.891
205.753, 47.383
207.130, 49.173
208.507, 74.743
209.884, 72.328
211.261, 222.927
212.638, 277.539
214.014, 647.163
215.390, 1103.798
216.766, 1793.444
218.141, 2131.354
219.517, 1662.894
220.892, 1057.513
222.267, 512.667
223.642, 432.564
225.016, 325.707
226.391, 373.107
227.765, 550.788
229.139, 587.331
230.512, 561.292
231.886, 588.420
233.259, 426.986
234.632, 230.602
236.005, 121.248
237.377, 150.913
238.749, 7.594
240.122, 80.276
241.493, 25.043
242.865, 27.637
244.237, 31.316
245.608, 6.007
246.979, 25.670
248.350, 30.656
249.720, 61.007
251.090, 47.333
252.461, 38.319
253.830, 37.426
255.200, 14.962
256.570, 42.672
257.939, 37.221
259.308, 33.214
260.677, 23.110
262.045, 23.207
263.414, 25.226
264.782, 29.375
266.150, 107.458
267.517, 135.755
268.885, 323.197
270.252, 476.713
271.619, 670.229
272.986, 948.869
274.353, 835.560
275.719, 801.299
277.085, 458.080
278.451, 369.898
279.817, 218.751
281.182, 229.635
282.548, 213.547
283.913, 352.483
285.278, 553.441
286.642, 912.418
288.007, 1547.412
289.371, 2516.423
290.735, 3309.448
292.099, 3938.488
293.462, 3258.548
294.826, 2194.619
296.189, 1325.699
297.552, 856.788
298.914, 620.883
300.277, 265.986
301.639, 285.095
303.001, 190.211
304.363, 140.333
305.724, 90.457
307.086, 28.594
308.447, 118.725
309.808, 43.151
311.168, 105.971
312.529, 31.931
313.889, 3.146
315.249, 125.224
316.609, 23.695
317.969, 128.383
319.328, 3.538
320.687, 173.539
322.046, 166.615
323.405, 297.689
324.764, 590.763
326.122, 784.835
327.480, 1368.905
328.838, 1895.974
330.196, 2252.041
331.553, 2458.097
332.910, 2025.148
334.267, 1700.187
335.624, 921.207
336.981, 619.225
338.337, 329.236
339.693, 117.232
341.049, 144.220
342.405, 0.793
343.760, 35.188
345.116, 23.461
346.471, 25.491
347.826, 26.467
349.180, 115.521
350.535, 18.390
351.889, 94.106
353.243, 17.724
354.597, 34.413
355.950, 31.716
357.304, 35.140
358.657, 4.396
360.010, 27.542
361.362, 123.717
362.715, 32.754
364.067, 122.557
365.419, 78.228
366.771, 229.904
368.123, 126.240
369.474, 246.703
370.825, 357.503
372.176, 478.617
373.527, 788.691
374.877, 1127.747
376.228, 1877.497
377.578, 2291.749
378.928, 2658.490
380.277, 2479.229
381.627, 1950.004
382.976, 2023.701
384.325, 2069.336
385.674, 2668.931
387.023, 3743.519
388.371, 5172.086
389.719, 7134.640
391.067, 8081.191
392.415, 8487.733
393.762, 6834.277
395.110, 4994.814
396.457, 3453.346
397.804, 2215.875
399.150, 1748.397
400.497, 1100.916
401.843, 876.428
403.189, 659.936
404.535, 503.492
405.881, 461.990
407.226, 276.482
408.571, 332.696
409.916, 187.178
411.261, 169.462
412.605, 171.933
413.950, 6.445
415.294, 181.899
416.638, 57.340
417.981, 71.167
419.325, 105.608
420.668, 78.521
422.011, 175.965
423.354, 30.458
424.697, 200.895
426.039, 117.329
427.381, 21.760
428.723, 100.180
430.065, 63.595
431.406, 145.007
432.748, 32.587
434.089, 125.780
435.430, 115.142
436.770, 150.499
438.111, 257.850
439.451, 143.194
440.791, 217.533
442.131, 194.876
443.471, 145.212
444.810, 225.541
446.149, 152.871
447.488, 357.193
448.827, 354.518
450.166, 508.835
451.504, 872.145
452.842, 1214.447
454.180, 2055.505
455.518, 2911.805
456.855, 3750.098
458.193, 3964.383
459.530, 2852.659
460.867, 2123.298
462.203, 1286.588
463.540, 917.153
464.876, 643.503
466.212, 430.803
467.548, 464.202
468.883, 288.510
470.219, 273.809
471.554, 222.610
472.889, 176.915
474.224, 260.738
475.558, 135.586
476.892, 283.027
478.227, 210.738
479.561, 244.029
480.894, 300.569
482.228, 223.843
483.561, 360.107
484.894, 395.363
486.227, 659.632
487.559, 874.893
488.892, 1213.149
490.224, 1627.403
491.556, 1359.648
492.888, 1212.909
494.220, 793.161
495.551, 514.403
496.882, 457.645
498.213, 253.878
499.544, 349.102
500.874, 177.316
502.205, 149.521
503.535, 120.746
504.865, 45.933
506.194, 154.870
507.524, 58.669
508.853, 102.386
510.182, 65.676
511.511, 31.453
512.840, 42.991
514.168, 22.273
515.496, 54.771
516.824, 115.831
518.152, 68.142
519.480, 114.271
520.807, 46.755
522.134, 84.174
523.461, 5.969
524.788, 8.875
526.114, 71.765
527.441, 4.345
528.767, 89.523
530.093, 4.388
531.418, 27.234
532.744, 29.069
534.069, 48.109
535.394, 87.668
536.719, 19.563
538.044, 64.174
539.368, 73.903
540.693, 28.377
542.017, 136.308
543.340, 83.985
544.664, 198.654
545.987, 270.314
547.311, 278.967
548.634, 655.611
549.956, 684.249
551.279, 1129.877
552.601, 1455.499
553.923, 1452.112
555.245, 1488.718
556.567, 940.315
557.889, 761.905
559.210, 487.488
560.531, 289.062
561.852, 378.628
563.173, 137.187
564.493, 130.742
565.813, 75.289
567.133, 98.829
568.453, 161.362
569.773, 53.888
571.092, 160.411
572.412, 107.927
573.731, 95.983
575.049, 213.493
576.368, 93.995
577.686, 317.492
579.005, 242.982
580.323, 279.471
581.640, 538.953
582.958, 527.978
584.275, 859.449
585.593, 1083.914
586.909, 1500.611
588.226, 2175.060
589.543, 2764.503
590.859, 3749.939
592.175, 4025.433
593.491, 4199.127
594.807, 3722.541
596.122, 2775.948
597.438, 2267.468
598.753, 1616.861
600.068, 1337.738
601.382, 925.117
602.697, 601.489
604.011, 693.490
605.325, 306.848
606.639, 354.294
607.952, 226.638
609.266, 101.974
610.579, 209.401
611.892, 13.277
613.205, 150.256
614.518, 120.547
615.830, 65.830
617.142, 162.105
618.454, 22.374
619.766, 118.912
621.078, 33.162
622.389, 57.591
623.700, 139.602
625.011, 12.175
626.322, 100.814
627.632, 86.040
628.943, 4.321
630.253, 162.665
631.563, 24.828
632.872, 103.674
634.182, 59.889
635.491, 53.032
636.800, 206.339
638.109, 73.469
639.418, 190.626
640.726, 110.742
642.035, 154.849
643.343, 246.327
644.651, 137.416
645.958, 325.230
647.266, 261.882
648.573, 326.944
649.880, 414.719
651.187, 398.763
652.494, 622.797
653.800, 574.629
655.106, 608.645
656.412, 791.651
657.718, 685.647
659.024, 991.636
660.329, 959.614
661.634, 1254.589
662.939, 1588.185
664.244, 1851.152
665.549, 2584.056
666.853, 2836.027
668.157, 3177.024
669.461, 3343.418
670.765, 2921.336
672.069, 2809.525
673.372, 2504.521
674.675, 2365.522
675.978, 2369.905
677.281, 2281.899
678.583, 2708.659
679.886, 2733.639
681.188, 3305.641
682.490, 4168.747
683.792, 4994.705
685.093, 7009.097
686.394, 9434.042
687.696, 14047.942
688.997, 22022.520
690.297, 30857.129
691.598, 42327.742
692.898, 43492.660
694.198, 37315.059
695.498, 28509.951
696.798, 18294.844
698.097, 12866.681
699.397, 9001.563
700.696, 6246.435
701.995, 4963.303
703.293, 3505.167
704.592, 3037.024
705.890, 2285.876
707.188, 1831.722
708.486, 1773.563
709.784, 1251.398
711.081, 1397.228
712.378, 913.053
713.675, 869.871
714.972, 928.686
716.269, 613.495
717.565, 724.299
718.862, 541.099
720.158, 461.893
721.453, 573.682
722.749, 334.479
724.045, 524.271
725.340, 386.060
726.635, 356.853
727.930, 395.657
729.224, 145.459
730.519, 388.263
731.813, 162.062
733.107, 306.886
734.401, 422.706
735.694, 153.535
736.988, 331.360
738.281, 180.181
739.574, 182.018
740.867, 343.850
742.160, 68.678
743.452, 256.507
744.744, 123.333
746.036, 81.159
747.328, 179.980
748.620, 15.815
749.911, 175.642
751.202, 100.465
752.493, 30.284
753.784, 226.098
755.075, 28.093
756.365, 72.689
757.655, 99.467
758.945, 14.758
760.235, 126.996
761.525, 22.253
762.814, 155.474
764.103, 112.197
765.392, 32.916
766.681, 155.630
767.969, 41.422
769.258, 127.255
770.546, 71.930
771.834, 61.601
773.122, 136.269
774.409, 106.440
775.697, 106.158
776.984, 41.530
778.271, 67.030
779.558, 87.488
780.844, 84.106
782.131, 39.355
783.417, 23.812
784.703, 24.508
785.989, 14.041
787.274, 35.826
788.560, 29.549
789.845, 43.772
791.130, 60.080
792.415, 160.250
793.699, 34.502
794.983, 41.827
796.268, 140.150
797.552, 80.530
798.835, 40.742
800.119, 6.989
801.402, 20.729
802.686, 76.512
803.969, 87.249
805.251, 105.940
806.534, 53.126
807.816, 25.689
809.098, 155.477
810.380, 82.641
811.662, 168.804
812.944, 201.966
814.225, 72.185
815.506, 353.403
816.787, 250.642
818.068, 485.881
819.349, 562.120
820.629, 570.357
821.909, 995.595
823.189, 1045.831
824.469, 1517.083
825.749, 1940.333
827.028, 2092.596
828.307, 2125.297
829.586, 2012.119
830.865, 1703.403
832.144, 1404.688
833.422, 845.989
834.700, 806.291
835.978, 449.596
837.256, 343.905
838.534, 380.213
839.811, 202.529
841.088, 262.844
842.365, 201.165
843.642, 125.486
844.919, 288.810
846.195, 104.152
847.472, 284.495
848.748, 219.848
850.023, 162.202
851.299, 406.557
852.575, 188.925
853.850, 467.293
855.125, 489.663
856.400, 388.033
857.674, 770.404
858.949, 794.776
860.223, 1172.148
861.497, 1483.522
862.771, 1515.897
864.045, 2027.273
865.318, 1577.649
866.591, 1388.028
867.864, 1452.407
869.137, 982.952
870.410, 1276.335
871.682, 1309.719
872.955, 1426.104
874.227, 1829.491
875.499, 1952.808
876.770, 2457.198
878.042, 2690.589
879.313, 2945.071
880.584, 3197.465
881.855, 2901.229
883.126, 2831.626
884.396, 2669.024
885.667, 2030.180
886.937, 2046.580
888.207, 1505.305
889.476, 1336.707
890.746, 1231.110
892.015, 986.745
893.284, 1058.150
894.553, 697.556
895.822, 725.424
897.090, 831.832
898.359, 527.224
899.627, 761.634
900.895, 702.044
902.163, 638.183
903.430, 927.595
904.698, 671.008
905.965, 876.303
907.232, 1083.718
908.499, 1168.645
909.765, 1670.062
911.032, 1888.482
912.298, 2622.266
913.564, 3611.688
914.830, 4470.016
916.095, 5784.440
917.361, 5938.868
918.626, 5773.198
919.891, 5267.628
921.156, 3971.833
922.420, 3289.277
923.685, 2625.723
924.949, 1936.170
926.213, 1878.621
927.477, 1281.794
928.740, 1378.250
930.004, 1286.522
931.267, 1168.206
932.530, 1488.674
933.793, 1192.360
935.056, 1228.806
936.318, 1329.192
937.581, 994.517
938.843, 1171.019
940.104, 916.841
941.366, 770.291
942.628, 744.809
943.889, 530.164
945.150, 738.694
946.411, 658.196
947.672, 558.736
948.932, 717.281
950.193, 422.450
951.453, 646.004
952.713, 586.839
953.973, 383.833
955.232, 541.413
956.491, 353.275
957.751, 411.866
959.010, 509.465
960.268, 184.263
961.527, 587.874
962.785, 387.500
964.044, 323.132
965.302, 666.258
966.559, 422.962
967.817, 603.549
969.075, 602.203
970.332, 494.862
971.589, 798.526
972.846, 721.210
974.102, 1053.900
975.359, 1375.593
976.615, 1431.315
977.871, 2136.042
979.127, 2675.774
980.383, 3469.512
981.638, 5178.254
982.893, 5783.002
984.149, 7077.755
985.404, 6712.513
986.658, 5427.277
987.913, 4692.044
989.167, 3333.817
990.421, 2643.597
991.675, 2217.381
992.929, 1382.175
994.183, 1333.974
995.436, 1001.778
996.689, 737.624
997.942, 846.473
999.195, 495.327
1000.448, 619.188
1001.700, 534.056
1002.952, 386.931
1004.204, 493.812
1005.456, 196.697
1006.708, 251.625
1007.959, 344.557
1009.210, 97.493
1010.461, 323.446
1011.712, 102.403
1012.963, 240.379
1014.213, 208.359
1015.464, 45.343
1016.714, 174.353
1017.964, 191.365
1019.214, 5.618
1020.463, 224.402
1021.712, 22.426
1022.962, 117.454
1024.210, 101.485
1025.459, 60.479
1026.708, 80.534
1027.956, 79.552
1029.204, 110.428
1030.452, 110.298
1031.700, 118.813
1032.948, 121.498
1034.195, 112.479
1035.442, 120.536
1036.689, 83.394
1037.936, 65.673
1039.183, 32.234
1040.429, 187.171
1041.676, 79.889
1042.922, 207.018
1044.168, 107.931
1045.413, 13.153
1046.659, 168.761
1047.904, 24.320
1049.149, 167.591
1050.394, 282.507
1051.639, 27.427
1052.884, 333.350
1054.128, 162.278
1055.372, 140.210
1056.616, 448.145
1057.860, 109.085
1059.104, 348.040
1060.347, 382.998
1061.590, 341.958
1062.833, 692.930
1064.076, 516.906
1065.319, 828.894
1066.561, 1026.886
1067.803, 1125.903
1069.046, 1828.925
1070.287, 2279.949
1071.529, 3366.991
1072.771, 5388.035
1074.012, 7103.081
1075.253, 9828.130
1076.494, 10813.183
1077.735, 8788.270
1078.975, 6973.357
1080.216, 4688.464
1081.456, 3034.597
1082.696, 2395.731
1083.936, 1549.897
1085.175, 1324.066
1086.415, 1039.238
1087.654, 700.701
1088.893, 800.899
1090.132, 487.112
1091.371, 458.466
1092.609, 544.685
1093.847, 263.923
1095.085, 476.271
1096.323, 249.514
1097.561, 204.760
1098.799, 331.008
1100.036, 63.281
1101.273, 284.603
1102.510, 186.884
1103.747, 104.175
1104.983, 290.511
1106.220, 166.829
1107.456, 91.586
1108.692, 299.125
1109.928, 17.456
1111.163, 23.841
1112.399, 22.174
1113.634, 217.492
1114.869, 4.926
1116.104, 80.855
1117.339, 73.319
1118.573, 260.496
1119.808, 120.673
1121.042, 351.325
1122.276, 365.501
1123.509, 231.676
1124.743, 400.258
1125.976, 188.433
1127.210, 429.854
1128.443, 402.027
1129.675, 130.199
1130.908, 410.704
1132.141, 296.876
1133.373, 222.047
1134.605, 549.571
1135.837, 278.739
1137.068, 505.906
1138.300, 646.598
1139.531, 412.761
1140.762, 706.052
1141.993, 579.354
1143.224, 626.520
1144.455, 911.425
1145.685, 799.590
1146.915, 934.752
1148.145, 1362.626
1149.375, 1040.783
1150.605, 1370.078
1151.834, 1271.268
1153.063, 1477.416
1154.292, 1848.785
1155.521, 1737.926
1156.750, 2156.064
1157.978, 2462.957
1159.207, 2337.086
1160.435, 3179.730
1161.663, 3314.851
1162.891, 3710.967
1164.118, 4669.865
1165.345, 4864.973
1166.573, 5820.076
1167.800, 6685.454
1169.026, 6850.547
1170.253, 8085.635
1171.480, 7840.718
1172.706, 7865.796
1173.932, 8018.319
1175.158, 6843.388
1176.383, 6338.451
1177.609, 5627.866
1178.834, 4312.918
1180.059, 4097.596
1181.284, 3298.093
1182.509, 2670.130
1183.734, 2585.524
1184.958, 1796.685
1186.182, 1732.383
1187.406, 1658.669
1188.630, 1181.681
1189.854, 1383.458
1191.077, 915.211
1192.301, 724.207
1193.524, 963.833
1194.747, 554.917
1195.969, 733.914
1197.192, 645.271
1198.414, 465.241
1199.636, 716.206
1200.858, 421.449
1202.080, 536.403
1203.302, 696.355
1204.523, 360.758
1205.744, 558.700
1206.966, 580.735
1208.186, 312.666
1209.407, 613.590
1210.628, 305.812
1211.848, 313.725
1213.068, 522.632
1214.288, 300.100
1215.508, 715.995
1216.727, 539.718
1217.947, 226.769
1219.166, 435.646
1220.385, 259.542
1221.604, 306.406
1222.822, 456.266
1224.041, 166.290
1225.259, 288.138
1226.477, 339.981
1227.695, 187.481
1228.913, 464.312
1230.130, 187.848
1231.348, 222.720
1232.565, 501.535
1233.782, 38.345
1234.999, 296.149
1236.215, 335.951
1237.432, 71.116
1238.648, 232.909
1239.864, 173.689
1241.080, 80.542
1242.296, 274.312
1243.511, 143.442
1244.726, 173.191
1245.942, 225.936
1247.156, 8.022
1248.371, 253.705
1249.586, 165.411
1250.800, 100.196
1252.014, 373.866
1253.228, 24.530
1254.442, 60.528
1255.656, 268.178
1256.869, 7.045
1258.083, 211.582
1259.296, 173.196
1260.509, 55.483
1261.722, 174.106
1262.934, 397.589
1264.147, 117.348
1265.359, 215.876
1266.571, 37.651
1267.783, 135.797
1268.994, 142.204
1270.206, 68.238
1271.417, 276.106
1272.628, 43.440
1273.839, 108.979
1275.050, 316.299
1276.260, 24.610
1277.471, 138.468
1278.681, 106.761
1279.891, 23.045
1281.101, 251.453
1282.310, 137.678
1283.520, 11.896
1284.729, 277.098
1285.938, 0.291
1287.147, 76.675
1288.356, 159.844
1289.564, 119.997
1290.773, 248.638
1291.981, 145.739
1293.189, 8.833
1294.397, 133.057
1295.604, 1.084
1296.812, 101.130
1298.019, 142.135
1299.226, 127.869
1300.433, 160.076
1301.640, 143.012
1302.846, 25.068
1304.053, 267.823
1305.259, 37.296
1306.465, 136.559
1307.671, 255.400
1308.876, 57.770
1310.082, 300.025
1311.287, 240.809
1312.492, 17.579
1313.697, 382.337
1314.902, 171.084
1316.106, 126.816
1317.310, 339.535
1318.515, 25.241
1319.719, 203.948
1320.922, 296.642
1322.126, 17.325
1323.329, 291.022
1324.533, 230.710
1325.736, 16.389
1326.939, 360.092
1328.141, 84.743
1329.344, 81.413
1330.546, 321.073
1331.748, 83.292
1332.950, 163.307
1334.152, 170.888
1335.354, 4.476
1336.555, 290.053
1337.757, 90.625
1338.958, 90.186
1340.159, 266.739
1341.359, 25.290
1342.560, 244.831
1343.760, 338.366
1344.960, 45.893
1346.160, 312.414
1347.360, 269.122
1348.560, 17.631
1349.759, 417.133
1350.959, 91.631
1352.158, 150.125
1353.357, 417.614
1354.555, 43.104
1355.754, 192.593
1356.952, 291.084
1358.151, 73.420
1359.349, 343.055
1360.546, 209.834
1361.744, 169.271
1362.941, 281.714
1364.139, 111.164
1365.336, 121.624
1366.533, 439.338
1367.730, 76.823
1368.926, 338.299
1370.123, 285.148
1371.319, 4.642
1372.515, 300.160
1373.711, 4.222
1374.906, 107.000
1376.102, 316.340
1377.297, 124.398
1378.492, 195.572
1379.687, 271.874
1380.882, 35.053
1382.077, 296.328
1383.271, 309.417
1384.465, 104.648
1385.659, 416.819
1386.853, 36.311
1388.047, 141.237
1389.240, 365.390
1390.434, 51.439
1391.627, 352.750
1392.820, 377.078
1394.013, 102.337
1395.205, 363.286
1396.398, 315.179
1397.590, 36.958
1398.782, 358.118
1399.974, 87.841
1401.166, 221.339
1402.357, 325.074
1403.549, 80.998
1404.740, 297.027
1405.931, 311.069
1407.122, 57.537
1408.313, 371.404
1409.503, 139.137
1410.693, 95.226
1411.883, 418.203
1413.073, 57.870
1414.263, 113.918
1415.453, 383.875
1416.642, 39.438
1417.831, 246.994
1419.020, 272.992
1420.209, 6.128
1421.398, 324.393
1422.587, 122.222
1423.775, 59.336
1424.963, 335.155
1426.151, 138.506
1427.339, 177.659
1428.526, 287.664
1429.714, 42.657
1430.901, 302.627
1432.088, 260.423
1433.275, 8.110
1434.462, 414.934
1435.648, 196.134
1436.835, 48.784
1438.021, 391.946
1439.207, 66.942
1440.393, 169.917
1441.579, 486.828
1442.764, 114.431
1443.949, 256.327
1445.135, 391.884
1446.320, 131.163
1447.504, 364.907
1448.689, 323.595
1449.873, 140.446
1451.058, 547.874
1452.242, 73.602
1453.426, 185.105
1454.609, 474.850
1455.793, 153.079
1456.976, 193.552
1458.159, 490.135
1459.342, 104.135
1460.525, 433.004
1461.708, 303.454
1462.890, 179.294
1464.073, 460.923
1465.255, 204.263
1466.437, 229.143
1467.619, 425.379
1468.800, 57.547
1469.982, 287.292
1471.163, 425.722
1472.344, 74.670
1473.525, 392.401
1474.706, 337.142
1475.886, 128.060
1477.066, 352.201
1478.247, 205.011
1479.427, 63.922
1480.607, 457.833
1481.786, 96.822
1482.966, 314.851
1484.145, 350.930
1485.324, 73.074
1486.503, 431.293
1487.682, 264.586
1488.860, 33.013
1490.039, 387.487
1491.217, 208.079
1492.395, 119.750
1493.573, 434.335
1494.751, 126.281
1495.928, 210.763
1497.106, 314.570
1498.283, 113.591
1499.460, 306.909
1500.637, 338.527
1501.814, 27.496
1502.990, 381.471
1504.166, 205.157
1505.342, 156.201
1506.518, 484.630
1507.694, 55.367
1508.870, 210.364
1510.045, 523.228
1511.221, 52.257
1512.396, 298.962
1513.571, 431.231
1514.745, 1.293
1515.920, 0.000
##END=



