##NAMES=Diamond
##RRUFFID=R050205
##IDEAL CHEMISTRY=C
##LOCALITY=Unknown
##OWNER=RRUFF
##SOURCE=Eric Van Valkenburg
##DESCRIPTION=Single crystal, type IIA
##STATUS=The identification of this mineral has been confirmed by single-crystal X-ray diffraction.
##URL=rruff.info/R050205
##PIN_ID=L00376
##ORIENTATION=Laser parallel to a* (1 0 0). Fiducial mark perpendicular to laser is parallel to c [0 0 1]
114.4400, 0.0000000E+00
115.6710, 74.03833
116.9030, 115.9453
118.1340, 3.890869
119.3650, 77.52954
120.5960, 34.67676
121.8270, 81.18408
123.0580, 44.79102
124.2880, 56.30664
125.5190, 101.5879
126.7490, 50.52368
127.9790, 53.02515
129.2090, 45.02026
130.4390, 98.45166
131.6680, 129.2715
132.8980, 161.4407
134.1270, 182.9260
135.3560, 155.5627
136.5850, 177.7292
137.8140, 87.99780
139.0430, 43.48340
140.2710, 29.16870
141.5000, 75.03857
142.7280, 95.08008
143.9560, 158.2810
145.1840, 86.63208
146.4120, 163.1235
147.6390, 105.7473
148.8670, 81.49829
150.0940, 127.3716
151.3210, 196.3611
152.5490, 111.4585
153.7750, 136.6536
155.0020, 120.9409
156.2290, 199.3140
157.4550, 169.7678
158.6810, 93.29736
159.9080, 142.8987
161.1340, 118.5684
162.3590, 151.3037
163.5850, 121.1025
164.8110, 134.9626
166.0360, 160.8823
167.2610, 116.8596
168.4860, 173.8928
169.7110, 74.97974
170.9360, 153.1189
172.1610, 132.3086
173.3850, 84.54761
174.6100, 174.8352
175.8340, 133.1702
177.0580, 102.5508
178.2820, 164.9766
179.5050, 170.4465
180.7290, 134.9688
181.9520, 167.5601
183.1760, 189.1929
184.3990, 140.8760
185.6220, 201.6074
186.8450, 120.3862
188.0670, 166.2058
189.2900, 171.0222
190.5120, 127.8247
191.7340, 180.6345
192.9560, 186.4592
194.1780, 230.3228
195.4000, 225.1956
196.6220, 247.0813
197.8430, 146.9812
199.0640, 172.8960
200.2860, 152.8267
201.5070, 161.7739
202.7270, 181.7390
203.9480, 219.7222
205.1690, 222.7231
206.3890, 112.7437
207.6090, 176.7830
208.8290, 125.8418
210.0490, 189.9409
211.2690, 90.05908
212.4890, 163.1968
213.7080, 193.3540
214.9280, 206.5312
216.1470, 116.7419
217.3660, 103.9719
218.5850, 186.2244
219.8030, 95.49634
221.0220, 187.7874
222.2400, 125.0979
223.4590, 137.4280
224.6770, 258.7773
225.8950, 203.1455
227.1120, 154.5330
228.3300, 190.9392
229.5480, 150.3640
230.7650, 166.8081
231.9820, 199.2703
233.1990, 156.7690
234.4160, 147.2852
235.6330, 156.8196
236.8490, 247.3716
238.0660, 210.9421
239.2820, 213.5298
240.4980, 199.1348
241.7140, 198.7573
242.9300, 183.6636
244.1460, 174.0540
245.3610, 153.7280
246.5770, 171.3772
247.7920, 162.9900
249.0070, 211.6973
250.2220, 198.4214
251.4370, 221.4160
252.6510, 153.1711
253.8660, 227.0562
255.0800, 127.8364
256.2940, 96.78027
257.5080, 195.1509
258.7220, 225.9785
259.9360, 215.6045
261.1490, 149.5930
262.3630, 206.4822
263.5760, 163.2537
264.7890, 119.4841
266.0020, 102.4109
267.2150, 85.01074
268.4270, 146.9915
269.6400, 78.09326
270.8520, 153.8806
272.0640, 161.5886
273.2760, 190.8247
274.4880, 106.0994
275.7000, 177.4111
276.9120, 161.7573
278.1230, 188.2319
279.3340, 216.6484
280.5450, 165.0952
281.7560, 142.5701
282.9670, 103.0725
284.1780, 123.6011
285.3880, 92.15479
286.5980, 171.7332
287.8090, 133.3350
289.0190, 112.9592
290.2290, 114.6057
291.4380, 77.27393
292.6480, 106.9624
293.8570, 113.6714
295.0670, 84.40015
296.2760, 180.1479
297.4850, 166.9143
298.6930, 152.6987
299.9020, 185.5010
301.1110, 131.3208
302.3190, 153.1580
303.5270, 124.5581
304.7350, 154.4280
305.9430, 139.3140
307.1510, 91.21606
308.3580, 99.13306
309.5660, 146.0657
310.7730, 128.0186
311.9800, 193.9907
313.1870, 147.9775
314.3940, 82.97803
315.6010, 172.0613
316.8070, 148.0898
318.0130, 111.1318
319.2200, 51.18726
320.4260, 141.4592
321.6310, 123.5405
322.8370, 91.63452
324.0430, 23.74121
325.2480, 64.86011
326.4540, 86.99121
327.6590, 60.13818
328.8640, 76.29712
330.0680, 113.4680
331.2730, 21.64966
332.4780, 65.84277
333.6820, 133.0469
334.8860, 80.26172
336.0900, 82.48804
337.2940, 45.72510
338.4980, 1.973389
339.7010, 100.2324
340.9050, 57.50244
342.1080, 14.78345
343.3110, 126.0752
344.5140, 88.37744
345.7170, 85.69067
346.9200, 98.01465
348.1220, 64.34912
349.3240, 134.3630
350.5270, 28.71875
351.7290, 98.08472
352.9310, 22.46094
354.1320, 147.8474
355.3340, 41.24438
356.5350, 84.65088
357.7370, 112.0676
358.9380, 122.4937
360.1390, 27.93018
361.3400, 59.37646
362.5400, 66.83228
363.7410, 41.29736
364.9410, 55.77222
366.1410, 45.25659
367.3410, 45.75024
368.5410, 73.25342
369.7410, 76.76538
370.9400, 87.28687
372.1400, 53.81738
373.3390, 32.35693
374.5380, 14.14917
375.7370, 7.881836
376.9360, 24.96045
378.1350, 22.38965
379.3330, 9.812988
380.5310, 26.77124
381.7300, 4.366211
382.9280, 32.96948
384.1260, 34.58154
385.3230, 88.20190
386.5210, 10.16479
387.7180, 68.47534
388.9160, 93.12378
390.1130, 32.15723
391.3100, 43.49829
392.5060, 77.15771
393.7030, 110.1438
394.9000, 6.176758
396.0960, 45.50854
397.2920, 45.20215
398.4880, 18.10059
399.6840, 19.60254
400.8800, 0.5380860
402.0750, 23.97314
403.2710, 19.74561
404.4660, 16.80811
405.6610, 54.54517
406.8560, 49.30347
408.0510, 44.07422
409.2450, 66.86035
410.4400, 41.03687
411.6340, 16.53247
412.8280, 4.283691
414.0220, 18.88940
415.2160, 39.05713
416.4100, 36.77271
417.6030, 34.61304
418.7970, 94.47266
419.9900, 22.34229
421.1830, 2.776367
422.3760, 6.582275
423.5690, 70.48267
424.7610, 49.39282
425.9540, 93.31250
427.1460, 59.24512
428.3380, 3.190674
429.5300, 52.14551
430.7220, 22.11328
431.9140, 55.09424
433.1050, 7.084229
434.2970, 54.08276
435.4880, 25.09033
436.6790, 77.10620
437.8700, 37.13086
439.0610, 37.16431
440.2510, 9.207764
441.4420, 22.26270
442.6320, 95.32593
443.8220, 43.52393
445.0120, 36.60376
446.2020, 35.30859
447.3910, 55.77344
448.5810, 31.86670
449.7700, 73.00513
450.9600, 84.11499
452.1490, 64.23291
453.3370, 73.67041
454.5260, 39.80591
455.7150, 30.94629
456.9030, 33.09399
458.0910, 22.75098
459.2800, 83.40186
460.4670, 87.56201
461.6550, 97.72925
462.8430, 2.096680
464.0300, 25.08276
465.2180, 94.26904
466.4050, 42.46265
467.5920, 127.6643
468.7790, 84.87256
469.9650, 45.05005
471.1520, 38.27173
472.3380, 19.12915
473.5250, 23.73535
474.7110, 12.97705
475.8970, 20.22534
477.0820, 18.34106
478.2680, 68.74121
479.4540, 66.00854
480.6390, 54.28247
481.8240, 115.5623
483.0090, 24.84863
484.1940, 36.14136
485.3780, 77.44043
486.5630, 101.7451
487.7470, 18.05640
488.9320, 100.3733
490.1160, 53.69653
491.3000, 30.97437
492.4830, 48.34619
493.6670, 29.67236
494.8500, 40.00464
496.0340, 49.34277
497.2170, 45.68652
498.4000, 9.035889
499.5820, 45.39111
500.7650, 36.52173
501.9480, 60.11816
503.1300, 76.49023
504.3120, 79.54858
505.4940, 76.25391
506.6760, 87.64380
507.8580, 83.03955
509.0390, 66.44067
510.2210, 73.84692
511.4020, 74.43701
512.5830, 70.74463
513.7640, 69.09814
514.9450, 68.52612
516.1250, 20.95874
517.3060, 9.396973
518.4860, 35.41284
519.6660, 88.41846
520.8460, 82.24707
522.0260, 82.49316
523.2060, 65.37549
524.3850, 55.92847
525.5650, 60.74097
526.7440, 39.88062
527.9230, 62.41016
529.1020, 73.65918
530.2810, 56.18115
531.4590, 6.678711
532.6380, 72.11475
533.8160, 83.62158
534.9940, 0.8666990
536.1720, 128.5725
537.3500, 73.94849
538.5270, 114.4712
539.7050, 62.30444
540.8820, 63.28784
542.0590, 75.82446
543.2360, 45.36157
544.4130, 90.12036
545.5900, 1.329102
546.7660, 17.81836
547.9430, 73.44678
549.1190, 47.00732
550.2950, 77.61865
551.4710, 95.01929
552.6470, 51.76025
553.8220, 122.8079
554.9980, 95.38867
556.1730, 91.33569
557.3480, 95.41162
558.5230, 104.0049
559.6980, 55.62817
560.8730, 74.22974
562.0470, 89.16235
563.2220, 22.20068
564.3960, 18.39941
565.5700, 139.0073
566.7440, 38.61499
567.9170, 80.09790
569.0910, 102.5176
570.2640, 63.13916
571.4380, 28.64600
572.6110, 30.57397
573.7840, 78.85962
574.9570, 31.49390
576.1290, 96.13184
577.3020, 159.7725
578.4740, 65.41602
579.6460, 39.07764
580.8180, 64.16138
581.9900, 97.40967
583.1620, 56.14209
584.3330, 7.800293
585.5040, 59.45972
586.6760, 49.12183
587.8470, 58.24048
589.0180, 82.65356
590.1880, 11.32373
591.3590, 21.23682
592.5290, 92.91138
593.7000, 15.41162
594.8700, 11.74316
596.0400, 18.91846
597.2090, 33.58276
598.3790, 79.24927
599.5490, 19.84961
600.7180, 81.52075
601.8870, 60.19434
603.0560, 140.8701
604.2250, 62.34521
605.3940, 67.02612
606.5620, 62.77637
607.7300, 23.69897
608.8990, 89.38672
610.0670, 9.923828
611.2350, 116.7590
612.4020, 82.44434
613.5700, 59.13159
614.7370, 72.82056
615.9050, 53.51172
617.0720, 28.20483
618.2390, 39.89966
619.4060, 47.59644
620.5720, 25.29492
621.7390, 16.99536
622.9050, 61.69751
624.0710, 71.41772
625.2370, 85.12329
626.4030, 98.12671
627.5690, 127.5398
628.7340, 94.25049
629.9000, 47.96289
631.0650, 19.67651
632.2300, 86.72339
633.3950, 75.44043
634.5600, 120.1592
635.7240, 25.87939
636.8890, 100.6013
638.0530, 25.32446
639.2170, 52.05493
640.3810, 83.78711
641.5450, 23.52051
642.7080, 113.2690
643.8720, 91.32959
645.0350, 47.08105
646.1980, 91.83350
647.3610, 52.58813
648.5240, 56.34375
649.6870, 93.10107
650.8490, 64.85913
652.0120, 43.61914
653.1740, 70.37988
654.3360, 77.14233
655.4980, 64.90601
656.6600, 31.67090
657.8210, 91.42578
658.9830, 29.19482
660.1440, 22.96802
661.3050, 83.74561
662.4660, 0.5251460
663.6270, 11.30176
664.7870, 74.07861
665.9480, 39.85669
667.1080, 10.36426
668.2680, 30.41431
669.4280, 15.19458
670.5880, 50.97559
671.7480, 57.74341
672.9070, 67.53101
674.0670, 71.31982
675.2260, 8.209229
676.3850, 113.5730
677.5440, 31.35693
678.7030, 3.146729
679.8610, 96.93457
681.0200, 43.72607
682.1780, 57.51807
683.3360, 42.31128
684.4940, 109.1082
685.6520, 2.433594
686.8090, 27.60645
687.9670, 28.16968
689.1240, 14.94653
690.2810, 20.72339
691.4380, 64.12500
692.5950, 18.27930
693.7520, 106.0608
694.9080, 83.84253
696.0650, 41.66919
697.2210, 77.46167
698.3770, 26.56958
699.5330, 59.20630
700.6880, 2.982910
701.8440, 10.75732
702.9990, 81.06348
704.1550, 18.83789
705.3100, 58.70312
706.4650, 7.520996
707.6190, 6.008545
708.7740, 33.84863
709.9290, 7.373535
711.0830, 8.601074
712.2370, 29.14600
713.3910, 60.89307
714.5450, 101.6406
715.6980, 44.38867
716.8520, 28.13721
718.0050, 18.88623
719.1580, 0.2241210
720.3110, 2.541016
721.4640, 13.19922
722.6170, 22.93945
723.7700, 69.55322
724.9220, 40.29395
726.0740, 44.03516
727.2260, 5.216309
728.3780, 125.5254
729.5300, 5.230957
730.6810, 88.97119
731.8330, 63.71191
732.9840, 161.1978
734.1350, 111.8799
735.2860, 170.6670
736.4370, 43.40918
737.5880, 73.15186
738.7380, 27.89941
739.8880, 34.64746
741.0390, 73.39600
742.1890, 39.27148
743.3380, 105.0405
744.4880, 11.79102
745.6380, 3.541504
746.7870, 48.28955
747.9360, 58.03857
749.0850, 111.8257
750.2340, 126.5747
751.3830, 123.3247
752.5310, 101.0796
753.6800, 116.1270
754.8280, 63.58105
755.9760, 102.3325
757.1240, 80.08398
758.2720, 22.83545
759.4190, 78.58789
760.5670, 35.34033
761.7140, 16.09326
762.8610, 62.84668
764.0080, 172.6001
765.1550, 94.35352
766.3020, 83.10742
767.4480, 78.86230
768.5950, 46.61670
769.7410, 54.37158
770.8870, 36.13428
772.0330, 63.89697
773.1780, 34.65967
774.3240, 71.42285
775.4690, 42.18652
776.6140, 114.2505
777.7590, 36.01416
778.9040, 121.7788
780.0490, 111.7129
781.1940, 2.477539
782.3380, 29.23926
783.4820, 126.0010
784.6260, 140.8721
785.7700, 200.6411
786.9140, 146.4102
788.0580, 161.1938
789.2010, 159.9775
790.3450, 99.76465
791.4880, 93.55176
792.6310, 110.3389
793.7730, 93.54541
794.9160, 156.0894
796.0590, 136.8779
797.2010, 141.6665
798.3430, 219.4551
799.4850, 170.2432
800.6270, 215.6128
801.7690, 158.3164
802.9100, 121.1045
804.0520, 200.8926
805.1930, 132.3955
806.3340, 69.18311
807.4750, 123.9424
808.6160, 16.72998
809.7560, 86.51709
810.8970, 187.3047
812.0370, 136.0913
813.1770, 93.95410
814.3170, 73.74268
815.4570, 62.19678
816.5960, 63.63281
817.7360, 68.98730
818.8750, 100.7749
820.0140, 113.5625
821.1530, 150.3501
822.2920, 45.13721
823.4310, 17.33008
824.5690, 83.05176
825.7070, 37.84619
826.8460, 152.5942
827.9840, 26.38818
829.1220, 101.1826
830.2590, 72.96582
831.3970, 82.75977
832.5340, 14.55420
833.6710, 41.34766
834.8080, 5.141602
835.9450, 107.9077
837.0820, 106.6997
838.2190, 62.16455
839.3550, 35.83398
840.4910, 111.6323
841.6270, 8.426758
842.7630, 146.2246
843.8990, 10.84961
845.0350, 79.13965
846.1700, 13.93066
847.3060, 12.85303
848.4410, 57.70264
849.5760, 89.50684
850.7100, 121.3110
851.8450, 86.11621
852.9800, 86.92139
854.1140, 53.74365
855.2480, 70.53467
856.3820, 5.906738
857.5160, 46.11670
858.6500, 68.84619
859.7830, 135.6533
860.9170, 82.51562
862.0500, 110.3242
863.1830, 95.13281
864.3160, 50.20703
865.4480, 106.0161
866.5810, 55.59424
867.7130, 87.41406
868.8460, 42.23389
869.9780, 51.06006
871.1100, 6.891113
872.2410, 108.7222
873.3730, 53.55371
874.5050, 112.3853
875.6360, 59.21777
876.7670, 16.05127
877.8980, 0.8847660
879.0290, 9.793945
880.1590, 31.54980
881.2900, 64.31592
882.4200, 65.91162
883.5500, 82.74561
884.6800, 95.58057
885.8100, 146.4199
886.9400, 67.25928
888.0690, 11.09961
889.1990, 74.93994
890.3280, 95.78076
891.4570, 66.62207
892.5860, 84.46777
893.7140, 49.31348
894.8430, 73.16016
895.9710, 79.61816
897.1000, 30.85498
898.2280, 96.68652
899.3560, 74.53467
900.4830, 48.38379
901.6110, 98.23291
902.7380, 16.08203
903.8660, 34.93213
904.9930, 36.75391
906.1200, 50.63379
907.2460, 65.48535
908.3730, 70.33691
909.5000, 121.1890
910.6260, 84.04150
911.7520, 21.10547
912.8780, 43.74414
914.0040, 35.58691
915.1290, 51.57031
916.2550, 42.24561
917.3800, 88.75098
918.5050, 31.56836
919.6300, 2.108887
920.7550, 33.92822
921.8800, 70.74707
923.0040, 54.94629
924.1290, 52.76709
925.2530, 82.35498
926.3770, 67.17578
927.5010, 32.99756
928.6250, 99.81836
929.7480, 0.6396480
930.8720, 19.74609
931.9950, 105.5654
933.1180, 46.38525
934.2410, 17.20508
935.3640, 76.02490
936.4860, 122.8472
937.6090, 94.66992
938.7310, 32.49316
939.8530, 26.68457
940.9750, 52.12793
942.0970, 55.94092
943.2180, 40.75586
944.3400, 22.52100
945.4610, 46.33740
946.5820, 20.15381
947.7030, 91.97070
948.8240, 59.79199
949.9450, 17.38672
951.0650, 105.4243
952.1860, 19.23682
953.3060, 71.04980
954.4260, 77.86230
955.5460, 66.67578
956.6650, 87.48828
957.7850, 81.64111
958.9040, 79.59766
960.0230, 79.36377
961.1420, 62.18896
962.2610, 48.01514
963.3800, 25.84082
964.4990, 53.66699
965.6170, 83.49316
966.7350, 76.32227
967.8530, 93.15674
968.9710, 85.94043
970.0890, 84.59473
971.2070, 80.43359
972.3240, 48.27246
973.4410, 97.11279
974.5580, 132.9541
975.6750, 92.79541
976.7920, 54.54688
977.9090, 59.40283
979.0250, 39.06104
980.1410, 45.33545
981.2580, 40.07617
982.3740, 40.94092
983.4890, 38.68213
984.6050, 58.71387
985.7200, 45.60059
986.8360, 64.48730
987.9510, 12.37451
989.0660, 16.26074
990.1810, 63.14795
991.2950, 92.95850
992.4100, 59.85010
993.5240, 63.74219
994.6390, 7.634277
995.7530, 74.52539
996.8660, 31.41748
997.9800, 13.30859
999.0940, 78.20361
1000.207, 118.1021
1001.320, 49.99854
1002.433, 44.89453
1003.546, 32.79102
1004.659, 114.6865
1005.772, 45.53711
1006.884, 76.43262
1007.996, 75.32861
1009.108, 43.22412
1010.220, 36.11963
1011.332, 36.01514
1012.444, 107.7837
1013.555, 76.66016
1014.666, 68.55615
1015.777, 135.4512
1016.888, 106.3481
1017.999, 98.24414
1019.110, 96.14111
1020.220, 30.03760
1021.331, 27.93359
1022.441, 37.61865
1023.551, 143.7212
1024.661, 70.61719
1025.770, 133.3643
1026.880, 131.2603
1027.989, 59.15625
1029.098, 133.0522
1030.207, 86.94775
1031.316, 102.8438
1032.425, 100.7393
1033.533, 116.6353
1034.642, 106.3115
1035.750, 97.39600
1036.858, 68.32227
1037.966, 86.21826
1039.073, 34.11377
1040.181, 69.00928
1041.288, 48.90430
1042.396, 96.80029
1043.503, 70.69580
1044.610, 79.59131
1045.716, 13.18701
1046.823, 95.08252
1047.929, 104.9780
1049.036, 53.70410
1050.142, 23.59961
1051.248, 78.49756
1052.353, 25.15283
1053.459, 158.6289
1054.564, 97.51270
1055.670, 51.60400
1056.775, 122.3979
1057.880, 9.746582
1058.985, 88.10156
1060.089, 139.9507
1061.194, 92.79980
1062.298, 66.64941
1063.402, 1.677734
1064.506, 37.16943
1065.610, 69.01660
1066.713, 80.86475
1067.817, 93.71289
1068.920, 61.56104
1070.023, 67.40967
1071.126, 108.2588
1072.229, 109.1084
1073.332, 30.19678
1074.435, 110.0474
1075.537, 7.897949
1076.639, 48.74902
1077.741, 98.34766
1078.843, 64.19922
1079.945, 79.05225
1081.046, 64.90527
1082.148, 56.40381
1083.249, 34.42627
1084.350, 51.28076
1085.451, 83.13623
1086.551, 100.9917
1087.652, 48.84766
1088.752, 132.7046
1089.853, 83.56152
1090.953, 22.58057
1092.053, 59.26562
1093.152, 15.11133
1094.252, 59.95850
1095.351, 13.80615
1096.451, 62.65381
1097.550, 74.50195
1098.649, 78.00684
1099.748, 62.85596
1100.846, 193.7065
1101.945, 100.5576
1103.043, 131.4102
1104.141, 20.26270
1105.239, 47.11621
1106.337, 82.96973
1107.434, 156.8242
1108.532, 100.6792
1109.629, 58.87842
1110.726, 2.734863
1111.823, 62.94336
1112.920, 42.19629
1114.017, 43.63867
1115.113, 92.47461
1116.210, 88.31055
1117.306, 94.14648
1118.402, 106.8008
1119.498, 99.63525
1120.593, 107.6396
1121.689, 109.4771
1122.784, 108.3145
1123.879, 147.1523
1124.974, 132.9902
1126.069, 12.82861
1127.164, 34.61279
1128.259, 38.45166
1129.353, 66.29102
1130.447, 52.12549
1131.541, 29.03027
1132.635, 108.7969
1133.729, 19.62451
1134.822, 59.45264
1135.916, 53.28125
1137.009, 50.10986
1138.102, 63.10840
1139.195, 58.76904
1140.288, 45.59912
1141.380, 61.42969
1142.473, 11.26074
1143.565, 81.09180
1144.657, 73.92432
1145.749, 20.75732
1146.841, 54.59033
1147.932, 81.42432
1149.024, 70.25879
1150.115, 123.0933
1151.206, 106.5420
1152.297, 40.76416
1153.388, 78.60303
1154.479, 96.44287
1155.569, 51.28271
1156.659, 11.87646
1157.750, 75.95850
1158.839, 83.79443
1159.929, 87.63721
1161.019, 22.48096
1162.108, 135.3252
1163.198, 41.17041
1164.287, 58.01611
1165.376, 55.86230
1166.465, 36.70947
1167.553, 52.56299
1168.642, 46.41748
1169.730, 31.27295
1170.818, 49.12891
1171.906, 40.98682
1172.994, 63.84521
1174.082, 52.70508
1175.170, 131.5649
1176.257, 57.42578
1177.344, 113.2856
1178.431, 145.1543
1179.518, 15.02295
1180.605, 5.906250
1181.691, 28.79102
1182.778, 6.324219
1183.864, 90.83594
1184.950, 52.71875
1186.036, 96.60303
1187.122, 2.891602
1188.207, 41.99316
1189.292, 16.11133
1190.378, 26.00098
1191.463, 54.89209
1192.548, 35.54688
1193.632, 9.678711
1194.717, 36.28809
1195.801, 3.185059
1196.886, 22.08350
1197.970, 44.98389
1199.054, 93.88477
1200.137, 49.78711
1201.221, 51.69092
1202.305, 48.59717
1203.388, 97.50439
1204.471, 96.42139
1205.554, 68.33936
1206.637, 31.25635
1207.719, 14.82324
1208.802, 42.09277
1209.884, 54.00977
1210.966, 119.9277
1212.048, 49.84766
1213.130, 105.7690
1214.212, 51.69727
1215.293, 84.62646
1216.374, 57.55713
1217.456, 88.48975
1218.536, 65.42725
1219.617, 105.3662
1220.698, 43.30713
1221.778, 92.79541
1222.859, 99.73926
1223.939, 44.68457
1225.019, 191.6318
1226.099, 21.58057
1227.178, 93.53125
1228.258, 14.51660
1229.337, 129.4312
1230.417, 86.38037
1231.496, 49.33154
1232.574, 19.28564
1233.653, 33.24023
1234.732, 82.19727
1235.810, 48.15576
1236.888, 52.11572
1237.966, 53.07812
1239.044, 57.95850
1240.122, 102.9785
1241.199, 58.11719
1242.277, 30.79443
1243.354, 59.83008
1244.431, 61.74512
1245.508, 83.66748
1246.585, 52.59082
1247.661, 26.51660
1248.738, 61.44434
1249.814, 32.37354
1250.890, 38.30518
1251.966, 49.50391
1253.042, 39.17432
1254.117, 80.11182
1255.193, 88.05127
1256.268, 134.9927
1257.343, 117.9360
1258.418, 116.8818
1259.493, 69.86426
1260.567, 76.81396
1261.642, 81.76270
1262.716, 73.71680
1263.790, 75.32227
1264.864, 69.02100
1265.938, 71.59277
1267.011, 55.55566
1268.085, 64.52100
1269.158, 62.48828
1270.231, 71.45850
1271.304, 58.43018
1272.377, 21.40381
1273.450, 91.38037
1274.522, 121.3589
1275.594, 80.33984
1276.666, 119.3223
1277.738, 44.30762
1278.810, 81.29492
1279.882, 46.28467
1280.953, 33.27637
1282.025, 67.89014
1283.096, 35.88623
1284.167, 65.88477
1285.238, 31.88574
1286.308, 160.3604
1287.379, 129.3657
1288.449, 104.8975
1289.519, 42.96973
1290.589, 103.9824
1291.659, 113.9971
1292.729, 36.01416
1293.798, 66.03369
1294.868, 113.0552
1295.937, 82.49463
1297.006, 49.52197
1298.075, 36.55762
1299.143, 28.63428
1300.212, 21.06055
1301.280, 42.92383
1302.348, 31.96875
1303.416, 58.01562
1304.484, 83.06445
1305.552, 95.11621
1306.620, 117.1714
1307.687, 128.2285
1308.754, 137.2886
1309.821, 190.3506
1310.888, 143.4160
1311.955, 222.0312
1313.021, 288.1079
1314.088, 201.1870
1315.154, 252.2676
1316.220, 290.2178
1317.286, 266.3193
1318.352, 446.1079
1319.417, 451.2168
1320.483, 459.3257
1321.548, 601.4355
1322.613, 732.5464
1323.678, 1000.661
1324.743, 1242.779
1325.807, 2002.898
1326.872, 3186.021
1327.936, 5487.145
1329.000, 8797.273
1330.064, 14320.59
1331.128, 26480.72
1332.191, 47051.86
1333.255, 56408.99
1334.318, 44438.13
1335.381, 25049.27
1336.444, 11842.69
1337.507, 6010.852
1338.569, 3276.000
1339.632, 2064.151
1340.694, 1415.305
1341.756, 1090.460
1342.818, 783.6191
1343.880, 627.7798
1344.941, 489.9438
1346.003, 409.9497
1347.064, 378.1191
1348.125, 297.2910
1349.186, 272.4658
1350.247, 208.6499
1351.308, 149.8369
1352.368, 233.0269
1353.428, 173.2197
1354.489, 182.4092
1355.549, 118.6011
1356.608, 267.1411
1357.668, 167.3394
1358.727, 153.5889
1359.787, 62.87549
1360.846, 100.0825
1361.905, 122.2925
1362.964, 216.5054
1364.022, 84.72168
1365.081, 149.9409
1366.139, 85.15869
1367.197, 135.0356
1368.255, 106.2573
1369.313, 66.12256
1370.371, 153.3394
1371.428, 70.57178
1372.486, 170.8882
1373.543, 143.1162
1374.600, 57.34570
1375.657, 33.57715
1376.713, 144.8125
1377.770, 79.05078
1378.826, 35.29199
1379.882, 111.5361
1380.938, 24.78320
1381.994, 120.0332
1383.050, 174.2861
1384.106, 85.53613
1385.161, 35.78906
1386.216, 23.93018
1387.271, 59.32422
1388.326, 93.66943
1389.381, 111.9365
1390.435, 116.2065
1391.490, 116.5312
1392.544, 98.28516
1393.598, 109.0342
1394.652, 34.40967
1395.705, 62.69434
1396.759, 14.98193
1397.812, 93.26367
1398.866, 65.54736
1399.919, 95.83447
1400.972, 14.12402
1402.024, 67.41650
1403.077, 17.71191
1404.129, 64.00928
1405.181, 91.30859
1406.233, 54.61084
1407.285, 68.91602
1408.337, 15.77588
1409.389, 44.53271
1410.440, 92.82812
1411.491, 124.2095
1412.542, 9.488770
1413.593, 15.81885
1414.644, 29.87109
1415.695, 2.564453
1416.745, 49.74512
1417.795, 45.12598
1418.845, 123.4404
1419.895, 36.75781
1420.945, 4.078613
1421.995, 27.59961
1423.044, 88.91797
1424.093, 92.64697
1425.142, 60.97363
1426.191, 6.695313
1427.240, 22.63770
1428.289, 63.97510
1429.337, 16.31738
1430.385, 19.66113
1431.433, 58.01123
1432.481, 66.55176
1433.529, 61.91016
1434.577, 35.35254
1435.624, 101.7139
1436.672, 53.16309
1437.719, 48.46289
1438.766, 26.76221
1439.812, 116.0566
1440.859, 105.3306
1441.905, 54.59131
1442.952, 40.36377
1443.998, 13.42236
1445.044, 55.77002
1446.090, 43.91748
1447.135, 93.56885
1448.181, 114.5303
1449.226, 57.31348
1450.271, 131.6919
1451.316, 107.0742
1452.361, 58.45898
1453.405, 94.84668
1454.450, 77.23877
1455.494, 3.357910
1456.538, 34.04932
1457.582, 83.46045
1458.626, 39.87598
1459.670, 114.2910
1460.713, 119.7056
1461.757, 11.12451
1462.800, 12.54688
1463.843, 60.97314
1464.886, 54.40674
1465.928, 32.84717
1466.971, 88.29102
1468.013, 70.73828
1469.055, 92.19043
1470.097, 44.66309
1471.139, 12.82373
1472.181, 81.71289
1473.222, 48.24219
1474.263, 50.77783
1475.305, 127.3188
1476.346, 65.86475
1477.386, 34.41699
1478.427, 26.97412
1479.468, 97.14111
1480.508, 76.69336
1481.548, 34.25146
1482.588, 107.8145
1483.628, 14.38330
1484.668, 6.956055
1485.707, 40.53516
1486.747, 96.11963
1487.786, 72.71094
1488.825, 129.3076
1489.864, 33.91064
1490.902, 51.56494
1491.941, 78.16748
1492.979, 50.26758
1494.017, 57.33203
1495.055, 43.91162
1496.093, 47.12891
1497.131, 16.27783
1498.168, 69.27246
1499.206, 104.3931
1500.243, 144.9360
1501.280, 82.48291
1502.317, 139.0322
1503.354, 67.58301
1504.390, 72.13672
1505.426, 50.69434
1506.463, 103.2583
1507.499, 61.82520
1508.535, 131.0488
1509.570, 40.61279
1510.606, 28.18750
1511.641, 52.76660
1512.676, 14.35010
1513.711, 57.53906
1514.746, 54.12451
1515.781, 115.7134
1516.816, 130.2549
1517.850, 179.8086
1518.884, 16.40723
1519.918, 94.00879
1520.952, 149.6133
1521.986, 43.10596
1523.019, 117.6655
1524.053, 94.22266
1525.086, 107.7759
1526.119, 66.35986
1527.152, 75.94092
1528.185, 71.14111
1529.217, 102.7051
1530.250, 84.26367
1531.282, 85.82861
1532.314, 108.4077
1533.346, 49.06396
1534.377, 55.08154
1535.409, 24.71094
1536.440, 112.3472
1537.472, 149.9829
1538.503, 110.6191
1539.534, 79.25244
1540.564, 136.9341
1541.595, 32.51172
1542.625, 62.81641
1543.656, 94.50049
1544.686, 110.1865
1545.716, 53.41455
1546.745, 14.12793
1547.775, 15.10400
1548.804, 135.6733
1549.834, 86.46973
1550.863, 142.2891
1551.892, 100.1250
1552.920, 86.07959
1553.949, 88.57568
1554.977, 70.67432
1556.006, 24.81836
1557.034, 87.42773
1558.062, 47.53271
1559.089, 105.9751
1560.117, 23.21826
1561.144, 62.83887
1562.172, 83.12549
1563.199, 145.9663
1564.226, 90.66113
1565.252, 53.46338
1566.279, 0.6064450
1567.305, 94.22266
1568.332, 73.48828
1569.358, 6.422363
1570.384, 0.0000000E+00
##END=



