##NAMES=Diamond
##RRUFFID=R050206
##IDEAL CHEMISTRY=C
##LOCALITY=Unknown
##OWNER=RRUFF
##SOURCE=Eric Van Valkenburg
##DESCRIPTION=Single crystal, type IIA
##STATUS=The identification of this mineral has been confirmed by single-crystal X-ray diffraction.
##URL=rruff.info/R050206
##PIN_ID=L01807
##ORIENTATION=Laser parallel to a* (1 0 0). Fiducial mark perpendicular to laser is parallel to c [0 0 1]
114.4400, 0.0000000E+00
115.6710, 37.61987
116.9030, 9.756592
118.1340, 37.87598
119.3650, 8.336182
120.5960, 6.047852
121.8270, 15.19849
123.0580, 14.13940
124.2880, 90.92358
125.5190, 49.43335
126.7490, 79.28784
127.9790, 67.44189
129.2090, 45.85938
130.4390, 16.51025
131.6680, 95.37012
132.8980, 25.58154
134.1270, 72.63721
135.3560, 62.01123
136.5850, 64.52661
137.8140, 136.1711
139.0430, 106.9338
140.2710, 59.80615
141.5000, 127.7798
142.7280, 62.84888
143.9560, 117.0066
145.1840, 106.2480
146.4120, 136.5686
147.6390, 68.96362
148.8670, 73.42969
150.0940, 120.9631
151.3210, 195.5608
152.5490, 98.21802
153.7750, 118.9302
155.0020, 139.6934
156.2290, 141.5039
157.4550, 181.3584
158.6810, 124.2556
159.9080, 152.0208
161.1340, 126.1711
162.3590, 152.1863
163.5850, 139.2380
164.8110, 125.3252
166.0360, 159.4482
167.2610, 141.6055
168.4860, 142.7961
169.7110, 133.0193
170.9360, 142.2734
172.1610, 133.8535
173.3850, 143.5493
174.6100, 130.2166
175.8340, 157.5881
177.0580, 171.5203
178.2820, 168.0544
179.5050, 186.8655
180.7290, 154.3508
181.9520, 135.8606
183.1760, 137.3945
184.3990, 143.9521
185.6220, 109.5327
186.8450, 175.1360
188.0670, 178.7571
189.2900, 169.3835
190.5120, 153.0171
191.7340, 163.6580
192.9560, 82.30566
194.1780, 105.9587
195.4000, 122.6191
196.6220, 171.2881
197.8430, 155.9436
199.0640, 141.6216
200.2860, 124.3101
201.5070, 69.02686
202.7270, 96.50049
203.9480, 96.50293
205.1690, 139.2583
206.3890, 149.0259
207.6090, 183.8071
208.8290, 160.6021
210.0490, 164.4084
211.2690, 213.2295
212.4890, 163.0652
213.7080, 112.9160
214.9280, 133.8120
216.1470, 109.7200
217.3660, 129.6392
218.5850, 134.5698
219.8030, 127.5107
221.0220, 172.4634
222.2400, 123.4338
223.4590, 143.4153
224.6770, 173.4077
225.8950, 151.4106
227.1120, 109.4287
228.3300, 161.4578
229.5480, 135.4976
230.7650, 193.5474
231.9820, 156.6082
233.1990, 166.6797
234.4160, 58.76099
235.6330, 149.8582
236.8490, 126.9705
238.0660, 145.0930
239.2820, 198.2261
240.4980, 169.6997
241.7140, 55.52319
242.9300, 139.6873
244.1460, 167.8613
245.3610, 125.4055
246.5770, 259.5964
247.7920, 114.7981
249.0070, 77.00903
250.2220, 138.2305
251.4370, 130.4614
252.6510, 157.7024
253.8660, 112.9529
255.0800, 104.2129
256.2940, 146.4827
257.5080, 117.7617
258.7220, 115.5972
259.9360, 72.35693
261.1490, 77.18921
262.3630, 113.0674
263.5760, 89.96973
264.7890, 32.88770
266.0020, 109.8528
267.2150, 62.77905
268.4270, 17.71509
269.6400, 144.6643
270.8520, 115.5408
272.0640, 143.4424
273.2760, 179.3672
274.4880, 95.31421
275.7000, 178.2822
276.9120, 115.2800
278.1230, 130.2866
279.3340, 122.8203
280.5450, 60.86255
281.7560, 119.7368
282.9670, 83.81104
284.1780, 51.90088
285.3880, 143.0054
286.5980, 91.31396
287.8090, 68.44629
289.0190, 121.9121
290.2290, 105.0708
291.4380, 107.2415
292.6480, 103.4277
293.8570, 113.6260
295.0670, 75.90430
296.2760, 138.1252
297.4850, 145.3572
298.6930, 94.60010
299.9020, 65.10498
301.1110, 66.47729
302.3190, 30.64209
303.5270, 75.92578
304.7350, 84.21924
305.9430, 125.5225
307.1510, 56.22314
308.3580, 82.54468
309.5660, 44.87573
310.7730, 36.21533
311.9800, 63.04785
313.1870, 105.8162
314.3940, 13.18164
315.6010, 112.6345
316.8070, 70.01660
318.0130, 117.4067
319.2200, 88.80469
320.4260, 80.21069
321.6310, 130.6240
322.8370, 61.04541
324.0430, 71.47388
325.2480, 95.90991
326.4540, 51.35303
327.6590, 183.3875
328.8640, 22.84497
330.0680, 98.30908
331.2730, 85.78027
332.4780, 25.25977
333.6820, 82.74585
334.8860, 41.23853
336.0900, 57.73804
337.2940, 72.62256
338.4980, 22.13525
339.7010, 13.65454
340.9050, 48.18066
342.1080, 44.71338
343.3110, 58.25244
344.5140, 68.05200
345.7170, 57.35327
346.9200, 71.91504
348.1220, 56.48315
349.3240, 43.05737
350.5270, 81.63770
351.7290, 94.22437
352.9310, 115.8262
354.1320, 46.43408
355.3340, 53.93433
356.5350, 46.55444
357.7370, 27.18042
358.9380, 28.81714
360.1390, 85.45996
361.3400, 62.10889
362.5400, 159.7629
363.7410, 7.422607
364.9410, 151.0879
366.1410, 72.76855
367.3410, 25.45435
368.5410, 18.14600
369.7410, 43.84277
370.9400, 31.54492
372.1400, 19.25220
373.3390, 26.96484
374.5380, 13.31738
375.7370, 40.40430
376.9360, 105.1306
378.1350, 42.86206
379.3330, 36.59863
380.5310, 78.34058
381.7300, 150.0869
382.9280, 67.83813
384.1260, 2.594482
385.3230, 49.35571
386.5210, 3.122070
387.7180, 32.89453
388.9160, 31.67212
390.1130, 27.45239
391.3100, 48.23779
392.5060, 25.02759
393.7030, 60.82227
394.9000, 27.62109
396.0960, 50.42651
397.2920, 49.23584
398.4880, 35.05005
399.6840, 24.86816
400.8800, 16.34814
402.0750, 0.4816890
403.2710, 14.34937
404.4660, 45.18481
405.6610, 89.02686
406.8560, 23.87500
408.0510, 47.72974
409.2450, 2.409912
410.4400, 57.45630
411.6340, 38.32861
412.8280, 51.20679
414.0220, 2.217529
415.2160, 4.108154
416.4100, 32.00513
417.6030, 44.90845
418.7970, 100.8179
419.9900, 0.2673340
421.1830, 2.653320
422.3760, 1.420166
423.5690, 70.53760
424.7610, 21.51855
425.9540, 50.42310
427.1460, 66.37036
428.3380, 37.32300
429.5300, 28.71899
430.7220, 45.23364
431.9140, 9.806885
433.1050, 48.15479
434.2970, 23.12134
435.4880, 7.744141
436.6790, 29.72192
437.8700, 2.294922
439.0610, 58.69214
440.2510, 37.69263
441.4420, 51.69751
442.6320, 7.291260
443.8220, 43.72095
445.0120, 28.73779
446.2020, 39.75977
447.3910, 67.78613
448.5810, 29.81738
449.7700, 10.14722
450.9600, 18.89331
452.1490, 79.93872
453.3370, 35.98804
454.5260, 11.95825
455.7150, 48.90430
456.9030, 14.13306
458.0910, 1.825439
459.2800, 28.21948
460.4670, 66.26855
461.6550, 19.32178
462.8430, 64.37939
464.0300, 91.44141
465.2180, 17.50781
466.4050, 116.5781
467.5920, 49.65234
468.7790, 53.73096
469.9650, 13.18701
471.1520, 148.8938
472.3380, 79.97852
473.5250, 10.06714
474.7110, 149.5015
475.8970, 62.59814
477.0820, 49.69800
478.2680, 47.80200
479.4540, 8.090332
480.6390, 6.017090
481.8240, 48.12866
483.0090, 93.24365
484.1940, 70.36230
485.3780, 84.48462
486.5630, 41.61011
487.7470, 29.39429
488.9320, 32.52710
490.1160, 50.66333
491.3000, 72.80298
492.4830, 84.94604
493.6670, 10.09277
494.8500, 43.36475
496.0340, 70.51782
497.2170, 16.32568
498.4000, 18.82593
499.5820, 73.98096
500.7650, 64.19336
501.9480, 35.47241
503.1300, 32.63647
504.3120, 4.803955
505.4940, 27.97412
506.6760, 67.14746
507.8580, 86.60791
509.0390, 42.78711
510.2210, 46.97461
511.4020, 43.15918
512.5830, 73.34668
513.7640, 70.53711
514.9450, 29.72998
516.1250, 47.92578
517.3060, 52.80103
518.4860, 21.00220
519.6660, 107.2063
520.8460, 87.41284
522.0260, 54.62183
523.2060, 67.83350
524.3850, 29.04761
525.5650, 52.26440
526.7440, 72.48413
527.9230, 36.82886
529.1020, 106.3635
530.2810, 17.59033
531.4590, 27.85645
532.6380, 109.0959
533.8160, 58.33032
534.9940, 31.57812
536.1720, 46.81714
537.3500, 32.21387
538.5270, 44.61987
539.7050, 38.86597
540.8820, 73.11426
542.0590, 49.36499
543.2360, 95.61792
544.4130, 86.86401
545.5900, 31.12134
546.7660, 70.38110
547.9430, 59.64258
549.1190, 28.90674
550.2950, 108.1731
551.4710, 43.39966
552.6470, 56.67017
553.8220, 40.94263
554.9980, 15.78271
556.1730, 91.48413
557.3480, 90.88379
558.5230, 77.15430
559.6980, 49.42700
560.8730, 57.70166
562.0470, 72.96802
563.2220, 57.24634
564.3960, 7.495117
565.5700, 17.77661
566.7440, 29.24414
567.9170, 80.52905
569.0910, 80.81567
570.2640, 98.10425
571.4380, 106.2046
572.6110, 87.83887
573.7840, 9.812500
574.9570, 15.10815
576.1290, 7.262451
577.3020, 24.03198
578.4740, 21.20142
579.6460, 49.55762
580.8180, 21.86206
581.9900, 55.16333
583.1620, 9.470459
584.3330, 15.52759
585.5040, 66.83765
586.6760, 63.28711
587.8470, 53.59985
589.0180, 15.91431
590.1880, 58.22998
591.3590, 100.1504
592.5290, 11.47900
593.7000, 12.80859
594.8700, 43.13940
596.0400, 65.98779
597.2090, 57.91040
598.3790, 25.24561
599.5490, 74.50269
600.7180, 54.84033
601.8870, 11.17944
603.0560, 58.52002
604.2250, 42.01074
605.3940, 25.35376
606.5620, 64.69800
607.7300, 59.04370
608.8990, 107.3906
610.0670, 70.73853
611.2350, 92.50342
612.4020, 18.85400
613.5700, 62.20532
614.7370, 1.441650
615.9050, 59.90894
617.0720, 44.26074
618.2390, 81.61377
619.4060, 52.96802
620.5720, 42.94482
621.7390, 54.30127
622.9050, 12.65869
624.0710, 65.01733
625.2370, 10.37720
626.4030, 80.73779
627.5690, 6.900146
628.7340, 12.45654
629.9000, 36.81445
631.0650, 137.1807
632.2300, 23.54761
633.3950, 79.91528
634.5600, 31.71582
635.7240, 78.63574
636.8890, 95.98828
638.0530, 24.45557
639.2170, 42.81030
640.3810, 13.83447
641.5450, 3.140381
642.7080, 45.87915
643.8720, 31.24023
645.0350, 41.60205
646.1980, 34.96484
647.3610, 34.67163
648.5240, 97.67334
649.6870, 9.019287
650.8490, 74.36572
652.0120, 59.71338
653.1740, 33.06128
654.3360, 27.41040
655.4980, 124.7603
656.6600, 44.11060
657.8210, 91.46387
658.9830, 77.81714
660.1440, 79.17188
661.3050, 29.52686
662.4660, 92.88281
663.6270, 86.23975
664.7870, 46.59717
665.9480, 42.95557
667.1080, 3.314453
668.2680, 0.7380370
669.4280, 52.02905
670.5880, 7.385742
671.7480, 9.742920
672.9070, 55.10034
674.0670, 9.458740
675.2260, 101.8176
676.3850, 0.8229980
677.5440, 81.53394
678.7030, 15.89160
679.8610, 24.24976
681.0200, 112.6089
682.1780, 23.96826
683.3360, 16.32837
684.4940, 32.68896
685.6520, 20.05029
686.8090, 57.41260
687.9670, 14.77515
689.1240, 35.98853
690.2810, 56.60229
691.4380, 41.96680
692.5950, 69.33179
693.7520, 60.69751
694.9080, 24.93677
696.0650, 2.303467
697.2210, 56.66943
698.3770, 77.03589
699.5330, 86.68384
700.6880, 32.77075
701.8440, 95.13867
702.9990, 90.50732
704.1550, 37.85718
705.3100, 83.22729
706.4650, 71.60156
707.6190, 62.97876
708.7740, 21.35693
709.9290, 63.74512
711.0830, 1.861084
712.2370, 84.53003
713.3910, 58.92334
714.5450, 1.682373
715.6980, 70.33569
716.8520, 133.7280
718.0050, 46.12012
719.1580, 30.48633
720.3110, 110.9150
721.4640, 20.32031
722.6170, 69.69678
723.7700, 55.07617
724.9220, 2.456055
726.0740, 50.83594
727.2260, 17.21606
728.3780, 69.59692
729.5300, 11.69629
730.6810, 70.67822
731.8330, 64.05322
732.9840, 43.42847
734.1350, 76.80396
735.2860, 59.18188
736.4370, 71.57056
737.5880, 30.95923
738.7380, 101.3489
739.8880, 68.73901
741.0390, 79.12891
742.1890, 3.519287
743.3380, 54.90869
744.4880, 20.29810
745.6380, 86.68945
746.7870, 38.08154
747.9360, 56.47388
749.0850, 51.86597
750.2340, 75.26123
751.3830, 88.65698
752.5310, 62.05273
753.6800, 17.10693
754.8280, 97.50317
755.9760, 80.89990
757.1240, 55.29688
758.2720, 81.69385
759.4190, 51.09302
760.5670, 43.49243
761.7140, 78.89185
762.8610, 102.2917
764.0080, 49.69165
765.1550, 105.0920
766.3020, 28.83813
767.4480, 82.23877
768.5950, 32.23267
769.7410, 66.63403
770.8870, 23.03540
772.0330, 112.4370
773.1780, 21.71704
774.3240, 83.11938
775.4690, 74.52197
776.6140, 78.93042
777.7590, 173.3391
778.9040, 122.0234
780.0490, 106.3145
781.1940, 31.44214
782.3380, 85.85181
783.4820, 109.2620
784.6260, 57.67188
785.7700, 60.79810
786.9140, 100.2090
788.0580, 180.6150
789.2010, 144.0264
790.3450, 188.4385
791.4880, 197.8508
792.6310, 190.2634
793.7730, 94.67651
794.9160, 140.0901
796.0590, 151.5039
797.2010, 155.9180
798.3430, 214.3328
799.4850, 191.7520
800.6270, 241.1716
801.7690, 207.5962
802.9100, 210.0166
804.0520, 134.4373
805.1930, 167.7356
806.3340, 156.8469
807.4750, 222.2688
808.6160, 168.6545
809.7560, 91.06885
810.8970, 171.4917
812.0370, 141.9041
813.1770, 118.3274
814.3170, 99.43384
815.4570, 126.8582
816.5960, 118.2832
817.7360, 205.7083
818.8750, 175.2117
820.0140, 54.55981
821.1530, 121.9861
822.2920, 127.4128
823.4310, 29.84009
824.5690, 108.2678
825.7070, 2.695801
826.8460, 59.12305
827.9840, 70.55103
829.1220, 89.97925
830.2590, 125.4080
831.3970, 50.83667
832.5340, 62.27100
833.6710, 69.57520
834.8080, 73.01050
835.9450, 108.4460
837.0820, 122.8823
838.2190, 64.31885
839.3550, 49.75586
840.4910, 134.1958
841.6270, 62.63623
842.7630, 77.07715
843.8990, 83.07251
845.0350, 86.51416
846.1700, 75.26782
847.3060, 84.70996
848.4410, 59.81030
849.5760, 84.25317
850.7100, 83.05322
851.8450, 1.111328
852.9800, 68.34106
854.1140, 120.7939
855.2480, 50.24731
856.3820, 7.695557
857.5160, 14.85083
858.6500, 74.59375
859.7830, 87.03882
860.9170, 114.4844
862.0500, 16.94458
863.1830, 52.39062
864.3160, 81.83691
865.4480, 35.71606
866.5810, 100.7292
867.7130, 53.15674
868.8460, 48.58472
869.9780, 60.01294
871.1100, 55.44189
872.2410, 60.87109
873.3730, 123.3003
874.5050, 103.7302
875.6360, 91.16016
876.7670, 18.59106
877.8980, 132.0215
879.0290, 96.30371
880.1590, 43.73560
881.2900, 81.54102
882.4200, 42.00317
883.5500, 63.43945
884.6800, 51.87598
885.8100, 39.31274
886.9400, 96.75000
888.0690, 42.18750
889.1990, 66.63428
890.3280, 103.0740
891.4570, 42.51392
892.5860, 34.95435
893.7140, 45.39502
894.8430, 54.83594
895.9710, 42.27710
897.1000, 68.18457
898.2280, 120.1604
899.3560, 77.60620
900.4830, 99.05347
901.6110, 40.50098
902.7380, 20.95142
903.8660, 24.59741
904.9930, 53.84814
906.1200, 71.28564
907.2460, 53.72363
908.3730, 61.16187
909.5000, 33.60962
910.6260, 19.05908
911.7520, 72.83325
912.8780, 87.28320
914.0040, 36.26660
915.1290, 27.17725
916.2550, 10.37256
917.3800, 37.07129
918.5050, 95.51538
919.6300, 62.95972
920.7550, 57.40430
921.8800, 54.85889
923.0040, 63.31372
924.1290, 54.77441
925.2530, 57.60010
926.3770, 60.60327
927.5010, 59.15771
928.6250, 60.61914
929.7480, 67.08105
930.8720, 54.54321
931.9950, 56.00537
933.1180, 69.46777
934.2410, 37.91650
935.3640, 98.37939
936.4860, 8.842041
937.6090, 25.30518
938.7310, 155.7683
939.8530, 19.23145
940.9750, 65.69556
942.0970, 67.16113
943.2180, 45.62695
944.3400, 43.09302
945.4610, 60.55933
946.5820, 72.02637
947.7030, 100.4976
948.8240, 89.96924
949.9450, 106.6736
951.0650, 104.9158
952.1860, 96.38916
953.3060, 117.8625
954.4260, 64.33618
955.5460, 30.80981
956.6650, 18.28369
957.7850, 81.75757
958.9040, 42.23145
960.0230, 77.70557
961.1420, 100.0793
962.2610, 53.55371
963.3800, 30.03052
964.4990, 63.50708
965.6170, 29.98779
966.7350, 29.47119
967.8530, 53.95410
968.9710, 102.4385
970.0890, 113.9226
971.2070, 102.1875
972.3240, 100.5400
973.4410, 41.37524
974.5580, 62.44727
975.6750, 12.93140
976.7920, 12.41553
977.9090, 7.065918
979.0250, 31.37915
980.1410, 35.14160
981.2580, 17.31763
982.3740, 38.77710
983.4890, 43.23804
984.6050, 1.698975
985.7200, 41.15918
986.8360, 106.4409
987.9510, 76.90723
989.0660, 132.3733
990.1810, 20.83936
991.2950, 59.28931
992.4100, 13.73584
993.5240, 67.21021
994.6390, 21.68408
995.7530, 0.1584470
996.8660, 111.6316
997.9800, 96.10449
999.0940, 66.58203
1000.207, 110.7336
1001.320, 73.21533
1002.433, 14.69727
1003.546, 34.17920
1004.659, 80.66235
1005.772, 78.14771
1006.884, 43.63306
1007.996, 74.11865
1009.108, 27.60425
1010.220, 91.08960
1011.332, 41.57520
1012.444, 38.06055
1013.555, 10.54712
1014.666, 4.151367
1015.777, 4.365479
1016.888, 82.81396
1017.999, 14.29639
1019.110, 47.77881
1020.220, 35.26147
1021.331, 31.74390
1022.441, 6.227051
1023.551, 100.7102
1024.661, 42.19312
1025.770, 42.67603
1026.880, 86.15894
1027.989, 23.64185
1029.098, 52.12451
1030.207, 17.60742
1031.316, 70.09009
1032.425, 30.42725
1033.533, 36.05249
1034.642, 52.53491
1035.750, 44.01758
1036.858, 33.49976
1037.966, 5.389404
1039.073, 38.87134
1040.181, 25.35352
1041.288, 110.8354
1042.396, 7.317383
1043.503, 92.11255
1044.610, 3.405518
1045.716, 50.07324
1046.823, 118.5520
1047.929, 118.7175
1049.036, 113.4299
1050.142, 130.1794
1051.248, 115.1055
1052.353, 113.1462
1053.459, 87.62427
1054.564, 65.10205
1055.670, 32.57983
1056.775, 52.33398
1057.880, 101.8113
1058.985, 108.2883
1060.089, 71.76489
1061.194, 49.24146
1062.298, 84.71802
1063.402, 131.1943
1064.506, 85.67017
1065.610, 132.1460
1066.713, 13.37866
1067.817, 141.0879
1068.920, 98.55396
1070.023, 80.01562
1071.126, 134.4817
1072.229, 19.94727
1073.332, 41.41260
1074.435, 47.87793
1075.537, 35.34302
1076.639, 21.80811
1077.741, 29.51367
1078.843, 41.82690
1079.945, 31.22534
1081.046, 45.68896
1082.148, 33.15283
1083.249, 110.6165
1084.350, 95.07983
1085.451, 109.5427
1086.551, 44.00562
1087.652, 47.46826
1088.752, 14.93066
1089.853, 41.39258
1090.953, 83.85449
1092.053, 31.31616
1093.152, 79.77759
1094.252, 47.23901
1095.351, 80.21094
1096.451, 12.67188
1097.550, 55.89429
1098.649, 31.95996
1099.748, 69.42017
1100.846, 22.88013
1101.945, 55.33984
1103.043, 79.79932
1104.141, 111.2583
1105.239, 83.71680
1106.337, 5.824463
1107.434, 88.62817
1108.532, 26.08057
1109.629, 51.53271
1110.726, 127.4307
1111.823, 59.88232
1112.920, 54.02222
1114.017, 82.47339
1115.113, 21.92480
1116.210, 61.37598
1117.306, 6.745850
1118.402, 30.73071
1119.498, 63.70337
1120.593, 23.13770
1121.689, 72.57153
1122.784, 6.005371
1123.879, 95.43896
1124.974, 69.87744
1126.069, 70.31543
1127.164, 28.75342
1128.259, 50.03931
1129.353, 43.47705
1130.447, 80.95630
1131.541, 70.61377
1132.635, 65.84131
1133.729, 60.28857
1134.822, 57.95703
1135.916, 93.45923
1137.009, 54.34326
1138.102, 64.79517
1139.195, 56.24634
1140.288, 133.6980
1141.380, 89.14917
1142.473, 104.6006
1143.565, 15.05200
1144.657, 53.50317
1145.749, 10.04590
1146.841, 64.02783
1147.932, 59.44580
1149.024, 32.88916
1150.115, 84.33252
1151.206, 62.77612
1152.297, 69.21997
1153.388, 70.78003
1154.479, 82.21484
1155.569, 51.65845
1156.659, 79.10254
1157.750, 68.54688
1158.839, 44.99146
1159.929, 14.43579
1161.019, 17.87988
1162.108, 14.32446
1163.198, 11.23071
1164.287, 0.3842770
1165.376, 20.64185
1166.465, 12.07739
1167.553, 22.55127
1168.642, 40.94897
1169.730, 24.38354
1170.818, 13.82690
1171.906, 40.27002
1172.994, 33.71387
1174.082, 2.842529
1175.170, 98.59839
1176.257, 66.71509
1177.344, 31.15649
1178.431, 30.40186
1179.518, 17.96729
1180.605, 36.45679
1181.691, 31.88428
1182.778, 84.31201
1183.864, 53.74048
1184.950, 23.16919
1186.036, 21.59814
1187.122, 18.97241
1188.207, 37.44629
1189.292, 35.86523
1190.378, 74.28491
1191.463, 62.64868
1192.548, 125.1250
1193.632, 26.54590
1194.717, 33.96704
1195.801, 15.38867
1196.886, 83.81079
1197.970, 77.24756
1199.054, 79.67065
1200.137, 32.09473
1201.221, 69.51904
1202.305, 45.94409
1203.388, 35.36963
1204.471, 56.79590
1205.554, 32.22290
1206.637, 17.65039
1207.719, 97.07837
1208.802, 0.4926760
1209.884, 15.06421
1210.966, 110.3564
1212.048, 13.77759
1213.130, 55.19971
1214.212, 15.62231
1215.293, 40.04614
1216.374, 47.47046
1217.456, 69.89551
1218.536, 89.32129
1219.617, 53.74805
1220.698, 29.17554
1221.778, 27.60376
1222.859, 42.03271
1223.939, 21.46289
1225.019, 9.106201
1226.099, 103.3208
1227.178, 13.25146
1228.258, 10.82959
1229.337, 71.58765
1230.417, 40.00586
1231.496, 83.42480
1232.574, 13.84473
1233.653, 83.26538
1234.732, 46.68750
1235.810, 17.11035
1236.888, 88.94678
1237.966, 18.37183
1239.044, 80.79761
1240.122, 93.22485
1241.199, 13.65552
1242.277, 90.08765
1243.354, 38.53052
1244.431, 52.97485
1245.508, 51.42065
1246.585, 41.86719
1247.661, 19.68457
1248.738, 43.66406
1249.814, 27.10596
1250.890, 17.54907
1251.966, 102.9937
1253.042, 25.43994
1254.117, 55.88721
1255.193, 43.33618
1256.268, 60.78613
1257.343, 52.23804
1258.418, 88.69214
1259.493, 20.84521
1260.567, 85.61133
1261.642, 15.06909
1262.716, 39.52856
1263.790, 84.99023
1264.864, 7.546631
1265.938, 10.98389
1267.011, 50.42505
1268.085, 69.88599
1269.158, 24.36401
1270.231, 96.82788
1271.304, 52.29346
1272.377, 75.76074
1273.450, 68.22949
1274.522, 77.69995
1275.594, 55.35767
1276.666, 7.833496
1277.738, 127.3115
1278.810, 21.79126
1279.882, 49.27466
1280.953, 40.76025
1282.025, 3.752441
1283.096, 55.73535
1284.167, 27.22510
1285.238, 44.76514
1286.308, 56.29297
1287.379, 89.78833
1288.449, 51.28638
1289.519, 47.78613
1290.589, 51.28809
1291.659, 47.26904
1292.729, 130.4429
1293.798, 77.80811
1294.868, 97.31787
1295.937, 137.8296
1297.006, 43.34375
1298.075, 87.85986
1299.143, 134.3784
1300.212, 108.8994
1301.280, 189.4229
1302.348, 87.94824
1303.416, 159.1631
1304.484, 169.6926
1305.552, 118.2261
1306.620, 150.7668
1307.687, 173.2927
1308.754, 118.6064
1309.821, 219.1565
1310.888, 213.7087
1311.955, 230.2639
1313.021, 337.8210
1314.088, 328.3806
1315.154, 385.9424
1316.220, 411.2285
1317.286, 542.7935
1318.352, 580.3599
1319.417, 742.9280
1320.483, 817.4966
1321.548, 1062.065
1322.613, 1410.636
1323.678, 1847.209
1324.743, 2932.784
1325.807, 4988.361
1326.872, 9332.943
1327.936, 17321.53
1329.000, 27524.12
1330.064, 39916.71
1331.128, 52562.30
1332.191, 56836.89
1333.255, 49691.49
1334.318, 34867.10
1335.381, 20027.69
1336.444, 10086.30
1337.507, 5199.814
1338.569, 3125.490
1339.632, 1979.102
1340.694, 1391.715
1341.756, 1032.332
1342.818, 806.9512
1343.880, 648.5732
1344.941, 535.1980
1346.003, 455.8257
1347.064, 377.4558
1348.125, 358.0884
1349.186, 355.7244
1350.247, 305.3628
1351.308, 207.0046
1352.368, 225.6489
1353.428, 196.7861
1354.489, 194.4365
1355.549, 213.3284
1356.608, 192.3796
1357.668, 211.0381
1358.727, 108.6938
1359.787, 162.3525
1360.846, 56.01440
1361.905, 97.67944
1362.964, 95.34741
1364.022, 87.01855
1365.081, 53.69556
1366.139, 61.23389
1367.197, 22.05908
1368.255, 70.74487
1369.313, 72.43433
1370.371, 105.1270
1371.428, 36.87402
1372.486, 85.57300
1373.543, 117.2756
1374.600, 80.98096
1375.657, 110.6680
1376.713, 140.4541
1377.770, 27.17871
1378.826, 46.90698
1379.882, 54.63818
1380.938, 35.37280
1381.994, 42.11084
1383.050, 58.85229
1384.106, 59.59717
1385.161, 39.34570
1386.216, 80.78735
1387.271, 47.81299
1388.326, 54.59912
1389.381, 58.36182
1390.435, 66.21313
1391.490, 59.01147
1392.544, 6.489990
1393.598, 27.14868
1394.652, 46.62866
1395.705, 1.589844
1396.759, 22.19580
1397.812, 70.98535
1398.866, 21.77905
1399.919, 75.57690
1400.972, 76.42310
1402.024, 51.22949
1403.077, 74.04370
1404.129, 97.86304
1405.181, 16.69165
1406.233, 58.00781
1407.285, 36.84082
1408.337, 93.67871
1409.389, 142.4048
1410.440, 43.25171
1411.491, 3.895996
1412.542, 3.041016
1413.593, 20.81934
1414.644, 14.68481
1415.695, 43.88794
1416.745, 62.44019
1417.795, 85.29175
1418.845, 96.14111
1419.895, 90.99658
1420.945, 100.5330
1421.995, 59.78296
1423.044, 87.65186
1424.093, 66.52539
1425.142, 33.49438
1426.191, 57.47021
1427.240, 41.25464
1428.289, 45.77515
1429.337, 54.16260
1430.385, 50.04419
1431.433, 70.92847
1432.481, 58.06396
1433.529, 115.9534
1434.577, 131.4404
1435.624, 70.34912
1436.672, 12.25781
1437.719, 141.2554
1438.766, 89.16211
1439.812, 161.0720
1440.859, 77.88794
1441.905, 141.6360
1442.952, 145.3462
1443.998, 35.07739
1445.044, 94.82202
1446.090, 96.35229
1447.135, 79.67456
1448.181, 85.53345
1449.226, 82.39722
1450.271, 69.75854
1451.316, 4.138916
1452.361, 57.01685
1453.405, 28.89941
1454.450, 40.78711
1455.494, 134.6799
1456.538, 59.58740
1457.582, 4.500244
1458.626, 64.41797
1459.670, 165.3411
1460.713, 101.2693
1461.757, 77.20264
1462.800, 131.1411
1463.843, 97.09082
1464.886, 43.05713
1465.928, 86.03198
1466.971, 58.01318
1468.013, 51.00024
1469.055, 33.99316
1470.097, 58.99243
1471.139, 43.99731
1472.181, 16.00830
1473.222, 47.02466
1474.263, 146.0530
1475.305, 36.09277
1476.346, 31.13892
1477.386, 133.1909
1478.427, 19.24976
1479.468, 40.30518
1480.508, 25.36499
1481.548, 18.43066
1482.588, 26.15112
1483.628, 81.10400
1484.668, 36.15674
1485.707, 66.23804
1486.747, 91.32495
1487.786, 57.41724
1488.825, 45.51587
1489.864, 107.6135
1490.902, 55.71777
1491.941, 49.75317
1492.979, 90.81470
1494.017, 70.93481
1495.055, 22.06055
1496.093, 7.192383
1497.131, 87.32983
1498.168, 48.47363
1499.206, 77.62183
1500.243, 9.774414
1501.280, 6.933594
1502.317, 57.09009
1503.354, 33.23853
1504.390, 88.38818
1505.426, 108.5417
1506.463, 133.7021
1507.499, 49.87354
1508.535, 67.05762
1509.570, 102.2610
1510.606, 26.52100
1511.641, 4.291748
1512.676, 22.94800
1513.711, 89.19873
1514.746, 10.46045
1515.781, 24.73291
1516.816, 152.0168
1517.850, 74.31201
1518.884, 77.61816
1519.918, 41.93506
1520.952, 67.26318
1521.986, 102.6023
1523.019, 145.9521
1524.053, 111.3132
1525.086, 27.68555
1526.119, 48.06885
1527.152, 60.46558
1528.185, 60.91162
1529.217, 40.37354
1530.250, 2.149658
1531.282, 88.34277
1532.314, 44.85522
1533.346, 89.38574
1534.377, 67.76123
1535.409, 60.32373
1536.440, 129.4946
1537.472, 141.0854
1538.503, 51.69873
1539.534, 49.33643
1540.564, 140.9990
1541.595, 45.29419
1542.625, 69.58765
1543.656, 101.4902
1544.686, 34.88135
1545.716, 83.27100
1546.745, 90.65747
1547.775, 104.0383
1548.804, 31.16699
1549.834, 31.51245
1550.863, 36.81470
1551.892, 72.94141
1552.920, 96.01270
1553.949, 97.02686
1554.977, 171.9622
1556.006, 9.289307
1557.034, 122.9805
1558.062, 2.725098
1559.089, 73.96777
1560.117, 116.1135
1561.144, 40.25244
1562.172, 64.37402
1563.199, 105.4832
1564.226, 105.6240
1565.252, 51.77368
1566.279, 40.78589
1567.305, 11.82861
1568.332, 1.124756
1569.358, 25.69946
1570.384, 0.0000000E+00
##END=



