##NAMES=Diamond
##RRUFFID=R050204
##IDEAL CHEMISTRY=C
##LOCALITY=Unknown
##OWNER=RRUFF
##SOURCE=Eric Van Valkenburg
##DESCRIPTION=Single crystal, type IIA
##STATUS=The identification of this mineral has been confirmed by single-crystal X-ray diffraction.
##URL=rruff.info/R050204
##PIN_ID=M01891
##ORIENTATION=Laser parallel to a* (1 0 0). Fiducial mark perpendicular to laser is parallel to b [0 1 0]
170.5590, 0.0000000E+00
171.7860, 35.60889
173.0130, 0.5888670
174.2400, 6.750488
175.4670, 2.534180
176.6930, 16.29346
177.9200, 39.97168
179.1460, 72.02441
180.3720, 78.71875
181.5980, 103.7251
182.8230, 87.52246
184.0490, 94.58057
185.2740, 66.86328
186.5000, 128.3486
187.7250, 112.0132
188.9500, 133.8438
190.1740, 44.82910
191.3990, 88.95508
192.6230, 8.792480
193.8480, 100.5698
195.0720, 78.03125
196.2960, 213.5820
197.5200, 108.2124
198.7430, 140.9150
199.9670, 211.6953
201.1900, 69.55371
202.4130, 87.47559
203.6360, 158.4678
204.8590, 5.532227
206.0820, 62.66504
207.3050, 18.85938
208.5270, 55.12988
209.7490, 58.47168
210.9710, 68.84766
212.1930, 146.2529
213.4150, 126.6836
214.6370, 202.1377
215.8580, 49.61133
217.0790, 88.10254
218.3010, 149.6104
219.5210, 197.1367
220.7420, 181.6836
221.9630, 166.2412
223.1830, 146.8154
224.4040, 129.4033
225.6240, 103.9961
226.8440, 144.6230
228.0640, 205.2822
229.2840, 188.3242
230.5030, 116.1182
231.7230, 233.9082
232.9420, 145.6924
234.1610, 215.5596
235.3800, 86.56543
236.5990, 225.5967
237.8170, 154.7158
239.0360, 159.8818
240.2540, 107.0234
241.4720, 34.18750
242.6900, 127.3252
243.9080, 141.4404
245.1250, 165.5312
246.3430, 159.9619
247.5600, 163.1787
248.7770, 102.1855
249.9940, 134.1758
251.2110, 202.1523
252.4280, 189.1162
253.6450, 17.07031
254.8610, 133.0117
256.0770, 116.9434
257.2930, 223.8643
258.5090, 191.7764
259.7250, 187.6797
260.9400, 159.5732
262.1560, 129.4609
263.3710, 169.3428
264.5860, 107.2383
265.8010, 87.12598
267.0160, 233.0430
268.2310, 74.13184
269.4450, 207.2061
270.6600, 153.0586
271.8740, 145.9043
273.0880, 132.7451
274.3020, 194.8320
275.5150, 89.65430
276.7290, 120.7295
277.9420, 206.5361
279.1550, 37.33594
280.3680, 188.1289
281.5810, 97.91699
282.7940, 259.1211
284.0070, 63.87793
285.2190, 55.82520
286.4310, 7.268555
287.6430, 86.47461
288.8550, 138.8760
290.0670, 96.53711
291.2790, 209.1943
292.4900, 208.2529
293.7020, 275.7471
294.9130, 231.3906
296.1240, 177.2432
297.3350, 102.7695
298.5450, 91.53125
299.7560, 120.4482
300.9660, 50.59570
302.1760, 41.39355
303.3860, 33.38086
304.5960, 109.5332
305.8060, 112.9365
307.0150, 103.3379
308.2250, 216.0801
309.4340, 99.46484
310.6430, 66.50391
311.8520, 61.16504
313.0610, 99.50488
314.2700, 81.99219
315.4780, 83.89941
316.6860, 99.06445
317.8940, 57.56934
319.1020, 65.80566
320.3100, 35.25000
321.5180, 9.260742
322.7250, 21.25098
323.9330, 38.93359
325.1400, 45.47461
326.3470, 72.07031
327.5540, 187.6309
328.7600, 168.2012
329.9670, 250.7812
331.1730, 208.3691
332.3800, 219.0928
333.5860, 181.6943
334.7920, 215.3018
335.9970, 111.9229
337.2030, 184.5371
338.4080, 97.22070
339.6140, 164.8545
340.8190, 104.4785
342.0240, 235.1035
343.2290, 133.7314
344.4330, 276.3594
345.6380, 180.9873
346.8420, 65.61719
348.0460, 68.24707
349.2500, 122.8760
350.4540, 146.5029
351.6580, 178.1309
352.8610, 181.3750
354.0650, 178.7139
355.2680, 184.3359
356.4710, 89.50000
357.6740, 120.1162
358.8760, 123.7285
360.0790, 202.3398
361.2810, 100.9473
362.4840, 52.74805
363.6860, 81.34863
364.8880, 24.94727
366.0900, 172.5410
367.2910, 26.13184
368.4930, 139.7168
369.6940, 106.3428
370.8950, 78.91895
372.0960, 67.72266
373.2970, 130.2920
374.4980, 123.1260
375.6980, 21.49805
376.8980, 194.0498
378.0990, 115.5977
379.2990, 182.1406
380.4980, 21.79395
381.6980, 161.3232
382.8980, 122.8477
384.0970, 174.3662
385.2960, 167.8770
386.4950, 132.3818
387.6940, 215.8809
388.8930, 148.3750
390.0920, 143.9717
391.2900, 140.5342
392.4880, 21.68945
393.6860, 212.0332
394.8840, 111.6504
396.0820, 164.6650
397.2800, 38.21289
398.4770, 90.19238
399.6750, 45.66309
400.8720, 185.1240
402.0690, 95.58008
403.2660, 218.0283
404.4620, 103.4707
405.6590, 77.09277
406.8550, 208.3125
408.0510, 105.8447
409.2480, 174.2393
410.4430, 191.6357
411.6390, 29.01855
412.8350, 142.6182
414.0300, 219.9873
415.2250, 157.5693
416.4200, 132.2246
417.6150, 252.5957
418.8100, 63.11426
420.0050, 65.02246
421.1990, 8.499023
422.3940, 91.16211
423.5880, 29.72949
424.7820, 15.65527
425.9750, 66.26270
427.1690, 61.88477
428.3630, 22.14648
429.5560, 24.38965
430.7490, 8.473633
431.9420, 28.11523
433.1350, 147.0693
434.3280, 38.58203
435.5200, 72.21191
436.7130, 18.81250
437.9050, 170.6289
439.0970, 241.8906
440.2890, 114.2002
441.4810, 146.2783
442.6720, 19.33691
443.8640, 229.3887
445.0550, 166.4307
446.2460, 143.4541
447.4370, 27.52930
448.6280, 116.4834
449.8180, 23.44238
451.0090, 194.3955
452.1990, 149.4609
453.3890, 181.3994
454.5790, 116.3193
455.7690, 217.5459
456.9590, 145.4521
458.1480, 29.62793
459.3380, 138.6133
460.5270, 79.50293
461.7160, 218.4102
462.9050, 181.2861
464.0940, 188.2461
465.2820, 201.4199
466.4700, 62.29883
467.6590, 260.1299
468.8470, 90.37500
470.0350, 267.3916
471.2220, 121.3193
472.4100, 234.1406
473.5970, 137.9541
474.7850, 70.77832
475.9720, 248.5928
477.1590, 159.4004
478.3460, 100.2002
479.5320, 216.9893
480.7190, 56.77051
481.9050, 100.5439
483.0910, 128.3174
484.2770, 118.0830
485.4630, 162.8389
486.6490, 150.9404
487.8340, 179.0332
489.0200, 139.0664
490.2050, 195.7900
491.3900, 188.5039
492.5750, 130.2109
493.7600, 159.9072
494.9440, 26.59375
496.1290, 171.2686
497.3130, 205.9336
498.4970, 10.41016
499.6810, 205.2217
500.8650, 134.8447
502.0480, 127.4688
503.2320, 186.0859
504.4150, 61.69434
505.5980, 137.3330
506.7810, 181.9219
507.9640, 127.3555
509.1460, 164.9229
510.3290, 203.3379
511.5110, 99.88770
512.6930, 167.4268
513.8750, 56.01465
515.0570, 241.5400
516.2390, 185.0557
517.4210, 91.67578
518.6020, 218.9902
519.7830, 178.4736
520.9640, 141.9619
522.1450, 84.42773
523.3260, 117.9082
524.5060, 171.3701
525.6870, 207.2158
526.8670, 210.6396
528.0470, 189.1172
529.2270, 237.9453
530.4070, 158.8242
531.5870, 94.61426
532.7660, 99.98926
533.9450, 57.91504
535.1240, 65.39062
536.3030, 89.72949
537.4820, 17.41797
538.6610, 107.7734
539.8390, 19.37891
541.0180, 147.6621
542.1960, 222.8096
543.3740, 134.0713
544.5520, 126.3193
545.7290, 129.5576
546.9070, 137.8105
548.0840, 154.5879
549.2620, 89.02539
550.4390, 136.6455
551.6160, 118.8262
552.7920, 152.4971
553.9690, 67.57422
555.1450, 179.2676
556.3220, 69.93652
557.4980, 59.62109
558.6740, 157.9521
559.8490, 89.47363
561.0250, 22.52734
562.2000, 95.43750
563.3760, 290.1953
564.5510, 88.74707
565.7260, 94.16211
566.9010, 39.09473
568.0750, 29.23926
569.2500, 160.4375
570.4240, 135.5654
571.5980, 162.5371
572.7720, 75.57715
573.9460, 164.5000
575.1200, 37.68555
576.2930, 109.3662
577.4670, 50.91309
578.6400, 41.44141
579.8130, 83.03125
580.9860, 70.11035
582.1590, 115.9473
583.3310, 198.2197
584.5040, 174.1191
585.6760, 148.3457
586.8480, 305.3564
588.0200, 223.5117
589.1920, 102.0596
590.3630, 152.8887
591.5350, 166.6533
592.7060, 84.38672
593.8770, 147.1309
595.0480, 165.8408
596.2190, 38.66016
597.3900, 237.5322
598.5600, 50.81445
599.7310, 94.18848
600.9010, 167.8359
602.0710, 109.3965
603.2410, 251.1279
604.4100, 87.97168
605.5800, 232.5791
606.7490, 89.32812
607.9190, 252.7568
609.0880, 20.07910
610.2570, 73.03418
611.4250, 92.69434
612.5940, 120.6660
613.7620, 240.4092
614.9310, 202.3271
616.0990, 240.7080
617.2670, 310.5391
618.4340, 237.0186
619.6020, 232.4756
620.7690, 226.2334
621.9370, 370.6455
623.1040, 416.3496
624.2710, 429.7686
625.4380, 281.1738
626.6040, 357.5830
627.7710, 264.9775
628.9370, 355.3604
630.1030, 304.7305
631.2690, 226.0898
632.4350, 220.4365
633.6010, 223.0117
634.7660, 203.2744
635.9320, 222.6211
637.0970, 201.5420
638.2620, 252.8291
639.4270, 226.5605
640.5920, 233.0303
641.7560, 277.7930
642.9210, 218.4619
644.0850, 215.0908
645.2490, 110.1377
646.4130, 244.5488
647.5770, 202.8193
648.7400, 482.0264
649.9040, 184.2217
651.0670, 313.4072
652.2300, 317.6660
653.3930, 115.4580
654.5560, 143.5098
655.7190, 336.6445
656.8810, 100.7695
658.0440, 197.7939
659.2060, 173.8896
660.3680, 124.9717
661.5300, 210.3340
662.6910, 77.27441
663.8530, 124.3193
665.0140, 30.34961
666.1750, 197.3643
667.3360, 113.8574
668.4970, 28.20508
669.6580, 18.34180
670.8190, 40.52539
671.9790, 164.2227
673.1390, 74.94824
674.2990, 144.6299
675.4590, 195.2412
676.6190, 24.05957
677.7790, 118.2109
678.9380, 20.92871
680.0970, 138.3311
681.2570, 152.2334
682.4160, 237.9971
683.5740, 130.7480
684.7330, 257.4854
685.8920, 123.2100
687.0500, 150.9229
688.2080, 73.64551
689.3660, 27.22168
690.5240, 172.1250
691.6820, 15.79590
692.8390, 97.78125
693.9960, 10.20605
695.1540, 11.93164
696.3110, 59.45898
697.4680, 76.82910
698.6240, 28.37793
699.7810, 161.9150
700.9370, 205.8848
702.0940, 201.2637
703.2500, 181.7666
704.4060, 121.1523
705.5610, 66.56641
706.7170, 67.73730
707.8720, 46.66016
709.0280, 20.84180
710.1830, 56.77832
711.3380, 11.22266
712.4920, 6.468750
713.6470, 63.16602
714.8020, 161.2402
715.9560, 148.6064
717.1100, 36.24414
718.2640, 4.833008
719.4180, 161.0645
720.5720, 240.2275
721.7250, 20.56445
722.8780, 28.88477
724.0320, 26.18945
725.1850, 75.47949
726.3380, 30.76367
727.4900, 51.03223
728.6430, 110.2500
729.7950, 50.50000
730.9470, 135.7344
732.1000, 122.8359
733.2510, 152.0459
734.4030, 99.24219
735.5550, 83.11035
736.7060, 13.72070
737.8570, 205.1514
739.0090, 259.1943
740.1600, 129.5264
741.3100, 104.6318
742.4610, 74.75098
743.6110, 135.8604
744.7620, 92.95410
745.9120, 189.9209
747.0620, 0.3466800
748.2120, 24.99023
749.3610, 101.8379
750.5110, 24.75391
751.6600, 76.85840
752.8090, 57.93555
753.9580, 160.9990
755.1070, 44.92188
756.2560, 179.2207
757.4050, 169.1152
758.5530, 55.99707
759.7010, 89.86523
760.8490, 24.27734
761.9970, 173.5488
763.1450, 303.3613
764.2920, 2.558594
765.4400, 164.2246
766.5870, 193.9932
767.7340, 131.9082
768.8810, 139.6523
770.0280, 176.7969
771.1740, 90.51465
772.3210, 144.4287
773.4670, 245.2412
774.6130, 199.2910
775.7590, 186.9561
776.9050, 155.7598
778.0510, 81.45020
779.1960, 26.91602
780.3420, 27.68262
781.4870, 34.26465
782.6320, 208.0703
783.7770, 93.55664
784.9210, 124.2979
786.0660, 181.1836
787.2100, 152.6953
788.3540, 230.4521
789.4980, 105.4131
790.6420, 10.00586
791.7860, 104.3857
792.9300, 169.8154
794.0730, 135.2305
795.2160, 431.5186
796.3590, 153.9092
797.5020, 152.2861
798.6450, 65.83008
799.7880, 257.1777
800.9300, 283.5723
802.0720, 184.8779
803.2150, 148.7764
804.3560, 19.39551
805.4980, 49.35449
806.6400, 95.52246
807.7810, 109.3721
808.9230, 164.2080
810.0640, 223.1025
811.2050, 151.0850
812.3460, 232.4482
813.4860, 288.7529
814.6270, 161.5664
815.7670, 208.6885
816.9070, 92.65137
818.0470, 99.66309
819.1870, 131.7959
820.3270, 308.9834
821.4670, 180.1914
822.6060, 232.3555
823.7450, 232.5479
824.8840, 227.7393
826.0230, 209.6836
827.1620, 78.46875
828.3010, 371.7812
829.4390, 51.71289
830.5770, 295.5869
831.7150, 56.11816
832.8530, 222.7803
833.9910, 221.1895
835.1290, 262.9307
836.2660, 86.76172
837.4030, 370.6982
838.5410, 161.9551
839.6780, 125.0664
840.8140, 279.9805
841.9510, 254.9150
843.0870, 176.5498
844.2240, 289.3369
845.3600, 235.8672
846.4960, 256.2988
847.6320, 293.2441
848.7680, 205.6348
849.9030, 57.18945
851.0380, 345.7910
852.1740, 253.4844
853.3090, 347.2920
854.4440, 427.0596
855.5780, 252.2676
856.7130, 506.0684
857.8470, 342.8320
858.9820, 486.3408
860.1160, 376.6680
861.2500, 271.3516
862.3830, 259.7256
863.5170, 505.1670
864.6500, 250.5391
865.7840, 294.1475
866.9170, 303.4941
868.0500, 196.1533
869.1830, 205.7803
870.3150, 246.4170
871.4480, 205.9639
872.5800, 121.5068
873.7120, 226.5020
874.8440, 182.0967
875.9760, 10.32227
877.1080, 155.6201
878.2390, 246.2100
879.3710, 94.92871
880.5020, 194.5586
881.6330, 196.9219
882.7640, 37.42578
883.8940, 198.1699
885.0250, 158.2148
886.1550, 212.5742
887.2850, 97.60742
888.4160, 69.83984
889.5450, 125.8711
890.6750, 203.6348
891.8050, 24.69727
892.9340, 317.0938
894.0630, 235.8086
895.1930, 250.2871
896.3220, 122.9902
897.4500, 126.4062
898.5790, 156.7480
899.7070, 43.68750
900.8360, 175.5234
901.9640, 137.8066
903.0920, 78.07422
904.2200, 183.4395
905.3470, 16.68555
906.4750, 295.0098
907.6020, 65.06055
908.7290, 86.28516
909.8560, 26.49805
910.9830, 262.6973
912.1100, 79.12695
913.2360, 104.3027
914.3630, 181.2598
915.4890, 140.0879
916.6150, 114.7988
917.7410, 108.2578
918.8670, 141.8008
919.9920, 63.81641
921.1180, 25.80078
922.2430, 170.8262
923.3680, 49.83789
924.4930, 0.8378910
925.6180, 84.70508
926.7420, 267.0605
927.8670, 224.8594
928.9910, 277.1152
930.1150, 275.8711
931.2390, 192.9121
932.3630, 218.8750
933.4860, 62.83008
934.6100, 204.4824
935.7330, 43.81641
936.8560, 150.7441
937.9790, 188.6582
939.1020, 31.93750
940.2250, 152.3516
941.3470, 92.88672
942.4700, 88.60547
943.5920, 136.3770
944.7140, 4.740234
945.8360, 15.87500
946.9570, 68.99219
948.0790, 79.84961
949.2000, 175.6973
950.3220, 113.6270
951.4430, 44.06641
952.5640, 72.24609
953.6840, 150.4395
954.8050, 91.54688
955.9250, 83.33789
957.0460, 91.11914
958.1660, 74.88672
959.2860, 78.63477
960.4050, 78.39453
961.5250, 67.13281
962.6440, 39.91602
963.7640, 8.560547
964.8830, 139.0176
966.0020, 86.71289
967.1210, 55.46484
968.2390, 198.1934
969.3580, 201.0117
970.4760, 32.83203
971.5940, 224.3633
972.7120, 29.29883
973.8300, 60.96094
974.9480, 122.6133
976.0650, 91.25391
977.1830, 137.8848
978.3000, 67.50781
979.4170, 139.1211
980.5340, 100.1152
981.6500, 10.32031
982.7670, 87.08203
983.8830, 35.66016
985.0000, 89.96094
986.1160, 9.474609
987.2320, 176.1582
988.3470, 115.6953
989.4630, 135.5469
990.5780, 103.1074
991.6940, 125.6562
992.8090, 60.33203
993.9240, 115.8613
995.0380, 18.38281
996.1530, 23.10547
997.2680, 75.38086
998.3820, 208.8574
999.4960, 158.3262
1000.610, 177.9141
1001.724, 289.3613
1002.837, 184.7988
1003.951, 189.2305
1005.064, 98.86328
1006.177, 81.38867
1007.291, 112.7910
1008.403, 222.1875
1009.516, 209.5781
1010.629, 95.25781
1011.741, 74.21484
1012.853, 10.51953
1013.965, 82.95312
1015.077, 180.5020
1016.189, 180.7754
1017.300, 173.0430
1018.412, 240.7227
1019.523, 342.2637
1020.634, 105.7578
1021.745, 223.9863
1022.856, 325.9922
1023.966, 26.22852
1025.077, 185.4531
1026.187, 183.2754
1027.297, 29.48242
1028.407, 9.677734
1029.517, 0.1386720
1030.627, 24.03125
1031.736, 230.1992
1032.845, 51.35742
1033.955, 9.681641
1035.064, 228.4531
1036.172, 151.5742
1037.281, 78.52930
1038.390, 133.8770
1039.498, 82.55664
1040.606, 164.6777
1041.714, 115.2969
1042.822, 214.2402
1043.930, 216.3555
1045.037, 48.97266
1046.145, 202.8594
1047.252, 189.8418
1048.359, 62.85938
1049.466, 148.8789
1050.573, 55.88867
1051.679, 129.6504
1052.786, 65.64258
1053.892, 253.7168
1054.998, 251.3828
1056.104, 223.4141
1057.210, 132.1133
1058.315, 344.3672
1059.421, 272.3496
1060.526, 332.2852
1061.631, 218.2266
1062.736, 313.1465
1063.841, 92.84570
1064.946, 277.8477
1066.050, 226.9121
1067.154, 173.0312
1068.258, 13.46484
1069.362, 156.0566
1070.466, 158.1875
1071.570, 24.29102
1072.674, 120.8027
1073.777, 176.6250
1074.880, 207.4043
1075.983, 144.3418
1077.086, 239.1387
1078.189, 156.5195
1079.291, 156.9668
1080.394, 148.0234
1081.496, 247.9473
1082.598, 89.74414
1083.700, 1.515625
1084.802, 146.9434
1085.903, 201.2891
1087.005, 39.99609
1088.106, 116.7246
1089.207, 261.3105
1090.308, 158.9199
1091.409, 116.6543
1092.509, 150.4258
1093.610, 155.9668
1094.710, 50.43945
1095.810, 134.7871
1096.910, 143.2441
1098.010, 114.5566
1099.110, 26.52344
1100.209, 102.0664
1101.309, 82.64258
1102.408, 87.28320
1103.507, 273.5312
1104.606, 55.08008
1105.704, 287.2949
1106.803, 286.6309
1107.901, 204.1523
1108.999, 284.5996
1110.097, 241.8145
1111.195, 323.4219
1112.293, 201.8984
1113.391, 162.7773
1114.488, 75.23828
1115.585, 217.6074
1116.682, 173.7695
1117.779, 191.2734
1118.876, 69.95898
1119.973, 451.8398
1121.069, 43.48047
1122.165, 137.7070
1123.261, 187.0254
1124.357, 90.35938
1125.453, 354.5859
1126.549, 330.8984
1127.644, 344.1113
1128.739, 448.5508
1129.835, 252.7402
1130.930, 387.0586
1132.024, 90.38281
1133.119, 172.6973
1134.214, 215.9980
1135.308, 132.7891
1136.402, 71.07422
1137.496, 94.30469
1138.590, 194.4531
1139.684, 270.7031
1140.777, 178.9512
1141.871, 149.4355
1142.964, 79.28320
1144.057, 154.3633
1145.150, 54.39062
1146.243, 53.48633
1147.335, 120.6758
1148.428, 30.04297
1149.520, 16.70312
1150.612, 48.87305
1151.704, 57.03320
1152.796, 94.17383
1153.887, 126.3125
1154.979, 121.6309
1156.070, 176.9121
1157.161, 139.3340
1158.252, 246.4375
1159.343, 312.2031
1160.433, 311.8809
1161.524, 129.4551
1162.614, 220.1719
1163.704, 149.2305
1164.794, 95.04297
1165.884, 172.1719
1166.974, 263.2109
1168.063, 265.2441
1169.153, 59.16016
1170.242, 126.1738
1171.331, 109.0859
1172.420, 48.89844
1173.508, 118.0762
1174.597, 122.0410
1175.685, 146.0000
1176.774, 215.4453
1177.862, 148.6445
1178.950, 273.5762
1180.037, 156.3086
1181.125, 164.2227
1182.212, 156.9121
1183.300, 184.8359
1184.387, 48.60547
1185.474, 106.5098
1186.560, 103.4062
1187.647, 212.2930
1188.733, 32.82617
1189.820, 82.02344
1190.906, 52.14062
1191.992, 116.6562
1193.078, 177.4414
1194.163, 32.78516
1195.249, 94.89062
1196.334, 78.62305
1197.419, 16.34570
1198.504, 3.054688
1199.589, 172.3496
1200.674, 53.03711
1201.758, 24.28711
1202.843, 138.9980
1203.927, 119.6387
1205.011, 113.2676
1206.095, 68.89062
1207.179, 254.5020
1208.262, 57.10547
1209.345, 151.7012
1210.429, 12.29297
1211.512, 52.87305
1212.595, 108.4414
1213.677, 153.9219
1214.760, 126.8730
1215.842, 123.5801
1216.925, 189.9043
1218.007, 96.07422
1219.089, 196.5410
1220.171, 323.0000
1221.252, 71.45117
1222.334, 63.89453
1223.415, 116.3262
1224.496, 227.7500
1225.577, 292.9023
1226.658, 59.31055
1227.738, 82.70898
1228.819, 258.0977
1229.899, 79.11328
1230.979, 190.4395
1232.060, 53.32812
1233.139, 237.9746
1234.219, 123.2852
1235.299, 181.5195
1236.378, 271.8164
1237.457, 118.2383
1238.536, 181.5195
1239.615, 233.7910
1240.694, 124.0566
1241.772, 151.3164
1242.851, 15.56445
1243.929, 23.07227
1245.007, 133.8535
1246.085, 4.927734
1247.163, 85.27539
1248.240, 63.98633
1249.318, 15.08984
1250.395, 50.35938
1251.472, 83.63477
1252.549, 202.4746
1253.626, 231.5938
1254.703, 89.55273
1255.779, 237.8008
1256.855, 53.57031
1257.931, 296.0078
1259.007, 263.9453
1260.083, 380.0078
1261.159, 293.1895
1262.234, 251.1055
1263.310, 197.1445
1264.385, 14.43945
1265.460, 195.4570
1266.535, 318.4961
1267.610, 169.3867
1268.684, 322.3809
1269.758, 242.3008
1270.833, 67.29102
1271.907, 312.2715
1272.981, 149.1191
1274.054, 73.11328
1275.128, 304.1270
1276.201, 340.9883
1277.275, 81.96094
1278.348, 15.70117
1279.421, 205.4668
1280.493, 188.1309
1281.566, 129.8164
1282.638, 142.6504
1283.711, 187.5723
1284.783, 212.5762
1285.855, 204.4844
1286.927, 282.5371
1287.998, 281.1719
1289.070, 432.3203
1290.141, 329.2031
1291.212, 480.0957
1292.283, 530.9668
1293.354, 459.8320
1294.425, 577.5977
1295.495, 446.4531
1296.566, 264.3008
1297.636, 377.4336
1298.706, 159.0254
1299.776, 273.9961
1300.845, 357.9688
1301.915, 300.0469
1302.984, 355.8711
1304.054, 373.6875
1305.123, 307.4980
1306.191, 415.3027
1307.260, 416.0996
1308.329, 320.8887
1309.397, 325.6699
1310.465, 467.4434
1311.534, 447.2090
1312.602, 395.9648
1313.669, 630.4199
1314.737, 697.1094
1315.804, 524.7715
1316.872, 490.4941
1317.939, 578.4297
1319.006, 528.9863
1320.073, 690.6953
1321.139, 823.3848
1322.206, 982.0801
1323.272, 1276.984
1324.338, 1675.566
1325.404, 2496.078
1326.470, 4652.322
1327.536, 9720.438
1328.601, 15712.11
1329.667, 20499.49
1330.732, 24957.89
1331.797, 26437.55
1332.862, 23674.20
1333.926, 18022.83
1334.991, 11591.26
1336.055, 6235.896
1337.120, 3129.273
1338.184, 1928.908
1339.248, 1076.088
1340.311, 786.4355
1341.375, 812.0098
1342.438, 708.6270
1343.502, 487.3086
1344.565, 446.4297
1345.628, 341.0430
1346.691, 374.5410
1347.753, 260.1328
1348.816, 189.8359
1349.878, 329.2188
1350.940, 362.5371
1352.002, 318.0352
1353.064, 117.5254
1354.126, 209.0117
1355.187, 208.2441
1356.248, 387.5703
1357.310, 139.0410
1358.371, 230.3379
1359.431, 196.8008
1360.492, 82.18750
1361.553, 111.6211
1362.613, 63.01172
1363.673, 255.4785
1364.733, 75.90039
1365.793, 153.3164
1366.853, 257.7324
1367.912, 217.6250
1368.972, 232.0352
1370.031, 216.3828
1371.090, 314.4121
1372.149, 126.3770
1373.208, 198.7402
1374.267, 145.0820
1375.325, 33.70117
1376.383, 251.6953
1377.441, 84.89453
1378.499, 72.08203
1379.557, 402.5625
1380.615, 97.91406
1381.672, 261.2617
1382.730, 63.49805
1383.787, 54.79688
1384.844, 17.74609
1385.901, 89.43359
1386.957, 144.9961
1388.014, 45.71875
1389.070, 206.6875
1390.126, 215.9531
1391.182, 39.21289
1392.238, 120.9707
1393.294, 44.22266
1394.349, 283.4746
1395.405, 257.0391
1396.460, 10.71680
1397.515, 198.1562
1398.570, 114.1445
1399.625, 103.3770
1400.679, 150.6133
1401.734, 34.62500
1402.788, 68.93359
1403.842, 198.4121
1404.896, 70.92969
1405.950, 46.33203
1407.003, 147.0859
1408.057, 251.3047
1409.110, 230.5273
1410.163, 212.9062
1411.216, 83.12305
1412.269, 178.3398
1413.322, 68.70117
1414.374, 308.9980
1415.427, 342.2129
1416.479, 281.4316
1417.531, 101.6523
1418.583, 205.8730
1419.634, 199.0957
1420.686, 108.2559
1421.737, 238.4180
1422.788, 298.5801
1423.839, 35.72266
1424.890, 233.8594
1425.941, 79.46680
1426.992, 58.39844
1428.042, 284.7129
1429.092, 306.8359
1430.142, 176.1289
1431.192, 325.2500
1432.242, 208.3730
1433.291, 371.5059
1434.341, 459.3398
1435.390, 549.1367
1436.439, 574.6211
1437.488, 478.5312
1438.537, 502.1074
1439.586, 514.1328
1440.634, 528.8145
1441.682, 553.5312
1442.731, 555.9258
1443.779, 534.3418
1444.826, 449.7871
1445.874, 428.2422
1446.922, 674.7090
1447.969, 391.1758
1449.016, 631.6445
1450.063, 543.1328
1451.110, 547.6172
1452.157, 339.0996
1453.203, 599.5820
1454.250, 615.0684
1455.296, 472.5469
1456.342, 550.0684
1457.388, 547.6270
1458.433, 515.1855
1459.479, 262.7461
1460.524, 600.3086
1461.570, 439.8711
1462.615, 357.4395
1463.660, 639.0078
1464.705, 318.4922
1465.749, 538.8770
1466.794, 539.3281
1467.838, 339.9434
1468.882, 103.5625
1469.926, 515.1914
1470.970, 481.8340
1472.013, 466.1602
1473.057, 221.4668
1474.100, 90.13867
1475.143, 245.6230
1476.186, 180.3398
1477.229, 245.7734
1478.272, 135.8984
1479.314, 192.0176
1480.357, 300.1680
1481.399, 214.6660
1482.441, 265.7695
1483.483, 197.2285
1484.525, 232.2520
1485.566, 132.4863
1486.608, 143.6504
1487.649, 184.0762
1488.690, 174.4746
1489.731, 141.7305
1490.771, 225.8828
1491.812, 208.8438
1492.853, 10.66211
1493.893, 245.0645
1494.933, 120.4707
1495.973, 115.3672
1497.013, 224.9883
1498.052, 120.2148
1499.092, 226.4414
1500.131, 348.6660
1501.170, 31.89648
1502.209, 40.14258
1503.248, 77.40430
1504.287, 212.6816
1505.325, 125.9668
1506.363, 157.2441
1507.402, 214.5117
1508.440, 25.76953
1509.478, 264.0156
1510.515, 290.2480
1511.553, 71.46680
1512.590, 139.6699
1513.627, 72.85352
1514.664, 201.0195
1515.701, 158.1660
1516.738, 170.2969
1517.775, 127.2441
1518.811, 120.3184
1519.847, 36.44531
1520.883, 133.2246
1521.919, 30.44336
1522.955, 173.0957
1523.991, 132.6445
1525.026, 191.2266
1526.061, 123.8262
1527.096, 96.57812
1528.131, 57.33789
1529.166, 26.65430
1530.201, 233.2598
1531.235, 71.03320
1532.270, 251.0781
1533.304, 485.1660
1534.338, 83.12109
1535.372, 250.7969
1536.405, 334.9434
1537.439, 91.56250
1538.472, 109.7617
1539.505, 373.3457
1540.538, 212.9590
1541.571, 287.3242
1542.604, 263.7949
1543.637, 372.6133
1544.669, 365.8516
1545.701, 161.7617
1546.733, 227.1934
1547.765, 412.2246
1548.797, 149.4609
1549.829, 42.03906
1550.860, 321.1484
1551.891, 182.2227
1552.922, 228.6504
1553.953, 107.5938
1554.984, 283.2578
1556.015, 205.2383
1557.045, 219.4766
1558.076, 326.0449
1559.106, 194.4121
1560.136, 116.8984
1561.165, 207.7207
1562.195, 204.2656
1563.225, 13.21289
1564.254, 0.4121090
1565.283, 0.0000000E+00
##END=



