##NAMES=Diamond
##RRUFFID=R050204
##IDEAL CHEMISTRY=C
##LOCALITY=Unknown
##OWNER=RRUFF
##SOURCE=Eric Van Valkenburg
##DESCRIPTION=Single crystal, type IIA
##STATUS=The identification of this mineral has been confirmed by single-crystal X-ray diffraction.
##URL=rruff.info/R050204
##PIN_ID=M01891
##ORIENTATION=Laser parallel to a* (1 0 0). Fiducial mark perpendicular to laser is parallel to b [0 1 0]
170.5590, 0.0000000E+00
171.7860, 63.35889
173.0130, 173.5605
174.2400, 109.7422
175.4670, 3.576172
176.6930, 130.2739
177.9200, 60.04980
179.1460, 108.5767
180.3720, 103.7202
181.5980, 82.37793
182.8230, 78.47119
184.0490, 72.94775
185.2740, 137.7627
186.5000, 137.8667
187.7250, 94.22314
188.9500, 135.7983
190.1740, 94.56885
191.3990, 92.52295
192.6230, 75.64160
193.8480, 51.90479
195.0720, 155.2964
196.2960, 71.86865
197.5200, 79.60400
198.7430, 176.4277
199.9670, 103.3311
201.1900, 141.3042
202.4130, 91.35010
203.6360, 33.45801
204.8590, 159.6230
206.0820, 78.84180
207.3050, 224.1133
208.5270, 185.4316
209.7490, 42.85693
210.9710, 122.3740
212.1930, 134.9341
213.4150, 299.5308
214.6370, 144.1411
215.8580, 173.7676
217.0790, 141.4062
218.3010, 56.05664
219.5210, 173.8384
220.7420, 46.63135
221.9630, 151.7534
223.1830, 134.6089
224.4040, 176.4653
225.6240, 121.3198
226.8440, 115.1719
228.0640, 198.0249
229.2840, 102.8755
230.5030, 207.7300
231.7230, 231.6006
232.9420, 106.6318
234.1610, 177.5820
235.3800, 60.52393
236.5990, 170.4736
237.8170, 86.42773
239.0360, 152.4097
240.2540, 114.4180
241.4720, 69.44873
242.6900, 89.48926
243.9080, 63.57275
245.1250, 149.6338
246.3430, 70.63623
247.5600, 118.6216
248.7770, 153.8218
249.9940, 77.72900
251.2110, 100.6318
252.4280, 171.5317
253.6450, 76.78027
254.8610, 176.6567
256.0770, 143.5566
257.2930, 152.4551
258.5090, 179.3501
259.7250, 189.3369
260.9400, 113.2295
262.1560, 139.0664
263.3710, 100.0093
264.5860, 137.8970
265.8010, 136.7832
267.0160, 180.5303
268.2310, 200.3618
269.4450, 148.4697
270.6600, 125.3926
271.8740, 25.54688
273.0880, 202.9326
274.3020, 52.28955
275.5150, 159.3828
276.7290, 113.2100
277.9420, 77.04248
279.1550, 10.87305
280.3680, 95.70020
281.5810, 163.5269
282.7940, 80.35254
284.0070, 136.3354
285.2190, 115.1533
286.4310, 109.9692
287.6430, 56.78174
288.8550, 159.5933
290.0670, 106.9448
291.2790, 134.1484
292.4900, 90.29834
293.7020, 0.8110350
294.9130, 79.15234
296.1240, 44.05859
297.3350, 72.83447
298.5450, 78.60596
299.7560, 45.37402
300.9660, 111.1836
302.1760, 31.25146
303.3860, 56.99463
304.5960, 93.73193
305.8060, 92.37939
307.0150, 181.2456
308.2250, 94.01611
309.4340, 66.49707
310.6430, 80.15186
311.8520, 159.0176
313.0610, 220.1904
314.2700, 96.28271
315.4780, 95.89893
316.6860, 14.65771
317.8940, 102.3008
319.1020, 114.8198
320.3100, 215.4429
321.5180, 143.5312
322.7250, 47.16406
323.9330, 76.82715
325.1400, 88.83936
326.3470, 40.36475
327.5540, 42.34814
328.7600, 143.0825
329.9670, 66.82520
331.1730, 208.7881
332.3800, 197.5532
333.5860, 175.3276
334.7920, 15.88965
335.9970, 110.0303
337.2030, 97.82227
338.4080, 130.9072
339.6140, 227.3271
340.8190, 78.13379
342.0240, 156.0083
343.2290, 66.82031
344.4330, 166.6348
345.6380, 199.4502
346.8420, 20.26611
348.0460, 202.0840
349.2500, 107.1079
350.4540, 120.9258
351.6580, 211.7441
352.8610, 70.56152
354.0650, 189.4805
355.2680, 67.29590
356.4710, 74.17334
357.6740, 88.98438
358.8760, 159.7930
360.0790, 87.59961
361.2810, 109.5171
362.4840, 51.68164
363.6860, 88.67383
364.8880, 87.62988
366.0900, 201.4082
367.2910, 0.1728520
368.4930, 69.93262
369.6940, 27.68799
370.8950, 4.461426
372.0960, 51.20850
373.2970, 10.93457
374.4980, 5.314453
375.6980, 7.648438
376.8980, 18.74805
378.0990, 2.253418
379.2990, 46.17139
380.4980, 100.9043
381.6980, 102.7686
382.8980, 148.8965
384.0970, 162.9146
385.2960, 105.5967
386.4950, 115.2729
387.6940, 72.94385
388.8930, 62.60938
390.0920, 204.5107
391.2900, 168.3389
392.4880, 146.9893
393.6860, 115.8516
394.8840, 28.47266
396.0820, 58.89551
397.2800, 141.8862
398.4770, 84.48975
399.6750, 144.3252
400.8720, 155.9165
402.0690, 95.50293
403.2660, 79.43408
404.4620, 63.12891
405.6590, 147.7012
406.8550, 0.5893550
408.0510, 107.6904
409.2480, 18.76367
410.4430, 43.34619
411.6390, 8.724609
412.8350, 166.6514
414.0300, 27.54102
415.2250, 176.0273
416.4200, 67.96631
417.6150, 12.52002
418.8100, 147.9697
420.0050, 44.45605
421.1990, 75.23535
422.3940, 126.7080
423.5880, 121.1748
424.7820, 73.72168
425.9750, 131.4697
427.1690, 85.92090
428.3630, 63.37207
429.5560, 114.8164
430.7490, 9.392578
431.9420, 176.2441
433.1350, 117.6709
434.3280, 274.0879
435.5200, 105.4961
436.7130, 99.97559
437.9050, 186.3203
439.0970, 18.31055
440.2890, 167.0664
441.4810, 42.43555
442.6720, 62.79883
443.8640, 168.1553
445.0550, 48.50391
446.2460, 45.02051
447.4370, 147.2930
448.6280, 108.6201
449.8180, 43.91211
451.0090, 68.46777
452.1990, 12.04297
453.3890, 32.41992
454.5790, 8.335938
455.7690, 31.89746
456.9590, 147.1230
458.1480, 143.3369
459.3380, 176.5439
460.5270, 103.7031
461.7160, 127.8975
462.9050, 71.08691
464.0940, 160.2695
465.2820, 155.4492
466.4700, 85.62207
467.6590, 13.25000
468.8470, 65.40723
470.0350, 103.2793
471.2220, 84.47168
472.4100, 141.2129
473.5970, 36.73047
474.7850, 166.8467
475.9720, 196.9570
477.1590, 123.0723
478.3460, 55.40332
479.5320, 104.5010
480.7190, 19.59082
481.9050, 14.33105
483.0910, 159.7344
484.2770, 73.79297
485.4630, 136.8438
486.6490, 264.8867
487.8340, 167.9219
489.0200, 247.9482
490.2050, 145.0332
491.3900, 42.04297
492.5750, 121.0439
493.7600, 123.0352
494.9440, 124.0195
496.1290, 67.99414
497.3130, 127.9600
498.4970, 77.91699
499.6810, 168.8643
500.8650, 146.8154
502.0480, 236.7578
503.2320, 67.69043
504.4150, 132.6152
505.5980, 2.295898
506.7810, 51.20703
507.9640, 133.0957
509.1460, 106.9756
510.3290, 162.6582
511.5110, 125.5195
512.6930, 89.30469
513.8750, 95.98438
515.0570, 67.81934
516.2390, 160.8906
517.4210, 101.2861
518.6020, 245.5293
519.7830, 25.27246
520.9640, 72.12988
522.1450, 87.57617
523.3260, 55.41602
524.5060, 6.125977
525.6870, 16.82422
526.8670, 209.5088
528.0470, 146.1836
529.2270, 259.9639
530.4070, 193.7314
531.5870, 39.52734
532.7660, 56.39648
533.9450, 103.0195
535.1240, 41.63086
536.3030, 125.2314
537.4820, 53.76758
538.6610, 140.5303
539.8390, 98.09863
541.0180, 42.00293
542.1960, 115.8623
543.3740, 195.7656
544.5520, 17.29199
545.7290, 71.80371
546.9070, 110.9609
548.0840, 25.32227
549.2620, 5.781250
550.4390, 11.22266
551.6160, 98.75391
552.7920, 0.6367190
553.9690, 14.92676
555.1450, 45.04004
556.3220, 99.75000
557.4980, 53.12012
558.6740, 108.5859
559.8490, 130.8223
561.0250, 111.5908
562.2000, 35.79297
563.3760, 169.0889
564.5510, 196.5830
565.7260, 87.85742
566.9010, 38.61035
568.0750, 170.2510
569.2500, 155.0605
570.4240, 127.3916
571.5980, 27.45410
572.7720, 60.86035
573.9460, 121.3652
575.1200, 153.5713
576.2930, 141.9424
577.4670, 92.09668
578.6400, 114.6729
579.8130, 139.8037
580.9860, 162.1768
582.1590, 143.5654
583.3310, 163.5107
584.5040, 118.5283
585.6760, 202.8359
586.8480, 81.76660
588.0200, 139.3145
589.1920, 107.3506
590.3630, 229.3740
591.5350, 47.23145
592.7060, 41.17480
593.8770, 83.18945
595.0480, 126.0059
596.2190, 148.1279
597.3900, 146.5791
598.5600, 197.8809
599.7310, 255.9697
600.9010, 230.9561
602.0710, 250.5859
603.2410, 239.5645
604.4100, 203.5430
605.5800, 172.6426
606.7490, 172.1611
607.9190, 12.70215
609.0880, 151.5752
610.2570, 146.4287
611.4250, 102.2451
612.5940, 210.0430
613.7620, 205.8457
614.9310, 232.6621
616.0990, 125.6602
617.2670, 250.8232
618.4340, 195.5674
619.6020, 261.1699
620.7690, 199.0518
621.9370, 301.4766
623.1040, 368.9551
624.2710, 407.0020
625.4380, 379.9209
626.6040, 331.8945
627.7710, 245.9619
628.9370, 178.6094
630.1030, 89.38867
631.2690, 167.3467
632.4350, 227.1631
633.6010, 270.9648
634.7660, 163.8789
635.9320, 179.4951
637.0970, 208.4229
638.2620, 172.9844
639.4270, 220.4688
640.5920, 230.3359
641.7560, 256.8584
642.9210, 142.4697
644.0850, 138.2891
645.2490, 384.9424
646.4130, 120.8564
647.5770, 279.2627
648.7400, 415.8447
649.9040, 158.4307
651.0670, 317.9619
652.2300, 164.4062
653.3930, 307.5635
654.5560, 159.9746
655.7190, 273.2607
656.8810, 258.6895
658.0440, 189.4258
659.2060, 73.79785
660.3680, 254.8711
661.5300, 226.0127
662.6910, 92.56445
663.8530, 183.0947
665.0140, 183.1387
666.1750, 168.1084
667.3360, 156.3984
668.4970, 93.67969
669.6580, 94.91211
670.8190, 85.59863
671.9790, 65.68555
673.1390, 142.7422
674.2990, 139.9580
675.4590, 140.9258
676.6190, 105.1221
677.7790, 78.11816
678.9380, 172.2871
680.0970, 39.74609
681.2570, 47.64746
682.4160, 34.77344
683.5740, 133.8818
684.7330, 158.6289
685.8920, 4.597656
687.0500, 68.67969
688.2080, 35.57422
689.3660, 102.9277
690.5240, 64.43750
691.6820, 48.46680
692.8390, 17.62109
693.9960, 62.70605
695.1540, 13.04785
696.3110, 115.8252
697.4680, 89.52148
698.6240, 67.41309
699.7810, 15.29980
700.9370, 121.1680
702.0940, 126.7236
703.2500, 70.57031
704.4060, 179.4014
705.5610, 10.13477
706.7170, 26.64453
707.8720, 12.56836
709.0280, 85.19141
710.1830, 1.059570
711.3380, 26.33496
712.4920, 44.86230
713.6470, 113.5801
714.8020, 71.28516
715.9560, 152.9766
717.1100, 16.57910
718.2640, 128.2422
719.4180, 68.10449
720.5720, 53.50098
721.7250, 193.0938
722.8780, 120.6729
724.0320, 64.24023
725.1850, 170.7930
726.3380, 160.1973
727.4900, 147.7441
728.6430, 169.3066
729.7950, 140.7793
730.9470, 176.0137
732.1000, 39.21191
733.2510, 107.5713
734.4030, 1.041992
735.5550, 16.59180
736.7060, 33.03613
737.8570, 81.46582
739.0090, 102.8818
740.1600, 33.28516
741.3100, 61.67383
742.4610, 33.04980
743.6110, 64.42871
744.7620, 78.77637
745.9120, 74.72070
747.0620, 30.96973
748.2120, 89.27637
749.3610, 163.4111
750.5110, 186.6436
751.6600, 118.2295
752.8090, 62.51855
753.9580, 65.76367
755.1070, 42.89160
756.2560, 319.2979
757.4050, 195.4746
758.5530, 82.64160
759.7010, 126.8232
760.8490, 27.03418
761.9970, 34.08203
763.1450, 5.586914
764.2920, 93.67090
765.4400, 20.75000
766.5870, 117.9482
767.7340, 83.00000
768.8810, 46.74707
770.0280, 28.14941
771.1740, 78.51855
772.3210, 48.51367
773.4670, 116.4951
774.6130, 14.46387
775.7590, 168.4170
776.9050, 135.3574
778.0510, 40.61914
779.1960, 181.2695
780.3420, 99.14355
781.4870, 19.00586
782.6320, 82.85156
783.7770, 133.7559
784.9210, 96.70605
786.0660, 99.61230
787.2100, 95.40723
788.3540, 105.3516
789.4980, 123.1201
790.6420, 1.087891
791.7860, 180.8252
792.9300, 180.9814
794.0730, 115.9023
795.2160, 40.07227
796.3590, 183.7568
797.5020, 175.3516
798.6450, 148.1973
799.7880, 65.86719
800.9300, 35.57129
802.0720, 84.44238
803.2150, 132.3340
804.3560, 140.0117
805.4980, 137.8643
806.6400, 30.51270
807.7810, 200.2705
808.9230, 103.9746
810.0640, 146.3076
811.2050, 249.1445
812.3460, 129.8604
813.4860, 306.2529
814.6270, 237.8721
815.7670, 284.3721
816.9070, 51.01074
818.0470, 134.1475
819.1870, 272.3066
820.3270, 232.3984
821.4670, 353.8633
822.6060, 242.3213
823.7450, 292.8438
824.8840, 269.0312
826.0230, 244.3740
827.1620, 143.7783
828.3010, 111.9570
829.4390, 121.3564
830.5770, 100.5215
831.7150, 178.4111
832.8530, 162.1641
833.9910, 115.4375
835.1290, 207.6572
836.2660, 224.2354
837.4030, 212.1143
838.5410, 242.3164
839.6780, 229.2812
840.8140, 243.1875
841.9510, 208.4902
843.0870, 223.2881
844.2240, 202.3271
845.3600, 198.3027
846.4960, 207.3232
847.6320, 209.1582
848.7680, 199.1523
849.9030, 225.0420
851.0380, 219.2998
852.1740, 273.2754
853.3090, 285.6602
854.4440, 458.5879
855.5780, 383.8633
856.7130, 241.2617
857.8470, 419.3066
858.9820, 227.4160
860.1160, 381.5156
861.2500, 464.3662
862.3830, 294.8633
863.5170, 333.2227
864.6500, 204.2754
865.7840, 259.3164
866.9170, 271.3457
868.0500, 231.3643
869.1830, 350.0332
870.3150, 297.2578
871.4480, 93.54590
872.5800, 256.2598
873.7120, 177.9336
874.8440, 120.8115
875.9760, 331.9941
877.1080, 123.8760
878.2390, 260.7500
879.3710, 110.4150
880.5020, 135.0850
881.6330, 198.0273
882.7640, 136.0742
883.8940, 229.5771
885.0250, 5.657227
886.1550, 177.5664
887.2850, 39.70508
888.4160, 107.5322
889.5450, 159.1152
890.6750, 87.70020
891.8050, 198.0957
892.9340, 285.8877
894.0630, 174.9541
895.1930, 104.5645
896.3220, 177.4473
897.4500, 263.7969
898.5790, 13.34863
899.7070, 190.5908
900.8360, 237.5869
901.9640, 78.16992
903.0920, 136.8789
904.2200, 71.56934
905.3470, 19.76172
906.4750, 24.09863
907.6020, 137.9365
908.7290, 144.1748
909.8560, 139.3232
910.9830, 165.4570
912.1100, 113.0381
913.2360, 87.60938
914.3630, 147.8721
915.4890, 108.3027
916.6150, 113.8623
917.7410, 116.9551
918.8670, 90.30566
919.9920, 109.8115
921.1180, 47.80078
922.2430, 115.5498
923.3680, 68.87305
924.4930, 185.2363
925.6180, 56.66406
926.7420, 167.4062
927.8670, 3.821289
928.9910, 57.23438
930.1150, 0.2734380
931.2390, 146.7598
932.3630, 74.13574
933.4860, 62.56836
934.6100, 159.9199
935.7330, 67.01758
936.8560, 52.44824
937.9790, 44.70508
939.1020, 93.01074
940.2250, 16.68359
941.3470, 67.36719
942.4700, 42.33008
943.5920, 42.64941
944.7140, 108.8271
945.8360, 41.07910
946.9570, 67.31836
948.0790, 9.455078
949.2000, 67.88672
950.3220, 66.21289
951.4430, 74.71484
952.5640, 149.6816
953.6840, 165.1074
954.8050, 111.3105
955.9250, 104.4570
957.0460, 12.40625
958.1660, 40.18457
959.2860, 183.2783
960.4050, 150.8076
961.5250, 90.12500
962.6440, 136.3096
963.7640, 39.45312
964.8830, 50.78613
966.0020, 64.73730
967.1210, 176.7920
968.2390, 41.97266
969.3580, 133.0205
970.4760, 1.394531
971.5940, 155.5654
972.7120, 157.5908
973.8300, 22.95898
974.9480, 156.3955
976.0650, 106.7764
977.1830, 107.7275
978.3000, 232.6689
979.4170, 102.5996
980.5340, 25.52734
981.6500, 50.39258
982.7670, 70.48438
983.8830, 121.5205
985.0000, 89.37500
986.1160, 155.2197
987.2320, 60.11816
988.3470, 62.93750
989.4630, 80.74512
990.5780, 38.54102
991.6940, 63.34277
992.8090, 216.1787
993.9240, 128.9580
995.0380, 126.7266
996.1530, 11.51270
997.2680, 41.68359
998.3820, 128.0381
999.4960, 138.7822
1000.610, 233.5156
1001.724, 407.2363
1002.837, 258.9463
1003.951, 390.0068
1005.064, 51.69336
1006.177, 71.28613
1007.291, 94.95703
1008.403, 92.11523
1009.516, 39.83398
1010.629, 39.86816
1011.741, 67.49023
1012.853, 86.10156
1013.965, 210.0312
1015.077, 60.61816
1016.189, 30.13086
1017.300, 175.9990
1018.412, 107.5498
1019.523, 30.72559
1020.634, 48.40137
1021.745, 297.7666
1022.856, 147.4473
1023.966, 132.0078
1025.077, 256.3867
1026.187, 170.0918
1027.297, 49.55469
1028.407, 217.0029
1029.517, 88.41016
1030.627, 188.0020
1031.736, 76.42285
1032.845, 140.4590
1033.955, 12.14355
1035.064, 60.25977
1036.172, 125.8779
1037.281, 218.2236
1038.390, 144.7217
1039.498, 97.67871
1040.606, 25.97559
1041.714, 57.26953
1042.822, 63.55273
1043.930, 135.8193
1045.037, 221.2354
1046.145, 125.4961
1047.252, 114.1172
1048.359, 157.6348
1049.466, 201.0557
1050.573, 197.2627
1051.679, 213.5225
1052.786, 135.6348
1053.892, 209.2373
1054.998, 179.2236
1056.104, 142.5029
1057.210, 214.8369
1058.315, 308.1094
1059.421, 105.4893
1060.526, 413.1348
1061.631, 467.3828
1062.736, 94.55566
1063.841, 432.4863
1064.946, 167.5361
1066.050, 109.4414
1067.154, 153.2773
1068.258, 204.2871
1069.362, 13.11719
1070.466, 101.0576
1071.570, 213.0176
1072.674, 170.9131
1073.777, 2.292969
1074.880, 21.63867
1075.983, 120.9766
1077.086, 217.5781
1078.189, 220.4434
1079.291, 266.0127
1080.394, 158.8105
1081.496, 99.77344
1082.598, 100.4141
1083.700, 55.84766
1084.802, 108.3770
1085.903, 70.83691
1087.005, 121.5078
1088.106, 182.3252
1089.207, 155.2686
1090.308, 106.9590
1091.409, 40.09180
1092.509, 23.13867
1093.610, 74.43262
1094.710, 37.99805
1095.810, 104.6094
1096.910, 65.90332
1098.010, 140.6641
1099.110, 231.1670
1100.209, 89.72070
1101.309, 205.7285
1102.408, 43.25781
1103.507, 88.30566
1104.606, 120.8008
1105.704, 36.28027
1106.803, 16.37500
1107.901, 37.06445
1108.999, 308.6953
1110.097, 230.1543
1111.195, 237.5566
1112.293, 221.2158
1113.391, 97.56445
1114.488, 144.4688
1115.585, 93.64258
1116.682, 206.1748
1117.779, 194.7344
1118.876, 119.2314
1119.973, 253.3350
1121.069, 312.6846
1122.165, 386.8320
1123.261, 190.9424
1124.357, 124.9912
1125.453, 330.2285
1126.549, 206.0283
1127.644, 400.7061
1128.739, 346.4814
1129.835, 441.3691
1130.930, 271.8740
1132.024, 205.0283
1133.119, 292.1807
1134.214, 150.3086
1135.308, 55.42188
1136.402, 145.5195
1137.496, 196.2461
1138.590, 228.1426
1139.684, 25.33691
1140.777, 1.701172
1141.871, 49.28516
1142.964, 164.9863
1144.057, 166.7910
1145.150, 60.66797
1146.243, 187.7910
1147.335, 0.5410160
1148.428, 71.14062
1149.520, 227.2695
1150.612, 39.83984
1151.704, 108.6816
1152.796, 104.2598
1153.887, 94.11328
1154.979, 127.0234
1156.070, 140.9883
1157.161, 90.80273
1158.252, 275.6328
1159.343, 215.1309
1160.433, 146.9004
1161.524, 105.5312
1162.614, 302.2734
1163.704, 96.17383
1164.794, 165.4844
1165.884, 137.7637
1166.974, 51.12305
1168.063, 183.7461
1169.153, 174.3555
1170.242, 141.9707
1171.331, 62.47461
1172.420, 280.6641
1173.508, 286.9727
1174.597, 329.2910
1175.685, 107.8418
1176.774, 141.3789
1177.862, 29.90039
1178.950, 77.37109
1180.037, 97.86328
1181.125, 188.3379
1182.212, 130.7988
1183.300, 156.2461
1184.387, 42.67969
1185.474, 131.0996
1186.560, 114.5156
1187.647, 22.08203
1188.733, 110.2910
1189.820, 30.64453
1190.906, 19.91016
1191.992, 25.76953
1193.078, 72.51953
1194.163, 64.66211
1195.249, 182.9199
1196.334, 144.1660
1197.419, 185.3301
1198.504, 181.9102
1199.589, 186.7578
1200.674, 101.4805
1201.758, 85.55469
1202.843, 32.27734
1203.927, 122.8516
1205.011, 46.79492
1206.095, 206.2109
1207.179, 157.2305
1208.262, 198.2812
1209.345, 279.3223
1210.429, 112.3496
1211.512, 204.3672
1212.595, 303.2383
1213.677, 121.1016
1214.760, 10.76562
1215.842, 3.630859
1216.925, 176.3203
1218.007, 193.2070
1219.089, 87.13281
1220.171, 230.0410
1221.252, 97.83594
1222.334, 1.642578
1223.415, 224.8008
1224.496, 33.57031
1225.577, 180.1543
1226.658, 257.8496
1227.738, 36.37109
1228.819, 109.1621
1229.899, 179.8438
1230.979, 45.42969
1232.060, 140.1953
1233.139, 285.5938
1234.219, 220.1582
1235.299, 279.8438
1236.378, 185.1641
1237.457, 70.60547
1238.536, 87.63672
1239.615, 126.2891
1240.694, 318.9238
1241.772, 66.55078
1242.851, 60.16602
1243.929, 176.5996
1245.007, 173.2129
1246.085, 91.64453
1247.163, 19.23633
1248.240, 160.1426
1249.318, 138.6426
1250.395, 79.29297
1251.472, 159.8066
1252.549, 105.5840
1253.626, 150.1523
1254.703, 153.6289
1255.779, 14.16406
1256.855, 89.33789
1257.931, 159.0938
1259.007, 235.5332
1260.083, 60.98242
1261.159, 182.4004
1262.234, 138.8105
1263.310, 167.2070
1264.385, 213.5938
1265.460, 157.6055
1266.535, 16.91797
1267.610, 209.7617
1268.684, 92.75195
1269.758, 296.7070
1270.833, 76.02148
1271.907, 195.8398
1272.981, 325.1445
1274.054, 138.6836
1275.128, 103.8594
1276.201, 224.9609
1277.275, 221.7227
1278.348, 96.66992
1279.421, 284.0352
1280.493, 229.7891
1281.566, 210.8633
1282.638, 270.9121
1283.711, 123.0801
1284.783, 106.2012
1285.855, 211.5508
1286.927, 131.5000
1287.998, 244.6660
1289.070, 410.8242
1290.141, 450.9727
1291.212, 420.9414
1292.283, 436.3457
1293.354, 452.6523
1294.425, 504.9668
1295.495, 502.0410
1296.566, 430.2324
1297.636, 451.3184
1298.706, 507.3926
1299.776, 383.5020
1300.845, 361.2109
1301.915, 267.2578
1302.984, 176.5059
1304.054, 198.5332
1305.123, 349.3906
1306.191, 471.3828
1307.260, 455.8984
1308.329, 517.2031
1309.397, 424.3828
1310.465, 549.3516
1311.534, 448.2461
1312.602, 553.1914
1313.669, 582.4727
1314.737, 581.5527
1315.804, 653.3301
1316.872, 652.8691
1317.939, 634.6152
1319.006, 634.0195
1320.073, 863.3555
1321.139, 965.6387
1322.206, 1153.197
1323.272, 1412.717
1324.338, 2210.570
1325.404, 3460.408
1326.470, 6525.250
1327.536, 13117.09
1328.601, 20754.91
1329.667, 26571.55
1330.732, 31705.12
1331.797, 32894.94
1332.862, 29279.65
1333.926, 22503.55
1334.991, 14386.36
1336.055, 7654.168
1337.120, 3769.959
1338.184, 2305.750
1339.248, 1407.398
1340.311, 1112.178
1341.375, 779.9512
1342.438, 656.6250
1343.502, 630.7812
1344.565, 744.8477
1345.628, 427.6055
1346.691, 480.6172
1347.753, 328.1074
1348.816, 246.8281
1349.878, 180.3574
1350.940, 116.0723
1352.002, 266.7852
1353.064, 254.4922
1354.126, 126.2070
1355.187, 456.9199
1356.248, 414.1797
1357.310, 9.261719
1358.371, 384.4160
1359.431, 146.8867
1360.492, 113.6348
1361.553, 141.2656
1362.613, 280.8945
1363.673, 326.5156
1364.733, 269.6367
1365.793, 348.0605
1366.853, 110.4512
1367.912, 332.9980
1368.972, 136.7031
1370.031, 298.9785
1371.090, 346.2227
1372.149, 124.5625
1373.208, 167.2227
1374.267, 199.9531
1375.325, 49.00195
1376.383, 139.1992
1377.441, 94.33398
1378.499, 68.60547
1379.557, 241.7207
1380.615, 106.0918
1381.672, 160.6152
1382.730, 109.1328
1383.787, 200.4434
1384.844, 251.4883
1385.901, 161.6445
1386.957, 109.1504
1388.014, 125.4785
1389.070, 124.9785
1390.126, 121.4355
1391.182, 119.8574
1392.238, 119.4453
1393.294, 86.93359
1394.349, 30.51758
1395.405, 21.63867
1396.460, 85.74609
1397.515, 100.4316
1398.570, 9.369141
1399.625, 122.0918
1400.679, 55.55078
1401.734, 56.99609
1402.788, 55.70508
1403.842, 14.60352
1404.896, 157.1523
1405.950, 85.37109
1407.003, 249.8496
1408.057, 191.6719
1409.110, 244.0605
1410.163, 73.40625
1411.216, 134.6719
1412.269, 71.86328
1413.322, 214.1836
1414.374, 213.3789
1415.427, 194.5957
1416.479, 200.8047
1417.531, 281.0078
1418.583, 48.19922
1419.634, 156.2949
1420.686, 17.41016
1421.737, 198.8340
1422.788, 17.07227
1423.839, 378.9707
1424.890, 232.9902
1425.941, 99.97656
1426.992, 190.9551
1428.042, 189.8945
1429.092, 62.86328
1430.142, 263.7578
1431.192, 325.6309
1432.242, 171.6172
1433.291, 378.5332
1434.341, 266.4434
1435.390, 220.2148
1436.439, 548.9941
1437.488, 574.5957
1438.537, 522.2500
1439.586, 593.6719
1440.634, 643.1699
1441.682, 506.1406
1442.731, 379.6875
1443.779, 315.2461
1444.826, 475.8164
1445.874, 511.3945
1446.922, 433.9707
1447.969, 339.5391
1449.016, 536.1035
1450.063, 329.6816
1451.110, 510.2871
1452.157, 573.9082
1453.203, 595.5234
1454.250, 427.1348
1455.296, 475.7441
1456.342, 230.3594
1457.388, 635.9727
1458.433, 362.5859
1459.479, 452.1836
1460.524, 460.8203
1461.570, 441.4688
1462.615, 455.0352
1463.660, 428.1328
1464.705, 392.1504
1465.749, 358.9297
1466.794, 299.5879
1467.838, 219.2676
1468.882, 170.6738
1469.926, 193.6172
1470.970, 185.2812
1472.013, 48.54688
1473.057, 165.7695
1474.100, 361.3047
1475.143, 421.8594
1476.186, 190.4883
1477.229, 288.0781
1478.272, 239.6914
1479.314, 281.3066
1480.357, 265.7637
1481.399, 216.4707
1482.441, 288.7676
1483.483, 116.9746
1484.525, 67.78125
1485.566, 84.74219
1486.608, 272.0059
1487.649, 234.4531
1488.690, 139.6211
1489.731, 15.77148
1490.771, 101.2148
1491.812, 185.6602
1492.853, 126.6387
1493.893, 4.648438
1494.933, 215.1934
1495.973, 245.6035
1497.013, 15.08203
1498.052, 91.96094
1499.092, 34.39453
1500.131, 170.8281
1501.170, 8.275391
1502.209, 11.25977
1503.248, 241.2285
1504.287, 14.75391
1505.325, 173.2871
1506.363, 183.8145
1507.402, 176.3398
1508.440, 38.85742
1509.478, 227.3711
1510.515, 57.12695
1511.553, 204.3691
1512.590, 81.85156
1513.627, 127.3281
1514.664, 228.8047
1515.701, 158.2793
1516.738, 219.7480
1517.775, 291.1992
1518.811, 250.6348
1519.847, 17.58203
1520.883, 2.923828
1521.919, 72.41992
1522.955, 360.9004
1523.991, 200.4121
1525.026, 288.9785
1526.061, 204.6758
1527.096, 333.4375
1528.131, 245.5703
1529.166, 427.1445
1530.201, 273.0840
1531.235, 113.8516
1532.270, 43.80859
1533.304, 201.0059
1534.338, 168.6484
1535.372, 230.5078
1536.405, 369.6250
1537.439, 200.0918
1538.472, 253.0996
1539.505, 445.4375
1540.538, 268.3691
1541.571, 188.1582
1542.604, 270.7793
1543.637, 270.8613
1544.669, 90.87500
1545.701, 26.75781
1546.733, 85.26172
1547.765, 172.3516
1548.797, 362.6055
1549.829, 387.8477
1550.860, 78.21875
1551.891, 411.9961
1552.922, 65.72656
1553.953, 112.8906
1554.984, 211.2988
1556.015, 6.935547
1557.045, 47.20898
1558.076, 43.49414
1559.106, 96.24219
1560.136, 63.89062
1561.165, 52.26367
1562.195, 15.63086
1563.225, 241.7969
1564.254, 0.1933590
1565.283, 0.0000000E+00
##END=



