##NAMES=Diamond
##RRUFFID=R050205
##IDEAL CHEMISTRY=C
##LOCALITY=Unknown
##OWNER=RRUFF
##SOURCE=Eric Van Valkenburg
##DESCRIPTION=Single crystal, type IIA
##STATUS=The identification of this mineral has been confirmed by single-crystal X-ray diffraction.
##URL=rruff.info/R050205
##PIN_ID=L00376
##ORIENTATION=Laser parallel to a* (1 0 0). Fiducial mark perpendicular to laser is parallel to c [0 0 1]
114.4400, 0.0000000E+00
115.6710, 17.12488
116.9030, 35.00134
118.1340, 29.08972
119.3650, 23.31824
120.5960, 63.30188
121.8270, 1.294434
123.0580, 32.46411
124.2880, 34.52930
125.5190, 4.138428
126.7490, 76.42810
127.9790, 42.20117
129.2090, 70.15845
130.4390, 26.28076
131.6680, 21.55249
132.8980, 7.960327
134.1270, 59.49268
135.3560, 45.42529
136.5850, 67.88757
137.8140, 63.73206
139.0430, 54.66455
140.2710, 71.67920
141.5000, 51.76978
142.7280, 96.93188
143.9560, 68.16138
145.1840, 62.45410
146.4120, 75.80762
147.6390, 119.2188
148.8670, 88.68408
150.0940, 94.20178
151.3210, 51.76917
152.5490, 70.38232
153.7750, 68.03735
155.0020, 103.7307
156.2290, 91.45972
157.4550, 88.22339
158.6810, 100.0203
159.9080, 79.84949
161.1340, 108.7100
162.3590, 45.59998
163.5850, 70.51929
164.8110, 47.46753
166.0360, 81.44373
167.2610, 93.44666
168.4860, 96.47534
169.7110, 49.52881
170.9360, 139.6064
172.1610, 101.7075
173.3850, 70.83130
174.6100, 134.9771
175.8340, 76.16357
177.0580, 89.36975
178.2820, 47.59546
179.5050, 102.8401
180.7290, 90.10339
181.9520, 98.38489
183.1760, 128.6898
184.3990, 90.01550
185.6220, 116.3604
186.8450, 118.7220
188.0670, 65.09705
189.2900, 135.4750
190.5120, 89.85413
191.7340, 87.23230
192.9560, 54.61084
194.1780, 60.06396
195.4000, 59.37744
196.6220, 77.77002
197.8430, 102.1774
199.0640, 108.6002
200.2860, 105.0319
201.5070, 90.47595
202.7270, 75.94849
203.9480, 154.4290
205.1690, 150.9175
206.3890, 125.4142
207.6090, 139.9255
208.8290, 115.4451
210.0490, 123.9788
211.2690, 90.52661
212.4890, 102.0959
213.7080, 61.68188
214.9280, 113.2759
216.1470, 141.8779
217.3660, 100.4883
218.5850, 68.10718
219.8030, 99.73389
221.0220, 136.3694
222.2400, 131.0129
223.4590, 118.6650
224.6770, 140.0554
225.8950, 130.9941
227.1120, 137.6714
228.3300, 99.35693
229.5480, 54.05078
230.7650, 71.75293
231.9820, 128.4634
233.1990, 63.18237
234.4160, 162.9097
235.6330, 91.56299
236.8490, 72.29761
238.0660, 95.04053
239.2820, 100.7917
240.4980, 116.5513
241.7140, 113.3191
242.9300, 114.0950
244.1460, 71.87915
245.3610, 136.6714
246.5770, 63.47192
247.7920, 134.2805
249.0070, 121.0969
250.2220, 140.0232
251.4370, 93.19263
252.6510, 101.0286
253.8660, 104.8772
255.0800, 106.8416
256.2940, 156.7109
257.5080, 107.5879
258.7220, 127.4722
259.9360, 153.3640
261.1490, 86.92896
262.3630, 105.4812
263.5760, 182.0120
264.7890, 80.49365
266.0020, 87.99536
267.2150, 70.49512
268.4270, 138.7048
269.6400, 98.25024
270.8520, 136.8162
272.0640, 178.1753
273.2760, 112.8813
274.4880, 117.5012
275.7000, 123.1382
276.9120, 88.79077
278.1230, 76.45776
279.3340, 93.13916
280.5450, 53.88037
281.7560, 98.59399
282.9670, 66.31421
284.1780, 148.1328
285.3880, 66.87695
286.5980, 89.63257
287.8090, 88.00391
289.0190, 126.9019
290.2290, 95.68896
291.4380, 103.4897
292.6480, 85.30005
293.8570, 62.11987
295.0670, 93.94897
296.2760, 47.78735
297.4850, 9.634033
298.6930, 65.90967
299.9020, 96.77368
301.1110, 102.6460
302.3190, 62.52612
303.5270, 77.80396
304.7350, 67.70605
305.9430, 54.60376
307.1510, 69.31128
308.3580, 60.23022
309.5660, 68.41016
310.7730, 92.34351
311.9800, 82.28369
313.1870, 116.2307
314.3940, 27.18481
315.6010, 107.1455
316.8070, 68.11255
318.0130, 22.08643
319.2200, 98.06641
320.4260, 97.05298
321.6310, 85.04565
322.8370, 130.0444
324.0430, 113.0491
325.2480, 60.06006
326.4540, 69.07642
327.6590, 77.09912
328.8640, 70.12720
330.0680, 66.16089
331.2730, 71.20044
332.4780, 62.24780
333.6820, 57.55688
334.8860, 46.85620
336.0900, 41.42334
337.2940, 21.49341
338.4980, 12.56860
339.7010, 6.002441
340.9050, 23.73584
342.1080, 44.82788
343.3110, 100.9253
344.5140, 168.0283
345.7170, 44.13647
346.9200, 17.24976
348.1220, 68.36865
349.3240, 32.49292
350.5270, 118.6240
351.7290, 9.760498
352.9310, 77.90186
354.1320, 61.04858
355.3340, 23.79956
356.5350, 30.35376
357.7370, 34.51221
358.9380, 54.67554
360.1390, 35.84326
361.3400, 46.01611
362.5400, 66.19360
363.7410, 10.37598
364.9410, 16.56299
366.1410, 81.75708
367.3410, 22.95605
368.5410, 36.15918
369.7410, 90.36719
370.9400, 92.58008
372.1400, 65.79736
373.3390, 61.01904
374.5380, 48.09839
375.7370, 18.47607
376.9360, 40.71167
378.1350, 32.95117
379.3330, 68.19556
380.5310, 34.44019
381.7300, 53.68921
382.9280, 47.94287
384.1260, 4.799561
385.3230, 11.53564
386.5210, 4.730713
387.7180, 52.00171
388.9160, 33.27686
390.1130, 19.55615
391.3100, 8.886963
392.5060, 38.17749
393.7030, 4.384277
394.9000, 44.91333
396.0960, 38.21313
397.2920, 46.51733
398.4880, 58.82568
399.6840, 34.13721
400.8800, 70.45483
402.0750, 52.78369
403.2710, 15.11646
404.4660, 49.45288
405.6610, 55.79492
406.8560, 47.14258
408.0510, 32.49585
409.2450, 54.85498
410.4400, 20.21997
411.6340, 35.64429
412.8280, 66.02197
414.0220, 58.40552
415.2160, 19.79468
416.4100, 3.809570
417.6030, 23.59399
418.7970, 54.13013
419.9900, 64.54395
421.1830, 89.96313
422.3760, 27.38721
423.5690, 25.18359
424.7610, 0.2416990
425.9540, 19.67114
427.1460, 2.894043
428.3380, 39.54468
429.5300, 49.98779
430.7220, 15.56421
431.9140, 26.11670
433.1050, 16.32544
434.2970, 6.541260
435.4880, 16.20972
436.6790, 27.76758
437.8700, 21.90918
439.0610, 22.37427
440.2510, 21.84351
441.4420, 10.68262
442.6320, 33.79175
443.8220, 18.27026
445.0120, 39.75317
446.2020, 9.759521
447.3910, 74.72827
448.5810, 100.2200
449.7700, 18.28345
450.9600, 58.20947
452.1490, 27.26245
453.3370, 48.22827
454.5260, 71.72363
455.7150, 10.22339
456.9030, 28.72729
458.0910, 32.23511
459.2800, 24.74707
460.4670, 65.26611
461.6550, 23.78906
462.8430, 70.31616
464.0300, 13.84692
465.2180, 12.38135
466.4050, 33.91992
467.5920, 30.46216
468.7790, 4.008545
469.9650, 63.55859
471.1520, 94.11206
472.3380, 47.66943
473.5250, 12.25488
474.7110, 5.360352
475.8970, 51.92896
477.0820, 31.50146
478.2680, 67.16016
479.4540, 79.74243
480.6390, 99.33423
481.8240, 61.93018
483.0090, 71.52954
484.1940, 62.13208
485.3780, 29.73901
486.5630, 30.34912
487.7470, 66.96338
488.9320, 14.58057
490.1160, 84.20166
491.3000, 39.82593
492.4830, 7.915283
493.6670, 55.54663
494.8500, 9.181152
496.0340, 22.81885
497.2170, 54.46021
498.4000, 23.34888
499.5820, 49.99683
500.7650, 22.64819
501.9480, 43.30273
503.1300, 20.96606
504.3120, 40.63232
505.4940, 66.30249
506.6760, 33.97559
507.8580, 6.140137
509.0390, 30.82007
510.2210, 67.50293
511.4020, 41.18921
512.5830, 86.87866
513.7640, 38.57129
514.9450, 22.26685
516.1250, 56.96558
517.3060, 131.6675
518.4860, 31.37231
519.6660, 111.0803
520.8460, 62.79150
522.0260, 36.50562
523.2060, 11.22241
524.3850, 12.94263
525.5650, 74.66602
526.7440, 32.74512
527.9230, 17.15601
529.1020, 150.8879
530.2810, 46.62280
531.4590, 45.36084
532.6380, 18.89844
533.8160, 13.39868
534.9940, 0.8637700
536.1720, 57.77588
537.3500, 9.517578
538.5270, 91.26196
539.7050, 40.00903
540.8820, 54.75952
542.0590, 59.98877
543.2360, 110.3960
544.4130, 24.15430
545.5900, 15.91553
546.7660, 37.67920
547.9430, 59.44556
549.1190, 21.21460
550.2950, 70.98633
551.4710, 21.76050
552.6470, 2.537109
553.8220, 40.31567
554.9980, 91.09692
556.1730, 56.97949
557.3480, 12.76538
558.5230, 32.21265
559.6980, 1.003418
560.8730, 74.79517
562.0470, 57.58911
563.2220, 53.38525
564.3960, 15.18384
565.5700, 41.93799
566.7440, 101.7356
567.9170, 17.54102
569.0910, 63.26221
570.2640, 13.07202
571.4380, 46.88403
572.6110, 83.09326
573.7840, 65.78906
574.9570, 12.39233
576.1290, 19.42188
577.3020, 63.23828
578.4740, 24.11694
579.6460, 56.93774
580.8180, 47.76099
581.9900, 30.58594
583.1620, 72.99365
584.3330, 107.8230
585.5040, 26.65454
586.6760, 41.48828
587.8470, 75.93481
589.0180, 35.77271
590.1880, 113.6128
591.3590, 96.65845
592.5290, 1.592773
593.7000, 55.18481
594.8700, 47.03271
596.0400, 36.03955
597.2090, 46.89160
598.3790, 32.74609
599.5490, 65.60254
600.7180, 71.20435
601.8870, 19.06494
603.0560, 43.92773
604.2250, 9.791992
605.3940, 21.65845
606.5620, 55.52710
607.7300, 39.39771
608.8990, 68.27002
610.0670, 54.38037
611.2350, 63.02026
612.4020, 28.90405
613.5700, 1.783936
614.7370, 8.336670
615.9050, 20.54346
617.0720, 20.47290
618.2390, 0.3586430
619.4060, 78.81006
620.5720, 58.14185
621.7390, 70.03198
622.9050, 73.93042
624.0710, 31.83057
625.2370, 67.83252
626.4030, 55.73584
627.5690, 59.64038
628.7340, 45.54858
629.9000, 9.456299
631.0650, 17.58301
632.2300, 5.723389
633.3950, 21.18457
634.5600, 26.09424
635.7240, 50.00513
636.8890, 18.91772
638.0530, 4.838623
639.2170, 32.76416
640.3810, 50.69116
641.5450, 36.61938
642.7080, 79.73169
643.8720, 54.66284
645.0350, 31.69727
646.1980, 77.63159
647.3610, 5.433105
648.5240, 89.49927
649.6870, 55.43311
650.8490, 68.36768
652.0120, 40.30371
653.1740, 75.24121
654.3360, 90.17944
655.4980, 8.119141
656.6600, 66.06006
657.8210, 57.00195
658.9830, 29.94507
660.1440, 24.88916
661.3050, 59.83423
662.4660, 46.78076
663.6270, 47.72827
664.7870, 55.67700
665.9480, 4.373291
667.1080, 30.57397
668.2680, 77.52808
669.4280, 29.48364
670.5880, 44.43994
671.7480, 60.39746
672.9070, 6.691406
674.0670, 54.26514
675.2260, 75.07910
676.3850, 91.03809
677.5440, 47.00562
678.7030, 18.97388
679.8610, 30.94287
681.0200, 5.086914
682.1780, 25.12012
683.3360, 12.83374
684.4940, 118.7883
685.6520, 90.74365
686.8090, 107.7002
687.9670, 31.65747
689.1240, 67.61572
690.2810, 55.57544
691.4380, 42.53564
692.5950, 38.44360
693.7520, 47.40576
694.9080, 2.368896
696.0650, 22.33179
697.2210, 9.704834
698.3770, 25.25366
699.5330, 70.08545
700.6880, 24.04541
701.8440, 45.00586
702.9990, 23.96777
704.1550, 70.92969
705.3100, 19.89746
706.4650, 40.86597
707.6190, 74.83545
708.7740, 33.80615
709.9290, 32.77759
711.0830, 38.74976
712.2370, 39.72534
713.3910, 62.70679
714.5450, 48.91968
715.6980, 110.9021
716.8520, 3.885742
718.0050, 122.8694
719.1580, 44.85352
720.3110, 18.83862
721.4640, 84.82422
722.6170, 68.81226
723.7700, 37.80103
724.9220, 77.79077
726.0740, 51.78125
727.2260, 45.77368
728.3780, 33.76709
729.5300, 51.76099
730.6810, 2.761230
731.8330, 33.73096
732.9840, 82.73682
734.1350, 0.7431640
735.2860, 53.74854
736.4370, 72.76001
737.5880, 93.76611
738.7380, 9.224121
739.8880, 38.77954
741.0390, 41.78369
742.1890, 36.78833
743.3380, 58.79346
744.4880, 82.79932
745.6380, 69.80542
746.7870, 29.81250
747.9360, 99.81958
749.0850, 42.82739
750.2340, 9.835693
751.3830, 71.84424
752.5310, 28.82935
753.6800, 51.29834
754.8280, 6.187012
755.9760, 66.19727
757.1240, 5.875000
758.2720, 20.86914
759.4190, 28.12476
760.5670, 89.69531
761.7140, 81.68994
762.8610, 4.685059
764.0080, 58.67896
765.1550, 45.67334
766.3020, 12.66846
767.4480, 74.66357
768.5950, 15.65894
769.7410, 90.65430
770.8870, 65.18848
772.0330, 62.18457
773.1780, 85.18091
774.3240, 52.17798
775.4690, 33.79932
776.6140, 48.79126
777.7590, 33.79150
778.9040, 79.79199
780.0490, 15.20703
781.1940, 53.78320
782.3380, 5.900635
783.4820, 109.8950
784.6260, 73.88892
785.7700, 60.39600
786.9140, 54.39038
788.0580, 59.38477
789.2010, 67.37939
790.3450, 84.37451
791.4880, 81.36938
792.6310, 82.36450
793.7730, 90.35962
794.9160, 113.3550
796.0590, 88.35034
797.2010, 112.3457
798.3430, 93.34155
799.4850, 111.3374
800.6270, 94.33325
801.7690, 100.3293
802.9100, 42.32544
804.0520, 136.8733
805.1930, 133.9460
806.3340, 115.9424
807.4750, 60.93872
808.6160, 61.93726
809.7560, 58.93555
810.8970, 41.88354
812.0370, 79.88672
813.1770, 80.89038
814.3170, 54.52246
815.4570, 19.52661
816.5960, 38.53076
817.7360, 27.96704
818.8750, 81.06787
820.0140, 41.42041
821.1530, 68.42432
822.2920, 67.42847
823.4310, 53.43262
824.5690, 89.43677
825.7070, 33.44116
826.8460, 23.53125
827.9840, 32.53662
829.1220, 79.54199
830.2590, 48.54736
831.3970, 77.55273
832.5340, 51.45923
833.6710, 58.46484
834.8080, 58.70874
835.9450, 55.71460
837.0820, 59.08398
838.2190, 67.72754
839.3550, 65.73413
840.4910, 80.74072
841.6270, 98.74780
842.7630, 72.75635
843.8990, 103.7893
845.0350, 97.79834
846.1700, 39.80884
847.3060, 17.81909
848.4410, 25.03125
849.5760, 38.84570
850.7100, 62.85596
851.8450, 75.86963
852.9800, 126.8831
854.1140, 61.83667
855.2480, 71.85034
856.3820, 16.86353
857.5160, 55.87695
858.6500, 52.89014
859.7830, 70.90356
860.9170, 16.91699
862.0500, 47.92993
863.1830, 40.94312
864.3160, 43.18481
865.4480, 89.96875
866.5810, 59.39966
867.7130, 65.32202
868.8460, 51.33447
869.9780, 49.34692
871.1100, 40.20459
872.2410, 13.21851
873.3730, 25.47241
874.5050, 44.77563
875.6360, 25.04590
876.7670, 79.05908
877.8980, 57.07349
879.0290, 59.08765
880.1590, 32.10156
881.2900, 45.11548
882.4200, 42.12939
883.5500, 42.87061
884.6800, 50.15601
885.8100, 70.16919
886.9400, 55.20532
888.0690, 97.21802
889.1990, 57.23071
890.3280, 10.75439
891.4570, 20.20728
892.5860, 89.21777
893.7140, 31.66357
894.8430, 62.23047
895.9710, 22.75903
897.1000, 59.23779
898.2280, 32.23438
899.3560, 102.1301
900.4830, 13.12646
901.6110, 73.12256
902.7380, 46.11646
903.8660, 28.11255
904.9930, 39.10864
906.1200, 26.10474
907.2460, 20.10254
908.3730, 19.10034
909.5000, 72.09814
910.6260, 23.24756
911.7520, 54.73608
912.8780, 28.71997
914.0040, 60.73218
915.1290, 97.71826
916.2550, 40.52124
917.3800, 1.507080
918.5050, 24.34619
919.6300, 25.33057
920.7550, 125.3162
921.8800, 97.30396
923.0040, 95.29175
924.1290, 27.27905
925.2530, 84.26636
926.3770, 36.25342
927.5010, 24.24023
928.6250, 62.22729
929.7480, 31.21411
930.8720, 19.20044
931.9950, 57.19604
933.1180, 25.19116
934.2410, 35.18604
935.3640, 34.18091
936.4860, 90.17578
937.6090, 48.17017
938.7310, 76.16455
939.8530, 14.83911
940.9750, 70.14746
942.0970, 36.13428
943.2180, 82.52441
944.3400, 75.51514
945.4610, 5.485840
946.5820, 13.51074
947.7030, 71.50684
948.8240, 23.49683
949.9450, 76.48511
951.0650, 78.46704
952.1860, 10.44849
953.3060, 30.42969
954.4260, 127.4128
955.5460, 22.40283
956.6650, 80.39282
957.7850, 43.38257
958.9040, 121.3721
960.0230, 75.36133
961.1420, 3.534424
962.2610, 41.52344
963.3800, 76.51221
964.4990, 79.50049
965.6170, 73.48901
966.7350, 76.47729
967.8530, 68.46558
968.9710, 50.45386
970.0890, 12.44482
971.2070, 54.43604
972.3240, 32.42676
973.4410, 30.42041
974.5580, 59.41333
975.6750, 77.40625
976.7920, 14.87109
977.9090, 7.863281
979.0250, 44.85522
980.1410, 55.14453
981.2580, 49.13574
982.3740, 10.12695
983.4890, 18.11768
984.6050, 26.10815
985.7200, 15.09839
986.8360, 28.08813
987.9510, 39.07788
989.0660, 94.06738
990.1810, 127.0569
991.2950, 18.04590
992.4100, 84.03442
993.5240, 37.02295
994.6390, 44.01147
995.7530, 62.99927
996.8660, 76.98682
997.9800, 52.97437
999.0940, 10.96167
1000.207, 4.051270
1001.320, 54.93164
1002.433, 10.91455
1003.546, 81.89746
1004.659, 23.31787
1005.772, 35.30103
1006.884, 52.27856
1007.996, 5.738770
1009.108, 47.23853
1010.220, 71.22119
1011.332, 45.47510
1012.444, 34.45728
1013.555, 75.43896
1014.666, 21.42065
1015.777, 69.40210
1016.888, 73.38306
1017.999, 57.36377
1019.110, 96.34399
1020.220, 6.324219
1021.331, 38.30371
1022.441, 46.28320
1023.551, 36.26221
1024.661, 42.36255
1025.770, 85.15918
1026.880, 31.13818
1027.989, 22.11914
1029.098, 98.10620
1030.207, 12.51660
1031.316, 27.50342
1032.425, 26.48999
1033.533, 13.47681
1034.642, 80.46362
1035.750, 45.45020
1036.858, 63.43677
1037.966, 72.42310
1039.073, 49.40918
1040.181, 37.39551
1041.288, 46.38159
1042.396, 95.36743
1043.503, 8.646729
1044.610, 95.71167
1045.716, 36.86328
1046.823, 3.298340
1047.929, 51.27783
1049.036, 37.26099
1050.142, 48.24536
1051.248, 13.89648
1052.353, 26.08008
1053.459, 77.36035
1054.564, 39.33691
1055.670, 110.3135
1056.775, 43.29028
1057.880, 50.26685
1058.985, 70.24341
1060.089, 52.21997
1061.194, 68.19678
1062.298, 73.17334
1063.402, 94.15039
1064.506, 39.20703
1065.610, 25.18359
1066.713, 44.16016
1067.817, 78.13647
1068.920, 26.11304
1070.023, 23.08936
1071.126, 76.06616
1072.229, 107.0422
1073.332, 90.94214
1074.435, 11.91846
1075.537, 4.113770
1076.639, 117.8589
1077.741, 37.77441
1078.843, 54.23926
1079.945, 99.21143
1081.046, 32.18384
1082.148, 65.52783
1083.249, 72.50000
1084.350, 12.47192
1085.451, 13.43872
1086.551, 37.41064
1087.652, 50.38281
1088.752, 67.35498
1089.853, 45.32739
1090.953, 43.29932
1092.053, 86.27148
1093.152, 0.5759280
1094.252, 12.30957
1095.351, 42.27979
1096.451, 12.25024
1097.550, 70.22070
1098.649, 38.19141
1099.748, 99.16162
1100.846, 42.13232
1101.945, 43.10303
1103.043, 82.07349
1104.141, 86.04443
1105.239, 50.58374
1106.337, 31.55444
1107.434, 14.52539
1108.532, 5.503662
1109.629, 25.46313
1110.726, 56.40576
1111.823, 2.627686
1112.920, 62.33643
1114.017, 49.30054
1115.113, 66.25879
1116.210, 51.22314
1117.306, 63.18750
1118.402, 63.60278
1119.498, 70.11646
1120.593, 50.08154
1121.689, 63.04639
1122.784, 57.91138
1123.879, 85.97656
1124.974, 58.94189
1126.069, 55.90747
1127.164, 57.87305
1128.259, 105.8394
1129.353, 11.80518
1130.447, 83.78760
1131.541, 13.75439
1132.635, 38.30298
1133.729, 9.270020
1134.822, 84.23706
1135.916, 5.794678
1137.009, 41.16992
1138.102, 66.13452
1139.195, 13.09961
1140.288, 90.53540
1141.380, 32.98633
1142.473, 3.047852
1143.565, 72.91602
1144.657, 4.879883
1145.749, 49.84424
1146.841, 49.80884
1147.932, 44.77393
1149.024, 33.74243
1150.115, 43.71167
1151.206, 49.68115
1152.297, 93.62183
1153.388, 42.59229
1154.479, 31.56299
1155.569, 55.53564
1156.659, 12.48682
1157.750, 19.48340
1158.839, 86.45435
1159.929, 60.42554
1161.019, 9.397705
1162.108, 20.37646
1163.198, 24.35645
1164.287, 31.33643
1165.376, 97.31714
1166.465, 86.29810
1167.553, 88.27979
1168.642, 51.26196
1169.730, 56.04541
1170.818, 30.22754
1171.906, 62.21118
1172.994, 27.19531
1174.082, 62.18774
1175.170, 59.52368
1176.257, 2.475342
1177.344, 7.473877
1178.431, 31.49756
1179.518, 1.496338
1180.605, 14.49609
1181.691, 11.01050
1182.778, 32.54224
1183.864, 5.455566
1184.950, 35.54419
1186.036, 29.54517
1187.122, 57.54663
1188.207, 11.54883
1189.292, 87.55176
1190.378, 69.55542
1191.463, 2.560059
1192.548, 99.56567
1193.632, 19.57397
1194.717, 34.41699
1195.801, 59.57544
1196.886, 10.56812
1197.970, 61.56348
1199.054, 7.559082
1200.137, 12.55566
1201.221, 89.55322
1202.305, 73.55151
1203.388, 5.550781
1204.471, 23.55566
1205.554, 17.43896
1206.637, 58.15918
1207.719, 32.84180
1208.802, 7.141113
1209.884, 47.12720
1210.966, 60.11426
1212.048, 17.10229
1213.130, 48.09839
1214.212, 43.09546
1215.293, 17.09326
1216.374, 22.09229
1217.456, 25.09253
1218.536, 30.09375
1219.617, 4.095947
1220.698, 35.09912
1221.778, 57.10352
1222.859, 3.891113
1223.939, 15.93042
1225.019, 71.93701
1226.099, 16.94434
1227.178, 41.95288
1228.258, 21.96216
1229.337, 64.97290
1230.417, 8.984863
1231.496, 71.99829
1232.574, 1.012695
1233.653, 12.02808
1234.732, 11.95483
1235.810, 27.05762
1236.888, 48.07178
1237.966, 107.0867
1239.044, 30.63159
1240.122, 11.64990
1241.199, 41.66943
1242.277, 46.39233
1243.354, 68.41479
1244.431, 55.43848
1245.508, 21.46338
1246.585, 27.48999
1247.661, 17.51807
1248.738, 72.54736
1249.814, 64.57788
1250.890, 74.60962
1251.966, 32.64282
1253.042, 43.60449
1254.117, 32.20044
1255.193, 50.75049
1256.268, 23.78906
1257.343, 49.82910
1258.418, 52.87085
1259.493, 8.6181998E-02
1260.567, 23.95801
1261.642, 56.00342
1262.716, 44.05225
1263.790, 66.66748
1264.864, 48.29150
1265.938, 85.90698
1267.011, 44.96191
1268.085, 59.01807
1269.158, 55.07617
1270.231, 11.86206
1271.304, 59.19678
1272.377, 53.98535
1273.450, 11.04736
1274.522, 43.11084
1275.594, 78.17603
1276.666, 49.24268
1277.738, 51.08032
1278.810, 85.15015
1279.882, 92.22144
1280.953, 62.29443
1282.025, 19.37354
1283.096, 78.45483
1284.167, 40.91382
1285.238, 110.9995
1286.308, 22.26904
1287.379, 27.35791
1288.449, 103.4485
1289.519, 80.56909
1290.589, 60.66309
1291.659, 50.75879
1292.729, 26.85596
1293.798, 86.95483
1294.868, 11.05566
1295.937, 95.15796
1297.006, 73.26221
1298.075, 37.36816
1299.143, 87.47583
1300.212, 5.585693
1301.280, 94.69727
1302.348, 110.5974
1303.416, 103.7122
1304.484, 138.8325
1305.552, 122.2744
1306.620, 114.9431
1307.687, 65.06909
1308.754, 128.3074
1309.821, 171.4365
1310.888, 224.5676
1311.955, 190.7048
1313.021, 223.5408
1314.088, 215.6821
1315.154, 315.8257
1316.220, 315.9705
1317.286, 266.1172
1318.352, 434.2686
1319.417, 451.4219
1320.483, 493.5759
1321.548, 621.2446
1322.613, 846.3987
1323.678, 1049.475
1324.743, 1327.632
1325.807, 1858.054
1326.872, 2914.215
1327.936, 4836.377
1329.000, 8656.542
1330.064, 16088.71
1331.128, 30782.88
1332.191, 52908.05
1333.255, 61316.21
1334.318, 47365.41
1335.381, 25947.58
1336.444, 12284.82
1337.507, 6145.002
1338.569, 3219.187
1339.632, 2117.374
1340.694, 1437.563
1341.756, 1059.753
1342.818, 796.9468
1343.880, 659.1423
1344.941, 524.3403
1346.003, 506.5400
1347.064, 396.7424
1348.125, 365.9807
1349.186, 290.1875
1350.247, 192.3965
1351.308, 279.4272
1352.368, 214.6418
1353.428, 168.8589
1354.489, 213.0784
1355.549, 187.3003
1356.608, 149.5244
1357.668, 53.75024
1358.727, 162.9785
1359.787, 99.20923
1360.846, 64.48853
1361.905, 133.7244
1362.964, 93.39404
1364.022, 107.6296
1365.081, 84.86816
1366.139, 121.2095
1367.197, 74.45239
1368.255, 92.69751
1369.313, 82.94507
1370.371, 56.21924
1371.428, 94.47339
1372.486, 90.72974
1373.543, 80.05273
1374.600, 129.3145
1375.657, 59.56567
1376.713, 83.81885
1377.770, 85.07080
1378.826, 61.32397
1379.882, 20.57959
1380.938, 36.83740
1381.994, 72.09790
1383.050, 20.36084
1384.106, 34.62646
1385.161, 74.93555
1386.216, 43.20068
1387.271, 31.47095
1388.326, 36.73877
1389.381, 30.00903
1390.435, 76.28491
1391.490, 5.440186
1392.544, 63.87695
1393.598, 20.15820
1394.652, 26.44214
1395.705, 43.75513
1396.759, 64.04370
1397.812, 63.84985
1398.866, 2.143066
1399.919, 63.44019
1400.972, 34.76147
1402.024, 23.06323
1403.077, 49.36816
1404.129, 19.32471
1405.181, 37.98096
1406.233, 39.28955
1407.285, 37.59863
1408.337, 94.96387
1409.389, 40.37158
1410.440, 11.05786
1411.491, 60.25879
1412.542, 20.57910
1413.593, 45.90601
1414.644, 42.23608
1415.695, 1.430664
1416.745, 11.90527
1417.795, 54.24463
1418.845, 31.58765
1419.895, 77.93408
1420.945, 39.28418
1421.995, 71.63721
1423.044, 55.99438
1424.093, 10.35547
1425.142, 95.72095
1426.191, 22.11548
1427.240, 31.48999
1428.289, 34.16016
1429.337, 43.17554
1430.385, 33.66479
1431.433, 12.99390
1432.481, 41.48706
1433.529, 30.83496
1434.577, 3.814697
1435.624, 39.53735
1436.672, 64.93701
1437.719, 28.29126
1438.766, 60.88745
1439.812, 42.27173
1440.859, 71.62915
1441.905, 43.98022
1442.952, 67.32788
1443.998, 61.36206
1445.044, 18.76221
1446.090, 63.85522
1447.135, 12.52051
1448.181, 23.82471
1449.226, 50.19116
1450.271, 61.55859
1451.316, 7.070801
1452.361, 80.30371
1453.405, 10.68115
1454.450, 56.07153
1455.494, 91.48340
1456.538, 43.89917
1457.582, 32.31909
1458.626, 43.74292
1459.670, 62.17090
1460.713, 46.60278
1461.757, 69.03833
1462.800, 59.48022
1463.843, 80.92603
1464.886, 46.37622
1465.928, 16.83008
1466.971, 27.28833
1468.013, 61.75366
1469.055, 27.22656
1470.097, 78.70239
1471.139, 30.18286
1472.181, 42.66748
1473.222, 7.156494
1474.263, 36.64941
1475.305, 79.14722
1476.346, 83.64990
1477.386, 67.15771
1478.427, 48.67041
1479.468, 68.18799
1480.508, 30.71069
1481.548, 67.23901
1482.588, 122.5803
1483.628, 90.11670
1484.668, 103.6580
1485.707, 9.211426
1486.747, 46.77051
1487.786, 86.33496
1488.825, 37.74902
1489.864, 71.31104
1490.902, 0.1359860
1491.941, 29.83228
1492.979, 83.38428
1494.017, 52.89551
1495.055, 17.45703
1496.093, 63.02393
1497.131, 50.59595
1498.168, 9.173096
1499.206, 88.75488
1500.243, 79.22461
1501.280, 87.77100
1502.317, 111.4358
1503.354, 90.76611
1504.390, 94.30640
1505.426, 96.68774
1506.463, 27.39331
1507.499, 79.94263
1508.535, 57.48511
1509.570, 14.00586
1510.606, 52.55713
1511.641, 20.56812
1512.676, 53.12012
1513.711, 49.67676
1514.746, 26.23730
1515.781, 53.80151
1516.816, 18.36938
1517.850, 38.94067
1518.884, 58.51489
1519.918, 23.09253
1520.952, 80.67261
1521.986, 103.2551
1523.019, 126.7524
1524.053, 90.33691
1525.086, 26.92261
1526.119, 45.50928
1527.152, 46.09888
1528.185, 92.69141
1529.217, 74.14697
1530.250, 35.75000
1531.282, 67.05615
1532.314, 16.31641
1533.346, 14.23877
1534.377, 2.133057
1535.409, 66.27441
1536.440, 65.99097
1537.472, 77.74805
1538.503, 56.51904
1539.534, 88.30127
1540.564, 78.92725
1541.595, 108.6899
1542.625, 100.5481
1543.656, 104.3452
1544.686, 100.1709
1545.716, 97.96924
1546.745, 128.9170
1547.775, 117.8950
1548.804, 108.7827
1549.834, 43.81885
1550.863, 88.89966
1551.892, 135.2405
1552.920, 79.68042
1553.949, 15.36646
1554.977, 71.03271
1556.006, 18.67554
1557.034, 61.28613
1558.062, 103.8423
1559.089, 63.33252
1560.117, 42.71118
1561.144, 63.61230
1562.172, 12.53101
1563.199, 50.22803
1564.226, 56.51147
1565.252, 78.89966
1566.279, 83.03394
1567.305, 1.095215
1568.332, 41.43042
1569.358, 19.45703
1570.384, 0.0000000E+00
##END=



