##NAMES=Diamond
##RRUFFID=R050207
##IDEAL CHEMISTRY=C
##LOCALITY=Unknown
##OWNER=RRUFF
##SOURCE=Eric Van Valkenburg
##DESCRIPTION=Single crystal,  type I
##STATUS=The identification of this mineral has been confirmed by single-crystal X-ray diffraction.
##URL=rruff.info/R050207
##PIN_ID=L01129
##ORIENTATION=Laser parallel to a* (1 0 0). Fiducial mark perpendicular to laser is parallel to c [0 0 1]
114.4400, 0.0000000E+00
115.6710, 12.56641
116.9030, 0.5371090
118.1340, 28.76483
119.3650, 23.70972
120.5960, 25.11865
121.8270, 21.76709
123.0580, 32.31305
124.2880, 28.14935
125.5190, 41.03369
126.7490, 24.01312
127.9790, 46.08667
129.2090, 57.23975
130.4390, 35.45221
131.6680, 7.282227
132.8980, 62.03107
134.1270, 29.38721
135.3560, 55.78217
136.5850, 19.21320
137.8140, 43.68195
139.0430, 22.18451
140.2710, 63.71686
141.5000, 36.47699
142.7280, 31.05243
143.9560, 21.65247
145.1840, 61.27490
146.4120, 32.91760
147.6390, 62.57880
148.8670, 46.25677
150.0940, 25.95038
151.3210, 12.65845
152.5490, 75.38019
153.7750, 40.11536
155.0020, 71.86273
156.2290, 75.62170
157.4550, 32.39050
158.6810, 45.20239
159.9080, 46.05334
161.1340, 27.90759
162.3590, 6.765137
163.5850, 38.62610
164.8110, 53.49042
166.0360, 17.35803
167.2610, 1.770935
168.4860, 28.10352
169.7110, 80.99585
170.9360, 34.89197
172.1610, 74.80615
173.3850, 17.72205
174.6100, 25.63971
175.8340, 49.55945
177.0580, 37.48108
178.2820, 53.40472
179.5050, 34.33032
180.7290, 55.25812
181.9520, 49.76965
183.1760, 53.12164
184.3990, 53.05713
185.6220, 58.99518
186.8450, 70.93579
188.0670, 46.87897
189.2900, 38.82794
190.5120, 59.78662
191.7340, 0.7524410
192.9560, 27.71808
194.1780, 38.68365
195.4000, 35.64929
196.6220, 3.618225
197.8430, 73.57532
199.0640, 63.53363
200.2860, 34.49341
201.5070, 69.45477
202.7270, 29.85706
203.9480, 78.79053
205.1690, 71.72632
206.3890, 31.66437
207.6090, 30.60480
208.8290, 58.54767
210.0490, 53.49292
211.2690, 53.44055
212.4890, 61.39062
213.7080, 40.34314
214.9280, 27.29730
216.1470, 32.25378
217.3660, 60.21259
218.5850, 34.17371
219.8030, 54.13708
221.0220, 63.10291
222.2400, 54.29688
223.4590, 27.66766
224.6770, 48.63330
225.8950, 41.64795
227.1120, 29.62207
228.3300, 43.29529
229.5480, 53.26636
230.7650, 21.24017
231.9820, 24.21674
233.1990, 6.195068
234.4160, 34.17529
235.6330, 53.15936
236.8490, 67.14331
238.0660, 4.129150
239.2820, 37.11670
240.4980, 39.10608
241.7140, 39.09723
242.9300, 66.09021
244.1460, 27.08618
245.3610, 37.08502
246.5770, 38.09698
247.7920, 23.11041
249.0070, 54.12512
250.2220, 55.14111
251.4370, 37.15845
252.6510, 2.177124
253.8660, 53.19702
255.0800, 48.21820
256.2940, 12.24066
257.5080, 30.26917
258.7220, 14.02643
259.9360, 11.73468
261.1490, 19.37408
262.3630, 19.61395
263.5760, 51.64850
264.7890, 72.76233
266.0020, 58.51276
267.2150, 4.541870
268.4270, 33.55536
269.6400, 36.52478
270.8520, 33.50037
272.0640, 37.48242
273.2760, 62.46973
274.4880, 63.46191
275.7000, 61.45862
276.9120, 27.45959
278.1230, 0.1866460
279.3340, 5.821899
280.5450, 26.83411
281.7560, 42.84961
282.9670, 22.86829
284.1780, 38.89014
285.3880, 58.91492
286.5980, 17.94238
287.8090, 53.00195
289.0190, 25.96655
290.2290, 17.17395
291.4380, 25.20398
292.6480, 36.23633
293.8570, 36.27087
295.0670, 41.54456
296.2760, 14.34619
297.4850, 47.38684
298.6930, 24.42932
299.9020, 31.47363
301.1110, 26.51965
302.3190, 32.56750
303.5270, 37.61707
304.7350, 21.66809
305.9430, 32.72034
307.1510, 19.77405
308.3580, 24.82886
309.5660, 34.88513
310.7730, 27.29968
311.9800, 31.29138
313.1870, 29.02356
314.3940, 24.08472
315.6010, 34.14697
316.8070, 23.21057
318.0130, 32.27490
319.2200, 31.34045
320.4260, 12.40723
321.6310, 7.474731
322.8370, 38.54700
324.0430, 29.62036
325.2480, 36.69470
326.4540, 16.77002
327.6590, 33.84619
328.8640, 51.92334
330.0680, 12.00159
331.2730, 9.919189
332.4780, 36.15869
333.6820, 28.23767
334.8860, 1.316772
336.0900, 9.763672
337.2940, 10.84497
338.4980, 26.93433
339.7010, 20.01721
340.9050, 10.89905
342.1080, 26.18311
343.3110, 13.26599
344.5140, 33.34961
345.7170, 26.51233
346.9200, 53.59790
348.1220, 26.67371
349.3240, 27.75049
350.5270, 31.82837
351.7290, 36.90698
352.9310, 48.98657
354.1320, 48.06714
355.3340, 0.1485600
356.5350, 51.23083
357.7370, 16.31396
358.9380, 28.39807
360.1390, 27.48291
361.3400, 30.56873
362.5400, 17.65527
363.7410, 41.74280
364.9410, 22.83105
366.1410, 40.92004
367.3410, 24.00989
368.5410, 50.09790
369.7410, 24.18652
370.9400, 35.27673
372.1400, 20.61755
373.3390, 33.70630
374.5380, 26.79565
375.7370, 41.11523
376.9360, 23.20605
378.1350, 16.29761
379.3330, 0.3900150
380.5310, 25.48291
381.7300, 35.57642
382.9280, 30.67078
384.1260, 24.76575
385.3230, 21.86133
386.5210, 43.95764
387.7180, 46.05469
388.9160, 38.15222
390.1130, 19.25049
391.3100, 39.34924
392.5060, 54.44849
393.7030, 20.54858
394.9000, 39.64893
396.0960, 6.750000
397.2920, 37.37012
398.4880, 42.47229
399.6840, 68.45398
400.8800, 18.55688
402.0750, 44.66040
403.2710, 54.76440
404.4660, 4.868652
405.6610, 3.375366
406.8560, 26.72815
408.0510, 1.167969
409.2450, 12.06458
410.4400, 52.03284
411.6340, 9.130859
412.8280, 50.23743
414.0220, 28.34460
415.2160, 13.57117
416.4100, 51.67969
417.6030, 31.78894
418.7970, 38.89880
419.9900, 15.00928
421.1830, 37.12024
422.3760, 49.23035
423.5690, 37.34534
424.7610, 25.46106
425.9540, 27.57971
427.1460, 14.69897
428.3380, 43.81860
429.5300, 40.93872
430.7220, 5.9448000E-02
431.9140, 33.18018
433.1050, 2.177856
434.2970, 70.94263
435.4880, 49.06348
436.6790, 45.18494
437.8700, 14.30688
439.0610, 32.42920
440.2510, 29.55200
441.4420, 33.67529
442.6320, 20.79883
443.8220, 14.92297
445.0120, 15.04749
446.2020, 39.17236
447.3910, 25.29773
448.5810, 52.42346
449.7700, 27.55322
450.9600, 28.68323
452.1490, 35.81360
453.3370, 16.94434
454.5260, 17.07544
455.7150, 24.20679
456.9030, 15.33875
458.0910, 24.53223
459.2800, 16.60388
460.4670, 29.73694
461.6550, 29.87036
462.8430, 18.00403
464.0300, 37.13806
465.2180, 43.13049
466.4050, 33.26501
467.5920, 15.39990
468.7790, 33.53516
469.9650, 21.67053
471.1520, 52.81067
472.3380, 43.95105
473.5250, 33.09180
474.7110, 13.76367
475.8970, 32.90479
477.0820, 5.953857
478.2680, 30.15210
479.4540, 8.290771
480.6390, 0.4298100
481.8240, 30.56860
483.0090, 31.70776
484.1940, 25.30200
485.3780, 73.44165
486.5630, 65.58167
487.7470, 1.278198
488.9320, 33.86121
490.1160, 21.00098
491.3000, 41.14124
492.4830, 25.28162
493.6670, 66.42212
494.8500, 19.56311
496.0340, 17.70422
497.2170, 42.84570
498.4000, 7.985840
499.5820, 18.12781
500.7650, 51.27002
501.9480, 32.41248
503.1300, 40.55518
504.3120, 21.69812
505.4940, 27.84131
506.6760, 18.98486
507.8580, 19.83154
509.0390, 20.27246
510.2210, 23.41663
511.4020, 30.56104
512.5830, 27.88867
513.7640, 3.966431
514.9450, 46.17639
516.1250, 60.31934
517.3060, 19.53748
518.4860, 19.59546
519.6660, 14.72961
520.8460, 1.864014
522.0260, 4.998535
523.2060, 55.13354
524.3850, 25.26855
525.5650, 53.40393
526.7440, 3.539307
527.9230, 18.67505
529.1020, 37.81091
530.2810, 35.94702
531.4590, 21.08337
532.6380, 40.21973
533.8160, 31.35645
534.9940, 9.493286
536.1720, 42.63037
537.3500, 26.76868
538.5270, 8.092773
539.7050, 11.04138
540.8820, 13.82434
542.0590, 16.30249
543.2360, 37.42944
544.4130, 4.556641
545.5900, 43.68408
546.7660, 10.18835
547.9430, 9.730469
549.1190, 27.85278
550.2950, 19.89233
551.4710, 43.27014
552.6470, 19.39307
553.8220, 27.37598
554.9980, 25.49915
556.1730, 1.373169
557.3480, 18.75342
558.5230, 53.88013
559.6980, 17.00696
560.8730, 58.13379
562.0470, 33.26099
563.2220, 55.38806
564.3960, 3.515503
565.5700, 40.64282
566.7440, 38.37708
567.9170, 60.50476
569.0910, 71.63220
570.2640, 37.75989
571.4380, 55.88757
572.6110, 18.98486
573.7840, 83.11267
574.9570, 7.134033
576.1290, 56.26819
577.3020, 41.40247
578.4740, 81.53662
579.6460, 10.67090
580.8180, 57.80530
581.9900, 55.93958
583.1620, 33.07410
584.3330, 31.20837
585.5040, 35.34277
586.6760, 18.47717
587.8470, 6.611572
589.0180, 39.74622
590.1880, 19.70264
591.3590, 7.837036
592.5290, 39.97131
593.7000, 22.10571
594.8700, 38.24023
596.0400, 47.37451
597.2090, 30.50867
598.3790, 59.64514
599.5490, 14.78149
600.7180, 32.91797
601.8870, 17.05432
603.0560, 17.19055
604.2250, 43.32690
605.3940, 12.53699
606.5620, 30.59180
607.7300, 48.72058
608.8990, 37.84924
610.0670, 21.97815
611.2350, 43.17529
612.4020, 36.30396
613.5700, 32.43237
614.7370, 17.56091
615.9050, 59.69775
617.0720, 27.83435
618.2390, 39.60510
619.4060, 38.74182
620.5720, 33.87842
621.7390, 31.00757
622.9050, 33.14404
624.0710, 9.280640
625.2370, 20.41931
626.4030, 6.557983
627.5690, 68.69653
628.7340, 43.75708
629.9000, 49.89551
631.0650, 38.03406
632.2300, 12.17249
633.3950, 33.31091
634.5600, 35.44922
635.7240, 37.58752
636.8890, 24.72546
638.0530, 72.86353
639.2170, 39.00159
640.3810, 41.14197
641.5450, 12.28235
642.7080, 55.42310
643.8720, 47.56384
645.0350, 49.70459
646.1980, 6.845093
647.3610, 38.98547
648.5240, 5.125732
649.6870, 27.26855
650.8490, 43.41138
652.0120, 1.445923
653.1740, 48.69495
654.3360, 30.58582
655.4980, 49.72644
656.6600, 24.86694
657.8210, 38.77795
658.9830, 7.144165
660.1440, 22.28442
661.3050, 58.42480
662.4660, 15.56506
663.6270, 43.70544
664.7870, 45.84570
665.9480, 45.98596
667.1080, 53.14709
668.2680, 47.26624
669.4280, 46.40613
670.5880, 33.54602
671.7480, 21.68591
672.9070, 26.82581
674.0670, 16.51343
675.2260, 21.49207
676.3850, 10.48486
677.5440, 27.62512
678.7030, 27.24585
679.8610, 21.38855
681.0200, 40.65198
682.1780, 26.79456
683.3360, 20.93994
684.4940, 16.08545
685.6520, 45.23096
686.8090, 41.72510
687.9670, 50.87146
689.1240, 24.01819
690.2810, 28.16516
691.4380, 10.31543
692.5950, 29.53418
693.7520, 63.60034
694.9080, 54.74695
696.0650, 26.76270
697.2210, 48.89709
698.3770, 46.03137
699.5330, 23.16553
700.6880, 17.29980
701.8440, 40.43384
702.9990, 7.567871
704.1550, 46.70190
705.3100, 9.164185
706.4650, 23.96436
707.6190, 70.09277
708.7740, 38.22095
709.9290, 49.34937
711.0830, 12.47754
712.2370, 20.60583
713.3910, 16.73413
714.5450, 34.86279
715.6980, 22.99146
716.8520, 26.12000
718.0050, 24.24829
719.1580, 47.37659
720.3110, 13.50476
721.4640, 44.63281
722.6170, 11.76074
723.7700, 13.88855
724.9220, 27.01624
726.0740, 26.14380
727.2260, 32.27112
728.3780, 12.60144
729.5300, 44.51843
730.6810, 17.63831
731.8330, 25.75806
732.9840, 41.87927
734.1350, 32.00049
735.2860, 27.12158
736.4370, 51.74207
737.5880, 53.86267
738.7380, 16.98340
739.8880, 53.10400
741.0390, 53.22424
742.1890, 12.35059
743.3380, 67.47693
744.4880, 28.74487
745.6380, 33.87085
746.7870, 8.006348
747.9360, 21.13208
749.0850, 16.74231
750.2340, 18.37402
751.3830, 22.49023
752.5310, 43.64990
753.6800, 30.19531
754.8280, 17.31543
755.9760, 20.43555
757.1240, 22.55713
758.2720, 21.67834
759.4190, 53.79956
760.5670, 19.92053
761.7140, 16.04138
762.8610, 47.16199
764.0080, 72.28210
765.1550, 12.40234
766.3020, 43.52234
767.4480, 70.64233
768.5950, 39.79724
769.7410, 69.91699
770.8870, 19.03625
772.0330, 16.15552
773.1780, 72.27466
774.3240, 28.39343
775.4690, 50.51208
776.6140, 4.630493
777.7590, 16.30774
778.9040, 5.425659
780.0490, 22.65271
781.1940, 48.77014
782.3380, 59.88794
783.4820, 50.00549
784.6260, 52.12268
785.7700, 51.51978
786.9140, 42.99573
788.0580, 37.11230
789.2010, 39.22852
790.3450, 41.16626
791.4880, 64.27710
792.6310, 61.39355
793.7730, 50.50989
794.9160, 71.62585
796.0590, 2.251221
797.2010, 28.87036
798.3430, 39.00854
799.4850, 50.12964
800.6270, 74.25037
801.7690, 34.37085
802.9100, 49.49109
804.0520, 60.61096
805.1930, 36.73059
806.3340, 49.84998
807.4750, 8.969116
808.6160, 7.087891
809.7560, 40.20630
810.8970, 17.32581
812.0370, 19.44507
813.1770, 2.434326
814.3170, 5.448730
815.4570, 37.80151
816.5960, 16.66113
817.7360, 24.78052
818.8750, 17.90332
820.0140, 26.69116
821.1530, 29.81335
822.2920, 58.93494
823.4310, 82.05627
824.5690, 72.17993
825.7070, 10.33777
826.8460, 23.46069
827.9840, 27.58313
829.1220, 60.70508
830.2590, 14.96680
831.3970, 14.91199
832.5340, 37.19995
833.6710, 74.31250
834.8080, 51.42444
835.9450, 43.53601
837.0820, 52.64734
838.2190, 59.75818
839.3550, 52.86877
840.4910, 54.97900
841.6270, 72.08887
842.7630, 96.59155
843.8990, 78.70093
845.0350, 79.80969
846.1700, 35.91833
847.3060, 86.02686
848.4410, 72.13501
849.5760, 7.242798
850.7100, 49.35034
851.8450, 67.45764
852.9800, 7.564697
854.1140, 79.67139
855.2480, 5.777710
856.3820, 26.88391
857.5160, 41.98975
858.6500, 96.09534
859.7830, 85.38843
860.9170, 60.30542
862.0500, 82.40991
863.1830, 61.51428
864.3160, 58.61829
865.4480, 59.51294
866.5810, 45.00330
867.7130, 49.10645
868.8460, 38.57007
869.9780, 23.67505
871.1100, 20.78235
872.2410, 7.108765
873.3730, 7.746216
874.5050, 51.09924
875.6360, 30.20276
876.7670, 60.30591
877.8980, 71.83643
879.0290, 91.93909
880.1590, 12.04114
881.2900, 47.14661
882.4200, 4.251465
883.5500, 67.35596
884.6800, 13.45996
885.8100, 26.49500
886.9400, 45.59827
888.0690, 0.7011720
889.1990, 21.16638
890.3280, 73.92297
891.4570, 43.01196
892.5860, 37.10046
893.7140, 7.188477
894.8430, 22.27612
895.9710, 26.36316
897.1000, 48.45117
898.2280, 46.53882
899.3560, 48.59485
900.4830, 29.71265
901.6110, 36.79883
902.7380, 19.88452
903.8660, 1.969727
904.9930, 40.05420
906.1200, 17.13831
907.2460, 25.23340
908.3730, 21.32800
909.5000, 17.42212
910.6260, 28.51575
911.7520, 24.60901
912.8780, 7.298462
914.0040, 36.78882
915.1290, 0.1243900
916.2550, 24.96106
917.3800, 39.14062
918.5050, 8.224976
919.6300, 76.30908
920.7550, 45.39246
921.8800, 8.524536
923.0040, 20.55225
924.1290, 48.62964
925.2530, 88.70630
926.3770, 83.09143
927.5010, 92.03601
928.6250, 71.93616
929.7480, 64.01172
930.8720, 59.55396
931.9950, 19.60291
933.1180, 3.679321
934.2410, 54.75830
935.3640, 21.83667
936.4860, 25.91443
937.6090, 41.99158
938.7310, 16.06824
939.8530, 66.14429
940.9750, 49.21960
942.0970, 27.29443
943.2180, 22.36853
944.3400, 31.44214
945.4610, 30.74792
946.5820, 38.18359
947.7030, 33.28711
948.8240, 35.11792
949.9450, 34.18774
951.0650, 9.742554
952.1860, 12.32056
953.3060, 57.38306
954.4260, 8.553589
955.5460, 39.50330
956.6650, 37.55957
957.7850, 12.61511
958.9040, 32.66992
960.0230, 2.724121
961.1420, 45.77722
962.2610, 50.82959
963.3800, 64.88135
964.4990, 66.93237
965.6170, 48.99072
966.7350, 82.03613
967.8530, 65.09302
968.9710, 14.14941
970.0890, 74.20508
971.2070, 33.26025
972.3240, 35.31445
973.4410, 47.36829
974.5580, 62.42139
975.6750, 100.4852
976.7920, 26.54834
977.9090, 46.61365
979.0250, 29.67834
980.1410, 59.74963
981.2580, 44.82043
982.3740, 43.89050
983.4890, 70.95984
984.6050, 58.89282
985.7200, 44.09692
986.8360, 63.16418
987.9510, 34.23108
989.0660, 36.29724
990.1810, 106.3628
991.2950, 28.42761
992.4100, 71.49182
993.5240, 50.55530
994.6390, 29.61816
995.7530, 15.68042
996.8660, 10.74194
997.9800, 44.80286
999.0940, 37.86316
1000.207, 27.92651
1001.320, 78.98889
1002.433, 3.949097
1003.546, 66.63037
1004.659, 45.29138
1005.772, 85.76221
1006.884, 35.31836
1007.996, 91.37329
1009.108, 51.42761
1010.220, 55.48120
1011.332, 20.46606
1012.444, 44.57373
1013.555, 71.61292
1014.666, 43.65125
1015.777, 68.68884
1016.888, 12.71619
1017.999, 52.75232
1019.110, 46.78772
1020.220, 24.82703
1021.331, 17.86548
1022.441, 14.14014
1023.551, 35.46301
1024.661, 41.49048
1025.770, 8.517212
1026.880, 57.54346
1027.989, 70.56909
1029.098, 50.59399
1030.207, 46.89062
1031.316, 42.91431
1032.425, 36.93726
1033.533, 31.95959
1034.642, 38.98120
1035.750, 39.85339
1036.858, 35.02283
1037.966, 47.00757
1039.073, 46.02673
1040.181, 39.77356
1041.288, 46.65820
1042.396, 47.29834
1043.503, 44.82446
1044.610, 49.83997
1045.716, 42.85461
1046.823, 26.30945
1047.929, 32.32275
1049.036, 37.29297
1050.142, 1.304810
1051.248, 17.78186
1052.353, 13.61011
1053.459, 17.33264
1054.564, 38.34045
1055.670, 27.70850
1056.775, 67.90625
1057.880, 69.91187
1058.985, 11.91724
1060.089, 28.92175
1061.194, 31.92578
1062.298, 75.92908
1063.402, 5.068359
1064.506, 0.4860840
1065.610, 59.51013
1066.713, 27.20959
1067.817, 44.20447
1068.920, 48.19849
1070.023, 48.19202
1071.126, 81.18494
1072.229, 32.17712
1073.332, 81.16870
1074.435, 87.15955
1075.537, 73.14978
1076.639, 40.13940
1077.741, 0.8717040
1078.843, 2.350464
1079.945, 2.568726
1081.046, 8.080200
1082.148, 24.06177
1083.249, 47.04285
1084.350, 60.36670
1085.451, 47.34656
1086.551, 59.40063
1087.652, 47.97375
1088.752, 48.95190
1089.853, 60.92957
1090.953, 42.90662
1092.053, 45.78125
1093.152, 52.82495
1094.252, 36.80078
1095.351, 32.77612
1096.451, 33.75098
1097.550, 13.72534
1098.649, 37.69922
1099.748, 19.67712
1100.846, 27.65454
1101.945, 49.63147
1103.043, 66.60791
1104.141, 53.58398
1105.239, 28.55945
1106.337, 15.53467
1107.434, 59.16162
1108.532, 9.135864
1109.629, 51.10974
1110.726, 84.08276
1111.823, 37.76807
1112.920, 52.73999
1114.017, 46.71143
1115.113, 47.68225
1116.210, 72.65234
1117.306, 9.621948
1118.402, 75.59094
1119.498, 52.55933
1120.593, 81.52710
1121.689, 77.49451
1122.784, 54.46130
1123.879, 35.42749
1124.974, 79.39319
1126.069, 80.35840
1127.164, 73.32288
1128.259, 90.46924
1129.353, 69.92383
1130.447, 78.21411
1131.541, 50.17676
1132.635, 7.138916
1133.729, 21.10059
1134.822, 5.035889
1135.916, 6.377808
1137.009, 3.392456
1138.102, 6.553589
1139.195, 44.50159
1140.288, 77.44897
1141.380, 27.39600
1142.473, 64.34290
1143.565, 10.86157
1144.657, 34.80762
1145.749, 24.75354
1146.841, 43.69922
1147.932, 35.64465
1149.024, 85.58984
1150.115, 27.53491
1151.206, 64.47986
1152.297, 29.42456
1153.388, 21.36902
1154.479, 49.28308
1155.569, 35.23364
1156.659, 24.18445
1157.750, 55.13513
1158.839, 52.08569
1159.929, 58.03625
1161.019, 3.013184
1162.108, 34.93457
1163.198, 6.882446
1164.287, 17.83020
1165.376, 21.77795
1166.465, 32.72559
1167.553, 52.67346
1168.642, 2.621460
1169.730, 94.56958
1170.818, 42.48242
1171.906, 42.44263
1172.994, 30.36755
1174.082, 80.29272
1175.170, 18.21802
1176.257, 92.14343
1177.344, 51.06873
1178.431, 2.996948
1179.518, 7.4707001E-02
1180.605, 7.855591
1181.691, 37.69165
1182.778, 42.62231
1183.864, 22.55322
1184.950, 44.48438
1186.036, 49.41577
1187.122, 2.649658
1188.207, 35.28320
1189.292, 58.21631
1190.378, 75.14966
1191.463, 18.08350
1192.548, 29.01746
1193.632, 45.95178
1194.717, 9.580933
1195.801, 42.15125
1196.886, 11.91565
1197.970, 73.01135
1199.054, 86.93884
1200.137, 35.87073
1201.221, 17.80310
1202.305, 39.73596
1203.388, 58.66919
1204.471, 10.60278
1205.554, 1.536987
1206.637, 40.47168
1207.719, 5.406860
1208.802, 43.10999
1209.884, 10.98828
1210.966, 53.58813
1212.048, 4.525757
1213.130, 38.46387
1214.212, 1.597168
1215.293, 38.34473
1216.374, 6.712891
1217.456, 19.22705
1218.536, 42.17065
1219.617, 59.11487
1220.698, 20.05981
1221.778, 18.00562
1222.859, 16.95203
1223.939, 30.89941
1225.019, 28.84753
1226.099, 26.17261
1227.178, 96.74622
1228.258, 20.69666
1229.337, 50.65088
1230.417, 63.60583
1231.496, 18.56152
1232.574, 23.51819
1233.653, 22.47571
1234.732, 57.43408
1235.810, 23.39343
1236.888, 44.64648
1237.966, 57.29187
1239.044, 79.23120
1240.122, 68.17151
1241.199, 29.88733
1242.277, 3.039917
1243.354, 9.968384
1244.431, 24.89771
1245.508, 24.82825
1246.585, 53.75977
1247.661, 76.69226
1248.738, 60.62585
1249.814, 15.56042
1250.890, 41.49634
1251.966, 29.43335
1253.042, 48.37122
1254.117, 67.31030
1255.193, 80.25061
1256.268, 17.19226
1257.343, 52.13513
1258.418, 21.07910
1259.493, 58.02417
1260.567, 50.97046
1261.642, 64.91809
1262.716, 49.86890
1263.790, 33.82080
1264.864, 33.25415
1265.938, 25.40161
1267.011, 26.17603
1268.085, 28.10889
1269.158, 32.06958
1270.231, 43.03174
1271.304, 41.99500
1272.377, 46.95996
1273.450, 47.93237
1274.522, 49.61743
1275.594, 65.88171
1276.666, 56.86047
1277.738, 64.84058
1278.810, 76.82214
1279.882, 76.80554
1280.953, 95.79041
1282.025, 105.7767
1283.096, 94.76501
1284.167, 90.75916
1285.238, 100.8093
1286.308, 93.80664
1287.379, 122.8054
1288.449, 114.5787
1289.519, 116.1787
1290.589, 114.5391
1291.659, 93.54443
1292.729, 95.55273
1293.798, 96.54590
1294.868, 94.68445
1295.937, 116.5957
1297.006, 118.6110
1298.075, 146.6282
1299.143, 190.6470
1300.212, 168.9741
1301.280, 79.96130
1302.348, 144.9854
1303.416, 138.0112
1304.484, 119.0391
1305.552, 214.0686
1306.620, 148.1000
1307.687, 178.1355
1308.754, 230.5740
1309.821, 263.6132
1310.888, 288.6552
1311.955, 334.2892
1313.021, 355.7451
1314.088, 420.7927
1315.154, 482.8423
1316.220, 550.7023
1317.286, 581.7561
1318.352, 736.8115
1319.417, 863.8682
1320.483, 1057.926
1321.548, 1288.984
1322.613, 1743.044
1323.678, 2462.523
1324.743, 3665.229
1325.807, 6074.576
1326.872, 11174.65
1327.936, 20235.63
1329.000, 30756.70
1330.064, 42025.78
1331.128, 52284.86
1332.191, 56258.94
1333.255, 49993.01
1334.318, 36029.10
1335.381, 21454.18
1336.444, 11344.27
1337.507, 5938.361
1338.569, 3618.452
1339.632, 2345.548
1340.694, 1686.646
1341.756, 1201.768
1342.818, 968.7864
1343.880, 785.8903
1344.941, 630.6613
1346.003, 525.7698
1347.064, 431.8804
1348.125, 404.9934
1349.186, 333.3956
1350.247, 289.2260
1351.308, 243.3458
1352.368, 242.4681
1353.428, 180.5927
1354.489, 228.7198
1355.549, 222.8492
1356.608, 184.6178
1357.668, 160.7521
1358.727, 167.8887
1359.787, 204.0280
1360.846, 115.1697
1361.905, 149.3137
1362.964, 118.4603
1364.022, 109.6096
1365.081, 154.1091
1366.139, 110.2633
1367.197, 102.4199
1368.255, 52.57898
1369.313, 92.02844
1370.371, 94.19312
1371.428, 130.3604
1372.486, 122.4164
1373.543, 127.7094
1374.600, 100.8849
1375.657, 65.06348
1376.713, 47.24475
1377.770, 109.4290
1378.826, 47.61218
1379.882, 61.79834
1380.938, 117.9872
1381.994, 61.17883
1383.050, 44.41528
1384.106, 77.61292
1385.161, 75.81335
1386.216, 49.01685
1387.271, 31.21729
1388.326, 32.41235
1389.381, 13.05493
1390.435, 80.25562
1391.490, 90.51697
1392.544, 71.72583
1393.598, 66.94031
1394.652, 48.15979
1395.705, 59.43860
1396.759, 24.66370
1397.812, 90.89185
1398.866, 31.12280
1399.919, 49.35706
1400.972, 73.59424
1402.024, 67.83435
1403.077, 72.33643
1404.129, 68.71667
1405.181, 44.97571
1406.233, 50.26672
1407.285, 11.51355
1408.337, 1.763306
1409.389, 18.07495
1410.440, 40.33057
1411.491, 3.411133
1412.542, 7.849731
1413.593, 59.11353
1414.644, 22.38037
1415.695, 54.65784
1416.745, 61.92993
1417.795, 11.20630
1418.845, 13.84143
1419.895, 5.114746
1420.945, 0.6087650
1421.995, 23.66968
1423.044, 8.029907
1424.093, 66.31433
1425.142, 27.60193
1426.191, 9.881836
1427.240, 48.17505
1428.289, 45.47119
1429.337, 26.76819
1430.385, 27.06775
1431.433, 42.36975
1432.481, 15.96606
1433.529, 55.47021
1434.577, 13.23560
1435.624, 5.055054
1436.672, 6.487427
1437.719, 24.78003
1438.766, 13.13513
1439.812, 54.42944
1440.859, 29.68542
1441.905, 36.93628
1442.952, 45.64136
1443.998, 35.65137
1445.044, 54.85754
1446.090, 38.03198
1447.135, 49.85608
1448.181, 62.14062
1449.226, 3.431274
1450.271, 15.27075
1451.316, 27.02283
1452.361, 112.3198
1453.405, 19.37939
1454.450, 79.92505
1455.494, 41.23328
1456.538, 33.54504
1457.582, 53.86035
1458.626, 7.180298
1459.670, 43.50769
1460.713, 43.83875
1461.757, 29.17371
1462.800, 60.51221
1463.843, 21.85461
1464.886, 36.19739
1465.928, 17.54077
1466.971, 0.1121830
1468.013, 38.23840
1469.055, 37.60645
1470.097, 19.99207
1471.139, 67.39136
1472.181, 32.80432
1473.222, 25.22156
1474.263, 25.64368
1475.305, 18.07019
1476.346, 84.50159
1477.386, 23.93787
1478.427, 34.37817
1479.468, 50.82336
1480.508, 15.27344
1481.548, 12.27673
1482.588, 46.17725
1483.628, 89.63635
1484.668, 17.09961
1485.707, 47.56750
1486.747, 47.04053
1487.786, 44.51550
1488.825, 80.99292
1489.864, 44.47449
1490.902, 37.96069
1491.941, 53.36670
1492.979, 26.86157
1494.017, 47.18152
1495.055, 101.8662
1496.093, 55.37097
1497.131, 48.86792
1498.168, 14.38159
1499.206, 56.90076
1500.243, 31.42517
1501.280, 37.95496
1502.317, 60.48987
1503.354, 21.16870
1504.390, 60.69324
1505.426, 78.22168
1506.463, 30.75574
1507.499, 9.295288
1508.535, 79.84094
1509.570, 66.40027
1510.606, 25.97107
1511.641, 66.21985
1512.676, 47.85693
1513.711, 6.606079
1514.746, 42.93738
1515.781, 6.487549
1516.816, 53.04419
1517.850, 84.60718
1518.884, 73.17688
1519.918, 8.701172
1520.952, 35.28308
1521.986, 64.87024
1523.019, 99.46240
1524.053, 36.05920
1525.086, 66.66052
1526.119, 55.26624
1527.152, 4.914063
1528.185, 36.65686
1529.217, 69.22986
1530.250, 14.80444
1531.282, 126.3801
1532.314, 84.95959
1533.346, 13.53979
1534.377, 70.12073
1535.409, 80.68091
1536.440, 61.26001
1537.472, 121.8516
1538.503, 62.45703
1539.534, 28.89868
1540.564, 54.49707
1541.595, 47.11707
1542.625, 2.097656
1543.656, 103.2943
1544.686, 40.93701
1545.716, 34.30347
1546.745, 14.93481
1547.775, 90.56189
1548.804, 111.1833
1549.834, 49.40259
1550.863, 143.6984
1551.892, 79.25757
1552.920, 97.40125
1553.949, 48.90881
1554.977, 57.39246
1556.006, 97.78845
1557.034, 2.939209
1558.062, 53.35425
1559.089, 64.77271
1560.117, 10.83594
1561.144, 86.03882
1562.172, 25.16870
1563.199, 43.18872
1564.226, 58.03687
1565.252, 71.70728
1566.279, 1.9530000E-03
1567.305, 24.59058
1568.332, 42.82373
1569.358, 1.364014
1570.384, 0.0000000E+00
##END=



