##NAMES=Diamond
##RRUFFID=R050204
##IDEAL CHEMISTRY=C
##LOCALITY=Unknown
##OWNER=RRUFF
##SOURCE=Eric Van Valkenburg
##DESCRIPTION=Single crystal, type IIA
##STATUS=The identification of this mineral has been confirmed by single-crystal X-ray diffraction.
##URL=rruff.info/R050204
##PIN_ID=M01891
##ORIENTATION=Laser parallel to a* (1 0 0). Fiducial mark perpendicular to laser is parallel to b [0 1 0]
170.5590, 0.0000000E+00
171.7860, 10.87402
173.0130, 73.44922
174.2400, 0.5927730
175.4670, 44.37793
176.6930, 53.38770
177.9200, 18.61426
179.1460, 81.74316
180.3720, 142.6191
181.5980, 10.87598
182.8230, 129.1729
184.0490, 62.68652
185.2740, 292.6094
186.5000, 62.89160
187.7250, 261.4941
188.9500, 109.3857
190.1740, 288.5420
191.3990, 57.93457
192.6230, 273.5420
193.8480, 128.3428
195.0720, 143.3232
196.2960, 171.4688
197.5200, 109.7686
198.7430, 218.2100
199.9670, 170.7773
201.1900, 110.4629
202.4130, 84.25391
203.6360, 151.1621
204.8590, 81.18652
206.0820, 82.31738
207.3050, 281.5469
208.5270, 172.8633
209.7490, 260.2578
210.9710, 237.7266
212.1930, 318.2627
213.4150, 342.8623
214.6370, 298.5176
215.8580, 204.2256
217.0790, 230.9824
218.3010, 76.78516
219.5210, 75.62598
220.7420, 193.6016
221.9630, 381.6025
223.1830, 290.6621
224.4040, 300.7441
225.6240, 79.84766
226.8440, 257.9717
228.0640, 115.1133
229.2840, 151.2734
230.5030, 308.4521
231.7230, 368.6436
232.9420, 367.8613
234.1610, 222.1016
235.3800, 246.6650
236.5990, 158.2939
237.8170, 353.9707
239.0360, 113.6396
240.2540, 220.3057
241.4720, 78.00879
242.6900, 212.7412
243.9080, 159.4561
245.1250, 199.1475
246.3430, 97.81543
247.5600, 235.4727
248.7770, 219.1455
249.9940, 103.8516
251.2110, 289.5732
252.4280, 252.2881
253.6450, 162.0293
254.8610, 224.7598
256.0770, 248.4854
257.2930, 214.2031
258.5090, 324.9160
259.7250, 250.6250
260.9400, 251.3271
262.1560, 144.0254
263.3710, 294.7266
264.5860, 87.42383
265.8010, 285.1172
267.0160, 214.8115
268.2310, 117.5010
269.4450, 131.9150
270.6600, 189.5547
271.8740, 305.1914
273.0880, 235.8281
274.3020, 328.6895
275.5150, 330.3086
276.7290, 60.92969
277.9420, 221.5479
279.1550, 344.1660
280.3680, 132.7822
281.5810, 210.3984
282.7940, 223.0117
284.0070, 228.6240
285.2190, 269.8555
286.4310, 232.8848
287.6430, 257.5098
288.8550, 177.1348
290.0670, 47.75684
291.2790, 247.3799
292.4900, 36.00391
293.7020, 119.7305
294.9130, 72.96875
296.1240, 172.5830
297.3350, 126.4014
298.5450, 168.5928
299.7560, 265.1738
300.9660, 112.9170
302.1760, 187.0596
303.3860, 131.3086
304.5960, 105.9824
305.8060, 288.4697
307.0150, 165.8848
308.2250, 232.7275
309.4340, 177.2158
310.6430, 81.62207
311.8520, 261.0898
313.0610, 332.4453
314.2700, 207.8301
315.4780, 170.1777
316.6860, 248.1973
317.8940, 65.27051
319.1020, 50.37793
320.3100, 275.4619
321.5180, 176.6982
322.7250, 118.1016
323.9330, 235.5898
325.1400, 183.9824
326.3470, 97.34766
327.5540, 148.5586
328.7600, 116.8809
329.9670, 168.2578
331.1730, 130.9883
332.3800, 115.4844
333.5860, 166.9160
334.7920, 284.6035
335.9970, 244.0645
337.2030, 162.5391
338.4080, 74.17773
339.6140, 111.6738
340.8190, 244.1816
342.0240, 95.84180
343.2290, 300.3652
344.4330, 55.90039
345.6380, 152.4414
346.8420, 159.9883
348.0460, 327.5410
349.2500, 251.0996
350.4540, 284.6641
351.6580, 127.2324
352.8610, 230.9668
354.0650, 189.8633
355.2680, 51.48242
356.4710, 252.0605
357.6740, 31.64453
358.8760, 103.2285
360.0790, 113.1094
361.2810, 281.6973
362.4840, 48.28516
363.6860, 173.8730
364.8880, 104.4648
366.0900, 191.0527
367.2910, 45.35742
368.4930, 265.2207
369.6940, 49.79492
370.8950, 84.37305
372.0960, 279.0566
373.2970, 101.6289
374.4980, 250.2012
375.6980, 17.22852
376.8980, 122.3379
378.0990, 98.90039
379.2990, 153.7266
380.4980, 255.2871
381.6980, 150.8418
382.8980, 203.3926
384.0970, 296.9434
385.2960, 198.4922
386.4950, 219.3613
387.6940, 112.9883
388.8930, 198.5234
390.0920, 299.0586
391.2900, 135.5879
392.4880, 204.1152
393.6860, 170.6387
394.8840, 230.1621
396.0820, 233.3926
397.2800, 231.0898
398.4770, 219.6074
399.6750, 209.1406
400.8720, 130.6445
402.0690, 75.14844
403.2660, 160.6680
404.4620, 225.1855
405.6590, 192.7695
406.8550, 211.2832
408.0510, 177.8711
409.2480, 168.5293
410.4430, 262.2461
411.6390, 288.9355
412.8350, 59.48438
414.0300, 325.0176
415.2250, 27.80469
416.4200, 276.3438
417.6150, 4.123047
418.8100, 85.49609
420.0050, 68.01562
421.1990, 48.53125
422.3940, 16.16797
423.5880, 53.32812
424.7820, 140.8438
425.9750, 38.37891
427.1690, 114.0684
428.3630, 12.48828
429.5560, 243.9453
430.7490, 129.5527
431.9420, 18.02148
433.1350, 16.57617
434.3280, 17.94336
435.5200, 26.76367
436.7130, 43.61719
437.9050, 195.9375
439.0970, 49.30469
440.2890, 178.0469
441.4810, 131.5156
442.6720, 23.08594
443.8640, 17.44531
445.0550, 51.70312
446.2460, 100.9551
447.4370, 301.1895
448.6280, 73.41602
449.8180, 135.6387
451.0090, 69.14453
452.1990, 142.0449
453.3890, 177.2480
454.5790, 67.42383
455.7690, 231.5742
456.9590, 162.7168
458.1480, 153.8516
459.3380, 135.9805
460.5270, 127.1055
461.7160, 106.1445
462.9050, 83.83008
464.0940, 68.73828
465.2820, 31.84375
466.4700, 21.04102
467.6590, 6.658203
468.8470, 5.654297
470.0350, 7.335938
471.2220, 35.70703
472.4100, 101.3633
473.5970, 9.392578
474.7850, 66.42969
475.9720, 134.4590
477.1590, 23.51562
478.3460, 122.7129
479.5320, 146.7012
480.7190, 53.68555
481.9050, 169.6562
483.0910, 174.6250
484.2770, 57.58203
485.4630, 96.53125
486.6490, 150.4707
487.8340, 205.4004
489.0200, 176.2637
490.2050, 186.2383
491.3900, 115.1426
492.5750, 146.0371
493.7600, 136.9219
494.9440, 57.80078
496.1290, 20.66797
497.3130, 88.52539
498.4970, 134.3730
499.6810, 205.2090
500.8650, 171.0371
502.0480, 29.86719
503.2320, 195.6855
504.4150, 102.4922
505.5980, 266.2910
506.7810, 262.0801
507.9640, 180.8594
509.1460, 172.6289
510.3290, 124.8477
511.5110, 183.5996
512.6930, 170.3418
513.8750, 78.07422
515.0570, 116.7949
516.2390, 309.5059
517.4210, 168.2051
518.6020, 259.0176
519.7830, 182.6953
520.9640, 43.36328
522.1450, 157.4688
523.3260, 155.1152
524.5060, 167.8398
525.6870, 201.6250
526.8670, 134.8105
528.0470, 32.80078
529.2270, 90.66992
530.4070, 163.4434
531.5870, 234.1172
532.7660, 131.8184
533.9450, 208.7910
535.1240, 386.7930
536.3030, 183.7598
537.4820, 114.3320
538.6610, 14.97656
539.8390, 117.4922
541.0180, 112.7539
542.1960, 128.2012
543.3740, 226.7500
544.5520, 208.4297
545.7290, 239.7480
546.9070, 127.8027
548.0840, 221.1895
549.2620, 209.9082
550.4390, 108.7285
551.6160, 94.16211
552.7920, 99.78711
553.9690, 187.8867
555.1450, 182.9453
556.3220, 85.34570
557.4980, 241.9590
558.6740, 146.6113
559.8490, 123.4062
561.0250, 233.6836
562.2000, 201.4258
563.3760, 116.4707
564.5510, 274.7930
565.7260, 242.2871
566.9010, 256.8457
568.0750, 194.5957
569.2500, 148.8281
570.4240, 280.2227
571.5980, 98.46680
572.7720, 157.8418
573.9460, 5.394531
575.1200, 111.2793
576.2930, 38.23047
577.4670, 203.0938
578.6400, 42.00977
579.8130, 243.1191
580.9860, 51.46875
582.1590, 115.9004
583.3310, 75.30078
584.5040, 122.7324
585.6760, 362.1680
586.8480, 204.5176
588.0200, 178.3906
589.1920, 401.6777
590.3630, 238.7656
591.5350, 243.5996
592.7060, 281.1875
593.8770, 137.2930
595.0480, 183.0840
596.2190, 305.9121
597.3900, 352.6738
598.5600, 206.4199
599.7310, 286.1543
600.9010, 215.0488
602.0710, 166.7539
603.2410, 308.5801
604.4100, 76.25781
605.5800, 152.5371
606.7490, 122.9746
607.9190, 180.9062
609.0880, 303.6738
610.2570, 62.20117
611.4250, 23.59961
612.5940, 139.1035
613.7620, 296.3867
614.9310, 396.4844
616.0990, 219.4844
617.2670, 169.4961
618.4340, 95.75586
619.6020, 242.7305
620.7690, 336.1973
621.9370, 371.6406
623.1040, 426.0801
624.2710, 511.9629
625.4380, 536.2266
626.6040, 340.6309
627.7710, 420.0176
628.9370, 235.4824
630.1030, 363.8379
631.2690, 232.2715
632.4350, 203.6074
633.6010, 174.9863
634.7660, 320.4941
635.9320, 197.6875
637.0970, 489.0391
638.2620, 172.3320
639.4270, 417.5684
640.5920, 173.3086
641.7560, 354.8203
642.9210, 427.8809
644.0850, 481.2715
645.2490, 244.4297
646.4130, 298.0000
647.5770, 415.1289
648.7400, 241.2422
649.9040, 508.3379
651.0670, 316.1719
652.2300, 332.5703
653.3930, 401.6328
654.5560, 273.8008
655.7190, 166.8320
656.8810, 315.8457
658.0440, 201.9004
659.2060, 214.8848
660.3680, 165.8555
661.5300, 55.54492
662.6910, 194.4805
663.8530, 141.4648
665.0140, 125.3691
666.1750, 31.25391
667.3360, 71.17969
668.4970, 97.69141
669.6580, 117.7949
670.8190, 138.8379
671.9790, 130.6270
673.1390, 62.40039
674.2990, 53.25586
675.4590, 58.98438
676.6190, 150.8496
677.7790, 120.9219
678.9380, 282.1445
680.0970, 9.177734
681.2570, 204.4453
682.4160, 139.0762
683.5740, 64.31250
684.7330, 95.33789
685.8920, 160.1309
687.0500, 202.2598
688.2080, 83.66016
689.3660, 58.27344
690.5240, 147.5254
691.6820, 98.70117
692.8390, 41.06445
693.9960, 8.781250
695.1540, 30.48242
696.3110, 65.92383
697.4680, 75.45898
698.6240, 1.625000
699.7810, 157.7754
700.9370, 77.89844
702.0940, 237.0098
703.2500, 98.97266
704.4060, 170.0488
705.5610, 86.86719
706.7170, 79.18359
707.8720, 145.2285
709.0280, 61.25391
710.1830, 135.2617
711.3380, 100.0742
712.4920, 160.1289
713.6470, 92.05469
714.8020, 143.0234
715.9560, 176.3887
717.1100, 171.3047
718.2640, 138.7871
719.4180, 60.66797
720.5720, 53.09961
721.7250, 56.88086
722.8780, 14.41602
724.0320, 10.12695
725.1850, 39.92188
726.3380, 186.7012
727.4900, 66.46094
728.6430, 110.1992
729.7950, 346.4980
730.9470, 13.20117
732.1000, 96.17578
733.2510, 366.8398
734.4030, 147.7129
735.5550, 293.3887
736.7060, 240.3613
737.8570, 223.1543
739.0090, 126.8398
740.1600, 170.9434
741.3100, 136.5391
742.4610, 224.1191
743.6110, 17.39258
744.7620, 182.9336
745.9120, 35.36328
747.0620, 53.12891
748.2120, 181.3301
749.3610, 193.4160
750.5110, 15.70898
751.6600, 8.728516
752.8090, 47.51953
753.9580, 32.84570
755.1070, 52.92969
756.2560, 176.2539
757.4050, 54.34180
758.5530, 257.6367
759.7010, 138.5625
760.8490, 222.8262
761.9970, 62.07617
763.1450, 192.3418
764.2920, 211.1230
765.4400, 206.3613
766.5870, 151.5801
767.7340, 177.2539
768.8810, 152.3340
770.0280, 171.7305
771.1740, 157.8828
772.3210, 123.5547
773.4670, 155.7129
774.6130, 76.85352
775.7590, 153.9746
776.9050, 259.5586
778.0510, 50.72656
779.1960, 21.20508
780.3420, 134.9453
781.4870, 121.9727
782.6320, 196.9805
783.7770, 72.47656
784.9210, 258.4492
786.0660, 313.6504
787.2100, 307.5859
788.3540, 11.10352
789.4980, 98.00000
790.6420, 189.8770
791.7860, 118.7363
792.9300, 393.5781
794.0730, 272.5840
795.2160, 161.4238
796.3590, 279.2148
797.5020, 241.5840
798.6450, 207.3398
799.7880, 258.6328
800.9300, 158.4707
802.0720, 292.5918
803.2150, 201.1211
804.3560, 183.2754
805.4980, 162.5391
806.6400, 87.91602
807.7810, 118.3555
808.9230, 175.8633
810.0640, 190.3184
811.2050, 150.6152
812.3460, 237.7090
813.4860, 138.8105
814.6270, 84.27344
815.7670, 74.80664
816.9070, 262.3027
818.0470, 190.3359
819.1870, 331.2461
820.3270, 203.5781
821.4670, 149.7441
822.6060, 372.8535
823.7450, 376.9766
824.8840, 175.3535
826.0230, 11.19727
827.1620, 321.3906
828.3010, 304.4121
829.4390, 150.4395
830.5770, 222.9590
831.7150, 189.6309
832.8530, 38.79102
833.9910, 74.65820
835.1290, 298.0098
836.2660, 134.1660
837.4030, 409.3184
838.5410, 218.7695
839.6780, 255.4785
840.8140, 222.5684
841.9510, 330.9551
843.0870, 259.6211
844.2240, 474.3496
845.3600, 397.3398
846.4960, 321.9629
847.6320, 221.8809
848.7680, 134.6367
849.9030, 218.6270
851.0380, 189.6719
852.1740, 374.4902
853.3090, 308.4727
854.4440, 312.4414
855.5780, 425.2734
856.7130, 268.7637
857.8470, 201.2051
858.9820, 366.6484
860.1160, 259.2324
861.2500, 431.9746
862.3830, 398.6699
863.5170, 321.5117
864.6500, 485.9141
865.7840, 20.94727
866.9170, 335.7383
868.0500, 95.12305
869.1830, 673.9551
870.3150, 110.6934
871.4480, 180.1211
872.5800, 363.0273
873.7120, 54.11133
874.8440, 151.6484
875.9760, 47.14648
877.1080, 285.2930
878.2390, 356.8086
879.3710, 334.4414
880.5020, 183.3926
881.6330, 274.6523
882.7640, 320.6816
883.8940, 174.1074
885.0250, 333.5234
886.1550, 287.5996
887.2850, 154.0449
888.4160, 82.84375
889.5450, 248.6777
890.6750, 54.22461
891.8050, 318.7715
892.9340, 344.4102
894.0630, 240.3789
895.1930, 7.250000
896.3220, 201.5352
897.4500, 265.3906
898.5790, 275.7305
899.7070, 30.73438
900.8360, 200.8008
901.9640, 245.3027
903.0920, 400.5078
904.2200, 81.90234
905.3470, 116.5801
906.4750, 288.2500
907.6020, 42.82227
908.7290, 240.6953
909.8560, 233.1445
910.9830, 387.9141
912.1100, 64.05273
913.2360, 159.2012
914.3630, 294.3828
915.4890, 154.5527
916.6150, 312.6230
917.7410, 198.5020
918.8670, 59.56055
919.9920, 200.1680
921.1180, 121.3574
922.2430, 198.3613
923.3680, 37.34766
924.4930, 401.5703
925.6180, 188.2129
926.7420, 337.4434
927.8670, 220.3906
928.9910, 137.4883
930.1150, 173.3828
931.2390, 313.2715
932.3630, 39.20312
933.4860, 452.2168
934.6100, 242.0371
935.7330, 153.8418
936.8560, 59.55664
937.9790, 303.3203
939.1020, 167.0664
940.2250, 324.7969
941.3470, 229.9883
942.4700, 230.3184
943.5920, 214.7617
944.7140, 209.4609
945.8360, 150.1738
946.9570, 213.7012
948.0790, 352.3184
949.2000, 281.7637
950.3220, 50.00977
951.4430, 288.0820
952.5640, 100.5918
953.6840, 78.08789
954.8050, 272.5664
955.9250, 395.0234
957.0460, 261.3867
958.1660, 218.8340
959.2860, 210.3105
960.4050, 80.84961
961.5250, 19.05664
962.6440, 15.84180
963.7640, 249.2324
964.8830, 240.5508
966.0020, 155.9238
967.1210, 218.2871
968.2390, 179.1484
969.3580, 68.14062
970.4760, 186.4902
971.5940, 250.6992
972.7120, 35.98828
973.8300, 60.25781
974.9480, 135.5020
976.0650, 16.11133
977.1830, 158.0762
978.3000, 202.2715
979.4170, 317.4531
980.5340, 345.1797
981.6500, 210.2852
982.7670, 334.4180
983.8830, 209.6641
985.0000, 136.3984
986.1160, 181.4941
987.2320, 203.5508
988.3470, 329.5879
989.4630, 204.6094
990.5780, 309.6113
991.6940, 233.5977
992.8090, 268.5664
993.9240, 97.51953
995.0380, 52.54492
996.1530, 103.3359
997.2680, 445.1953
998.3820, 364.2070
999.4960, 81.03320
1000.610, 345.2598
1001.724, 116.0449
1002.837, 101.5449
1003.951, 385.2910
1005.064, 70.95898
1006.177, 143.7012
1007.291, 107.9082
1008.403, 15.07031
1009.516, 202.7188
1010.629, 83.40625
1011.741, 324.2676
1012.853, 363.4707
1013.965, 216.9883
1015.077, 41.97852
1016.189, 254.5605
1017.300, 166.0215
1018.412, 19.68945
1019.523, 77.12500
1020.634, 34.46484
1021.745, 325.6602
1022.856, 148.7441
1023.966, 175.4355
1025.077, 378.0996
1026.187, 169.4824
1027.297, 307.8438
1028.407, 105.2598
1029.517, 337.9375
1030.627, 100.2422
1031.736, 120.0410
1032.845, 169.1426
1033.955, 157.7773
1035.064, 162.3320
1036.172, 376.4570
1037.281, 179.6973
1038.390, 85.41602
1039.498, 102.2539
1040.606, 107.3770
1041.714, 112.3438
1042.822, 125.5840
1043.930, 366.4902
1045.037, 193.9629
1046.145, 319.3535
1047.252, 70.30273
1048.359, 23.86523
1049.466, 171.8203
1050.573, 200.5957
1051.679, 347.5352
1052.786, 237.9238
1053.892, 164.7051
1054.998, 309.1445
1056.104, 297.9746
1057.210, 208.0430
1058.315, 281.6758
1059.421, 139.5410
1060.526, 147.1523
1061.631, 162.2305
1062.736, 261.9492
1063.841, 190.4746
1064.946, 188.0098
1066.050, 164.0898
1067.154, 442.0137
1068.258, 214.4941
1069.362, 361.8398
1070.466, 210.7754
1071.570, 209.2051
1072.674, 269.5527
1073.777, 41.98828
1074.880, 316.3457
1075.983, 273.6621
1077.086, 353.2812
1078.189, 177.8379
1079.291, 243.1309
1080.394, 237.8438
1081.496, 346.0742
1082.598, 195.2871
1083.700, 263.2676
1084.802, 369.7930
1085.903, 260.5996
1087.005, 563.2969
1088.106, 302.4238
1089.207, 361.6289
1090.308, 408.9785
1091.409, 255.0547
1092.509, 176.1172
1093.610, 343.7188
1094.710, 42.96289
1095.810, 259.2441
1096.910, 380.2578
1098.010, 221.4160
1099.110, 300.2031
1100.209, 192.4355
1101.309, 398.4141
1102.408, 184.7832
1103.507, 230.6348
1104.606, 328.4824
1105.704, 516.7344
1106.803, 268.0078
1107.901, 151.5762
1108.999, 345.1035
1110.097, 238.7363
1111.195, 278.4844
1112.293, 61.53125
1113.391, 300.2441
1114.488, 220.9414
1115.585, 133.6250
1116.682, 32.28906
1117.779, 179.7031
1118.876, 341.2891
1119.973, 332.1426
1121.069, 390.7402
1122.165, 190.3223
1123.261, 255.8867
1124.357, 285.4395
1125.453, 299.9746
1126.549, 346.1016
1127.644, 306.9961
1128.739, 405.1172
1129.835, 135.5918
1130.930, 282.0547
1132.024, 200.0371
1133.119, 226.4727
1134.214, 340.5762
1135.308, 248.6035
1136.402, 120.9980
1137.496, 298.5938
1138.590, 72.23828
1139.684, 249.6992
1140.777, 142.1523
1141.871, 25.56250
1142.964, 93.20508
1144.057, 8.458984
1145.150, 294.6562
1146.243, 47.85742
1147.335, 140.3906
1148.428, 201.5625
1149.520, 52.41602
1150.612, 268.8535
1151.704, 163.5703
1152.796, 15.83789
1153.887, 419.1230
1154.979, 96.05469
1156.070, 28.22266
1157.161, 174.0117
1158.252, 320.7852
1159.343, 153.6992
1160.433, 260.1797
1161.524, 250.0781
1162.614, 64.51953
1163.704, 204.9844
1164.794, 323.6836
1165.884, 60.34766
1166.974, 233.0156
1168.063, 124.8672
1169.153, 318.6211
1170.242, 257.9688
1171.331, 136.3789
1172.420, 0.7968750
1173.508, 209.7344
1174.597, 151.2031
1175.685, 33.00391
1176.774, 618.6953
1177.862, 102.4453
1178.950, 181.6133
1180.037, 318.9766
1181.125, 159.5430
1182.212, 96.23438
1183.300, 102.9258
1184.387, 124.6133
1185.474, 8.882813
1186.560, 102.7734
1187.647, 292.4180
1188.733, 58.94141
1189.820, 80.64844
1190.906, 229.9492
1191.992, 19.27344
1193.078, 56.64453
1194.163, 385.1953
1195.249, 230.6641
1196.334, 96.12109
1197.419, 30.46484
1198.504, 144.9766
1199.589, 232.4766
1200.674, 176.9727
1201.758, 275.4570
1202.843, 278.8945
1203.927, 112.4062
1205.011, 245.3320
1206.095, 215.7891
1207.179, 48.23047
1208.262, 57.66406
1209.345, 80.98438
1210.429, 11.39844
1211.512, 189.8008
1212.595, 122.1992
1213.677, 280.5625
1214.760, 37.96094
1215.842, 296.3516
1216.925, 418.7344
1218.007, 215.1133
1219.089, 96.48828
1220.171, 56.85156
1221.252, 165.2070
1222.334, 143.5586
1223.415, 143.8203
1224.496, 150.1602
1225.577, 270.1641
1226.658, 98.53516
1227.738, 59.90234
1228.819, 181.2617
1229.899, 33.62109
1230.979, 79.96875
1232.060, 194.3086
1233.139, 136.6172
1234.219, 247.9492
1235.299, 92.28516
1236.378, 307.6172
1237.457, 262.9453
1238.536, 307.1133
1239.615, 338.4609
1240.694, 231.8086
1241.772, 31.14844
1242.851, 427.9648
1243.929, 219.3008
1245.007, 599.6367
1246.085, 567.7578
1247.163, 201.4492
1248.240, 276.7617
1249.318, 46.08984
1250.395, 301.4180
1251.472, 355.7383
1252.549, 204.0547
1253.626, 406.3633
1254.703, 235.6719
1255.779, 326.9766
1256.855, 160.2852
1257.931, 248.6094
1259.007, 481.9258
1260.083, 339.0703
1261.159, 283.6445
1262.234, 297.9492
1263.310, 183.2578
1264.385, 423.5625
1265.460, 394.8750
1266.535, 491.3555
1267.610, 383.6797
1268.684, 486.4336
1269.758, 521.9648
1270.833, 193.1797
1271.907, 420.8945
1272.981, 282.9062
1274.054, 369.7383
1275.128, 543.0469
1276.201, 170.0156
1277.275, 494.2188
1278.348, 376.5234
1279.421, 262.6719
1280.493, 54.96875
1281.566, 11.78516
1282.638, 269.6992
1283.711, 130.7500
1284.783, 124.6484
1285.855, 10.81250
1286.927, 177.9805
1287.998, 182.1445
1289.070, 375.5430
1290.141, 389.7227
1291.212, 538.9023
1292.283, 388.8398
1293.354, 366.0547
1294.425, 425.2617
1295.495, 554.0625
1296.566, 536.9219
1297.636, 662.4922
1298.706, 633.7031
1299.776, 623.9141
1300.845, 775.0391
1301.915, 497.4570
1302.984, 569.6953
1304.054, 327.9375
1305.123, 304.6523
1306.191, 671.8945
1307.260, 596.9492
1308.329, 605.1758
1309.397, 505.4219
1310.465, 658.6641
1311.534, 616.7109
1312.602, 683.7852
1313.669, 733.9492
1314.737, 707.1875
1315.804, 854.2461
1316.872, 882.4492
1317.939, 877.9102
1319.006, 672.8516
1320.073, 915.0625
1321.139, 848.7930
1322.206, 965.6875
1323.272, 1243.906
1324.338, 1358.129
1325.404, 2350.199
1326.470, 3933.004
1327.536, 7098.234
1328.601, 11317.46
1329.667, 14772.70
1330.732, 17992.94
1331.797, 19512.18
1332.862, 17247.34
1333.926, 12923.61
1334.991, 8454.875
1336.055, 4822.828
1337.120, 2494.824
1338.184, 1485.926
1339.248, 1112.738
1340.311, 1007.016
1341.375, 924.3008
1342.438, 750.5859
1343.502, 803.5312
1344.565, 646.8242
1345.628, 774.1172
1346.691, 872.4102
1347.753, 573.6133
1348.816, 712.6602
1349.878, 741.9609
1350.940, 649.2695
1352.002, 406.5781
1353.064, 294.6367
1354.126, 412.9648
1355.187, 260.4414
1356.248, 687.0859
1357.310, 168.4141
1358.371, 621.4219
1359.431, 681.8672
1360.492, 485.2969
1361.553, 530.6328
1362.613, 259.6172
1363.673, 391.8867
1364.733, 261.2930
1365.793, 484.6367
1366.853, 317.3398
1367.912, 444.6836
1368.972, 484.0391
1370.031, 300.3750
1371.090, 242.8711
1372.149, 386.4805
1373.208, 334.8203
1374.267, 182.6797
1375.325, 481.4570
1376.383, 508.7539
1377.441, 108.8633
1378.499, 307.1719
1379.557, 260.7031
1380.615, 352.1562
1381.672, 382.5078
1382.730, 414.6484
1383.787, 393.5586
1384.844, 554.8828
1385.901, 566.6211
1386.957, 191.9570
1388.014, 54.29688
1389.070, 199.6367
1390.126, 233.9883
1391.182, 257.3398
1392.238, 116.7891
1393.294, 23.85156
1394.349, 221.5078
1395.405, 296.2266
1396.460, 70.61719
1397.515, 453.0078
1398.570, 140.3438
1399.625, 296.6250
1400.679, 78.90625
1401.734, 224.1914
1402.788, 89.45312
1403.842, 175.7109
1404.896, 482.8945
1405.950, 114.0742
1407.003, 346.2422
1408.057, 5.234375
1409.110, 198.0195
1410.163, 48.34766
1411.216, 306.5078
1412.269, 140.6328
1413.322, 155.4531
1414.374, 330.5391
1415.427, 50.62891
1416.479, 251.9844
1417.531, 275.0391
1418.583, 19.92188
1419.634, 322.0859
1420.686, 126.0781
1421.737, 212.1211
1422.788, 75.99219
1423.839, 71.06641
1424.890, 344.7461
1425.941, 125.6289
1426.992, 227.4922
1428.042, 588.3516
1429.092, 233.0391
1430.142, 142.6875
1431.192, 113.3047
1432.242, 299.7031
1433.291, 371.2109
1434.341, 394.5938
1435.390, 688.6758
1436.439, 388.9492
1437.488, 425.0664
1438.537, 270.8438
1439.586, 561.0195
1440.634, 633.4023
1441.682, 524.8750
1442.731, 279.5195
1443.779, 465.2070
1444.826, 88.90625
1445.874, 609.6172
1446.922, 646.3359
1447.969, 528.0586
1449.016, 359.7930
1450.063, 451.5391
1451.110, 583.2891
1452.157, 481.0508
1453.203, 437.8203
1454.250, 475.6094
1455.296, 365.4023
1456.342, 640.2070
1457.388, 491.0195
1458.433, 441.8359
1459.479, 715.6641
1460.524, 558.4531
1461.570, 256.1992
1462.615, 616.9453
1463.660, 268.6992
1464.705, 620.4609
1465.749, 428.2109
1466.794, 461.9688
1467.838, 435.6680
1468.882, 295.3750
1469.926, 334.0469
1470.970, 210.7461
1472.013, 290.4141
1473.057, 446.0820
1474.100, 410.7617
1475.143, 245.4453
1476.186, 535.1172
1477.229, 340.7852
1478.272, 134.9023
1479.314, 312.7734
1480.357, 121.4102
1481.399, 46.06641
1482.441, 291.4062
1483.483, 261.0664
1484.525, 118.4375
1485.566, 152.8711
1486.608, 455.4570
1487.649, 1.679688
1488.690, 349.6680
1489.731, 165.5664
1490.771, 474.4883
1491.812, 58.11719
1492.853, 238.7539
1493.893, 183.6328
1494.933, 100.2969
1495.973, 3.242188
1497.013, 1.980469
1498.052, 9.140625
1499.092, 51.20703
1500.131, 66.94141
1501.170, 214.7070
1502.209, 173.5039
1503.248, 212.9258
1504.287, 133.2578
1505.325, 156.1992
1506.363, 181.7383
1507.402, 34.67969
1508.440, 62.61328
1509.478, 285.5508
1510.515, 100.4844
1511.553, 197.4180
1512.590, 212.3398
1513.627, 260.2656
1514.664, 495.1836
1515.701, 223.1055
1516.738, 183.0156
1517.775, 442.9297
1518.811, 385.8359
1519.847, 124.7461
1520.883, 400.6523
1521.919, 474.5586
1522.955, 178.3984
1523.991, 366.4961
1525.026, 446.6914
1526.061, 537.8164
1527.096, 547.6758
1528.131, 327.3945
1529.166, 318.2227
1530.201, 231.5312
1531.235, 426.6016
1532.270, 206.3555
1533.304, 461.4922
1534.338, 149.1680
1535.372, 165.9492
1536.405, 473.7188
1537.439, 447.8906
1538.472, 395.8945
1539.505, 37.64062
1540.538, 107.5234
1541.571, 293.8555
1542.604, 244.2617
1543.637, 648.2070
1544.669, 318.9180
1545.701, 161.2930
1546.733, 21.43359
1547.765, 285.7891
1548.797, 23.45312
1549.829, 466.6445
1550.860, 348.2578
1551.891, 328.2891
1552.922, 226.2109
1553.953, 496.0000
1554.984, 468.1680
1556.015, 7.996094
1557.045, 309.5625
1558.076, 141.3359
1559.106, 1.851563
1560.136, 121.8789
1561.165, 254.7148
1562.195, 1.199219
1563.225, 11.90234
1564.254, 43.82031
1565.283, 0.0000000E+00
##END=



