##NAMES=Diamond
##RRUFFID=R050207
##IDEAL CHEMISTRY=C
##LOCALITY=Unknown
##OWNER=RRUFF
##SOURCE=Eric Van Valkenburg
##DESCRIPTION=Single crystal,  type I
##STATUS=The identification of this mineral has been confirmed by single-crystal X-ray diffraction.
##URL=rruff.info/R050207
##PIN_ID=L01129
##ORIENTATION=Laser parallel to a* (1 0 0). Fiducial mark perpendicular to laser is parallel to c [0 0 1]
114.4400, 0.0000000E+00
115.6710, 19.89447
116.9030, 10.77570
118.1340, 8.668823
119.3650, 21.01129
120.5960, 38.99847
121.8270, 38.83936
123.0580, 3.306641
124.2880, 36.29205
125.5190, 26.25031
126.7490, 4.289795
127.9790, 10.82190
129.2090, 4.448608
130.4390, 27.15936
131.6680, 10.94470
132.8980, 50.79688
134.1270, 12.70923
135.3560, 42.67554
136.5850, 3.691040
137.8140, 10.24878
139.0430, 38.85193
140.2710, 39.98987
141.5000, 35.16187
142.7280, 24.36914
143.9560, 31.60938
145.1840, 49.87988
146.4120, 50.17786
147.6390, 78.50122
148.8670, 47.84814
150.0940, 21.21692
151.3210, 60.60645
152.5490, 16.01599
153.7750, 0.4438480
155.0020, 21.88855
156.2290, 33.34924
157.4550, 14.82458
158.6810, 63.31348
159.9080, 58.81531
161.1340, 19.32935
162.3590, 30.85498
163.5850, 67.39148
164.8110, 44.93835
166.0360, 14.49487
167.2610, 33.06116
168.4860, 75.63635
169.7110, 45.27515
170.9360, 60.92175
172.1610, 2.573242
173.3850, 24.22974
174.6100, 28.89148
175.8340, 50.55811
177.0580, 39.22949
178.2820, 59.90576
179.5050, 39.58777
180.7290, 48.27417
181.9520, 27.96521
183.1760, 26.43347
184.3990, 35.35999
185.6220, 20.06384
186.8450, 26.77173
188.0670, 27.50842
189.2900, 47.24365
190.5120, 50.97839
191.7340, 39.71326
192.9560, 55.44849
194.1780, 46.18396
195.4000, 40.93079
196.6220, 38.67786
197.8430, 28.42542
199.0640, 35.17664
200.2860, 36.92249
201.5070, 51.66968
202.7270, 12.41821
203.9480, 51.17712
205.1690, 74.93762
206.3890, 13.69971
207.6090, 15.46350
208.8290, 35.22937
210.0490, 45.99707
211.2690, 39.76660
212.4890, 76.53833
213.7080, 45.31213
214.9280, 23.08777
216.1470, 30.86560
217.3660, 32.64563
218.5850, 34.42773
219.8030, 44.21411
221.0220, 37.00244
222.2400, 45.22900
223.4590, 40.91675
224.6770, 50.93408
225.8950, 35.70264
227.1120, 23.47400
228.3300, 44.25964
229.5480, 46.04773
230.7650, 15.83813
231.9820, 29.63330
233.1990, 47.43335
234.4160, 22.23572
235.6330, 38.04004
236.8490, 42.84656
238.0660, 34.65503
239.2820, 33.46741
240.4980, 14.28174
241.7140, 47.09827
242.9300, 60.94189
244.1460, 47.76147
245.3610, 61.58289
246.5770, 58.88879
247.7920, 19.23047
249.0070, 58.05701
250.2220, 50.88513
251.4370, 49.71509
252.6510, 14.54675
253.8660, 44.38025
255.0800, 6.215210
256.2940, 14.05188
257.5080, 19.89026
258.7220, 5.730103
259.9360, 33.12195
261.1490, 78.81934
262.3630, 31.54114
263.5760, 50.28564
264.7890, 21.03198
266.0020, 63.78650
267.2150, 75.54565
268.4270, 15.30859
269.6400, 37.07593
270.8520, 29.84790
272.0640, 28.62476
273.2760, 40.38428
274.4880, 39.84680
275.7000, 37.61902
276.9120, 50.39685
278.1230, 38.18018
279.3340, 43.81433
280.5450, 51.76160
281.7560, 39.71545
282.9670, 41.51746
284.1780, 27.87695
285.3880, 23.68689
286.5980, 18.93445
287.8090, 24.31775
289.0190, 22.13855
290.2290, 33.96252
291.4380, 67.37329
292.6480, 38.20361
293.8570, 61.03674
295.0670, 33.87268
296.2760, 20.71118
297.4850, 36.55249
298.6930, 19.39624
299.9020, 22.87939
301.1110, 10.09094
302.3190, 10.94165
303.5270, 18.79480
304.7350, 19.44788
305.9430, 26.54138
307.1510, 29.36670
308.3580, 36.22815
309.5660, 29.09167
310.7730, 24.95679
311.9800, 11.82410
313.1870, 40.69312
314.3940, 21.56592
315.6010, 37.44019
316.8070, 31.31592
318.0130, 41.19324
319.2200, 49.07178
320.4260, 41.95190
321.6310, 38.83337
322.8370, 83.86365
324.0430, 18.74805
325.2480, 41.63354
326.4540, 54.52051
327.6590, 10.40869
328.8640, 22.29822
330.0680, 31.80896
331.2730, 17.07751
332.4780, 5.028564
333.6820, 37.86560
334.8860, 42.76074
336.0900, 37.65698
337.2940, 24.55432
338.4980, 29.45288
339.7010, 16.41907
340.9050, 36.31970
342.1080, 48.22131
343.3110, 32.12427
344.5140, 35.02795
345.7170, 41.93274
346.9200, 54.83862
348.1220, 6.229126
349.3240, 27.13696
350.5270, 9.046021
351.7290, 19.95581
352.9310, 61.86670
354.1320, 47.77844
355.3340, 54.69104
356.5350, 29.60474
357.7370, 58.51953
358.9380, 49.43506
360.1390, 67.35156
361.3400, 42.43225
362.5400, 48.35046
363.7410, 6.269653
364.9410, 55.18958
366.1410, 14.11035
367.3410, 25.03210
368.5410, 39.94470
369.7410, 0.1430660
370.9400, 11.77002
372.1400, 6.684082
373.3390, 19.59900
374.5380, 39.51477
375.7370, 21.43127
376.9360, 5.348755
378.1350, 3.267822
379.3330, 28.18774
380.5310, 59.11279
381.7300, 6.038574
382.9280, 34.96533
384.1260, 34.89258
385.3230, 5.820679
386.5210, 20.74951
387.7180, 42.67896
388.9160, 32.60901
390.1130, 26.53992
391.3100, 37.47144
392.5060, 11.40369
393.7030, 24.33679
394.9000, 11.27039
396.0960, 36.20483
397.2920, 18.14001
398.4880, 43.07581
399.6840, 9.012329
400.8800, 54.94934
402.0750, 18.88708
403.2710, 26.17432
404.4660, 60.75146
405.6610, 43.67859
406.8560, 0.6069340
408.0510, 21.53638
409.2450, 46.46692
410.4400, 1.398560
411.6340, 48.33105
412.8280, 25.26477
414.0220, 26.19958
415.2160, 39.13513
416.4100, 54.07178
417.6030, 11.99048
418.7970, 12.94226
419.9900, 21.87695
421.1830, 47.81238
422.3760, 47.74902
423.5690, 21.68652
424.7610, 2.375244
425.9540, 16.56250
427.1460, 55.50098
428.3380, 9.445923
429.5300, 40.39160
430.7220, 3.338135
431.9140, 37.28540
433.1050, 86.23340
434.2970, 9.817627
435.4880, 41.12695
436.6790, 50.07214
437.8700, 33.01819
439.0610, 43.96484
440.2510, 46.91235
441.4420, 39.78564
442.6320, 41.80945
443.8220, 26.75903
445.0120, 27.70923
446.2020, 6.660278
447.3910, 59.61182
448.5810, 22.56604
449.7700, 37.52100
450.9600, 28.47742
452.1490, 25.43457
453.3370, 33.39307
454.5260, 5.352051
455.7150, 48.31152
456.9030, 2.703125
458.0910, 49.66406
459.2800, 27.62549
460.4670, 34.58740
461.6550, 74.54993
462.8430, 64.51331
464.0300, 6.477051
465.2180, 1.558594
466.4050, 25.40479
467.5920, 42.36865
468.7790, 45.33313
469.9650, 23.29834
471.1520, 42.26392
472.3380, 30.66638
473.5250, 27.49402
474.7110, 57.29004
475.8970, 25.06958
477.0820, 34.03784
478.2680, 33.00635
479.4540, 37.97546
480.6390, 13.94507
481.8240, 17.08496
483.0090, 13.87634
484.1940, 24.83813
485.3780, 41.80017
486.5630, 18.76282
487.7470, 44.72607
488.9320, 24.70007
490.1160, 7.335938
491.3000, 23.62683
492.4830, 43.59009
493.6670, 34.55481
494.8500, 55.51978
496.0340, 22.48547
497.2170, 46.45154
498.4000, 42.41797
499.5820, 20.38477
500.7650, 63.35193
501.9480, 28.31958
503.1300, 1.712402
504.3120, 47.25427
505.4940, 49.22144
506.6760, 48.18896
507.8580, 54.15686
509.0390, 16.12512
510.2210, 43.09375
511.4020, 31.06287
512.5830, 12.00964
513.7640, 68.97949
514.9450, 38.94971
516.1250, 30.92053
517.3060, 26.89160
518.4860, 29.31116
519.6660, 25.99719
520.8460, 45.96948
522.0260, 37.96436
523.2060, 25.93738
524.3850, 40.91077
525.5650, 88.88440
526.7440, 53.85840
527.9230, 59.83264
529.1020, 24.80713
530.2810, 35.78198
531.4590, 48.75720
532.6380, 13.73254
533.8160, 34.70837
534.9940, 48.68445
536.1720, 35.33777
537.3500, 30.63733
538.5270, 34.61426
539.7050, 44.59155
540.8820, 50.57617
542.0590, 9.553711
543.2360, 48.53162
544.4130, 44.50989
545.5900, 11.93811
546.7660, 48.91699
547.9430, 29.89612
549.1190, 19.87476
550.2950, 37.85449
551.4710, 16.83472
552.6470, 44.81506
553.8220, 38.79565
554.9980, 55.77673
556.1730, 51.75830
557.3480, 53.74011
558.5230, 6.722412
559.6980, 48.00854
560.8730, 26.20020
562.0470, 11.18323
563.2220, 43.16675
564.3960, 11.15051
565.5700, 75.13464
566.7440, 38.96277
567.9170, 55.94739
569.0910, 49.75549
570.2640, 29.74084
571.4380, 11.72620
572.6110, 78.71216
573.7840, 18.69812
574.9570, 42.68445
576.1290, 74.09326
577.3020, 9.085938
578.4740, 3.079102
579.6460, 2.072266
580.8180, 19.06580
581.9900, 23.05969
583.1620, 42.05359
584.3330, 22.04785
585.5040, 47.04236
586.6760, 35.03735
587.8470, 33.03259
589.0180, 39.47864
590.1880, 38.47424
591.3590, 40.65881
592.5290, 45.65662
593.7000, 73.78174
594.8700, 48.77991
596.0400, 11.77832
597.2090, 6.218994
598.3790, 35.78284
599.5490, 30.78467
600.7180, 27.78687
601.8870, 47.78894
603.0560, 30.79126
604.2250, 85.79382
605.3940, 50.79663
606.5620, 38.65222
607.7300, 54.65515
608.8990, 16.65820
610.0670, 37.66199
611.2350, 29.66602
612.4020, 6.329956
613.5700, 69.67041
614.7370, 22.32178
615.9050, 58.67407
617.0720, 41.67358
618.2390, 49.67334
619.4060, 11.67297
620.5720, 10.67297
621.7390, 63.67310
622.9050, 34.60681
624.0710, 70.60730
625.2370, 19.60767
626.4030, 10.60840
627.5690, 50.60925
628.7340, 0.6104740
629.9000, 52.61145
631.0650, 62.73230
632.2300, 5.733765
633.3950, 39.96057
634.5600, 27.96216
635.7240, 44.96387
636.8890, 33.96582
638.0530, 39.96777
639.2170, 28.97009
640.3810, 2.972412
641.5450, 35.97485
642.7080, 34.97742
643.8720, 14.81665
645.0350, 27.81946
646.1980, 54.82239
647.3610, 54.82556
648.5240, 45.82886
649.6870, 21.83228
650.8490, 41.83569
652.0120, 54.83972
653.1740, 45.84399
654.3360, 16.84839
655.4980, 10.87256
656.6600, 19.87732
657.8210, 6.882446
658.9830, 2.112549
660.1440, 61.89111
661.3050, 16.10522
662.4660, 10.88989
663.6270, 71.88525
664.7870, 33.88062
665.9480, 11.87610
667.1080, 22.87183
668.2680, 97.86755
669.4280, 57.86353
670.5880, 77.85950
671.7480, 37.85571
672.9070, 39.85217
674.0670, 2.848633
675.2260, 63.84521
676.3850, 37.84192
677.5440, 46.83862
678.7030, 34.83557
679.8610, 0.8326420
681.0200, 27.82959
682.1780, 31.82666
683.3360, 35.82410
684.4940, 10.82153
685.6520, 7.825684
686.8090, 10.82996
687.9670, 0.8343510
689.1240, 11.83887
690.2810, 31.84363
691.4380, 34.84839
692.5950, 47.13928
693.7520, 40.85840
694.9080, 57.90625
696.0650, 30.91162
697.2210, 21.91711
698.3770, 30.92273
699.5330, 3.068237
700.6880, 39.93909
701.8440, 49.95178
702.9990, 42.96472
704.1550, 47.97778
705.3100, 33.99084
706.4650, 22.00513
707.6190, 12.98059
708.7740, 80.02661
709.9290, 58.03418
711.0830, 47.04187
712.2370, 36.04968
713.3910, 12.05774
714.5450, 34.44604
715.6980, 47.45703
716.8520, 76.46777
718.0050, 62.47888
719.1580, 64.24109
720.3110, 39.50122
721.4640, 51.51245
722.6170, 40.52380
723.7700, 59.53601
724.9220, 57.57312
726.0740, 43.58545
727.2260, 6.402100
728.3780, 63.61853
729.5300, 2.002930
730.6810, 52.00391
731.8330, 0.9893800
732.9840, 19.01636
734.1350, 39.02197
735.2860, 25.97021
736.4370, 63.17285
737.5880, 48.17847
738.7380, 7.184082
739.8880, 27.18982
741.0390, 20.19543
742.1890, 6.201050
743.3380, 13.20691
744.4880, 46.21240
745.6380, 50.21887
746.7870, 24.22510
747.9360, 62.28931
749.0850, 37.30688
750.2340, 44.31311
751.3830, 8.883057
752.5310, 51.88977
753.6800, 49.46021
754.8280, 53.08215
755.9760, 51.08887
757.1240, 44.76257
758.2720, 26.10242
759.4190, 24.10925
760.5670, 42.11609
761.7140, 24.12769
762.8610, 33.13916
764.0080, 35.15063
765.1550, 34.16211
766.3020, 33.17358
767.4480, 7.174683
768.5950, 8.813965
769.7410, 3.508667
770.8870, 2.796753
772.0330, 21.20972
773.1780, 33.21606
774.3240, 26.22241
775.4690, 12.22876
776.6140, 27.23511
777.7590, 51.24158
778.9040, 31.24792
780.0490, 107.2543
781.1940, 25.26050
782.3380, 79.26782
783.4820, 30.27490
784.6260, 10.28198
785.7700, 55.28906
786.9140, 71.29858
788.0580, 43.30823
789.2010, 46.36365
790.3450, 12.37988
791.4880, 40.39612
792.6310, 1.412354
793.7730, 37.42834
794.9160, 60.44434
796.0590, 41.46033
797.2010, 43.31421
798.3430, 45.33020
799.4850, 9.323853
800.6270, 33.33984
801.7690, 13.35571
802.9100, 33.37183
804.0520, 23.38782
805.1930, 34.40393
806.3340, 21.42004
807.4750, 57.43616
808.6160, 24.45227
809.7560, 60.46851
810.8970, 76.48474
812.0370, 22.50110
813.1770, 54.51733
814.3170, 54.53357
815.4570, 47.54993
816.5960, 40.56616
817.7360, 44.57532
818.8750, 79.59167
820.0140, 78.60803
821.1530, 80.62439
822.2920, 85.14368
823.4310, 28.65686
824.5690, 76.67505
825.7070, 24.69031
826.8460, 22.71265
827.9840, 32.73511
829.1220, 49.75745
830.2590, 68.77966
831.3970, 0.1977540
832.5340, 55.83325
833.6710, 31.86426
834.8080, 51.89539
835.9450, 61.92639
837.0820, 16.83557
838.2190, 59.04041
839.3550, 50.07117
840.4910, 30.10181
841.6270, 48.13770
842.7630, 63.17371
843.8990, 28.20935
845.0350, 54.42603
846.1700, 43.46558
847.3060, 11.50513
848.4410, 43.54431
849.5760, 30.58362
850.7100, 21.37732
851.8450, 28.64978
852.9800, 5.676636
854.1140, 9.146484
855.2480, 34.73022
856.3820, 34.75671
857.5160, 14.78308
858.6500, 60.80920
859.7830, 57.99792
860.9170, 1.023926
862.0500, 18.04919
863.1830, 43.07434
864.3160, 1.648438
865.4480, 5.326904
866.5810, 9.507324
867.7130, 65.52820
868.8460, 25.42175
869.9780, 54.44238
871.1100, 14.53735
872.2410, 9.517700
873.3730, 41.49805
874.5050, 15.51379
875.6360, 46.52930
876.7670, 14.54468
877.8980, 45.55994
879.0290, 57.57483
880.1590, 43.58960
881.2900, 63.60425
882.4200, 22.61865
883.5500, 0.3670650
884.6800, 1.646240
885.8100, 67.65918
886.9400, 35.67200
888.0690, 43.72839
889.1990, 25.74268
890.3280, 9.194580
891.4570, 41.81995
892.5860, 41.83423
893.7140, 38.84839
894.8430, 12.86230
895.9710, 67.90051
897.1000, 34.91394
898.2280, 49.92712
899.3560, 28.94019
900.4830, 37.95264
901.6110, 83.96509
902.7380, 32.97729
903.8660, 47.98914
904.9930, 14.45129
906.1200, 52.46277
907.2460, 30.25476
908.3730, 67.27173
909.5000, 68.28845
910.6260, 17.30505
911.7520, 36.32141
912.8780, 63.33728
914.0040, 97.35315
915.1290, 56.36877
916.2550, 43.38403
917.3800, 10.39905
918.5050, 59.41382
919.6300, 50.42822
920.7550, 25.44250
921.8800, 8.002930
923.0040, 5.016479
924.1290, 2.9785000E-02
925.2530, 40.63391
926.3770, 34.65088
927.5010, 45.08545
928.6250, 31.66431
929.7480, 54.68018
930.8720, 27.69556
931.9950, 29.71045
933.1180, 33.72583
934.2410, 59.74072
935.3640, 53.75952
936.4860, 46.77991
937.6090, 49.80005
938.7310, 43.81970
939.8530, 66.83911
940.9750, 30.85791
942.0970, 79.87634
943.2180, 32.89429
944.3400, 36.91187
945.4610, 72.92957
946.5820, 8.946899
947.7030, 81.96375
948.8240, 67.98010
949.9450, 15.99609
951.0650, 12.01147
952.1860, 16.02649
953.3060, 58.04102
954.4260, 12.05505
955.5460, 49.06885
956.6650, 13.08203
957.7850, 17.09460
958.9040, 43.51733
960.0230, 65.50769
961.1420, 11.51880
962.2610, 41.52954
963.3800, 117.5396
964.4990, 26.54919
965.6170, 27.60669
966.7350, 83.70325
967.8530, 62.71106
968.9710, 22.74377
970.0890, 30.75024
971.2070, 2.757568
972.3240, 15.23572
973.4410, 30.76001
974.5580, 70.75525
975.6750, 26.01440
976.7920, 23.00806
977.9090, 59.00110
979.0250, 52.95862
980.1410, 68.95361
981.2580, 74.94763
982.3740, 57.94092
983.4890, 45.93359
984.6050, 28.92517
985.7200, 68.53577
986.8360, 77.52600
987.9510, 73.51538
989.0660, 23.50391
990.1810, 102.4918
991.2950, 97.47888
992.4100, 67.46533
993.5240, 1.450928
994.6390, 55.43420
995.7530, 37.39209
996.8660, 102.3739
997.9800, 61.35498
999.0940, 74.83521
1000.207, 90.26587
1001.320, 61.91870
1002.433, 86.89978
1003.546, 75.88086
1004.659, 31.86450
1005.772, 43.66919
1006.884, 58.02319
1007.996, 35.00452
1009.108, 106.9851
1010.220, 96.96509
1011.332, 89.94434
1012.444, 16.92297
1013.555, 37.90076
1014.666, 33.87805
1015.777, 37.85474
1016.888, 29.83105
1017.999, 32.74866
1019.110, 29.71216
1020.220, 29.68628
1021.331, 4.659668
1022.441, 18.63171
1023.551, 4.603271
1024.661, 60.95850
1025.770, 30.92810
1026.880, 94.89697
1027.989, 64.86536
1029.098, 4.833130
1030.207, 58.79968
1031.316, 31.76562
1032.425, 66.73096
1033.533, 30.69568
1034.642, 90.65979
1035.750, 12.62329
1036.858, 60.58606
1037.966, 3.548340
1039.073, 60.51184
1040.181, 17.88379
1041.288, 47.84729
1042.396, 94.80994
1043.503, 74.77197
1044.610, 57.73340
1045.716, 65.69409
1046.823, 53.77100
1047.929, 71.61353
1049.036, 62.57227
1050.142, 53.53040
1051.248, 80.48792
1052.353, 57.44470
1053.459, 29.40100
1054.564, 4.643433
1055.670, 43.30652
1056.775, 14.25598
1057.880, 20.66223
1058.985, 53.27222
1060.089, 37.20593
1061.194, 89.13928
1062.298, 44.07190
1063.402, 65.00378
1064.506, 81.93518
1065.610, 54.86584
1066.713, 82.79614
1067.817, 60.72559
1068.920, 70.07544
1070.023, 17.00354
1071.126, 93.95288
1072.229, 30.87976
1073.332, 77.80615
1074.435, 79.73193
1075.537, 84.65723
1076.639, 85.26685
1077.741, 84.94885
1078.843, 58.54541
1079.945, 71.46802
1081.046, 60.39050
1082.148, 31.31238
1083.249, 44.23352
1084.350, 53.15417
1085.451, 35.84033
1086.551, 36.99402
1087.652, 19.91309
1088.752, 35.83179
1089.853, 32.75000
1090.953, 2.332397
1092.053, 11.41895
1093.152, 70.48547
1094.252, 30.38928
1095.351, 44.29272
1096.451, 94.19592
1097.550, 4.098633
1098.649, 29.99988
1099.748, 68.88342
1100.846, 4.767456
1101.945, 42.64966
1103.043, 55.86609
1104.141, 48.66357
1105.239, 54.37073
1106.337, 18.25146
1107.434, 16.86780
1108.532, 43.00159
1109.629, 57.87073
1110.726, 12.26038
1111.823, 52.59985
1112.920, 59.45996
1114.017, 64.31982
1115.113, 40.17944
1116.210, 89.03894
1117.306, 99.89832
1118.402, 70.76355
1119.498, 19.62866
1120.593, 68.49353
1121.689, 111.3585
1122.784, 85.22327
1123.879, 15.08801
1124.974, 110.9526
1126.069, 51.65442
1127.164, 44.51904
1128.259, 43.38379
1129.353, 15.24841
1130.447, 18.11316
1131.541, 19.97815
1132.635, 58.84473
1133.729, 12.71143
1134.822, 65.57812
1135.916, 94.15015
1137.009, 25.98279
1138.102, 75.87317
1139.195, 41.73206
1140.288, 107.5909
1141.380, 5.449951
1142.473, 50.30920
1143.565, 41.16858
1144.657, 50.02808
1145.749, 24.88782
1146.841, 50.81335
1147.932, 91.67346
1149.024, 24.53394
1150.115, 59.39490
1151.206, 27.25610
1152.297, 77.11768
1153.388, 9.937500
1154.479, 47.79968
1155.569, 21.61975
1156.659, 25.48523
1157.750, 32.35144
1158.839, 41.21777
1159.929, 22.08447
1161.019, 7.927002
1162.108, 18.79468
1163.198, 23.66260
1164.287, 49.53101
1165.376, 54.39990
1166.465, 47.26917
1167.553, 17.13916
1168.642, 12.00940
1169.730, 3.830322
1170.818, 22.29480
1171.906, 24.56848
1172.994, 41.43213
1174.082, 76.29639
1175.170, 16.16138
1176.257, 37.02686
1177.344, 25.89294
1178.431, 42.75952
1179.518, 9.626831
1180.605, 68.49475
1181.691, 51.36328
1182.778, 23.23267
1183.864, 12.10242
1184.950, 43.97314
1186.036, 63.29785
1187.122, 50.17004
1188.207, 19.95715
1189.292, 25.31995
1190.378, 24.18457
1191.463, 39.04993
1192.548, 86.91638
1193.632, 11.78357
1194.717, 94.65173
1195.801, 49.52100
1196.886, 43.39111
1197.970, 17.26221
1199.054, 8.865723
1200.137, 42.00342
1201.221, 0.1208500
1202.305, 48.75562
1203.388, 9.634399
1204.471, 8.514038
1205.554, 53.39502
1206.637, 24.27698
1207.719, 2.839844
1208.802, 15.04309
1209.884, 74.92737
1210.966, 36.81262
1212.048, 68.69922
1213.130, 48.58691
1214.212, 2.475708
1215.293, 70.36584
1216.374, 48.25708
1217.456, 70.14966
1218.536, 40.04370
1219.617, 73.94275
1220.698, 1.843140
1221.778, 11.33521
1222.859, 8.260620
1223.939, 17.16589
1225.019, 35.07275
1226.099, 27.98096
1227.178, 37.89099
1228.258, 29.75366
1229.337, 39.53577
1230.417, 0.4501950
1231.496, 47.34094
1232.574, 9.741089
1233.653, 0.1754150
1234.732, 46.09399
1235.810, 93.01978
1236.888, 20.95215
1237.966, 40.62158
1239.044, 36.55737
1240.122, 5.495117
1241.199, 50.46948
1242.277, 3.411377
1243.354, 77.35522
1244.431, 11.30103
1245.508, 36.24878
1246.585, 16.19849
1247.661, 5.150391
1248.738, 20.10425
1249.814, 91.06006
1250.890, 44.01782
1251.966, 45.97754
1253.042, 45.93945
1254.117, 15.90356
1255.193, 38.86963
1256.268, 30.84033
1257.343, 7.813721
1258.418, 58.79272
1259.493, 54.77417
1260.567, 65.75806
1261.642, 24.74390
1262.716, 67.73242
1263.790, 56.72266
1264.864, 19.28491
1265.938, 73.70337
1267.011, 37.92944
1268.085, 79.92236
1269.158, 60.91748
1270.231, 59.91553
1271.304, 12.91553
1272.377, 50.91821
1273.450, 63.92285
1274.522, 81.92993
1275.594, 4.061035
1276.666, 97.95020
1277.738, 44.96338
1278.810, 51.97900
1279.882, 90.99707
1280.953, 31.01733
1282.025, 101.0398
1283.096, 75.08228
1284.167, 96.10986
1285.238, 79.14819
1286.308, 34.18384
1287.379, 35.22168
1288.449, 84.26172
1289.519, 129.3042
1290.589, 76.34888
1291.659, 78.39624
1292.729, 71.44556
1293.798, 79.49731
1294.868, 108.5513
1295.937, 75.60718
1297.006, 87.66602
1298.075, 64.53271
1299.143, 163.5967
1300.212, 106.2537
1301.280, 182.3225
1302.348, 166.3931
1303.416, 212.4668
1304.484, 163.5422
1305.552, 184.6201
1306.620, 165.7002
1307.687, 250.7825
1308.754, 311.8672
1309.821, 256.9539
1310.888, 320.0449
1311.955, 336.1384
1313.021, 362.2341
1314.088, 460.3320
1315.154, 495.4346
1316.220, 594.5393
1317.286, 702.4675
1318.352, 774.5835
1319.417, 909.7012
1320.483, 1171.821
1321.548, 1425.941
1322.613, 1840.064
1323.678, 2679.190
1324.743, 3835.319
1325.807, 6662.449
1326.872, 12062.58
1327.936, 21421.30
1329.000, 32430.71
1330.064, 44191.82
1331.128, 55214.26
1332.191, 59412.39
1333.255, 54505.55
1334.318, 41592.71
1335.381, 25746.86
1336.444, 13408.90
1337.507, 7078.064
1338.569, 4163.227
1339.632, 2757.394
1340.694, 1892.563
1341.756, 1323.736
1342.818, 1062.911
1343.880, 824.0896
1344.941, 702.2708
1346.003, 569.4548
1347.064, 482.5337
1348.125, 431.7234
1349.186, 363.0925
1350.247, 368.2900
1351.308, 359.4949
1352.368, 306.7026
1353.428, 294.9136
1354.489, 205.1506
1355.549, 227.3669
1356.608, 191.5869
1357.668, 183.8188
1358.727, 172.1001
1359.787, 153.9902
1360.846, 157.2449
1361.905, 135.4858
1362.964, 108.7922
1364.022, 110.1775
1365.081, 82.43091
1366.139, 131.6926
1367.197, 122.9570
1368.255, 106.2249
1369.313, 79.53223
1370.371, 54.83447
1371.428, 79.11548
1372.486, 66.39990
1373.543, 71.68140
1374.600, 98.96582
1375.657, 137.2534
1376.713, 65.54395
1377.770, 109.8376
1378.826, 66.13452
1379.882, 74.43433
1380.938, 101.7375
1381.994, 94.10254
1383.050, 10.76221
1384.106, 103.1506
1385.161, 23.36499
1386.216, 91.73438
1387.271, 55.05713
1388.326, 63.38306
1389.381, 34.77173
1390.435, 27.08936
1391.490, 64.41016
1392.544, 65.02905
1393.598, 60.35645
1394.652, 92.69458
1395.705, 80.03589
1396.759, 79.51758
1397.812, 97.85547
1398.866, 17.19409
1399.919, 39.53613
1400.972, 17.88086
1402.024, 3.228271
1403.077, 14.54614
1404.129, 68.89893
1405.181, 58.25488
1406.233, 40.59790
1407.285, 88.94385
1408.337, 47.29199
1409.389, 1.358154
1410.440, 27.99414
1411.491, 0.6479490
1412.542, 103.4385
1413.593, 4.797852
1414.644, 60.16016
1415.695, 56.51733
1416.745, 29.85938
1417.795, 9.202148
1418.845, 38.54443
1419.895, 4.888672
1420.945, 47.23413
1421.995, 47.58057
1423.044, 20.01929
1424.093, 18.63452
1425.142, 28.77051
1426.191, 23.15283
1427.240, 68.50342
1428.289, 41.85498
1429.337, 42.20776
1430.385, 1.538330
1431.433, 49.92310
1432.481, 63.25293
1433.529, 24.58252
1434.577, 55.91260
1435.624, 88.23804
1436.672, 84.04272
1437.719, 86.94824
1438.766, 85.74170
1439.812, 50.08350
1440.859, 56.39575
1441.905, 21.70728
1442.952, 26.89502
1443.998, 74.31543
1445.044, 43.52002
1446.090, 49.89917
1447.135, 77.73950
1448.181, 60.17261
1449.226, 8.611084
1450.271, 22.05444
1451.316, 52.50122
1452.361, 92.94653
1453.405, 50.39551
1454.450, 23.15088
1455.494, 14.30957
1456.538, 6.947266
1457.582, 24.24487
1458.626, 19.72021
1459.670, 36.20093
1460.713, 37.67798
1461.757, 20.15796
1462.800, 12.64282
1463.843, 84.13281
1464.886, 30.62695
1465.928, 66.12622
1466.971, 91.63159
1468.013, 29.14331
1469.055, 32.64795
1470.097, 34.15698
1471.139, 39.67017
1472.181, 14.81274
1473.222, 34.70874
1474.263, 2.765137
1475.305, 16.76514
1476.346, 70.29956
1477.386, 83.83862
1478.427, 40.37695
1479.468, 10.90796
1480.508, 70.44336
1481.548, 45.98169
1482.588, 117.5288
1483.628, 7.084717
1484.668, 51.64404
1485.707, 37.20703
1486.747, 93.77441
1487.786, 6.346680
1488.825, 16.07642
1489.864, 53.50537
1490.902, 25.06567
1491.941, 30.64404
1492.979, 36.23071
1494.017, 15.82202
1495.055, 18.41943
1496.093, 38.02222
1497.131, 27.63086
1498.168, 40.87915
1499.206, 61.47852
1500.243, 40.08374
1501.280, 61.08618
1502.317, 56.25439
1503.354, 67.93701
1504.390, 48.56567
1505.426, 32.19775
1506.463, 15.05640
1507.499, 0.8793950
1508.535, 12.14453
1509.570, 9.182861
1510.606, 19.50122
1511.641, 66.19189
1512.676, 37.88965
1513.711, 13.86279
1514.746, 59.89966
1515.781, 74.55469
1516.816, 56.21460
1517.850, 64.87915
1518.884, 38.54834
1519.918, 80.22192
1520.952, 7.900146
1521.986, 52.33911
1523.019, 111.5249
1524.053, 35.15601
1525.086, 55.78882
1526.119, 58.35913
1527.152, 27.99341
1528.185, 56.49194
1529.217, 92.12427
1530.250, 68.14429
1531.282, 65.68213
1532.314, 55.21460
1533.346, 69.55615
1534.377, 81.06836
1535.409, 36.61279
1536.440, 5.850830
1537.472, 78.67603
1538.503, 97.19189
1539.534, 66.09326
1540.564, 116.5798
1541.595, 55.64160
1542.625, 49.61060
1543.656, 40.92114
1544.686, 59.19800
1545.716, 48.67993
1546.745, 15.98169
1547.775, 48.22607
1548.804, 24.42822
1549.834, 30.39087
1550.863, 87.57886
1551.892, 48.81763
1552.920, 51.02466
1553.949, 40.87549
1554.977, 24.62964
1556.006, 80.52832
1557.034, 82.53027
1558.062, 110.4832
1559.089, 72.42188
1560.117, 2.506836
1561.144, 24.62280
1562.172, 44.01147
1563.199, 34.04053
1564.226, 71.77441
1565.252, 68.46338
1566.279, 10.85522
1567.305, 60.90991
1568.332, 81.55444
1569.358, 8.5937999E-02
1570.384, 0.0000000E+00
##END=



