##NAMES=Diamond
##RRUFFID=R050207
##IDEAL CHEMISTRY=C
##LOCALITY=Unknown
##OWNER=RRUFF
##SOURCE=Eric Van Valkenburg
##DESCRIPTION=Single crystal,  type I
##STATUS=The identification of this mineral has been confirmed by single-crystal X-ray diffraction.
##URL=rruff.info/R050207
##PIN_ID=L01129
##ORIENTATION=Laser parallel to a* (1 0 0). Fiducial mark perpendicular to laser is parallel to c [0 0 1]
114.4400, 0.0000000E+00
115.6710, 18.81024
116.9030, 0.4505620
118.1340, 21.13812
119.3650, 46.35461
120.5960, 63.04388
121.8270, 51.10059
123.0580, 27.45123
124.2880, 31.04425
125.5190, 39.83960
126.7490, 41.80579
127.9790, 25.91882
129.2090, 23.15857
130.4390, 48.51007
131.6680, 21.96509
132.8980, 59.51239
134.1270, 55.14032
135.3560, 6.839600
136.5850, 32.60217
137.8140, 47.42188
139.0430, 27.29419
140.2710, 56.21912
141.5000, 37.18652
142.7280, 51.19312
143.9560, 46.23560
145.1840, 52.31165
146.4120, 44.73682
147.6390, 28.63892
148.8670, 25.86072
150.0940, 36.10303
151.3210, 31.36523
152.5490, 10.64575
153.7750, 42.94287
155.0020, 51.25720
156.2290, 14.58777
157.4550, 13.93152
158.6810, 39.28784
159.9080, 33.66101
161.1340, 34.05823
162.3590, 44.46582
163.5850, 16.88379
164.8110, 45.40552
166.0360, 29.84070
167.2610, 28.28882
168.4860, 60.74927
169.7110, 51.21875
170.9360, 51.69678
172.1610, 56.18359
173.3850, 57.68079
174.6100, 4.187500
175.8340, 37.70227
177.0580, 45.14233
178.2820, 4.654175
179.5050, 29.17407
180.7290, 86.54382
181.9520, 75.06885
183.1760, 38.61401
184.3990, 12.16833
185.6220, 53.73328
186.8450, 16.30969
188.0670, 56.89099
189.2900, 56.46936
190.5120, 42.04541
191.7340, 69.62134
192.9560, 26.19836
194.1780, 12.77734
195.4000, 70.47583
196.6220, 41.06238
197.8430, 46.65198
199.0640, 67.24463
200.2860, 12.84070
201.5070, 89.44031
202.7270, 85.04346
203.9480, 22.65063
205.1690, 28.58032
206.3890, 61.48230
207.6090, 30.10474
208.8290, 51.73120
210.0490, 40.36133
211.2690, 44.99548
212.4890, 66.64099
213.7080, 2.717285
214.9280, 20.92834
216.1470, 67.57788
217.3660, 22.23486
218.5850, 27.90125
219.8030, 30.82458
221.0220, 68.49707
222.2400, 35.17285
223.4590, 47.85168
224.6770, 53.53394
225.8950, 45.22437
227.1120, 36.91895
228.3300, 30.61841
229.5480, 16.32104
230.7650, 11.02661
231.9820, 10.14563
233.1990, 40.59949
234.4160, 16.31226
235.6330, 18.02795
236.8490, 28.74646
238.0660, 13.53271
239.2820, 17.19153
240.4980, 21.91882
241.7140, 61.64880
242.9300, 21.38184
244.1460, 8.124390
245.3610, 13.12390
246.5770, 12.63037
247.7920, 26.38733
249.0070, 35.60510
250.2220, 52.78296
251.4370, 52.12939
252.6510, 60.02271
253.8660, 45.29431
255.0800, 58.12476
256.2940, 42.88123
257.5080, 22.92822
258.7220, 29.68738
259.9360, 70.44910
261.1490, 18.13562
262.3630, 57.66211
263.5760, 35.04529
264.7890, 50.62256
266.0020, 56.86853
267.2150, 36.82764
268.4270, 51.45154
269.6400, 43.08740
270.8520, 13.73425
272.0640, 37.39124
273.2760, 46.05737
274.4880, 77.01001
275.7000, 3.307495
276.9120, 37.38208
278.1230, 16.07861
279.3340, 15.78149
280.5450, 25.49048
281.7560, 12.20520
282.9670, 46.92542
284.1780, 49.65088
285.3880, 39.38135
286.5980, 30.11646
287.8090, 16.85608
289.0190, 15.04517
290.2290, 37.34839
291.4380, 14.10071
292.6480, 7.860596
293.8570, 13.62402
295.0670, 6.769897
296.2760, 13.99939
297.4850, 6.228149
298.6930, 38.54639
299.9020, 37.32410
301.1110, 39.10486
302.3190, 61.88831
303.5270, 44.67456
304.7350, 30.46362
305.9430, 44.25525
307.1510, 51.04956
308.3580, 0.1539310
309.5660, 41.64539
310.7730, 58.44641
311.9800, 18.25000
313.1870, 22.05579
314.3940, 46.86389
315.6010, 16.67432
316.8070, 31.48669
318.0130, 53.30151
319.2200, 59.71326
320.4260, 23.53210
321.6310, 36.67688
322.8370, 5.504272
324.0430, 53.31567
325.2480, 2.137573
326.4540, 29.95789
327.6590, 52.78003
328.8640, 38.60413
330.0680, 55.48694
331.2730, 16.25757
332.4780, 53.08704
333.6820, 35.91821
334.8860, 25.17395
336.0900, 43.00854
337.2940, 23.84546
338.4980, 64.84216
339.7010, 48.74304
340.9050, 64.58459
342.1080, 69.42786
343.3110, 57.27283
344.5140, 47.11926
345.7170, 38.96753
346.9200, 59.81750
348.1220, 3.331177
349.3240, 66.52136
350.5270, 12.37390
351.7290, 61.22681
352.9310, 30.08105
354.1320, 45.93701
355.3340, 41.79443
356.5350, 6.653320
357.7370, 19.51367
358.9380, 40.34290
360.1390, 31.20618
361.3400, 69.07068
362.5400, 9.000488
363.7410, 14.86792
364.9410, 38.73547
366.1410, 26.61072
367.3410, 28.48730
368.5410, 17.36804
369.7410, 39.25000
370.9400, 33.13318
372.1400, 35.39990
373.3390, 11.28552
374.5380, 24.17224
375.7370, 31.06006
376.9360, 13.94836
378.1350, 37.83777
379.3330, 69.72815
380.5310, 28.61963
381.7300, 8.487549
382.9280, 7.008545
384.1260, 8.098511
385.3230, 14.79370
386.5210, 41.68848
387.7180, 56.58423
388.9160, 61.48108
390.1130, 5.005249
391.3100, 72.90100
392.5060, 1.200562
393.7030, 42.69641
394.9000, 43.59241
396.0960, 36.48938
397.2920, 46.62122
398.4880, 5.715088
399.6840, 30.18188
400.8800, 20.12854
402.0750, 2.026001
403.2710, 79.92444
404.4660, 27.82361
405.6610, 42.72522
406.8560, 40.62878
408.0510, 60.53540
409.2450, 53.44373
410.4400, 43.35376
411.6340, 4.265625
412.8280, 38.17883
414.0220, 29.09375
415.2160, 48.01001
416.4100, 46.92749
417.6030, 5.153442
418.7970, 14.76440
419.9900, 5.620728
421.1830, 14.54102
422.3760, 39.46265
423.5690, 20.38525
424.7610, 17.31274
425.9540, 16.24109
427.1460, 40.17981
428.3380, 50.11963
429.5300, 27.06042
430.7220, 51.00256
431.9140, 24.94543
433.1050, 24.89087
434.2970, 42.83716
435.4880, 29.68750
436.6790, 72.63574
437.8700, 14.41504
439.0610, 20.33264
440.2510, 87.27625
441.4420, 9.043945
442.6320, 28.98926
443.8220, 6.935303
445.0120, 27.88220
446.2020, 68.83032
447.3910, 33.77905
448.5810, 29.72852
449.7700, 39.67896
450.9600, 26.63013
452.1490, 27.57703
453.3370, 28.52954
454.5260, 8.484497
455.7150, 13.44031
456.9030, 92.39661
458.0910, 27.35376
459.2800, 60.31165
460.4670, 21.27026
461.6550, 9.770630
462.8430, 14.18408
464.0300, 4.860596
465.2180, 45.09241
466.4050, 74.86401
467.5920, 35.81836
468.7790, 10.77344
469.9650, 36.72900
471.1520, 35.68530
472.3380, 45.64221
473.5250, 31.59973
474.7110, 58.55798
475.8970, 47.51672
477.0820, 6.524048
478.2680, 16.43201
479.4540, 52.51013
480.6390, 1.532471
481.8240, 0.4238280
483.0090, 60.38013
484.1940, 19.33679
485.3780, 37.29407
486.5630, 57.25183
487.7470, 31.21033
488.9320, 22.16943
490.1160, 43.12891
491.3000, 31.96411
492.4830, 37.81152
493.6670, 71.88550
494.8500, 36.84717
496.0340, 32.80933
497.2170, 20.77185
498.4000, 59.73486
499.5820, 49.69824
500.7650, 35.66199
501.9480, 15.62646
503.1300, 69.59204
504.3120, 0.5577390
505.4940, 45.52319
506.6760, 56.48914
507.8580, 33.95349
509.0390, 37.92017
510.2210, 39.51306
511.4020, 5.480225
512.5830, 33.44763
513.7640, 20.58472
514.9450, 21.37134
516.1250, 8.327637
517.3060, 59.28394
518.4860, 41.24060
519.6660, 43.19739
520.8460, 15.15442
522.0260, 43.11169
523.2060, 12.06921
524.3850, 20.60266
525.5650, 9.563721
526.7440, 31.12964
527.9230, 57.42798
529.1020, 22.38977
530.2810, 41.35156
531.4590, 5.313721
532.6380, 3.038696
533.8160, 20.00269
534.9940, 44.89343
536.1720, 46.85779
537.3500, 28.82227
538.5270, 57.78687
539.7050, 81.75171
540.8820, 39.43347
542.0590, 1.398560
543.2360, 22.36316
544.4130, 63.32788
545.5900, 75.29297
546.7660, 87.14551
547.9430, 95.95361
549.1190, 84.42786
550.2950, 79.39343
551.4710, 54.35889
552.6470, 14.32458
553.8220, 17.29041
554.9980, 28.25610
556.1730, 66.22192
557.3480, 40.18787
558.5230, 25.15381
559.6980, 52.84180
560.8730, 25.80774
562.0470, 37.77417
563.2220, 33.74060
564.3960, 56.70703
565.5700, 17.45129
566.7440, 74.41772
567.9170, 32.55115
569.0910, 41.51746
570.2640, 59.48560
571.4380, 47.45142
572.6110, 38.41711
573.7840, 69.69214
574.9570, 24.65930
576.1290, 11.37390
577.3020, 38.59021
578.4740, 59.55420
579.6460, 41.67871
580.8180, 41.64294
581.9900, 86.60706
583.1620, 13.57178
584.3330, 31.53638
585.5040, 13.50073
586.6760, 56.50317
587.8470, 49.47205
589.0180, 20.44080
590.1880, 72.40894
591.3590, 46.37708
592.5290, 30.34497
593.7000, 73.31262
594.8700, 76.62109
596.0400, 30.58826
597.2090, 68.56030
598.3790, 36.53210
599.5490, 42.50366
600.7180, 24.47498
601.8870, 70.44592
603.0560, 22.82153
604.2250, 29.79199
605.3940, 38.43799
606.5620, 23.40784
607.7300, 30.37805
608.8990, 69.34814
610.0670, 60.31787
611.2350, 62.28735
612.4020, 35.25647
613.5700, 70.22534
614.7370, 61.19397
615.9050, 9.162231
617.0720, 67.13013
618.2390, 62.67493
619.4060, 0.6422120
620.5720, 70.60803
621.7390, 36.41565
622.9050, 55.32031
624.0710, 11.28516
625.2370, 28.24963
626.4030, 60.21399
627.5690, 32.22827
628.7340, 49.19189
629.9000, 19.15527
631.0650, 16.11816
632.2300, 21.08142
633.3950, 30.04443
634.5600, 37.04785
635.7240, 32.01025
636.8890, 47.97253
638.0530, 31.93445
639.2170, 16.89612
640.3810, 19.85742
641.5450, 19.71838
642.7080, 38.88452
643.8720, 26.84485
645.0350, 33.74133
646.1980, 14.70105
647.3610, 21.33960
648.5240, 74.60681
649.6870, 7.447144
650.8490, 56.49304
652.0120, 66.43286
653.1740, 59.37219
654.3360, 7.929077
655.4980, 31.86804
656.6600, 60.80664
657.8210, 18.74487
658.9830, 51.68335
660.1440, 17.62146
661.3050, 37.55933
662.4660, 66.49683
663.6270, 25.43433
664.7870, 68.71680
665.9480, 9.655640
667.1080, 3.404175
668.2680, 34.53271
669.4280, 26.48169
670.5880, 39.41809
671.7480, 41.35413
672.9070, 38.28223
674.0670, 13.21887
675.2260, 55.15564
676.3850, 55.09192
677.5440, 37.02808
678.7030, 58.96399
679.8610, 68.89954
681.0200, 47.83606
682.1780, 65.72339
683.3360, 39.66174
684.4940, 9.599609
685.6520, 0.4628910
686.8090, 3.473022
687.9670, 0.9273680
689.1240, 74.34253
690.2810, 20.27637
691.4380, 39.20996
692.5950, 47.14319
693.7520, 16.07617
694.9080, 85.00891
696.0650, 57.94116
697.2210, 80.87329
698.3770, 53.80505
699.5330, 48.73767
700.6880, 39.66992
701.8440, 33.60193
702.9990, 19.53503
704.1550, 10.53235
705.3100, 39.39319
706.4650, 32.68152
707.6190, 31.22485
708.7740, 5.130981
709.9290, 39.03674
711.0830, 38.94226
712.2370, 3.152466
713.3910, 33.14062
714.5450, 65.04236
715.6980, 120.2604
716.8520, 79.16125
718.0050, 54.06360
719.1580, 36.96899
720.3110, 54.87415
721.4640, 8.778931
722.6170, 19.68335
723.7700, 23.58728
724.9220, 3.563477
726.0740, 23.94141
727.2260, 34.40491
728.3780, 37.30701
729.5300, 60.20862
730.6810, 50.10986
731.8330, 86.01050
732.9840, 3.089233
734.1350, 59.80750
735.2860, 68.91907
736.4370, 26.81494
737.5880, 69.71021
738.7380, 62.60510
739.8880, 47.49951
741.0390, 42.39355
742.1890, 17.28955
743.3380, 64.18530
744.4880, 82.08191
745.6380, 65.97827
746.7870, 11.87402
747.9360, 19.76953
749.0850, 39.66443
750.2340, 45.55896
751.3830, 20.45300
752.5310, 65.34680
753.6800, 75.23999
754.8280, 35.13281
755.9760, 81.02502
757.1240, 33.91882
758.2720, 87.69092
759.4190, 14.58386
760.5670, 40.47705
761.7140, 37.37012
762.8610, 81.26306
764.0080, 62.15540
765.1550, 3.047241
766.3020, 57.93823
767.4480, 23.82874
768.5950, 33.71887
769.7410, 44.62146
770.8870, 36.52722
772.0330, 3.432617
773.1780, 24.33728
774.3240, 78.24133
775.4690, 20.14502
776.6140, 70.04822
777.7590, 56.95117
778.9040, 40.85352
780.0490, 0.7556150
781.1940, 74.65601
782.3380, 46.55603
783.4820, 55.45618
784.6260, 58.35559
785.7700, 54.75696
786.9140, 36.65564
788.0580, 49.92810
789.2010, 24.82629
790.3450, 61.72424
791.4880, 23.62183
792.6310, 18.52515
793.7730, 11.42822
794.9160, 76.33093
796.0590, 37.28748
797.2010, 52.19360
798.3430, 71.10181
799.4850, 46.00964
800.6270, 31.91711
801.7690, 4.175659
802.9100, 59.73535
804.0520, 19.64026
805.1930, 33.20825
806.3340, 3.114258
807.4750, 111.0199
808.6160, 64.92542
809.7560, 60.83057
810.8970, 40.73547
812.0370, 6.640503
813.1770, 49.54504
814.3170, 28.45056
815.4570, 53.35596
816.5960, 21.26111
817.7360, 27.16602
818.8750, 28.39856
820.0140, 20.48877
821.1530, 34.39294
822.2920, 42.29712
823.4310, 55.05225
824.5690, 72.93701
825.7070, 74.76843
826.8460, 65.67139
827.9840, 40.57410
829.1220, 57.47632
830.2590, 43.37854
831.3970, 17.28040
832.5340, 25.18201
833.6710, 50.08337
834.8080, 41.98425
835.9450, 63.88525
837.0820, 34.78577
838.2190, 42.68591
839.3550, 31.85449
840.4910, 38.75439
841.6270, 35.87610
842.7630, 49.77527
843.8990, 17.50720
845.0350, 9.407959
846.1700, 51.30652
847.3060, 29.20715
848.4410, 52.10767
849.5760, 6.301514
850.7100, 66.59521
851.8450, 19.50818
852.9800, 70.38159
854.1140, 52.61792
855.2480, 40.50769
856.3820, 86.39697
857.5160, 29.28625
858.6500, 11.17554
859.7830, 46.06445
860.9170, 17.04663
862.0500, 0.2009280
863.1830, 88.67773
864.3160, 64.55664
865.4480, 39.43506
866.5810, 46.31360
867.7130, 82.19189
868.8460, 74.07007
869.9780, 21.60730
871.1100, 19.51465
872.2410, 64.35278
873.3730, 16.22009
874.5050, 21.08740
875.6360, 34.96094
876.7670, 43.83423
877.8980, 32.70764
879.0290, 3.582886
880.1590, 33.45825
881.2900, 21.33362
882.4200, 15.21765
883.5500, 45.09290
884.6800, 33.96802
885.8100, 53.84302
886.9400, 5.718018
888.0690, 53.59302
889.1990, 16.46765
890.3280, 48.34241
891.4570, 62.21704
892.5860, 75.09155
893.7140, 75.46082
894.8430, 75.45166
895.9710, 63.71558
897.1000, 54.59021
898.2280, 56.46497
899.3560, 30.33936
900.4830, 50.21375
901.6110, 34.03772
902.7380, 17.91187
903.8660, 74.78601
904.9930, 16.69153
906.1200, 38.40869
907.2460, 15.28223
908.3730, 40.11462
909.5000, 14.98755
910.6260, 10.86011
911.7520, 48.73242
912.8780, 37.60522
914.0040, 4.477783
915.1290, 57.34985
916.2550, 37.11633
917.3800, 32.98816
918.5050, 55.85938
919.6300, 52.73047
920.7550, 48.60120
921.8800, 59.59314
923.0040, 52.64795
924.1290, 59.24597
925.2530, 49.12878
926.3770, 31.01135
927.5010, 29.10767
928.6250, 29.77563
929.7480, 9.658081
930.8720, 1.419556
931.9950, 37.30078
933.1180, 69.70544
934.2410, 60.58594
935.3640, 8.466187
936.4860, 19.34583
937.6090, 3.881958
938.7310, 47.05200
939.8530, 39.93542
940.9750, 52.18494
942.0970, 71.06250
943.2180, 47.95190
944.3400, 69.84106
945.4610, 50.72974
946.5820, 31.61804
947.7030, 50.50586
948.8240, 15.66589
949.9450, 44.55298
951.0650, 74.43970
952.1860, 28.32581
953.3060, 91.21155
954.4260, 5.902954
955.5460, 42.97742
956.6650, 35.85730
957.7850, 32.73682
958.9040, 75.61670
960.0230, 66.49695
961.1420, 24.37695
962.2610, 65.25671
963.3800, 41.35901
964.4990, 84.01636
965.6170, 39.89636
966.7350, 22.77600
967.8530, 25.65515
968.9710, 30.53394
970.0890, 11.41223
971.2070, 36.29016
972.3240, 64.16772
973.4410, 1.955200
974.5580, 46.91895
975.6750, 60.79370
976.7920, 54.67126
977.9090, 72.30310
979.0250, 76.86096
980.1410, 59.74658
981.2580, 47.63184
982.3740, 16.51672
983.4890, 38.40112
984.6050, 40.89539
985.7200, 12.78052
986.8360, 66.44507
987.9510, 3.670532
989.0660, 40.21008
990.1810, 96.09058
991.2950, 60.97046
992.4100, 46.85022
993.5240, 49.72949
994.6390, 13.60852
995.7530, 25.01782
996.8660, 32.25708
997.9800, 19.14270
999.0940, 53.02795
1000.207, 18.91296
1001.320, 58.79773
1002.433, 109.6824
1003.546, 97.56677
1004.659, 69.45239
1005.772, 16.12244
1006.884, 47.00757
1007.996, 35.89246
1009.108, 95.21729
1010.220, 46.10181
1011.332, 67.98608
1012.444, 39.33179
1013.555, 40.21582
1014.666, 35.13733
1015.777, 3.020630
1016.888, 75.90369
1017.999, 48.78638
1019.110, 40.66882
1020.220, 81.55090
1021.331, 50.43286
1022.441, 56.31445
1023.551, 64.19580
1024.661, 56.25793
1025.770, 59.78674
1026.880, 63.83838
1027.989, 59.71875
1029.098, 64.59875
1030.207, 74.47852
1031.316, 52.35815
1032.425, 58.90356
1033.533, 21.11670
1034.642, 68.99548
1035.750, 27.87427
1036.858, 68.75293
1037.966, 46.36865
1039.073, 11.51611
1040.181, 24.32861
1041.288, 44.17322
1042.396, 99.01794
1043.503, 79.26648
1044.610, 86.44263
1045.716, 41.70178
1046.823, 60.54565
1047.929, 37.38940
1049.036, 31.23291
1050.142, 6.076904
1051.248, 67.92065
1052.353, 69.76440
1053.459, 90.60779
1054.564, 91.72693
1055.670, 90.87219
1056.775, 46.03809
1057.880, 80.88074
1058.985, 19.72327
1060.089, 9.565430
1061.194, 53.40759
1062.298, 54.40088
1063.402, 11.75732
1064.506, 70.02625
1065.610, 6.140259
1066.713, 14.68848
1067.817, 43.51697
1068.920, 44.34534
1070.023, 67.17358
1071.126, 1.886719
1072.229, 26.94019
1073.332, 3.061523
1074.435, 19.85974
1075.537, 15.43750
1076.639, 60.50488
1077.741, 12.32727
1078.843, 15.14929
1079.945, 14.10315
1081.046, 1.207153
1082.148, 41.61169
1083.249, 47.43030
1084.350, 47.24878
1085.451, 73.63501
1086.551, 66.11829
1087.652, 81.18982
1088.752, 64.00781
1089.853, 65.84656
1090.953, 69.30725
1092.053, 57.57166
1093.152, 70.38916
1094.252, 68.20654
1095.351, 61.02393
1096.451, 30.14709
1097.550, 20.96436
1098.649, 48.78125
1099.748, 9.598267
1100.846, 21.41528
1101.945, 59.23218
1103.043, 30.04907
1104.141, 4.865845
1105.239, 9.682617
1106.337, 84.23096
1107.434, 26.23584
1108.532, 50.05286
1109.629, 3.869751
1110.726, 4.313354
1111.823, 52.49963
1112.920, 24.31250
1114.017, 10.12561
1115.113, 17.93860
1116.210, 64.75171
1117.306, 39.56677
1118.402, 51.38184
1119.498, 18.20215
1120.593, 43.67615
1121.689, 33.49670
1122.784, 51.31738
1123.879, 47.13831
1124.974, 51.11633
1126.069, 69.78052
1127.164, 35.60193
1128.259, 32.42810
1129.353, 36.05029
1130.447, 53.76611
1131.541, 41.59290
1132.635, 15.41968
1133.729, 26.24683
1134.822, 80.07410
1135.916, 29.90137
1137.009, 91.72900
1138.102, 68.56189
1139.195, 14.39502
1140.288, 20.77161
1141.380, 38.05066
1142.473, 50.87329
1143.565, 5.300903
1144.657, 70.54932
1145.749, 2.371094
1146.841, 57.19263
1147.932, 75.00562
1149.024, 25.82776
1150.115, 48.65002
1151.206, 63.47253
1152.297, 43.29553
1153.388, 42.11877
1154.479, 48.25708
1155.569, 11.76599
1156.659, 43.59033
1157.750, 70.41479
1158.839, 39.23975
1159.929, 10.06506
1161.019, 22.89075
1162.108, 66.71680
1163.198, 21.54333
1164.287, 76.37024
1165.376, 10.19763
1166.465, 39.02527
1167.553, 21.85352
1168.642, 108.6823
1169.730, 36.47974
1170.818, 11.46619
1171.906, 61.29663
1172.994, 19.13513
1174.082, 19.97424
1175.170, 31.81421
1176.257, 2.345215
1177.344, 37.49463
1178.431, 43.33545
1179.518, 7.176758
1180.605, 12.01904
1181.691, 42.86206
1182.778, 32.70581
1183.864, 17.55054
1184.950, 15.60376
1186.036, 34.23462
1187.122, 8.073730
1188.207, 71.91406
1189.292, 7.754883
1190.378, 56.59668
1191.463, 73.43970
1192.548, 2.716553
1193.632, 55.12646
1194.717, 11.09131
1195.801, 73.93628
1196.886, 57.25854
1197.970, 31.11279
1199.054, 55.96802
1200.137, 24.82397
1201.221, 20.31836
1202.305, 62.24341
1203.388, 3.906738
1204.471, 20.42188
1205.554, 60.41895
1206.637, 44.26050
1207.719, 34.10376
1208.802, 39.94824
1209.884, 27.79346
1210.966, 31.99731
1212.048, 38.21582
1213.130, 46.06494
1214.212, 29.91553
1215.293, 54.76733
1216.374, 29.62036
1217.456, 2.474854
1218.536, 78.33301
1219.617, 59.19214
1220.698, 32.05273
1221.778, 3.085205
1222.859, 35.77734
1223.939, 1.044678
1225.019, 31.50562
1226.099, 7.627930
1227.178, 19.23706
1228.258, 42.10327
1229.337, 45.97119
1230.417, 55.07422
1231.496, 47.71094
1232.574, 56.58545
1233.653, 3.461426
1234.732, 7.345703
1235.810, 6.231689
1236.888, 5.294922
1237.966, 91.00830
1239.044, 11.89819
1240.122, 41.78320
1241.199, 73.25684
1242.277, 32.15137
1243.354, 35.04761
1244.431, 45.94580
1245.508, 11.84521
1246.585, 55.74658
1247.661, 19.64966
1248.738, 65.55420
1249.814, 36.46045
1250.890, 45.36987
1251.966, 20.28076
1253.042, 22.19360
1254.117, 1.107910
1255.193, 100.0239
1256.268, 60.94165
1257.343, 11.86108
1258.418, 32.21777
1259.493, 56.69043
1260.567, 63.60010
1261.642, 47.51172
1262.716, 32.42480
1263.790, 42.82104
1264.864, 52.25708
1265.938, 56.17578
1267.011, 66.09644
1268.085, 74.01855
1269.158, 52.94238
1270.231, 10.71655
1271.304, 44.64404
1272.377, 58.20093
1273.450, 1.329346
1274.522, 58.60327
1275.594, 69.50024
1276.666, 48.43677
1277.738, 35.37695
1278.810, 102.3186
1279.882, 54.26245
1280.953, 54.20825
1282.025, 94.15552
1283.096, 64.10547
1284.167, 73.90454
1285.238, 77.01025
1286.308, 59.96558
1287.379, 83.92285
1288.449, 77.88257
1289.519, 85.34351
1290.589, 92.80835
1291.659, 77.77393
1292.729, 132.7417
1293.798, 82.71118
1294.868, 83.68286
1295.937, 121.6565
1297.006, 141.6318
1298.075, 101.6091
1299.143, 119.6013
1300.212, 167.5994
1301.280, 127.2810
1302.348, 160.2834
1303.416, 179.2881
1304.484, 239.3037
1305.552, 227.1609
1306.620, 260.1709
1307.687, 296.1831
1308.754, 273.1973
1309.821, 292.2163
1310.888, 300.2375
1311.955, 362.2607
1313.021, 439.2861
1314.088, 499.4124
1315.154, 523.4414
1316.220, 562.4722
1317.286, 715.5059
1318.352, 856.5413
1319.417, 1017.578
1320.483, 1245.616
1321.548, 1527.502
1322.613, 2064.542
1323.678, 2747.588
1324.743, 4258.635
1325.807, 6965.267
1326.872, 12835.32
1327.936, 22855.38
1329.000, 34111.44
1330.064, 45771.38
1331.128, 56817.45
1332.191, 61701.34
1333.255, 56960.32
1334.318, 43340.44
1335.381, 26361.51
1336.444, 13677.58
1337.507, 7256.666
1338.569, 4354.750
1339.632, 2803.833
1340.694, 1938.922
1341.756, 1471.013
1342.818, 1097.107
1343.880, 842.2026
1344.941, 744.3013
1346.003, 592.4021
1347.064, 535.5054
1348.125, 406.6113
1349.186, 342.7192
1350.247, 351.7192
1351.308, 290.8325
1352.368, 305.9480
1353.428, 264.0664
1354.489, 259.8809
1355.549, 191.0044
1356.608, 238.1304
1357.668, 188.2593
1358.727, 187.3906
1359.787, 105.0542
1360.846, 124.1851
1361.905, 137.9038
1362.964, 121.0396
1364.022, 136.7861
1365.081, 132.1316
1366.139, 131.2754
1367.197, 130.4683
1368.255, 102.6177
1369.313, 82.77197
1370.371, 83.83496
1371.428, 96.08838
1372.486, 83.25098
1373.543, 118.4160
1374.600, 125.5840
1375.657, 96.74243
1376.713, 119.5310
1377.770, 105.9504
1378.826, 108.2322
1379.882, 99.40063
1380.938, 59.57227
1381.994, 58.74609
1383.050, 32.92261
1384.106, 62.10205
1385.161, 56.28418
1386.216, 74.78442
1387.271, 75.17700
1388.326, 64.53833
1389.381, 75.31299
1390.435, 40.56738
1391.490, 41.77881
1392.544, 35.96802
1393.598, 86.15723
1394.652, 47.34912
1395.705, 43.54370
1396.759, 9.259033
1397.812, 49.94604
1398.866, 15.77612
1399.919, 66.43115
1400.972, 37.61499
1402.024, 67.83008
1403.077, 94.04810
1404.129, 47.58569
1405.181, 59.78223
1406.233, 50.02319
1407.285, 13.22412
1408.337, 50.42651
1409.389, 23.74829
1410.440, 28.95483
1411.491, 58.16309
1412.542, 36.37378
1413.593, 44.83496
1414.644, 63.96240
1415.695, 39.25879
1416.745, 34.47803
1417.795, 40.69995
1418.845, 23.44385
1419.895, 29.14868
1420.945, 21.37573
1421.995, 1.604980
1423.044, 29.83643
1424.093, 7.068604
1425.142, 48.30273
1426.191, 26.53027
1427.240, 31.01270
1428.289, 45.21191
1429.337, 54.43628
1430.385, 0.6630860
1431.433, 19.88745
1432.481, 73.11230
1433.529, 58.33911
1434.577, 24.56787
1435.624, 22.61401
1436.672, 36.84741
1437.719, 49.07104
1438.766, 50.31421
1439.812, 49.95459
1440.859, 59.77490
1441.905, 44.93555
1442.952, 58.39673
1443.998, 75.51904
1445.044, 38.73169
1446.090, 15.70459
1447.135, 31.42017
1448.181, 45.70337
1449.226, 84.99072
1450.271, 24.26782
1451.316, 27.45117
1452.361, 115.8438
1453.405, 60.14917
1454.450, 80.46362
1455.494, 51.78174
1456.538, 75.10376
1457.582, 51.43042
1458.626, 30.76050
1459.670, 1.094971
1460.713, 39.43311
1461.757, 13.77661
1462.800, 41.12451
1463.843, 52.47827
1464.886, 34.83789
1465.928, 61.20190
1466.971, 60.68823
1468.013, 33.91455
1469.055, 72.27002
1470.097, 46.63013
1471.139, 38.99390
1472.181, 109.3618
1473.222, 59.73291
1474.263, 55.10864
1475.305, 110.4880
1476.346, 58.87158
1477.386, 35.25928
1478.427, 45.65112
1479.468, 96.05713
1480.508, 35.47754
1481.548, 65.90210
1482.588, 61.33105
1483.628, 58.76514
1484.668, 7.208740
1485.707, 94.32056
1486.747, 24.24731
1487.786, 40.18921
1488.825, 81.62622
1489.864, 76.06812
1490.902, 29.51440
1491.941, 12.96509
1492.979, 65.42114
1494.017, 44.88013
1495.055, 68.34375
1496.093, 61.81323
1497.131, 62.28784
1498.168, 76.79907
1499.206, 75.25415
1500.243, 93.81104
1501.280, 40.24707
1502.317, 45.70410
1503.354, 46.16675
1504.390, 76.62231
1505.426, 61.08325
1506.463, 96.54956
1507.499, 47.02124
1508.535, 106.4990
1509.570, 61.99170
1510.606, 75.49463
1511.641, 77.72144
1512.676, 34.17871
1513.711, 38.63965
1514.746, 12.10376
1515.781, 23.46851
1516.816, 29.86230
1517.850, 78.40869
1518.884, 57.88257
1519.918, 68.35913
1520.952, 80.83838
1521.986, 47.32007
1523.019, 16.80420
1524.053, 39.29028
1525.086, 38.77808
1526.119, 71.26733
1527.152, 64.29346
1528.185, 1.279541
1529.217, 62.52856
1530.250, 21.89600
1531.282, 44.25586
1532.314, 33.46094
1533.346, 7.798828
1534.377, 75.12549
1535.409, 35.43896
1536.440, 59.82861
1537.472, 37.21045
1538.503, 4.582275
1539.534, 16.94360
1540.564, 74.29150
1541.595, 49.68286
1542.625, 102.1238
1543.656, 54.10889
1544.686, 71.50757
1545.716, 57.90625
1546.745, 58.29102
1547.775, 75.28589
1548.804, 41.61719
1549.834, 97.07715
1550.863, 3.336914
1551.892, 65.85132
1552.920, 54.57788
1553.949, 76.06885
1554.977, 60.32324
1556.006, 99.07983
1557.034, 71.42700
1558.062, 80.77930
1559.089, 5.897217
1560.117, 54.43066
1561.144, 105.0845
1562.172, 45.29248
1563.199, 84.51953
1564.226, 87.83569
1565.252, 48.36279
1566.279, 0.8474120
1567.305, 65.84399
1568.332, 10.04565
1569.358, 17.06128
1570.384, 0.0000000E+00
##END=



