##NAMES=Diaspore
##RRUFFID=R060287
##IDEAL CHEMISTRY=AlO(OH)
##LOCALITY=Selcuk, Mugla Province, Turkey
##OWNER=RRUFF
##SOURCE=Herb Obodda
##DESCRIPTION=Colorless transparent platy fragment
##STATUS=The identification of this mineral has been confirmed by X-ray diffraction and chemical analysis
##URL=rruff.info/R060287
##MEASURED CHEMISTRY=(Al_0.99_Fe^3+^_0.01_)_Î£=1_O(OH) ; trace amounts of Ti;  OH estimated by difference ; Fe^3+^ by charge balance
##PIN_ID=L01646
##ORIENTATION=Laser parallel to -c* (0 0 -1). Fiducial mark perpendicular to laser is parallel to a [1 0 0]
132.8980, 0.0000000E+00
134.1270, 3.895752
135.3560, 66.98535
136.5850, 105.7124
137.8140, 322.9346
139.0430, 387.3633
140.2710, 508.5024
141.5000, 716.3691
142.7280, 1047.545
143.9560, 1725.601
145.1840, 2571.106
146.4120, 3377.978
147.6390, 3443.076
148.8670, 3449.296
150.0940, 4483.052
151.3210, 6249.092
152.5490, 8156.333
153.7750, 9131.395
155.0020, 9307.418
156.2290, 9038.618
157.4550, 8096.236
158.6810, 6272.709
159.9080, 4297.824
161.1340, 2583.838
162.3590, 1371.847
163.5850, 707.1650
164.8110, 478.9912
166.0360, 367.4268
167.2610, 152.1191
168.4860, 111.0381
169.7110, 68.20361
170.9360, 25.00684
172.1610, 35.62207
173.3850, 18.53467
174.6100, 2.615723
175.8340, 24.08740
177.0580, 9.928223
178.2820, 66.20508
179.5050, 12.27441
180.7290, 22.23779
181.9520, 17.33789
183.1760, 78.11914
184.3990, 9.074707
185.6220, 36.07275
186.8450, 71.39258
188.0670, 37.68408
189.2900, 15.24756
190.5120, 81.40967
191.7340, 111.1299
192.9560, 126.2344
194.1780, 48.36914
195.4000, 76.88672
196.6220, 62.99756
197.8430, 9.139648
199.0640, 68.93848
200.2860, 128.9995
201.5070, 39.19824
202.7270, 60.79150
203.9480, 68.04004
205.1690, 77.31689
206.3890, 35.62646
207.6090, 2.020020
208.8290, 8.392090
210.0490, 8.133301
211.2690, 11.40137
212.4890, 42.99463
213.7080, 53.64111
214.9280, 68.40820
216.1470, 37.07910
217.3660, 88.86035
218.5850, 61.67725
219.8030, 74.52295
221.0220, 28.60547
222.2400, 40.71045
223.4590, 22.20605
224.6770, 82.14404
225.8950, 35.07666
227.1120, 14.02246
228.3300, 22.97998
229.5480, 4.948730
230.7650, 35.89258
231.9820, 74.76807
233.1990, 12.65918
234.4160, 46.55811
235.6330, 10.46387
236.8490, 22.38184
238.0660, 15.31006
239.2820, 6.762695
240.4980, 5.536133
241.7140, 71.87598
242.9300, 11.91650
244.1460, 27.96484
245.3610, 88.02686
246.5770, 58.92090
247.7920, 55.88135
249.0070, 33.14600
250.2220, 41.82520
251.4370, 37.76025
252.6510, 66.71973
253.8660, 41.70215
255.0800, 75.69385
256.2940, 15.29883
257.5080, 14.26855
258.7220, 31.78174
259.9360, 60.85840
261.1490, 104.8945
262.3630, 94.83887
263.5760, 6.078613
264.7890, 38.92920
266.0020, 69.95996
267.2150, 8.956543
268.4270, 40.14014
269.6400, 52.24512
270.8520, 93.36426
272.0640, 5.506836
273.2760, 21.63184
274.4880, 28.78174
275.7000, 79.96484
276.9120, 147.1597
278.1230, 96.36816
279.3340, 74.31592
280.5450, 137.9233
281.7560, 254.0669
282.9670, 160.3433
284.1780, 291.7021
285.3880, 330.1064
286.5980, 308.5435
287.8090, 397.9883
289.0190, 333.4346
290.2290, 322.8667
291.4380, 280.2769
292.6480, 232.6504
293.8570, 182.9902
295.0670, 157.0444
296.2760, 140.2920
297.4850, 102.8350
298.6930, 144.0083
299.9020, 116.1431
301.1110, 143.2510
302.3190, 116.3325
303.5270, 226.2998
304.7350, 351.1191
305.9430, 289.9443
307.1510, 195.7432
308.3580, 244.5332
309.5660, 321.3140
310.7730, 345.0874
311.9800, 335.8359
313.1870, 456.5781
314.3940, 526.3164
315.6010, 754.0508
316.8070, 902.0820
318.0130, 1248.738
319.2200, 1674.328
320.4260, 2459.614
321.6310, 3669.236
322.8370, 4942.674
324.0430, 6031.265
325.2480, 6954.604
326.4540, 8336.191
327.6590, 10378.11
328.8640, 12521.23
330.0680, 14419.59
331.2730, 15091.17
332.4780, 14790.78
333.6820, 13372.24
334.8860, 11032.99
336.0900, 8298.464
337.2940, 5675.926
338.4980, 3702.396
339.7010, 2376.767
340.9050, 1594.237
342.1080, 1240.687
343.3110, 907.2534
344.5140, 718.7485
345.7170, 526.2485
346.9200, 481.6187
348.1220, 345.1299
349.3240, 366.6567
350.5270, 229.1934
351.7290, 274.6235
352.9310, 273.9072
354.1320, 297.8311
355.3340, 169.8296
356.5350, 248.9590
357.7370, 107.5308
358.9380, 180.1299
360.1390, 210.7368
361.3400, 74.32861
362.5400, 91.95068
363.7410, 124.5801
364.9410, 19.21826
366.1410, 141.3013
367.3410, 151.6606
368.5410, 33.25391
369.7410, 106.9204
370.9400, 124.6709
372.1400, 118.2324
373.3390, 124.8979
374.5380, 173.2979
375.7370, 104.0010
376.9360, 82.71191
378.1350, 134.8496
379.3330, 188.5752
380.5310, 85.65576
381.7300, 175.3970
382.9280, 63.13623
384.1260, 146.4712
385.3230, 142.1440
386.5210, 121.0933
387.7180, 145.8369
388.9160, 160.1211
390.1130, 156.1533
391.3100, 234.9551
392.5060, 184.7651
393.7030, 231.3379
394.9000, 234.9131
396.0960, 149.7461
397.2920, 227.5874
398.4880, 296.9512
399.6840, 259.8896
400.8800, 206.7720
402.0750, 200.7490
403.2710, 247.6274
404.4660, 215.5127
405.6610, 131.4062
406.8560, 203.3071
408.0510, 209.9287
409.2450, 180.8452
410.4400, 286.7695
411.6340, 220.2944
412.8280, 143.2329
414.0220, 264.1797
415.2160, 247.3999
416.4100, 387.1855
417.6030, 433.2139
418.7970, 336.1895
419.9900, 562.1733
421.1830, 549.1636
422.3760, 622.1611
423.5690, 635.9409
424.7610, 653.9487
425.9540, 718.1611
427.1460, 856.1396
428.3380, 1011.050
429.5300, 1241.703
430.7220, 1469.723
431.9140, 1757.094
433.1050, 2125.117
434.2970, 2801.142
435.4880, 3883.169
436.6790, 5653.197
437.8700, 8612.228
439.0610, 13257.26
440.2510, 18861.30
441.4420, 23002.33
442.6320, 26249.38
443.8220, 32233.42
445.0120, 41549.49
446.2020, 50641.55
447.3910, 55285.61
448.5810, 55350.21
449.7700, 51481.29
450.9600, 43475.37
452.1490, 32609.47
453.3370, 22197.56
454.5260, 13738.65
455.7150, 8489.759
456.9030, 5521.867
458.0910, 3975.981
459.2800, 2947.103
460.4670, 2222.235
461.6550, 1915.375
462.8430, 1573.521
464.0300, 1429.674
465.2180, 1160.834
466.4050, 1044.001
467.5920, 903.1748
468.7790, 894.3560
469.9650, 768.5522
471.1520, 723.7632
472.3380, 540.0034
473.5250, 510.2520
474.7110, 492.5078
475.8970, 389.7690
477.0820, 367.0386
478.2680, 333.3184
479.4540, 347.6055
480.6390, 261.8999
481.8240, 311.2012
483.0090, 227.5107
484.1940, 209.8276
485.3780, 154.1523
486.5630, 209.4878
487.7470, 171.8306
488.9320, 168.1816
490.1160, 139.5405
491.3000, 238.9062
492.4830, 218.2803
493.6670, 322.6606
494.8500, 303.0493
496.0340, 408.4512
497.2170, 467.8628
498.4000, 489.2900
499.5820, 525.7261
500.7650, 513.1704
501.9480, 327.6211
503.1300, 264.0796
504.3120, 153.5459
505.4940, 167.0190
506.6760, 161.4995
507.8580, 133.9873
509.0390, 5.493652
510.2210, 198.0215
511.4020, 70.55713
512.5830, 41.89990
513.7640, 62.63184
514.9450, 87.17139
516.1250, 40.71924
517.3060, 67.34424
518.4860, 52.97217
519.6660, 10.58936
520.8460, 56.98486
522.0260, 29.43311
523.2060, 4.143066
524.3850, 59.72754
525.5650, 46.68115
526.7440, 75.90039
527.9230, 16.49023
529.1020, 98.10840
530.2810, 49.26172
531.4590, 79.36328
532.6380, 22.02002
533.8160, 114.6841
534.9940, 15.35596
536.1720, 34.95508
537.3500, 58.72559
538.5270, 4.413574
539.7050, 48.89111
540.8820, 59.21045
542.0590, 3.449707
543.2360, 17.12354
544.4130, 59.80859
545.5900, 76.50098
546.7660, 7.201172
547.9430, 225.9087
549.1190, 70.62354
550.2950, 148.3481
551.4710, 78.07959
552.6470, 176.8188
553.8220, 35.56738
554.9980, 74.32715
556.1730, 43.90625
557.3480, 18.84814
558.5230, 0.6108400
559.6980, 29.37988
560.8730, 7.155762
562.0470, 40.93994
563.2220, 47.73096
564.3960, 15.46729
565.5700, 37.33496
566.7440, 23.84375
567.9170, 17.02637
569.0910, 34.79102
570.2640, 50.38525
571.4380, 41.42334
572.6110, 26.75830
573.7840, 7.055176
574.9570, 83.87549
576.1290, 67.70361
577.3020, 104.5391
578.4740, 47.38281
579.6460, 193.2339
580.8180, 299.0918
581.9900, 161.9580
583.1620, 110.8330
584.3330, 212.7158
585.5040, 157.4131
586.6760, 21.33154
587.8470, 173.2476
589.0180, 46.82764
590.1880, 116.0830
591.3590, 110.0005
592.5290, 98.92627
593.7000, 108.8589
594.8700, 158.7993
596.0400, 182.7471
597.2090, 248.7031
598.3790, 273.6665
599.5490, 326.6372
600.7180, 385.7739
601.8870, 440.6016
603.0560, 464.5947
604.2250, 518.5952
605.3940, 551.3706
606.5620, 451.6191
607.7300, 595.6421
608.8990, 639.6724
610.0670, 608.7095
611.2350, 506.7539
612.4020, 435.8066
613.5700, 421.8652
614.7370, 387.0146
615.9050, 211.0879
617.0720, 211.1685
618.2390, 143.2563
619.4060, 271.3511
620.5720, 223.4526
621.7390, 227.5615
622.9050, 103.6777
624.0710, 77.80615
625.2370, 175.9424
626.4030, 126.0850
627.5690, 172.2344
628.7340, 201.3916
629.9000, 152.5547
631.0650, 120.7251
632.2300, 218.9033
633.3950, 235.0879
634.5600, 250.2793
635.7240, 272.4814
636.8890, 244.6997
638.0530, 235.9277
639.2170, 276.1621
640.3810, 326.4028
641.5450, 396.6509
642.7080, 394.9053
643.8720, 401.1660
645.0350, 441.4341
646.1980, 489.7080
647.3610, 512.9888
648.5240, 565.2764
649.6870, 652.5703
650.8490, 712.8706
652.0120, 823.1865
653.1740, 1036.445
654.3360, 1157.796
655.4980, 1345.164
656.6600, 1686.537
657.8210, 1706.918
658.9830, 2063.312
660.1440, 2533.220
661.3050, 2777.627
662.4660, 3058.618
663.6270, 3266.038
664.7870, 3455.464
665.9480, 3461.531
667.1080, 3429.970
668.2680, 3115.415
669.4280, 2853.867
670.5880, 2486.811
671.7480, 2144.283
672.9070, 1634.763
674.0670, 1394.248
675.2260, 1280.740
676.3850, 926.4873
677.5440, 907.9912
678.7030, 694.5015
679.8610, 618.5190
681.0200, 480.9766
682.1780, 482.6333
683.3360, 426.1865
684.4940, 219.7446
685.6520, 212.3101
686.8090, 239.9009
687.9670, 273.4985
689.1240, 234.1025
690.2810, 253.7124
691.4380, 111.3291
692.5950, 197.9521
693.7520, 186.2080
694.9080, 125.8428
696.0650, 176.2178
697.2210, 95.86523
698.3770, 154.4585
699.5330, 64.11865
700.6880, 26.78467
701.8440, 85.45703
702.9990, 109.8276
704.1550, 49.77539
705.3100, 64.25391
706.4650, 86.74902
707.6190, 50.07129
708.7740, 65.29883
709.9290, 24.37842
711.0830, 14.51465
712.2370, 11.29150
713.3910, 47.62109
714.5450, 46.35840
715.6980, 77.10107
716.8520, 40.88770
718.0050, 115.6421
719.1580, 92.40234
720.3110, 152.1685
721.4640, 62.24121
722.6170, 116.0186
723.7700, 60.19678
724.9220, 4.0038999E-02
726.0740, 30.73047
727.2260, 53.83496
728.3780, 29.09619
729.5300, 108.8828
730.6810, 153.6748
731.8330, 103.4722
732.9840, 129.2749
734.1350, 13.08301
735.2860, 121.0312
736.4370, 111.8496
737.5880, 47.67334
738.7380, 148.5024
739.8880, 95.33643
741.0390, 136.1753
742.1890, 96.02002
743.3380, 71.89600
744.4880, 35.75000
745.6380, 36.11670
746.7870, 152.4736
747.9360, 58.34277
749.0850, 73.21631
750.2340, 114.0957
751.3830, 19.97998
752.5310, 5.131836
753.6800, 96.76074
754.8280, 59.65771
755.9760, 84.55957
757.1240, 39.46533
758.2720, 102.3770
759.4190, 176.2925
760.5670, 105.2124
761.7140, 116.4609
762.8610, 140.3906
764.0080, 156.3242
765.1550, 197.2622
766.3020, 212.2476
767.4480, 279.1514
768.5950, 217.1021
769.7410, 227.1797
770.8870, 147.1387
772.0330, 157.1025
773.1780, 306.0146
774.3240, 213.0952
775.4690, 350.5312
776.6140, 352.5107
777.7590, 240.4946
778.9040, 384.4819
780.0490, 387.4731
781.1940, 443.4678
782.3380, 562.4658
783.4820, 636.4683
784.6260, 651.4736
785.7700, 780.4829
786.9140, 958.4961
788.0580, 1034.513
789.2010, 1048.634
790.3450, 1153.472
791.4880, 1179.712
792.6310, 1295.184
793.7730, 1191.229
794.9160, 1119.277
796.0590, 956.8613
797.2010, 919.9160
798.3430, 775.0298
799.4850, 675.0923
800.6270, 590.1636
801.7690, 580.2412
802.9100, 476.3213
804.0520, 401.4146
805.1930, 344.5698
806.3340, 272.6680
807.4750, 296.7681
808.6160, 170.7480
809.7560, 204.8643
810.8970, 125.9824
812.0370, 113.1030
813.1770, 161.2256
814.3170, 208.3589
815.4570, 241.4937
816.5960, 115.5352
817.7360, 120.6855
818.8750, 0.8515630
820.0140, 44.01660
821.1530, 125.1841
822.2920, 124.3535
823.4310, 193.1636
824.5690, 148.3354
825.7070, 141.3599
826.8460, 82.68359
827.9840, 58.03320
829.1220, 63.21045
830.2590, 5.610840
831.3970, 56.56299
832.5340, 61.73828
833.6710, 73.92383
834.8080, 125.1113
835.9450, 80.70654
837.0820, 26.63037
838.2190, 29.82666
839.3550, 5.976074
840.4910, 9.214844
841.6270, 41.58936
842.7630, 78.58301
843.8990, 101.7622
845.0350, 62.94580
846.1700, 135.1309
847.3060, 0.6723630
848.4410, 61.52148
849.5760, 43.72168
850.7100, 92.92334
851.8450, 17.12549
852.9800, 11.32861
854.1140, 108.5322
855.2480, 102.7363
856.3820, 194.9414
857.5160, 2.146973
858.6500, 20.34961
859.7830, 140.8188
860.9170, 34.78320
862.0500, 61.39062
863.1830, 0.5761720
864.3160, 40.75879
865.4480, 32.95312
866.5810, 33.14795
867.7130, 94.34375
868.8460, 45.54053
869.9780, 55.73828
871.1100, 5.936035
872.2410, 102.1333
873.3730, 36.33105
874.5050, 38.52930
875.6360, 24.72803
876.7670, 111.9282
877.8980, 76.12891
879.0290, 13.33008
880.1590, 104.5312
881.2900, 41.73291
882.4200, 78.93457
883.5500, 102.1372
884.6800, 21.34082
885.8100, 81.54395
886.9400, 148.7476
888.0690, 56.95215
889.1990, 151.0742
890.3280, 101.2793
891.4570, 76.48438
892.5860, 113.6904
893.7140, 61.89648
894.8430, 54.10303
895.9710, 20.30957
897.1000, 14.48291
898.2280, 57.71240
899.3560, 115.9077
900.4830, 71.10303
901.6110, 61.29932
902.7380, 113.4956
903.8660, 45.69238
904.9930, 9.889648
906.1200, 131.0854
907.2460, 141.2812
908.3730, 7.522461
909.5000, 27.33447
910.6260, 0.8349610
911.7520, 106.0000
912.8780, 40.16504
914.0040, 97.33008
915.1290, 121.4956
916.2550, 153.6611
917.3800, 93.82666
918.5050, 142.9927
919.6300, 54.15918
920.7550, 164.3252
921.8800, 54.49170
923.0040, 67.65820
924.1290, 26.40283
925.2530, 38.54199
926.3770, 28.13086
927.5010, 32.02588
928.6250, 90.05664
929.7480, 180.1401
930.8720, 16.77588
931.9950, 108.2935
933.1180, 15.38818
934.2410, 104.4570
935.3640, 106.5264
936.4860, 33.34473
937.6090, 85.41357
938.7310, 72.48242
939.8530, 15.55078
940.9750, 36.61816
942.0970, 22.68555
943.2180, 22.24756
944.3400, 73.80273
945.4610, 95.85352
946.5820, 69.90381
947.7030, 41.95361
948.8240, 129.0029
949.9450, 71.05225
951.0650, 55.89844
952.1860, 175.1167
953.3060, 149.1318
954.4260, 52.03516
955.5460, 142.0498
956.6650, 138.0635
957.7850, 67.92236
958.9040, 27.05127
960.0230, 54.02490
961.1420, 129.9990
962.2610, 7.971680
963.3800, 25.94336
964.4990, 29.91406
965.6170, 72.25928
966.7350, 116.2295
967.8530, 59.20020
968.9710, 28.17090
970.0890, 8.141113
971.2070, 89.19092
972.3240, 40.15967
973.4410, 192.1274
974.5580, 52.40430
975.6750, 104.3306
976.7920, 33.50977
977.9090, 137.4780
979.0250, 188.4458
980.1410, 183.4146
981.2580, 16.38965
982.3740, 115.9482
983.4890, 38.92334
984.6050, 47.89941
985.7200, 117.8813
986.8360, 139.8765
987.9510, 105.8340
989.0660, 86.82959
990.1810, 51.82520
991.2950, 137.8218
992.4100, 168.5166
993.5240, 0.5205080
994.6390, 198.5215
995.7530, 53.15430
996.8660, 53.17969
997.9800, 99.87988
999.0940, 77.90869
1000.207, 108.9380
1001.320, 52.96777
1002.433, 114.9985
1003.546, 28.02881
1004.659, 161.0601
1005.772, 106.9575
1006.884, 116.9893
1007.996, 192.0527
1009.108, 153.0859
1010.220, 35.11963
1011.332, 122.1533
1012.444, 78.18848
1013.555, 55.19775
1014.666, 142.2329
1015.777, 56.26953
1016.888, 84.30664
1017.999, 210.3442
1019.110, 52.38330
1020.220, 139.4219
1021.331, 58.46191
1022.441, 221.5020
1023.551, 153.5439
1024.661, 77.58643
1025.770, 34.62939
1026.880, 45.67285
1027.989, 29.71777
1029.098, 58.76318
1030.207, 14.80957
1031.316, 142.5327
1032.425, 151.5801
1033.533, 20.63086
1034.642, 146.6948
1035.750, 182.7646
1036.858, 140.8359
1037.966, 113.9082
1039.073, 134.2485
1040.181, 125.9331
1041.288, 156.0088
1042.396, 145.1396
1043.503, 165.1089
1044.610, 112.7275
1045.716, 132.8066
1046.823, 107.8882
1047.929, 115.9702
1049.036, 129.0542
1050.142, 131.1392
1051.248, 199.2324
1052.353, 98.32715
1053.459, 53.42285
1054.564, 148.5205
1055.670, 103.6191
1056.775, 15.28027
1057.880, 129.7153
1058.985, 91.00098
1060.089, 172.8984
1061.194, 122.5688
1062.298, 52.67041
1063.402, 214.7744
1064.506, 113.3467
1065.610, 1.545410
1066.713, 93.50928
1067.817, 100.6211
1068.920, 20.26514
1070.023, 48.84375
1071.126, 84.95557
1072.229, 115.0693
1073.332, 76.12500
1074.435, 83.24316
1075.537, 151.3638
1076.639, 121.0703
1077.741, 162.7466
1078.843, 154.8745
1079.945, 91.00537
1081.046, 153.1377
1082.148, 118.2729
1083.249, 177.4106
1084.350, 233.6460
1085.451, 91.78955
1086.551, 166.9531
1087.652, 153.1196
1088.752, 60.29004
1089.853, 189.4624
1090.953, 31.99854
1092.053, 131.1772
1093.152, 151.3584
1094.252, 85.54346
1095.351, 99.55859
1096.451, 117.7500
1097.550, 56.94482
1098.649, 66.14551
1099.748, 34.34961
1100.846, 46.55713
1101.945, 37.68652
1103.043, 32.15283
1104.141, 51.06055
1105.239, 38.27734
1106.337, 87.49756
1107.434, 63.72412
1108.532, 69.95410
1109.629, 145.2002
1110.726, 97.44971
1111.823, 107.7021
1112.920, 48.40283
1114.017, 125.7656
1115.113, 90.04004
1116.210, 149.3184
1117.306, 169.3564
1118.402, 129.3066
1119.498, 194.5938
1120.593, 284.8838
1121.689, 250.1777
1122.784, 310.4375
1123.879, 179.7754
1124.974, 320.7920
1126.069, 254.8350
1127.164, 193.6533
1128.259, 179.9775
1129.353, 56.86035
1130.447, 63.29199
1131.541, 49.52930
1132.635, 41.86816
1133.729, 103.2090
1134.822, 117.5537
1135.916, 32.90137
1137.009, 79.25195
1138.102, 42.60547
1139.195, 2.037109
1140.288, 141.3223
1141.380, 198.6855
1142.473, 110.0508
1143.565, 39.42578
1144.657, 153.8027
1145.749, 76.18262
1146.841, 66.56641
1147.932, 105.9531
1149.024, 175.3438
1150.115, 66.73633
1151.206, 28.13184
1152.297, 135.5312
1153.388, 29.93359
1154.479, 21.33887
1155.569, 116.7480
1156.659, 162.1592
1157.750, 245.5742
1158.839, 151.9922
1159.929, 78.41309
1161.019, 109.8369
1162.108, 71.26465
1163.198, 90.70117
1164.287, 221.5146
1165.376, 219.7373
1166.465, 185.4121
1167.553, 129.8613
1168.642, 189.3145
1169.730, 124.7695
1170.818, 176.2275
1171.906, 194.6904
1172.994, 286.1553
1174.082, 261.6279
1175.170, 230.1133
1176.257, 275.6025
1177.344, 313.0967
1178.431, 283.5928
1179.518, 481.0918
1180.605, 509.5928
1181.691, 553.6387
1182.778, 768.1465
1183.864, 882.6572
1184.950, 1123.172
1186.036, 1355.688
1187.122, 1706.209
1188.207, 2017.960
1189.292, 2349.495
1190.378, 2657.046
1191.463, 2954.609
1192.548, 3140.187
1193.632, 3017.766
1194.717, 2950.349
1195.801, 2799.939
1196.886, 2561.512
1197.970, 2032.111
1199.054, 1716.713
1200.137, 1435.568
1201.221, 1093.176
1202.305, 864.7881
1203.388, 777.4014
1204.471, 662.0195
1205.554, 550.6416
1206.637, 420.2656
1207.719, 351.9014
1208.802, 345.5391
1209.884, 242.1807
1210.966, 304.8242
1212.048, 335.4727
1213.130, 246.1230
1214.212, 163.7754
1215.293, 148.4482
1216.374, 195.1309
1217.456, 139.8086
1218.536, 183.4902
1219.617, 82.17383
1220.698, 38.86035
1221.778, 190.5693
1222.859, 113.2812
1223.939, 13.99609
1225.019, 167.7129
1226.099, 182.4336
1227.178, 145.1562
1228.258, 227.8828
1229.337, 172.6113
1230.417, 86.34180
1231.496, 149.0752
1232.574, 117.8105
1233.653, 116.8496
1234.732, 100.5928
1235.810, 76.33594
1236.888, 99.08301
1237.966, 21.83203
1239.044, 55.58594
1240.122, 24.34180
1241.199, 90.10059
1242.277, 27.02734
1243.354, 1.276367
1244.431, 63.47461
1245.508, 199.2295
1246.585, 25.01270
1247.661, 53.26562
1248.738, 92.45703
1249.814, 41.18359
1250.890, 100.9131
1251.966, 251.6445
1253.042, 52.37793
1254.117, 30.88672
1255.193, 50.83691
1256.268, 43.43750
1257.343, 156.2695
1258.418, 11.02051
1259.493, 133.6846
1260.567, 26.39258
1261.642, 76.10254
1262.716, 120.8154
1263.790, 24.52930
1264.864, 77.24609
1265.938, 102.9658
1267.011, 56.68750
1268.085, 50.41113
1269.158, 124.1055
1270.231, 79.83203
1271.304, 87.56250
1272.377, 125.5225
1273.450, 124.2588
1274.522, 97.99707
1275.594, 54.73828
1276.666, 81.47949
1277.738, 57.22559
1278.810, 115.9717
1279.882, 118.0918
1280.953, 119.2588
1282.025, 124.2246
1283.096, 127.9805
1284.167, 60.73828
1285.238, 75.49805
1286.308, 36.26074
1287.379, 14.02344
1288.449, 73.78906
1289.519, 30.55664
1290.589, 118.3330
1291.659, 196.1104
1292.729, 6.109375
1293.798, 45.26074
1294.868, 20.50391
1295.937, 186.2910
1297.006, 11.04102
1298.075, 81.79199
1299.143, 57.54492
1300.212, 66.30078
1301.280, 103.0576
1302.348, 37.81738
1303.416, 129.5781
1304.484, 68.34082
1305.552, 5.107422
1306.620, 124.8750
1307.687, 72.64355
1308.754, 158.4150
1309.821, 24.80371
1310.888, 58.96484
1311.955, 44.73730
1313.021, 48.51074
1314.088, 24.28711
1315.154, 222.0635
1316.220, 150.8428
1317.286, 168.6279
1318.352, 125.4131
1319.417, 90.20020
1320.483, 36.98730
1321.548, 131.7734
1322.613, 34.56348
1323.678, 29.34961
1324.743, 177.1377
1325.807, 137.9268
1326.872, 131.7178
1327.936, 23.51172
1329.000, 29.77344
1330.064, 33.19238
1331.128, 11.99219
1332.191, 64.79395
1333.255, 104.5977
1334.318, 142.3828
1335.381, 187.2705
1336.444, 132.9590
1337.507, 258.7490
1338.569, 148.5400
1339.632, 151.3320
1340.694, 77.12598
1341.756, 210.9199
1342.818, 85.70898
1343.880, 62.50293
1344.941, 256.2695
1346.003, 222.0449
1347.064, 11.80859
1348.125, 27.57324
1349.186, 80.33887
1350.247, 200.1064
1351.308, 141.8740
1352.368, 186.6621
1353.428, 170.2432
1354.489, 53.20312
1355.549, 121.9756
1356.608, 15.74902
1357.668, 20.52344
1358.727, 55.29980
1359.787, 71.07617
1360.846, 20.14453
1361.905, 103.6250
1362.964, 71.39746
1364.022, 165.1699
1365.081, 81.94434
1366.139, 78.01270
1367.197, 147.9658
1368.255, 206.7432
1369.313, 31.47852
1370.371, 99.85645
1371.428, 171.5342
1372.486, 41.30664
1373.543, 130.2949
1374.600, 32.73535
1375.657, 126.5693
1376.713, 63.61035
1377.770, 75.38867
1378.826, 128.1699
1379.882, 96.95117
1380.938, 84.73438
1381.994, 159.8086
1383.050, 178.5957
1384.106, 134.9561
1385.161, 155.0869
1386.216, 98.98145
1387.271, 112.8535
1388.326, 93.64746
1389.381, 74.44336
1390.435, 78.24121
1391.490, 51.04004
1392.544, 52.98340
1393.598, 42.78711
1394.652, 74.59277
1395.705, 176.3994
1396.759, 65.20996
1397.812, 205.0225
1398.866, 22.16113
1399.919, 41.19727
1400.972, 76.01270
1402.024, 14.90430
1403.077, 125.7256
1404.129, 98.54980
1405.181, 23.37695
1406.233, 65.20801
1407.285, 37.08984
1408.337, 101.9229
1409.389, 90.85742
1410.440, 186.6963
1411.491, 107.5391
1412.542, 116.3828
1413.593, 36.22363
1414.644, 45.08398
1415.695, 107.9316
1416.745, 234.3037
1417.795, 135.1592
1418.845, 106.0176
1419.895, 2.506836
1420.945, 18.66309
1421.995, 4.665039
1423.044, 57.17871
1424.093, 39.05762
1425.142, 70.93066
1426.191, 80.80566
1427.240, 151.6865
1428.289, 48.57227
1429.337, 96.46191
1430.385, 125.4131
1431.433, 59.31152
1432.481, 180.2158
1433.529, 82.07617
1434.577, 251.9404
1435.624, 91.77148
1436.672, 62.09961
1437.719, 86.96875
1438.766, 69.12402
1439.812, 83.00000
1440.859, 85.99609
1441.905, 150.8730
1442.952, 206.6055
1443.998, 74.31738
1445.044, 61.04785
1446.090, 126.6240
1447.135, 54.19727
1448.181, 149.1504
1449.226, 41.98535
1450.271, 80.89160
1451.316, 100.7988
1452.361, 248.7090
1453.405, 97.61914
1454.450, 160.5293
1455.494, 11.44043
1456.538, 193.3545
1457.582, 100.2695
1458.626, 106.1855
1459.670, 183.7314
1460.713, 172.6113
1461.757, 171.4922
1462.800, 88.37402
1463.843, 134.2578
1464.886, 112.1426
1465.928, 85.02832
1466.971, 80.91504
1468.013, 77.17773
1469.055, 163.0508
1470.097, 160.9268
1471.139, 142.7979
1472.181, 69.08203
1473.222, 114.9453
1474.263, 71.80859
1475.305, 169.7031
1476.346, 80.61133
1477.386, 28.52148
1478.427, 76.44434
1479.468, 238.3936
1480.508, 113.3623
1481.548, 73.33691
1482.588, 219.3145
1483.628, 65.29395
1484.668, 211.2754
1485.707, 163.2598
1486.747, 143.4893
1487.786, 313.4502
1488.825, 51.41309
1489.864, 88.37793
1490.902, 4.654297
1491.941, 1.312500
1492.979, 157.2803
1494.017, 132.2510
1495.055, 98.22266
1496.093, 252.1748
1497.131, 115.0186
1498.168, 5.4687999E-02
1499.206, 129.9639
1500.243, 8.981445
1501.280, 1.997070
1502.317, 256.0254
1503.354, 139.0498
1504.390, 98.07617
1505.426, 183.0869
1506.463, 51.10938
1507.499, 114.1318
1508.535, 30.15723
1509.570, 122.1885
1510.606, 71.23242
1511.641, 32.28613
1512.676, 68.35254
1513.711, 121.4229
1514.746, 87.31738
1515.781, 91.38965
1516.816, 20.50781
1517.850, 191.6729
1518.884, 108.8477
1519.918, 185.0303
1520.952, 127.2393
1521.986, 172.4766
1523.019, 74.75293
1524.053, 5.926758
1525.086, 114.4082
1526.119, 44.70605
1527.152, 270.0703
1528.185, 79.45020
1529.217, 97.84375
1530.250, 222.2754
1531.282, 55.75000
1532.314, 118.3594
1533.346, 45.30762
1534.377, 171.8135
1535.409, 181.3457
1536.440, 126.1846
1537.472, 235.3301
1538.503, 70.88086
1539.534, 131.4600
1540.564, 15.93262
1541.595, 176.3945
1542.625, 164.7383
1543.656, 146.4248
1544.686, 66.15625
1545.716, 199.2842
1546.745, 111.0674
1547.775, 163.8867
1548.804, 224.9688
1549.834, 217.3535
1550.863, 153.1309
1551.892, 259.9326
1552.920, 111.4902
1553.949, 82.76465
1554.977, 106.6875
1556.006, 127.6426
1557.034, 171.0283
1558.062, 110.3896
1559.089, 14.92090
1560.117, 141.2754
1561.144, 233.4609
1562.172, 45.67090
1563.199, 136.7256
1564.226, 77.80176
1565.252, 235.0322
1566.279, 115.8926
1567.305, 155.5918
1568.332, 59.22949
1569.358, 115.5439
1570.384, 101.6240
1571.409, 0.2763670
1572.435, 0.0000000E+00
##END=



