##NAMES=Diaspore
##RRUFFID=R060287
##IDEAL CHEMISTRY=AlO(OH)
##LOCALITY=Selcuk, Mugla Province, Turkey
##OWNER=RRUFF
##SOURCE=Herb Obodda
##DESCRIPTION=Colorless transparent platy fragment
##STATUS=The identification of this mineral has been confirmed by X-ray diffraction and chemical analysis
##URL=rruff.info/R060287
##MEASURED CHEMISTRY=(Al_0.99_Fe^3+^_0.01_)_Î£=1_O(OH) ; trace amounts of Ti;  OH estimated by difference ; Fe^3+^ by charge balance
##PIN_ID=L01505
##ORIENTATION=Laser parallel to b* (0 1 0). Fiducial mark perpendicular to laser is parallel to c [0 0 1]
132.8980, 0.0000000E+00
134.1270, 53.88135
135.3560, 56.41577
136.5850, 3.474487
137.8140, 75.78723
139.0430, 69.60010
140.2710, 73.59412
141.5000, 40.46741
142.7280, 140.0012
143.9560, 186.1375
145.1840, 240.8259
146.4120, 286.9159
147.6390, 426.2988
148.8670, 496.9010
150.0940, 709.6604
151.3210, 1043.520
152.5490, 1681.630
153.7750, 2941.209
155.0020, 5631.050
156.2290, 9660.239
157.4550, 11939.42
158.6810, 9730.448
159.9080, 6074.317
161.1340, 3145.320
162.3590, 1577.214
163.5850, 862.1074
164.8110, 439.9368
166.0360, 297.5991
167.2610, 217.4329
168.4860, 153.9052
169.7110, 88.25208
170.9360, 81.86584
172.1610, 86.72693
173.3850, 51.88635
174.6100, 88.72583
175.8340, 20.11316
177.0580, 77.85815
178.2820, 67.18213
179.5050, 39.03845
180.7290, 24.75061
181.9520, 21.24915
183.1760, 38.20557
184.3990, 56.12146
185.6220, 38.54688
186.8450, 49.76123
188.0670, 37.56909
189.2900, 55.32019
190.5120, 30.07825
191.7340, 37.46057
192.9560, 49.15576
194.1780, 48.79468
195.4000, 59.70190
196.6220, 100.3214
197.8430, 41.95312
199.0640, 104.5972
200.2860, 47.07385
201.5070, 16.72693
202.7270, 53.05237
203.9480, 55.69897
205.1690, 64.35779
206.3890, 63.56067
207.6090, 12.71887
208.8290, 36.42175
210.0490, 15.14404
211.2690, 16.11389
212.4890, 14.64783
213.7080, 6.571411
214.9280, 11.77209
216.1470, 19.04468
217.3660, 50.87830
218.5850, 2.272583
219.8030, 15.59119
221.0220, 19.53137
222.2400, 19.40222
223.4590, 27.26062
224.6770, 11.82629
225.8950, 5.097168
227.1120, 18.02893
228.3300, 4.031250
229.5480, 39.91467
230.7650, 1.865967
231.9820, 1.177734
233.1990, 22.78369
234.4160, 31.74951
235.6330, 18.71936
236.8490, 35.14673
238.0660, 0.6695560
239.2820, 38.64954
240.4980, 17.63245
241.7140, 6.617920
242.9300, 40.39343
244.1460, 39.59753
245.3610, 19.58215
246.5770, 17.55688
247.7920, 51.51685
249.0070, 11.52197
250.2220, 7.568359
251.4370, 22.36450
252.6510, 16.28992
253.8660, 13.21667
255.0800, 31.84692
256.2940, 8.105469
257.5080, 0.9290770
258.7220, 91.04041
259.9360, 173.0286
261.1490, 102.0270
262.3630, 77.04761
263.5760, 21.07300
264.7890, 23.09119
266.0020, 5.889526
267.2150, 33.12427
268.4270, 1.131958
269.6400, 6.143311
270.8520, 9.823975
272.0640, 3.643188
273.2760, 3.266479
274.4880, 19.34180
275.7000, 18.39819
276.9120, 31.45752
278.1230, 24.52112
279.3340, 42.80762
280.5450, 14.09558
281.7560, 51.36096
282.9670, 34.45020
284.1780, 7.790894
285.3880, 1.163452
286.5980, 8.216431
287.8090, 30.95898
289.0190, 43.37390
290.2290, 64.79663
291.4380, 92.22375
292.6480, 23.65369
293.8570, 49.08484
295.0670, 10.51599
296.2760, 65.94653
297.4850, 71.37549
298.6930, 36.80212
299.9020, 66.22412
301.1110, 56.64014
302.3190, 18.04858
303.5270, 55.44946
304.7350, 84.84338
305.9430, 101.2311
307.1510, 117.6118
308.3580, 94.98608
309.5660, 158.3541
310.7730, 141.7158
311.9800, 140.0720
313.1870, 182.4221
314.3940, 242.7673
315.6010, 235.1084
316.8070, 298.4441
318.0130, 372.7517
319.2200, 432.0425
320.4260, 562.3137
321.6310, 620.5757
322.8370, 875.8145
324.0430, 1069.032
325.2480, 1394.234
326.4540, 1914.430
327.6590, 2634.625
328.8640, 3829.818
330.0680, 5871.012
331.2730, 9264.208
332.4780, 13447.40
333.6820, 15612.57
334.8860, 14175.74
336.0900, 10487.92
337.2940, 6622.074
338.4980, 4137.238
339.7010, 2572.384
340.9050, 1638.530
342.1080, 1178.681
343.3110, 878.8357
344.5140, 587.9939
345.7170, 516.1516
346.9200, 377.2446
348.1220, 321.4009
349.3240, 322.5608
350.5270, 240.7241
351.7290, 174.8912
352.9310, 146.9622
354.1320, 182.1361
355.3340, 196.2614
356.5350, 125.9340
357.7370, 96.07239
358.9380, 104.3818
360.1390, 116.3829
361.3400, 120.5713
362.5400, 125.8604
363.7410, 126.3262
364.9410, 125.6060
366.1410, 105.2034
367.3410, 92.82434
368.5410, 49.03491
369.7410, 58.16101
370.9400, 31.25842
372.1400, 83.47729
373.3390, 93.13489
374.5380, 25.35913
375.7370, 13.99634
376.9360, 65.87341
378.1350, 26.64136
379.3330, 82.87598
380.5310, 37.11304
381.7300, 71.35254
382.9280, 5.453369
384.1260, 35.42261
385.3230, 37.36768
386.5210, 49.54431
387.7180, 73.08521
388.9160, 34.51636
390.1130, 74.77295
391.3100, 49.03198
392.5060, 51.37720
393.7030, 52.77771
394.9000, 42.43896
396.0960, 59.70801
397.2920, 50.26782
398.4880, 76.25415
399.6840, 43.44495
400.8800, 89.72461
402.0750, 95.88049
403.2710, 63.16553
404.4660, 84.45312
405.6610, 122.4818
406.8560, 172.8926
408.0510, 95.39526
409.2450, 138.0410
410.4400, 89.23120
411.6340, 106.5332
412.8280, 159.8372
414.0220, 100.1439
415.2160, 190.8560
416.4100, 117.9651
417.6030, 194.2788
418.7970, 183.5947
419.9900, 243.9131
421.1830, 257.2339
422.3760, 298.5566
423.5690, 312.7061
424.7610, 340.6521
425.9540, 337.5344
427.1460, 394.8645
428.3380, 427.9155
429.5300, 462.2476
430.7220, 536.5806
431.9140, 640.9146
433.1050, 790.2498
434.2970, 837.5852
435.4880, 1053.922
436.6790, 1381.259
437.8700, 1812.597
439.0610, 2274.936
440.2510, 2966.276
441.4420, 3823.617
442.6320, 5110.957
443.8220, 7026.299
445.0120, 10366.64
446.2020, 16412.99
447.3910, 27550.33
448.5810, 44116.68
449.7700, 57603.02
450.9600, 56002.38
452.1490, 41794.72
453.3370, 25924.07
454.5260, 14968.42
455.7150, 8815.782
456.9030, 5536.141
458.0910, 3760.499
459.2800, 2775.860
460.4670, 2136.222
461.6550, 1623.584
462.8430, 1314.949
464.0300, 1146.315
465.2180, 994.6836
466.4050, 801.0537
467.5920, 722.4255
468.7790, 676.7996
469.9650, 584.1755
471.1520, 543.5535
472.3380, 492.5747
473.5250, 463.3159
474.7110, 404.7007
475.8970, 387.0869
477.0820, 337.4761
478.2680, 311.7871
479.4540, 240.2603
480.6390, 259.6565
481.8240, 241.0547
483.0090, 210.4553
484.1940, 224.8586
485.3780, 158.2644
486.5630, 148.6726
487.7470, 183.0835
488.9320, 191.4963
490.1160, 124.9121
491.3000, 185.3308
492.4830, 123.7517
493.6670, 175.1750
494.8500, 154.6008
496.0340, 174.0300
497.2170, 176.4614
498.4000, 282.8994
499.5820, 340.3472
500.7650, 457.7971
501.9480, 400.2537
503.1300, 282.7178
504.3120, 181.1846
505.4940, 92.65381
506.6760, 85.12793
507.8580, 55.60474
509.0390, 34.09106
510.2210, 11.58618
511.4020, 30.08423
512.5830, 37.58936
513.7640, 35.09766
514.9450, 65.60815
516.1250, 44.12378
517.3060, 29.35815
518.4860, 12.14966
519.6660, 28.33862
520.8460, 31.16211
522.0260, 5.665283
523.2060, 16.17041
524.3850, 0.3215330
525.5650, 26.81104
526.7440, 43.68945
527.9230, 34.80835
529.1020, 0.6809080
530.2810, 54.81616
531.4590, 6.662109
532.6380, 34.14258
533.8160, 1.374512
534.9940, 30.10962
536.1720, 19.99805
537.3500, 55.09570
538.5270, 16.59375
539.7050, 28.09448
540.8820, 33.59717
542.0590, 53.12451
543.2360, 19.65430
544.4130, 18.19360
545.5900, 20.73511
546.7660, 31.72095
547.9430, 2.189697
549.1190, 22.65796
550.2950, 7.134033
551.4710, 5.611572
552.6470, 48.91211
553.8220, 44.43848
554.9980, 94.96729
556.1730, 134.4985
557.3480, 116.0347
558.5230, 99.57422
559.6980, 27.11646
560.8730, 21.66089
562.0470, 20.20776
563.2220, 15.75684
564.3960, 62.30933
565.5700, 4.864502
566.7440, 12.42139
567.9170, 48.98096
569.0910, 31.44922
570.2640, 12.10986
571.4380, 15.67139
572.6110, 48.23511
573.7840, 47.80176
574.9570, 39.37012
576.1290, 24.94092
577.3020, 26.51440
578.4740, 16.09009
579.6460, 93.66821
580.8180, 10.24878
581.9900, 4.831299
583.1620, 5.416748
584.3330, 106.0044
585.5040, 71.59448
586.6760, 132.1868
587.8470, 65.78149
589.0180, 75.37891
590.1880, 12.97803
591.3590, 122.5798
592.5290, 94.18457
593.7000, 101.7910
594.8700, 56.21045
596.0400, 69.62671
597.2090, 80.43604
598.3790, 92.05298
599.5490, 131.6719
600.7180, 167.2932
601.8870, 185.9172
603.0560, 164.5430
604.2250, 282.1714
605.3940, 293.8022
606.5620, 311.4355
607.7300, 395.0710
608.8990, 450.7087
610.0670, 432.3486
611.2350, 455.9917
612.4020, 423.6372
613.5700, 404.2852
614.7370, 358.9370
615.9050, 214.5916
617.0720, 223.2607
618.2390, 208.9321
619.4060, 96.60571
620.5720, 148.2815
621.7390, 109.9597
622.9050, 130.6443
624.0710, 177.3311
625.2370, 151.0203
626.4030, 154.7119
627.5690, 161.4053
628.7340, 77.10107
629.9000, 94.79907
631.0650, 102.4995
632.2300, 124.2017
633.3950, 131.9067
634.5600, 82.61401
635.7240, 94.32349
636.8890, 96.03516
638.0530, 152.7239
639.2170, 113.4429
640.3810, 101.1641
641.5450, 135.8875
642.7080, 203.6125
643.8720, 125.3401
645.0350, 298.0691
646.1980, 278.8000
647.3610, 242.5332
648.5240, 259.2681
649.6870, 285.0049
650.8490, 305.7434
652.0120, 334.4924
653.1740, 421.2432
654.3360, 444.9958
655.4980, 467.7500
656.6600, 703.5061
657.8210, 747.6699
658.9830, 877.4297
660.1440, 1076.655
661.3050, 1279.419
662.4660, 1474.185
663.6270, 1756.953
664.7870, 2080.678
665.9480, 2341.000
667.1080, 2534.774
668.2680, 2518.759
669.4280, 2426.558
670.5880, 2184.162
671.7480, 1912.944
672.9070, 1632.729
674.0670, 1346.432
675.2260, 1075.221
676.3850, 955.0122
677.5440, 735.8054
678.7030, 567.6006
679.8610, 499.3977
681.0200, 376.2874
682.1780, 352.0884
683.3360, 276.3015
684.4940, 240.1072
685.6520, 240.9182
686.8090, 193.9922
687.9670, 160.6890
689.1240, 142.2971
690.2810, 111.5054
691.4380, 91.31421
692.5950, 90.13574
693.7520, 59.95874
694.9080, 89.78394
696.0650, 71.61084
697.2210, 41.43896
698.3770, 128.2695
699.5330, 138.1013
700.6880, 41.93481
701.8440, 66.77026
702.9990, 17.80786
704.1550, 108.6475
705.3100, 86.48901
706.4650, 107.3389
707.6190, 74.02734
708.7740, 72.47314
709.9290, 44.42773
711.0830, 52.28394
712.2370, 35.14307
713.3910, 21.00220
714.5450, 20.80664
715.6980, 15.54663
716.8520, 16.58813
718.0050, 16.45288
719.1580, 28.31909
720.3110, 22.86865
721.4640, 24.05615
722.6170, 3.926758
723.7700, 3.798584
724.9220, 7.671631
726.0740, 17.54614
727.2260, 24.76147
728.3780, 2.299561
729.5300, 41.17847
730.6810, 34.05835
731.8330, 27.93945
732.9840, 17.17798
734.1350, 73.69824
735.2860, 75.68628
736.4370, 15.56519
737.5880, 4.445068
738.7380, 81.32617
739.8880, 34.20874
741.0390, 75.09229
742.1890, 93.97705
743.3380, 39.88721
744.4880, 60.77441
745.6380, 38.66260
746.7870, 43.55200
747.9360, 36.44238
749.0850, 38.91479
750.2340, 53.22974
751.3830, 37.25122
752.5310, 73.61816
753.6800, 43.51367
754.8280, 24.28394
755.9760, 34.18115
757.1240, 52.08105
758.2720, 57.97998
759.4190, 97.87988
760.5670, 52.75439
761.7140, 73.65576
762.8610, 42.55786
764.0080, 66.46045
765.1550, 71.36377
766.3020, 27.26807
767.4480, 65.17554
768.5950, 96.08398
769.7410, 56.99268
770.8870, 69.02075
772.0330, 57.93091
773.1780, 74.84131
774.3240, 44.75269
775.4690, 16.57178
776.6140, 34.33203
777.7590, 41.23633
778.9040, 120.1406
780.0490, 82.04541
781.1940, 86.95117
782.3380, 29.85718
783.4820, 40.84009
784.6260, 44.67017
785.7700, 59.57739
786.9140, 49.48486
788.0580, 84.39575
789.2010, 116.2683
790.3450, 47.17969
791.4880, 106.0925
792.6310, 54.00562
793.7730, 66.91895
794.9160, 79.83228
796.0590, 71.75293
797.2010, 95.67383
798.3430, 61.78662
799.4850, 82.71484
800.6270, 47.64282
801.7690, 107.5708
802.9100, 87.49951
804.0520, 85.61328
805.1930, 0.4516600
806.3340, 1.490479
807.4750, 6.483154
808.6160, 16.43872
809.7560, 59.44067
810.8970, 42.39624
812.0370, 72.35229
813.1770, 53.30811
814.3170, 48.26440
815.4570, 21.22021
816.5960, 24.17603
817.7360, 47.86816
818.8750, 22.06104
820.0140, 21.00977
821.1530, 58.20801
822.2920, 71.92651
823.4310, 62.84302
824.5690, 17.76685
825.7070, 35.69116
826.8460, 23.62061
827.9840, 18.44141
829.1220, 33.48755
830.2590, 24.42139
831.3970, 12.35474
832.5340, 19.28784
833.6710, 48.22070
834.8080, 51.15356
835.9450, 21.08569
837.0820, 69.01807
838.2190, 41.94971
839.3550, 0.1157230
840.4910, 69.04443
841.6270, 43.97314
842.7630, 25.47949
843.8990, 25.59277
845.0350, 2.681396
846.1700, 47.23315
847.3060, 57.14746
848.4410, 9.060791
849.5760, 40.97388
850.7100, 30.88647
851.8450, 40.79834
852.9800, 11.70996
854.1140, 34.62061
855.2480, 30.53101
856.3820, 49.44067
857.5160, 67.35010
858.6500, 66.25879
859.7830, 81.16675
860.9170, 94.07471
862.0500, 44.98145
863.1830, 44.88770
864.3160, 105.7935
865.4480, 82.69873
866.5810, 118.6035
867.7130, 84.50732
868.8460, 33.41064
869.9780, 53.50317
871.1100, 3.405273
872.2410, 73.30591
873.3730, 39.20581
874.5050, 67.10498
875.6360, 44.00366
876.7670, 23.90210
877.8980, 58.79932
879.0290, 7.701660
880.1590, 68.60254
881.2900, 51.50317
882.4200, 60.40308
883.5500, 42.30225
884.6800, 3.200928
885.8100, 76.09741
886.9400, 27.99341
888.0690, 3.111328
889.1990, 10.77930
890.3280, 41.33057
891.4570, 11.53442
892.5860, 10.39868
893.7140, 51.26221
894.8430, 11.13354
895.9710, 10.99561
897.1000, 20.86597
898.2280, 61.72656
899.3560, 47.58691
900.4830, 72.57422
901.6110, 73.30518
902.7380, 76.78931
903.8660, 40.64673
904.9930, 22.50342
906.1200, 4.359375
907.2460, 31.21338
908.3730, 100.0669
909.5000, 60.91943
910.6260, 7.228516
911.7520, 98.64404
912.8780, 54.48755
914.0040, 16.33057
915.1290, 93.17285
916.2550, 17.01465
917.3800, 31.85596
918.5050, 34.69678
919.6300, 68.53687
920.7550, 33.37622
921.8800, 87.21509
923.0040, 20.73096
924.1290, 26.43164
925.2530, 128.3887
926.3770, 32.41235
927.5010, 13.23120
928.6250, 14.04932
929.7480, 84.86719
930.8720, 29.68408
931.9950, 20.50073
933.1180, 2.316650
934.2410, 50.12988
935.3640, 67.94263
936.4860, 49.75464
937.6090, 79.56592
938.7310, 2.376709
939.8530, 63.18506
940.9750, 42.86279
942.0970, 6.636475
943.2180, 14.44189
944.3400, 6.794922
945.4610, 28.05054
946.5820, 25.85352
947.7030, 33.65576
948.8240, 54.45728
949.9450, 44.25806
951.0650, 52.05811
952.1860, 57.85767
953.3060, 55.56592
954.4260, 51.36401
955.5460, 2.248535
956.6650, 10.45435
957.7850, 29.33252
958.9040, 49.11963
960.0230, 70.90649
961.1420, 28.69312
962.2610, 45.85425
963.3800, 59.63989
964.4990, 84.42480
965.6170, 53.20923
966.7350, 68.99341
967.8530, 78.77954
968.9710, 40.56543
970.0890, 22.35059
971.2070, 64.13525
972.3240, 48.91992
973.4410, 1.296143
974.5580, 108.2854
975.6750, 93.06616
976.7920, 23.15332
977.9090, 11.61279
979.0250, 10.54175
980.1410, 71.89453
981.2580, 83.66016
982.3740, 104.4255
983.4890, 110.4446
984.6050, 89.95312
985.7200, 73.71777
986.8360, 81.48242
987.9510, 20.24683
989.0660, 46.01074
990.1810, 71.77539
991.2950, 36.53955
992.4100, 79.30371
993.5240, 24.06763
994.6390, 42.83105
995.7530, 94.59448
996.8660, 44.35815
997.9800, 44.12158
999.0940, 53.88501
1000.207, 115.6482
1001.320, 78.41162
1002.433, 96.17505
1003.546, 130.9380
1004.659, 138.7048
1005.772, 90.39014
1006.884, 126.1567
1007.996, 46.92310
1009.108, 93.68970
1010.220, 5.456299
1011.332, 72.22266
1012.444, 48.14575
1013.555, 75.88818
1014.666, 78.65479
1015.777, 79.42139
1016.888, 128.1875
1017.999, 108.9539
1019.110, 55.58960
1020.220, 110.3560
1021.331, 89.12231
1022.441, 43.55005
1023.551, 64.31665
1024.661, 40.20947
1025.770, 78.97632
1026.880, 69.35596
1027.989, 105.5452
1029.098, 65.31274
1030.207, 65.10693
1031.316, 48.87476
1032.425, 30.64307
1033.533, 23.64380
1034.642, 18.18066
1035.750, 11.04321
1036.858, 59.72754
1037.966, 27.49829
1039.073, 172.2693
1040.181, 182.9221
1041.288, 48.69434
1042.396, 57.46680
1043.503, 155.2393
1044.610, 74.24829
1045.716, 72.02588
1046.823, 148.8047
1047.929, 151.5938
1049.036, 222.3835
1050.142, 193.1777
1051.248, 211.9722
1052.353, 149.7673
1053.459, 136.5630
1054.564, 101.3589
1055.670, 12.84424
1056.775, 109.9465
1057.880, 25.77734
1058.985, 5.422119
1060.089, 105.3767
1061.194, 72.17651
1062.298, 96.97681
1063.402, 61.77783
1064.506, 35.57959
1065.610, 62.38208
1066.713, 97.00049
1067.817, 27.80444
1068.920, 40.60913
1070.023, 117.4146
1071.126, 20.22095
1072.229, 22.84985
1073.332, 127.6575
1074.435, 43.46704
1075.537, 21.22705
1076.639, 38.03857
1077.741, 44.80518
1078.843, 55.61963
1079.945, 59.43506
1081.046, 77.25171
1082.148, 66.06934
1083.249, 110.8877
1084.350, 36.70703
1085.451, 111.5271
1086.551, 57.36108
1087.652, 11.19653
1088.752, 88.73828
1089.853, 25.77979
1090.953, 15.83911
1092.053, 57.68457
1093.152, 78.53125
1094.252, 9.621094
1095.351, 110.2244
1096.451, 23.07056
1097.550, 54.91821
1098.649, 61.76685
1099.748, 91.19556
1100.846, 69.04614
1101.945, 62.89795
1103.043, 74.63892
1104.141, 67.60474
1105.239, 77.45996
1106.337, 42.08643
1107.434, 24.94922
1108.532, 77.81372
1109.629, 19.10083
1110.726, 36.96777
1111.823, 32.84351
1112.920, 24.72266
1114.017, 106.6030
1115.113, 111.4846
1116.210, 58.36743
1117.306, 128.2515
1118.402, 77.16284
1119.498, 166.0496
1120.593, 52.93799
1121.689, 110.8979
1122.784, 121.7888
1123.879, 115.6809
1124.974, 114.5742
1126.069, 109.4688
1127.164, 88.36475
1128.259, 72.26221
1129.353, 74.16064
1130.447, 28.09888
1131.541, 73.00049
1132.635, 91.90283
1133.729, 41.80713
1134.822, 79.71265
1135.916, 64.61963
1137.009, 1.470459
1138.102, 36.44092
1139.195, 22.35327
1140.288, 52.26758
1141.380, 18.18311
1142.473, 20.10034
1143.565, 23.98120
1144.657, 22.92847
1145.749, 5.839844
1146.841, 30.75269
1147.932, 53.66699
1149.024, 96.58276
1150.115, 32.50024
1151.206, 51.41943
1152.297, 19.34058
1153.388, 4.737061
1154.479, 43.18750
1155.569, 42.11377
1156.659, 29.05469
1157.750, 48.99731
1158.839, 38.05762
1159.929, 24.87158
1161.019, 15.80225
1162.108, 73.73877
1163.198, 26.67700
1164.287, 20.61646
1165.376, 51.55786
1166.465, 91.06274
1167.553, 90.38257
1168.642, 61.33032
1169.730, 43.27905
1170.818, 96.22974
1171.906, 105.1824
1172.994, 99.52344
1174.082, 20.09229
1175.170, 89.04956
1176.257, 39.01147
1177.344, 31.97510
1178.431, 35.38208
1179.518, 72.34863
1180.605, 145.1772
1181.691, 138.1465
1182.778, 172.1177
1183.864, 143.0896
1184.950, 215.0630
1186.036, 274.0378
1187.122, 397.3367
1188.207, 476.3142
1189.292, 738.1885
1190.378, 824.9727
1191.463, 895.9629
1192.548, 840.9541
1193.632, 749.9468
1194.717, 601.9409
1195.801, 395.9360
1196.886, 327.9324
1197.970, 272.9309
1199.054, 208.9312
1200.137, 166.9324
1201.221, 161.9348
1202.305, 128.9390
1203.388, 129.9453
1204.471, 103.9526
1205.554, 80.96143
1206.637, 128.9719
1207.719, 77.98364
1208.802, 72.28467
1209.884, 61.29932
1210.966, 46.35010
1212.048, 45.33228
1213.130, 50.35083
1214.212, 56.50854
1215.293, 80.39160
1216.374, 80.41382
1217.456, 86.43750
1218.536, 59.46216
1219.617, 46.48950
1220.698, 4.478271
1221.778, 17.55298
1222.859, 87.62524
1223.939, 30.65869
1225.019, 65.31836
1226.099, 54.35425
1227.178, 35.39111
1228.258, 80.42969
1229.337, 11.53076
1230.417, 47.50488
1231.496, 36.54175
1232.574, 21.57959
1233.653, 86.61865
1234.732, 13.65894
1235.810, 81.80298
1236.888, 61.84668
1237.966, 35.89160
1239.044, 37.93750
1240.122, 97.99146
1241.199, 90.04663
1242.277, 56.10278
1243.354, 43.16016
1244.431, 6.218506
1245.508, 5.215088
1246.585, 28.34668
1247.661, 0.4125980
1248.738, 9.479248
1249.814, 3.546631
1250.890, 0.7226560
1251.966, 14.50806
1253.042, 13.75391
1254.117, 30.82471
1255.193, 66.89624
1256.268, 53.96924
1257.343, 94.04346
1258.418, 61.11841
1259.493, 0.1943360
1260.567, 18.27100
1261.642, 60.34863
1262.716, 104.4287
1263.790, 32.50977
1264.864, 96.60059
1265.938, 96.98657
1267.011, 36.05054
1268.085, 63.14478
1269.158, 75.24023
1270.231, 110.3367
1271.304, 102.4341
1272.377, 105.2222
1273.450, 80.47681
1274.522, 87.57812
1275.594, 51.68018
1276.666, 46.78369
1277.738, 96.88818
1278.810, 65.99365
1279.882, 90.67236
1280.953, 135.2112
1282.025, 87.32007
1283.096, 109.2966
1284.167, 59.40747
1285.238, 35.72900
1286.308, 47.84180
1287.379, 47.14966
1288.449, 39.22876
1289.519, 36.34497
1290.589, 34.51196
1291.659, 57.60229
1292.729, 11.72168
1293.798, 23.84229
1294.868, 26.64648
1295.937, 13.46216
1297.006, 99.57471
1298.075, 7.688232
1299.143, 67.80298
1300.212, 70.91846
1301.280, 61.03467
1302.348, 98.15161
1303.416, 87.26929
1304.484, 47.38794
1305.552, 36.50757
1306.620, 40.35962
1307.687, 31.77515
1308.754, 15.12402
1309.821, 66.97021
1310.888, 2.065430
1311.955, 63.16162
1313.021, 70.25806
1314.088, 102.3557
1315.154, 69.45435
1316.220, 46.55688
1317.286, 31.34009
1318.352, 53.74780
1319.417, 111.8396
1320.483, 54.93286
1321.548, 93.02710
1322.613, 122.1216
1323.678, 94.21509
1324.743, 110.7761
1325.807, 134.4055
1326.872, 91.50195
1327.936, 34.59985
1329.000, 18.69824
1330.064, 92.79785
1331.128, 35.89648
1332.191, 54.99634
1333.255, 67.09692
1334.318, 9.198730
1335.381, 110.3013
1336.444, 5.595215
1337.507, 27.50757
1338.569, 53.61108
1339.632, 63.71582
1340.694, 52.82129
1341.756, 60.92773
1342.818, 120.0352
1343.880, 47.13794
1344.941, 36.24170
1346.003, 90.34619
1347.064, 50.45166
1348.125, 86.55811
1349.186, 62.45068
1350.247, 0.4411620
1351.308, 15.66748
1352.368, 50.77710
1353.428, 80.88965
1354.489, 32.00317
1355.549, 17.11743
1356.608, 93.23242
1357.668, 47.76953
1358.727, 51.88452
1359.787, 14.00024
1360.846, 33.11670
1361.905, 64.23389
1362.964, 18.64795
1364.022, 51.46631
1365.081, 58.58105
1366.139, 44.69678
1367.197, 10.81323
1368.255, 54.92871
1369.313, 70.04346
1370.371, 74.15869
1371.428, 42.30273
1372.486, 27.30054
1373.543, 40.41479
1374.600, 15.58521
1375.657, 64.67456
1376.713, 28.79126
1377.770, 16.90845
1378.826, 49.95532
1379.882, 60.07959
1380.938, 24.19897
1381.994, 64.31958
1383.050, 53.44116
1384.106, 79.59521
1385.161, 100.7190
1386.216, 54.84375
1387.271, 60.93164
1388.326, 75.05884
1389.381, 5.478027
1390.435, 46.60742
1391.490, 60.82153
1392.544, 4.046631
1393.598, 17.08496
1394.652, 44.26880
1395.705, 53.40308
1396.759, 82.53882
1397.812, 16.67578
1398.866, 56.96362
1399.919, 10.10352
1400.972, 56.25000
1402.024, 44.39795
1403.077, 29.54736
1404.129, 39.69849
1405.181, 33.85107
1406.233, 18.00537
1407.285, 8.161377
1408.337, 16.31934
1409.389, 61.47925
1410.440, 65.64160
1411.491, 2.207031
1412.542, 34.94434
1413.593, 1.902344
1414.644, 39.25195
1415.695, 75.41699
1416.745, 5.584229
1417.795, 76.75293
1418.845, 29.92383
1419.895, 74.09131
1420.945, 4.777832
1421.995, 65.81348
1423.044, 90.94312
1424.093, 75.07373
1425.142, 105.2239
1426.191, 116.3550
1427.240, 65.48315
1428.289, 23.61108
1429.337, 63.73901
1430.385, 29.86621
1431.433, 64.99365
1432.481, 9.120850
1433.529, 1.805664
1434.577, 94.93140
1435.624, 91.25293
1436.672, 75.38013
1437.719, 122.5085
1438.766, 104.6394
1439.812, 127.7727
1440.859, 122.9099
1441.905, 104.0513
1442.952, 96.19385
1443.998, 99.66064
1445.044, 133.1589
1446.090, 122.3242
1447.135, 145.5742
1448.181, 171.5825
1449.226, 163.4417
1450.271, 114.5466
1451.316, 148.7427
1452.361, 143.9399
1453.405, 101.1387
1454.450, 150.3391
1455.494, 98.54077
1456.538, 137.4382
1457.582, 193.6399
1458.626, 77.84326
1459.670, 134.0483
1460.713, 149.2546
1461.757, 156.4624
1462.800, 88.62939
1463.843, 93.84253
1464.886, 85.05688
1465.928, 77.27319
1466.971, 79.33203
1468.013, 86.72241
1469.055, 79.63892
1470.097, 81.85522
1471.139, 90.07300
1472.181, 143.2925
1473.222, 44.51343
1474.263, 130.7263
1475.305, 27.94067
1476.346, 87.15698
1477.386, 84.37598
1478.427, 48.59692
1479.468, 102.8191
1480.508, 140.0430
1481.548, 49.26953
1482.588, 75.49365
1483.628, 72.28882
1484.668, 90.48657
1485.707, 87.68481
1486.747, 62.88354
1487.786, 40.08154
1488.825, 41.99023
1489.864, 50.47949
1490.902, 39.67456
1491.941, 58.87451
1492.979, 59.75269
1494.017, 66.64697
1495.055, 47.84009
1496.093, 12.99878
1497.131, 13.80859
1498.168, 29.75342
1499.206, 6.804932
1500.243, 134.1697
1501.280, 29.37964
1502.317, 63.59131
1503.354, 97.78223
1504.390, 19.97241
1505.426, 68.23950
1506.463, 51.50952
1507.499, 42.78247
1508.535, 15.05884
1509.570, 37.36475
1510.606, 80.66846
1511.641, 94.98047
1512.676, 56.29858
1513.711, 3.379883
1514.746, 96.94458
1515.781, 31.72095
1516.816, 76.61719
1517.850, 95.95874
1518.884, 14.30542
1519.918, 112.6565
1520.952, 65.01099
1521.986, 87.39722
1523.019, 2.788330
1524.053, 49.18604
1525.086, 102.5894
1526.119, 30.99951
1527.152, 113.4160
1528.185, 71.83984
1529.217, 69.28320
1530.250, 76.73633
1531.282, 52.20020
1532.314, 34.67505
1533.346, 91.16748
1534.377, 48.68872
1535.409, 91.24976
1536.440, 43.55542
1537.472, 133.0549
1538.503, 121.5696
1539.534, 75.07935
1540.564, 139.6233
1541.595, 113.0569
1542.625, 133.6243
1543.656, 61.98608
1544.686, 94.48462
1545.716, 23.70752
1546.745, 51.67993
1547.775, 31.86255
1548.804, 24.26245
1549.834, 29.36157
1550.863, 45.24048
1551.892, 100.4460
1552.920, 91.41455
1553.949, 103.3179
1554.977, 106.3247
1556.006, 112.2676
1557.034, 72.12524
1558.062, 93.93994
1559.089, 18.94824
1560.117, 100.1318
1561.144, 59.33057
1562.172, 36.79248
1563.199, 48.36084
1564.226, 38.04761
1565.252, 42.89917
1566.279, 86.98071
1567.305, 56.18384
1568.332, 1.364014
1569.358, 85.36572
1570.384, 31.76392
1571.409, 48.25049
1572.435, 0.0000000E+00
##END=



