##NAMES=Diaspore
##RRUFFID=R060546
##IDEAL CHEMISTRY=AlO(OH)
##LOCALITY=Turkey
##OWNER=RRUFF
##SOURCE=Gemological Institute of America
##DESCRIPTION=Platy transparent pale yellow fragment
##STATUS=The identification of this mineral has been confirmed by X-ray diffraction and chemical analysis
##URL=rruff.info/R060546
##MEASURED CHEMISTRY=(Al_0.99_Fe^3+^_0.01_)_Î£=1_O(OH) ; OH estimated by difference; Fe^3+^ by charge balance
##PIN_ID=L01029
##ORIENTATION=Laser parallel to b* (0 1 0). Fiducial mark perpendicular to laser is parallel to c [0 0 1]
132.8980, 0.0000000E+00
134.1270, 1.638672
135.3560, 70.06543
136.5850, 156.0840
137.8140, 13.21191
139.0430, 216.2686
140.2710, 161.4697
141.5000, 352.2803
142.7280, 360.4629
143.9560, 564.8203
145.1840, 488.0498
146.4120, 629.9736
147.6390, 768.4707
148.8670, 749.4688
150.0940, 617.7852
151.3210, 577.2988
152.5490, 600.5283
153.7750, 689.1582
155.0020, 607.3125
156.2290, 799.6689
157.4550, 1136.191
158.6810, 1175.722
159.9080, 747.4531
161.1340, 393.0234
162.3590, 137.4561
163.5850, 127.6240
164.8110, 299.4990
166.0360, 406.0557
167.2610, 243.3740
168.4860, 15.47070
169.7110, 117.4473
170.9360, 19.92773
172.1610, 42.47461
173.3850, 53.53906
174.6100, 20.31250
175.8340, 308.5195
177.0580, 90.32715
178.2820, 71.65039
179.5050, 222.0527
180.7290, 43.67773
181.9520, 174.6055
183.1760, 174.2637
184.3990, 123.0996
185.6220, 157.3223
186.8450, 194.3945
188.0670, 280.1982
189.2900, 357.5986
190.5120, 392.6943
191.7340, 302.5312
192.9560, 237.8672
194.1780, 148.2998
195.4000, 260.2373
196.6220, 250.0469
197.8430, 363.7031
199.0640, 473.5088
200.2860, 429.1836
201.5070, 328.4766
202.7270, 420.6113
203.9480, 349.0146
205.1690, 392.9717
206.3890, 305.0391
207.6090, 68.48145
208.8290, 84.23828
210.0490, 227.8740
211.2690, 21.38379
212.4890, 129.0254
213.7080, 314.0322
214.9280, 273.8145
216.1470, 100.6455
217.3660, 37.78418
218.5850, 184.7861
219.8030, 318.9990
221.0220, 119.6494
222.2400, 254.6680
223.4590, 298.6738
224.6770, 116.0889
225.8950, 240.4160
227.1120, 171.6309
228.3300, 347.8682
229.5480, 354.1172
230.7650, 127.3828
231.9820, 290.6582
233.1990, 173.9443
234.4160, 241.2383
235.6330, 267.5352
236.8490, 55.83398
238.0660, 71.13281
239.2820, 380.4336
240.4980, 236.3633
241.7140, 256.0332
242.9300, 226.3301
244.1460, 239.6191
245.3610, 125.8838
246.5770, 96.87988
247.7920, 272.8877
249.0070, 72.07324
250.2220, 105.2422
251.4370, 260.3945
252.6510, 322.5234
253.8660, 160.6328
255.0800, 204.7236
256.2940, 137.3477
257.5080, 135.3994
258.7220, 313.4170
259.9360, 721.4170
261.1490, 998.4033
262.3630, 440.3740
263.5760, 193.2422
264.7890, 142.0898
266.0020, 99.92578
267.2150, 108.7500
268.4270, 137.5635
269.6400, 91.36816
270.8520, 128.1631
272.0640, 90.95020
273.2760, 149.7246
274.4880, 57.48730
275.7000, 238.2383
276.9120, 16.97949
278.1230, 107.7031
279.3340, 33.85938
280.5450, 60.84375
281.7560, 82.94141
282.9670, 6.296875
284.1780, 50.42383
285.3880, 24.14746
286.5980, 125.1338
287.8090, 13.58301
289.0190, 46.31543
290.2290, 63.92090
291.4380, 55.85645
292.6480, 15.67188
293.8570, 99.48730
295.0670, 100.3730
296.2760, 62.72070
297.4850, 42.19727
298.6930, 88.17285
299.9020, 1.210938
301.1110, 160.7334
302.3190, 200.6670
303.5270, 38.43164
304.7350, 51.43652
305.9430, 69.73145
307.1510, 130.0381
308.3580, 28.22949
309.5660, 128.4688
310.7730, 13.85059
311.9800, 22.21875
313.1870, 90.36328
314.3940, 50.91406
315.6010, 142.5645
316.8070, 283.5869
318.0130, 131.9365
319.2200, 160.2500
320.4260, 399.5215
321.6310, 194.7344
322.8370, 367.9043
324.0430, 513.0371
325.2480, 735.1230
326.4540, 960.1719
327.6590, 1438.182
328.8640, 2032.156
330.0680, 3170.102
331.2730, 4690.990
332.4780, 7387.847
333.6820, 10130.68
334.8860, 10993.49
336.0900, 9552.166
337.2940, 6700.811
338.4980, 4343.436
339.7010, 2796.041
340.9050, 1911.625
342.1080, 1393.191
343.3110, 1212.738
344.5140, 908.2715
345.7170, 709.7832
346.9200, 613.2754
348.1220, 564.7480
349.3240, 423.2012
350.5270, 446.6289
351.7290, 428.0332
352.9310, 306.1953
354.1320, 150.3027
355.3340, 363.5098
356.5350, 391.4902
357.7370, 198.4902
358.9380, 194.5254
360.1390, 257.4824
361.3400, 41.92383
362.5400, 359.3574
363.7410, 206.1289
364.9410, 387.8594
366.1410, 195.1426
367.3410, 424.8145
368.5410, 425.4531
369.7410, 540.3965
370.9400, 620.9512
372.1400, 566.3008
373.3390, 374.8574
374.5380, 305.4102
375.7370, 313.5117
376.9360, 119.0645
378.1350, 21.45117
379.3330, 343.0000
380.5310, 252.5488
381.7300, 276.7051
382.9280, 108.2031
384.1260, 185.7500
385.3230, 346.2969
386.5210, 326.8418
387.7180, 319.3887
388.9160, 303.9336
390.1130, 345.1484
391.3100, 384.2383
392.5060, 454.7793
393.7030, 564.4668
394.9000, 496.5547
396.0960, 414.1016
397.2920, 518.6465
398.4880, 528.0801
399.6840, 580.6309
400.8800, 533.9785
402.0750, 406.3262
403.2710, 376.8809
404.4660, 288.4375
405.6610, 619.9961
406.8560, 211.5605
408.0510, 481.1270
409.2450, 253.5605
410.4400, 432.7871
411.6340, 381.1035
412.8280, 316.5508
414.0220, 289.7559
415.2160, 533.1875
416.4100, 666.4219
417.6030, 378.9668
418.7970, 358.8965
419.9900, 143.5078
421.1830, 423.5391
422.3760, 304.9551
423.5690, 315.5410
424.7610, 353.5801
425.9540, 310.5781
427.1460, 352.2715
428.3380, 361.8047
429.5300, 412.2109
430.7220, 512.6719
431.9140, 596.0137
433.1050, 718.2969
434.2970, 788.3438
435.4880, 1018.721
436.6790, 1275.705
437.8700, 1434.152
439.0610, 2022.115
440.2510, 2632.654
441.4420, 3248.443
442.6320, 4124.320
443.8220, 5323.430
445.0120, 7339.900
446.2020, 10930.45
447.3910, 17382.83
448.5810, 28187.69
449.7700, 42918.45
450.9600, 47169.89
452.1490, 46520.79
453.3370, 33610.80
454.5260, 20755.07
455.7150, 12577.82
456.9030, 7889.062
458.0910, 5360.992
459.2800, 3898.191
460.4670, 2948.717
461.6550, 2566.160
462.8430, 2026.689
464.0300, 1551.219
465.2180, 1518.750
466.4050, 1280.283
467.5920, 1439.818
468.7790, 1110.354
469.9650, 958.8926
471.1520, 862.4355
472.3380, 974.9824
473.5250, 640.5293
474.7110, 741.0781
475.8970, 748.6328
477.0820, 624.1914
478.2680, 707.7520
479.4540, 411.3203
480.6390, 329.8906
481.8240, 422.4668
483.0090, 348.0469
484.1940, 292.6309
485.3780, 562.2207
486.5630, 537.8164
487.7470, 728.4180
488.9320, 962.0254
490.1160, 1295.088
491.3000, 1634.467
492.4830, 2342.881
493.6670, 2921.512
494.8500, 3822.150
496.0340, 5533.797
497.2170, 8090.449
498.4000, 12872.11
499.5820, 21247.79
500.7650, 30701.48
501.9480, 34484.19
503.1300, 28312.89
504.3120, 18599.17
505.4940, 10766.91
506.6760, 6178.652
507.8580, 3853.406
509.0390, 2460.172
510.2210, 1836.945
511.4020, 1345.732
512.5830, 1083.531
513.7640, 743.3418
514.9450, 714.1641
516.1250, 708.9980
517.3060, 642.8418
518.4860, 595.6211
519.6660, 537.5703
520.8460, 389.9824
522.0260, 268.8750
523.2060, 258.7891
524.3850, 188.6621
525.5650, 207.6387
526.7440, 210.5898
527.9230, 131.5508
529.1020, 243.5254
530.2810, 258.5078
531.4590, 341.5059
532.6380, 118.5176
533.8160, 309.5957
534.9940, 123.6875
536.1720, 233.7910
537.3500, 230.9160
538.5270, 249.0820
539.7050, 181.2793
540.8820, 210.5254
542.0590, 72.81641
543.2360, 226.1523
544.4130, 263.5137
545.5900, 47.88867
546.7660, 144.2773
547.9430, 321.6953
549.1190, 389.1641
550.2950, 219.6445
551.4710, 279.1660
552.6470, 365.7012
553.8220, 652.2480
554.9980, 817.8457
556.1730, 1035.459
557.3480, 925.0840
558.5230, 716.7285
559.6980, 426.3926
560.8730, 553.0762
562.0470, 386.7734
563.2220, 315.4922
564.3960, 237.2246
565.5700, 327.9746
566.7440, 160.7383
567.9170, 71.45117
569.0910, 262.3555
570.2640, 51.79883
571.4380, 169.0605
572.6110, 141.9316
573.7840, 150.8320
574.9570, 15.76758
576.1290, 25.28125
577.3020, 51.29688
578.4740, 8.304688
579.6460, 81.29688
580.8180, 69.26953
581.9900, 11.24805
583.1620, 10.19727
584.3330, 118.1035
585.5040, 116.0273
586.6760, 98.01562
587.8470, 110.9258
589.0180, 97.12305
590.1880, 15.18750
591.3590, 69.29492
592.5290, 108.5840
593.7000, 90.47070
594.8700, 35.62109
596.0400, 104.7441
597.2090, 19.89453
598.3790, 34.93945
599.5490, 180.2324
600.7180, 118.4668
601.8870, 61.71289
603.0560, 121.9727
604.2250, 113.2441
605.3940, 422.5332
606.5620, 481.8340
607.7300, 537.1484
608.8990, 718.4746
610.0670, 700.8145
611.2350, 761.1660
612.4020, 673.5371
613.5700, 805.9199
614.7370, 798.3184
615.9050, 565.7266
617.0720, 539.1504
618.2390, 573.5879
619.4060, 547.0352
620.5720, 507.4980
621.7390, 473.9746
622.9050, 846.4629
624.0710, 804.9941
625.2370, 1013.535
626.4030, 1198.088
627.5690, 1087.658
628.7340, 1360.238
629.9000, 1307.832
631.0650, 1092.439
632.2300, 936.0586
633.3950, 703.6895
634.5600, 893.3340
635.7240, 655.9902
636.8890, 721.6602
638.0530, 635.3438
639.2170, 802.0391
640.3810, 867.7461
641.5450, 969.4648
642.7080, 975.1992
643.8720, 1054.943
645.0350, 1394.701
646.1980, 1366.473
647.3610, 1453.256
648.5240, 1848.049
649.6870, 1880.855
650.8490, 2057.674
652.0120, 2305.502
653.1740, 2357.344
654.3360, 2780.197
655.4980, 3314.074
656.6600, 3605.967
657.8210, 4430.883
658.9830, 4941.807
660.1440, 6059.746
661.3050, 7347.697
662.4660, 8773.658
663.6270, 10345.63
664.7870, 12402.63
665.9480, 14319.64
667.1080, 15932.72
668.2680, 16892.81
669.4280, 16921.91
670.5880, 16108.03
671.7480, 14413.16
672.9070, 12658.23
674.0670, 10654.39
675.2260, 9086.543
676.3850, 7600.400
677.5440, 6224.361
678.7030, 5360.246
679.8610, 4442.273
681.0200, 3773.617
682.1780, 2973.055
683.3360, 2805.182
684.4940, 2387.527
685.6520, 1997.771
686.8090, 2098.457
687.9670, 1719.812
689.1240, 1600.074
690.2810, 1584.338
691.4380, 1287.611
692.5950, 1152.889
693.7520, 1302.176
694.9080, 1152.670
696.0650, 1252.963
697.2210, 1210.955
698.3770, 1352.754
699.5330, 1370.018
700.6880, 1304.352
701.8440, 1163.902
702.9990, 1207.242
704.1550, 1246.584
705.3100, 1067.930
706.4650, 1133.281
707.6190, 879.0449
708.7740, 1053.402
709.9290, 754.0449
711.0830, 711.4062
712.2370, 867.7676
713.3910, 734.1348
714.5450, 676.5020
715.6980, 771.1719
716.8520, 719.8320
718.0050, 756.5938
719.1580, 743.7852
720.3110, 772.1367
721.4640, 713.2383
722.6170, 646.3652
723.7700, 653.8359
724.9220, 681.1777
726.0740, 531.5625
727.2260, 503.2988
728.3780, 491.6895
729.5300, 623.0820
730.6810, 806.4766
731.8330, 838.3340
732.9840, 745.1426
734.1350, 538.5391
735.2860, 550.9414
736.4370, 629.3438
737.5880, 667.6738
738.7380, 678.0742
739.8880, 676.4785
741.0390, 721.8848
742.1890, 572.2910
743.3380, 436.6992
744.4880, 539.1074
745.6380, 555.5156
746.7870, 411.9258
747.9360, 625.3359
749.0850, 394.7441
750.2340, 579.7520
751.3830, 477.3125
752.5310, 472.7227
753.6800, 625.1328
754.8280, 248.5410
755.9760, 187.9512
757.1240, 273.4004
758.2720, 341.8086
759.4190, 280.2227
760.5670, 360.6289
761.7140, 109.2988
762.8610, 368.7031
764.0080, 91.10742
765.1550, 290.5078
766.3020, 341.9062
767.4480, 357.3047
768.5950, 349.7012
769.7410, 352.0957
770.8870, 367.4863
772.0330, 297.8770
773.1780, 200.2676
774.3240, 247.6523
775.4690, 183.1602
776.6140, 214.5410
777.7590, 420.9219
778.9040, 203.2988
780.0490, 367.6699
781.1940, 351.0410
782.3380, 60.40820
783.4820, 257.7754
784.6260, 194.1348
785.7700, 262.4980
786.9140, 229.8535
788.0580, 257.2070
789.2010, 260.5566
790.3450, 308.9004
791.4880, 367.2441
792.6310, 301.7363
793.7730, 235.6621
794.9160, 268.9863
796.0590, 248.3145
797.2010, 227.6387
798.3430, 154.1113
799.4850, 54.42578
800.6270, 174.7363
801.7690, 132.0840
802.9100, 195.3848
804.0520, 205.5566
805.1930, 191.4941
806.3340, 123.1289
807.4750, 117.2109
808.6160, 123.4805
809.7560, 22.95117
810.8970, 109.2812
812.0370, 76.50781
813.1770, 16.62305
814.3170, 83.01172
815.4570, 49.51172
816.5960, 99.32227
817.7360, 88.15625
818.8750, 89.45898
820.0140, 20.57812
821.1530, 43.26367
822.2920, 131.1035
823.4310, 29.06641
824.5690, 119.2754
825.7070, 136.4316
826.8460, 69.86914
827.9840, 180.7715
829.1220, 147.4062
830.2590, 101.9668
831.3970, 37.84961
832.5340, 99.39258
833.6710, 17.92773
834.8080, 4.859375
835.9450, 15.53711
837.0820, 76.83984
838.2190, 41.31445
839.3550, 95.78125
840.4910, 177.2383
841.6270, 141.6895
842.7630, 200.1367
843.8990, 291.5723
845.0350, 197.0137
846.1700, 181.4512
847.3060, 314.8867
848.4410, 189.3164
849.5760, 381.7383
850.7100, 272.1523
851.8450, 341.5625
852.9800, 454.9668
854.1140, 360.3711
855.2480, 273.7715
856.3820, 401.1777
857.5160, 437.5918
858.6500, 455.9961
859.7830, 634.3965
860.9170, 603.8125
862.0500, 481.2422
863.1830, 868.6680
864.3160, 635.1055
865.4480, 519.5371
866.5810, 738.9609
867.7130, 522.3770
868.8460, 241.8066
869.9780, 486.2480
871.1100, 464.6855
872.2410, 88.11328
873.3730, 293.5352
874.5050, 212.9570
875.6360, 302.3691
876.7670, 201.7773
877.8980, 114.1797
879.0290, 253.5703
880.1590, 346.9590
881.2900, 169.3379
882.4200, 233.7090
883.5500, 121.0742
884.6800, 89.54297
885.8100, 18.78516
886.9400, 40.12305
888.0690, 175.4531
889.1990, 180.7754
890.3280, 79.09180
891.4570, 288.4004
892.5860, 48.70312
893.7140, 108.9980
894.8430, 52.28711
895.9710, 303.5684
897.1000, 77.15820
898.2280, 323.0547
899.3560, 215.2617
900.4830, 101.4629
901.6110, 103.6602
902.7380, 158.8477
903.8660, 307.0312
904.9930, 213.2070
906.1200, 213.3770
907.2460, 252.5391
908.3730, 154.6973
909.5000, 109.8477
910.6260, 36.99219
911.7520, 205.1270
912.8780, 219.2578
914.0040, 267.3809
915.1290, 109.4980
916.2550, 284.6113
917.3800, 48.71680
918.5050, 242.8164
919.6300, 219.9102
920.7550, 45.99805
921.8800, 120.0781
923.0040, 84.15234
924.1290, 87.22461
925.2530, 59.35742
926.3770, 86.34570
927.5010, 32.60352
928.6250, 10.41602
929.7480, 14.57812
930.8720, 93.40430
931.9950, 210.3809
933.1180, 27.35156
934.2410, 322.3145
935.3640, 309.2734
936.4860, 32.77344
937.6090, 170.1465
938.7310, 205.9375
939.8530, 81.85352
940.9750, 118.6387
942.0970, 14.57812
943.2180, 40.17969
944.3400, 14.93555
945.4610, 132.7480
946.5820, 116.4902
947.7030, 1.771484
948.8240, 17.27539
949.9450, 4.255859
951.0650, 209.3203
952.1860, 77.24805
953.3060, 106.8789
954.4260, 219.4355
955.5460, 199.3105
956.6650, 208.4297
957.7850, 200.9375
958.9040, 179.0762
960.0230, 133.7520
961.1420, 183.5273
962.2610, 221.3047
963.3800, 148.0938
964.4990, 106.8809
965.6170, 15.30664
966.7350, 113.3047
967.8530, 49.83203
968.9710, 107.7559
970.0890, 88.55078
971.2070, 40.39844
972.3240, 107.1816
973.4410, 210.7500
974.5580, 91.53711
975.6750, 190.3242
976.7920, 46.11328
977.9090, 24.90430
979.0250, 225.6953
980.1410, 331.4922
981.2580, 248.2891
982.3740, 98.08984
983.4890, 67.89062
984.6050, 64.69336
985.7200, 122.5000
986.8360, 123.3047
987.9510, 407.1152
989.0660, 530.9277
990.1810, 376.7383
991.2950, 212.5547
992.4100, 353.3730
993.5240, 485.1953
994.6390, 279.0488
995.7530, 351.9043
996.8660, 409.7637
997.9800, 304.6230
999.0940, 421.4844
1000.207, 504.3516
1001.320, 624.2188
1002.433, 737.0918
1003.546, 1463.508
1004.659, 1416.385
1005.772, 1209.439
1006.884, 1020.320
1007.996, 680.2070
1009.108, 661.0977
1010.220, 536.0469
1011.332, 699.9414
1012.444, 754.8398
1013.555, 592.7422
1014.666, 764.6484
1015.777, 619.5566
1016.888, 642.4688
1017.999, 632.3867
1019.110, 576.3086
1020.220, 617.3672
1021.331, 736.4121
1022.441, 678.3477
1023.551, 722.2852
1024.661, 799.2285
1025.770, 597.1738
1026.880, 828.0859
1027.989, 779.0449
1029.098, 536.9961
1030.207, 538.9648
1031.316, 724.6738
1032.425, 526.6504
1033.533, 507.2031
1034.642, 309.1953
1035.750, 448.1895
1036.858, 406.1914
1037.966, 472.2012
1039.073, 477.2129
1040.181, 450.6738
1041.288, 614.2598
1042.396, 437.2930
1043.503, 603.3320
1044.610, 690.2520
1045.716, 820.3047
1046.823, 969.3633
1047.929, 936.4277
1049.036, 1171.500
1050.142, 1478.580
1051.248, 1597.668
1052.353, 1276.760
1053.459, 1293.859
1054.564, 766.9648
1055.670, 727.0801
1056.775, 422.2031
1057.880, 377.3340
1058.985, 250.4707
1060.089, 433.6172
1061.194, 451.6172
1062.298, 286.1875
1063.402, 258.3633
1064.506, 243.9805
1065.610, 324.7266
1066.713, 246.7637
1067.817, 290.9668
1068.920, 328.1777
1070.023, 113.3555
1071.126, 241.5859
1072.229, 205.9473
1073.332, 522.1953
1074.435, 270.4551
1075.537, 520.9199
1076.639, 245.1992
1077.741, 370.1855
1078.843, 180.5098
1079.945, 579.8457
1081.046, 381.7812
1082.148, 601.6484
1083.249, 564.6797
1084.350, 334.7598
1085.451, 736.0020
1086.551, 540.1582
1087.652, 589.7051
1088.752, 573.2793
1089.853, 644.8633
1090.953, 533.9844
1092.053, 238.6035
1093.152, 258.2734
1094.252, 325.9512
1095.351, 368.0488
1096.451, 542.7734
1097.550, 313.9531
1098.649, 333.4668
1099.748, 469.2598
1100.846, 173.0625
1101.945, 332.9023
1103.043, 283.7363
1104.141, 365.5840
1105.239, 56.44336
1106.337, 117.3164
1107.434, 190.1973
1108.532, 323.0898
1109.629, 235.9961
1110.726, 43.90820
1111.823, 269.8340
1112.920, 172.7285
1114.017, 274.5254
1115.113, 249.6719
1116.210, 497.6406
1117.306, 570.6191
1118.402, 703.6094
1119.498, 702.6094
1120.593, 874.6211
1121.689, 815.6035
1122.784, 958.6758
1123.879, 955.3613
1124.974, 905.7773
1126.069, 900.5918
1127.164, 891.6699
1128.259, 721.7578
1129.353, 659.1270
1130.447, 416.9688
1131.541, 423.0898
1132.635, 253.2227
1133.729, 174.3672
1134.822, 23.47852
1135.916, 21.68164
1137.009, 10.14844
1138.102, 174.0332
1139.195, 223.2266
1140.288, 167.4297
1141.380, 3.349609
1142.473, 57.89844
1143.565, 249.1582
1144.657, 31.42969
1145.749, 159.7129
1146.841, 314.0352
1147.932, 270.3691
1149.024, 207.7129
1150.115, 46.06836
1151.206, 168.4336
1152.297, 392.8164
1153.388, 133.2090
1154.479, 294.6250
1155.569, 116.0723
1156.659, 66.54102
1157.750, 271.0215
1158.839, 67.51367
1159.929, 106.0156
1161.019, 192.5332
1162.108, 227.0605
1163.198, 175.6387
1164.287, 21.77539
1165.376, 403.8164
1166.465, 182.4238
1167.553, 84.04102
1168.642, 332.6699
1169.730, 383.3105
1170.818, 183.9629
1171.906, 136.6289
1172.994, 226.3027
1174.082, 319.9922
1175.170, 333.6914
1176.257, 50.40625
1177.344, 379.1289
1178.431, 258.8633
1179.518, 456.6133
1180.605, 745.3730
1181.691, 534.1465
1182.778, 644.9297
1183.864, 709.7246
1184.950, 788.5312
1186.036, 1272.350
1187.122, 1340.182
1188.207, 2012.023
1189.292, 2464.879
1190.378, 3169.746
1191.463, 3378.623
1192.548, 3064.529
1193.632, 2518.449
1194.717, 1969.387
1195.801, 1294.340
1196.886, 984.3027
1197.970, 788.2793
1199.054, 407.2695
1200.137, 331.2695
1201.221, 374.2988
1202.305, 372.3359
1203.388, 179.4453
1204.471, 251.5664
1205.554, 98.69922
1206.637, 69.41211
1207.719, 210.0137
1208.802, 2.189453
1209.884, 2.376953
1210.966, 13.42383
1212.048, 165.2129
1213.130, 28.93555
1214.212, 16.90430
1215.293, 60.74023
1216.374, 76.58789
1217.456, 237.5410
1218.536, 239.6836
1219.617, 112.8320
1220.698, 55.00586
1221.778, 106.1445
1222.859, 26.30469
1223.939, 169.4766
1225.019, 51.34375
1226.099, 126.8262
1227.178, 140.9922
1228.258, 84.13477
1229.337, 15.26953
1230.417, 289.4180
1231.496, 51.42383
1232.574, 128.7461
1233.653, 131.9258
1234.732, 273.1152
1235.810, 240.3125
1236.888, 286.5234
1237.966, 148.7441
1239.044, 237.9707
1240.122, 279.2090
1241.199, 141.4551
1242.277, 95.71289
1243.354, 221.9766
1244.431, 123.2520
1245.508, 215.5352
1246.585, 388.8281
1247.661, 100.1289
1248.738, 389.4414
1249.814, 151.7617
1250.890, 384.0898
1251.966, 120.4297
1253.042, 114.7773
1254.117, 203.1523
1255.193, 124.4648
1256.268, 319.8770
1257.343, 140.2285
1258.418, 80.59180
1259.493, 101.9590
1260.567, 157.3359
1261.642, 98.72461
1262.716, 287.1172
1263.790, 352.5234
1264.864, 257.4141
1265.938, 340.8555
1267.011, 246.1289
1268.085, 363.6406
1269.158, 298.1094
1270.231, 395.7754
1271.304, 453.1133
1272.377, 491.6074
1273.450, 543.6406
1274.522, 500.8203
1275.594, 564.1484
1276.666, 527.6758
1277.738, 423.2148
1278.810, 392.7578
1279.882, 396.3125
1280.953, 410.8730
1282.025, 339.4414
1283.096, 520.8848
1284.167, 350.4238
1285.238, 444.9863
1286.308, 355.5879
1287.379, 632.1934
1288.449, 519.3398
1289.519, 510.7539
1290.589, 449.0625
1291.659, 392.7852
1292.729, 381.4297
1293.798, 354.5117
1294.868, 458.1738
1295.937, 438.8438
1297.006, 398.5195
1298.075, 244.2012
1299.143, 396.8887
1300.212, 265.5840
1301.280, 295.2852
1302.348, 222.9941
1303.416, 525.7070
1304.484, 277.4258
1305.552, 221.1523
1306.620, 98.88281
1307.687, 422.6211
1308.754, 497.3633
1309.821, 449.1133
1310.888, 315.8691
1311.955, 573.6309
1313.021, 673.3984
1314.088, 414.1699
1315.154, 455.9473
1316.220, 575.7324
1317.286, 540.5254
1318.352, 663.3242
1319.417, 432.1289
1320.483, 546.9414
1321.548, 657.7598
1322.613, 755.5820
1323.678, 532.4043
1324.743, 499.2324
1325.807, 492.0684
1326.872, 363.9082
1327.936, 365.9551
1329.000, 437.6074
1330.064, 308.4668
1331.128, 405.3301
1332.191, 405.2012
1333.255, 356.0762
1334.318, 345.9570
1335.381, 451.8457
1336.444, 67.73828
1337.507, 368.6250
1338.569, 253.5215
1339.632, 440.9395
1340.694, 206.1758
1341.756, 252.1055
1342.818, 149.3789
1343.880, 64.54297
1344.941, 218.8398
1346.003, 164.7930
1347.064, 157.7539
1348.125, 235.7266
1349.186, 88.17578
1350.247, 221.1602
1351.308, 167.1484
1352.368, 396.1484
1353.428, 369.7734
1354.489, 103.7891
1355.549, 289.3672
1356.608, 282.3984
1357.668, 63.43750
1358.727, 123.4805
1359.787, 171.1016
1360.846, 197.1562
1361.905, 53.18750
1362.964, 138.7305
1364.022, 37.23828
1365.081, 165.2578
1366.139, 78.28516
1367.197, 44.30078
1368.255, 175.2773
1369.313, 151.2656
1370.371, 264.2578
1371.428, 131.2383
1372.486, 256.2227
1373.543, 212.2188
1374.600, 198.2188
1375.657, 170.2188
1376.713, 212.2305
1377.770, 232.2461
1378.826, 200.2734
1379.882, 133.3008
1380.938, 182.7383
1381.994, 51.77344
1383.050, 85.73828
1384.106, 268.7891
1385.161, 342.8477
1386.216, 189.9102
1387.271, 216.9844
1388.326, 117.0586
1389.381, 10.14062
1390.435, 430.2266
1391.490, 215.8984
1392.544, 185.0000
1393.598, 397.1094
1394.652, 9.449219
1395.705, 115.5742
1396.759, 14.29297
1397.812, 60.16797
1398.866, 50.94531
1399.919, 160.0703
1400.972, 5.195313
1402.024, 89.67578
1403.077, 227.4375
1404.129, 199.5508
1405.181, 185.6680
1406.233, 59.79688
1407.285, 43.92969
1408.337, 46.06250
1409.389, 24.98828
1410.440, 74.64453
1411.491, 26.51562
1412.542, 134.6172
1413.593, 295.7539
1414.644, 43.90234
1415.695, 277.9922
1416.745, 31.06250
1417.795, 27.86328
1418.845, 238.2070
1419.895, 122.2852
1420.945, 363.3516
1421.995, 80.35938
1423.044, 186.3672
1424.093, 161.3672
1425.142, 154.3750
1426.191, 242.3867
1427.240, 252.1992
1428.289, 297.2344
1429.337, 352.4180
1430.385, 331.4258
1431.433, 362.4336
1432.481, 270.4375
1433.529, 435.4414
1434.577, 228.4453
1435.624, 621.4102
1436.672, 730.3789
1437.719, 677.3438
1438.766, 650.3125
1439.812, 971.2852
1440.859, 950.2578
1441.905, 1137.578
1442.952, 1051.930
1443.998, 1201.254
1445.044, 1271.785
1446.090, 1088.758
1447.135, 1255.582
1448.181, 1098.566
1449.226, 1447.395
1450.271, 1019.656
1451.316, 1505.922
1452.361, 1513.199
1453.405, 1581.477
1454.450, 1523.758
1455.494, 1331.047
1456.538, 1361.340
1457.582, 1446.645
1458.626, 1294.031
1459.670, 1478.445
1460.713, 1236.914
1461.757, 1394.395
1462.800, 1187.906
1463.843, 1098.426
1464.886, 1309.973
1465.928, 1155.602
1466.971, 1061.242
1468.013, 945.9180
1469.055, 951.6016
1470.097, 932.2891
1471.139, 908.9961
1472.181, 701.7109
1473.222, 890.4375
1474.263, 758.1797
1475.305, 672.9258
1476.346, 849.6875
1477.386, 620.4609
1478.427, 395.1992
1479.468, 750.0078
1480.508, 540.8281
1481.548, 539.6641
1482.588, 324.5078
1483.628, 345.5117
1484.668, 624.0586
1485.707, 460.2031
1486.747, 470.4258
1487.786, 717.9062
1488.825, 321.1602
1489.864, 532.8398
1490.902, 384.5234
1491.941, 361.3750
1492.979, 470.3672
1494.017, 245.9062
1495.055, 636.4492
1496.093, 273.6523
1497.131, 352.1602
1498.168, 387.6680
1499.206, 359.1797
1500.243, 219.6992
1501.280, 371.2305
1502.317, 294.7695
1503.354, 387.3203
1504.390, 436.8750
1505.426, 59.55078
1506.463, 370.0312
1507.499, 15.37109
1508.535, 211.2227
1509.570, 138.8281
1510.606, 205.4375
1511.641, 82.07031
1512.676, 257.7188
1513.711, 195.3750
1514.746, 250.0352
1515.781, 59.29688
1516.816, 166.3711
1517.850, 260.0391
1518.884, 18.70703
1519.918, 351.3711
1520.952, 63.02734
1521.986, 249.6641
1523.019, 324.2969
1524.053, 374.9102
1525.086, 324.5078
1526.119, 403.0898
1527.152, 377.3086
1528.185, 385.1875
1529.217, 365.6992
1530.250, 302.3008
1531.282, 304.0820
1532.314, 258.9570
1533.346, 339.0586
1534.377, 272.3203
1535.409, 303.7148
1536.440, 230.1406
1537.472, 264.6055
1538.503, 419.1133
1539.534, 224.4727
1540.564, 273.2344
1541.595, 101.1172
1542.625, 172.0000
1543.656, 333.8828
1544.686, 10.12891
1545.716, 388.9922
1546.745, 163.9844
1547.775, 355.9023
1548.804, 317.7617
1549.834, 338.5273
1550.863, 454.1953
1551.892, 318.7422
1552.920, 255.1406
1553.949, 425.3164
1554.977, 526.1992
1556.006, 581.7266
1557.034, 761.1172
1558.062, 662.5508
1559.089, 372.8438
1560.117, 446.6367
1561.144, 344.3906
1562.172, 171.0625
1563.199, 128.6680
1564.226, 72.28125
1565.252, 1.324219
1566.279, 0.2460940
1567.305, 6.617188
1568.332, 1.671875
1569.358, 154.1055
1570.384, 140.2539
1571.409, 0.9882810
1572.435, 0.0000000E+00
##END=



