##NAMES=Diaspore
##RRUFFID=R060546
##IDEAL CHEMISTRY=AlO(OH)
##LOCALITY=Turkey
##OWNER=RRUFF
##SOURCE=Gemological Institute of America
##DESCRIPTION=Platy transparent pale yellow fragment
##STATUS=The identification of this mineral has been confirmed by X-ray diffraction and chemical analysis
##URL=rruff.info/R060546
##MEASURED CHEMISTRY=(Al_0.99_Fe^3+^_0.01_)_Î£=1_O(OH) ; OH estimated by difference; Fe^3+^ by charge balance
##PIN_ID=L01029
##ORIENTATION=Laser parallel to b* (0 1 0). Fiducial mark perpendicular to laser is parallel to c [0 0 1]
132.8980, 0.0000000E+00
134.1270, 49.75696
135.3560, 1.470215
136.5850, 51.06580
137.8140, 7.569214
139.0430, 56.50500
140.2710, 59.51501
141.5000, 76.31726
142.7280, 143.7498
143.9560, 201.7765
145.1840, 228.2523
146.4120, 284.0952
147.6390, 354.1763
148.8670, 535.4441
150.0940, 684.8502
151.3210, 1098.342
152.5490, 1609.634
153.7750, 2869.838
155.0020, 5259.608
156.2290, 9367.834
157.4550, 11760.45
158.6810, 9941.778
159.9080, 6115.005
161.1340, 3073.114
162.3590, 1540.112
163.5850, 831.9041
164.8110, 455.7407
166.0360, 339.4324
167.2610, 256.1594
168.4860, 124.5762
169.7110, 75.20300
170.9360, 106.7235
172.1610, 98.49780
173.3850, 100.6372
174.6100, 71.67175
175.8340, 53.70032
177.0580, 18.14624
178.2820, 75.50244
179.5050, 46.11438
180.7290, 74.07007
181.9520, 17.95972
183.1760, 35.48083
184.3990, 65.95349
185.6220, 15.92249
186.8450, 34.80225
188.0670, 70.70068
189.2900, 58.15479
190.5120, 38.08899
191.7340, 69.63574
192.9560, 34.36926
194.1780, 14.40723
195.4000, 53.20813
196.6220, 63.55249
197.8430, 45.89819
199.0640, 115.4501
200.2860, 0.8713380
201.5070, 51.36694
202.7270, 62.43152
203.9480, 51.38794
205.1690, 35.87854
206.3890, 32.21326
207.6090, 19.47888
208.8290, 15.26257
210.0490, 2.511841
211.2690, 16.61475
212.4890, 38.96252
213.7080, 21.29016
214.9280, 63.63757
216.1470, 17.00378
217.3660, 10.38708
218.5850, 19.21387
219.8030, 47.19983
221.0220, 2.626953
222.2400, 39.06616
223.4590, 27.51636
224.6770, 10.97668
225.8950, 44.44531
227.1120, 7.079224
228.3300, 25.40173
229.5480, 37.88794
230.7650, 3.621460
231.9820, 41.87244
233.1990, 13.63257
234.4160, 33.86499
235.6330, 14.63489
236.8490, 18.13379
238.0660, 23.36780
239.2820, 17.87134
240.4980, 23.37012
241.7140, 34.87048
242.9300, 8.371582
244.1460, 37.84583
245.3610, 0.6918950
246.5770, 8.770874
247.7920, 19.23438
249.0070, 37.68787
250.2220, 27.12048
251.4370, 25.57739
252.6510, 11.02966
253.8660, 17.49951
255.0800, 19.05566
256.2940, 23.38110
257.5080, 6.188110
258.7220, 74.22559
259.9360, 152.6461
261.1490, 101.0851
262.3630, 60.53076
263.5760, 65.98584
264.7890, 13.53845
266.0020, 11.94910
267.2150, 48.41919
268.4270, 69.88428
269.6400, 4.365601
270.8520, 46.86426
272.0640, 11.63123
273.2760, 29.87329
274.4880, 3.620117
275.7000, 6.885010
276.9120, 10.38733
278.1230, 28.89001
279.3340, 15.01758
280.5450, 38.91858
281.7560, 47.59338
282.9670, 6.424072
284.1780, 24.57947
285.3880, 2.400024
286.5980, 13.63013
287.8090, 31.33276
289.0190, 66.69922
290.2290, 69.73218
291.4380, 13.76355
292.6480, 44.79163
293.8570, 20.82056
295.0670, 79.84399
296.2760, 88.86108
297.4850, 137.8712
298.6930, 40.87122
299.9020, 47.86108
301.1110, 60.83850
302.3190, 105.8057
303.5270, 108.7606
304.7350, 103.7048
305.9430, 96.63416
307.1510, 116.5535
308.3580, 139.4635
309.5660, 124.3604
310.7730, 154.2484
311.9800, 181.1283
313.1870, 181.9904
314.3940, 229.8453
315.6010, 199.6921
316.8070, 297.4796
318.0130, 310.2538
319.2200, 485.0217
320.4260, 555.7844
321.6310, 667.5156
322.8370, 866.1858
324.0430, 1100.907
325.2480, 1513.624
326.4540, 1864.328
327.6590, 2666.954
328.8640, 3840.625
330.0680, 5862.285
331.2730, 8894.794
332.4780, 12805.41
333.6820, 15153.05
334.8860, 13858.69
336.0900, 10124.31
337.2940, 6611.950
338.4980, 4047.564
339.7010, 2572.007
340.9050, 1764.613
342.1080, 1205.222
343.3110, 876.8336
344.5140, 711.4370
345.7170, 565.5270
346.9200, 435.1332
348.1220, 330.7336
349.3240, 317.3328
350.5270, 255.8972
351.7290, 213.4510
352.9310, 173.2990
354.1320, 177.4027
355.3340, 171.6128
356.5350, 133.0469
357.7370, 89.61182
358.9380, 106.0989
360.1390, 118.6941
361.3400, 88.15869
362.5400, 118.5599
363.7410, 78.41687
364.9410, 29.02002
366.1410, 63.25916
367.3410, 72.85974
368.5410, 62.41589
369.7410, 68.42566
370.9400, 11.03784
372.1400, 69.75244
373.3390, 0.6853030
374.5380, 62.93152
375.7370, 70.90002
376.9360, 7.520264
378.1350, 68.88391
379.3330, 10.69348
380.5310, 20.26685
381.7300, 8.382690
382.9280, 52.96472
384.1260, 17.90271
385.3230, 37.49170
386.5210, 52.14124
387.7180, 22.67944
388.9160, 72.31653
390.1130, 54.70227
391.3100, 87.23157
392.5060, 98.59155
393.7030, 31.23572
394.9000, 135.8489
396.0960, 104.4802
397.2920, 65.05444
398.4880, 84.36890
399.6840, 111.5970
400.8800, 79.36023
402.0750, 63.41943
403.2710, 87.07227
404.4660, 70.11462
405.6610, 79.77759
406.8560, 136.1594
408.0510, 107.8260
409.2450, 135.4894
410.4400, 107.3418
411.6340, 131.0137
412.8280, 109.6873
414.0220, 109.2764
415.2160, 187.9531
416.4100, 161.7898
417.6030, 199.4700
418.7970, 197.8254
419.9900, 211.4496
421.1830, 271.0917
422.3760, 259.7786
423.5690, 285.4430
424.7610, 291.1296
425.9540, 327.4423
427.1460, 370.0388
428.3380, 432.7261
429.5300, 484.2015
430.7220, 581.8652
431.9140, 613.5232
433.1050, 762.2092
434.2970, 861.8953
435.4880, 1108.559
436.6790, 1401.448
437.8700, 1779.133
439.0610, 2196.817
440.2510, 2938.504
441.4420, 3761.194
442.6320, 5022.882
443.8220, 7094.578
445.0120, 10356.27
446.2020, 16010.97
447.3910, 26045.66
448.5810, 41489.36
449.7700, 55067.05
450.9600, 54869.75
452.1490, 41523.44
453.3370, 26355.14
454.5260, 15237.84
455.7150, 9061.537
456.9030, 5788.234
458.0910, 3934.933
459.2800, 2798.632
460.4670, 2189.333
461.6550, 1698.033
462.8430, 1406.735
464.0300, 1170.438
465.2180, 974.1411
466.4050, 907.8457
467.5920, 793.5516
468.7790, 637.2585
469.9650, 656.9666
471.1520, 584.6760
472.3380, 513.3870
473.5250, 422.0989
474.7110, 349.8130
475.8970, 390.5286
477.0820, 280.2458
478.2680, 310.9644
479.4540, 310.6844
480.6390, 240.4060
481.8240, 230.1292
483.0090, 197.8546
484.1940, 186.5817
485.3780, 190.3104
486.5630, 213.0406
487.7470, 153.7726
488.9320, 116.5085
490.1160, 205.2462
491.3000, 138.9856
492.4830, 108.7267
493.6670, 167.4733
494.8500, 141.2218
496.0340, 213.9797
497.2170, 181.7458
498.4000, 287.5154
499.5820, 419.2876
500.7650, 453.0615
501.9480, 419.8376
503.1300, 267.6156
504.3120, 181.3959
505.4940, 105.1786
506.6760, 73.97083
507.8580, 49.76465
509.0390, 10.94885
510.2210, 101.3610
511.4020, 11.83801
512.5830, 24.96021
513.7640, 64.76001
514.9450, 22.56567
516.1250, 12.35156
517.3060, 41.16101
518.4860, 42.97498
519.6660, 34.79077
520.8460, 4.386230
522.0260, 5.563721
523.2060, 7.263550
524.3850, 29.09937
525.5650, 8.062988
526.7440, 20.77295
527.9230, 19.38928
529.1020, 19.55896
530.2810, 32.26440
531.4590, 1.910645
532.6380, 12.91650
533.8160, 31.25427
534.9940, 21.56152
536.1720, 34.62097
537.3500, 65.18091
538.5270, 9.984741
539.7050, 46.79175
540.8820, 7.612915
542.0590, 2.550659
543.2360, 27.29565
544.4130, 18.85364
545.5900, 25.01013
546.7660, 41.82288
547.9430, 30.34082
549.1190, 16.48230
550.2950, 34.30701
551.4710, 4.862183
552.6470, 33.96814
553.8220, 112.8002
554.9980, 76.63379
556.1730, 90.47412
557.3480, 127.3162
558.5230, 103.1638
559.6980, 46.01343
560.8730, 56.86646
562.0470, 36.72119
563.2220, 61.57812
564.3960, 82.44116
565.5700, 13.30615
566.7440, 42.17285
567.9170, 5.041260
569.0910, 23.91357
570.2640, 53.83911
571.4380, 31.71606
572.6110, 39.59448
573.7840, 50.48364
574.9570, 52.37451
576.1290, 58.26685
577.3020, 21.83862
578.4740, 51.04663
579.6460, 21.93335
580.8180, 76.46094
581.9900, 58.10742
583.1620, 69.99927
584.3330, 45.02441
585.5040, 134.9194
586.6760, 40.81592
587.8470, 62.71411
589.0180, 93.61377
590.1880, 22.03174
591.3590, 81.93433
592.5290, 57.83887
593.7000, 108.7446
594.8700, 80.65186
596.0400, 120.5610
597.2090, 163.4717
598.3790, 174.4968
599.5490, 191.9724
600.7180, 123.3254
601.8870, 197.2422
603.0560, 208.1602
604.2250, 208.0798
605.3940, 279.0007
606.5620, 294.9236
607.7300, 390.8477
608.8990, 386.7732
610.0670, 490.7004
611.2350, 457.6289
612.4020, 403.5591
613.5700, 354.4905
614.7370, 366.4236
615.9050, 263.3579
617.0720, 172.2939
618.2390, 170.2314
619.4060, 165.1702
620.5720, 144.4766
621.7390, 211.0522
622.9050, 150.9956
624.0710, 183.9402
625.2370, 179.8862
626.4030, 171.8335
627.5690, 257.7822
628.7340, 205.7324
629.9000, 187.6843
631.0650, 191.6372
632.2300, 129.5916
633.3950, 208.3958
634.5600, 124.3525
635.7240, 232.3108
636.8890, 168.2703
638.0530, 134.2310
639.2170, 167.1926
640.3810, 179.1558
641.5450, 151.1199
642.7080, 189.0852
643.8720, 204.0518
645.0350, 207.0195
646.1980, 238.9885
647.3610, 269.1672
648.5240, 346.9292
649.6870, 351.9033
650.8490, 371.8789
652.0120, 415.2983
653.1740, 414.2761
654.3360, 510.2544
655.4980, 564.2344
656.6600, 655.2151
657.8210, 812.1970
658.9830, 876.1807
660.1440, 1079.166
661.3050, 1285.962
662.4660, 1537.703
663.6270, 1829.695
664.7870, 2102.689
665.9480, 2257.307
667.1080, 2462.302
668.2680, 2432.283
669.4280, 2296.253
670.5880, 2168.251
671.7480, 1806.161
672.9070, 1557.168
674.0670, 1321.410
675.2260, 994.4189
676.3850, 871.4507
677.5440, 691.4678
678.7030, 604.6846
679.8610, 497.2097
681.0200, 407.9221
682.1780, 352.7927
683.3360, 281.0940
684.4940, 273.1333
685.6520, 217.7788
686.8090, 230.1543
687.9670, 174.4653
689.1240, 125.4946
690.2810, 120.5247
691.4380, 91.77393
692.5950, 109.3579
693.7520, 92.39404
694.9080, 76.44092
696.0650, 111.4785
697.2210, 92.59814
698.3770, 13.63818
699.5330, 70.68359
700.6880, 35.72949
701.8440, 47.77637
702.9990, 19.91602
704.1550, 33.96436
705.3100, 33.01392
706.4650, 73.06445
707.6190, 44.11523
708.7740, 0.1667480
709.9290, 10.21777
711.0830, 48.26978
712.2370, 52.32178
713.3910, 13.37476
714.5450, 13.42773
715.6980, 21.48145
716.8520, 20.33130
718.0050, 70.38599
719.1580, 10.55884
720.3110, 12.50879
721.4640, 73.53467
722.6170, 18.42139
723.7700, 51.61304
724.9220, 37.64771
726.0740, 39.68286
727.2260, 40.71875
728.3780, 8.245361
729.5300, 48.78662
730.6810, 48.81860
731.8330, 78.85107
732.9840, 39.88452
734.1350, 96.91772
735.2860, 96.95142
736.4370, 1.014404
737.5880, 30.01855
738.7380, 47.05200
739.8880, 53.08618
741.0390, 40.12036
742.1890, 12.15503
743.3380, 14.19019
744.4880, 101.2256
745.6380, 60.26123
746.7870, 67.29761
747.9360, 55.33423
749.0850, 53.37134
750.2340, 44.40845
751.3830, 70.44580
752.5310, 60.60669
753.6800, 27.52197
754.8280, 38.56055
755.9760, 64.59912
757.1240, 5.638184
758.2720, 36.67773
759.4190, 13.71729
760.5670, 60.75708
761.7140, 59.79736
762.8610, 51.83765
764.0080, 10.87817
765.1550, 19.91919
766.3020, 49.96021
767.4480, 101.0017
768.5950, 40.04297
769.7410, 89.08472
770.8870, 12.87378
772.0330, 75.16089
773.1780, 14.19531
774.3240, 95.23022
775.4690, 44.26514
776.6140, 91.30029
777.7590, 45.33569
778.9040, 63.37085
780.0490, 96.40649
781.1940, 35.44214
782.3380, 54.47803
783.4820, 34.51392
784.6260, 33.54980
785.7700, 75.58594
786.9140, 104.1135
788.0580, 104.1499
789.2010, 135.1860
790.3450, 71.22534
791.4880, 45.26416
792.6310, 113.3035
793.7730, 56.34521
794.9160, 81.38452
796.0590, 67.54736
797.2010, 76.59009
798.3430, 57.66309
799.4850, 55.70654
800.6270, 59.75146
801.7690, 41.79614
802.9100, 35.84082
804.0520, 49.99634
805.1930, 65.04297
806.3340, 45.09351
807.4750, 56.57373
808.6160, 17.73706
809.7560, 52.79248
810.8970, 30.84790
812.0370, 21.91064
813.1770, 17.97339
814.3170, 11.26611
815.4570, 0.3369140
816.5960, 20.59497
817.7360, 23.54028
818.8750, 32.47778
820.0140, 26.54321
821.1530, 7.171387
822.2920, 75.19580
823.4310, 1.774414
824.5690, 38.25195
825.7070, 103.2854
826.8460, 15.31860
827.9840, 56.50024
829.1220, 34.03735
830.2590, 20.07031
831.3970, 11.89722
832.5340, 10.12598
833.6710, 4.148926
834.8080, 44.30884
835.9450, 37.38110
837.0820, 25.40137
838.2190, 95.42139
839.3550, 12.55688
840.4910, 51.45264
841.6270, 50.59204
842.7630, 26.60034
843.8990, 21.60742
845.0350, 35.61475
846.1700, 97.56958
847.3060, 73.57544
848.4410, 70.58081
849.5760, 20.58545
850.7100, 51.58984
851.8450, 30.59351
852.9800, 54.59668
854.1140, 101.6047
855.2480, 79.61206
856.3820, 58.97998
857.5160, 61.23022
858.6500, 110.2358
859.7830, 80.10986
860.9170, 128.1147
862.0500, 158.1196
863.1830, 142.1235
864.3160, 78.12744
865.4480, 149.6145
866.5810, 69.61768
867.7130, 82.62036
868.8460, 43.62280
869.9780, 56.62695
871.1100, 55.80957
872.2410, 109.6340
873.3730, 71.52368
874.5050, 60.52783
875.6360, 75.53418
876.7670, 55.54053
877.8980, 69.54614
879.0290, 69.56104
880.1590, 63.57349
881.2900, 37.58569
882.4200, 61.59766
883.5500, 47.60913
884.6800, 31.62012
885.8100, 72.63086
886.9400, 88.64136
888.0690, 97.65186
889.1990, 81.66162
890.3280, 22.67114
891.4570, 32.67993
892.5860, 31.68896
893.7140, 105.6975
894.8430, 99.70557
895.9710, 49.71338
897.1000, 89.72095
898.2280, 21.72803
899.3560, 33.73511
900.4830, 74.74170
901.6110, 36.74780
902.7380, 66.75391
903.8660, 42.75977
904.9930, 53.76489
906.1200, 18.76978
907.2460, 105.9258
908.3730, 76.93433
909.5000, 25.94238
910.6260, 88.95020
911.7520, 31.95801
912.8780, 32.96533
914.0040, 42.97266
915.1290, 60.97949
916.2550, 65.98608
917.3800, 64.99243
918.5050, 113.9985
919.6300, 14.00439
920.7550, 25.01001
921.8800, 4.984619
923.0040, 61.01587
924.1290, 26.01611
925.2530, 10.01611
926.3770, 55.01562
927.5010, 32.01538
928.6250, 6.014648
929.7480, 34.01367
930.8720, 1.012451
931.9950, 9.738281
933.1180, 13.26489
934.2410, 82.72217
935.3640, 97.70947
936.4860, 57.69629
937.6090, 41.68262
938.7310, 1.668701
939.8530, 48.65356
940.9750, 57.63818
942.0970, 51.62207
943.2180, 21.39429
944.3400, 25.57617
945.4610, 41.54590
946.5820, 80.51562
947.7030, 11.48486
948.8240, 16.54614
949.9450, 38.41162
951.0650, 23.17017
952.1860, 9.621338
953.3060, 1.886230
954.4260, 15.71826
955.5460, 9.455322
956.6650, 55.48828
957.7850, 52.43896
958.9040, 57.04150
960.0230, 84.99902
961.1420, 40.95996
962.2610, 2.079346
963.3800, 8.119873
964.4990, 5.834961
965.6170, 25.78955
966.7350, 24.73535
967.8530, 3.690918
968.9710, 2.434570
970.0890, 17.48022
971.2070, 22.46509
972.3240, 25.41016
973.4410, 0.3557130
974.5580, 58.20898
975.6750, 2.845459
976.7920, 23.09912
977.9090, 15.04370
979.0250, 29.98853
980.1410, 36.93359
981.2580, 36.87915
982.3740, 61.82544
983.4890, 42.77173
984.6050, 48.71826
985.7200, 86.66504
986.8360, 18.61206
987.9510, 66.55957
989.0660, 7.507324
990.1810, 89.45532
991.2950, 90.40625
992.4100, 38.36133
993.5240, 33.31665
994.6390, 50.27734
995.7530, 97.23828
996.8660, 93.03442
997.9800, 13.16846
999.0940, 97.14038
1000.207, 116.1106
1001.320, 78.08130
1002.433, 129.0579
1003.546, 129.4626
1004.659, 182.4399
1005.772, 146.4175
1006.884, 133.3958
1007.996, 101.6208
1009.108, 65.22925
1010.220, 64.20874
1011.332, 26.18921
1012.444, 0.2773440
1013.555, 31.80298
1014.666, 21.04492
1015.777, 37.76489
1016.888, 54.74634
1017.999, 27.72803
1019.110, 42.70996
1020.220, 26.69238
1021.331, 101.6750
1022.441, 64.65796
1023.551, 58.64136
1024.661, 157.6250
1025.770, 114.6089
1026.880, 44.59668
1027.989, 65.58447
1029.098, 64.57300
1030.207, 60.56152
1031.316, 57.55078
1032.425, 61.54028
1033.533, 66.53003
1034.642, 28.52026
1035.750, 105.5107
1036.858, 39.50195
1037.966, 59.49365
1039.073, 97.48511
1040.181, 77.47754
1041.288, 89.37549
1042.396, 90.37256
1043.503, 65.36963
1044.610, 51.36743
1045.716, 114.3660
1046.823, 102.3645
1047.929, 125.3635
1049.036, 167.3630
1050.142, 124.3630
1051.248, 160.3635
1052.353, 136.3643
1053.459, 166.3655
1054.564, 113.3672
1055.670, 105.8782
1056.775, 53.88086
1057.880, 10.88428
1058.985, 38.88794
1060.089, 40.89258
1061.194, 25.89722
1062.298, 40.90015
1063.402, 61.90601
1064.506, 13.21094
1065.610, 36.78931
1066.713, 117.7598
1067.817, 69.76172
1068.920, 63.76416
1070.023, 16.76733
1071.126, 19.77100
1072.229, 62.66626
1073.332, 48.67139
1074.435, 32.67725
1075.537, 73.68359
1076.639, 48.15771
1077.741, 79.16602
1078.843, 156.1748
1079.945, 74.18506
1081.046, 61.19604
1082.148, 140.9858
1083.249, 34.99854
1084.350, 47.01733
1085.451, 94.04321
1086.551, 42.05493
1087.652, 84.10034
1088.752, 56.53833
1089.853, 102.5854
1090.953, 70.63354
1092.053, 140.1594
1093.152, 60.04834
1094.252, 91.10107
1095.351, 21.00513
1096.451, 77.55615
1097.550, 58.61743
1098.649, 46.82397
1099.748, 46.89282
1100.846, 114.9626
1101.945, 4.895508
1103.043, 4.916748
1104.141, 87.98999
1105.239, 26.06445
1106.337, 56.13721
1107.434, 85.21802
1108.532, 92.16992
1109.629, 38.25317
1110.726, 77.33765
1111.823, 36.42285
1112.920, 9.509521
1114.017, 32.59692
1115.113, 40.68530
1116.210, 46.77515
1117.306, 99.86621
1118.402, 43.95801
1119.498, 132.0510
1120.593, 89.14526
1121.689, 141.2405
1122.784, 62.33691
1123.879, 82.43433
1124.974, 35.53320
1126.069, 95.63306
1127.164, 107.7344
1128.259, 67.19141
1129.353, 67.13916
1130.447, 0.2434080
1131.541, 74.34863
1132.635, 42.45483
1133.729, 79.85938
1134.822, 9.032227
1135.916, 22.07300
1137.009, 20.17944
1138.102, 81.28662
1139.195, 5.604736
1140.288, 12.49805
1141.380, 37.60400
1142.473, 30.71460
1143.565, 20.17383
1144.657, 11.07544
1145.749, 31.02319
1146.841, 10.12305
1147.932, 34.22412
1149.024, 25.32642
1150.115, 4.429932
1151.206, 31.53418
1152.297, 49.63965
1153.388, 31.74634
1154.479, 90.85376
1155.569, 79.96265
1156.659, 62.07227
1157.750, 75.90649
1158.839, 42.01831
1159.929, 56.13135
1161.019, 22.24561
1162.108, 31.36060
1163.198, 20.47681
1164.287, 15.59424
1165.376, 16.71289
1166.465, 53.83276
1167.553, 55.95361
1168.642, 110.0754
1169.730, 116.1985
1170.818, 89.32251
1171.906, 16.55249
1172.994, 101.5659
1174.082, 52.68530
1175.170, 84.80566
1176.257, 132.9272
1177.344, 92.04980
1178.431, 128.1736
1179.518, 94.29834
1180.605, 98.42407
1181.691, 145.5518
1182.778, 151.6809
1183.864, 175.8105
1184.950, 222.9417
1186.036, 268.0737
1187.122, 321.2092
1188.207, 549.3457
1189.292, 687.4836
1190.378, 822.6226
1191.463, 817.7622
1192.548, 748.9036
1193.632, 643.0457
1194.717, 480.1890
1195.801, 384.6050
1196.886, 275.7512
1197.970, 236.9033
1199.054, 218.0562
1200.137, 184.2104
1201.221, 195.3660
1202.305, 90.52222
1203.388, 106.6804
1204.471, 100.8401
1205.554, 46.21753
1206.637, 89.16211
1207.719, 8.331787
1208.802, 10.50244
1209.884, 47.72705
1210.966, 37.89990
1212.048, 19.07373
1213.130, 62.25415
1214.212, 64.33423
1215.293, 73.51685
1216.374, 91.70068
1217.456, 28.88550
1218.536, 13.07129
1219.617, 73.26074
1220.698, 86.45142
1221.778, 25.35693
1222.859, 15.17749
1223.939, 34.99609
1225.019, 11.17017
1226.099, 36.34619
1227.178, 0.5256350
1228.258, 3.294434
1229.337, 8.233154
1230.417, 50.71753
1231.496, 24.91211
1232.574, 66.09473
1233.653, 82.28296
1234.732, 26.47217
1235.810, 130.6621
1236.888, 39.85327
1237.966, 88.04492
1239.044, 116.2383
1240.122, 46.43262
1241.199, 103.6277
1242.277, 83.82324
1243.354, 33.02002
1244.431, 64.21753
1245.508, 68.41577
1246.585, 92.61523
1247.661, 45.81982
1248.738, 41.02539
1249.814, 77.23389
1250.890, 39.45337
1251.966, 47.66895
1253.042, 86.88525
1254.117, 116.1062
1255.193, 66.32397
1256.268, 34.54321
1257.343, 6.236572
1258.418, 14.01929
1259.493, 20.19116
1260.567, 92.39819
1261.642, 27.61475
1262.716, 21.16797
1263.790, 98.03882
1264.864, 65.81934
1265.938, 145.0281
1267.011, 84.23779
1268.085, 76.44873
1269.158, 43.41455
1270.231, 95.99854
1271.304, 75.89746
1272.377, 167.1157
1273.450, 103.2273
1274.522, 94.90186
1275.594, 51.12305
1276.666, 47.34644
1277.738, 63.63770
1278.810, 78.86304
1279.882, 117.0891
1280.953, 81.31592
1282.025, 71.54419
1283.096, 114.7732
1284.167, 68.00342
1285.238, 54.23438
1286.308, 12.53345
1287.379, 36.69312
1288.449, 48.92041
1289.519, 92.14844
1290.589, 4.377686
1291.659, 131.6072
1292.729, 70.89282
1293.798, 47.12451
1294.868, 111.3567
1295.937, 115.5898
1297.006, 72.82373
1298.075, 22.08838
1299.143, 91.32349
1300.212, 78.55933
1301.280, 105.8940
1302.348, 111.3066
1303.416, 89.38110
1304.484, 92.61914
1305.552, 105.8579
1306.620, 77.09717
1307.687, 107.3372
1308.754, 129.5774
1309.821, 134.9810
1310.888, 50.22217
1311.955, 85.46606
1313.021, 56.71045
1314.088, 69.95532
1315.154, 72.20020
1316.220, 95.44727
1317.286, 80.69458
1318.352, 99.94189
1319.417, 97.18970
1320.483, 86.43726
1321.548, 104.6846
1322.613, 107.9312
1323.678, 101.1770
1324.743, 104.2771
1325.807, 116.6780
1326.872, 86.93018
1327.936, 105.1831
1329.000, 85.43726
1330.064, 27.69214
1331.128, 116.9482
1332.191, 43.20508
1333.255, 88.45850
1334.318, 138.7129
1335.381, 65.96826
1336.444, 89.22461
1337.507, 0.5183110
1338.569, 37.73999
1339.632, 82.99902
1340.694, 25.25073
1341.756, 14.49634
1342.818, 108.7534
1343.880, 49.00415
1344.941, 10.25586
1346.003, 126.5083
1347.064, 21.76196
1348.125, 30.01660
1349.186, 26.27222
1350.247, 68.05371
1351.308, 27.48682
1352.368, 52.74512
1353.428, 103.0044
1354.489, 32.26465
1355.549, 45.52026
1356.608, 27.36768
1357.668, 42.88843
1358.727, 2.145752
1359.787, 22.40430
1360.846, 28.66357
1361.905, 19.91357
1362.964, 62.16406
1364.022, 62.41602
1365.081, 73.66821
1366.139, 59.92090
1367.197, 48.17480
1368.255, 68.42944
1369.313, 54.68506
1370.371, 62.94116
1371.428, 96.19849
1372.486, 102.4563
1373.543, 114.3940
1374.600, 54.09741
1375.657, 97.35767
1376.713, 90.08301
1377.770, 9.608643
1378.826, 86.87158
1379.882, 58.13525
1380.938, 10.39819
1381.994, 85.66235
1383.050, 107.0076
1384.106, 21.27344
1385.161, 25.18506
1386.216, 62.60767
1387.271, 53.87622
1388.326, 34.13013
1389.381, 66.40063
1390.435, 29.45044
1391.490, 41.72339
1392.544, 76.99927
1393.598, 69.27661
1394.652, 56.66138
1395.705, 75.94092
1396.759, 55.24951
1397.812, 26.46411
1398.866, 69.67334
1399.919, 31.95532
1400.972, 54.24390
1402.024, 88.53613
1403.077, 57.07837
1404.129, 1.373047
1405.181, 75.66919
1406.233, 71.97925
1407.285, 32.27832
1408.337, 46.57935
1409.389, 37.88232
1410.440, 48.18701
1411.491, 44.49365
1412.542, 81.82495
1413.593, 21.38867
1414.644, 124.6575
1415.695, 36.92700
1416.745, 63.19653
1417.795, 130.4663
1418.845, 4.803711
1419.895, 49.05713
1420.945, 75.32251
1421.995, 97.60034
1423.044, 41.85010
1424.093, 11.09863
1425.142, 42.32739
1426.191, 118.5544
1427.240, 70.77393
1428.289, 15.99414
1429.337, 139.2112
1430.385, 114.4241
1431.433, 84.63232
1432.481, 70.83691
1433.529, 27.03833
1434.577, 50.23389
1435.624, 0.5742190
1436.672, 117.6121
1437.719, 134.3423
1438.766, 113.5229
1439.812, 112.7007
1440.859, 127.7400
1441.905, 152.3840
1442.952, 175.5576
1443.998, 195.6802
1445.044, 207.9087
1446.090, 214.8906
1447.135, 212.9009
1448.181, 219.9773
1449.226, 214.5630
1450.271, 206.0955
1451.316, 223.4453
1452.361, 219.5127
1453.405, 220.1492
1454.450, 225.5032
1455.494, 230.8586
1456.538, 225.1589
1457.582, 169.5168
1458.626, 237.9038
1459.670, 159.2556
1460.713, 186.6091
1461.757, 118.9639
1462.800, 187.3276
1463.843, 198.7083
1464.886, 211.0908
1465.928, 140.5688
1466.971, 157.9231
1468.013, 114.2952
1469.055, 117.6687
1470.097, 102.0439
1471.139, 79.42163
1472.181, 122.8013
1473.222, 61.18286
1474.263, 49.56641
1475.305, 125.9399
1476.346, 24.29712
1477.386, 76.65503
1478.427, 54.00928
1479.468, 149.3691
1480.508, 77.73999
1481.548, 132.1118
1482.588, 80.48682
1483.628, 113.8706
1484.668, 135.2559
1485.707, 70.64209
1486.747, 120.6128
1487.786, 53.96216
1488.825, 69.31055
1489.864, 121.5581
1490.902, 127.9043
1491.941, 117.2507
1492.979, 35.59766
1494.017, 72.94946
1495.055, 139.3076
1496.093, 41.66699
1497.131, 49.93823
1498.168, 36.29883
1499.206, 13.38867
1500.243, 78.97559
1501.280, 2.678711
1502.317, 15.30884
1503.354, 109.0649
1504.390, 34.44238
1505.426, 62.52734
1506.463, 51.90088
1507.499, 16.27881
1508.535, 91.65649
1509.570, 44.04004
1510.606, 54.43213
1511.641, 54.83740
1512.676, 9.752686
1513.711, 69.65771
1514.746, 19.06860
1515.781, 57.48193
1516.816, 55.91455
1517.850, 56.34863
1518.884, 16.78394
1519.918, 77.23877
1520.952, 32.71484
1521.986, 41.19312
1523.019, 6.325928
1524.053, 59.15674
1525.086, 40.60986
1526.119, 121.0986
1527.152, 7.590576
1528.185, 64.08569
1529.217, 84.58374
1530.250, 40.11499
1531.282, 90.68237
1532.314, 108.2612
1533.346, 129.8491
1534.377, 51.44702
1535.409, 74.05615
1536.440, 33.89722
1537.472, 137.8142
1538.503, 95.78979
1539.534, 76.14282
1540.564, 117.1902
1541.595, 74.52808
1542.625, 24.85815
1543.656, 54.05273
1544.686, 34.88306
1545.716, 32.00464
1546.745, 43.59790
1547.775, 55.50317
1548.804, 48.36426
1549.834, 55.33789
1550.863, 57.14966
1551.892, 46.58447
1552.920, 71.97192
1553.949, 51.21997
1554.977, 98.14673
1556.006, 118.5117
1557.034, 60.89282
1558.062, 100.5918
1559.089, 62.84155
1560.117, 74.84668
1561.144, 3.844727
1562.172, 43.63672
1563.199, 72.17285
1564.226, 59.76611
1565.252, 0.4199220
1566.279, 37.23633
1567.305, 58.35596
1568.332, 12.90698
1569.358, 25.81958
1570.384, 39.96411
1571.409, 0.7548830
1572.435, 0.0000000E+00
##END=



