##NAMES=Diaspore
##RRUFFID=R060546
##IDEAL CHEMISTRY=AlO(OH)
##LOCALITY=Turkey
##OWNER=RRUFF
##SOURCE=Gemological Institute of America
##DESCRIPTION=Platy transparent pale yellow fragment
##STATUS=The identification of this mineral has been confirmed by X-ray diffraction and chemical analysis
##URL=rruff.info/R060546
##MEASURED CHEMISTRY=(Al_0.99_Fe^3+^_0.01_)_Î£=1_O(OH) ; OH estimated by difference; Fe^3+^ by charge balance
##PIN_ID=L01871
##ORIENTATION=Laser parallel to a* (1 0 0). Fiducial mark perpendicular to laser is parallel to b [0 1 0]
132.8980, 0.0000000E+00
134.1270, 3.306641
135.3560, 40.35547
136.5850, 95.27734
137.8140, 226.9668
139.0430, 141.8848
140.2710, 369.4746
141.5000, 375.7012
142.7280, 260.8477
143.9560, 438.3965
145.1840, 610.9707
146.4120, 573.2598
147.6390, 639.0117
148.8670, 666.0254
150.0940, 696.1328
151.3210, 1111.273
152.5490, 1097.314
153.7750, 1194.133
155.0020, 783.6797
156.2290, 752.9727
157.4550, 869.8984
158.6810, 658.2949
159.9080, 523.0996
161.1340, 313.3711
162.3590, 326.0664
163.5850, 478.0645
164.8110, 214.2969
166.0360, 433.7871
167.2610, 112.0488
168.4860, 189.7969
169.7110, 315.8184
170.9360, 400.9434
172.1610, 193.1660
173.3850, 199.5391
174.6100, 31.04492
175.8340, 145.0898
177.0580, 271.5215
178.2820, 277.0000
179.5050, 396.8203
180.7290, 400.2402
181.9520, 430.6523
183.1760, 372.0586
184.3990, 331.4707
185.6220, 395.8867
186.8450, 415.3203
188.0670, 382.7129
189.2900, 441.1719
190.5120, 500.0801
191.7340, 384.5371
192.9560, 510.7012
194.1780, 403.2070
195.4000, 314.7441
196.6220, 337.3203
197.8430, 353.9355
199.0640, 501.4473
200.2860, 400.0664
201.5070, 537.5176
202.7270, 555.5801
203.9480, 704.1367
205.1690, 528.2852
206.3890, 264.6895
207.6090, 318.0703
208.8290, 181.9766
210.0490, 380.3398
211.2690, 152.7266
212.4890, 308.3438
213.7080, 323.7539
214.9280, 460.9004
216.1470, 445.5996
217.3660, 317.8164
218.5850, 187.8945
219.8030, 561.9395
221.0220, 529.8711
222.2400, 250.6875
223.4590, 213.2363
224.6770, 12.38672
225.8950, 3.875000
227.1120, 94.55664
228.3300, 63.12305
229.5480, 255.7480
230.7650, 335.4316
231.9820, 224.1738
233.1990, 247.9707
234.4160, 145.8262
235.6330, 171.7363
236.8490, 120.4492
238.0660, 79.88867
239.2820, 37.78906
240.4980, 29.91016
241.7140, 16.91797
242.9300, 0.7011720
244.1460, 228.7734
245.3610, 106.0762
246.5770, 152.4258
247.7920, 25.17773
249.0070, 68.25977
250.2220, 137.7441
251.4370, 6.728516
252.6510, 21.83008
253.8660, 9.431641
255.0800, 125.0781
256.2940, 139.7656
257.5080, 190.4961
258.7220, 498.3281
259.9360, 366.0215
261.1490, 323.0820
262.3630, 320.1699
263.5760, 22.80664
264.7890, 38.25195
266.0020, 151.6094
267.2150, 33.63672
268.4270, 71.95898
269.6400, 125.3301
270.8520, 69.73828
272.0640, 85.82227
273.2760, 61.41016
274.4880, 75.03906
275.7000, 35.49023
276.9120, 64.98047
278.1230, 118.4766
279.3340, 142.9395
280.5450, 79.84961
281.7560, 237.5293
282.9670, 34.54492
284.1780, 216.5742
285.3880, 147.8652
286.5980, 146.3027
287.8090, 128.8730
289.0190, 153.5566
290.2290, 103.0605
291.4380, 43.74609
292.6480, 5.236328
293.8570, 25.29883
295.0670, 37.56250
296.2760, 36.64062
297.4850, 1.072266
298.6930, 20.27148
299.9020, 98.72070
301.1110, 122.7656
302.3190, 101.2246
303.5270, 90.65430
304.7350, 78.05664
305.9430, 138.5840
307.1510, 7.728516
308.3580, 123.9961
309.5660, 53.76172
310.7730, 4.412109
311.9800, 44.55078
313.1870, 26.35156
314.3940, 194.2852
315.6010, 169.2480
316.8070, 206.2422
318.0130, 204.2637
319.2200, 630.3164
320.4260, 994.3965
321.6310, 1715.506
322.8370, 2493.637
324.0430, 3248.795
325.2480, 3712.963
326.4540, 4439.158
327.6590, 5287.375
328.8640, 5887.619
330.0680, 5998.891
331.2730, 6253.186
332.4780, 5780.508
333.6820, 5197.844
334.8860, 4641.207
336.0900, 4334.582
337.2940, 2812.982
338.4980, 1828.408
339.7010, 1330.859
340.9050, 804.3320
342.1080, 701.8359
343.3110, 465.3613
344.5140, 232.9062
345.7170, 211.4121
346.9200, 170.9434
348.1220, 14.46875
349.3240, 139.9980
350.5270, 48.54297
351.7290, 111.1152
352.9310, 63.71484
354.1320, 13.66992
355.3340, 209.9668
356.5350, 310.6348
357.7370, 391.3145
358.9380, 378.0234
360.1390, 523.7461
361.3400, 639.4980
362.5400, 860.2344
363.7410, 746.9336
364.9410, 1086.639
366.1410, 1142.367
367.3410, 1190.125
368.5410, 895.8965
369.7410, 890.1719
370.9400, 782.7773
372.1400, 727.6367
373.3390, 569.5254
374.5380, 421.4434
375.7370, 340.3867
376.9360, 231.3633
378.1350, 103.3633
379.3330, 144.3926
380.5310, 89.45312
381.7300, 344.9883
382.9280, 167.7363
384.1260, 435.8789
385.3230, 406.0488
386.5210, 141.4883
387.7180, 168.6133
388.9160, 171.8594
390.1130, 129.1309
391.3100, 319.4297
392.5060, 218.7910
393.7030, 328.1426
394.9000, 292.5215
396.0960, 347.6445
397.2920, 242.5527
398.4880, 248.0098
399.6840, 280.5586
400.8800, 292.0684
402.0750, 310.1074
403.2710, 285.6680
404.4660, 267.1445
405.6610, 254.1934
406.8560, 190.4980
408.0510, 222.3145
409.2450, 181.0000
410.4400, 187.3672
411.6340, 240.5020
412.8280, 160.2617
414.0220, 236.0469
415.2160, 226.8555
416.4100, 284.0547
417.6030, 433.4023
418.7970, 258.2852
419.9900, 94.83008
421.1830, 307.7637
422.3760, 280.7207
423.5690, 250.7129
424.7610, 508.7461
425.9540, 350.3555
427.1460, 531.1348
428.3380, 707.2617
429.5300, 992.4238
430.7220, 847.6133
431.9140, 1068.834
433.1050, 1120.084
434.2970, 1671.592
435.4880, 2518.152
436.6790, 3703.488
437.8700, 5910.855
439.0610, 9319.734
440.2510, 13427.23
441.4420, 16808.55
442.6320, 19216.29
443.8220, 22969.32
445.0120, 26911.20
446.2020, 28439.18
447.3910, 27970.70
448.5810, 26179.46
449.7700, 24890.17
450.9600, 22012.42
452.1490, 17767.11
453.3370, 12868.31
454.5260, 8790.746
455.7150, 5473.744
456.9030, 3639.543
458.0910, 2696.367
459.2800, 1793.219
460.4670, 1490.098
461.6550, 1200.000
462.8430, 1048.928
464.0300, 893.7344
465.2180, 704.8652
466.4050, 851.8730
467.5920, 793.9062
468.7790, 712.8535
469.9650, 400.0488
471.1520, 541.1582
472.3380, 510.2969
473.5250, 376.4609
474.7110, 398.6484
475.8970, 484.8633
477.0820, 514.1035
478.2680, 324.3711
479.4540, 482.6621
480.6390, 645.9805
481.8240, 507.3262
483.0090, 739.6992
484.1940, 873.0957
485.3780, 1161.520
486.5630, 1649.971
487.7470, 2312.445
488.9320, 3441.951
490.1160, 5573.480
491.3000, 7149.477
492.4830, 10243.62
493.6670, 11592.23
494.8500, 14297.87
496.0340, 16832.53
497.2170, 17912.29
498.4000, 16911.01
499.5820, 16233.76
500.7650, 14733.53
501.9480, 12654.33
503.1300, 9792.150
504.3120, 6707.004
505.4940, 4263.883
506.6760, 2565.791
507.8580, 1725.725
509.0390, 943.6875
510.2210, 697.6758
511.4020, 503.6934
512.5830, 534.7383
513.7640, 209.8125
514.9450, 462.9141
516.1250, 217.0430
517.3060, 199.1973
518.4860, 208.3809
519.6660, 259.5918
520.8460, 294.8281
522.0260, 112.0918
523.2060, 41.61914
524.3850, 120.3242
525.5650, 186.9395
526.7440, 48.23047
527.9230, 10.45312
529.1020, 154.8848
530.2810, 84.24805
531.4590, 32.63867
532.6380, 166.0566
533.8160, 56.50195
534.9940, 62.97461
536.1720, 226.4766
537.3500, 116.0176
538.5270, 172.4180
539.7050, 89.09375
540.8820, 91.36914
542.0590, 116.1484
543.2360, 43.30664
544.4130, 391.2422
545.5900, 363.8184
546.7660, 579.4258
547.9430, 462.1016
549.1190, 844.8086
550.2950, 482.5449
551.4710, 711.3262
552.6470, 788.1660
553.8220, 609.0293
554.9980, 708.9414
556.1730, 456.8789
557.3480, 415.8398
558.5230, 486.8438
559.6980, 299.8848
560.8730, 152.9766
562.0470, 299.1348
563.2220, 65.32031
564.3960, 76.52930
565.5700, 291.7773
566.7440, 4.949219
567.9170, 92.34766
569.0910, 72.68359
570.2640, 363.0527
571.4380, 360.4492
572.6110, 154.8711
573.7840, 183.3164
574.9570, 57.21289
576.1290, 274.2539
577.3020, 213.7520
578.4740, 249.2754
579.6460, 145.8242
580.8180, 72.59375
581.9900, 117.9961
583.1620, 184.3672
584.3330, 43.78125
585.5040, 62.80469
586.6760, 133.4453
587.8470, 425.1484
589.0180, 45.10547
590.1880, 15.34375
591.3590, 107.4336
592.5290, 109.2500
593.7000, 97.90234
594.8700, 179.9180
596.0400, 56.23047
597.2090, 149.6250
598.3790, 154.5000
599.5490, 217.3984
600.7180, 409.3242
601.8870, 325.2734
603.0560, 574.2422
604.2250, 403.2422
605.3940, 495.2656
606.5620, 587.3164
607.7300, 644.3828
608.8990, 686.4727
610.0670, 566.5977
611.2350, 780.7383
612.4020, 569.8984
613.5700, 419.0898
614.7370, 617.2969
615.9050, 437.5273
617.0720, 625.7812
618.2390, 191.0547
619.4060, 288.3516
620.5720, 264.7539
621.7390, 238.1797
622.9050, 153.6289
624.0710, 185.6875
625.2370, 211.0742
626.4030, 278.1016
627.5690, 265.6367
628.7340, 434.1953
629.9000, 316.7695
631.0650, 262.3711
632.2300, 315.9883
633.3950, 695.6289
634.5600, 379.3203
635.7240, 424.0352
636.8890, 847.7695
638.0530, 424.5273
639.2170, 720.3086
640.3810, 647.1094
641.5450, 897.9297
642.7080, 777.1992
643.8720, 1033.055
645.0350, 1226.938
646.1980, 1305.840
647.3610, 1536.762
648.5240, 1568.699
649.6870, 2182.660
650.8490, 2422.637
652.0120, 2803.637
653.1740, 3636.652
654.3360, 4130.688
655.4980, 5222.746
656.6600, 6512.816
657.8210, 7718.941
658.9830, 8726.086
660.1440, 10321.24
661.3050, 11445.42
662.4660, 12782.62
663.6270, 13224.39
664.7870, 13671.98
665.9480, 13727.23
667.1080, 13384.50
668.2680, 12787.91
669.4280, 11648.21
670.5880, 10167.54
671.7480, 9157.883
672.9070, 7825.246
674.0670, 6765.074
675.2260, 5820.023
676.3850, 4801.602
677.5440, 4119.031
678.7030, 3354.004
679.8610, 3079.477
681.0200, 2508.895
682.1780, 2139.402
683.3360, 1899.023
684.4940, 1573.562
685.6520, 1592.973
686.8090, 1705.332
687.9670, 1506.188
689.1240, 1535.793
690.2810, 1233.699
691.4380, 1327.344
692.5950, 1155.996
693.7520, 1162.137
694.9080, 1305.824
696.0650, 1203.539
697.2210, 1000.262
698.3770, 1021.992
699.5330, 1060.125
700.6880, 1264.250
701.8440, 1368.051
702.9990, 1022.863
704.1550, 950.3555
705.3100, 905.7773
706.4650, 840.6484
707.6190, 837.7656
708.7740, 799.6719
709.9290, 826.0820
711.0830, 850.0586
712.2370, 802.9766
713.3910, 687.9062
714.5450, 863.6211
715.6980, 594.5742
716.8520, 848.5430
718.0050, 803.5234
719.1580, 850.7695
720.3110, 934.9805
721.4640, 729.0742
722.6170, 798.6445
723.7700, 540.1641
724.9220, 755.2109
726.0740, 774.9688
727.2260, 705.0430
728.3780, 871.5273
729.5300, 806.2109
730.6810, 1025.152
731.8330, 836.2656
732.9840, 609.9180
734.1350, 672.0547
735.2860, 565.2930
736.4370, 784.4727
737.5880, 599.6406
738.7380, 637.8203
739.8880, 487.0078
741.0390, 506.6523
742.1890, 765.9492
743.3380, 655.4180
744.4880, 411.4648
745.6380, 655.6992
746.7870, 578.9492
747.9360, 495.0156
749.0850, 418.2812
750.2340, 227.5547
751.3830, 432.8398
752.5310, 429.1328
753.6800, 287.4336
754.8280, 234.7422
755.9760, 584.0664
757.1240, 340.3945
758.2720, 173.8242
759.4190, 467.2148
760.5670, 241.5625
761.7140, 134.9219
762.8610, 414.4805
764.0080, 329.8516
765.1550, 645.2344
766.3020, 214.6250
767.4480, 489.0195
768.5950, 90.42188
769.7410, 269.8320
770.8870, 202.2461
772.0330, 329.2148
773.1780, 315.9336
774.3240, 590.0781
775.4690, 293.5195
776.6140, 404.9688
777.7590, 440.4180
778.9040, 240.8789
780.0490, 25.34375
781.1940, 311.8086
782.3380, 414.2773
783.4820, 461.7539
784.6260, 510.2383
785.7700, 613.7227
786.9140, 756.2578
788.0580, 509.7539
789.2010, 609.2578
790.3450, 625.7656
791.4880, 704.2812
792.6310, 707.8008
793.7730, 523.3281
794.9160, 290.6094
796.0590, 456.1367
797.2010, 255.2344
798.3430, 409.2188
799.4850, 168.7656
800.6270, 221.3359
801.7690, 278.9023
802.9100, 235.5039
804.0520, 134.1055
805.1930, 190.7148
806.3340, 400.3281
807.4750, 298.9492
808.6160, 162.5742
809.7560, 349.2031
810.8970, 141.8359
812.0370, 80.47266
813.1770, 9.886719
814.3170, 80.73438
815.4570, 236.3633
816.5960, 255.0352
817.7360, 182.7109
818.8750, 260.4102
820.0140, 26.10938
821.1530, 97.82422
822.2920, 16.54297
823.4310, 139.7500
824.5690, 5.882813
825.7070, 80.50391
826.8460, 45.87109
827.9840, 240.7188
829.1220, 107.3086
830.2590, 49.09375
831.3970, 90.46484
832.5340, 76.02344
833.6710, 157.5938
834.8080, 180.7031
835.9450, 81.72656
837.0820, 95.74609
838.2190, 155.7148
839.3550, 383.1719
840.4910, 16.35547
841.6270, 30.08594
842.7630, 30.52344
843.8990, 3.035156
845.0350, 4.390625
846.1700, 31.97266
847.3060, 63.15234
848.4410, 125.6211
849.5760, 139.0391
850.7100, 216.4570
851.8450, 181.8906
852.9800, 149.3320
854.1140, 166.7695
855.2480, 45.21484
856.3820, 63.34375
857.5160, 42.92578
858.6500, 38.53906
859.7830, 188.8594
860.9170, 139.2695
862.0500, 71.31641
863.1830, 335.0586
864.3160, 282.4297
865.4480, 299.8164
866.5810, 51.78906
867.7130, 199.5742
868.8460, 7.937500
869.9780, 75.32031
871.1100, 35.70312
872.2410, 64.10156
873.3730, 248.5078
874.5050, 99.91406
875.6360, 296.3359
876.7670, 24.76172
877.8980, 4.191406
879.0290, 50.60938
880.1590, 248.0312
881.2900, 148.4609
882.4200, 242.8906
883.5500, 8.328125
884.6800, 221.7578
885.8100, 97.18750
886.9400, 104.6211
888.0690, 186.0664
889.1990, 118.5078
890.3280, 125.9570
891.4570, 305.4141
892.5860, 85.86719
893.7140, 323.6719
894.8430, 48.62109
895.9710, 452.9219
897.1000, 86.22266
898.2280, 30.53125
899.3560, 264.8398
900.4830, 90.15625
901.6110, 165.4727
902.7380, 285.7891
903.8660, 243.1211
904.9930, 107.4570
906.1200, 289.7930
907.2460, 113.8633
908.3730, 125.4219
909.5000, 122.7070
910.6260, 302.0000
911.7520, 360.2969
912.8780, 49.60547
914.0040, 170.9141
915.1290, 205.2305
916.2550, 54.12109
917.3800, 115.4531
918.5050, 264.7812
919.6300, 186.1172
920.7550, 345.4609
921.8800, 27.80859
923.0040, 230.7891
924.1290, 364.5312
925.2530, 403.8984
926.3770, 148.2773
927.5010, 97.65625
928.6250, 102.4844
929.7480, 108.5664
930.8720, 162.7734
931.9950, 139.1211
933.1180, 229.4766
934.2410, 82.83984
935.3640, 20.20312
936.4860, 369.5742
937.6090, 177.9609
938.7310, 213.3516
939.8530, 134.7500
940.9750, 146.1562
942.0970, 153.5664
943.2180, 112.9883
944.3400, 144.4141
945.4610, 194.8477
946.5820, 327.2891
947.7030, 272.7383
948.8240, 267.0352
949.9450, 105.5000
951.0650, 41.96875
952.1860, 162.4531
953.3060, 230.9414
954.4260, 491.4336
955.5460, 231.3320
956.6650, 377.8438
957.7850, 55.51172
958.9040, 253.2578
960.0230, 77.53516
961.1420, 63.08594
962.2610, 112.3633
963.3800, 110.9453
964.4990, 263.5391
965.6170, 417.6836
966.7350, 158.3008
967.8530, 353.9219
968.9710, 23.43750
970.0890, 35.20703
971.2070, 97.51562
972.3240, 30.77344
973.4410, 153.4102
974.5580, 2.058594
975.6750, 501.0547
976.7920, 141.1484
977.9090, 124.2656
979.0250, 378.1016
980.1410, 512.3945
981.2580, 366.6016
982.3740, 269.2656
983.4890, 291.0156
984.6050, 196.4570
985.7200, 201.7227
986.8360, 187.3438
987.9510, 244.1445
989.0660, 259.3164
990.1810, 257.1758
991.2950, 311.0781
992.4100, 314.8555
993.5240, 293.9727
994.6390, 473.9102
995.7530, 611.8711
996.8660, 490.1836
997.9800, 598.1992
999.0940, 478.2344
1000.207, 346.3047
1001.320, 652.8945
1002.433, 448.9961
1003.546, 546.1133
1004.659, 430.2500
1005.772, 387.0938
1006.884, 469.2266
1007.996, 652.4102
1009.108, 416.6680
1010.220, 619.8828
1011.332, 458.6680
1012.444, 531.0430
1013.555, 626.2266
1014.666, 244.5859
1015.777, 560.8828
1016.888, 397.1914
1017.999, 718.7031
1019.110, 340.0508
1020.220, 877.4102
1021.331, 293.7891
1022.441, 418.1875
1023.551, 721.6055
1024.661, 419.0469
1025.770, 484.4961
1026.880, 200.9648
1027.989, 128.3594
1029.098, 471.8594
1030.207, 333.4297
1031.316, 471.0352
1032.425, 74.47266
1033.533, 319.1172
1034.642, 626.7773
1035.750, 318.4609
1036.858, 116.1562
1037.966, 210.8789
1039.073, 406.6172
1040.181, 612.3828
1041.288, 784.6133
1042.396, 887.3438
1043.503, 969.8438
1044.610, 982.0781
1045.716, 970.9414
1046.823, 855.8281
1047.929, 704.7305
1049.036, 859.6562
1050.142, 887.6016
1051.248, 560.5703
1052.353, 388.5625
1053.459, 383.5781
1054.564, 547.6094
1055.670, 485.6445
1056.775, 505.7461
1057.880, 326.8594
1058.985, 156.0000
1060.089, 523.1602
1061.194, 350.3398
1062.298, 604.5430
1063.402, 228.0117
1064.506, 204.2578
1065.610, 358.5195
1066.713, 419.8086
1067.817, 287.1172
1068.920, 407.4297
1070.023, 231.7852
1071.126, 414.1602
1072.229, 121.5586
1073.332, 430.9766
1074.435, 632.4180
1075.537, 361.8789
1076.639, 11.36719
1077.741, 319.8789
1078.843, 204.4102
1079.945, 530.9648
1081.046, 336.5430
1082.148, 370.1484
1083.249, 400.7852
1084.350, 316.4375
1085.451, 244.1172
1086.551, 604.8125
1087.652, 315.5391
1088.752, 182.2891
1089.853, 505.0547
1090.953, 290.8555
1092.053, 411.5039
1093.152, 508.3945
1094.252, 350.3125
1095.351, 380.3203
1096.451, 354.7930
1097.550, 407.6289
1098.649, 256.6758
1099.748, 300.7500
1100.846, 147.8398
1101.945, 127.4141
1103.043, 235.5508
1104.141, 360.2852
1105.239, 235.5273
1106.337, 422.7969
1107.434, 137.0781
1108.532, 555.4062
1109.629, 27.76172
1110.726, 280.1406
1111.823, 494.5586
1112.920, 517.9961
1114.017, 167.4688
1115.113, 262.9609
1116.210, 294.4844
1117.306, 326.0195
1118.402, 279.5898
1119.498, 457.1719
1120.593, 626.7852
1121.689, 746.4258
1122.784, 752.0859
1123.879, 548.7891
1124.974, 1008.176
1126.069, 308.9688
1127.164, 311.6367
1128.259, 321.9297
1129.353, 570.8164
1130.447, 396.7227
1131.541, 188.0312
1132.635, 179.9844
1133.729, 188.9766
1134.822, 199.9883
1135.916, 287.0352
1137.009, 22.09766
1138.102, 251.1875
1139.195, 221.3008
1140.288, 103.5664
1141.380, 126.5625
1142.473, 293.7188
1143.565, 17.10938
1144.657, 535.0938
1145.749, 7.679688
1146.841, 186.5820
1147.932, 277.8672
1149.024, 467.1719
1150.115, 270.5195
1151.206, 568.8867
1152.297, 507.2773
1153.388, 239.3555
1154.479, 380.7852
1155.569, 304.2461
1156.659, 293.7227
1157.750, 441.2266
1158.839, 268.7500
1159.929, 429.4414
1161.019, 233.5312
1162.108, 216.8672
1163.198, 248.5625
1164.287, 318.2812
1165.376, 293.0195
1166.465, 310.7812
1167.553, 178.5703
1168.642, 281.3750
1169.730, 210.2031
1170.818, 373.0547
1171.906, 485.9219
1172.994, 165.8398
1174.082, 288.7812
1175.170, 333.7031
1176.257, 373.6875
1177.344, 597.6875
1178.431, 836.7188
1179.518, 550.7617
1180.605, 747.8320
1181.691, 889.9219
1182.778, 1179.023
1183.864, 1542.340
1184.950, 1783.492
1186.036, 2309.965
1187.122, 2695.156
1188.207, 3056.359
1189.292, 2945.590
1190.378, 3095.836
1191.463, 2657.102
1192.548, 2282.387
1193.632, 2163.699
1194.717, 1869.051
1195.801, 1668.426
1196.886, 1368.816
1197.970, 1201.230
1199.054, 595.6641
1200.137, 700.1172
1201.221, 692.5859
1202.305, 368.0781
1203.388, 578.5820
1204.471, 356.1094
1205.554, 478.6562
1206.637, 397.2227
1207.719, 332.8047
1208.802, 238.4062
1209.884, 192.3281
1210.966, 186.1250
1212.048, 124.3203
1213.130, 215.0000
1214.212, 257.6914
1215.293, 281.4102
1216.374, 340.3164
1217.456, 315.8906
1218.536, 360.6562
1219.617, 312.4375
1220.698, 196.2422
1221.778, 22.94141
1222.859, 195.8906
1223.939, 196.7422
1225.019, 51.39453
1226.099, 184.4727
1227.178, 56.64844
1228.258, 347.2305
1229.337, 361.1250
1230.417, 406.0352
1231.496, 304.9648
1232.574, 536.9102
1233.653, 180.8750
1234.732, 10.87500
1235.810, 581.8906
1236.888, 205.9258
1237.966, 658.9727
1239.044, 207.0391
1240.122, 198.1172
1241.199, 267.2109
1242.277, 453.3242
1243.354, 126.4492
1244.431, 285.5938
1245.508, 460.7539
1246.585, 144.9258
1247.661, 152.1133
1248.738, 126.3320
1249.814, 187.5742
1250.890, 320.8320
1251.966, 212.1055
1253.042, 339.3984
1254.117, 229.3008
1255.193, 196.9102
1256.268, 37.86328
1257.343, 122.6406
1258.418, 256.5430
1259.493, 25.73438
1260.567, 103.0508
1261.642, 445.1211
1262.716, 71.30859
1263.790, 248.5312
1264.864, 357.7734
1265.938, 297.0312
1267.011, 20.29688
1268.085, 392.5742
1269.158, 194.8672
1270.231, 97.34375
1271.304, 421.6953
1272.377, 169.0547
1273.450, 34.21094
1274.522, 282.5977
1275.594, 286.2227
1276.666, 396.6406
1277.738, 93.07031
1278.810, 339.3320
1279.882, 89.78516
1280.953, 303.2500
1282.025, 27.26953
1283.096, 271.2070
1284.167, 100.6953
1285.238, 233.1914
1286.308, 115.7070
1287.379, 188.2305
1288.449, 122.2305
1289.519, 58.74219
1290.589, 62.67188
1291.659, 370.1758
1292.729, 41.63672
1293.798, 197.1094
1294.868, 287.3867
1295.937, 244.8828
1297.006, 344.5156
1298.075, 177.9062
1299.143, 313.4336
1300.212, 267.9688
1301.280, 50.51953
1302.348, 110.0781
1303.416, 8.355469
1304.484, 367.2109
1305.552, 511.7891
1306.620, 339.3750
1307.687, 301.9688
1308.754, 220.5742
1309.821, 132.9023
1310.888, 115.8125
1311.955, 11.55859
1313.021, 25.07031
1314.088, 68.28906
1315.154, 299.3164
1316.220, 80.92969
1317.286, 275.5586
1318.352, 580.1992
1319.417, 234.8398
1320.483, 352.4883
1321.548, 115.1562
1322.613, 340.8281
1323.678, 542.4961
1324.743, 248.1758
1325.807, 49.86719
1326.872, 289.5625
1327.936, 250.2656
1329.000, 308.9766
1330.064, 262.6992
1331.128, 428.4297
1332.191, 399.1719
1333.255, 32.91406
1334.318, 277.6680
1335.381, 270.4297
1336.444, 355.2031
1337.507, 485.9844
1338.569, 229.7695
1339.632, 241.5625
1340.694, 281.3672
1341.756, 523.1797
1342.818, 561.9961
1343.880, 456.8242
1344.941, 274.6562
1346.003, 187.5000
1347.064, 247.3516
1348.125, 421.2109
1349.186, 419.0781
1350.247, 389.1680
1351.308, 442.0469
1352.368, 226.9375
1353.428, 199.7812
1354.489, 194.6836
1355.549, 93.26953
1356.608, 336.1914
1357.668, 71.12109
1358.727, 355.0586
1359.787, 372.0039
1360.846, 644.9570
1361.905, 119.9102
1362.964, 167.8789
1364.022, 247.8281
1365.081, 52.77344
1366.139, 230.7188
1367.197, 114.6797
1368.255, 218.6367
1369.313, 380.6055
1370.371, 268.9258
1371.428, 96.57031
1372.486, 186.5625
1373.543, 100.5547
1374.600, 68.55469
1375.657, 24.56250
1376.713, 67.65625
1377.770, 316.9141
1378.826, 131.9375
1379.882, 324.9805
1380.938, 253.0234
1381.994, 171.4453
1383.050, 244.5078
1384.106, 299.7188
1385.161, 214.9805
1386.216, 222.4258
1387.271, 145.5234
1388.326, 58.25391
1389.381, 112.3672
1390.435, 165.1211
1391.490, 139.2539
1392.544, 315.3984
1393.598, 269.5508
1394.652, 369.7148
1395.705, 165.8867
1396.759, 9.281250
1397.812, 32.48438
1398.866, 183.6992
1399.919, 118.9219
1400.972, 143.1562
1402.024, 45.59766
1403.077, 380.6406
1404.129, 50.89062
1405.181, 36.84766
1406.233, 366.4141
1407.285, 270.6836
1408.337, 293.9609
1409.389, 276.5859
1410.440, 170.8906
1411.491, 219.2070
1412.542, 156.7930
1413.593, 318.0312
1414.644, 122.2930
1415.695, 162.5039
1416.745, 202.3555
1417.795, 72.10547
1418.845, 455.4141
1419.895, 161.7539
1420.945, 7.914063
1421.995, 339.3125
1423.044, 311.5547
1424.093, 21.44531
1425.142, 161.5625
1426.191, 441.7266
1427.240, 334.9023
1428.289, 442.0156
1429.337, 301.1289
1430.385, 341.2852
1431.433, 229.3867
1432.481, 185.4805
1433.529, 514.5664
1434.577, 121.6406
1435.624, 530.6953
1436.672, 392.7500
1437.719, 85.85547
1438.766, 391.6758
1439.812, 207.8086
1440.859, 547.5000
1441.905, 423.9258
1442.952, 257.5547
1443.998, 429.6367
1445.044, 556.6289
1446.090, 392.6523
1447.135, 128.7227
1448.181, 193.5078
1449.226, 272.5742
1450.271, 581.8984
1451.316, 390.2383
1452.361, 566.5820
1453.405, 238.9336
1454.450, 746.2930
1455.494, 529.6602
1456.538, 434.0312
1457.582, 457.4062
1458.626, 348.7930
1459.670, 580.1914
1460.713, 265.5898
1461.757, 236.0039
1462.800, 425.4258
1463.843, 202.8516
1464.886, 263.3125
1465.928, 592.7969
1466.971, 311.2852
1468.013, 324.7812
1469.055, 398.2891
1470.097, 243.7969
1471.139, 345.3203
1472.181, 248.8477
1473.222, 193.3789
1474.263, 261.9180
1475.305, 122.4492
1476.346, 392.9375
1477.386, 145.4258
1478.427, 484.9883
1479.468, 257.6484
1480.508, 484.3945
1481.548, 558.1836
1482.588, 180.9844
1483.628, 429.7617
1484.668, 503.5469
1485.707, 318.0117
1486.747, 347.7344
1487.786, 425.4648
1488.825, 128.3438
1489.864, 409.8320
1490.902, 425.4648
1491.941, 414.1094
1492.979, 416.7773
1494.017, 85.44141
1495.055, 577.1602
1496.093, 807.0078
1497.131, 483.8867
1498.168, 157.4570
1499.206, 195.3359
1500.243, 205.2188
1501.280, 87.88281
1502.317, 280.0352
1503.354, 110.9844
1504.390, 90.94922
1505.426, 301.9297
1506.463, 360.9453
1507.499, 279.0312
1508.535, 406.1641
1509.570, 494.3203
1510.606, 316.4961
1511.641, 329.7109
1512.676, 362.9648
1513.711, 218.2422
1514.746, 70.45312
1515.781, 295.8711
1516.816, 451.2227
1517.850, 147.6016
1518.884, 440.0039
1519.918, 339.4336
1520.952, 76.10547
1521.986, 431.3750
1523.019, 218.8984
1524.053, 242.4414
1525.086, 627.0234
1526.119, 165.6406
1527.152, 276.2891
1528.185, 181.9609
1529.217, 247.6562
1530.250, 493.4062
1531.282, 178.2500
1532.314, 361.3164
1533.346, 177.4453
1534.377, 368.6367
1535.409, 330.8828
1536.440, 331.2422
1537.472, 82.81641
1538.503, 373.6562
1539.534, 537.5391
1540.564, 286.4453
1541.595, 124.3906
1542.625, 261.3594
1543.656, 154.3633
1544.686, 115.9219
1545.716, 223.0547
1546.745, 154.5977
1547.775, 3.847656
1548.804, 125.5156
1549.834, 112.9805
1550.863, 113.2031
1551.892, 217.1602
1552.920, 339.7773
1553.949, 555.9688
1554.977, 524.6523
1556.006, 408.3203
1557.034, 382.1367
1558.062, 232.3164
1559.089, 463.4062
1560.117, 135.8438
1561.144, 103.2305
1562.172, 236.6758
1563.199, 97.00781
1564.226, 339.2578
1565.252, 38.65625
1566.279, 15.45312
1567.305, 117.3320
1568.332, 220.6758
1569.358, 126.9883
1570.384, 1.421875
1571.409, 121.0977
1572.435, 0.0000000E+00
##END=



