##NAMES=Diaspore
##RRUFFID=R060546
##IDEAL CHEMISTRY=AlO(OH)
##LOCALITY=Turkey
##OWNER=RRUFF
##SOURCE=Gemological Institute of America
##DESCRIPTION=Platy transparent pale yellow fragment
##STATUS=The identification of this mineral has been confirmed by X-ray diffraction and chemical analysis
##URL=rruff.info/R060546
##MEASURED CHEMISTRY=(Al_0.99_Fe^3+^_0.01_)_Î£=1_O(OH) ; OH estimated by difference; Fe^3+^ by charge balance
##PIN_ID=L01635
##ORIENTATION=Laser parallel to c* (0 0 1). Fiducial mark perpendicular to laser is parallel to a [1 0 0]
132.8980, 0.0000000E+00
134.1270, 2.166260
135.3560, 21.78540
136.5850, 15.63159
137.8140, 55.91382
139.0430, 84.93921
140.2710, 150.7200
141.5000, 338.2209
142.7280, 522.8569
143.9560, 944.1138
145.1840, 1593.015
146.4120, 2289.373
147.6390, 2578.903
148.8670, 2633.355
150.0940, 3433.609
151.3210, 4555.644
152.5490, 4882.060
153.7750, 4877.467
155.0020, 4995.262
156.2290, 6727.041
157.4550, 8594.504
158.6810, 8002.843
159.9080, 5662.456
161.1340, 3410.238
162.3590, 1718.522
163.5850, 793.5791
164.8110, 518.9536
166.0360, 315.9004
167.2610, 174.6436
168.4860, 124.0688
169.7110, 124.7598
170.9360, 25.22266
172.1610, 145.6492
173.3850, 106.9556
174.6100, 117.0349
175.8340, 7.285889
177.0580, 9.022217
178.2820, 24.60376
179.5050, 1.491943
180.7290, 93.93091
181.9520, 62.72168
183.1760, 44.96582
184.3990, 176.7678
185.6220, 27.90869
186.8450, 74.28149
188.0670, 147.1125
189.2900, 150.4121
190.5120, 117.8669
191.7340, 104.7651
192.9560, 88.72095
194.1780, 79.36523
195.4000, 115.7017
196.6220, 111.7566
197.8430, 99.19531
199.0640, 139.9673
200.2860, 144.4089
201.5070, 151.4653
202.7270, 144.3950
203.9480, 98.60864
205.1690, 99.39526
206.3890, 45.21069
207.6090, 8.072021
208.8290, 41.01367
210.0490, 53.04565
211.2690, 21.97437
212.4890, 25.04419
213.7080, 97.15967
214.9280, 33.31787
216.1470, 15.51587
217.3660, 7.749512
218.5850, 21.01392
219.8030, 9.693848
221.0220, 0.6230470
222.2400, 7.037354
223.4590, 17.67798
224.6770, 24.29956
225.8950, 27.09399
227.1120, 7.499268
228.3300, 32.10181
229.5480, 32.70752
230.7650, 65.68823
231.9820, 16.91431
233.1990, 16.51953
234.4160, 39.87695
235.6330, 37.72461
236.8490, 16.67505
238.0660, 7.6660000E-02
239.2820, 15.52002
240.4980, 28.88525
241.7140, 27.70752
242.9300, 1.700684
244.1460, 1.081299
245.3610, 14.39380
246.5770, 25.59473
247.7920, 15.01807
249.0070, 55.32593
250.2220, 1.384277
251.4370, 37.88184
252.6510, 37.17163
253.8660, 1.447510
255.0800, 22.69189
256.2940, 91.95947
257.5080, 1.242676
258.7220, 136.5347
259.9360, 273.8230
261.1490, 227.1389
262.3630, 88.49097
263.5760, 56.87476
264.7890, 76.29639
266.0020, 24.22119
267.2150, 84.30908
268.4270, 12.14990
269.6400, 74.42944
270.8520, 63.02271
272.0640, 55.61670
273.2760, 106.1958
274.4880, 155.7664
275.7000, 206.3381
276.9120, 319.9119
278.1230, 521.4871
279.3340, 854.0042
280.5450, 1087.260
281.7560, 1350.848
282.9670, 1487.506
284.1780, 1853.208
285.3880, 2114.565
286.5980, 2413.575
287.8090, 2800.410
289.0190, 3010.144
290.2290, 3443.866
291.4380, 3622.567
292.6480, 3063.245
293.8570, 2248.900
295.0670, 1478.531
296.2760, 970.1394
297.4850, 680.7258
298.6930, 371.2832
299.9020, 297.8125
301.1110, 262.2642
302.3190, 244.6660
303.5270, 193.0393
304.7350, 176.3799
305.9430, 160.6819
307.1510, 135.9575
308.3580, 187.2095
309.5660, 169.4382
310.7730, 134.6470
311.9800, 274.8372
313.1870, 254.0100
314.3940, 253.1670
315.6010, 315.3064
316.8070, 451.3516
318.0130, 542.3208
319.2200, 845.2788
320.4260, 1156.222
321.6310, 1777.444
322.8370, 2455.401
324.0430, 3133.090
325.2480, 3557.273
326.4540, 4163.033
327.6590, 4989.698
328.8640, 5680.203
330.0680, 5971.850
331.2730, 6391.081
332.4780, 7480.634
333.6820, 8422.231
334.8860, 8181.823
336.0900, 6571.417
337.2940, 4714.011
338.4980, 3065.597
339.7010, 1888.151
340.9050, 1289.749
342.1080, 840.3516
343.3110, 600.9592
344.5140, 446.5713
345.7170, 463.1716
346.9200, 314.7668
348.1220, 238.3672
349.3240, 162.9722
350.5270, 126.5811
351.7290, 131.0452
352.9310, 138.9512
354.1320, 55.89282
355.3340, 167.1143
356.5350, 80.41870
357.7370, 122.7771
358.9380, 99.41333
360.1390, 115.8662
361.3400, 139.7585
362.5400, 153.2573
363.7410, 190.6331
364.9410, 153.8096
366.1410, 185.6584
367.3410, 275.0508
368.5410, 250.7993
369.7410, 295.2388
370.9400, 267.7231
372.1400, 270.9812
373.3390, 111.9136
374.5380, 109.8296
375.7370, 180.4563
376.9360, 73.01392
378.1350, 115.0100
379.3330, 34.86450
380.5310, 81.57104
381.7300, 33.19922
382.9280, 79.24707
384.1260, 170.4075
385.3230, 142.9795
386.5210, 246.4573
387.7180, 446.9417
388.9160, 574.3525
390.1130, 530.8811
391.3100, 824.3828
392.5060, 1110.907
393.7030, 1115.024
394.9000, 1102.745
396.0960, 1220.642
397.2920, 1498.888
398.4880, 1428.658
399.6840, 1011.266
400.8800, 644.9761
402.0750, 371.5872
403.2710, 236.7278
404.4660, 178.1465
405.6610, 198.8616
406.8560, 220.5774
408.0510, 170.2942
409.2450, 144.0117
410.4400, 200.0342
411.6340, 225.7522
412.8280, 158.5498
414.0220, 257.2683
415.2160, 254.9866
416.4100, 304.7046
417.6030, 283.4246
418.7970, 376.1443
419.9900, 348.8643
421.1830, 376.5840
422.3760, 432.3047
423.5690, 583.0210
424.7610, 594.7354
425.9540, 662.4453
427.1460, 830.1514
428.3380, 890.8525
429.5300, 1041.549
430.7220, 1306.241
431.9140, 1591.928
433.1050, 1953.609
434.2970, 2465.287
435.4880, 3256.978
436.6790, 4600.663
437.8700, 6753.344
439.0610, 10185.02
440.2510, 14603.69
441.4420, 18855.36
442.6320, 22220.03
443.8220, 26807.69
445.0120, 33038.35
446.2020, 36703.00
447.3910, 38742.66
448.5810, 42863.31
449.7700, 50110.96
450.9600, 52089.60
452.1490, 44525.25
453.3370, 32265.89
454.5260, 20538.53
455.7150, 12651.16
456.9030, 8076.802
458.0910, 5458.435
459.2800, 3974.065
460.4670, 3008.695
461.6550, 2284.324
462.8430, 1838.951
464.0300, 1496.577
465.2180, 1259.207
466.4050, 1195.840
467.5920, 953.4727
468.7790, 836.1084
469.9650, 767.7446
471.1520, 682.3804
472.3380, 564.0176
473.5250, 567.6558
474.7110, 577.2959
475.8970, 436.9375
477.0820, 434.5796
478.2680, 464.2231
479.4540, 377.8662
480.6390, 305.5117
481.8240, 285.1572
483.0090, 279.8042
484.1940, 299.4521
485.3780, 270.1011
486.5630, 193.7510
487.7470, 302.4019
488.9320, 247.0537
490.1160, 383.7065
491.3000, 451.3608
492.4830, 544.0156
493.6670, 607.6729
494.8500, 603.3311
496.0340, 683.9937
497.2170, 850.6738
498.4000, 786.3740
499.5820, 892.0762
500.7650, 1035.781
501.9480, 997.4873
503.1300, 770.1963
504.3120, 518.9077
505.4940, 328.6226
506.6760, 227.3403
507.8580, 181.0654
509.0390, 181.7959
510.2210, 35.53369
511.4020, 75.71875
512.5830, 78.99561
513.7640, 62.71191
514.9450, 13.43213
516.1250, 53.16504
517.3060, 10.08887
518.4860, 52.35107
519.6660, 47.36377
520.8460, 46.91211
522.0260, 16.78418
523.2060, 13.50488
524.3850, 25.80273
525.5650, 62.88525
526.7440, 127.5820
527.9230, 43.71924
529.1020, 46.03711
530.2810, 13.37842
531.4590, 27.72803
532.6380, 26.09326
533.8160, 44.52539
534.9940, 1.854004
536.1720, 99.23633
537.3500, 1.329590
538.5270, 85.10596
539.7050, 33.58838
540.8820, 41.91162
542.0590, 55.41406
543.2360, 31.08105
544.4130, 19.59326
545.5900, 40.11670
546.7660, 117.3369
547.9430, 16.79297
549.1190, 123.2510
550.2950, 119.7119
551.4710, 152.1748
552.6470, 183.6479
553.8220, 277.1230
554.9980, 265.6055
556.1730, 217.0898
557.3480, 277.5767
558.5230, 213.3208
559.6980, 232.8130
560.8730, 131.3076
562.0470, 50.80469
563.2220, 92.30469
564.3960, 135.8076
565.5700, 100.3125
566.7440, 37.82031
567.9170, 41.33105
569.0910, 120.8442
570.2640, 220.3608
571.4380, 216.8794
572.6110, 248.4009
573.7840, 353.9258
574.9570, 445.0059
576.1290, 563.3208
577.3020, 787.4297
578.4740, 877.9663
579.6460, 1178.506
580.8180, 1446.292
581.9900, 1459.837
583.1620, 1523.456
584.3330, 1699.015
585.5040, 1708.577
586.6760, 1315.142
587.8470, 943.7109
589.0180, 640.6172
590.1880, 352.1924
591.3590, 316.7700
592.5290, 391.3516
593.7000, 361.9365
594.8700, 342.5249
596.0400, 429.1157
597.2090, 394.7109
598.3790, 448.3096
599.5490, 559.9111
600.7180, 641.5166
601.8870, 796.1348
603.0560, 912.7583
604.2250, 1043.385
605.3940, 1150.016
606.5620, 1337.650
607.7300, 1434.288
608.8990, 1466.929
610.0670, 1522.575
611.2350, 1546.226
612.4020, 1372.881
613.5700, 1356.543
614.7370, 1105.207
615.9050, 996.8760
617.0720, 829.5488
618.2390, 699.2246
619.4060, 695.9097
620.5720, 472.5991
621.7390, 550.2925
622.9050, 396.9893
624.0710, 328.6899
625.2370, 391.3950
626.4030, 403.1030
627.5690, 408.8262
628.7340, 403.5532
629.9000, 399.7109
631.0650, 351.0400
632.2300, 383.7993
633.3950, 398.5630
634.5600, 406.3311
635.7240, 346.1060
636.8890, 480.8848
638.0530, 387.6768
639.2170, 494.4771
640.3810, 531.2827
641.5450, 618.0918
642.7080, 671.9043
643.8720, 809.7207
645.0350, 791.5405
646.1980, 849.3638
647.3610, 1070.191
648.5240, 1040.021
649.6870, 1132.856
650.8490, 1211.693
652.0120, 1264.451
653.1740, 1368.296
654.3360, 1472.146
655.4980, 1636.998
656.6600, 1829.854
657.8210, 2014.761
658.9830, 2359.019
660.1440, 2731.906
661.3050, 3165.546
662.4660, 3293.451
663.6270, 3607.201
664.7870, 3816.184
665.9480, 4105.102
667.1080, 4236.032
668.2680, 4074.924
669.4280, 3919.679
670.5880, 3668.491
671.7480, 3040.413
672.9070, 2674.447
674.0670, 2230.415
675.2260, 1910.978
676.3850, 1455.490
677.5440, 1241.271
678.7030, 949.7188
679.8610, 866.4253
681.0200, 755.4834
682.1780, 520.5518
683.3360, 521.4658
684.4940, 405.1182
685.6520, 322.4985
686.8090, 299.6021
687.9670, 196.7300
689.1240, 149.8701
690.2810, 159.0151
691.4380, 202.1733
692.5950, 130.3369
693.7520, 76.50684
694.9080, 132.6821
696.0650, 35.86328
697.2210, 15.95068
698.3770, 123.2397
699.5330, 102.4355
700.6880, 33.63770
701.8440, 40.84570
702.9990, 75.05908
704.1550, 50.27979
705.3100, 38.51318
706.4650, 115.7524
707.6190, 15.99707
708.7740, 131.2466
709.9290, 101.5020
711.0830, 108.7632
712.2370, 30.02979
713.3910, 42.30078
714.5450, 93.42285
715.6980, 81.82422
716.8520, 13.07666
718.0050, 50.33447
719.1580, 15.40234
720.3110, 39.86279
721.4640, 5.289063
722.6170, 39.98535
723.7700, 25.26465
724.9220, 60.54932
726.0740, 37.83887
727.2260, 18.86719
728.3780, 116.4287
729.5300, 77.72900
730.6810, 20.03418
731.8330, 71.34326
732.9840, 168.6582
734.1350, 110.9775
735.2860, 114.3149
736.4370, 148.6436
737.5880, 154.9766
738.7380, 140.3140
739.8880, 176.7202
741.0390, 135.3506
742.1890, 120.7012
743.3380, 113.0566
744.4880, 115.9087
745.6380, 239.7793
746.7870, 160.1704
747.9360, 175.5420
749.0850, 221.3896
750.2340, 164.7695
751.3830, 247.6367
752.5310, 264.0244
753.6800, 245.4160
754.8280, 257.8115
755.9760, 285.8979
757.1240, 342.8203
758.2720, 352.2271
759.4190, 361.6885
760.5670, 387.1030
761.7140, 333.5200
762.8610, 485.9414
764.0080, 570.3652
765.1550, 659.3081
766.3020, 632.7393
767.4480, 837.7065
768.5950, 792.1436
769.7410, 985.8872
770.8870, 1009.368
772.0330, 1151.882
773.1780, 1371.004
774.3240, 1425.456
775.4690, 1565.177
776.6140, 1896.313
777.7590, 2239.150
778.9040, 2429.611
780.0490, 2707.074
781.1940, 3298.540
782.3380, 3857.007
783.4820, 4260.477
784.6260, 4959.948
785.7700, 5561.421
786.9140, 6324.898
788.0580, 7031.375
789.2010, 7691.856
790.3450, 8377.358
791.4880, 8745.864
792.6310, 8811.371
793.7730, 8737.193
794.9160, 8171.704
796.0590, 7758.223
797.2010, 7123.285
798.3430, 6345.699
799.4850, 5523.251
800.6270, 4812.805
801.7690, 3936.366
802.9100, 3497.937
804.0520, 3056.638
805.1930, 2461.210
806.3340, 2224.798
807.4750, 1959.400
808.6160, 1706.009
809.7560, 1417.627
810.8970, 1372.635
812.0370, 1109.467
813.1770, 926.5889
814.3170, 1039.418
815.4570, 827.4795
816.5960, 758.4194
817.7360, 640.1558
818.8750, 659.9292
820.0140, 638.6235
821.1530, 670.3271
822.2920, 497.0371
823.4310, 547.5181
824.5690, 400.6279
825.7070, 419.5986
826.8460, 417.3164
827.9840, 375.5352
829.1220, 299.2495
830.2590, 256.9624
831.3970, 278.6738
832.5340, 155.3833
833.6710, 199.0908
834.8080, 190.7407
835.9450, 243.4448
837.0820, 220.2271
838.2190, 233.9268
839.3550, 91.63379
840.4910, 242.6055
841.6270, 149.0449
842.7630, 184.7446
843.8990, 225.4424
845.0350, 92.13770
846.1700, 186.8301
847.3060, 175.5205
848.4410, 146.2085
849.5760, 215.8936
850.7100, 154.5762
851.8450, 135.3447
852.9800, 98.02197
854.1140, 190.6973
855.2480, 191.3691
856.3820, 40.79688
857.5160, 20.53662
858.6500, 164.0498
859.7830, 143.6978
860.9170, 201.3418
862.0500, 147.9834
863.1830, 106.6216
864.3160, 84.92188
865.4480, 63.55469
866.5810, 129.1851
867.7130, 109.8120
868.8460, 13.43604
869.9780, 91.05713
871.1100, 10.67529
872.2410, 105.2896
873.3730, 96.90088
874.5050, 90.50928
875.6360, 25.88574
876.7670, 2.697754
877.8980, 33.27393
879.0290, 43.84668
880.1590, 42.41650
881.2900, 15.98291
882.4200, 12.54590
883.5500, 68.10498
884.6800, 0.6606450
885.8100, 81.20752
886.9400, 0.7514650
888.0690, 70.28613
889.1990, 21.81738
890.3280, 22.34521
891.4570, 13.86914
892.5860, 9.610352
893.7140, 47.89502
894.8430, 13.39648
895.9710, 39.89404
897.1000, 113.3877
898.2280, 165.8774
899.3560, 137.8647
900.4830, 30.15381
901.6110, 112.3037
902.7380, 30.24316
903.8660, 34.18359
904.9930, 26.39307
906.1200, 16.00586
907.2460, 14.40088
908.3730, 0.2089840
909.5000, 28.16992
910.6260, 25.45459
911.7520, 0.1030270
912.8780, 5.237305
914.0040, 77.57080
915.1290, 64.89941
916.2550, 52.22461
917.3800, 45.54590
918.5050, 48.86279
919.6300, 95.17627
920.7550, 116.4863
921.8800, 104.0278
923.0040, 106.9736
924.1290, 74.39160
925.2530, 84.68555
926.3770, 71.97510
927.5010, 100.2612
928.6250, 7.543457
929.7480, 100.8179
930.8720, 110.0879
931.9950, 60.64551
933.1180, 18.42285
934.2410, 50.77930
935.3640, 101.9775
936.4860, 34.17139
937.6090, 96.36084
938.7310, 22.45410
939.8530, 149.7075
940.9750, 77.86523
942.0970, 98.01904
943.2180, 59.16797
944.3400, 50.31299
945.4610, 26.54688
946.5820, 23.78467
947.7030, 44.34180
948.8240, 39.28564
949.9450, 27.09229
951.0650, 24.86963
952.1860, 16.70947
953.3060, 6.322754
954.4260, 28.63037
955.5460, 23.57861
956.6650, 97.52246
957.7850, 33.53809
958.9040, 59.62842
960.0230, 9.760742
961.1420, 31.09082
962.2610, 14.06250
963.3800, 56.76514
964.4990, 82.58936
965.6170, 25.40820
966.7350, 35.22266
967.8530, 28.96680
968.9710, 6.838379
970.0890, 45.63867
971.2070, 10.43457
972.3240, 63.22461
973.4410, 34.99463
974.5580, 5.776367
975.6750, 18.44922
976.7920, 30.30566
977.9090, 72.05615
979.0250, 154.8027
980.1410, 82.58154
981.2580, 160.3198
982.3740, 187.0542
983.4890, 201.7847
984.6050, 114.5112
985.7200, 115.2339
986.8360, 127.9702
987.9510, 109.7021
989.0660, 138.4307
990.1810, 125.1562
991.2950, 105.8789
992.4100, 99.02051
993.5240, 82.73633
994.6390, 193.4492
995.7530, 246.1587
996.8660, 215.8652
997.9800, 230.5674
999.0940, 231.2695
1000.207, 157.9678
1001.320, 302.6621
1002.433, 236.3540
1003.546, 325.0425
1004.659, 278.7275
1005.772, 379.3965
1006.884, 247.0762
1007.996, 266.7529
1009.108, 194.4268
1010.220, 193.0337
1011.332, 203.6265
1012.444, 186.0850
1013.555, 213.7549
1014.666, 195.4229
1015.777, 143.0884
1016.888, 103.7280
1017.999, 200.3892
1019.110, 186.5767
1020.220, 67.23389
1021.331, 166.4058
1022.441, 132.0586
1023.551, 138.7153
1024.661, 276.3740
1025.770, 134.9985
1026.880, 159.4800
1027.989, 202.1338
1029.098, 152.7354
1030.207, 83.38623
1031.316, 240.0459
1032.425, 135.7080
1033.533, 194.3696
1034.642, 187.5151
1035.750, 163.1748
1036.858, 271.2998
1037.966, 121.9580
1039.073, 196.3120
1040.181, 253.9312
1041.288, 180.5205
1042.396, 155.5020
1043.503, 339.1587
1044.610, 134.5474
1045.716, 341.5234
1046.823, 297.8013
1047.929, 353.4575
1049.036, 333.1147
1050.142, 288.7715
1051.248, 247.4292
1052.353, 159.0869
1053.459, 294.7451
1054.564, 275.4038
1055.670, 123.0630
1056.775, 212.7227
1057.880, 151.3833
1058.985, 92.04443
1060.089, 87.70654
1061.194, 168.3691
1062.298, 127.7202
1063.402, 158.3535
1064.506, 154.0498
1065.610, 165.1899
1066.713, 103.9800
1067.817, 94.64990
1068.920, 54.32080
1070.023, 72.99316
1071.126, 64.05029
1072.229, 55.21387
1073.332, 70.89258
1074.435, 112.5723
1075.537, 111.2549
1076.639, 77.93896
1077.741, 219.6250
1078.843, 106.9351
1079.945, 156.4229
1081.046, 154.6260
1082.148, 89.15234
1083.249, 116.4526
1084.350, 155.9009
1085.451, 198.5664
1086.551, 190.5615
1087.652, 166.9106
1088.752, 162.6270
1089.853, 97.34766
1090.953, 53.31104
1092.053, 37.27686
1093.152, 120.1313
1094.252, 14.86768
1095.351, 54.10645
1096.451, 72.85205
1097.550, 54.60205
1098.649, 55.35742
1099.748, 134.1172
1100.846, 62.88184
1101.945, 24.45996
1103.043, 172.2681
1104.141, 94.00049
1105.239, 64.18115
1106.337, 128.6240
1107.434, 121.1675
1108.532, 15.24805
1109.629, 116.0708
1110.726, 65.89893
1111.823, 4.250488
1112.920, 50.60498
1114.017, 107.4663
1115.113, 74.33350
1116.210, 166.2056
1117.306, 199.0840
1118.402, 377.9683
1119.498, 393.8579
1120.593, 464.7529
1121.689, 534.6543
1122.784, 530.3359
1123.879, 537.9839
1124.974, 511.4004
1126.069, 452.3745
1127.164, 379.3130
1128.259, 269.2563
1129.353, 259.2061
1130.447, 156.1621
1131.541, 127.1245
1132.635, 153.0928
1133.729, 82.06787
1134.822, 93.04834
1135.916, 174.0352
1137.009, 132.0283
1138.102, 65.02881
1139.195, 124.0352
1140.288, 67.04834
1141.380, 72.07812
1142.473, 56.16309
1143.565, 16.21729
1144.657, 39.34326
1145.749, 37.80713
1146.841, 104.9111
1147.932, 61.02197
1149.024, 184.1396
1150.115, 165.2642
1151.206, 167.3975
1152.297, 140.5376
1153.388, 123.6870
1154.479, 220.0146
1155.569, 125.0962
1156.659, 161.2881
1157.750, 101.4868
1158.839, 252.6982
1159.929, 322.9243
1161.019, 239.1582
1162.108, 187.4868
1163.198, 273.4756
1164.287, 269.9150
1165.376, 347.1748
1166.465, 486.4683
1167.553, 374.7686
1168.642, 543.0869
1169.730, 465.4126
1170.818, 509.7544
1171.906, 575.1035
1172.994, 626.4604
1174.082, 667.8267
1175.170, 846.2007
1176.257, 802.5913
1177.344, 1094.992
1178.431, 1035.402
1179.518, 1397.819
1180.605, 1512.243
1181.691, 1708.674
1182.778, 2158.111
1183.864, 2657.555
1184.950, 3266.007
1186.036, 4047.464
1187.122, 4827.931
1188.207, 5901.402
1189.292, 7201.882
1190.378, 8527.367
1191.463, 9753.861
1192.548, 10880.36
1193.632, 11589.87
1194.717, 11711.39
1195.801, 11567.91
1196.886, 10558.46
1197.970, 9154.024
1199.054, 7323.596
1200.137, 6031.175
1201.221, 4631.763
1202.305, 3596.355
1203.388, 2846.992
1204.471, 2273.607
1205.554, 1882.232
1206.637, 1615.863
1207.719, 1323.502
1208.802, 986.1479
1209.884, 915.8115
1210.966, 726.4917
1212.048, 636.1938
1213.130, 464.9175
1214.212, 503.6582
1215.293, 457.4165
1216.374, 382.1816
1217.456, 310.9595
1218.536, 307.7432
1219.617, 324.5342
1220.698, 281.2842
1221.778, 249.1489
1222.859, 249.9917
1223.939, 201.8467
1225.019, 194.7090
1226.099, 110.5845
1227.178, 114.4668
1228.258, 98.35547
1229.337, 226.2520
1230.417, 84.15430
1231.496, 141.7363
1232.574, 136.7822
1233.653, 110.7056
1234.732, 52.63721
1235.810, 52.59033
1236.888, 24.53369
1237.966, 98.71680
1239.044, 30.68213
1240.122, 90.66895
1241.199, 85.57520
1242.277, 86.52686
1243.354, 88.51514
1244.431, 82.50928
1245.508, 96.51025
1246.585, 40.51562
1247.661, 61.52588
1248.738, 66.54199
1249.814, 43.56348
1250.890, 103.5903
1251.966, 52.62256
1253.042, 59.65967
1254.117, 68.70264
1255.193, 3.247559
1256.268, 28.80713
1257.343, 42.86768
1258.418, 67.93359
1259.493, 120.0049
1260.567, 94.21875
1261.642, 65.17139
1262.716, 86.25732
1263.790, 16.34912
1264.864, 70.44580
1265.938, 6.546875
1267.011, 123.6538
1268.085, 55.76611
1269.158, 45.88232
1270.231, 41.43896
1271.304, 2.435547
1272.377, 75.69434
1273.450, 36.83154
1274.522, 102.0322
1275.594, 95.16162
1276.666, 160.2954
1277.738, 139.4331
1278.810, 128.0972
1279.882, 30.72070
1280.953, 57.87109
1282.025, 31.02441
1283.096, 29.46143
1284.167, 22.53516
1285.238, 70.61133
1286.308, 77.76074
1287.379, 63.92920
1288.449, 74.84229
1289.519, 64.00244
1290.589, 43.83447
1291.659, 17.67578
1292.729, 4.521484
1293.798, 36.63379
1294.868, 37.91016
1295.937, 83.62695
1297.006, 62.79199
1298.075, 47.95947
1299.143, 105.1309
1300.212, 30.30420
1301.280, 157.4800
1302.348, 45.65918
1303.416, 191.8413
1304.484, 192.0264
1305.552, 64.21387
1306.620, 21.40332
1307.687, 99.59619
1308.754, 166.7910
1309.821, 126.9883
1310.888, 110.1875
1311.955, 194.3887
1313.021, 135.5923
1314.088, 147.7974
1315.154, 129.0049
1316.220, 220.2139
1317.286, 78.42578
1318.352, 188.6406
1319.417, 83.85693
1320.483, 40.07617
1321.548, 146.2979
1322.613, 194.5254
1323.678, 204.7495
1324.743, 167.9771
1325.807, 174.2080
1326.872, 92.44336
1327.936, 125.6807
1329.000, 90.92188
1330.064, 107.1660
1331.128, 5.413574
1332.191, 73.66455
1333.255, 58.21387
1334.318, 101.1748
1335.381, 95.43457
1336.444, 73.69824
1337.507, 86.96387
1338.569, 105.2334
1339.632, 71.50537
1340.694, 115.7803
1341.756, 75.04883
1342.818, 106.2891
1343.880, 111.5312
1344.941, 127.7744
1346.003, 46.01904
1347.064, 55.24463
1348.125, 133.4727
1349.186, 26.70215
1350.247, 171.9326
1351.308, 32.16504
1352.368, 31.39941
1353.428, 66.63428
1354.489, 46.87109
1355.549, 119.1094
1356.608, 117.3481
1357.668, 93.58887
1358.727, 20.16943
1359.787, 90.93408
1360.846, 25.26123
1361.905, 12.45801
1362.964, 27.61035
1364.022, 43.92822
1365.081, 5.090820
1366.139, 34.25244
1367.197, 12.40430
1368.255, 54.46729
1369.313, 105.6426
1370.371, 98.74023
1371.428, 94.83789
1372.486, 16.93506
1373.543, 20.00586
1374.600, 52.07617
1375.657, 52.14502
1376.713, 73.08398
1377.770, 91.27979
1378.826, 98.34668
1379.882, 147.4121
1380.938, 142.5093
1381.994, 95.88623
1383.050, 120.1089
1384.106, 195.2319
1385.161, 33.42822
1386.216, 43.48584
1387.271, 111.5415
1388.326, 24.59619
1389.381, 49.64941
1390.435, 90.72070
1391.490, 173.7695
1392.544, 154.3374
1393.598, 199.0566
1394.652, 93.09863
1395.705, 107.1509
1396.759, 26.81299
1397.812, 56.21143
1398.866, 92.19336
1399.919, 72.78662
1400.972, 16.20068
1402.024, 64.78467
1403.077, 61.76709
1404.129, 128.7466
1405.181, 195.7241
1406.233, 144.2026
1407.285, 37.67041
1408.337, 60.64014
1409.389, 9.391602
1410.440, 48.59424
1411.491, 100.4546
1412.542, 88.40039
1413.593, 33.34619
1414.644, 16.70752
1415.695, 46.23096
1416.745, 96.17773
1417.795, 54.41602
1418.845, 96.60156
1419.895, 49.36475
1420.945, 47.60254
1421.995, 145.3076
1423.044, 145.2539
1424.093, 75.16650
1425.142, 140.0898
1426.191, 118.0063
1427.240, 117.3960
1428.289, 124.3823
1429.337, 104.8315
1430.385, 120.7598
1431.433, 71.69092
1432.481, 103.6260
1433.529, 147.5669
1434.577, 267.4282
1435.624, 205.2852
1436.672, 145.1411
1437.719, 239.9966
1438.766, 176.8521
1439.812, 274.7148
1440.859, 304.5601
1441.905, 270.4097
1442.952, 333.2632
1443.998, 259.4336
1445.044, 202.2881
1446.090, 256.1987
1447.135, 383.3057
1448.181, 276.9937
1449.226, 382.5947
1450.271, 436.8979
1451.316, 282.2007
1452.361, 354.5034
1453.405, 326.7788
1454.450, 349.0801
1455.494, 416.3809
1456.538, 472.6802
1457.582, 367.9790
1458.626, 438.2769
1459.670, 394.5732
1460.713, 368.8701
1461.757, 377.1660
1462.800, 218.4619
1463.843, 346.7573
1464.886, 248.0513
1465.928, 326.3457
1466.971, 275.6880
1468.013, 392.7461
1469.055, 173.9468
1470.097, 293.8672
1471.139, 150.0439
1472.181, 169.4150
1473.222, 233.5605
1474.263, 174.7031
1475.305, 104.8481
1476.346, 135.9922
1477.386, 121.0571
1478.427, 120.1768
1479.468, 178.4165
1480.508, 142.5518
1481.548, 178.6753
1482.588, 189.8105
1483.628, 181.9453
1484.668, 264.0781
1485.707, 153.7666
1486.747, 165.8594
1487.786, 139.7090
1488.825, 20.69434
1489.864, 153.6787
1490.902, 178.6606
1491.941, 71.57617
1492.979, 86.72900
1494.017, 111.6104
1495.055, 88.72900
1496.093, 95.58643
1497.131, 138.4512
1498.168, 119.7607
1499.206, 116.9141
1500.243, 116.7949
1501.280, 113.5522
1502.317, 104.7529
1503.354, 137.0420
1504.390, 71.77441
1505.426, 42.50000
1506.463, 2.781738
1507.499, 4.213379
1508.535, 36.63135
1509.570, 19.32031
1510.606, 100.9966
1511.641, 70.65625
1512.676, 77.30469
1513.711, 96.92773
1514.746, 48.52344
1515.781, 115.0903
1516.816, 92.62695
1517.850, 7.129883
1518.884, 71.59961
1519.918, 51.03223
1520.952, 104.5420
1521.986, 70.09814
1523.019, 91.42041
1524.053, 149.2847
1525.086, 114.8628
1526.119, 97.41162
1527.152, 116.9287
1528.185, 95.41309
1529.217, 115.8618
1530.250, 143.3594
1531.282, 107.6133
1532.314, 83.32080
1533.346, 98.13184
1534.377, 114.0508
1535.409, 105.6694
1536.440, 109.2368
1537.472, 105.2891
1538.503, 91.45410
1539.534, 79.51611
1540.564, 58.75977
1541.595, 38.85449
1542.625, 130.3115
1543.656, 60.50781
1544.686, 41.65137
1545.716, 134.0410
1546.745, 60.27197
1547.775, 159.6191
1548.804, 69.02197
1549.834, 97.48730
1550.863, 188.0298
1551.892, 60.66650
1552.920, 210.4126
1553.949, 157.2451
1554.977, 260.1558
1556.006, 214.1382
1557.034, 107.1509
1558.062, 90.74365
1559.089, 168.6914
1560.117, 129.3301
1561.144, 97.08398
1562.172, 132.7622
1563.199, 74.39990
1564.226, 113.3354
1565.252, 76.64844
1566.279, 79.25293
1567.305, 17.13477
1568.332, 131.1270
1569.358, 82.27734
1570.384, 34.22656
1571.409, 0.7031250
1572.435, 0.0000000E+00
##END=



