##NAMES=Diaspore
##RRUFFID=R060546
##IDEAL CHEMISTRY=AlO(OH)
##LOCALITY=Turkey
##OWNER=RRUFF
##SOURCE=Gemological Institute of America
##DESCRIPTION=Platy transparent pale yellow fragment
##STATUS=The identification of this mineral has been confirmed by X-ray diffraction and chemical analysis
##URL=rruff.info/R060546
##MEASURED CHEMISTRY=(Al_0.99_Fe^3+^_0.01_)_Î£=1_O(OH) ; OH estimated by difference; Fe^3+^ by charge balance
##PIN_ID=L01871
##ORIENTATION=Laser parallel to a* (1 0 0). Fiducial mark perpendicular to laser is parallel to b [0 1 0]
132.8980, 0.0000000E+00
134.1270, 105.8135
135.3560, 3.580078
136.5850, 111.4746
137.8140, 99.50537
139.0430, 286.8320
140.2710, 260.5615
141.5000, 364.7637
142.7280, 703.8242
143.9560, 1131.335
145.1840, 1773.104
146.4120, 2309.918
147.6390, 2432.433
148.8670, 2919.551
150.0940, 4246.172
151.3210, 6133.207
152.5490, 8546.587
153.7750, 8686.262
155.0020, 6423.479
156.2290, 4846.012
157.4550, 3755.584
158.6810, 2934.842
159.9080, 2147.432
161.1340, 1430.059
162.3590, 953.9824
163.5850, 525.0078
164.8110, 297.1621
166.0360, 180.3281
167.2610, 180.5127
168.4860, 68.71777
169.7110, 133.9482
170.9360, 7.206055
172.1610, 196.4893
173.3850, 75.79688
174.6100, 83.13379
175.8340, 55.24316
177.0580, 54.70312
178.2820, 15.25586
179.5050, 41.84570
180.7290, 99.68945
181.9520, 21.52344
183.1760, 94.72266
184.3990, 160.5830
185.6220, 87.83301
186.8450, 119.1211
188.0670, 159.4482
189.2900, 186.8125
190.5120, 48.21484
191.7340, 86.13379
192.9560, 57.41797
194.1780, 106.7480
195.4000, 168.6494
196.6220, 104.1895
197.8430, 132.7666
199.0640, 110.3818
200.2860, 244.0352
201.5070, 93.72949
202.7270, 145.4814
203.9480, 180.2803
205.1690, 43.12207
206.3890, 107.9912
207.6090, 109.8555
208.8290, 83.72461
210.0490, 29.61035
211.2690, 64.51855
212.4890, 95.45312
213.7080, 75.41309
214.9280, 64.40137
216.1470, 126.4189
217.3660, 80.46777
218.5850, 31.45703
219.8030, 59.51270
221.0220, 83.54980
222.2400, 5.616211
223.4590, 214.5508
224.6770, 36.56543
225.8950, 4.207031
227.1120, 33.74316
228.3300, 51.33496
229.5480, 43.56445
230.7650, 62.54980
231.9820, 9.313477
233.1990, 55.84961
234.4160, 91.03906
235.6330, 73.74707
236.8490, 92.49219
238.0660, 222.7549
239.2820, 21.04297
240.4980, 69.35352
241.7140, 50.68848
242.9300, 104.0479
244.1460, 81.42969
245.3610, 160.8340
246.5770, 40.26270
247.7920, 46.71387
249.0070, 71.82129
250.2220, 86.65918
251.4370, 24.16016
252.6510, 100.6816
253.8660, 115.2393
255.0800, 85.87891
256.2940, 9.958008
257.5080, 190.5322
258.7220, 156.1650
259.9360, 269.8203
261.1490, 304.5010
262.3630, 268.7920
263.5760, 14.98535
264.7890, 157.7939
266.0020, 177.6279
267.2150, 36.48926
268.4270, 126.3643
269.6400, 61.27246
270.8520, 83.94531
272.0640, 178.2529
273.2760, 188.2441
274.4880, 166.7578
275.7000, 271.7754
276.9120, 208.8105
278.1230, 449.8633
279.3340, 438.0537
280.5450, 643.0732
281.7560, 872.9219
282.9670, 905.2910
284.1780, 1569.786
285.3880, 1925.384
286.5980, 1983.067
287.8090, 2271.827
289.0190, 1815.651
290.2290, 1401.531
291.4380, 1109.456
292.6480, 850.4209
293.8570, 716.4229
295.0670, 442.4590
296.2760, 181.5273
297.4850, 151.6240
298.6930, 152.7471
299.9020, 195.8984
301.1110, 150.0732
302.3190, 88.23242
303.5270, 40.39453
304.7350, 71.42480
305.9430, 28.75684
307.1510, 43.95410
308.3580, 39.16797
309.5660, 158.3975
310.7730, 81.64062
311.9800, 32.09961
313.1870, 12.83691
314.3940, 40.68262
315.6010, 73.71387
316.8070, 12.99414
318.0130, 83.30664
319.2200, 77.62109
320.4260, 186.9492
321.6310, 320.2695
322.8370, 493.6035
324.0430, 559.9502
325.2480, 649.9873
326.4540, 939.3311
327.6590, 1229.000
328.8640, 1520.329
330.0680, 1734.623
331.2730, 1508.931
332.4780, 1340.253
333.6820, 1110.592
334.8860, 930.9434
336.0900, 641.3086
337.2940, 411.6475
338.4980, 306.0010
339.7010, 270.3691
340.9050, 353.7432
342.1080, 126.1318
343.3110, 179.5342
344.5140, 105.9502
345.7170, 38.37988
346.9200, 21.82324
348.1220, 93.27930
349.3240, 138.7480
350.5270, 74.22949
351.7290, 120.7236
352.9310, 117.7617
354.1320, 66.39062
355.3340, 116.2842
356.5350, 78.82910
357.7370, 31.38770
358.9380, 256.9580
360.1390, 154.5420
361.3400, 122.1387
362.5400, 141.7471
363.7410, 421.9590
364.9410, 261.5605
366.1410, 367.1758
367.3410, 268.8037
368.5410, 214.4229
369.7410, 337.0361
370.9400, 169.6143
372.1400, 158.1582
373.3390, 192.7090
374.5380, 60.55566
375.7370, 136.0254
376.9360, 9.053711
378.1350, 38.25391
379.3330, 118.4375
380.5310, 50.90332
381.7300, 44.79688
382.9280, 74.51074
384.1260, 66.49902
385.3230, 51.23633
386.5210, 95.47559
387.7180, 154.0264
388.9160, 262.0088
390.1130, 371.7920
391.3100, 536.2012
392.5060, 743.0068
393.7030, 713.8711
394.9000, 829.5010
396.0960, 614.4365
397.2920, 641.3867
398.4880, 466.4580
399.6840, 281.4404
400.8800, 256.6992
402.0750, 178.5605
403.2710, 300.4316
404.4660, 296.2754
405.6610, 227.6699
406.8560, 3.573242
408.0510, 159.6270
409.2450, 13.54590
410.4400, 121.4746
411.6340, 195.4141
412.8280, 8.361328
414.0220, 265.3174
415.2160, 261.2793
416.4100, 202.2480
417.6030, 261.2266
418.7970, 340.7217
419.9900, 166.7178
421.1830, 204.7236
422.3760, 183.7383
423.5690, 443.7676
424.7610, 524.8125
425.9540, 506.8770
427.1460, 581.9531
428.3380, 728.6738
429.5300, 744.7773
430.7220, 1033.559
431.9140, 1194.686
433.1050, 1657.821
434.2970, 2078.970
435.4880, 2720.129
436.6790, 4089.300
437.8700, 5945.480
439.0610, 9184.672
440.2510, 12856.88
441.4420, 16296.09
442.6320, 20131.30
443.8220, 26975.55
445.0120, 36504.78
446.2020, 45079.05
447.3910, 44686.31
448.5810, 36839.48
449.7700, 28661.77
450.9600, 22299.06
452.1490, 17291.37
453.3370, 12062.69
454.5260, 8275.017
455.7150, 5280.342
456.9030, 3556.694
458.0910, 2584.561
459.2800, 2093.936
460.4670, 1458.296
461.6550, 1202.694
462.8430, 1052.103
464.0300, 877.5225
465.2180, 762.9521
466.4050, 667.3945
467.5920, 670.8486
468.7790, 505.3193
469.9650, 527.8018
471.1520, 444.2988
472.3380, 523.8086
473.5250, 440.3311
474.7110, 232.8643
475.8970, 261.4092
477.0820, 322.9658
478.2680, 362.5361
479.4540, 335.1172
480.6390, 196.7109
481.8240, 291.3174
483.0090, 275.9355
484.1940, 399.5664
485.3780, 284.2100
486.5630, 285.8652
487.7470, 289.5342
488.9320, 506.2158
490.1160, 543.9072
491.3000, 690.6133
492.4830, 759.3320
493.6670, 841.0635
494.8500, 1212.807
496.0340, 1677.562
497.2170, 1867.331
498.4000, 1744.112
499.5820, 1426.907
500.7650, 973.7139
501.9480, 839.5342
503.1300, 703.3672
504.3120, 379.2129
505.4940, 302.0713
506.6760, 206.9482
507.8580, 181.8389
509.0390, 212.7422
510.2210, 208.6592
511.4020, 132.4902
512.5830, 143.5332
513.7640, 8.508789
514.9450, 84.53711
516.1250, 96.59473
517.3060, 8.676758
518.4860, 85.75391
519.6660, 38.90039
520.8460, 30.11621
522.0260, 48.04102
523.2060, 183.7188
524.3850, 60.68848
525.5650, 1.329102
526.7440, 65.66406
527.9230, 6.327148
529.1020, 155.6895
530.2810, 208.7217
531.4590, 39.76660
532.6380, 119.1738
533.8160, 86.84277
534.9940, 86.12500
536.1720, 43.89746
537.3500, 0.9345700
538.5270, 20.01758
539.7050, 1.963867
540.8820, 0.1005860
542.0590, 127.1777
543.2360, 21.27148
544.4130, 43.38184
545.5900, 74.49414
546.7660, 29.38965
547.9430, 107.7158
549.1190, 22.84375
550.2950, 123.2803
551.4710, 79.10449
552.6470, 84.25977
553.8220, 29.42773
554.9980, 105.1182
556.1730, 100.3174
557.3480, 28.53223
558.5230, 277.7617
559.6980, 11.99219
560.8730, 23.26172
562.0470, 70.53223
563.2220, 212.8223
564.3960, 197.1270
565.5700, 148.4512
566.7440, 116.6338
567.9170, 44.98828
569.0910, 15.64258
570.2640, 147.7373
571.4380, 16.86816
572.6110, 201.5381
573.7840, 240.9609
574.9570, 448.3994
576.1290, 508.8545
577.3020, 536.3232
578.4740, 584.8076
579.6460, 657.3086
580.8180, 1045.824
581.9900, 1148.355
583.1620, 1141.902
584.3330, 775.4658
585.5040, 846.0439
586.6760, 546.6387
587.8470, 559.2480
589.0180, 303.8730
590.1880, 489.5332
591.3590, 497.2080
592.5290, 412.8984
593.7000, 437.6240
594.8700, 676.3652
596.0400, 559.5859
597.2090, 856.3682
598.3790, 1086.180
599.5490, 886.0205
600.7180, 1447.876
601.8870, 1713.752
603.0560, 2074.645
604.2250, 2488.554
605.3940, 2615.484
606.5620, 2953.452
607.7300, 3031.436
608.8990, 3193.445
610.0670, 2855.471
611.2350, 2778.513
612.4020, 2366.576
613.5700, 1780.655
614.7370, 1575.751
615.9050, 1385.863
617.0720, 1058.994
618.2390, 1017.138
619.4060, 794.3008
620.5720, 694.4785
621.7390, 641.6904
622.9050, 680.9258
624.0710, 501.1768
625.2370, 542.4453
626.4030, 502.7275
627.5690, 449.0264
628.7340, 330.3418
629.9000, 349.6885
631.0650, 373.0518
632.2300, 402.4307
633.3950, 383.7959
634.5600, 394.1602
635.7240, 351.6963
636.8890, 403.1582
638.0530, 411.6357
639.2170, 470.1289
640.3810, 535.6377
641.5450, 469.1631
642.7080, 485.7217
643.8720, 588.2959
645.0350, 816.8867
646.1980, 823.4990
647.3610, 1047.127
648.5240, 934.7705
649.6870, 1109.454
650.8490, 1131.153
652.0120, 1140.869
653.1740, 1312.600
654.3360, 1633.537
655.4980, 1914.400
656.6600, 2230.580
657.8210, 2649.582
658.9830, 3179.448
660.1440, 3565.284
661.3050, 4042.148
662.4660, 4580.029
663.6270, 4969.940
664.7870, 5081.905
665.9480, 5200.659
667.1080, 4872.698
668.2680, 4538.275
669.4280, 3849.357
670.5880, 3434.461
671.7480, 2906.582
672.9070, 2648.104
674.0670, 2148.256
675.2260, 1838.730
676.3850, 1409.916
677.5440, 1429.021
678.7030, 1042.139
679.8610, 939.1641
681.0200, 738.3037
682.1780, 588.5703
683.3360, 510.8535
684.4940, 499.1543
685.6520, 528.5088
686.8090, 282.3398
687.9670, 412.6885
689.1240, 324.9141
690.2810, 405.2998
691.4380, 363.7031
692.5950, 261.1230
693.7520, 208.5596
694.9080, 198.0146
696.0650, 368.4863
697.2210, 146.9736
698.3770, 173.4766
699.5330, 145.4883
700.6880, 9.025391
701.8440, 234.3066
702.9990, 225.8740
704.1550, 207.1641
705.3100, 42.23633
706.4650, 215.3711
707.6190, 127.9932
708.7740, 276.0020
709.9290, 59.65625
711.0830, 183.6523
712.2370, 102.3369
713.3910, 239.0371
714.5450, 228.7529
715.6980, 228.4844
716.8520, 94.23145
718.0050, 323.9932
719.1580, 150.7695
720.3110, 141.5625
721.4640, 220.3691
722.6170, 73.24902
723.7700, 210.0859
724.9220, 122.9395
726.0740, 85.80664
727.2260, 41.68848
728.3780, 114.5850
729.5300, 123.4961
730.6810, 51.42188
731.8330, 215.7656
732.9840, 81.71875
734.1350, 28.31250
735.2860, 221.6650
736.4370, 180.9473
737.5880, 54.95215
738.7380, 180.9717
739.8880, 204.0156
741.0390, 118.0625
742.1890, 223.1211
743.3380, 95.55957
744.4880, 102.4785
745.6380, 126.5771
746.7870, 226.1445
747.9360, 214.5098
749.0850, 113.4072
750.2340, 251.7627
751.3830, 197.9238
752.5310, 209.0967
753.6800, 275.6084
754.8280, 198.9717
755.9760, 221.1826
757.1240, 70.60352
758.2720, 370.8389
759.4190, 307.0830
760.5670, 341.1836
761.7140, 256.4531
762.8610, 202.7334
764.0080, 494.0244
765.1550, 440.3262
766.3020, 451.6396
767.4480, 342.7891
768.5950, 570.1309
769.7410, 494.4824
770.8870, 563.8457
772.0330, 735.3281
773.1780, 851.9609
774.3240, 888.3535
775.4690, 989.7578
776.6140, 1164.172
777.7590, 1111.596
778.9040, 1446.137
780.0490, 1696.604
781.1940, 1755.056
782.3380, 2022.520
783.4820, 2444.418
784.6260, 2786.900
785.7700, 2864.391
786.9140, 3434.518
788.0580, 3712.026
789.2010, 4180.687
790.3450, 4265.211
791.4880, 4310.746
792.6310, 4244.166
793.7730, 4115.750
794.9160, 3602.364
796.0590, 3414.993
797.2010, 2977.650
798.3430, 2788.316
799.4850, 2239.988
800.6270, 2089.674
801.7690, 1659.094
802.9100, 1396.229
804.0520, 1116.306
805.1930, 971.6904
806.3340, 994.1309
807.4750, 800.6465
808.6160, 751.5879
809.7560, 638.3271
810.8970, 540.6016
812.0370, 490.8809
813.1770, 398.6865
814.3170, 396.4980
815.4570, 367.3174
816.5960, 316.1484
817.7360, 358.9863
818.8750, 437.8291
820.0140, 249.6777
821.1530, 295.5332
822.2920, 341.3936
823.4310, 178.2764
824.5690, 233.1709
825.7070, 238.0713
826.8460, 261.9814
827.9840, 343.8965
829.1220, 236.8154
830.2590, 241.7402
831.3970, 323.6689
832.5340, 164.6035
833.6710, 234.5420
834.8080, 27.48438
835.9450, 122.4316
837.0820, 73.38574
838.2190, 6.656250
839.3550, 127.2979
840.4910, 5.743164
841.6270, 103.2119
842.7630, 81.32812
843.8990, 95.29102
845.0350, 253.2568
846.1700, 163.2295
847.3060, 9.791992
848.4410, 227.1816
849.5760, 118.1602
850.7100, 81.14160
851.8450, 100.1270
852.9800, 34.11621
854.1140, 80.10840
855.2480, 48.96484
856.3820, 153.1025
857.5160, 92.10547
858.6500, 16.11035
859.7830, 183.1191
860.9170, 49.12891
862.0500, 36.14160
863.1830, 140.1572
864.3160, 39.17773
865.4480, 121.1992
866.5810, 90.22559
867.7130, 63.74707
868.8460, 164.2441
869.9780, 126.2383
871.1100, 121.7725
872.2410, 27.22852
873.3730, 38.75293
874.5050, 130.7363
875.6360, 28.72266
876.7670, 122.7109
877.8980, 74.70117
879.0290, 10.30566
880.1590, 69.32324
881.2900, 111.6191
882.4200, 28.43555
883.5500, 44.48828
884.6800, 86.41699
885.8100, 6.655273
886.9400, 68.26367
888.0690, 86.18652
889.1990, 11.11035
890.3280, 18.03223
891.4570, 43.95410
892.5860, 16.87891
893.7140, 98.80273
894.8430, 53.27148
895.9710, 16.37891
897.1000, 103.4990
898.2280, 38.37793
899.3560, 162.2598
900.4830, 169.1426
901.6110, 103.0273
902.7380, 48.79492
903.8660, 139.0586
904.9930, 47.91406
906.1200, 169.7715
907.2460, 36.36719
908.3730, 4.535156
909.5000, 199.2871
910.6260, 65.11328
911.7520, 109.9375
912.8780, 311.7656
914.0040, 26.59570
915.1290, 51.57617
916.2550, 153.2207
917.3800, 181.0176
918.5050, 7.181641
919.6300, 119.6055
920.7550, 192.3926
921.8800, 78.81641
923.0040, 120.9277
924.1290, 24.67188
925.2530, 119.4160
926.3770, 44.16211
927.5010, 13.83789
928.6250, 82.89258
929.7480, 82.62695
930.8720, 119.3613
931.9950, 101.0957
933.1180, 144.8301
934.2410, 147.5684
935.3640, 40.30664
936.4860, 130.9531
937.6090, 126.2871
938.7310, 5.695313
939.8530, 23.11133
940.9750, 38.44727
942.0970, 4.009766
943.2180, 20.56641
944.3400, 65.11914
945.4610, 85.90234
946.5820, 121.6191
947.7030, 128.0137
948.8240, 142.5723
949.9450, 158.2930
951.0650, 61.84961
952.1860, 120.4102
953.3060, 166.9707
954.4260, 65.53125
955.5460, 215.1465
956.6650, 172.7090
957.7850, 160.2715
958.9040, 123.8359
960.0230, 139.4004
961.1420, 144.9668
962.2610, 146.5332
963.3800, 106.1016
964.4990, 207.6680
965.6170, 235.2363
966.7350, 155.8066
967.8530, 82.37695
968.9710, 86.94922
970.0890, 101.5215
971.2070, 82.11523
972.3240, 126.2188
973.4410, 76.51367
974.5580, 197.0898
975.6750, 161.9609
976.7920, 179.5391
977.9090, 309.1211
979.0250, 174.7051
980.1410, 211.2910
981.2580, 299.8770
982.3740, 382.4707
983.4890, 248.0605
984.6050, 278.6504
985.7200, 204.2422
986.8360, 341.8359
987.9510, 239.4297
989.0660, 247.0273
990.1810, 301.6230
991.2950, 179.2227
992.4100, 155.8242
993.5240, 155.3672
994.6390, 148.9863
995.7530, 157.9473
996.8660, 422.2266
997.9800, 227.8516
999.0940, 264.4746
1000.207, 384.0996
1001.320, 192.7285
1002.433, 326.9551
1003.546, 309.5879
1004.659, 49.22070
1005.772, 132.8594
1006.884, 148.2090
1007.996, 262.8516
1009.108, 366.4961
1010.220, 232.1504
1011.332, 246.8262
1012.444, 170.5020
1013.555, 133.8184
1014.666, 243.6680
1015.777, 114.3535
1016.888, 175.5859
1017.999, 254.2812
1019.110, 160.9844
1020.220, 234.5000
1021.331, 112.2344
1022.441, 170.9727
1023.551, 84.38867
1024.661, 343.9707
1025.770, 288.7227
1026.880, 240.2773
1027.989, 114.0352
1029.098, 256.7988
1030.207, 240.7207
1031.316, 115.4902
1032.425, 222.2637
1033.533, 130.0430
1034.642, 214.8359
1035.750, 28.36719
1036.858, 234.6055
1037.966, 307.3984
1039.073, 211.1973
1040.181, 81.00391
1041.288, 298.7051
1042.396, 224.2695
1043.503, 357.1133
1044.610, 371.1113
1045.716, 346.8379
1046.823, 364.7207
1047.929, 248.5000
1049.036, 203.3711
1050.142, 176.2695
1051.248, 219.1738
1052.353, 338.6641
1053.459, 50.58789
1054.564, 307.5156
1055.670, 220.8242
1056.775, 190.7676
1057.880, 329.5703
1058.985, 200.5234
1060.089, 38.51758
1061.194, 108.5703
1062.298, 121.5312
1063.402, 215.4961
1064.506, 248.4668
1065.610, 113.4453
1066.713, 285.4316
1067.817, 199.4199
1068.920, 194.4121
1070.023, 204.6875
1071.126, 288.2578
1072.229, 133.9043
1073.332, 138.5449
1074.435, 286.5684
1075.537, 108.8203
1076.639, 217.6602
1077.741, 16.28320
1078.843, 118.7812
1079.945, 169.8496
1081.046, 201.9277
1082.148, 12.98438
1083.249, 131.1094
1084.350, 88.21094
1085.451, 100.3203
1086.551, 298.4414
1087.652, 5.433594
1088.752, 313.6992
1089.853, 224.8418
1090.953, 89.99219
1092.053, 321.1504
1093.152, 142.3184
1094.252, 45.49219
1095.351, 185.6777
1096.451, 233.8691
1097.550, 162.0684
1098.649, 132.2793
1099.748, 135.7480
1100.846, 22.72266
1101.945, 123.9590
1103.043, 45.20117
1104.141, 57.45508
1105.239, 64.55664
1106.337, 148.9902
1107.434, 45.27344
1108.532, 78.56836
1109.629, 66.87109
1110.726, 185.1836
1111.823, 141.5059
1112.920, 96.83789
1114.017, 80.17773
1115.113, 319.5312
1116.210, 211.8906
1117.306, 288.2617
1118.402, 439.6406
1119.498, 413.0293
1120.593, 476.4277
1121.689, 577.8359
1122.784, 541.2539
1123.879, 564.8750
1124.974, 508.1113
1126.069, 480.9199
1127.164, 405.3730
1128.259, 275.8359
1129.353, 239.3047
1130.447, 175.7832
1131.541, 151.2695
1132.635, 101.7676
1133.729, 175.2715
1134.822, 128.8066
1135.916, 112.3496
1137.009, 145.9004
1138.102, 85.46094
1139.195, 98.33008
1140.288, 97.93945
1141.380, 90.30078
1142.473, 127.5078
1143.565, 133.1504
1144.657, 124.0234
1145.749, 121.4863
1146.841, 110.1914
1147.932, 107.9043
1149.024, 115.3281
1150.115, 1.892578
1151.206, 174.9961
1152.297, 149.3789
1153.388, 160.1543
1154.479, 280.9375
1155.569, 158.9629
1156.659, 206.7656
1157.750, 215.5762
1158.839, 200.3984
1159.929, 427.2246
1161.019, 293.0801
1162.108, 298.9551
1163.198, 175.8418
1164.287, 129.7363
1165.376, 311.3633
1166.465, 228.2754
1167.553, 332.9043
1168.642, 422.8516
1169.730, 342.8027
1170.818, 336.7637
1171.906, 454.7344
1172.994, 441.7246
1174.082, 595.3887
1175.170, 500.4023
1176.257, 593.1445
1177.344, 635.1738
1178.431, 820.2129
1179.518, 999.5938
1180.605, 1186.875
1181.691, 1442.402
1182.778, 1723.707
1183.864, 1891.805
1184.950, 2299.910
1186.036, 2841.023
1187.122, 3611.172
1188.207, 4156.322
1189.292, 4773.484
1190.378, 5240.654
1191.463, 5665.582
1192.548, 5837.773
1193.632, 5991.973
1194.717, 5681.184
1195.801, 5130.396
1196.886, 4428.619
1197.970, 3489.846
1199.054, 2846.082
1200.137, 2491.326
1201.221, 1842.617
1202.305, 1592.949
1203.388, 1274.293
1204.471, 921.6895
1205.554, 905.0605
1206.637, 756.4414
1207.719, 642.8320
1208.802, 677.0020
1209.884, 489.4062
1210.966, 422.8184
1212.048, 291.2344
1213.130, 450.8340
1214.212, 409.2695
1215.293, 513.7109
1216.374, 290.1641
1217.456, 413.6250
1218.536, 303.0391
1219.617, 164.5117
1220.698, 96.99023
1221.778, 148.4805
1222.859, 235.9727
1223.939, 240.4746
1225.019, 254.2012
1226.099, 101.5059
1227.178, 229.0391
1228.258, 176.5820
1229.337, 168.1270
1230.417, 200.6777
1231.496, 174.2363
1232.574, 179.0625
1233.653, 114.3730
1234.732, 198.0723
1235.810, 41.65625
1236.888, 108.2559
1237.966, 263.8594
1239.044, 69.46680
1240.122, 105.0820
1241.199, 205.7051
1242.277, 112.3301
1243.354, 167.9629
1244.431, 62.59961
1245.508, 52.24414
1246.585, 77.89453
1247.661, 114.5488
1248.738, 167.2109
1249.814, 201.8770
1250.890, 70.54688
1251.966, 56.22266
1253.042, 279.9062
1254.117, 127.6465
1255.193, 64.66016
1256.268, 203.0098
1257.343, 104.6816
1258.418, 154.3613
1259.493, 13.04492
1260.567, 8.734375
1261.642, 81.42773
1262.716, 31.12891
1263.790, 137.8340
1264.864, 139.5430
1265.938, 187.2578
1267.011, 57.97461
1268.085, 0.7011720
1269.158, 53.42773
1270.231, 72.41602
1271.304, 30.71289
1272.377, 291.3750
1273.450, 86.23047
1274.522, 287.9355
1275.594, 271.6445
1276.666, 66.35938
1277.738, 213.0742
1278.810, 25.20508
1279.882, 56.49805
1280.953, 43.81250
1282.025, 13.85352
1283.096, 19.52344
1284.167, 0.8046880
1285.238, 155.8672
1286.308, 157.5430
1287.379, 66.22070
1288.449, 58.90234
1289.519, 188.5879
1290.589, 130.8340
1291.659, 88.53320
1292.729, 15.23633
1293.798, 43.06055
1294.868, 225.6250
1295.937, 85.31250
1297.006, 266.0098
1298.075, 105.7090
1299.143, 33.41211
1300.212, 137.1152
1301.280, 121.8242
1302.348, 89.46680
1303.416, 268.1992
1304.484, 90.13477
1305.552, 88.48438
1306.620, 104.1074
1307.687, 80.73242
1308.754, 71.35938
1309.821, 150.9902
1310.888, 32.37695
1311.955, 343.2344
1313.021, 43.85156
1314.088, 343.4707
1315.154, 239.0938
1316.220, 47.71680
1317.286, 231.5156
1318.352, 292.1426
1319.417, 62.77344
1320.483, 154.4102
1321.548, 65.05664
1322.613, 227.7070
1323.678, 123.3535
1324.743, 157.0020
1325.807, 184.6562
1326.872, 112.3105
1327.936, 268.9668
1329.000, 186.6270
1330.064, 202.2891
1331.128, 165.9512
1332.191, 9.615234
1333.255, 248.2812
1334.318, 330.9473
1335.381, 249.6152
1336.444, 180.2852
1337.507, 14.95508
1338.569, 24.51953
1339.632, 31.30273
1340.694, 2.662109
1341.756, 239.3359
1342.818, 252.0117
1343.880, 335.6328
1344.941, 213.3125
1346.003, 242.9922
1347.064, 216.6738
1348.125, 131.3535
1349.186, 147.0371
1350.247, 157.7227
1351.308, 152.4043
1352.368, 247.0898
1353.428, 163.6191
1354.489, 95.30469
1355.549, 269.9902
1356.608, 42.67969
1357.668, 206.3672
1358.727, 328.0566
1359.787, 200.7480
1360.846, 184.4277
1361.905, 11.08203
1362.964, 130.7227
1364.022, 248.1270
1365.081, 254.7715
1366.139, 47.41016
1367.197, 183.0527
1368.255, 168.6953
1369.313, 46.33594
1370.371, 157.9824
1371.428, 139.6133
1372.486, 163.2461
1373.543, 188.8789
1374.600, 166.5137
1375.657, 143.1484
1376.713, 101.7812
1377.770, 54.41602
1378.826, 190.0527
1379.882, 43.77930
1380.938, 15.41797
1381.994, 163.0547
1383.050, 112.3281
1384.106, 207.9668
1385.161, 123.6094
1386.216, 20.25000
1387.271, 83.89258
1388.326, 23.64453
1389.381, 187.2285
1390.435, 75.87695
1391.490, 104.5273
1392.544, 242.1777
1393.598, 124.8281
1394.652, 124.4824
1395.705, 197.0898
1396.759, 11.10352
1397.812, 77.50391
1398.866, 61.36719
1399.919, 25.71094
1400.972, 142.8770
1402.024, 145.4512
1403.077, 131.0273
1404.129, 388.6055
1405.181, 276.1836
1406.233, 127.2539
1407.285, 252.4609
1408.337, 141.4023
1409.389, 153.9629
1410.440, 234.5273
1411.491, 99.86328
1412.542, 61.43164
1413.593, 194.0020
1414.644, 222.5762
1415.695, 395.1504
1416.745, 18.43750
1417.795, 136.1387
1418.845, 225.7129
1419.895, 38.28906
1420.945, 202.1465
1421.995, 171.7305
1423.044, 194.3184
1424.093, 37.90234
1425.142, 107.4883
1426.191, 136.0566
1427.240, 102.6289
1428.289, 228.2070
1429.337, 177.1309
1430.385, 105.7207
1431.433, 213.5957
1432.481, 84.20312
1433.529, 27.75195
1434.577, 82.30859
1435.624, 59.87109
1436.672, 162.4355
1437.719, 38.79102
1438.766, 198.3906
1439.812, 204.9785
1440.859, 106.5762
1441.905, 396.1836
1442.952, 2.185547
1443.998, 239.4609
1445.044, 78.13867
1446.090, 120.8496
1447.135, 353.8379
1448.181, 80.65234
1449.226, 194.3105
1450.271, 159.0684
1451.316, 351.8262
1452.361, 299.5801
1453.405, 257.3379
1454.450, 131.0605
1455.494, 180.8164
1456.538, 358.5742
1457.582, 246.3281
1458.626, 178.7168
1459.670, 299.4570
1460.713, 185.1914
1461.757, 280.9277
1462.800, 107.6602
1463.843, 187.3906
1464.886, 187.0957
1465.928, 10.20312
1466.971, 250.4941
1468.013, 292.1953
1469.055, 14.25000
1470.097, 137.4277
1471.139, 225.1035
1472.181, 40.77734
1473.222, 58.45117
1474.263, 200.1250
1475.305, 218.7969
1476.346, 127.4668
1477.386, 357.1328
1478.427, 44.26953
1479.468, 220.4375
1480.508, 126.1387
1481.548, 118.8418
1482.588, 78.53906
1483.628, 89.78320
1484.668, 53.94336
1485.707, 120.6289
1486.747, 169.0723
1487.786, 124.6055
1488.825, 31.77930
1489.864, 129.3340
1490.902, 359.4902
1491.941, 316.2051
1492.979, 130.9238
1494.017, 118.6445
1495.055, 116.3672
1496.093, 245.5840
1497.131, 94.24805
1498.168, 200.9531
1499.206, 132.6621
1500.243, 254.3691
1501.280, 102.0762
1502.317, 152.8711
1503.354, 419.7539
1504.390, 19.64648
1505.426, 234.5430
1506.463, 241.4824
1507.499, 57.43164
1508.535, 373.0586
1509.570, 184.0137
1510.606, 204.9629
1511.641, 158.9102
1512.676, 36.86914
1513.711, 260.8320
1514.746, 156.7969
1515.781, 143.7656
1516.816, 105.7480
1517.850, 127.7383
1518.884, 330.7324
1519.918, 129.1543
1520.952, 16.13281
1521.986, 302.8496
1523.019, 32.80078
1524.053, 214.7598
1525.086, 18.27344
1526.119, 248.2344
1527.152, 116.0547
1528.185, 89.87305
1529.217, 176.6934
1530.250, 226.6445
1531.282, 151.5547
1532.314, 217.5645
1533.346, 79.58789
1534.377, 174.6152
1535.409, 167.7305
1536.440, 182.8652
1537.472, 128.0117
1538.503, 388.1719
1539.534, 234.0195
1540.564, 33.81641
1541.595, 201.3711
1542.625, 138.5625
1543.656, 239.5703
1544.686, 189.7715
1545.716, 263.9746
1546.745, 246.2227
1547.775, 93.79102
1548.804, 374.7188
1549.834, 385.8770
1550.863, 201.4199
1551.892, 125.0117
1552.920, 146.2285
1553.949, 114.0293
1554.977, 173.9941
1556.006, 273.1562
1557.034, 252.2891
1558.062, 224.7500
1559.089, 407.1621
1560.117, 83.60547
1561.144, 144.1035
1562.172, 81.12695
1563.199, 246.1562
1564.226, 313.0996
1565.252, 247.8594
1566.279, 285.9609
1567.305, 250.8418
1568.332, 256.3105
1569.358, 340.8281
1570.384, 1.634766
1571.409, 218.9668
1572.435, 0.0000000E+00
##END=



