##NAMES=Diaspore
##RRUFFID=R060287
##IDEAL CHEMISTRY=AlO(OH)
##LOCALITY=Selcuk, Mugla Province, Turkey
##OWNER=RRUFF
##SOURCE=Herb Obodda
##DESCRIPTION=Colorless transparent platy fragment
##STATUS=The identification of this mineral has been confirmed by X-ray diffraction and chemical analysis
##URL=rruff.info/R060287
##MEASURED CHEMISTRY=(Al_0.99_Fe^3+^_0.01_)_Î£=1_O(OH) ; trace amounts of Ti;  OH estimated by difference ; Fe^3+^ by charge balance
##PIN_ID=L01658
##ORIENTATION=Laser parallel to a* (1 0 0). Fiducial mark perpendicular to laser is parallel to b [0 1 0]
114.4400, 0.0000000E+00
115.6710, 2.645020
116.9030, 179.6318
118.1340, 222.8369
119.3650, 179.4678
120.5960, 291.9507
121.8270, 193.4146
123.0580, 19.51416
124.2880, 199.8745
125.5190, 194.3691
126.7490, 21.83350
127.9790, 36.15771
129.2090, 172.2271
130.4390, 210.9341
131.6680, 255.1846
132.8980, 179.9233
134.1270, 200.0864
135.3560, 149.6758
136.5850, 291.6855
137.8140, 296.1216
139.0430, 438.9536
140.2710, 594.1338
141.5000, 743.5942
142.7280, 718.2827
143.9560, 755.1572
145.1840, 746.1875
146.4120, 723.3477
147.6390, 711.6162
148.8670, 802.9780
150.0940, 761.6421
151.3210, 1060.391
152.5490, 1331.178
153.7750, 1226.998
155.0020, 1094.500
156.2290, 939.2544
157.4550, 875.1694
158.6810, 713.2832
159.9080, 606.9629
161.1340, 578.6665
162.3590, 385.5176
163.5850, 283.5684
164.8110, 324.4863
166.0360, 244.3135
167.2610, 298.9785
168.4860, 286.5752
169.7110, 369.0845
170.9360, 462.5166
172.1610, 337.8779
173.3850, 336.1763
174.6100, 451.4170
175.8340, 239.6064
177.0580, 420.7495
178.2820, 419.8501
179.5050, 421.9131
180.7290, 433.9424
181.9520, 414.9414
183.1760, 501.9141
184.3990, 494.8955
185.6220, 504.7178
186.8450, 442.4434
188.0670, 466.2261
189.2900, 483.9907
190.5120, 398.7402
191.7340, 583.4766
192.9560, 470.1875
194.1780, 535.3364
195.4000, 496.9019
196.6220, 445.2920
197.8430, 529.5254
199.0640, 494.1401
200.2860, 513.1880
201.5070, 483.4873
202.7270, 499.6201
203.9480, 470.5410
205.1690, 623.9365
206.3890, 352.8691
207.6090, 470.7588
208.8290, 291.8945
210.0490, 281.0352
211.2690, 318.4541
212.4890, 378.2090
213.7080, 543.0029
214.9280, 419.8359
216.1470, 288.7051
217.3660, 337.6123
218.5850, 465.5547
219.8030, 251.5332
221.0220, 307.5449
222.2400, 232.5918
223.4590, 334.6729
224.6770, 181.7861
225.8950, 311.9316
227.1120, 237.1094
228.3300, 210.3174
229.5480, 315.5557
230.7650, 141.8203
231.9820, 264.1113
233.1990, 245.4287
234.4160, 277.7715
235.6330, 224.1377
236.8490, 190.5264
238.0660, 185.9385
239.2820, 138.3730
240.4980, 131.8320
241.7140, 148.3145
242.9300, 137.8203
244.1460, 153.3516
245.3610, 154.9062
246.5770, 112.4863
247.7920, 102.0918
249.0070, 214.7207
250.2220, 81.37598
251.4370, 115.0557
252.6510, 111.7617
253.8660, 31.50488
255.0800, 137.2520
256.2940, 4.964844
257.5080, 156.8350
258.7220, 162.6445
259.9360, 163.4805
261.1490, 153.1904
262.3630, 195.7754
263.5760, 61.49414
264.7890, 31.25195
266.0020, 74.93262
267.2150, 54.69531
268.4270, 123.5303
269.6400, 37.29883
270.8520, 49.25879
272.0640, 101.7295
273.2760, 74.69434
274.4880, 23.63379
275.7000, 120.4609
276.9120, 12.40723
278.1230, 36.75684
279.3340, 22.95508
280.5450, 104.8154
281.7560, 48.41797
282.9670, 5.679688
284.1780, 3.033203
285.3880, 1.277344
286.5980, 121.6113
287.8090, 15.01758
289.0190, 85.63086
290.2290, 21.24609
291.4380, 144.8496
292.6480, 55.53125
293.8570, 2.939453
295.0670, 72.63672
296.2760, 4.208984
297.4850, 68.24219
298.6930, 20.70898
299.9020, 30.21289
301.1110, 57.74902
302.3190, 67.67676
303.5270, 21.92090
304.7350, 81.44922
305.9430, 89.80762
307.1510, 1.174805
308.3580, 73.46484
309.5660, 208.1143
310.7730, 82.77246
311.9800, 221.4385
313.1870, 169.1191
314.3940, 289.8115
315.6010, 320.5117
316.8070, 365.2256
318.0130, 541.9492
319.2200, 936.6855
320.4260, 1406.435
321.6310, 2121.195
322.8370, 3225.971
324.0430, 4083.756
325.2480, 5117.556
326.4540, 6160.371
327.6590, 7614.197
328.8640, 9586.039
330.0680, 10515.87
331.2730, 10136.71
332.4780, 8819.564
333.6820, 7846.432
334.8860, 6863.317
336.0900, 5529.218
337.2940, 3996.135
338.4980, 2884.068
339.7010, 1998.931
340.9050, 1357.797
342.1080, 1046.672
343.3110, 865.5166
344.5140, 730.3789
345.7170, 438.2480
346.9200, 446.1279
348.1220, 364.9766
349.3240, 403.7852
350.5270, 433.5830
351.7290, 295.3945
352.9310, 354.2275
354.1320, 386.0547
355.3340, 364.8721
356.5350, 419.6709
357.7370, 370.4932
358.9380, 493.3369
360.1390, 587.2031
361.3400, 510.0928
362.5400, 647.0039
363.7410, 795.9375
364.9410, 1017.894
366.1410, 928.8711
367.3410, 1037.870
368.5410, 805.8916
369.7410, 602.9355
370.9400, 599.0010
372.1400, 511.0889
373.3390, 527.1992
374.5380, 286.3291
375.7370, 272.4834
376.9360, 323.6572
378.1350, 286.8545
379.3330, 352.0742
380.5310, 300.3154
381.7300, 371.5791
382.9280, 336.8643
384.1260, 328.1709
385.3230, 262.5000
386.5210, 377.8516
387.7180, 384.2246
388.9160, 357.6201
390.1130, 466.0381
391.3100, 400.4775
392.5060, 389.9395
393.7030, 354.4229
394.9000, 391.5400
396.0960, 411.4570
397.2920, 462.0078
398.4880, 483.3096
399.6840, 489.7539
400.8800, 529.4385
402.0750, 548.0781
403.2710, 543.7402
404.4660, 448.4258
405.6610, 313.1348
406.8560, 457.8672
408.0510, 534.6230
409.2450, 419.4023
410.4400, 418.2061
411.6340, 503.0332
412.8280, 448.8838
414.0220, 292.7627
415.2160, 522.6660
416.4100, 353.4736
417.6030, 417.8857
418.7970, 403.1045
419.9900, 394.1006
421.1830, 444.9834
422.3760, 591.0244
423.5690, 543.0908
424.7610, 634.9473
425.9540, 752.0605
427.1460, 766.9668
428.3380, 963.4678
429.5300, 974.9658
430.7220, 1345.824
431.9140, 1609.816
433.1050, 1864.010
434.2970, 2506.733
435.4880, 3405.535
436.6790, 4718.033
437.8700, 7176.064
439.0610, 11100.78
440.2510, 16251.86
441.4420, 20865.29
442.6320, 24616.87
443.8220, 31489.28
445.0120, 40307.74
446.2020, 47092.89
447.3910, 47488.07
448.5810, 42506.32
449.7700, 36439.87
450.9600, 31180.99
452.1490, 25528.04
453.3370, 19188.71
454.5260, 13033.40
455.7150, 8364.298
456.9030, 5593.039
458.0910, 4075.805
459.2800, 2973.593
460.4670, 2481.406
461.6550, 2177.245
462.8430, 1683.107
464.0300, 1608.996
465.2180, 1419.907
466.4050, 1155.844
467.5920, 1227.806
468.7790, 949.7930
469.9650, 916.8037
471.1520, 822.8408
472.3380, 833.9023
473.5250, 765.9893
474.7110, 711.1016
475.8970, 690.4980
477.0820, 573.4014
478.2680, 611.5908
479.4540, 646.8037
480.6390, 599.0449
481.8240, 842.3105
483.0090, 1010.601
484.1940, 1247.920
485.3780, 1610.263
486.5630, 2163.634
487.7470, 3201.031
488.9320, 4769.453
490.1160, 7243.905
491.3000, 10687.38
492.4830, 13691.89
493.6670, 16211.42
494.8500, 20468.98
496.0340, 26462.57
497.2170, 30350.18
498.4000, 29206.83
499.5820, 25483.50
500.7650, 21269.19
501.9480, 17815.92
503.1300, 14031.68
504.3120, 9975.460
505.4940, 6258.270
506.6760, 3973.108
507.8580, 2471.977
509.0390, 1807.869
510.2210, 1373.792
511.4020, 1075.742
512.5830, 766.7197
513.7640, 614.7266
514.9450, 424.7598
516.1250, 428.8213
517.3060, 362.9111
518.4860, 360.0283
519.6660, 317.1729
520.8460, 209.3457
522.0260, 238.5469
523.2060, 209.7744
524.3850, 174.0303
525.5650, 263.3135
526.7440, 101.6250
527.9230, 187.9639
529.1020, 99.33008
530.2810, 5.723633
531.4590, 84.14551
532.6380, 67.16602
533.8160, 128.0703
534.9940, 201.5752
536.1720, 125.1074
537.3500, 234.6660
538.5270, 203.2520
539.7050, 49.86914
540.8820, 89.54883
542.0590, 75.25684
543.2360, 239.0078
544.4130, 214.7861
545.5900, 160.5918
546.7660, 299.4258
547.9430, 290.2861
549.1190, 486.1729
550.2950, 548.0879
551.4710, 595.0303
552.6470, 607.0039
553.8220, 463.0029
554.9980, 563.0391
556.1730, 404.1016
557.3480, 496.1904
558.5230, 288.3320
559.6980, 294.5293
560.8730, 201.7676
562.0470, 161.0322
563.2220, 94.33789
564.3960, 50.67090
565.5700, 56.02930
566.7440, 146.4668
567.9170, 159.9424
569.0910, 22.55371
570.2640, 15.99609
571.4380, 87.42090
572.6110, 68.16895
573.7840, 80.81152
574.9570, 24.53027
576.1290, 11.28711
577.3020, 55.89258
578.4740, 71.93262
579.6460, 20.20117
580.8180, 59.29688
581.9900, 8.621094
583.1620, 95.43555
584.3330, 91.50293
585.5040, 130.5781
586.6760, 143.3311
587.8470, 104.7988
589.0180, 120.9326
590.1880, 32.07129
591.3590, 11.82910
592.5290, 12.23633
593.7000, 17.71680
594.8700, 8.715820
596.0400, 32.26074
597.2090, 112.7842
598.3790, 156.8691
599.5490, 149.9805
600.7180, 414.1162
601.8870, 395.2744
603.0560, 471.4580
604.2250, 649.6709
605.3940, 817.9170
606.5620, 977.1855
607.7300, 826.4785
608.8990, 780.7949
610.0670, 890.1338
611.2350, 796.4971
612.4020, 734.8848
613.5700, 549.2959
614.7370, 630.7490
615.9050, 477.2246
617.0720, 547.7246
618.2390, 449.2480
619.4060, 399.8281
620.5720, 398.4326
621.7390, 372.0596
622.9050, 325.7314
624.0710, 397.4258
625.2370, 470.1426
626.4030, 516.8818
627.5690, 500.6426
628.7340, 509.4258
629.9000, 578.2295
631.0650, 601.0703
632.2300, 623.9404
633.3950, 552.8320
634.5600, 648.7451
635.7240, 788.6875
636.8890, 714.6484
638.0530, 902.6299
639.2170, 931.6338
640.3810, 1022.657
641.5450, 1047.701
642.7080, 1200.767
643.8720, 1350.868
645.0350, 1675.988
646.1980, 1930.129
647.3610, 2096.289
648.5240, 2381.469
649.6870, 2951.667
650.8490, 3537.886
652.0120, 4008.121
653.1740, 4820.379
654.3360, 6121.652
655.4980, 7371.286
656.6600, 8985.097
657.8210, 10690.59
658.9830, 12706.94
660.1440, 14657.30
661.3050, 16803.69
662.4660, 18564.09
663.6270, 20182.51
664.7870, 21318.95
665.9480, 21268.40
667.1080, 20506.87
668.2680, 19183.37
669.4280, 17704.88
670.5880, 15578.42
671.7480, 13416.98
672.9070, 11458.55
674.0670, 9750.136
675.2260, 8228.743
676.3850, 7085.359
677.5440, 6005.008
678.7030, 5095.201
679.8610, 4351.601
681.0200, 3735.281
682.1780, 3555.604
683.3360, 2974.315
684.4940, 2670.042
685.6520, 2626.782
686.8090, 2380.537
687.9670, 2315.306
689.1240, 2190.088
690.2810, 2199.884
691.4380, 1996.638
692.5950, 1922.462
693.7520, 2113.101
694.9080, 2045.950
696.0650, 1977.812
697.2210, 1993.686
698.3770, 1824.209
699.5330, 1737.477
700.6880, 1699.387
701.8440, 1591.306
702.9990, 1593.239
704.1550, 1604.184
705.3100, 1433.795
706.4650, 1476.462
707.6190, 1509.438
708.7740, 1323.204
709.9290, 1208.107
711.0830, 1078.688
712.2370, 1301.287
713.3910, 1174.756
714.5450, 1178.605
715.6980, 957.0273
716.8520, 941.9033
718.0050, 1024.036
719.1580, 998.4277
720.3110, 953.3887
721.4640, 854.5449
722.6170, 983.7666
723.7700, 903.4795
724.9220, 943.5557
726.0740, 881.9990
727.2260, 960.4863
728.3780, 967.1514
729.5300, 984.5225
730.6810, 1031.873
731.8330, 1021.111
732.9840, 1064.487
734.1350, 1011.429
735.2860, 992.7275
736.4370, 963.4893
737.5880, 938.7236
738.7380, 911.8994
739.8880, 905.2715
741.0390, 842.4590
742.1890, 835.0156
743.3380, 773.0107
744.4880, 712.2139
745.6380, 815.4199
746.7870, 739.6309
747.9360, 707.8477
749.0850, 774.0684
750.2340, 585.7285
751.3830, 469.9570
752.5310, 559.6396
753.6800, 529.8760
754.8280, 455.1143
755.9760, 515.7754
757.1240, 611.7383
758.2720, 374.5840
759.4190, 486.8340
760.5670, 420.3359
761.7140, 510.5908
762.8610, 441.8447
764.0080, 575.2373
765.1550, 479.4961
766.3020, 611.7559
767.4480, 362.0166
768.5950, 400.7861
769.7410, 403.6514
770.8870, 492.1426
772.0330, 598.4062
773.1780, 401.1504
774.3240, 624.4131
775.4690, 585.7021
776.6140, 448.9941
777.7590, 437.2568
778.9040, 378.7979
780.0490, 373.5576
781.1940, 343.8096
782.3380, 379.0684
783.4820, 432.3252
784.6260, 354.5811
785.7700, 517.8359
786.9140, 448.0879
788.0580, 408.3389
789.2010, 491.5879
790.3450, 427.8350
791.4880, 330.0801
792.6310, 265.3232
793.7730, 303.5635
794.9160, 327.8008
796.0590, 316.0371
797.2010, 297.7305
798.3430, 263.5010
799.4850, 208.7285
800.6270, 211.9541
801.7690, 159.1748
802.9100, 124.3945
804.0520, 133.6104
805.1930, 170.1416
806.3340, 190.3496
807.4750, 97.44336
808.6160, 62.64453
809.7560, 97.86816
810.8970, 66.06152
812.0370, 74.82227
813.1770, 167.4365
814.3170, 47.61719
815.4570, 15.79395
816.5960, 76.03906
817.7360, 118.0723
818.8750, 22.82129
820.0140, 80.25781
821.1530, 200.3311
822.2920, 116.4004
823.4310, 80.46387
824.5690, 68.52148
825.7070, 87.57617
826.8460, 84.62598
827.9840, 6.669922
829.1220, 96.69824
830.2590, 8.277344
831.3970, 162.7236
832.5340, 78.71973
833.6710, 94.71094
834.8080, 5.302734
835.9450, 0.7480470
837.0820, 67.60742
838.2190, 11.45215
839.3550, 57.46387
840.4910, 63.37207
841.6270, 73.72363
842.7630, 23.52441
843.8990, 81.94336
845.0350, 71.24414
846.1700, 7.518555
847.3060, 32.73340
848.4410, 56.00391
849.5760, 86.32129
850.7100, 9.299805
851.8450, 25.90625
852.9800, 116.5029
854.1140, 30.89648
855.2480, 78.67090
856.3820, 0.2363280
857.5160, 49.79297
858.6500, 32.34375
859.7830, 18.90332
860.9170, 159.4707
862.0500, 109.0576
863.1830, 116.6670
864.3160, 147.2920
865.4480, 22.93359
866.5810, 0.4287110
867.7130, 74.19141
868.8460, 60.19238
869.9780, 89.37402
871.1100, 16.06348
872.2410, 41.52051
873.3730, 32.98340
874.5050, 134.4785
875.6360, 140.9678
876.7670, 67.45020
877.8980, 4.073242
879.0290, 11.61523
880.1590, 82.81836
881.2900, 94.24609
882.4200, 91.66895
883.5500, 138.0840
884.6800, 64.49316
885.8100, 18.89648
886.9400, 128.2891
888.0690, 57.32422
889.1990, 139.0156
890.3280, 181.3496
891.4570, 18.67676
892.5860, 110.0049
893.7140, 9.240234
894.8430, 115.4746
895.9710, 71.29883
897.1000, 129.8760
898.2280, 115.0459
899.3560, 39.20801
900.4830, 151.3643
901.6110, 89.51562
902.7380, 222.6602
903.8660, 45.20215
904.9930, 13.10156
906.1200, 26.97852
907.2460, 62.04980
908.3730, 11.88477
909.5000, 94.16211
910.6260, 51.20312
911.7520, 50.23633
912.8780, 105.2656
914.0040, 227.2891
915.1290, 44.30664
916.2550, 51.68359
917.3800, 164.2900
918.5050, 134.2578
919.6300, 157.2197
920.7550, 226.1758
921.8800, 137.1279
923.0040, 207.0742
924.1290, 87.01562
925.2530, 201.9512
926.3770, 169.8828
927.5010, 133.8086
928.6250, 66.72949
929.7480, 52.64551
930.8720, 96.55664
931.9950, 100.4639
933.1180, 216.3652
934.2410, 198.2627
935.3640, 77.15625
936.4860, 85.04492
937.6090, 219.9287
938.7310, 129.8086
939.8530, 35.31738
940.9750, 84.53223
942.0970, 11.62207
943.2180, 87.20996
944.3400, 34.03711
945.4610, 132.8613
946.5820, 97.68066
947.7030, 270.4961
948.8240, 219.3086
949.9450, 211.1055
951.0650, 112.3672
952.1860, 31.43457
953.3060, 154.2324
954.4260, 216.4023
955.5460, 289.1943
956.6650, 187.9824
957.7850, 252.7676
958.9040, 187.5508
960.0230, 64.33789
961.1420, 175.1230
962.2610, 283.9443
963.3800, 225.8184
964.4990, 112.6338
965.6170, 240.6436
966.7350, 181.1602
967.8530, 411.2754
968.9710, 168.0889
970.0890, 290.2822
971.2070, 183.7412
972.3240, 345.5674
973.4410, 172.3965
974.5580, 424.2188
975.6750, 412.0430
976.7920, 291.2080
977.9090, 220.3418
979.0250, 367.1738
980.1410, 305.5029
981.2580, 398.4404
982.3740, 310.0615
983.4890, 475.3252
984.6050, 417.2666
985.7200, 273.7559
986.8360, 404.2246
987.9510, 307.0771
989.0660, 319.8525
990.1810, 322.7080
991.2950, 316.8867
992.4100, 406.0967
993.5240, 381.6982
994.6390, 487.0596
995.7530, 555.9277
996.8660, 370.7969
997.9800, 496.6689
999.0940, 602.5430
1000.207, 571.0264
1001.320, 692.7197
1002.433, 541.6357
1003.546, 760.8125
1004.659, 915.7441
1005.772, 642.5674
1006.884, 513.9082
1007.996, 598.5957
1009.108, 563.5391
1010.220, 594.4863
1011.332, 608.4365
1012.444, 719.0273
1013.555, 586.1875
1014.666, 798.1484
1015.777, 542.1143
1016.888, 437.0840
1017.999, 514.0566
1019.110, 449.0352
1020.220, 616.5811
1021.331, 554.5664
1022.441, 538.1074
1023.551, 596.1055
1024.661, 532.1074
1025.770, 502.8438
1026.880, 414.0068
1027.989, 388.4512
1029.098, 302.4990
1030.207, 278.9619
1031.316, 312.8945
1032.425, 302.4316
1033.533, 403.3701
1034.642, 341.4502
1035.750, 340.5371
1036.858, 329.6309
1037.966, 269.2197
1039.073, 276.7236
1040.181, 499.6074
1041.288, 491.6279
1042.396, 591.7217
1043.503, 605.5068
1044.610, 748.6211
1045.716, 667.7412
1046.823, 760.8984
1047.929, 776.0645
1049.036, 715.1895
1050.142, 516.6484
1051.248, 552.8447
1052.353, 442.0479
1053.459, 590.2598
1054.564, 554.4795
1055.670, 255.7070
1056.775, 285.9434
1057.880, 148.1875
1058.985, 143.4541
1060.089, 172.7285
1061.194, 241.0127
1062.298, 132.3037
1063.402, 400.6045
1064.506, 207.9150
1065.610, 301.2334
1066.713, 172.5615
1067.817, 229.8984
1068.920, 116.2432
1070.023, 231.5977
1071.126, 193.9619
1072.229, 347.3350
1073.332, 354.3984
1074.435, 389.5703
1075.537, 369.3027
1076.639, 390.7129
1077.741, 387.1064
1078.843, 258.5361
1079.945, 318.9756
1081.046, 353.4248
1082.148, 219.8828
1083.249, 214.3525
1084.350, 315.8340
1085.451, 487.3506
1086.551, 190.8779
1087.652, 296.4258
1088.752, 338.9844
1089.853, 292.5537
1090.953, 348.1328
1092.053, 440.1367
1093.152, 344.7363
1094.252, 311.4883
1095.351, 121.1084
1096.451, 218.7422
1097.550, 370.3877
1098.649, 259.9619
1099.748, 194.6348
1100.846, 322.3174
1101.945, 186.2412
1103.043, 310.9512
1104.141, 174.6768
1105.239, 272.4131
1106.337, 227.1680
1107.434, 150.9346
1108.532, 152.7080
1109.629, 258.2783
1110.726, 130.1113
1111.823, 320.9531
1112.920, 185.1025
1114.017, 216.9922
1115.113, 287.3369
1116.210, 355.8506
1117.306, 408.8330
1118.402, 494.8721
1119.498, 603.8809
1120.593, 648.8984
1121.689, 655.9395
1122.784, 769.9912
1123.879, 791.0586
1124.974, 518.1357
1126.069, 796.4697
1127.164, 563.6182
1128.259, 311.7305
1129.353, 217.8516
1130.447, 320.0146
1131.541, 177.0723
1132.635, 237.3711
1133.729, 143.5576
1134.822, 117.7520
1135.916, 129.3682
1137.009, 161.0234
1138.102, 132.2793
1139.195, 60.56055
1140.288, 76.85059
1141.380, 88.15234
1142.473, 151.4609
1143.565, 167.7803
1144.657, 155.1172
1145.749, 189.4697
1146.841, 152.8330
1147.932, 290.2061
1149.024, 191.5879
1150.115, 260.9785
1151.206, 279.3799
1152.297, 194.7939
1153.388, 357.7236
1154.479, 329.1787
1155.569, 307.6445
1156.659, 202.7002
1157.750, 272.1973
1158.839, 222.6875
1159.929, 261.2412
1161.019, 212.8027
1162.108, 220.7295
1163.198, 175.3320
1164.287, 224.9443
1165.376, 256.5654
1166.465, 289.3672
1167.553, 305.2178
1168.642, 375.4854
1169.730, 345.1582
1170.818, 326.8486
1171.906, 394.5488
1172.994, 333.2578
1174.082, 313.9824
1175.170, 452.7148
1176.257, 439.4570
1177.344, 439.2070
1178.431, 789.2939
1179.518, 523.0635
1180.605, 839.8398
1181.691, 1113.002
1182.778, 1213.812
1183.864, 1745.632
1184.950, 2184.459
1186.036, 2635.295
1187.122, 3295.140
1188.207, 3901.992
1189.292, 3653.846
1190.378, 3421.714
1191.463, 3219.592
1192.548, 2591.477
1193.632, 2060.370
1194.717, 1552.271
1195.801, 1194.404
1196.886, 876.2617
1197.970, 668.1855
1199.054, 661.1172
1200.137, 560.0586
1201.221, 275.0059
1202.305, 331.9609
1203.388, 206.9238
1204.471, 278.9043
1205.554, 226.8945
1206.637, 352.8945
1207.719, 253.9023
1208.802, 163.9180
1209.884, 115.9414
1210.966, 96.97266
1212.048, 82.00977
1213.130, 99.05664
1214.212, 61.10938
1215.293, 43.16797
1216.374, 63.69531
1217.456, 141.3086
1218.536, 61.38672
1219.617, 102.4766
1220.698, 25.57031
1221.778, 39.33008
1222.859, 45.76562
1223.939, 168.1348
1225.019, 66.89453
1226.099, 216.9316
1227.178, 145.9746
1228.258, 26.97656
1229.337, 25.06836
1230.417, 230.1211
1231.496, 85.82031
1232.574, 79.20703
1233.653, 78.24219
1234.732, 34.28125
1235.810, 124.3281
1236.888, 212.3809
1237.966, 201.6680
1239.044, 58.50000
1240.122, 200.5449
1241.199, 39.59375
1242.277, 66.34961
1243.354, 191.6816
1244.431, 169.7207
1245.508, 130.7637
1246.585, 261.8105
1247.661, 0.1386720
1248.738, 38.91797
1249.814, 94.97852
1250.890, 154.0449
1251.966, 13.11523
1253.042, 70.18945
1254.117, 132.2695
1255.193, 5.648438
1256.268, 0.4628910
1257.343, 64.57617
1258.418, 62.69336
1259.493, 2.761719
1260.567, 87.09961
1261.642, 57.00000
1262.716, 43.07812
1263.790, 139.1602
1264.864, 50.75781
1265.938, 100.3047
1267.011, 63.37109
1268.085, 184.4434
1269.158, 176.5176
1270.231, 157.5957
1271.304, 109.6777
1272.377, 132.7637
1273.450, 72.85352
1274.522, 329.9453
1275.594, 134.0430
1276.666, 302.1426
1277.738, 70.24414
1278.810, 242.3496
1279.882, 118.6523
1280.953, 50.76367
1282.025, 6.119141
1283.096, 31.42188
1284.167, 13.53711
1285.238, 23.41602
1286.308, 89.69141
1287.379, 63.19531
1288.449, 129.8828
1289.519, 203.9629
1290.589, 4.6875000E-02
1291.659, 33.13086
1292.729, 51.21484
1293.798, 96.30273
1294.868, 137.4902
1295.937, 35.48047
1297.006, 196.5703
1298.075, 119.6641
1299.143, 54.75977
1300.212, 134.8574
1301.280, 126.9551
1302.348, 74.05469
1303.416, 169.1562
1304.484, 148.2578
1305.552, 64.36133
1306.620, 2.466797
1307.687, 69.56641
1308.754, 68.66992
1309.821, 15.22461
1310.888, 191.8672
1311.955, 112.9609
1313.021, 120.0547
1314.088, 238.1504
1315.154, 106.2480
1316.220, 147.3438
1317.286, 41.55664
1318.352, 229.5137
1319.417, 119.5918
1320.483, 44.66992
1321.548, 160.7500
1322.613, 173.8301
1323.678, 8.908203
1324.743, 219.9844
1325.807, 187.0605
1326.872, 341.1406
1327.936, 163.2168
1329.000, 181.2969
1330.064, 141.3770
1331.128, 220.4570
1332.191, 301.5391
1333.255, 257.6211
1334.318, 203.7012
1335.381, 370.7832
1336.444, 253.8672
1337.507, 22.95117
1338.569, 184.0352
1339.632, 183.1191
1340.694, 280.2031
1341.756, 216.2891
1342.818, 339.3750
1343.880, 109.4629
1344.941, 184.5508
1346.003, 223.6387
1347.064, 354.7285
1348.125, 430.8184
1349.186, 312.9121
1350.247, 213.5898
1351.308, 215.6836
1352.368, 72.63477
1353.428, 28.72852
1354.489, 180.8262
1355.549, 175.9004
1356.608, 170.0625
1357.668, 160.1387
1358.727, 148.2168
1359.787, 241.0645
1360.846, 152.1426
1361.905, 16.22461
1362.964, 186.3066
1364.022, 248.3906
1365.081, 114.4766
1366.139, 82.56055
1367.197, 101.8809
1368.255, 212.9434
1369.313, 104.0078
1370.371, 189.8672
1371.428, 103.9785
1372.486, 159.0488
1373.543, 99.11719
1374.600, 198.1875
1375.657, 162.4805
1376.713, 239.2930
1377.770, 116.3672
1378.826, 82.44531
1379.882, 10.52539
1380.938, 104.6035
1381.994, 216.6855
1383.050, 166.2852
1384.106, 83.32227
1385.161, 270.4102
1386.216, 55.17383
1387.271, 151.8867
1388.326, 104.0625
1389.381, 61.01172
1390.435, 213.0918
1391.490, 202.1758
1392.544, 72.44922
1393.598, 144.5352
1394.652, 93.62695
1395.705, 36.78125
1396.759, 72.10742
1397.812, 84.17383
1398.866, 61.27344
1399.919, 90.37695
1400.972, 50.48242
1402.024, 84.59180
1403.077, 64.70508
1404.129, 30.82031
1405.181, 140.9414
1406.233, 1.064453
1407.285, 215.1895
1408.337, 236.3184
1409.389, 3.052734
1410.440, 214.0840
1411.491, 42.77539
1412.542, 145.7891
1413.593, 68.92773
1414.644, 188.1230
1415.695, 151.2715
1416.745, 202.6211
1417.795, 237.3555
1418.845, 20.36719
1419.895, 102.3809
1420.945, 63.39648
1421.995, 60.41211
1423.044, 112.4277
1424.093, 39.44141
1425.142, 103.9434
1426.191, 74.63477
1427.240, 121.6484
1428.289, 134.6621
1429.337, 138.8535
1430.385, 161.2734
1431.433, 146.6895
1432.481, 230.6914
1433.529, 207.3535
1434.577, 349.3477
1435.624, 302.4199
1436.672, 303.8984
1437.719, 230.0527
1438.766, 231.0508
1439.812, 156.2285
1440.859, 87.23633
1441.905, 311.2539
1442.952, 283.2773
1443.998, 308.3184
1445.044, 343.3574
1446.090, 240.4121
1447.135, 305.4941
1448.181, 231.2344
1449.226, 217.6387
1450.271, 231.5879
1451.316, 244.7012
1452.361, 402.8145
1453.405, 183.9219
1454.450, 316.0293
1455.494, 130.1367
1456.538, 249.2422
1457.582, 248.3438
1458.626, 308.4453
1459.670, 265.5430
1460.713, 285.6406
1461.757, 320.0371
1462.800, 280.8340
1463.843, 323.9844
1464.886, 237.1758
1465.928, 95.37695
1466.971, 183.5781
1468.013, 184.8242
1469.055, 349.0723
1470.097, 190.3203
1471.139, 167.5859
1472.181, 162.8652
1473.222, 201.1836
1474.263, 346.5020
1475.305, 170.8281
1476.346, 280.1543
1477.386, 182.4844
1478.427, 145.8164
1479.468, 256.0938
1480.508, 269.0996
1481.548, 287.3105
1482.588, 234.5898
1483.628, 145.8906
1484.668, 142.0957
1485.707, 177.5254
1486.747, 61.84570
1487.786, 195.1680
1488.825, 145.4922
1489.864, 218.8164
1490.902, 129.8555
1491.941, 258.5312
1492.979, 243.3438
1494.017, 76.63867
1495.055, 11.98828
1496.093, 17.33984
1497.131, 192.7012
1498.168, 84.06641
1499.206, 297.4375
1500.243, 41.81445
1501.280, 169.1992
1502.317, 307.5879
1503.354, 228.9863
1504.390, 152.3984
1505.426, 112.8340
1506.463, 77.28711
1507.499, 88.24805
1508.535, 180.2207
1509.570, 234.7402
1510.606, 48.73438
1511.641, 170.8105
1512.676, 221.3770
1513.711, 183.9531
1514.746, 161.5410
1515.781, 140.1445
1516.816, 166.7598
1517.850, 215.3906
1518.884, 136.0371
1519.918, 34.69531
1520.952, 192.3691
1521.986, 16.05078
1523.019, 313.7480
1524.053, 67.45312
1525.086, 101.1699
1526.119, 191.9004
1527.152, 297.7031
1528.185, 204.5879
1529.217, 119.4961
1530.250, 181.4238
1531.282, 137.3750
1532.314, 94.35742
1533.346, 195.4551
1534.377, 154.4395
1535.409, 294.5156
1536.440, 201.7812
1537.472, 215.0859
1538.503, 176.4375
1539.534, 184.0078
1540.564, 10.42773
1541.595, 249.2148
1542.625, 176.5293
1543.656, 301.8516
1544.686, 127.1445
1545.716, 206.4004
1546.745, 125.3164
1547.775, 104.4941
1548.804, 17.53906
1549.834, 198.5059
1550.863, 62.37891
1551.892, 271.1309
1552.920, 215.7402
1553.949, 382.1699
1554.977, 141.3848
1556.006, 289.3184
1557.034, 229.4238
1558.062, 195.5488
1559.089, 38.10742
1560.117, 95.68555
1561.144, 89.64062
1562.172, 135.2695
1563.199, 26.01758
1564.226, 123.0039
1565.252, 305.5527
1566.279, 167.2090
1567.305, 116.5449
1568.332, 2.982422
1569.358, 286.5371
1570.384, 86.44531
1571.409, 140.3848
1572.435, 0.0000000E+00
##END=



