##NAMES=Diopside
##RRUFFID=R040009
##IDEAL CHEMISTRY=CaMgSi_2_O_6_
##LOCALITY=Otter Lake, Quebec, Canada
##OWNER=RRUFF
##SOURCE=University of Arizona Mineral Museum
##DESCRIPTION=Green square prismatic crystal associated with pale orange calcite
##STATUS=The identification of this mineral has been confirmed by X-ray diffraction and chemical analysis
##URL=rruff.info/R040009
##MEASURED CHEMISTRY=(Ca_0.97_Fe_0.02_Na_0.01_)_Σ=1_(Mg_0.97_Fe_0.02_Al_0.01_)_Σ=1_Si_2.00_O_6_; trace amounts of Mn and Ti
##PIN_ID=M00219
##ORIENTATION=Laser parallel to [-1 0 -1]. Fiducial mark perpendicular to laser is parallel to b* (0 1 0)
94.768, 0.000
96.161, 2.419
97.554, 17.269
98.947, 33.613
100.340, 41.319
101.732, 79.982
103.124, 98.482
104.516, 122.896
105.908, 137.052
107.300, 111.758
108.691, 100.316
110.082, 201.281
111.473, 130.532
112.864, 170.158
114.254, 220.996
115.644, 221.909
117.034, 309.784
118.424, 20.529
119.813, 254.064
121.203, 133.316
122.592, 167.217
123.981, 294.713
125.369, 230.755
126.758, 311.304
128.146, 248.318
129.534, 380.865
130.922, 389.618
132.309, 722.847
133.696, 881.427
135.083, 1212.338
136.470, 1488.559
137.857, 1795.071
139.243, 1604.863
140.630, 1399.983
142.016, 969.321
143.401, 790.939
144.787, 595.751
146.172, 513.756
147.557, 401.829
148.942, 251.319
150.327, 273.863
151.711, 220.576
153.096, 162.449
154.480, 201.480
155.863, 146.659
157.247, 238.979
158.630, 180.436
160.013, 173.022
161.396, 254.736
162.779, 257.570
164.161, 278.520
165.544, 359.579
166.926, 222.745
168.308, 282.016
169.689, 131.385
171.070, 109.852
172.452, 284.410
173.833, 398.062
175.213, 320.799
176.594, 218.627
177.974, 422.510
179.354, 564.562
180.734, 609.403
182.114, 534.857
183.493, 470.758
184.872, 306.569
186.251, 337.492
187.630, 372.464
189.008, 311.600
190.387, 482.041
191.765, 396.243
193.143, 395.549
194.520, 212.988
195.898, 322.540
197.275, 141.186
198.652, 270.884
200.029, 64.631
201.405, 99.427
202.782, 119.264
204.158, 131.242
205.534, 145.288
206.909, 136.732
208.285, 131.506
209.660, 151.704
211.035, 53.955
212.410, 142.242
213.784, 192.563
215.159, 170.918
216.533, 109.304
217.907, 201.725
219.281, 244.177
220.654, 251.683
222.027, 299.218
223.400, 506.782
224.773, 657.373
226.146, 758.993
227.518, 884.640
228.891, 933.522
230.263, 920.752
231.634, 952.734
233.006, 761.482
234.377, 644.254
235.748, 435.048
237.119, 283.866
238.490, 428.703
239.860, 305.563
241.231, 303.495
242.601, 141.448
243.970, 165.431
245.340, 273.439
246.709, 214.466
248.079, 277.508
249.448, 324.566
250.816, 420.641
252.185, 446.752
253.553, 384.897
254.921, 473.060
256.289, 310.327
257.657, 244.729
259.024, 176.203
260.391, 206.045
261.758, 13.763
263.125, 203.825
264.492, 177.675
265.858, 55.745
267.224, 39.999
268.590, 30.181
269.956, 131.375
271.321, 105.062
272.687, 1.889
274.052, 86.175
275.416, 98.303
276.781, 42.422
278.146, 23.638
279.510, 170.356
280.874, 66.091
282.237, 140.541
283.601, 55.943
284.964, 37.370
286.327, 224.259
287.690, 168.188
289.053, 262.928
290.416, 335.480
291.778, 116.316
293.140, 367.952
294.502, 269.968
295.863, 312.441
297.225, 441.764
298.586, 603.615
299.947, 602.696
301.308, 670.812
302.668, 682.971
304.029, 637.275
305.389, 742.497
306.749, 787.586
308.108, 820.072
309.468, 964.395
310.827, 1150.485
312.186, 1224.863
313.545, 1568.412
314.903, 1899.979
316.262, 2490.324
317.620, 3143.890
318.978, 4017.374
320.336, 4899.674
321.693, 5919.195
323.051, 6665.288
324.408, 6120.842
325.765, 5435.531
327.121, 4172.263
328.478, 3153.859
329.834, 2389.471
331.190, 1915.095
332.546, 1389.730
333.902, 1306.377
335.257, 1042.035
336.612, 974.856
337.967, 688.535
339.322, 665.249
340.677, 643.947
342.031, 479.652
343.385, 580.275
344.739, 531.999
346.093, 451.729
347.446, 649.466
348.799, 664.197
350.153, 748.938
351.505, 875.687
352.858, 1063.442
354.210, 1278.192
355.563, 1390.950
356.915, 1408.713
358.267, 1351.480
359.618, 1168.255
360.969, 1255.031
362.321, 1106.812
363.672, 1189.595
365.022, 1403.383
366.373, 1370.172
367.723, 1350.963
369.073, 1183.755
370.423, 1087.550
371.773, 903.344
373.122, 820.139
374.471, 981.934
375.821, 815.729
377.169, 1158.522
378.518, 1109.316
379.866, 1373.108
381.215, 1856.898
382.563, 2189.687
383.910, 3064.630
385.258, 3942.414
386.605, 5288.273
387.952, 6162.590
389.299, 7112.365
390.646, 6580.932
391.992, 5502.701
393.339, 4183.465
394.685, 2930.229
396.031, 2303.987
397.376, 1594.741
398.722, 1130.492
400.067, 768.237
401.412, 498.170
402.757, 643.917
404.101, 431.758
405.446, 435.930
406.790, 349.656
408.134, 247.326
409.478, 264.045
410.821, 287.760
412.165, 103.848
413.508, 330.104
414.851, 270.164
416.193, 103.283
417.536, 167.135
418.878, 153.688
420.220, 175.904
421.562, 185.109
422.904, 76.465
424.245, 250.025
425.586, 116.367
426.927, 250.236
428.268, 92.908
429.609, 42.418
430.949, 179.918
432.289, 194.809
433.629, 71.635
434.969, 140.846
436.309, 0.562
437.648, 264.090
438.987, 108.490
440.326, 18.299
441.665, 116.596
443.003, 287.342
444.342, 95.084
445.680, 120.188
447.018, 70.279
448.355, 29.902
449.693, 125.289
451.030, 86.117
452.367, 139.662
453.704, 100.156
455.041, 5.332
456.377, 6.516
457.713, 25.771
459.049, 16.387
460.385, 125.969
461.721, 155.639
463.056, 184.980
464.391, 0.951
465.726, 206.047
467.061, 68.314
468.395, 51.900
469.730, 219.137
471.064, 104.227
472.398, 208.582
473.731, 13.291
475.065, 39.209
476.398, 177.289
477.731, 261.645
479.064, 119.688
480.397, 4.143
481.729, 216.854
483.062, 15.172
484.394, 180.762
485.725, 65.674
487.057, 61.568
488.389, 162.441
489.720, 133.295
491.051, 175.127
492.382, 129.941
493.712, 200.730
495.043, 113.496
496.373, 78.238
497.703, 209.961
499.032, 113.674
500.362, 228.363
501.691, 140.072
503.020, 4.762
504.349, 224.408
505.678, 256.037
507.007, 245.645
508.335, 252.232
509.663, 240.793
510.991, 461.332
512.319, 363.846
513.646, 418.340
514.973, 305.807
516.300, 314.611
517.627, 388.672
518.954, 317.070
520.280, 356.439
521.607, 401.783
522.933, 421.105
524.259, 576.404
525.584, 457.678
526.910, 764.922
528.235, 711.141
529.560, 842.332
530.885, 522.498
532.209, 494.641
533.534, 524.754
534.858, 393.840
536.182, 290.898
537.506, 302.928
538.829, 332.932
540.152, 221.906
541.476, 341.859
542.799, 31.223
544.121, 336.619
545.444, 182.432
546.766, 74.215
548.088, 394.965
549.410, 29.682
550.732, 309.355
552.053, 275.547
553.375, 245.164
554.696, 289.236
556.017, 348.793
557.337, 406.844
558.658, 394.018
559.978, 179.664
561.298, 301.930
562.618, 203.332
563.938, 20.916
565.257, 260.439
566.576, 33.082
567.895, 310.012
569.214, 245.252
570.533, 50.426
571.851, 45.443
573.170, 42.213
574.488, 106.832
575.805, 59.420
577.123, 49.814
578.440, 114.713
579.758, 238.283
581.075, 86.299
582.391, 305.174
583.708, 91.828
585.024, 61.629
586.341, 284.908
587.657, 279.000
588.972, 360.936
590.288, 200.312
591.603, 21.930
592.918, 126.768
594.233, 147.479
595.548, 292.391
596.863, 21.494
598.177, 134.861
599.491, 69.982
600.805, 53.812
602.119, 222.711
603.432, 178.805
604.746, 304.219
606.059, 227.820
607.372, 129.613
608.685, 270.891
609.997, 225.484
611.309, 127.205
612.621, 199.584
613.933, 188.252
615.245, 217.168
616.557, 327.098
617.868, 285.867
619.179, 207.793
620.490, 19.510
621.801, 423.416
623.111, 118.787
624.421, 491.438
625.731, 8.320
627.041, 499.289
628.351, 195.541
629.660, 42.162
630.970, 512.814
632.279, 191.912
633.588, 311.371
634.896, 219.727
636.205, 373.943
637.513, 257.213
638.821, 435.721
640.129, 528.451
641.437, 586.607
642.744, 342.266
644.051, 423.740
645.358, 555.199
646.665, 809.400
647.972, 559.535
649.278, 784.021
650.584, 717.494
651.890, 1207.908
653.196, 1146.346
654.502, 1435.213
655.807, 1297.301
657.113, 2064.877
658.418, 2756.443
659.722, 3286.910
661.027, 3993.008
662.331, 5016.822
663.636, 6003.867
664.940, 6339.498
666.244, 6625.684
667.547, 5638.494
668.851, 5179.449
670.154, 3927.195
671.457, 3009.146
672.760, 2646.232
674.062, 1963.090
675.365, 1809.855
676.667, 1511.586
677.969, 1125.656
679.271, 1019.080
680.572, 601.385
681.874, 958.223
683.175, 752.770
684.476, 492.545
685.777, 636.334
687.077, 387.771
688.378, 533.027
689.678, 559.393
690.978, 429.719
692.278, 490.336
693.577, 554.617
694.877, 398.916
696.176, 417.102
697.475, 318.250
698.774, 381.363
700.072, 422.283
701.371, 436.326
702.669, 505.693
703.967, 367.688
705.265, 495.625
706.562, 453.732
707.860, 185.600
709.157, 503.395
710.454, 201.189
711.751, 380.943
713.047, 192.662
714.344, 381.344
715.640, 14.988
716.936, 119.891
718.232, 453.441
719.527, 267.861
720.823, 267.904
722.118, 232.426
723.413, 151.057
724.708, 69.426
726.002, 471.756
727.297, 369.852
728.591, 379.775
729.885, 400.633
731.179, 288.574
732.472, 63.926
733.766, 93.977
735.059, 76.131
736.352, 104.133
737.645, 57.744
738.937, 245.137
740.230, 1.400
741.522, 75.100
742.814, 112.992
744.106, 329.531
745.397, 29.336
746.689, 21.143
747.980, 160.490
749.271, 72.398
750.562, 223.697
751.853, 38.869
753.143, 198.652
754.433, 147.582
755.723, 38.025
757.013, 295.043
758.303, 70.551
759.592, 138.395
760.881, 144.240
762.170, 211.725
763.459, 144.256
764.748, 143.521
766.036, 259.271
767.325, 78.375
768.613, 231.238
769.901, 62.781
771.188, 95.410
772.476, 246.354
773.763, 153.811
775.050, 194.748
776.337, 132.793
777.624, 224.578
778.910, 174.629
780.196, 263.553
781.482, 147.924
782.768, 29.396
784.054, 195.426
785.339, 113.398
786.625, 32.990
787.910, 107.303
789.195, 157.852
790.479, 181.074
791.764, 161.770
793.048, 15.211
794.332, 335.234
795.616, 30.381
796.900, 369.797
798.183, 41.479
799.467, 267.842
800.750, 118.182
802.033, 127.770
803.316, 366.057
804.598, 269.371
805.880, 477.568
807.163, 259.791
808.445, 111.998
809.726, 47.801
811.008, 195.533
812.289, 170.342
813.570, 210.451
814.851, 73.438
816.132, 111.086
817.413, 47.881
818.693, 137.801
819.973, 236.025
821.253, 76.914
822.533, 424.340
823.813, 75.178
825.092, 256.986
826.371, 215.783
827.650, 23.555
828.929, 405.383
830.208, 340.387
831.486, 185.170
832.764, 92.262
834.042, 111.998
835.320, 215.715
836.598, 402.398
837.875, 213.104
839.152, 201.783
840.429, 515.443
841.706, 73.090
842.983, 318.760
844.259, 521.414
845.536, 220.053
846.812, 253.668
848.088, 260.260
849.363, 464.828
850.639, 464.742
851.914, 624.936
853.189, 593.486
854.464, 785.033
855.739, 864.596
857.013, 636.141
858.288, 393.682
859.562, 539.215
860.836, 620.740
862.110, 52.693
863.383, 615.166
864.656, 343.129
865.930, 377.551
867.203, 310.426
868.475, 505.799
869.748, 169.285
871.020, 349.781
872.292, 307.098
873.564, 296.229
874.836, 271.357
876.108, 250.316
877.379, 292.922
878.650, 458.166
879.922, 330.502
881.192, 197.816
882.463, 418.135
883.733, 250.482
885.004, 207.807
886.274, 102.170
887.544, 147.912
888.813, 371.092
890.083, 244.590
891.352, 441.941
892.621, 384.051
893.890, 440.947
895.159, 295.295
896.427, 133.775
897.695, 457.941
898.964, 467.016
900.232, 283.641
901.499, 334.244
902.767, 398.764
904.034, 161.576
905.301, 491.578
906.568, 607.246
907.835, 398.668
909.102, 461.375
910.368, 265.299
911.634, 602.967
912.900, 293.256
914.166, 647.299
915.432, 481.838
916.697, 270.092
917.962, 503.178
919.227, 372.531
920.492, 496.301
921.757, 388.783
923.021, 669.135
924.285, 286.990
925.550, 548.449
926.813, 299.973
928.077, 355.639
929.341, 416.551
930.604, 659.750
931.867, 258.775
933.130, 331.291
934.393, 940.594
935.655, 164.971
936.918, 635.262
938.180, 311.553
939.442, 280.186
940.703, 522.994
941.965, 511.654
943.226, 26.742
944.488, 150.840
945.749, 601.434
947.009, 148.691
948.270, 324.217
949.530, 252.799
950.791, 548.182
952.051, 342.963
953.311, 43.611
954.570, 708.350
955.830, 339.086
957.089, 348.543
958.348, 470.041
959.607, 361.174
960.866, 329.000
962.124, 49.975
963.383, 401.910
964.641, 143.826
965.899, 351.488
967.156, 175.082
968.414, 135.283
969.671, 475.896
970.928, 264.557
972.185, 391.750
973.442, 209.062
974.699, 491.494
975.955, 462.689
977.211, 452.699
978.468, 635.082
979.723, 605.436
980.979, 324.857
982.234, 1193.691
983.490, 295.439
984.745, 578.525
986.000, 915.293
987.254, 507.828
988.509, 916.221
989.763, 814.992
991.017, 866.303
992.271, 991.176
993.525, 1125.676
994.779, 1463.061
996.032, 1453.436
997.285, 1746.115
998.538, 1401.506
999.791, 2299.305
1001.044, 2166.830
1002.296, 2783.141
1003.548, 3234.789
1004.800, 3968.836
1006.052, 5205.104
1007.304, 6721.754
1008.555, 8843.639
1009.807, 11449.738
1011.058, 14332.590
1012.309, 15785.316
1013.559, 14830.590
1014.810, 12022.574
1016.060, 9359.195
1017.310, 7094.867
1018.560, 5481.227
1019.810, 3799.836
1021.060, 3337.025
1022.309, 2404.676
1023.558, 2283.156
1024.807, 1725.455
1026.056, 1805.869
1027.305, 1487.906
1028.553, 1739.219
1029.801, 1310.727
1031.049, 1120.613
1032.297, 1084.494
1033.545, 1367.525
1034.793, 855.244
1036.040, 1107.346
1037.287, 1110.160
1038.534, 1140.275
1039.781, 1197.393
1041.027, 813.738
1042.274, 940.355
1043.520, 833.189
1044.766, 1186.441
1046.012, 908.279
1047.257, 1044.941
1048.503, 1386.371
1049.748, 788.469
1050.993, 1453.320
1052.238, 1081.590
1053.483, 801.262
1054.727, 813.637
1055.971, 976.016
1057.216, 782.906
1058.459, 813.758
1059.703, 593.574
1060.947, 879.973
1062.190, 676.727
1063.433, 659.293
1064.676, 707.438
1065.919, 543.301
1067.162, 892.270
1068.404, 384.809
1069.646, 410.516
1070.888, 920.957
1072.130, 411.336
1073.372, 622.652
1074.613, 784.984
1075.855, 443.262
1077.096, 444.438
1078.337, 608.465
1079.578, 338.418
1080.818, 639.297
1082.059, 289.938
1083.299, 465.543
1084.539, 285.582
1085.779, 502.723
1087.018, 416.051
1088.258, 416.637
1089.497, 272.953
1090.736, 351.949
1091.975, 265.203
1093.213, 92.844
1094.452, 140.340
1095.690, 33.383
1096.928, 214.270
1098.166, 197.023
1099.404, 481.930
1100.642, 162.047
1101.879, 292.664
1103.116, 179.332
1104.353, 351.062
1105.590, 73.484
1106.827, 390.996
1108.063, 91.262
1109.299, 369.461
1110.536, 44.762
1111.771, 17.484
1113.007, 402.285
1114.243, 228.223
1115.478, 10.430
1116.713, 218.297
1117.948, 283.906
1119.183, 13.895
1120.418, 52.176
1121.652, 354.328
1122.886, 122.805
1124.120, 357.734
1125.354, 14.559
1126.588, 203.789
1127.821, 264.582
1129.055, 223.695
1130.288, 351.945
1131.521, 271.797
1132.753, 16.570
1133.986, 86.566
1135.218, 555.430
1136.450, 107.898
1137.682, 473.301
1138.914, 61.797
1140.146, 45.180
1141.377, 141.297
1142.609, 67.793
1143.840, 70.094
1145.071, 209.938
1146.301, 283.676
1147.532, 202.297
1148.762, 249.816
1149.992, 126.793
1151.222, 209.445
1152.452, 322.562
1153.682, 80.422
1154.911, 87.449
1156.140, 25.199
1157.369, 16.211
1158.598, 142.414
1159.827, 149.750
1161.055, 201.391
1162.284, 224.020
1163.512, 292.988
1164.740, 263.668
1165.967, 289.773
1167.195, 281.680
1168.422, 112.344
1169.650, 17.535
1170.877, 126.414
1172.103, 58.449
1173.330, 106.523
1174.557, 252.113
1175.783, 109.590
1177.009, 243.141
1178.235, 277.863
1179.461, 196.668
1180.686, 31.707
1181.912, 222.730
1183.137, 304.051
1184.362, 126.520
1185.587, 226.902
1186.811, 367.188
1188.036, 126.395
1189.260, 232.504
1190.484, 409.531
1191.708, 668.477
1192.932, 193.336
1194.155, 261.113
1195.378, 238.812
1196.602, 559.414
1197.825, 341.918
1199.047, 493.312
1200.270, 393.184
1201.492, 869.734
1202.715, 226.883
1203.937, 727.820
1205.159, 700.684
1206.380, 625.195
1207.602, 187.062
1208.823, 312.633
1210.044, 332.902
1211.265, 444.648
1212.486, 497.477
1213.707, 421.789
1214.927, 702.383
1216.147, 500.430
1217.367, 629.844
1218.587, 583.031
1219.807, 563.203
1221.027, 516.504
1222.246, 528.273
1223.465, 530.613
1224.684, 546.562
1225.903, 621.879
1227.121, 627.145
1228.340, 536.883
1229.558, 531.930
1230.776, 399.789
1231.994, 227.695
1233.212, 786.578
1234.429, 418.773
1235.646, 397.270
1236.864, 743.836
1238.081, 395.109
1239.297, 567.891
1240.514, 682.078
1241.730, 438.254
1242.947, 176.562
1244.163, 317.648
1245.378, 716.547
1246.594, 645.211
1247.810, 284.020
1249.025, 830.445
1250.240, 563.289
1251.455, 199.809
1252.670, 498.801
1253.885, 584.281
1255.099, 318.633
1256.313, 80.711
1257.527, 580.977
1258.741, 705.785
1259.955, 114.309
1261.168, 192.773
1262.382, 522.867
1263.595, 356.977
1264.808, 162.516
1266.021, 223.270
1267.233, 353.863
1268.446, 335.641
1269.658, 335.816
1270.870, 507.754
1272.082, 161.008
1273.294, 273.613
1274.505, 14.371
1275.716, 236.109
1276.928, 110.906
1278.139, 351.535
1279.349, 414.039
1280.560, 286.184
1281.770, 56.504
1282.981, 89.961
1284.191, 279.023
1285.401, 311.414
1286.610, 150.297
1287.820, 334.562
1289.029, 58.711
1290.239, 421.699
1291.448, 214.516
1292.656, 218.516
1293.865, 368.910
1295.073, 369.609
1296.282, 390.871
1297.490, 205.613
1298.698, 447.953
1299.906, 172.324
1301.113, 314.695
1302.320, 231.637
1303.528, 109.289
1304.735, 204.449
1305.942, 165.906
1307.148, 463.508
1308.355, 197.188
1309.561, 397.656
1310.767, 252.305
1311.973, 415.492
1313.179, 13.867
1314.384, 598.895
1315.590, 252.145
1316.795, 431.781
1318.000, 0.109
1319.205, 413.148
1320.410, 324.508
1321.614, 17.688
1322.819, 430.418
1324.023, 76.172
1325.227, 498.562
1326.431, 286.980
1327.634, 0.000
##END=



