##NAMES=Diopside
##RRUFFID=R050666
##IDEAL CHEMISTRY=CaMgSi_2_O_6_
##LOCALITY=Franklin, Sussex County, New Jersey, USA
##OWNER=RRUFF
##SOURCE=University of Arizona Mineral Museum
##DESCRIPTION=Brown cleavage fragment with white hardystonite
##STATUS=The identification of this mineral has been confirmed by X-ray diffraction and chemical analysis
##URL=rruff.info/R050666
##MEASURED CHEMISTRY=Ca(Mg_0.66_Mn_0.33_Fe_0.01_)Si_2_O_6_
##PIN_ID=L00874
##ORIENTATION=Laser parallel to -b* (0 -1 0). Fiducial mark perpendicular to laser is parallel to -c [0 0 -1]
109.5120, 0.0000000E+00
110.7440, 49.31641
111.9760, 3.044434
113.2080, 31.68604
114.4400, 267.3311
115.6710, 425.9258
116.9030, 271.6230
118.1340, 294.8096
119.3650, 351.9297
120.5960, 480.0518
121.8270, 546.1812
123.0580, 974.3179
124.2880, 1297.341
125.5190, 1688.332
126.7490, 2348.569
127.9790, 3519.512
129.2090, 5103.674
130.4390, 6676.103
131.6680, 7925.888
132.8980, 8232.375
134.1270, 7136.744
135.3560, 5942.199
136.5850, 4835.960
137.8140, 3594.749
139.0430, 2834.776
140.2710, 2013.673
141.5000, 1300.548
142.7280, 905.4141
143.9560, 521.2783
145.1840, 353.4170
146.4120, 254.5449
147.6390, 149.8926
148.8670, 3.319336
150.0940, 91.38818
151.3210, 223.7729
152.5490, 133.9780
153.7750, 72.40918
155.0020, 58.20215
156.2290, 55.05469
157.4550, 13.82812
158.6810, 6.465332
159.9080, 2.125488
161.1340, 130.7896
162.3590, 30.32666
163.5850, 102.7993
164.8110, 91.58252
166.0360, 37.12109
167.2610, 122.1558
168.4860, 102.8794
169.7110, 353.6714
170.9360, 567.5264
172.1610, 556.4414
173.3850, 684.4106
174.6100, 555.4336
175.8340, 434.5059
177.0580, 330.6265
178.2820, 291.7930
179.5050, 195.0044
180.7290, 166.0112
181.9520, 90.55322
183.1760, 128.9375
184.3990, 85.38135
185.6220, 103.8354
186.8450, 89.34570
188.0670, 77.90869
189.2900, 108.5239
190.5120, 133.1870
191.7340, 73.89258
192.9560, 135.6377
194.1780, 125.4219
195.4000, 160.2378
196.6220, 120.1621
197.8430, 67.15527
199.0640, 208.2109
200.2860, 237.3037
201.5070, 295.4199
202.7270, 281.5469
203.9480, 145.6729
205.1690, 47.80176
206.3890, 11.07422
207.6090, 85.96826
208.8290, 30.92969
210.0490, 3.032227
211.2690, 55.99463
212.4890, 59.22314
213.7080, 49.93896
214.9280, 45.93213
216.1470, 63.43945
217.3660, 54.09717
218.5850, 85.09033
219.8030, 57.26172
221.0220, 30.48291
222.2400, 37.78369
223.4590, 85.54834
224.6770, 138.4453
225.8950, 291.0527
227.1120, 373.5225
228.3300, 617.0078
229.5480, 887.5000
230.7650, 1162.997
231.9820, 1239.465
233.1990, 1289.899
234.4160, 981.3350
235.6330, 794.7715
236.8490, 596.2095
238.0660, 504.6519
239.2820, 435.0947
240.4980, 372.5435
241.7140, 283.0000
242.9300, 195.4639
244.1460, 162.9360
245.3610, 136.4150
246.5770, 176.9014
247.7920, 196.3945
249.0070, 197.8955
250.2220, 210.4038
251.4370, 249.9185
252.6510, 284.4395
253.8660, 254.9678
255.0800, 241.5024
256.2940, 285.1938
257.5080, 588.3467
258.7220, 453.0825
259.9360, 873.0396
261.1490, 389.2612
262.3630, 243.6958
263.5760, 237.0293
264.7890, 242.4434
266.0020, 248.8379
267.2150, 259.2070
268.4270, 280.5479
269.6400, 247.8369
270.8520, 219.0781
272.0640, 249.1553
273.2760, 259.4512
274.4880, 318.5952
275.7000, 324.6689
276.9120, 414.9233
278.1230, 346.9180
279.3340, 330.8965
280.5450, 304.7983
281.7560, 374.1104
282.9670, 314.1562
284.1780, 313.2520
285.3880, 272.2280
286.5980, 294.9707
287.8090, 448.4536
289.0190, 453.2026
290.2290, 503.9927
291.4380, 668.7920
292.6480, 617.4902
293.8570, 742.8101
295.0670, 840.5034
296.2760, 955.6548
297.4850, 1197.194
298.6930, 1363.505
299.9020, 1699.569
301.1110, 1962.482
302.3190, 2294.406
303.5270, 2665.588
304.7350, 3127.797
305.9430, 3550.610
307.1510, 4217.346
308.3580, 4833.462
309.5660, 5529.558
310.7730, 6131.625
311.9800, 6749.481
313.1870, 7140.713
314.3940, 7465.890
315.6010, 7160.511
316.8070, 6934.144
318.0130, 6137.788
319.2200, 5774.447
320.4260, 4905.110
321.6310, 4146.147
322.8370, 3604.989
324.0430, 3220.187
325.2480, 2812.956
326.4540, 2434.773
327.6590, 2258.678
328.8640, 2119.451
330.0680, 1922.163
331.2730, 1930.011
332.4780, 1717.135
333.6820, 1681.943
334.8860, 1792.148
336.0900, 1888.847
337.2940, 1960.291
338.4980, 2095.104
339.7010, 2390.858
340.9050, 2656.904
342.1080, 2902.585
343.3110, 3316.904
344.5140, 3489.688
345.7170, 3895.474
346.9200, 4040.262
348.1220, 3929.054
349.3240, 4041.847
350.5270, 3735.244
351.7290, 3404.226
352.9310, 3247.639
354.1320, 2785.989
355.3340, 2587.236
356.5350, 2289.716
357.7370, 2122.219
358.9380, 1836.692
360.1390, 1747.159
361.3400, 1731.708
362.5400, 1652.228
363.7410, 1681.885
364.9410, 1641.435
366.1410, 1689.880
367.3410, 1799.362
368.5410, 2013.050
369.7410, 2135.888
370.9400, 2410.728
372.1400, 2821.567
373.3390, 3200.409
374.5380, 3800.253
375.7370, 4466.097
376.9360, 5245.943
378.1350, 6172.791
379.3330, 7108.640
380.5310, 7688.490
381.7300, 7779.342
382.9280, 7651.196
384.1260, 7065.050
385.3230, 6140.907
386.5210, 5044.765
387.7180, 4278.625
388.9160, 3383.487
390.1130, 2804.351
391.3100, 2101.214
392.5060, 1744.081
393.7030, 1350.948
394.9000, 1029.817
396.0960, 886.6870
397.2920, 744.5591
398.4880, 628.4321
399.6840, 461.3071
400.8800, 412.1582
402.0750, 300.0132
403.2710, 324.8774
404.4660, 273.7461
405.6610, 307.6138
406.8560, 243.4790
408.0510, 138.3433
409.2450, 273.2056
410.4400, 214.0654
411.6340, 129.9233
412.8280, 169.7788
414.0220, 125.6333
415.2160, 106.4854
416.4100, 115.3364
417.6030, 129.1865
418.7970, 104.8169
419.9900, 2.881836
421.1830, 77.72559
422.3760, 47.56787
423.5690, 49.41016
424.7610, 77.74951
425.9540, 41.94824
427.1460, 5.169434
428.3380, 57.39551
429.5300, 10.34912
430.7220, 48.90771
431.9140, 13.81006
433.1050, 6.526367
434.2970, 6.392090
435.4880, 16.04346
436.6790, 19.66064
437.8700, 5.365234
439.0610, 10.07275
440.2510, 100.8975
441.4420, 24.60742
442.6320, 26.50684
443.8220, 92.29883
445.0120, 210.0298
446.2020, 159.7515
447.3910, 177.6455
448.5810, 149.4727
449.7700, 158.2129
450.9600, 266.1406
452.1490, 264.9375
453.3370, 264.7744
454.5260, 289.5796
455.7150, 261.0576
456.9030, 228.3491
458.0910, 225.2876
459.2800, 107.1074
460.4670, 100.9307
461.6550, 54.79395
462.8430, 109.1855
464.0300, 17.99170
465.2180, 17.81787
466.4050, 20.36328
467.5920, 39.44531
468.7790, 31.74854
469.9650, 69.96338
471.1520, 15.21826
472.3380, 34.46924
473.5250, 17.74170
474.7110, 56.02734
475.8970, 67.34717
477.0820, 22.70557
478.2680, 109.0811
479.4540, 44.48047
480.6390, 21.04053
481.8240, 27.59766
483.0090, 14.84668
484.1940, 45.69531
485.3780, 25.76514
486.5630, 70.75684
487.7470, 83.27734
488.9320, 149.7974
490.1160, 211.3271
491.3000, 284.8545
492.4830, 282.3789
493.6670, 429.9033
494.8500, 580.8740
496.0340, 785.9717
497.2170, 1051.521
498.4000, 1151.067
499.5820, 1526.617
500.7650, 1653.172
501.9480, 1679.725
503.1300, 1399.275
504.3120, 1215.824
505.4940, 1013.379
506.6760, 839.9438
507.8580, 768.5078
509.0390, 565.0732
510.2210, 467.6382
511.4020, 470.2300
512.5830, 376.8296
513.7640, 367.4497
514.9450, 355.1001
516.1250, 343.7471
517.3060, 324.3936
518.4860, 327.0361
519.6660, 301.7109
520.8460, 323.4097
522.0260, 348.6523
523.2060, 367.7676
524.3850, 423.4697
525.5650, 453.1685
526.7440, 479.8760
527.9230, 352.5884
529.1020, 394.3037
530.2810, 301.0312
531.4590, 341.7622
532.6380, 367.4941
533.8160, 225.2290
534.9940, 316.9673
536.1720, 295.7139
537.3500, 272.4746
538.5270, 217.2300
539.7050, 221.9800
540.8820, 235.8540
542.0590, 249.3721
543.2360, 347.2280
544.4130, 331.9731
545.5900, 475.7119
546.7660, 540.0664
547.9430, 730.1719
549.1190, 837.9038
550.2950, 994.6328
551.4710, 1202.356
552.6470, 1274.073
553.8220, 1458.782
554.9980, 1477.484
556.1730, 1284.180
557.3480, 1112.868
558.5230, 1038.549
559.6980, 824.2231
560.8730, 734.8892
562.0470, 656.3311
563.2220, 493.9819
564.3960, 530.5967
565.5700, 410.2104
566.7440, 428.1611
567.9170, 289.3071
569.0910, 273.3779
570.2640, 139.5537
571.4380, 292.9668
572.6110, 144.6421
573.7840, 169.0547
574.9570, 98.42969
576.1290, 123.7964
577.3020, 116.2549
578.4740, 127.6621
579.6460, 131.0015
580.8180, 34.50928
581.9900, 74.27588
583.1620, 17.67139
584.3330, 44.06494
585.5040, 59.56738
586.6760, 116.6646
587.8470, 24.14941
589.0180, 42.01953
590.1880, 156.8604
591.3590, 29.67090
592.5290, 75.56104
593.7000, 58.68555
594.8700, 81.49219
596.0400, 46.99658
597.2090, 52.92285
598.3790, 38.61084
599.5490, 117.1958
600.7180, 99.66016
601.8870, 2.027832
603.0560, 109.7573
604.2250, 74.31055
605.3940, 212.3540
606.5620, 132.2656
607.7300, 134.1577
608.8990, 221.4160
610.0670, 185.5688
611.2350, 240.2812
612.4020, 172.1743
613.5700, 196.0693
614.7370, 255.9111
615.9050, 244.5967
617.0720, 340.3779
618.2390, 386.8960
619.4060, 403.0259
620.5720, 455.1665
621.7390, 533.1992
622.9050, 564.5640
624.0710, 670.5391
625.2370, 679.6455
626.4030, 664.3081
627.5690, 941.5391
628.7340, 838.2534
629.9000, 843.1987
631.0650, 1114.304
632.2300, 1073.600
633.3950, 1243.847
634.5600, 1293.992
635.7240, 1359.617
636.8890, 1662.785
638.0530, 1861.992
639.2170, 1936.835
640.3810, 2144.235
641.5450, 2469.332
642.7080, 2797.422
643.8720, 3155.500
645.0350, 3746.365
646.1980, 4465.132
647.3610, 5345.482
648.5240, 6452.293
649.6870, 7711.362
650.8490, 9573.440
652.0120, 11591.91
653.1740, 14227.60
654.3360, 17067.53
655.4980, 20303.53
656.6600, 23581.13
657.8210, 26445.17
658.9830, 28226.31
660.1440, 28767.23
661.3050, 27901.95
662.4660, 25924.87
663.6270, 22958.35
664.7870, 19691.27
665.9480, 16504.15
667.1080, 13949.95
668.2680, 11353.30
669.4280, 9206.143
670.5880, 7563.464
671.7480, 6416.400
672.9070, 5342.891
674.0670, 4519.562
675.2260, 3821.168
676.3850, 3474.149
677.5440, 2874.863
678.7030, 2505.451
679.8610, 2229.537
681.0200, 1976.060
682.1780, 1673.748
683.3360, 1592.638
684.4940, 1429.124
685.6520, 1259.578
686.8090, 1177.298
687.9670, 1124.068
689.1240, 1015.113
690.2810, 936.6143
691.4380, 954.9814
692.5950, 742.3325
693.7520, 793.6650
694.9080, 686.9805
696.0650, 648.2778
697.2210, 649.5581
698.3770, 613.8198
699.5330, 510.0645
700.6880, 651.2920
701.8440, 453.5034
702.9990, 518.6973
704.1550, 477.8740
705.3100, 415.0332
706.4650, 370.1953
707.6190, 329.2373
708.7740, 284.4927
709.9290, 272.6323
711.0830, 235.7549
712.2370, 252.8735
713.3910, 191.9751
714.5450, 203.0605
715.6980, 149.1294
716.8520, 162.1865
718.0050, 118.2271
719.1580, 78.25146
720.3110, 58.14307
721.4640, 147.1304
722.6170, 123.9126
723.7700, 137.7881
724.9220, 32.70996
726.0740, 163.6240
727.2260, 41.35449
728.3780, 42.13770
729.5300, 42.99414
730.6810, 8.681152
731.8330, 27.48682
732.9840, 40.23438
734.1350, 87.99609
735.2860, 32.65479
736.4370, 44.31445
737.5880, 11.89355
738.7380, 13.99023
739.8880, 177.2183
741.0390, 36.24219
742.1890, 52.85449
743.3380, 84.44824
744.4880, 15.96826
745.6380, 11.57520
746.7870, 93.09863
747.9360, 89.60596
749.0850, 113.2090
750.2340, 35.38818
751.3830, 101.0723
752.5310, 98.52783
753.6800, 53.97461
754.8280, 125.4199
755.9760, 386.8691
757.1240, 221.5278
758.2720, 705.7671
759.4190, 96.20801
760.5670, 30.63477
761.7140, 71.04297
762.8610, 112.4414
764.0080, 23.82471
765.1550, 65.19727
766.3020, 16.55469
767.4480, 23.10889
768.5950, 101.1875
769.7410, 36.46973
770.8870, 44.73535
772.0330, 65.98535
773.1780, 14.21973
774.3240, 53.43457
775.4690, 40.63428
776.6140, 6.819336
777.7590, 3.018066
778.9040, 56.11670
780.0490, 54.23730
781.1940, 53.34375
782.3380, 12.56396
783.4820, 27.50293
784.6260, 13.51904
785.7700, 2.524414
786.9140, 36.50732
788.0580, 98.52344
789.2010, 25.62939
790.3450, 77.77051
791.4880, 113.9746
792.6310, 31.73926
793.7730, 1.439941
794.9160, 15.12012
796.0590, 120.2139
797.2010, 32.36865
798.3430, 99.06201
799.4850, 23.43652
800.6270, 49.07812
801.7690, 11.36328
802.9100, 41.20947
804.0520, 24.82080
805.1930, 18.55566
806.3340, 59.13135
807.4750, 19.84717
808.6160, 14.58984
809.7560, 24.35547
810.8970, 28.14893
812.0370, 43.97168
813.1770, 66.83154
814.3170, 3.260254
815.4570, 27.33936
816.5960, 39.59033
817.7360, 73.44727
818.8750, 0.5244140
820.0140, 23.50732
821.1530, 22.48682
822.2920, 53.47266
823.4310, 5.549805
824.5690, 41.58496
825.7070, 14.64990
826.8460, 0.7299800
827.9840, 89.18115
829.1220, 13.08350
830.2590, 82.97852
831.3970, 159.8662
832.5340, 167.7471
833.6710, 151.6211
834.8080, 301.4883
835.9450, 365.3491
837.0820, 419.2041
838.2190, 542.0527
839.3550, 712.1948
840.4910, 903.6450
841.6270, 1183.563
842.7630, 1456.389
843.8990, 1820.209
845.0350, 2260.023
846.1700, 2559.833
847.3060, 2834.637
848.4410, 3017.438
849.5760, 2720.232
850.7100, 2453.022
851.8450, 2142.809
852.9800, 1894.590
854.1140, 1624.285
855.2480, 1289.142
856.3820, 1165.755
857.5160, 913.2832
858.6500, 802.0464
859.7830, 630.8066
860.9170, 660.5645
862.0500, 563.7158
863.1830, 559.4678
864.3160, 531.8232
865.4480, 558.1963
866.5810, 470.5889
867.7130, 445.8901
868.8460, 430.9458
869.9780, 338.3091
871.1100, 439.9629
872.2410, 470.1846
873.3730, 384.6333
874.5050, 432.1738
875.6360, 480.8242
876.7670, 439.5615
877.8980, 441.9180
879.0290, 379.4458
880.1590, 367.1094
881.2900, 410.0972
882.4200, 362.0762
883.5500, 367.4590
884.6800, 330.1602
885.8100, 368.9053
886.9400, 341.7700
888.0690, 427.5176
889.1990, 350.2671
890.3280, 368.8428
891.4570, 311.5962
892.5860, 281.3521
893.7140, 349.1094
894.8430, 389.8691
895.9710, 429.6421
897.1000, 343.1030
898.2280, 283.8193
899.3560, 328.6206
900.4830, 453.0083
901.6110, 293.7329
902.7380, 345.9756
903.8660, 360.0122
904.9930, 252.8833
906.1200, 368.5566
907.2460, 412.2754
908.3730, 357.0996
909.5000, 331.4541
910.6260, 437.2690
911.7520, 399.0396
912.8780, 446.1675
914.0040, 371.7314
915.1290, 292.5928
916.2550, 404.4604
917.3800, 397.3501
918.5050, 431.4551
919.6300, 329.6743
920.7550, 261.3081
921.8800, 315.4795
923.0040, 346.3877
924.1290, 221.2896
925.2530, 359.8057
926.3770, 312.0850
927.5010, 272.1304
928.6250, 161.0972
929.7480, 241.4663
930.8720, 355.3828
931.9950, 145.1973
933.1180, 252.2261
934.2410, 124.4653
935.3640, 247.4980
936.4860, 181.9668
937.6090, 227.9829
938.7310, 160.0415
939.8530, 51.18652
940.9750, 172.7773
942.0970, 187.8721
943.2180, 61.48486
944.3400, 71.48145
945.4610, 122.9180
946.5820, 151.1816
947.7030, 167.5103
948.8240, 265.4639
949.9450, 187.6802
951.0650, 220.0513
952.1860, 288.9277
953.3060, 380.3696
954.4260, 370.6436
955.5460, 406.9038
956.6650, 360.1831
957.7850, 405.6826
958.9040, 362.9146
960.0230, 353.0938
961.1420, 347.9961
962.2610, 506.4404
963.3800, 459.0151
964.4990, 543.6045
965.6170, 524.2144
966.7350, 522.8496
967.8530, 478.5278
968.9710, 624.2217
970.0890, 557.9355
971.2070, 658.6650
972.3240, 667.4116
973.4410, 699.1743
974.5580, 695.9541
975.6750, 811.7485
976.7920, 834.5605
977.9090, 880.3887
979.0250, 908.2334
980.1410, 994.0957
981.2580, 1050.980
982.3740, 1143.882
983.4890, 1211.662
984.6050, 1213.734
985.7200, 1367.686
986.8360, 1378.657
987.9510, 1473.646
989.0660, 1603.651
990.1810, 1770.674
991.2950, 1929.086
992.4100, 2237.773
993.5240, 2371.850
994.6390, 2785.942
995.7530, 3172.054
996.8660, 3673.184
997.9800, 4220.332
999.0940, 4981.501
1000.207, 5906.688
1001.320, 7187.894
1002.433, 8863.142
1003.546, 10912.41
1004.659, 13864.69
1005.772, 17570.00
1006.884, 22857.33
1007.996, 28697.67
1009.108, 35859.04
1010.220, 42822.42
1011.332, 48021.83
1012.444, 50391.26
1013.555, 48413.71
1014.666, 43023.18
1015.777, 35830.68
1016.888, 28413.20
1017.999, 21995.73
1019.110, 16491.29
1020.220, 12824.86
1021.331, 10307.47
1022.441, 8239.102
1023.551, 7044.747
1024.661, 6113.411
1025.770, 5408.092
1026.880, 5108.793
1027.989, 4655.560
1029.098, 4634.457
1030.207, 4482.211
1031.316, 4435.539
1032.425, 4509.330
1033.533, 4934.141
1034.642, 5135.885
1035.750, 5569.349
1036.858, 5904.820
1037.966, 6369.717
1039.073, 6463.631
1040.181, 6637.103
1041.288, 6176.851
1042.396, 5889.839
1043.503, 5179.737
1044.610, 4525.739
1045.716, 3836.759
1046.823, 3228.799
1047.929, 2822.862
1049.036, 2470.501
1050.142, 2229.421
1051.248, 1993.312
1052.353, 1829.330
1053.459, 1727.318
1054.564, 1581.823
1055.670, 1501.025
1056.775, 1406.163
1057.880, 1377.683
1058.985, 1384.974
1060.089, 1216.403
1061.194, 1096.783
1062.298, 1165.179
1063.402, 1008.592
1064.506, 1033.021
1065.610, 1072.502
1066.713, 942.1099
1067.817, 976.6499
1068.920, 858.2036
1070.023, 826.7891
1071.126, 847.3896
1072.229, 777.9009
1073.332, 882.9639
1074.435, 771.6382
1075.537, 784.3433
1076.639, 756.0713
1077.741, 812.8184
1078.843, 777.3779
1079.945, 788.4463
1081.046, 736.3755
1082.148, 773.2271
1083.249, 764.8027
1084.350, 731.7983
1085.451, 729.4243
1086.551, 599.3379
1087.652, 591.2646
1088.752, 719.2104
1089.853, 615.1685
1090.953, 647.1377
1092.053, 694.1206
1093.152, 631.1255
1094.252, 530.1460
1095.351, 628.1777
1096.451, 686.2207
1097.550, 707.8843
1098.649, 529.0908
1099.748, 687.4263
1100.846, 522.5127
1101.945, 633.4121
1103.043, 438.5283
1104.141, 512.6445
1105.239, 591.8164
1106.337, 504.9521
1107.434, 590.0967
1108.532, 527.2510
1109.629, 637.4150
1110.726, 621.5874
1111.823, 621.9688
1112.920, 541.3032
1114.017, 657.5024
1115.113, 799.7104
1116.210, 883.9268
1117.306, 1695.151
1118.402, 2947.986
1119.498, 3441.229
1120.593, 3107.147
1121.689, 2912.734
1122.784, 1912.000
1123.879, 1826.271
1124.974, 1582.552
1126.069, 1206.838
1127.164, 925.1328
1128.259, 747.4346
1129.353, 681.7432
1130.447, 498.0581
1131.541, 360.3804
1132.635, 473.7095
1133.729, 505.6753
1134.822, 409.0171
1135.916, 327.3643
1137.009, 393.8042
1138.102, 355.2041
1139.195, 292.5679
1140.288, 398.9380
1141.380, 274.3130
1142.473, 260.6934
1143.565, 186.0791
1144.657, 277.4697
1145.749, 223.8643
1146.841, 236.4321
1147.932, 115.8364
1149.024, 189.3760
1150.115, 88.89697
1151.206, 133.3135
1152.297, 128.7339
1153.388, 126.1577
1154.479, 96.58496
1155.569, 144.0151
1156.659, 12.44873
1157.750, 123.8857
1158.839, 1.675293
1159.929, 51.15869
1161.019, 12.33496
1162.108, 88.23828
1163.198, 66.14941
1164.287, 18.77148
1165.376, 59.82617
1166.465, 37.41699
1167.553, 133.0630
1168.642, 51.22803
1169.730, 22.54004
1170.818, 14.08691
1171.906, 37.77881
1172.994, 72.48682
1174.082, 38.22754
1175.170, 12.01709
1176.257, 80.27002
1177.344, 16.52783
1178.431, 98.78711
1179.518, 10.95166
1180.605, 64.69727
1181.691, 31.47656
1182.778, 80.27344
1183.864, 14.11328
1184.950, 3.962402
1186.036, 11.18457
1187.122, 30.66943
1188.207, 19.51807
1189.292, 18.62061
1190.378, 2.756836
1191.463, 30.89062
1192.548, 10.02637
1193.632, 37.16113
1194.717, 10.29492
1195.801, 58.42578
1196.886, 28.44629
1197.970, 26.66016
1199.054, 70.76367
1200.137, 129.8643
1201.221, 40.96289
1202.305, 21.94238
1203.388, 2.130859
1204.471, 161.1943
1205.554, 103.2588
1206.637, 97.31738
1207.719, 61.37305
1208.802, 24.57520
1209.884, 4.451172
1210.966, 5.466797
1212.048, 65.47363
1213.130, 100.5244
1214.212, 12.76270
1215.293, 2.871094
1216.374, 33.22656
1217.456, 88.12402
1218.536, 95.01465
1219.617, 70.90137
1220.698, 81.78125
1221.778, 99.65625
1222.859, 58.52539
1223.939, 118.3906
1225.019, 66.24805
1226.099, 115.1104
1227.178, 10.96680
1228.258, 14.18750
1229.337, 79.36914
1230.417, 115.3896
1231.496, 9.143555
1232.574, 36.88086
1233.653, 93.61230
1234.732, 33.33789
1235.810, 119.0547
1236.888, 128.7656
1237.966, 171.4697
1239.044, 128.1670
1240.122, 95.86426
1241.199, 30.55664
1242.277, 7.239258
1243.354, 89.90234
1244.431, 93.55859
1245.508, 263.2080
1246.585, 74.85059
1247.661, 21.48535
1248.738, 179.1064
1249.814, 86.72070
1250.890, 218.3271
1251.966, 122.9248
1253.042, 118.5156
1254.117, 255.0977
1255.193, 84.67188
1256.268, 78.23730
1257.343, 133.7939
1258.418, 104.3438
1259.493, 111.8838
1260.567, 142.4160
1261.642, 214.0605
1262.716, 26.42480
1263.790, 97.04883
1264.864, 297.5137
1265.938, 52.97168
1267.011, 60.41895
1268.085, 121.8564
1269.158, 117.2852
1270.231, 147.7031
1271.304, 175.1143
1272.377, 133.5156
1273.450, 196.0195
1274.522, 110.4023
1275.594, 52.77637
1276.666, 196.1377
1277.738, 56.49023
1278.810, 58.83105
1279.882, 133.2090
1280.953, 98.52930
1282.025, 141.8398
1283.096, 84.14062
1284.167, 123.4316
1285.238, 281.7119
1286.308, 212.9814
1287.379, 171.2422
1288.449, 67.55859
1289.519, 66.66113
1290.589, 123.8887
1291.659, 118.5518
1292.729, 50.76270
1293.798, 78.96094
1294.868, 69.23633
1295.937, 133.7969
1297.006, 143.6533
1298.075, 162.3125
1299.143, 62.50781
1300.212, 185.1074
1301.280, 93.59082
1302.348, 84.08496
1303.416, 105.9355
1304.484, 137.7734
1305.552, 201.7871
1306.620, 199.1709
1307.687, 168.4707
1308.754, 198.9766
1309.821, 175.3154
1310.888, 139.5820
1311.955, 196.7402
1313.021, 84.94629
1314.088, 272.6592
1315.154, 207.8467
1316.220, 348.6836
1317.286, 148.4199
1318.352, 333.4111
1319.417, 170.2871
1320.483, 174.3457
1321.548, 270.4277
1322.613, 251.5332
1323.678, 210.4658
1324.743, 206.4336
1325.807, 180.2393
1326.872, 183.6006
1327.936, 234.0527
1329.000, 225.9473
1330.064, 253.8359
1331.128, 247.5713
1332.191, 251.6963
1333.255, 235.6182
1334.318, 252.4775
1335.381, 266.3281
1336.444, 261.1738
1337.507, 239.7568
1338.569, 235.1152
1339.632, 246.8496
1340.694, 192.3066
1341.756, 263.9639
1342.818, 287.0938
1343.880, 278.1670
1344.941, 189.9590
1346.003, 304.7451
1347.064, 196.5244
1348.125, 197.2988
1349.186, 101.0664
1350.247, 138.8271
1351.308, 189.5840
1352.368, 228.3330
1353.428, 257.5205
1354.489, 234.2578
1355.549, 198.6328
1356.608, 199.0889
1357.668, 263.7021
1358.727, 152.4170
1359.787, 208.3213
1360.846, 173.0137
1361.905, 91.71191
1362.964, 246.3584
1364.022, 125.0498
1365.081, 262.7324
1366.139, 94.43262
1367.197, 132.8018
1368.255, 128.6260
1369.313, 201.0889
1370.371, 169.6016
1371.428, 144.2539
1372.486, 126.9014
1373.543, 107.2305
1374.600, 151.2480
1375.657, 120.2451
1376.713, 86.86914
1377.770, 182.4355
1378.826, 75.98828
1379.882, 186.5342
1380.938, 92.07520
1381.994, 182.6094
1383.050, 228.1387
1384.106, 152.6162
1385.161, 184.0889
1386.216, 102.5439
1387.271, 163.0801
1388.326, 39.52344
1389.381, 158.9609
1390.435, 171.7627
1391.490, 141.1885
1392.544, 87.70801
1393.598, 156.1660
1394.652, 172.5322
1395.705, 205.9326
1396.759, 123.3271
1397.812, 244.7168
1398.866, 111.2373
1399.919, 37.63574
1400.972, 190.0078
1402.024, 217.3457
1403.077, 113.5078
1404.129, 208.8311
1405.181, 241.0166
1406.233, 52.21680
1407.285, 125.5186
1408.337, 177.8125
1409.389, 187.0752
1410.440, 105.3291
1411.491, 131.5840
1412.542, 80.86035
1413.593, 78.08887
1414.644, 36.30957
1415.695, 57.44629
1416.745, 92.59277
1417.795, 121.7998
1418.845, 131.2910
1419.895, 141.8418
1420.945, 107.9492
1421.995, 113.1182
1423.044, 18.33008
1424.093, 60.43262
1425.142, 115.7734
1426.191, 105.9141
1427.240, 31.11035
1428.289, 11.30762
1429.337, 1.385742
1430.385, 16.02441
1431.433, 3.082031
1432.481, 18.10449
1433.529, 22.08398
1434.577, 91.23242
1435.624, 37.37793
1436.672, 108.5801
1437.719, 121.4150
1438.766, 77.59082
1439.812, 59.76660
1440.859, 28.93848
1441.905, 79.94922
1442.952, 63.13770
1443.998, 61.15039
1445.044, 126.1709
1446.090, 5.885742
1447.135, 34.01465
1448.181, 29.87012
1449.226, 82.69336
1450.271, 52.18750
1451.316, 109.6924
1452.361, 173.1885
1453.405, 125.6826
1454.450, 89.18066
1455.494, 105.6670
1456.538, 92.15625
1457.582, 138.6562
1458.626, 8.184570
1459.670, 211.7598
1460.713, 98.33301
1461.757, 180.9004
1462.800, 160.4609
1463.843, 102.0146
1464.886, 76.53906
1465.928, 124.0723
1466.971, 98.61426
1468.013, 140.2793
1469.055, 123.8818
1470.097, 108.4814
1471.139, 119.0674
1472.181, 172.6396
1473.222, 163.0020
1474.263, 145.8018
1475.305, 167.3809
1476.346, 120.9590
1477.386, 74.53711
1478.427, 25.88770
1479.468, 118.6865
1480.508, 25.25977
1481.548, 62.66992
1482.588, 164.2637
1483.628, 126.8809
1484.668, 148.4980
1485.707, 194.1191
1486.747, 171.7422
1487.786, 175.0352
1488.825, 69.83594
1489.864, 115.4727
1490.902, 66.04590
1491.941, 12.30371
1492.979, 39.35547
1494.017, 163.0225
1495.055, 126.4785
1496.093, 80.16406
1497.131, 98.85156
1498.168, 75.54980
1499.206, 44.17480
1500.243, 70.78320
1501.280, 60.45410
1502.317, 99.89258
1503.354, 206.3096
1504.390, 107.3984
1505.426, 250.7275
1506.463, 77.24512
1507.499, 74.41211
1508.535, 64.93848
1509.570, 95.28516
1510.606, 180.2393
1511.641, 34.25977
1512.676, 138.5088
1513.711, 61.83105
1514.746, 206.1475
1515.781, 109.4521
1516.816, 30.74023
1517.850, 26.99902
1518.884, 175.2412
1519.918, 94.46777
1520.952, 116.6768
1521.986, 134.8633
1523.019, 27.03027
1524.053, 51.17285
1525.086, 148.2930
1526.119, 247.9678
1527.152, 82.21191
1528.185, 98.01758
1529.217, 97.85059
1530.250, 97.63965
1531.282, 116.2510
1532.314, 171.9941
1533.346, 101.8760
1534.377, 130.3008
1535.409, 41.65234
1536.440, 33.70215
1537.472, 255.0176
1538.503, 686.5469
1539.534, 667.0596
1540.564, 375.5088
1541.595, 232.2520
1542.625, 7.309570
1543.656, 55.42676
1544.686, 85.11426
1545.716, 168.7295
1546.745, 74.30273
1547.775, 99.81348
1548.804, 92.46582
1549.834, 59.94922
1550.863, 126.5654
1551.892, 65.14746
1552.920, 78.70215
1553.949, 186.5625
1554.977, 297.1396
1556.006, 107.0879
1557.034, 5.923828
1558.062, 106.9521
1559.089, 67.55078
1560.117, 27.19922
1561.144, 4.122070
1562.172, 43.59473
1563.199, 122.2998
1564.226, 124.9541
1565.252, 92.75488
1566.279, 143.1299
1567.305, 157.3076
1568.332, 5.688477
1569.358, 62.18164
1570.384, 41.59180
1571.409, 20.38086
1572.435, 0.0000000E+00
##END=



