##NAMES=Diopside
##RRUFFID=R070123
##IDEAL CHEMISTRY=CaMgSi_2_O_6_
##LOCALITY=Yates mine, Otter Lake, Huddersfield Township, Pontiac County, Québec, Canada
##OWNER=RRUFF
##SOURCE=Michael Scott
##DESCRIPTION=Black prismatic crystals associated with orange calcite
##STATUS=The identification of this mineral has been confirmed by X-ray diffraction and chemical analysis
##URL=rruff.info/R070123
##MEASURED CHEMISTRY=(Ca_0.95_Na_0.04_Mn_0.01_)_Σ=1_(Mg_0.63_Fe_0.33_Al_0.04_)_Σ=1_Si_2.00_O_6_
##PIN_ID=M01382
##ORIENTATION=Laser parallel to (1 0 -1). Fiducial mark perpendicular to laser is parallel to b [0 1 0]
122.9950, 0.0000000E+00
124.2320, 30.47461
125.4690, 6.1035000E-02
126.7050, 42.51953
127.9410, 77.04517
129.1780, 183.1865
130.4140, 309.2090
131.6490, 359.6140
132.8850, 404.3015
134.1200, 500.6011
135.3560, 469.7148
136.5910, 527.8918
137.8260, 554.9705
139.0610, 448.7312
140.2950, 443.5964
141.5290, 312.4026
142.7640, 235.8223
143.9980, 94.86670
145.2320, 29.12842
146.4650, 43.59814
147.6990, 63.26538
148.9320, 44.12183
150.1650, 9.159424
151.3980, 32.37158
152.6310, 7.247070
153.8640, 17.29785
155.0960, 24.99683
156.3280, 11.13623
157.5600, 2.123535
158.7920, 47.96167
160.0240, 3.365723
161.2560, 1.156982
162.4870, 58.45020
163.7180, 40.18042
164.9490, 108.0269
166.1800, 124.9834
167.4110, 211.0454
168.6410, 262.1785
169.8720, 366.4639
171.1020, 372.8113
172.3320, 468.2480
173.5620, 488.7734
174.7910, 623.3862
176.0210, 723.0859
177.2500, 859.8723
178.4790, 808.7449
179.7080, 766.7034
180.9370, 711.7466
182.1650, 525.8750
183.3940, 537.0879
184.6220, 381.3843
185.8500, 307.7642
187.0780, 314.2268
188.3050, 269.7715
189.5330, 268.3984
190.7600, 285.4431
191.9870, 251.8950
193.2140, 323.7637
194.4410, 320.7122
195.6680, 318.2129
196.8940, 378.3022
198.1200, 288.7163
199.3470, 269.8838
200.5720, 323.0908
201.7980, 426.3350
203.0240, 402.6138
204.2490, 310.9260
205.4740, 253.2683
206.6990, 135.6382
207.9240, 176.0369
209.1490, 219.4683
210.3740, 319.9360
211.5980, 254.4392
212.8220, 229.9609
214.0460, 257.4956
215.2700, 344.0281
216.4930, 383.6003
217.7170, 407.2151
218.9400, 422.8745
220.1630, 522.5806
221.3860, 568.3359
222.6090, 595.1409
223.8320, 651.9985
225.0540, 643.9087
226.2760, 822.8730
227.4980, 953.8906
228.7200, 1018.962
229.9420, 1077.088
231.1630, 1075.269
232.3850, 1140.502
233.6060, 1106.789
234.8270, 998.1289
236.0480, 911.5215
237.2690, 682.9673
238.4890, 610.4644
239.7090, 365.0139
240.9290, 462.6147
242.1490, 340.2673
243.3690, 305.9707
244.5890, 374.7251
245.8080, 295.5298
247.0270, 358.3848
248.2470, 287.2900
249.4650, 350.2446
250.6840, 344.2490
251.9030, 350.3018
253.1210, 256.4036
254.3390, 307.5542
255.5570, 238.7524
256.7750, 214.9985
257.9930, 225.2920
259.2100, 178.5254
260.4280, 158.8596
261.6450, 143.4531
262.8620, 81.93237
264.0790, 80.45752
265.2950, 22.22705
266.5120, 83.64331
267.7280, 23.69678
268.9440, 17.00586
270.1600, 12.92676
271.3760, 16.21460
272.5920, 1.578369
273.8070, 19.44629
275.0220, 20.32202
276.2370, 46.45044
277.4520, 53.03027
278.6670, 103.8770
279.8820, 131.7119
281.0960, 194.5239
282.3100, 159.3491
283.5240, 211.1692
284.7380, 317.9678
285.9520, 364.7256
287.1650, 334.4775
288.3780, 405.1760
289.5920, 510.9219
290.8050, 568.7183
292.0170, 732.4705
293.2300, 796.3455
294.4430, 969.6067
295.6550, 1019.869
296.8670, 1207.353
298.0790, 1396.217
299.2910, 1562.416
300.5020, 1761.702
301.7140, 2083.082
302.9250, 2397.687
304.1360, 2690.713
305.3470, 3153.191
306.5580, 3658.593
307.7680, 4282.958
308.9780, 4979.456
310.1890, 5830.007
311.3990, 6751.629
312.6090, 7718.305
313.8180, 8707.047
315.0280, 10067.86
316.2370, 11222.74
317.4460, 12559.69
318.6550, 13517.71
319.8640, 14254.81
321.0730, 14358.97
322.2810, 14181.17
323.4890, 13512.43
324.6980, 12615.75
325.9060, 11376.13
327.1130, 10103.55
328.3210, 8889.004
329.5280, 7936.499
330.7360, 6904.029
331.9430, 6032.611
333.1500, 5381.224
334.3560, 4649.871
335.5630, 4199.552
336.7690, 3873.265
337.9760, 3449.010
339.1820, 3225.786
340.3870, 3032.593
341.5930, 2765.426
342.7990, 2644.291
344.0040, 2413.183
345.2090, 2417.104
346.4140, 2294.055
347.6190, 2332.036
348.8240, 2271.046
350.0280, 2270.084
351.2330, 2183.152
352.4370, 2192.249
353.6410, 2184.865
354.8440, 2287.528
356.0480, 2249.710
357.2520, 2293.922
358.4550, 2427.161
359.6580, 2381.428
360.8610, 2472.724
362.0640, 2435.047
363.2660, 2571.399
364.4690, 2745.778
365.6710, 2891.185
366.8730, 3176.618
368.0750, 3372.079
369.2770, 3766.567
370.4780, 4104.083
371.6800, 4816.623
372.8810, 5362.191
374.0820, 6217.784
375.2830, 7252.401
376.4830, 8255.046
377.6840, 9707.717
378.8840, 11400.41
380.0840, 12976.13
381.2840, 14851.87
382.4840, 16639.64
383.6840, 18529.43
384.8830, 19986.25
386.0830, 20888.09
387.2820, 21083.95
388.4810, 20598.84
389.6800, 18806.75
390.8780, 16618.68
392.0770, 14248.63
393.2750, 11577.61
394.4730, 9568.611
395.6710, 7560.631
396.8690, 6000.675
398.0660, 4933.741
399.2640, 3983.828
400.4610, 3309.936
401.6580, 2717.065
402.8550, 2230.215
404.0520, 1784.386
405.2490, 1608.578
406.4450, 1322.789
407.6410, 1186.021
408.8370, 1030.272
410.0330, 983.5435
411.2290, 918.8340
412.4240, 749.9082
413.6200, 738.2371
414.8150, 585.5889
416.0100, 635.8242
417.2050, 514.2173
418.4000, 418.6392
419.5940, 432.0840
420.7880, 388.5522
421.9830, 300.0437
423.1770, 275.5581
424.3700, 242.0957
425.5640, 203.6570
426.7580, 160.2412
427.9510, 172.8489
429.1440, 96.47974
430.3370, 62.13403
431.5300, 106.8118
432.7220, 60.51343
433.9150, 22.23804
435.1070, 29.01392
436.2990, 4.755127
437.4910, 26.45337
438.6830, 23.64258
439.8750, 15.18701
441.0660, 48.95898
442.2570, 21.09082
443.4480, 12.19897
444.6390, 12.28760
445.8300, 22.73926
447.0210, 41.50146
448.2110, 5.863037
449.4010, 92.81982
450.5910, 71.21753
451.7810, 91.30493
452.9710, 67.49780
454.1610, 174.1902
455.3500, 160.4724
456.5390, 202.8728
457.7280, 159.0161
458.9170, 177.1179
460.1060, 196.2949
461.2940, 250.3477
462.4830, 275.8735
463.6710, 156.8877
464.8590, 173.5874
466.0470, 207.2329
467.2350, 244.4036
468.4220, 252.9548
469.6090, 242.6646
470.7970, 187.3674
471.9840, 242.5593
473.1700, 202.8879
474.3570, 222.5408
475.5440, 179.8882
476.7300, 186.2485
477.9160, 166.4163
479.1020, 204.8020
480.2880, 216.2605
481.4740, 207.6624
482.6590, 178.0757
483.8440, 245.4971
485.0300, 302.9250
486.2140, 226.3606
487.3990, 243.8030
488.5840, 298.2520
489.7680, 259.7078
490.9530, 248.1697
492.1370, 269.6377
493.3210, 248.1118
494.5040, 250.5916
495.6880, 244.0764
496.8720, 305.5667
498.0550, 261.0623
499.2380, 321.5625
500.4210, 315.0674
501.6040, 389.5764
502.7860, 395.0901
503.9690, 484.6079
505.1510, 468.1292
506.3330, 537.6543
507.5150, 577.1826
508.6970, 605.7156
509.8780, 682.2520
511.0600, 803.7910
512.2410, 871.3665
513.4220, 890.8765
514.6030, 1063.423
515.7840, 1122.971
516.9640, 1202.521
518.1440, 1381.072
519.3250, 1516.629
520.5050, 1698.187
521.6850, 1831.747
522.8640, 2021.308
524.0440, 2250.874
525.2230, 2356.448
526.4020, 2420.034
527.5820, 2461.618
528.7600, 2464.210
529.9390, 2332.810
531.1180, 2076.408
532.2960, 1922.018
533.4740, 1599.644
534.6520, 1463.283
535.8300, 1326.936
537.0080, 1132.601
538.1850, 1039.271
539.3630, 995.9456
540.5400, 920.6230
541.7170, 877.2019
542.8940, 836.9839
544.0700, 815.6636
545.2470, 799.3433
546.4230, 804.0205
547.5990, 774.6941
548.7750, 803.3647
549.9510, 880.0317
551.1270, 859.7104
552.3020, 823.4062
553.4780, 893.1003
554.6530, 999.7913
555.8280, 1010.478
557.0030, 969.1619
558.1770, 1005.853
559.3520, 967.5544
560.5260, 869.2517
561.7000, 851.9441
562.8740, 777.6382
564.0480, 715.3269
565.2220, 683.0100
566.3950, 701.6863
567.5680, 666.3694
568.7420, 642.0459
569.9150, 600.7151
571.0870, 619.3774
572.2600, 529.0322
573.4320, 539.6792
574.6050, 414.3184
575.7770, 426.9495
576.9490, 350.2126
578.1210, 344.8269
579.2920, 269.1128
580.4640, 250.4355
581.6350, 197.0232
582.8060, 157.8176
583.9770, 144.1509
585.1480, 137.5923
586.3190, 3.022217
587.4890, 32.27832
588.6590, 3.787842
589.8290, 24.21460
590.9990, 33.67920
592.1690, 15.87183
593.3390, 16.46167
594.5080, 87.09131
595.6770, 15.79858
596.8470, 64.46606
598.0160, 91.28027
599.1840, 57.76636
600.3530, 89.75757
601.5210, 118.7979
602.6900, 93.64160
603.8580, 20.75732
605.0260, 15.02759
606.1930, 45.34131
607.3610, 36.94043
608.5280, 42.37207
609.6960, 22.62720
610.8630, 23.75537
612.0300, 37.20972
613.1970, 80.64111
614.3630, 24.94141
615.5300, 85.42358
616.6960, 91.58350
617.8620, 42.92017
619.0280, 155.9941
620.1940, 79.29346
621.3590, 120.5774
622.5250, 157.6045
623.6900, 156.8586
624.8550, 240.0977
626.0200, 210.3218
627.1850, 199.5305
628.3490, 346.7239
629.5140, 284.9023
630.6780, 382.0649
631.8420, 390.2117
633.0060, 522.3435
634.1700, 558.4595
635.3330, 544.5591
636.4970, 566.6436
637.6600, 623.7117
638.8230, 666.0449
639.9860, 760.8003
641.1490, 840.8201
642.3110, 915.8240
643.4740, 1078.812
644.6360, 1150.783
645.7980, 1366.738
646.9600, 1461.676
648.1220, 1812.832
649.2840, 2036.738
650.4450, 2478.626
651.6060, 2812.498
652.7670, 3440.354
653.9280, 3961.192
655.0890, 4938.013
656.2500, 5943.817
657.4100, 7221.606
658.5700, 8617.008
659.7300, 10207.76
660.8900, 11587.71
662.0500, 13221.43
663.2100, 14377.04
664.3690, 15374.23
665.5280, 15486.08
666.6880, 15217.72
667.8460, 13794.86
669.0050, 12302.08
670.1640, 10735.68
671.3220, 8901.827
672.4810, 7444.130
673.6390, 6093.019
674.7970, 4991.873
675.9540, 4213.232
677.1120, 3536.132
678.2690, 3142.062
679.4270, 2664.312
680.5840, 2326.592
681.7410, 2030.564
682.8980, 1783.162
684.0540, 1592.086
685.2110, 1454.435
686.3670, 1302.764
687.5230, 1130.082
688.6790, 1081.372
689.8350, 997.0454
690.9900, 880.0688
692.1460, 850.7212
693.3010, 745.9312
694.4560, 691.1204
695.6110, 715.7773
696.7660, 611.3286
697.9210, 606.7915
699.0750, 636.1245
700.2290, 564.2122
701.3840, 528.0200
702.5370, 447.0671
703.6910, 484.1738
704.8450, 438.1794
705.9980, 429.0669
707.1520, 411.0312
708.3050, 383.9836
709.4580, 342.9070
710.6110, 325.8093
711.7630, 322.6912
712.9160, 342.5527
714.0680, 365.3938
715.2200, 275.2144
716.3720, 303.0166
717.5240, 266.7983
718.6760, 202.5615
719.8270, 240.3059
720.9780, 209.0303
722.1300, 210.7383
723.2810, 204.4272
724.4310, 213.0972
725.5820, 230.1387
726.7330, 209.4912
727.8830, 217.4512
729.0330, 171.3765
730.1830, 161.5864
731.3330, 176.1077
732.4830, 165.5232
733.6320, 145.4385
734.7810, 120.7634
735.9310, 136.9697
737.0800, 85.43115
738.2290, 57.93188
739.3770, 103.3513
740.5260, 70.89404
741.6740, 34.96045
742.8220, 97.53174
743.9700, 79.41577
745.1180, 35.35205
746.2660, 84.75757
747.4130, 36.78027
748.5610, 30.63989
749.7080, 94.50073
750.8550, 72.86963
752.0020, 74.09985
753.1490, 62.00244
754.2950, 20.20850
755.4420, 83.39404
756.5880, 0.7690430
757.7340, 60.91479
758.8800, 145.9839
760.0250, 18.10718
761.1710, 87.21118
762.3160, 108.3042
763.4620, 62.38623
764.6070, 73.45752
765.7520, 118.5183
766.8960, 68.56812
768.0410, 136.6079
769.1850, 118.6372
770.3300, 84.65625
771.4740, 108.6655
772.6180, 103.8740
773.7610, 99.18701
774.9050, 126.6348
776.0480, 96.60571
777.1920, 88.56738
778.3350, 79.52002
779.4780, 72.46411
780.6200, 86.39917
781.7630, 100.3257
782.9060, 80.24414
784.0480, 54.15381
785.1900, 15.05566
786.3320, 82.94653
787.4740, 63.82935
788.6150, 85.70508
789.7570, 109.5732
790.8980, 39.43433
792.0390, 60.28784
793.1800, 41.13477
794.3210, 56.97485
795.4620, 0.8083500
796.6020, 79.62793
797.7420, 7.441162
798.8830, 83.24512
800.0230, 5.957275
801.1620, 16.17529
802.3020, 27.41357
803.4420, 47.32227
804.5810, 17.94727
805.7200, 20.23657
806.8590, 16.45312
807.9980, 36.86206
809.1370, 56.20532
810.2750, 50.58691
811.4140, 51.00317
812.5520, 44.16040
813.6900, 21.93408
814.8280, 23.43213
815.9650, 12.94824
817.1030, 14.47681
818.2400, 10.01782
819.3780, 3.568359
820.5150, 11.12549
821.6520, 45.30835
822.7880, 50.73950
823.9250, 2.168701
825.0610, 5.594971
826.1980, 61.98096
827.3340, 84.58936
828.4700, 12.24146
829.6050, 25.09961
830.7410, 22.43970
831.8760, 15.22119
833.0120, 50.88843
834.1470, 66.57910
835.2820, 9.300293
836.4160, 6.975098
837.5510, 42.74951
838.6860, 44.50952
839.8200, 4.231201
840.9540, 10.02710
842.0880, 65.71387
843.2220, 4.519531
844.3550, 1.753662
845.4890, 35.98877
846.6220, 42.22534
847.7550, 76.85767
848.8880, 82.70386
850.0210, 141.9460
851.1540, 194.1907
852.2860, 210.4375
853.4190, 294.6873
854.5510, 356.9397
855.6830, 350.1951
856.8150, 367.4541
857.9460, 359.7158
859.0780, 324.9814
860.2090, 332.2507
861.3410, 335.5239
862.4720, 319.4844
863.6020, 330.1008
864.7330, 306.4050
865.8640, 351.7173
866.9940, 349.2122
868.1240, 272.3757
869.2540, 333.7336
870.3840, 330.1301
871.5140, 326.4663
872.6440, 339.6987
873.7730, 354.9968
874.9020, 328.5503
876.0320, 376.1123
877.1600, 381.4294
878.2890, 472.9771
879.4180, 449.6558
880.5460, 434.3560
881.6750, 450.3125
882.8030, 432.0742
883.9310, 459.3757
885.0590, 455.5361
886.1860, 507.3577
887.3140, 569.1914
888.4410, 475.0334
889.5680, 467.9031
890.6950, 511.9722
891.8220, 519.8604
892.9490, 516.0015
894.0750, 547.9231
895.2020, 528.8550
896.3280, 481.0374
897.4540, 467.9875
898.5800, 456.0305
899.7050, 535.9309
900.8310, 458.9172
901.9560, 491.9175
903.0820, 520.9336
904.2070, 506.9631
905.3320, 477.0105
906.4560, 436.0686
907.5810, 429.1519
908.7050, 434.2458
909.8300, 410.3591
910.9540, 356.5020
912.0780, 402.6604
913.2010, 409.8376
914.3250, 380.0334
915.4480, 410.2407
916.5720, 436.4644
917.6950, 344.7102
918.8180, 354.9795
919.9410, 443.2727
921.0630, 365.3518
922.1860, 351.6804
923.3080, 362.0278
924.4300, 335.3911
925.5520, 278.7698
926.6740, 341.1653
927.7960, 357.5742
928.9170, 306.9976
930.0390, 327.4341
931.1600, 311.2554
932.2810, 309.7222
933.4020, 262.9915
934.5230, 296.4949
935.6430, 279.8008
936.7640, 249.1338
937.8840, 284.5095
939.0040, 288.0854
940.1240, 297.1711
941.2440, 292.1675
942.3630, 184.7861
943.4830, 317.8491
944.6020, 217.7686
945.7210, 288.0989
946.8400, 263.4673
947.9590, 246.3401
949.0770, 363.6714
950.1960, 297.9758
951.3140, 352.9575
952.4320, 382.9067
953.5500, 454.1626
954.6680, 502.7878
955.7860, 487.0872
956.9030, 509.9788
958.0210, 561.8911
959.1380, 643.8113
960.2550, 631.7593
961.3720, 687.3208
962.4890, 740.5298
963.6050, 692.1084
964.7220, 773.1299
965.8380, 812.1709
966.9540, 892.7427
968.0700, 929.4209
969.1860, 969.1853
970.3010, 999.5933
971.4170, 1013.235
972.5320, 1043.660
973.6470, 1063.843
974.7620, 1111.965
975.8770, 1194.187
976.9910, 1261.524
978.1060, 1370.783
979.2200, 1450.256
980.3340, 1542.368
981.4480, 1645.694
982.5620, 1751.038
983.6760, 1878.317
984.7890, 1990.462
985.9030, 2115.189
987.0160, 2263.612
988.1290, 2440.053
989.2420, 2644.513
990.3550, 2879.992
991.4670, 3253.492
992.5800, 3620.010
993.6920, 4166.546
994.8040, 4587.103
995.9160, 5334.678
997.0280, 6010.271
998.1390, 7112.884
999.2510, 8073.516
1000.362, 9370.167
1001.473, 11195.83
1002.584, 13232.52
1003.695, 15983.23
1004.805, 19104.96
1005.916, 23332.71
1007.026, 27724.46
1008.136, 33317.24
1009.246, 38766.06
1010.356, 43934.89
1011.466, 47878.73
1012.576, 49825.59
1013.685, 48222.48
1014.794, 44028.38
1015.903, 38405.29
1017.012, 31994.24
1018.121, 25493.20
1019.229, 19984.18
1020.338, 16071.17
1021.446, 12809.19
1022.554, 10668.22
1023.662, 8856.265
1024.770, 7539.475
1025.878, 6591.562
1026.985, 5777.299
1028.092, 5143.427
1029.200, 4814.570
1030.307, 4406.736
1031.413, 4230.266
1032.520, 4077.462
1033.627, 3846.674
1034.733, 3691.632
1035.839, 3663.015
1036.945, 3637.878
1038.051, 3593.717
1039.157, 3473.008
1040.262, 3616.569
1041.368, 3500.889
1042.473, 3350.971
1043.578, 3311.610
1044.683, 3125.846
1045.788, 2945.817
1046.893, 2933.711
1047.997, 2616.116
1049.101, 2356.542
1050.205, 2263.270
1051.309, 2087.236
1052.413, 1974.438
1053.517, 1814.688
1054.621, 1710.676
1055.724, 1610.584
1056.827, 1514.781
1057.930, 1457.790
1059.033, 1364.230
1060.136, 1300.808
1061.238, 1206.601
1062.341, 1188.178
1063.443, 1195.453
1064.545, 1117.089
1065.647, 1023.701
1066.749, 1028.648
1067.850, 977.2842
1068.952, 828.9050
1070.053, 846.5759
1071.154, 757.2578
1072.255, 724.1152
1073.356, 711.6880
1074.457, 700.4275
1075.557, 653.1765
1076.658, 694.1697
1077.758, 595.0979
1078.858, 583.0410
1079.958, 703.2539
1081.057, 598.5149
1082.157, 629.5444
1083.256, 557.7900
1084.356, 590.8284
1085.455, 477.7573
1086.554, 536.6985
1087.653, 484.1162
1088.751, 500.6069
1089.850, 544.4565
1090.948, 509.4358
1092.046, 549.8110
1093.144, 476.8259
1094.242, 431.8435
1095.340, 420.1272
1096.437, 476.6980
1097.534, 482.2002
1098.632, 461.2710
1099.729, 448.0955
1100.826, 383.1936
1101.922, 429.8826
1103.019, 384.1360
1104.115, 464.2695
1105.212, 426.5371
1106.308, 448.6909
1107.404, 370.8511
1108.499, 428.1377
1109.595, 443.3223
1110.691, 394.6326
1111.786, 360.8279
1112.881, 396.0842
1113.976, 386.2891
1115.071, 397.7429
1116.166, 453.1475
1117.260, 465.4453
1118.355, 422.6680
1119.449, 359.8950
1120.543, 377.1260
1121.637, 441.3877
1122.731, 373.8022
1123.824, 449.0442
1124.918, 440.2893
1126.011, 453.5378
1127.104, 452.7896
1128.197, 438.0444
1129.290, 473.3018
1130.382, 402.5620
1131.475, 371.8247
1132.567, 447.0903
1133.659, 414.3579
1134.751, 395.7266
1135.843, 311.9983
1136.935, 325.2717
1138.027, 342.5471
1139.118, 268.0000
1140.209, 259.2786
1141.300, 290.5713
1142.391, 196.8525
1143.482, 223.1343
1144.573, 216.4170
1145.663, 201.7607
1146.754, 170.0444
1147.844, 134.3291
1148.934, 113.6479
1150.024, 94.93311
1151.113, 53.21802
1152.203, 37.50342
1153.292, 105.7883
1154.381, 48.77100
1155.470, 7.627686
1156.559, 59.65356
1157.648, 56.01733
1158.737, 20.30225
1159.825, 11.55640
1160.913, 37.80957
1162.001, 32.93896
1163.089, 7.298096
1164.177, 21.61621
1165.265, 20.09668
1166.352, 26.87280
1167.440, 16.56519
1168.527, 32.32251
1169.614, 3.862061
1170.701, 57.95581
1171.788, 57.19458
1172.874, 32.65771
1173.961, 72.52930
1175.047, 17.44092
1176.133, 28.36475
1177.219, 26.30640
1178.305, 10.73413
1179.390, 17.22876
1180.476, 37.20532
1181.561, 40.20605
1182.646, 43.21216
1183.731, 27.26782
1184.816, 7.343506
1185.901, 19.42969
1186.985, 8.293701
1188.070, 4.594482
1189.154, 10.77197
1190.238, 4.090088
1191.322, 0.9460450
1192.406, 7.793945
1193.489, 5.363281
1194.573, 6.467529
1195.656, 14.29224
1196.739, 29.88818
1197.822, 28.90527
1198.905, 23.30664
1199.988, 29.52808
1201.070, 22.71265
1202.153, 20.02319
1203.235, 18.75293
1204.317, 21.47705
1205.399, 30.37109
1206.481, 40.09277
1207.562, 12.58521
1208.644, 5.744873
1209.725, 41.09253
1210.806, 7.524170
1211.887, 4.866455
1212.968, 9.725098
1214.049, 17.30640
1215.129, 39.88184
1216.209, 33.45557
1217.290, 9.025391
1218.370, 56.41724
1219.450, 2.094482
1220.529, 76.59009
1221.609, 13.07788
1222.688, 34.55420
1223.768, 44.02222
1224.847, 19.48267
1225.926, 11.93237
1227.005, 14.36914
1228.083, 43.79321
1229.162, 8.208740
1230.240, 47.60913
1231.318, 20.99878
1232.396, 29.36206
1233.474, 65.71313
1234.552, 31.05518
1235.629, 64.38770
1236.707, 61.71118
1237.784, 33.02588
1238.861, 58.32983
1239.938, 11.37500
1241.015, 59.89258
1242.092, 42.15039
1243.168, 73.39868
1244.244, 29.64062
1245.321, 32.87061
1246.397, 42.08911
1247.473, 76.29785
1248.548, 80.49707
1249.624, 121.6865
1250.699, 53.86646
1251.775, 37.03638
1252.850, 73.19482
1253.925, 78.34375
1254.999, 102.4834
1256.074, 104.6130
1257.148, 105.7324
1258.223, 123.4670
1259.297, 117.5325
1260.371, 140.0337
1261.445, 101.1145
1262.519, 89.18481
1263.592, 49.24731
1264.666, 114.2986
1265.739, 79.33960
1266.812, 128.3704
1267.885, 44.39087
1268.958, 120.3994
1270.030, 68.39795
1271.103, 92.38599
1272.175, 100.3633
1273.247, 78.33081
1274.319, 59.28760
1275.391, 85.23340
1276.463, 82.24365
1277.535, 67.16870
1278.606, 120.0830
1279.677, 94.98657
1280.748, 153.8796
1281.819, 86.76196
1282.890, 26.63354
1283.961, 41.48828
1285.031, 97.18799
1286.102, 67.01880
1287.172, 61.21289
1288.242, 85.02124
1289.312, 110.8188
1290.381, 104.6060
1291.451, 126.0325
1292.520, 58.79858
1293.590, 64.55322
1294.659, 123.5667
1295.728, 56.15991
1296.797, 66.27905
1297.865, 110.4253
1298.934, 80.12622
1300.002, 103.5613
1301.070, 151.2417
1302.138, 109.1638
1303.206, 78.53442
1304.274, 128.3142
1305.341, 81.36157
1306.409, 93.49097
1307.476, 144.1121
1308.543, 87.71875
1309.610, 67.02734
1310.677, 55.10278
1311.744, 106.9458
1312.810, 71.74634
1313.877, 104.7537
1314.943, 75.96045
1316.009, 84.82495
1317.075, 131.8809
1318.140, 84.50854
1319.206, 91.00293
1320.272, 75.28613
1321.337, 134.7891
1322.402, 154.6580
1323.467, 137.1108
1324.532, 91.59204
1325.596, 101.7439
1326.661, 80.20947
1327.725, 33.69873
1328.790, 92.14844
1329.854, 131.6008
1330.918, 157.0354
1331.981, 115.5054
1333.045, 118.9524
1334.108, 128.4177
1335.172, 145.6150
1336.235, 150.7068
1337.298, 151.7349
1338.361, 151.2375
1339.423, 143.0913
1340.486, 107.3833
1341.548, 98.40503
1342.611, 64.40625
1343.673, 91.94971
1344.735, 163.0344
1345.796, 80.02393
1346.858, 122.9216
1347.919, 120.3694
1348.981, 109.6897
1350.042, 138.6438
1351.103, 71.93213
1352.164, 51.27319
1353.225, 113.3328
1354.285, 50.10840
1355.346, 102.9541
1356.406, 93.23242
1357.466, 110.8262
1358.526, 139.0933
1359.586, 125.8289
1360.645, 140.1265
1361.705, 77.23560
1362.764, 134.4363
1363.823, 86.67676
1364.882, 60.91187
1365.941, 117.0217
1367.000, 148.2468
1368.059, 76.34741
1369.117, 86.56323
1370.175, 103.7188
1371.233, 88.59668
1372.291, 98.55542
1373.349, 69.56274
1374.407, 105.6780
1375.464, 97.86768
1376.522, 84.05322
1377.579, 74.23511
1378.636, 79.90747
1379.693, 110.3835
1380.750, 85.55396
1381.806, 87.74878
1382.863, 69.94775
1383.919, 96.10669
1384.975, 108.3459
1386.031, 116.4985
1387.087, 106.6470
1388.143, 108.7917
1389.199, 101.5527
1390.254, 51.47095
1391.309, 89.49634
1392.364, 86.59546
1393.419, 90.72144
1394.474, 128.8025
1395.529, 84.70312
1396.583, 42.77563
1397.638, 140.8318
1398.692, 69.89746
1399.746, 76.07446
1400.800, 48.13135
1401.853, 105.1235
1402.907, 12.17261
1403.960, 89.29419
1405.014, 91.30249
1406.067, 87.33008
1407.120, 85.35400
1408.173, 72.37402
1409.225, 96.39038
1410.278, 84.85742
1411.330, 143.3945
1412.383, 71.44922
1413.435, 87.39868
1414.487, 56.34058
1415.538, 105.3325
1416.590, 67.32031
1417.641, 97.37158
1418.693, 35.35791
1419.744, 56.25854
1420.795, 114.1812
1421.846, 63.15796
1422.897, 69.03711
1423.947, 32.06812
1424.998, 29.05664
1426.048, 39.03320
1427.098, 85.01929
1428.148, 52.00195
1429.198, 72.98730
1430.247, 65.98926
1431.297, 51.17334
1432.346, 77.05615
1433.396, 30.06372
1434.445, 34.06958
1435.494, 30.42505
1436.542, 32.43652
1437.591, 69.53467
1438.639, 57.44922
1439.688, 77.15747
1440.736, 29.24048
1441.784, 55.33057
1442.832, 78.42285
1443.880, 34.51074
1444.927, 52.59692
1445.975, 31.68555
1447.022, 90.71191
1448.069, 8.822266
1449.116, 58.93433
1450.163, 62.03784
1451.209, 51.16602
1452.256, 74.97510
1453.302, 65.07788
1454.348, 72.63940
1455.394, 57.77808
1456.440, 25.93359
1457.486, 11.11597
1458.532, 16.29858
1459.577, 10.47778
1460.623, 19.66309
1461.668, 28.85156
1462.713, 9.714844
1463.758, 20.64233
1464.802, 14.51904
1465.847, 7.692139
1466.891, 22.91357
1467.936, 12.85400
1468.980, 19.62817
1470.024, 12.39917
1471.067, 0.2861330
1472.111, 3.057129
1473.155, 44.28711
1474.198, 32.51636
1475.241, 16.74487
1476.284, 94.97290
1477.327, 14.20142
1478.370, 73.42603
1479.413, 69.65234
1480.455, 61.88159
1481.497, 48.11450
1482.540, 8.349609
1483.582, 46.58740
1484.624, 13.71167
1485.665, 20.95483
1486.707, 21.20239
1487.748, 6.459961
1488.790, 43.73193
1489.831, 30.01074
1490.872, 40.29663
1491.912, 72.58838
1492.953, 107.8896
1493.994, 36.19995
1495.034, 65.51855
1496.074, 10.15454
1497.114, 58.18164
1498.154, 37.52563
1499.194, 51.87817
1500.234, 86.23755
1501.273, 68.60205
1502.313, 42.97998
1503.352, 52.07910
1504.391, 30.73535
1505.430, 39.17261
1506.468, 20.45679
1507.507, 18.87939
1508.545, 38.31079
1509.584, 8.750244
1510.622, 82.19849
1511.660, 61.47046
1512.698, 31.77124
1513.735, 63.10010
1514.773, 4.635986
1515.810, 87.62793
1516.848, 56.92017
1517.885, 12.94263
1518.922, 61.95874
1519.958, 40.14453
1520.995, 46.29272
1522.032, 34.54980
1523.068, 68.80444
1524.104, 0.8544920
1525.140, 26.92163
1526.176, 73.87354
1527.212, 29.09741
1528.248, 6.313477
1529.283, 51.52002
1530.318, 59.24707
1531.353, 60.34985
1532.389, 70.25879
1533.423, 77.48706
1534.458, 54.51416
1535.493, 32.38501
1536.527, 11.17554
1537.561, 45.68896
1538.596, 72.53613
1539.630, 74.29663
1540.663, 68.16602
1541.697, 6.000244
1542.731, 38.03467
1543.764, 24.04053
1544.797, 66.27930
1545.830, 100.2061
1546.863, 47.53516
1547.896, 3.498047
1548.929, 21.43286
1549.961, 53.34668
1550.994, 81.78809
1552.026, 53.78394
1553.058, 30.12500
1554.090, 47.83350
1555.121, 12.27710
1556.153, 50.96704
1557.185, 63.84277
1558.216, 48.92065
1559.247, 0.8903810
1560.278, 45.43677
1561.309, 14.38208
1562.340, 57.73169
1563.370, 0.0000000E+00
##END=



