##NAMES=Diopside
##RRUFFID=R050666
##IDEAL CHEMISTRY=CaMgSi_2_O_6_
##LOCALITY=Franklin, Sussex County, New Jersey, USA
##OWNER=RRUFF
##SOURCE=University of Arizona Mineral Museum
##DESCRIPTION=Brown cleavage fragment with white hardystonite
##STATUS=The identification of this mineral has been confirmed by X-ray diffraction and chemical analysis
##URL=rruff.info/R050666
##MEASURED CHEMISTRY=Ca(Mg_0.66_Mn_0.33_Fe_0.01_)Si_2_O_6_
##PIN_ID=L00874
##ORIENTATION=Laser parallel to -b* (0 -1 0). Fiducial mark perpendicular to laser is parallel to -c [0 0 -1]
109.5120, 0.0000000E+00
110.7440, 96.54736
111.9760, 4.262939
113.2080, 63.68774
114.4400, 170.0566
115.6710, 353.6172
116.9030, 302.3350
118.1340, 350.6431
119.3650, 419.4185
120.5960, 689.1553
121.8270, 1173.212
123.0580, 1726.238
124.2880, 2320.607
125.5190, 2779.055
126.7490, 3543.736
127.9790, 4354.145
129.2090, 5771.430
130.4390, 7361.492
131.6680, 8786.610
132.8980, 8894.917
134.1270, 8107.782
135.3560, 6771.105
136.5850, 5283.759
137.8140, 3925.591
139.0430, 2971.420
140.2710, 2111.758
141.5000, 1346.139
142.7280, 920.5664
143.9560, 687.0464
145.1840, 424.0581
146.4120, 403.2734
147.6390, 205.5298
148.8670, 192.6807
150.0940, 180.4712
151.3210, 265.3008
152.5490, 196.2524
153.7750, 154.9912
155.0020, 227.5859
156.2290, 126.2734
157.4550, 3.232422
158.6810, 23.53760
159.9080, 138.8223
161.1340, 18.48486
162.3590, 17.66309
163.5850, 34.59326
164.8110, 59.50195
166.0360, 141.2578
167.2610, 87.09912
168.4860, 144.0220
169.7110, 234.0225
170.9360, 324.0972
172.1610, 384.2676
173.3850, 423.7412
174.6100, 485.7095
175.8340, 414.0293
177.0580, 381.4023
178.2820, 256.8257
179.5050, 126.2969
180.7290, 49.81299
181.9520, 24.62793
183.1760, 28.01221
184.3990, 42.68164
185.6220, 90.33545
186.8450, 23.02344
188.0670, 42.75244
189.2900, 21.52441
190.5120, 56.34082
191.7340, 65.91309
192.9560, 68.20947
194.1780, 103.0391
195.4000, 88.09033
196.6220, 95.21436
197.8430, 115.4102
199.0640, 142.7520
200.2860, 216.1836
201.5070, 230.6514
202.7270, 283.1782
203.9480, 150.7729
205.1690, 12.41064
206.3890, 0.9360350
207.6090, 56.29248
208.8290, 54.77197
210.0490, 27.26318
211.2690, 45.24512
212.4890, 6.757813
213.7080, 8.281250
214.9280, 6.179199
216.1470, 38.39502
217.3660, 44.00195
218.5850, 119.6240
219.8030, 2.689453
221.0220, 130.0659
222.2400, 120.8550
223.4590, 189.6548
224.6770, 330.4751
225.8950, 343.3066
227.1120, 483.1655
228.3300, 633.0361
229.5480, 791.9136
230.7650, 957.7905
231.9820, 1075.648
233.1990, 993.4624
234.4160, 852.2671
235.6330, 712.0640
236.8490, 569.8550
238.0660, 339.6431
239.2820, 345.4292
240.4980, 342.2153
241.7140, 121.0015
242.9300, 130.7876
244.1460, 238.5723
245.3610, 217.3574
246.5770, 315.1396
247.7920, 270.9214
249.0070, 201.7017
250.2220, 174.4795
251.4370, 279.2554
252.6510, 248.0303
253.8660, 267.8013
255.0800, 284.5708
256.2940, 246.4346
257.5080, 492.1216
258.7220, 381.3701
259.9360, 345.6465
261.1490, 348.9385
262.3630, 161.9199
263.5760, 189.9473
264.7890, 165.0073
266.0020, 138.0928
267.2150, 156.1978
268.4270, 144.7446
269.6400, 123.8491
270.8520, 170.2007
272.0640, 148.4746
273.2760, 155.6357
274.4880, 249.9189
275.7000, 209.0698
276.9120, 281.6660
278.1230, 262.1343
279.3340, 221.5596
280.5450, 327.7393
281.7560, 238.0391
282.9670, 234.5918
284.1780, 269.3472
285.3880, 316.4014
286.5980, 382.9966
287.8090, 345.3481
289.0190, 493.9404
290.2290, 549.4185
291.4380, 571.5464
292.6480, 801.7261
293.8570, 822.0132
295.0670, 945.6484
296.2760, 1071.582
297.4850, 1202.947
298.6930, 1486.669
299.9020, 1768.090
301.1110, 2192.305
302.3190, 2511.273
303.5270, 3003.654
304.7350, 3374.967
305.9430, 3991.276
307.1510, 4455.652
308.3580, 5201.819
309.5660, 5784.087
310.7730, 6362.472
311.9800, 6911.218
313.1870, 7257.811
314.3940, 7230.601
315.6010, 7128.449
316.8070, 6632.756
318.0130, 6060.868
319.2200, 5299.867
320.4260, 4669.351
321.6310, 4057.275
322.8370, 3430.483
324.0430, 2902.805
325.2480, 2642.001
326.4540, 2224.184
327.6590, 2112.014
328.8640, 2059.571
330.0680, 1889.976
331.2730, 1745.335
332.4780, 1761.388
333.6820, 1790.448
334.8860, 1919.619
336.0900, 1991.885
337.2940, 2216.959
338.4980, 2430.997
339.7010, 2753.437
340.9050, 2891.684
342.1080, 3353.363
343.3110, 3681.681
344.5140, 3909.118
345.7170, 4364.349
346.9200, 4593.437
348.1220, 4597.578
349.3240, 4455.390
350.5270, 4273.809
351.7290, 3897.143
352.9310, 3627.562
354.1320, 3270.051
355.3340, 2801.663
356.5350, 2550.205
357.7370, 2425.583
358.9380, 2296.964
360.1390, 2163.186
361.3400, 2081.687
362.5400, 2123.207
363.7410, 2054.949
364.9410, 1969.222
366.1410, 2112.951
367.3410, 2237.671
368.5410, 2399.385
369.7410, 2802.090
370.9400, 3293.790
372.1400, 3737.481
373.3390, 4429.165
374.5380, 5159.840
375.7370, 5933.507
376.9360, 6904.167
378.1350, 7870.819
379.3330, 8606.462
380.5310, 9179.099
381.7300, 9119.048
382.9280, 9119.346
384.1260, 8140.960
385.3230, 7066.565
386.5210, 5694.161
387.7180, 4717.750
388.9160, 3794.330
390.1130, 2999.902
391.3100, 2342.467
392.5060, 1820.023
393.7030, 1465.572
394.9000, 1286.112
396.0960, 819.6431
397.2920, 769.1660
398.4880, 586.2188
399.6840, 608.1870
400.8800, 405.6636
402.0750, 353.1372
403.2710, 259.6157
404.4660, 337.0908
405.6610, 383.5591
406.8560, 263.0181
408.0510, 147.4673
409.2450, 185.9058
410.4400, 197.3345
411.6340, 34.75244
412.8280, 144.1567
414.0220, 76.54980
415.2160, 93.92969
416.4100, 120.2969
417.6030, 90.65234
418.7970, 121.9946
419.9900, 15.32520
421.1830, 45.64014
422.3760, 46.06055
423.5690, 42.80225
424.7610, 15.41553
425.9540, 36.38135
427.1460, 4.040527
428.3380, 27.89404
429.5300, 115.7803
430.7220, 8.255371
431.9140, 51.27441
433.1050, 33.17383
434.2970, 69.12256
435.4880, 52.12354
436.6790, 12.61328
437.8700, 51.16162
439.0610, 5.741699
440.2510, 30.52344
441.4420, 1.048340
442.6320, 4.293457
443.8220, 54.82715
445.0120, 78.43262
446.2020, 99.80713
447.3910, 149.2622
448.5810, 134.7827
449.7700, 247.6523
450.9600, 218.0039
452.1490, 245.6143
453.3370, 174.1851
454.5260, 281.4917
455.7150, 151.3203
456.9030, 297.5615
458.0910, 159.9478
459.2800, 52.33398
460.4670, 101.4209
461.6550, 129.3574
462.8430, 15.27490
464.0300, 32.09961
465.2180, 83.52783
466.4050, 57.08545
467.5920, 81.72119
468.7790, 13.26367
469.9650, 34.17090
471.1520, 79.49805
472.3380, 28.05957
473.5250, 18.34326
474.7110, 23.27393
475.8970, 46.07178
477.0820, 11.40771
478.2680, 14.72314
479.4540, 3.981445
480.6390, 83.29004
481.8240, 23.54443
483.0090, 55.77930
484.1940, 10.98779
485.3780, 63.21191
486.5630, 34.39111
487.7470, 82.54785
488.9320, 116.6860
490.1160, 102.8052
491.3000, 194.9038
492.4830, 382.9873
493.6670, 410.0581
494.8500, 505.1138
496.0340, 748.1626
497.2170, 840.2041
498.4000, 1171.235
499.5820, 1227.250
500.7650, 1340.250
501.9480, 1129.966
503.1300, 1236.209
504.3120, 1050.199
505.4940, 789.1914
506.6760, 755.0767
507.8580, 671.1699
509.0390, 492.1562
510.2210, 431.1553
511.4020, 343.1367
512.5830, 318.1123
513.7640, 258.0752
514.9450, 266.0205
516.1250, 260.5088
517.3060, 368.8550
518.4860, 299.7451
519.6660, 325.6172
520.8460, 366.4717
522.0260, 228.3320
523.2060, 353.1787
524.3850, 488.0078
525.5650, 396.8472
526.7440, 364.7031
527.9230, 414.5396
529.1020, 366.3735
530.2810, 367.1963
531.4590, 350.0088
532.6380, 337.8047
533.8160, 345.6738
534.9940, 336.3745
536.1720, 343.1411
537.3500, 349.8867
538.5270, 313.6113
539.7050, 301.3184
540.8820, 414.0044
542.0590, 389.6694
543.2360, 393.3135
544.4130, 567.9360
545.5900, 519.5396
546.7660, 723.1196
547.9430, 805.6973
549.1190, 962.2500
550.2950, 1140.781
551.4710, 1237.286
552.6470, 1348.767
553.8220, 1332.792
554.9980, 1377.222
556.1730, 1301.366
557.3480, 1180.556
558.5230, 1016.826
559.6980, 745.9434
560.8730, 592.1636
562.0470, 528.9082
563.2220, 445.7500
564.3960, 437.6030
565.5700, 366.6177
566.7440, 331.2451
567.9170, 172.5781
569.0910, 301.6821
570.2640, 295.4634
571.4380, 216.6880
572.6110, 100.1392
573.7840, 175.3301
574.9570, 119.0264
576.1290, 187.3696
577.3020, 122.5078
578.4740, 71.25684
579.6460, 66.06689
580.8180, 73.32715
581.9900, 35.78174
583.1620, 105.0195
584.3330, 17.26416
585.5040, 9.689453
586.6760, 49.27246
587.8470, 28.40283
589.0180, 8.508301
590.1880, 2.478027
591.3590, 37.04150
592.5290, 41.18506
593.7000, 13.20947
594.8700, 66.40039
596.0400, 180.4424
597.2090, 79.28271
598.3790, 42.11670
599.5490, 40.88770
600.7180, 108.8115
601.8870, 140.6997
603.0560, 142.6558
604.2250, 211.3672
605.3940, 199.4756
606.5620, 222.6143
607.7300, 199.4980
608.8990, 233.4453
610.0670, 208.5840
611.2350, 171.3882
612.4020, 300.7295
613.5700, 353.1353
614.7370, 356.6548
615.9050, 376.4429
617.0720, 353.9497
618.2390, 446.2461
619.4060, 489.1270
620.5720, 476.6670
621.7390, 468.8345
622.9050, 680.6128
624.0710, 680.2993
625.2370, 855.4600
626.4030, 733.1069
627.5690, 824.2656
628.7340, 937.0083
629.9000, 985.5771
631.0650, 1054.076
632.2300, 1106.309
633.3950, 1245.669
634.5600, 1341.389
635.7240, 1584.161
636.8890, 1674.033
638.0530, 1886.909
639.2170, 2225.714
640.3810, 2448.538
641.5450, 2851.387
642.7080, 3203.279
643.8720, 3613.178
645.0350, 4279.240
646.1980, 5189.814
647.3610, 6047.570
648.5240, 7536.176
649.6870, 9010.866
650.8490, 11138.46
652.0120, 13609.65
653.1740, 16087.21
654.3360, 19057.68
655.4980, 22012.14
656.6600, 24856.47
657.8210, 27166.08
658.9830, 28554.45
660.1440, 28491.01
661.3050, 27531.87
662.4660, 25347.31
663.6270, 22300.54
664.7870, 19207.76
665.9480, 16283.22
667.1080, 13456.25
668.2680, 11241.22
669.4280, 9112.032
670.5880, 7579.028
671.7480, 6137.629
672.9070, 5172.665
674.0670, 4522.468
675.2260, 3854.182
676.3850, 3246.742
677.5440, 2839.487
678.7030, 2588.787
679.8610, 2250.337
681.0200, 1978.911
682.1780, 1887.503
683.3360, 1574.116
684.4940, 1417.984
685.6520, 1405.048
686.8090, 1223.663
687.9670, 1112.538
689.1240, 1106.603
690.2810, 1089.425
691.4380, 983.0205
692.5950, 851.4995
693.7520, 808.9399
694.9080, 763.3408
696.0650, 679.9043
697.2210, 776.2271
698.3770, 608.5098
699.5330, 649.7529
700.6880, 477.9570
701.8440, 509.1230
702.9990, 532.2505
704.1550, 510.3530
705.3100, 483.4292
706.4650, 377.4683
707.6190, 311.3062
708.7740, 305.2822
709.9290, 298.2300
711.0830, 290.1704
712.2370, 300.6226
713.3910, 188.3765
714.5450, 110.8691
715.6980, 135.6006
716.8520, 196.0151
718.0050, 90.18018
719.1580, 142.3042
720.3110, 127.4189
721.4640, 288.3491
722.6170, 50.53271
723.7700, 250.2993
724.9220, 226.9399
726.0740, 108.7568
727.2260, 159.4399
728.3780, 156.0088
729.5300, 66.20996
730.6810, 180.8794
731.8330, 14.23828
732.9840, 75.57666
734.1350, 21.12451
735.2860, 128.0913
736.4370, 134.5898
737.5880, 24.88818
738.7380, 220.1250
739.8880, 370.6064
741.0390, 54.18311
742.1890, 6.720215
743.3380, 90.48242
744.4880, 105.1729
745.6380, 46.12451
746.7870, 184.4194
747.9360, 65.99951
749.0850, 228.4971
750.2340, 32.17627
751.3830, 24.28711
752.5310, 180.7134
753.6800, 116.1025
754.8280, 3.460938
755.9760, 190.7642
757.1240, 62.03125
758.2720, 27.25684
759.4190, 53.44141
760.5670, 65.58398
761.7140, 35.31445
762.8610, 131.7124
764.0080, 109.7085
765.1550, 188.6646
766.3020, 88.58545
767.4480, 155.4658
768.5950, 149.3091
769.7410, 52.11426
770.8870, 35.87598
772.0330, 120.5942
773.1780, 155.2725
774.3240, 94.91162
775.4690, 85.51074
776.6140, 93.79785
777.7590, 80.58789
778.9040, 66.06641
780.0490, 4.503906
781.1940, 92.10986
782.3380, 47.82568
783.4820, 7.380371
784.6260, 108.4629
785.7700, 4.584961
786.9140, 93.41699
788.0580, 54.48047
789.2010, 23.66211
790.3450, 1.131836
791.4880, 54.87695
792.6310, 46.58203
793.7730, 68.24902
794.9160, 21.87793
796.0590, 41.46484
797.2010, 18.01465
798.3430, 74.47754
799.4850, 5.056641
800.6270, 35.31348
801.7690, 99.35352
802.9100, 120.1191
804.0520, 48.00488
805.1930, 50.90723
806.3340, 17.89160
807.4750, 21.92969
808.6160, 1.7578000E-02
809.7560, 8.156250
810.8970, 85.34180
812.0370, 51.38281
813.1770, 77.07227
814.3170, 23.72949
815.4570, 2.651367
816.5960, 45.92578
817.7360, 29.46777
818.8750, 16.97559
820.0140, 8.447266
821.1530, 2.117188
822.2920, 106.2803
823.4310, 64.35449
824.5690, 128.9404
825.7070, 72.20508
826.8460, 118.4375
827.9840, 161.6406
829.1220, 186.8174
830.2590, 200.9648
831.3970, 258.0859
832.5340, 124.1816
833.6710, 251.2480
834.8080, 336.2891
835.9450, 387.3037
837.0820, 572.2920
838.2190, 772.5107
839.3550, 1027.193
840.4910, 1356.105
841.6270, 1654.995
842.7630, 2097.856
843.8990, 2543.695
845.0350, 3004.510
846.1700, 3295.300
847.3060, 3547.066
848.4410, 3600.808
849.5760, 3264.528
850.7100, 3021.816
851.8450, 2534.761
852.9800, 1949.786
854.1140, 1627.045
855.2480, 1380.842
856.3820, 1119.838
857.5160, 978.7520
858.6500, 834.3027
859.7830, 852.6289
860.9170, 720.0049
862.0500, 679.2666
863.1830, 684.0166
864.3160, 502.9629
865.4480, 394.8877
866.5810, 479.3525
867.7130, 535.3779
868.8460, 420.7998
869.9780, 437.3730
871.1100, 394.0449
872.2410, 408.8135
873.3730, 404.5947
874.5050, 506.3652
875.6360, 405.4785
876.7670, 491.7812
877.8980, 382.0820
879.0290, 295.1006
880.1590, 261.6123
881.2900, 365.1719
882.4200, 265.8818
883.5500, 296.7451
884.6800, 534.0742
885.8100, 267.0938
886.9400, 444.6768
888.0690, 388.3672
889.1990, 390.1602
890.3280, 405.6709
891.4570, 383.4971
892.5860, 281.3018
893.7140, 204.5342
894.8430, 263.3359
895.9710, 369.5352
897.1000, 307.8301
898.2280, 259.3037
899.3560, 280.8633
900.4830, 251.3213
901.6110, 275.1035
902.7380, 326.4609
903.8660, 246.1035
904.9930, 200.7217
906.1200, 233.8848
907.2460, 338.8809
908.3730, 441.3701
909.5000, 363.0029
910.6260, 331.3770
911.7520, 236.7041
912.8780, 315.0615
914.0040, 310.3555
915.1290, 148.5840
916.2550, 312.7266
917.3800, 222.8223
918.5050, 306.7100
919.6300, 478.0537
920.7550, 271.1943
921.8800, 199.4697
923.0040, 205.6494
924.1290, 144.8945
925.2530, 213.5225
926.3770, 181.7275
927.5010, 119.9932
928.6250, 20.22363
929.7480, 204.5459
930.8720, 122.5576
931.9950, 91.76562
933.1180, 152.7363
934.2410, 115.3721
935.3640, 77.39160
936.4860, 109.8145
937.6090, 6.731445
938.7310, 81.61523
939.8530, 79.87988
940.9750, 8.174805
942.0970, 115.5781
943.2180, 62.23535
944.3400, 62.30371
945.4610, 38.36719
946.5820, 80.62598
947.7030, 134.9365
948.8240, 143.3604
949.9450, 123.5723
951.0650, 210.1934
952.1860, 65.52246
953.3060, 116.7939
954.4260, 223.0078
955.5460, 267.1650
956.6650, 185.0303
957.7850, 282.6631
958.9040, 401.7061
960.0230, 319.4541
961.1420, 390.9854
962.2610, 280.7334
963.3800, 292.5508
964.4990, 346.6914
965.6170, 290.7158
966.7350, 381.7422
967.8530, 435.5723
968.9710, 447.6084
970.0890, 463.6494
971.2070, 593.6943
972.3240, 641.7451
973.4410, 548.8008
974.5580, 530.8662
975.6750, 644.9375
976.7920, 741.0127
977.9090, 741.0986
979.0250, 704.1973
980.1410, 706.3066
981.2580, 979.4229
982.3740, 875.5439
983.4890, 947.6719
984.6050, 1123.808
985.7200, 940.9492
986.8360, 1219.102
987.9510, 1288.262
989.0660, 1508.431
990.1810, 1529.610
991.2950, 1723.799
992.4100, 1835.998
993.5240, 2392.203
994.6390, 2549.420
995.7530, 3230.646
996.8660, 3581.882
997.9800, 4249.127
999.0940, 4802.381
1000.207, 5915.645
1001.320, 7390.920
1002.433, 9052.207
1003.546, 11510.51
1004.659, 14465.82
1005.772, 18879.15
1006.884, 23983.49
1007.996, 29546.84
1009.108, 35722.21
1010.220, 41797.59
1011.332, 46299.96
1012.444, 47790.36
1013.555, 45590.77
1014.666, 39918.20
1015.777, 32990.64
1016.888, 25728.12
1017.999, 20041.62
1019.110, 15268.13
1020.220, 11680.68
1021.331, 9395.258
1022.441, 7748.691
1023.551, 6583.295
1024.661, 5531.910
1025.770, 5064.543
1026.880, 4834.706
1027.989, 4524.557
1029.098, 4366.057
1030.207, 4484.743
1031.316, 4435.452
1032.425, 4388.189
1033.533, 4726.938
1034.642, 4957.037
1035.750, 5150.425
1036.858, 5729.953
1037.966, 6027.895
1039.073, 6361.697
1040.181, 6587.904
1041.288, 6214.227
1042.396, 5516.260
1043.503, 5081.109
1044.610, 4332.969
1045.716, 3598.841
1046.823, 2996.723
1047.929, 2521.617
1049.036, 2269.523
1050.142, 1990.446
1051.248, 1735.411
1052.353, 1554.375
1053.459, 1487.663
1054.564, 1421.677
1055.670, 1332.046
1056.775, 1258.364
1057.880, 1257.975
1058.985, 1034.123
1060.089, 900.2881
1061.194, 943.4629
1062.298, 828.6484
1063.402, 856.7588
1064.506, 745.9658
1065.610, 846.1836
1066.713, 724.4121
1067.817, 671.6777
1068.920, 705.9883
1070.023, 549.2793
1071.126, 544.4209
1072.229, 634.9902
1073.332, 526.3906
1074.435, 625.8076
1075.537, 811.2432
1076.639, 883.8281
1077.741, 674.2969
1078.843, 665.7822
1079.945, 524.3037
1081.046, 577.8369
1082.148, 525.4512
1083.249, 549.0020
1084.350, 630.5664
1085.451, 663.3037
1086.551, 547.8887
1087.652, 664.4824
1088.752, 592.0869
1089.853, 497.7383
1090.953, 472.3633
1092.053, 377.0166
1093.152, 442.7695
1094.252, 537.0928
1095.351, 493.7686
1096.451, 602.5166
1097.550, 532.2559
1098.649, 603.9512
1099.748, 443.6523
1100.846, 402.3613
1101.945, 508.0752
1103.043, 291.7959
1104.141, 501.5215
1105.239, 389.2529
1106.337, 233.9980
1107.434, 428.7422
1108.532, 396.4902
1109.629, 427.1289
1110.726, 421.4004
1111.823, 476.3027
1112.920, 524.0732
1114.017, 582.8672
1115.113, 622.6484
1116.210, 674.4326
1117.306, 851.2236
1118.402, 1010.018
1119.498, 1088.816
1120.593, 1120.619
1121.689, 1265.427
1122.784, 1287.239
1123.879, 1349.056
1124.974, 1067.876
1126.069, 990.7031
1127.164, 736.5332
1128.259, 698.3672
1129.353, 460.2070
1130.447, 429.0488
1131.541, 513.8955
1132.635, 385.7461
1133.729, 389.5996
1134.822, 288.4580
1135.916, 405.3193
1137.009, 344.1846
1138.102, 307.0537
1139.195, 377.9258
1140.288, 290.8018
1141.380, 249.6787
1142.473, 223.5605
1143.565, 260.4453
1144.657, 237.3340
1145.749, 247.2637
1146.841, 209.1562
1147.932, 274.7881
1149.024, 176.7422
1150.115, 52.64258
1151.206, 261.6270
1152.297, 185.2656
1153.388, 38.82812
1154.479, 245.0625
1155.569, 63.95410
1156.659, 22.15234
1157.750, 12.26660
1158.839, 138.3857
1159.929, 84.24512
1161.019, 10.19434
1162.108, 9.508789
1163.198, 18.71680
1164.287, 39.04785
1165.376, 5.186523
1166.465, 10.42480
1167.553, 46.67090
1168.642, 36.55078
1169.730, 38.76953
1170.818, 4.521484
1171.906, 40.81641
1172.994, 18.59473
1174.082, 187.5361
1175.170, 14.20703
1176.257, 143.8760
1177.344, 108.5469
1178.431, 23.21582
1179.518, 25.88379
1180.605, 32.55273
1181.691, 46.21973
1182.778, 28.11426
1183.864, 64.46777
1184.950, 90.86035
1186.036, 111.7969
1187.122, 13.81641
1188.207, 66.33984
1189.292, 61.09570
1190.378, 203.5293
1191.463, 160.9600
1192.548, 51.38965
1193.632, 7.182617
1194.717, 52.23242
1195.801, 66.64551
1196.886, 35.05664
1197.970, 110.4658
1199.054, 16.87207
1200.137, 150.2764
1201.221, 91.67969
1202.305, 116.0811
1203.388, 23.47754
1204.471, 129.8711
1205.554, 216.2627
1206.637, 11.65039
1207.719, 199.0371
1208.802, 157.4189
1209.884, 65.79883
1210.966, 123.1738
1212.048, 21.45508
1213.130, 111.8926
1214.212, 61.23828
1215.293, 13.57715
1216.374, 42.91113
1217.456, 107.2412
1218.536, 140.5664
1219.617, 26.88770
1220.698, 37.20312
1221.778, 147.5166
1222.859, 19.17578
1223.939, 27.89062
1225.019, 215.3643
1226.099, 22.61523
1227.178, 26.86133
1228.258, 236.1025
1229.337, 158.3369
1230.417, 111.5674
1231.496, 168.7939
1232.574, 93.01465
1233.653, 42.23047
1234.732, 47.44238
1235.810, 0.6474610
1236.888, 52.83789
1237.966, 119.0244
1239.044, 3.204102
1240.122, 6.629883
1241.199, 0.4824220
1242.277, 264.6484
1243.354, 40.77246
1244.431, 270.8936
1245.508, 319.0078
1246.585, 153.1182
1247.661, 278.2217
1248.738, 152.3203
1249.814, 177.4141
1250.890, 252.5029
1251.966, 185.5840
1253.042, 79.67090
1254.117, 108.7529
1255.193, 178.8398
1256.268, 273.9238
1257.343, 172.0020
1258.418, 185.0742
1259.493, 115.1416
1260.567, 72.20312
1261.642, 221.2598
1262.716, 86.31055
1263.790, 124.3555
1264.864, 309.3955
1265.938, 207.4297
1267.011, 137.4580
1268.085, 173.4814
1269.158, 176.5273
1270.231, 153.5391
1271.304, 162.5449
1272.377, 140.6562
1273.450, 88.54199
1274.522, 46.53320
1275.594, 123.5215
1276.666, 37.49609
1277.738, 43.45605
1278.810, 154.4072
1279.882, 74.64746
1280.953, 12.24121
1282.025, 155.1182
1283.096, 61.14844
1284.167, 105.0127
1285.238, 75.87305
1286.308, 202.9824
1287.379, 266.3281
1288.449, 162.9922
1289.519, 173.0166
1290.589, 26.13672
1291.659, 250.3262
1292.729, 276.1406
1293.798, 107.9502
1294.868, 100.4160
1295.937, 99.59961
1297.006, 306.6475
1298.075, 255.2891
1299.143, 261.0752
1300.212, 250.4668
1301.280, 196.7490
1302.348, 218.3271
1303.416, 50.09668
1304.484, 90.86133
1305.552, 104.4219
1306.620, 187.3760
1307.687, 186.1260
1308.754, 284.8721
1309.821, 289.6133
1310.888, 316.3477
1311.955, 366.1113
1313.021, 358.4434
1314.088, 328.3320
1315.154, 324.7598
1316.220, 272.2773
1317.286, 168.5059
1318.352, 320.2188
1319.417, 207.9258
1320.483, 182.6289
1321.548, 239.3242
1322.613, 337.1035
1323.678, 403.7910
1324.743, 379.4746
1325.807, 215.1582
1326.872, 239.8379
1327.936, 209.0762
1329.000, 234.7520
1330.064, 301.4258
1331.128, 331.0938
1332.191, 148.7480
1333.255, 273.4141
1334.318, 210.0762
1335.381, 214.6035
1336.444, 277.2598
1337.507, 235.9180
1338.569, 333.5703
1339.632, 231.2227
1340.694, 213.8008
1341.756, 332.4492
1342.818, 399.0957
1343.880, 310.5781
1344.941, 278.2207
1346.003, 416.8652
1347.064, 268.5039
1348.125, 145.1113
1349.186, 141.0371
1350.247, 357.6738
1351.308, 283.2188
1352.368, 428.2012
1353.428, 192.8359
1354.489, 232.4043
1355.549, 325.9883
1356.608, 194.6191
1357.668, 202.2500
1358.727, 102.8809
1359.787, 163.5078
1360.846, 265.1367
1361.905, 230.7676
1362.964, 278.3945
1364.022, 99.01562
1365.081, 227.8516
1366.139, 207.2676
1367.197, 385.0078
1368.255, 346.1250
1369.313, 397.6133
1370.371, 205.2383
1371.428, 190.8418
1372.486, 58.46289
1373.543, 243.0840
1374.600, 271.7090
1375.657, 333.3320
1376.713, 378.6367
1377.770, 192.5840
1378.826, 394.2109
1379.882, 180.9492
1380.938, 170.6875
1381.994, 254.1230
1383.050, 90.75781
1384.106, 247.6309
1385.161, 306.2676
1386.216, 140.9043
1387.271, 132.5449
1388.326, 259.1875
1389.381, 158.8242
1390.435, 203.4648
1391.490, 377.1074
1392.544, 294.7539
1393.598, 85.40039
1394.652, 119.0488
1395.705, 8.705078
1396.759, 159.3594
1397.812, 129.0176
1398.866, 245.8809
1399.919, 327.6973
1400.972, 255.2031
1402.024, 183.6875
1403.077, 115.5664
1404.129, 281.2617
1405.181, 188.8516
1406.233, 148.6406
1407.285, 331.5762
1408.337, 249.5371
1409.389, 216.2363
1410.440, 255.9473
1411.491, 115.6660
1412.542, 9.888672
1413.593, 265.8438
1414.644, 162.5859
1415.695, 176.3320
1416.745, 55.06445
1417.795, 20.75195
1418.845, 162.9785
1419.895, 149.7188
1420.945, 239.4590
1421.995, 183.2090
1423.044, 190.9648
1424.093, 252.7383
1425.142, 252.5156
1426.191, 237.1230
1427.240, 175.0078
1428.289, 193.7168
1429.337, 166.4512
1430.385, 181.1543
1431.433, 186.7715
1432.481, 149.3809
1433.529, 231.9805
1434.577, 279.5723
1435.624, 252.6348
1436.672, 254.7207
1437.719, 195.2852
1438.766, 182.8301
1439.812, 91.79102
1440.859, 216.3555
1441.905, 242.9434
1442.952, 284.5332
1443.998, 172.1367
1445.044, 208.5781
1446.090, 350.9766
1447.135, 236.3066
1448.181, 37.58789
1449.226, 149.8691
1450.271, 114.7363
1451.316, 86.60156
1452.361, 105.4648
1453.405, 16.67188
1454.450, 100.1934
1455.494, 163.0625
1456.538, 105.9355
1457.582, 195.8066
1458.626, 100.7051
1459.670, 228.6055
1460.713, 117.5117
1461.757, 148.4180
1462.800, 92.32812
1463.843, 156.2734
1464.886, 347.2383
1465.928, 222.0488
1466.971, 277.3613
1468.013, 104.1621
1469.055, 188.1465
1470.097, 155.1484
1471.139, 76.16016
1472.181, 66.20898
1473.222, 267.2695
1474.263, 6.660156
1475.305, 238.4180
1476.346, 193.5000
1477.386, 209.5820
1478.427, 151.6406
1479.468, 284.6875
1480.508, 127.7422
1481.548, 295.8027
1482.588, 82.86914
1483.628, 201.9473
1484.668, 143.0312
1485.707, 108.0820
1486.747, 127.1797
1487.786, 105.2832
1488.825, 72.38281
1489.864, 75.94922
1490.902, 97.67383
1491.941, 77.89648
1492.979, 84.13086
1494.017, 136.9648
1495.055, 167.1758
1496.093, 241.3789
1497.131, 190.6367
1498.168, 192.9043
1499.206, 215.1797
1500.243, 115.4688
1501.280, 170.7715
1502.317, 147.0840
1503.354, 123.4160
1504.390, 30.23633
1505.426, 24.71484
1506.463, 40.49609
1507.499, 77.91211
1508.535, 10.32227
1509.570, 71.75781
1510.606, 299.2188
1511.641, 260.7188
1512.676, 312.7754
1513.711, 349.0762
1514.746, 275.0859
1515.781, 283.6406
1516.816, 245.8164
1517.850, 215.6699
1518.884, 197.4277
1519.918, 185.0645
1520.952, 110.7246
1521.986, 131.4023
1523.019, 28.10547
1524.053, 34.59375
1525.086, 145.8301
1526.119, 1.580078
1527.152, 32.35547
1528.185, 14.20312
1529.217, 1.015625
1530.250, 51.84180
1531.282, 25.72852
1532.314, 202.6445
1533.346, 217.5918
1534.377, 92.58008
1535.409, 161.6328
1536.440, 24.28125
1537.472, 259.8438
1538.503, 182.0059
1539.534, 142.0430
1540.564, 138.3887
1541.595, 155.1094
1542.625, 128.7383
1543.656, 147.3848
1544.686, 164.0527
1545.716, 239.7148
1546.745, 196.4238
1547.775, 323.9941
1548.804, 109.8066
1549.834, 234.6504
1550.863, 140.0801
1551.892, 325.5605
1552.920, 69.80859
1553.949, 367.7461
1554.977, 304.8164
1556.006, 110.0293
1557.034, 109.6035
1558.062, 134.1543
1559.089, 298.2051
1560.117, 214.6328
1561.144, 53.36328
1562.172, 57.13672
1563.199, 10.96094
1564.226, 143.8223
1565.252, 97.56641
1566.279, 129.5273
1567.305, 242.1953
1568.332, 78.70117
1569.358, 135.0059
1570.384, 18.08203
1571.409, 221.8809
1572.435, 0.0000000E+00
##END=



