##NAMES=Diopside
##RRUFFID=R040097
##IDEAL CHEMISTRY=CaMgSi_2_O_6_
##LOCALITY=Fassathal, Tyrol
##OWNER=RRUFF
##SOURCE=University of Arizona Mineral Museum
##DESCRIPTION=Green prismatic crystals
##STATUS=The identification of this mineral has been confirmed by X-ray diffraction and chemical analysis
##URL=rruff.info/R040097
##MEASURED CHEMISTRY=Ca_1.00_(Mg_0.83_Al_0.10_Fe_0.09_Ca_0.02_Ti_0.02_)(Si_0.88_Al_0.12_)_2_O_6_
##PIN_ID=M00269
##ORIENTATION=Laser parallel to b* (0 1 0). Fiducial mark perpendicular to laser is parallel to -c [0 0 -1]
123.286, 0.000
124.675, 85.740
126.063, 89.089
127.452, 317.957
128.840, 407.592
130.228, 430.894
131.615, 713.743
133.003, 943.957
134.390, 1239.960
135.777, 1470.358
137.164, 1883.793
138.550, 2100.469
139.937, 2328.783
141.323, 2431.342
142.709, 2395.119
144.094, 2040.828
145.480, 1908.673
146.865, 1656.287
148.250, 1333.550
149.635, 1070.509
151.019, 807.251
152.403, 624.225
153.788, 481.155
155.171, 378.339
156.555, 426.373
157.939, 348.869
159.322, 322.094
160.705, 217.524
162.088, 202.170
163.470, 219.235
164.853, 201.758
166.235, 205.635
167.617, 286.312
168.998, 340.396
170.380, 136.044
171.761, 300.520
173.142, 165.202
174.523, 230.082
175.904, 275.154
177.284, 20.415
178.664, 145.852
180.044, 38.538
181.424, 9.669
182.803, 103.475
184.183, 156.854
185.562, 182.475
186.940, 48.260
188.319, 64.200
189.698, 10.292
191.076, 153.468
192.454, 142.918
193.831, 30.554
195.209, 96.110
196.586, 54.896
197.963, 93.982
199.340, 120.960
200.717, 81.910
202.093, 25.687
203.470, 73.480
204.846, 74.039
206.221, 38.351
207.597, 90.718
208.972, 73.024
210.347, 54.747
211.722, 37.391
213.097, 40.562
214.472, 88.611
215.846, 3.244
217.220, 64.995
218.594, 123.326
219.967, 121.746
221.341, 100.256
222.714, 88.854
224.087, 207.529
225.460, 236.285
226.832, 305.115
228.204, 164.014
229.577, 262.980
230.948, 112.018
232.320, 11.121
233.692, 120.295
235.063, 69.508
236.434, 178.789
237.805, 178.135
239.175, 22.455
240.545, 73.078
241.916, 176.348
243.286, 154.162
244.655, 85.369
246.025, 4.922
247.394, 84.504
248.763, 274.076
250.132, 183.684
251.501, 203.348
252.869, 133.068
254.237, 82.859
255.605, 152.713
256.973, 112.631
258.340, 132.617
259.708, 212.664
261.075, 170.998
262.442, 142.951
263.808, 153.186
265.175, 103.449
266.541, 83.711
267.907, 25.961
269.273, 7.447
270.639, 35.105
272.004, 25.418
273.369, 76.012
274.734, 166.672
276.099, 117.398
277.463, 150.455
278.828, 102.377
280.192, 5.373
281.556, 205.951
282.919, 52.920
284.283, 208.287
285.646, 199.586
287.009, 60.988
288.372, 158.797
289.734, 177.568
291.097, 246.945
292.459, 236.734
293.821, 298.160
295.183, 347.252
296.544, 377.832
297.905, 478.578
299.266, 489.463
300.627, 420.465
301.988, 481.566
303.348, 502.758
304.709, 714.025
306.069, 455.352
307.428, 636.730
308.788, 878.154
310.147, 809.613
311.507, 1071.107
312.865, 972.635
314.224, 1414.203
315.583, 1445.809
316.941, 1647.404
318.299, 1899.037
319.657, 2000.707
321.015, 2322.406
322.372, 2433.992
323.729, 2695.586
325.086, 2797.225
326.443, 2828.832
327.800, 2820.422
329.156, 2802.021
330.512, 2623.543
331.868, 2665.080
333.224, 2416.670
334.579, 2428.301
335.935, 2189.980
337.290, 2241.707
338.645, 2103.480
339.999, 1935.299
341.354, 1817.162
342.708, 1839.070
344.062, 1759.195
345.416, 1801.148
346.769, 1703.137
348.123, 1875.096
349.476, 1877.094
350.829, 1899.137
352.182, 2001.219
353.534, 2033.119
354.887, 2117.711
356.239, 2139.918
357.591, 2190.451
358.942, 2192.736
360.294, 2235.047
361.645, 2107.387
362.996, 2149.762
364.347, 2188.242
365.698, 2060.689
367.048, 2149.582
368.398, 1932.084
369.748, 2072.674
371.098, 1850.988
372.448, 1950.188
373.797, 2012.828
375.146, 2023.705
376.495, 2146.412
377.844, 2219.154
379.192, 2411.537
380.540, 2484.342
381.889, 2607.178
383.236, 3100.045
384.584, 3222.941
385.932, 3595.871
387.279, 4058.834
388.626, 4531.820
389.973, 4754.840
391.319, 4767.891
392.666, 5261.012
394.012, 4854.160
395.358, 4857.340
396.704, 4130.551
398.049, 3683.859
399.394, 3147.201
400.740, 2250.570
402.084, 2003.176
403.429, 1543.783
404.774, 1247.318
406.118, 1014.359
407.462, 756.500
408.806, 631.621
410.150, 465.303
411.493, 279.070
412.836, 252.871
414.179, 246.701
415.522, 310.576
416.865, 54.482
418.207, 288.559
419.549, 92.664
420.891, 146.793
422.233, 111.008
423.575, 25.244
424.916, 99.527
426.257, 33.910
427.598, 81.680
428.939, 17.223
430.279, 53.455
431.619, 94.883
432.959, 61.412
434.299, 18.221
435.639, 312.998
436.978, 22.326
438.318, 115.898
439.657, 212.508
440.996, 177.721
442.334, 32.473
443.673, 27.545
445.011, 18.316
446.349, 3.617
447.687, 360.051
449.024, 106.354
450.361, 221.662
451.699, 181.486
453.036, 117.105
454.372, 180.281
455.709, 145.391
457.045, 380.764
458.381, 156.279
459.717, 241.568
461.053, 386.787
462.388, 152.062
463.724, 507.434
465.059, 222.547
466.394, 337.670
467.728, 572.809
469.063, 377.969
470.397, 443.139
471.731, 398.318
473.065, 283.510
474.398, 378.711
475.732, 253.920
477.065, 449.139
478.398, 384.367
479.731, 409.602
481.063, 334.844
482.396, 380.094
483.728, 245.357
485.060, 328.186
486.391, 305.902
487.723, 401.184
489.054, 386.473
490.385, 311.771
491.716, 497.074
493.047, 602.387
494.377, 337.701
495.708, 603.020
497.038, 368.344
498.368, 443.670
499.697, 509.004
501.027, 334.338
502.356, 409.676
503.685, 435.025
505.014, 660.387
506.342, 645.748
507.671, 751.109
508.999, 666.471
510.327, 441.834
511.655, 477.195
512.982, 632.559
514.310, 577.918
515.637, 783.312
516.964, 698.701
518.291, 814.098
519.617, 799.494
520.944, 1154.885
522.270, 960.273
523.596, 995.658
524.921, 1331.059
526.247, 1276.453
527.572, 1221.859
528.897, 1477.262
530.222, 1592.666
531.547, 1588.084
532.871, 1923.512
534.196, 1358.932
535.520, 1674.354
536.844, 1269.768
538.167, 1565.178
539.491, 1200.580
540.814, 1025.973
542.137, 1071.355
543.460, 1046.730
544.783, 962.383
546.105, 974.617
547.427, 1063.080
548.749, 848.846
550.071, 654.941
551.393, 439.486
552.714, 704.783
554.035, 701.766
555.356, 677.086
556.677, 389.170
557.998, 795.906
559.318, 581.135
560.638, 423.896
561.958, 584.115
563.278, 448.164
564.597, 544.301
565.917, 573.754
567.236, 391.941
568.555, 678.348
569.874, 118.295
571.192, 805.217
572.511, 371.088
573.829, 431.803
575.147, 598.023
576.464, 107.752
577.782, 613.961
579.099, 250.076
580.416, 348.730
581.733, 214.586
583.050, 174.676
584.366, 238.656
585.683, 134.988
586.999, 295.348
588.315, 130.494
589.630, 34.078
590.946, 108.012
592.261, 48.260
593.576, 129.293
594.891, 288.805
596.206, 16.189
597.520, 11.541
598.834, 66.875
600.148, 153.418
601.462, 117.312
602.776, 77.324
604.089, 78.906
605.402, 24.463
606.715, 29.586
608.028, 104.262
609.341, 29.744
610.653, 64.775
611.965, 80.900
613.277, 197.613
614.589, 141.346
615.901, 115.359
617.212, 184.523
618.523, 208.127
619.834, 204.055
621.145, 188.217
622.456, 262.143
623.766, 326.377
625.076, 270.297
626.386, 380.854
627.696, 480.248
629.006, 513.961
630.315, 478.414
631.624, 541.742
632.933, 464.877
634.242, 879.049
635.551, 632.096
636.859, 985.779
638.167, 969.100
639.475, 1232.477
640.783, 1307.129
642.090, 1199.264
643.398, 1462.980
644.705, 1445.996
646.012, 1568.682
647.318, 2052.520
648.625, 1985.109
649.931, 2188.102
651.237, 2800.770
652.543, 2863.219
653.849, 3585.875
655.155, 3978.227
656.460, 4721.160
657.765, 5123.416
659.070, 6395.625
660.375, 6880.465
661.679, 8292.578
662.984, 9054.641
664.288, 9656.648
665.592, 10198.613
666.895, 9950.527
668.199, 9482.385
669.502, 8594.193
670.805, 7435.953
672.108, 6547.660
673.411, 5869.322
674.713, 4650.928
676.016, 4242.482
677.318, 3453.984
678.620, 3295.434
679.921, 2607.541
681.223, 2378.887
682.524, 2060.223
683.825, 1861.463
685.126, 1492.648
686.427, 1413.781
687.727, 1234.861
689.028, 1336.166
690.328, 1094.119
691.628, 998.057
692.927, 759.227
694.227, 770.035
695.526, 670.789
696.825, 701.490
698.124, 532.139
699.423, 612.729
700.721, 353.264
702.020, 683.742
703.318, 564.164
704.616, 324.529
705.913, 244.836
707.211, 54.920
708.508, 445.188
709.805, 135.242
711.102, 425.225
712.399, 174.850
713.695, 154.875
714.992, 464.533
716.288, 185.867
717.584, 483.527
718.879, 82.865
720.175, 112.123
721.470, 31.307
722.765, 70.395
724.060, 189.400
725.355, 141.662
726.649, 137.092
727.944, 265.773
729.238, 4.393
730.532, 202.904
731.825, 458.650
733.119, 199.443
734.412, 207.471
735.705, 124.566
736.998, 233.219
738.291, 10.943
739.584, 211.438
740.876, 165.965
742.168, 26.705
743.460, 320.516
744.752, 147.664
746.043, 26.920
747.334, 379.895
748.626, 118.254
749.916, 9.994
751.207, 266.650
752.498, 49.742
753.788, 224.363
755.078, 100.332
756.368, 396.570
757.658, 342.588
758.947, 101.305
760.237, 157.000
761.526, 201.520
762.815, 286.129
764.104, 101.703
765.392, 297.016
766.680, 332.213
767.969, 0.180
769.257, 485.441
770.544, 350.760
771.832, 14.092
773.119, 461.262
774.406, 66.623
775.693, 271.885
776.980, 317.014
778.267, 232.361
779.553, 297.658
780.839, 22.916
782.125, 418.100
783.411, 313.236
784.697, 158.324
785.982, 383.355
787.267, 488.336
788.552, 173.266
789.837, 508.137
791.122, 252.953
792.406, 327.709
793.690, 302.412
794.974, 167.062
796.258, 581.650
797.542, 186.188
798.825, 340.676
800.108, 485.105
801.391, 149.484
802.674, 703.793
803.957, 298.051
805.239, 362.262
806.522, 496.418
807.804, 340.527
809.085, 744.586
810.367, 248.594
811.649, 472.543
812.930, 706.441
814.211, 20.289
815.492, 774.078
816.772, 767.816
818.053, 771.500
819.333, 425.133
820.613, 498.715
821.893, 842.250
823.173, 515.734
824.452, 629.164
825.732, 712.547
827.011, 445.883
828.290, 859.168
829.568, 732.398
830.847, 455.586
832.125, 568.730
833.403, 201.824
834.681, 754.863
835.959, 357.863
837.236, 500.816
838.514, 713.727
839.791, 386.594
841.068, 499.418
842.345, 292.203
843.621, 494.945
844.898, 997.633
846.174, 280.270
847.450, 842.871
848.726, 875.426
850.001, 697.949
851.277, 1500.438
852.552, 1282.891
853.827, 1725.266
855.102, 1977.324
856.376, 1599.633
857.651, 2161.906
858.925, 2153.715
860.199, 2195.145
861.473, 2118.086
862.746, 1610.223
864.020, 2420.629
865.293, 1602.648
866.566, 1517.863
867.839, 1718.379
869.112, 1310.355
870.384, 1624.746
871.656, 906.664
872.928, 1115.863
874.200, 1005.586
875.472, 1093.148
876.744, 1083.664
878.015, 732.469
879.286, 949.410
880.557, 699.332
881.828, 480.266
883.098, 386.305
884.369, 866.801
885.639, 343.746
886.909, 674.168
888.178, 294.637
889.448, 332.527
890.717, 673.180
891.987, 239.555
893.256, 572.004
894.524, 202.055
895.793, 296.121
897.061, 467.078
898.330, 73.086
899.598, 411.051
900.865, 212.266
902.133, 59.145
903.401, 707.449
904.668, 108.230
905.935, 216.531
907.202, 327.188
908.468, 196.715
909.735, 568.117
911.001, 79.309
912.267, 378.941
913.533, 479.223
914.799, 269.918
916.064, 211.031
917.330, 129.180
918.595, 362.047
919.860, 413.457
921.124, 180.637
922.389, 242.602
923.653, 424.281
924.918, 74.711
926.182, 606.812
927.445, 96.609
928.709, 638.645
929.972, 370.492
931.236, 142.074
932.499, 396.383
933.761, 375.305
935.024, 247.645
936.286, 619.359
937.549, 139.773
938.811, 460.895
940.073, 511.848
941.334, 352.125
942.596, 522.367
943.857, 112.004
945.118, 522.195
946.379, 752.992
947.640, 162.770
948.900, 953.082
950.161, 163.719
951.421, 533.887
952.681, 804.672
953.940, 602.449
955.200, 813.098
956.459, 563.691
957.719, 644.223
958.978, 834.707
960.236, 325.133
961.495, 1135.508
962.753, 484.992
964.012, 685.199
965.270, 915.398
966.527, 555.547
967.785, 945.301
969.043, 464.961
970.300, 704.945
971.557, 974.871
972.814, 744.742
974.071, 624.570
975.327, 964.344
976.583, 554.125
977.840, 903.922
979.095, 683.773
980.351, 673.695
981.607, 1173.773
982.862, 413.855
984.117, 1203.980
985.372, 994.191
986.627, 804.484
987.882, 1484.828
989.136, 1015.590
990.390, 1366.441
991.644, 1667.406
992.898, 1358.656
994.152, 2110.008
995.405, 1817.742
996.659, 2396.648
997.912, 2578.258
999.165, 2959.961
1000.417, 3681.707
1001.670, 4153.305
1002.922, 4557.324
1004.174, 5209.461
1005.426, 5251.211
1006.678, 5473.027
1007.930, 5664.801
1009.181, 5126.641
1010.432, 5298.488
1011.683, 4320.309
1012.934, 3672.145
1014.185, 3433.984
1015.435, 2545.840
1016.685, 1817.738
1017.935, 1989.703
1019.185, 1411.723
1020.435, 1443.805
1021.684, 1205.941
1022.934, 1098.195
1024.183, 1170.496
1025.432, 782.867
1026.680, 975.328
1027.929, 1477.883
1029.177, 730.535
1030.425, 1073.301
1031.673, 746.188
1032.921, 1099.203
1034.169, 772.352
1035.416, 515.652
1036.663, 719.098
1037.911, 622.691
1039.157, 576.438
1040.404, 1270.332
1041.650, 554.363
1042.897, 1138.574
1044.143, 823.059
1045.389, 447.680
1046.634, 1362.453
1047.880, 747.629
1049.125, 682.996
1050.371, 1048.562
1051.615, 764.352
1052.860, 670.387
1054.105, 526.688
1055.349, 493.270
1056.593, 1080.160
1057.837, 12.625
1059.081, 794.941
1060.325, 502.887
1061.568, 411.238
1062.812, 710.016
1064.055, 199.258
1065.298, 709.000
1066.540, 499.285
1067.783, 80.156
1069.025, 581.656
1070.267, 713.832
1071.509, 276.758
1072.751, 750.516
1073.993, 65.883
1075.234, 329.723
1076.475, 526.445
1077.716, 44.434
1078.957, 843.844
1080.198, 454.859
1081.438, 7.723
1082.679, 478.180
1083.919, 105.137
1085.159, 502.902
1086.398, 431.828
1087.638, 453.160
1088.877, 0.000
##END=



