##NAMES=Diopside
##RRUFFID=R050666
##IDEAL CHEMISTRY=CaMgSi_2_O_6_
##LOCALITY=Franklin, Sussex County, New Jersey, USA
##OWNER=RRUFF
##SOURCE=University of Arizona Mineral Museum
##DESCRIPTION=Brown cleavage fragment with white hardystonite
##STATUS=The identification of this mineral has been confirmed by X-ray diffraction and chemical analysis
##URL=rruff.info/R050666
##MEASURED CHEMISTRY=Ca(Mg_0.66_Mn_0.33_Fe_0.01_)Si_2_O_6_
##PIN_ID=L00874
##ORIENTATION=Laser parallel to -b* (0 -1 0). Fiducial mark perpendicular to laser is parallel to -c [0 0 -1]
109.5120, 0.0000000E+00
110.7440, 0.6286620
111.9760, 349.2546
113.2080, 651.7673
114.4400, 967.8660
115.6710, 1216.819
116.9030, 830.5176
118.1340, 489.2339
119.3650, 215.2449
120.5960, 50.99341
121.8270, 64.69116
123.0580, 34.93042
124.2880, 88.01416
125.5190, 8.730469
126.7490, 105.6841
127.9790, 300.2341
129.2090, 457.6956
130.4390, 666.6270
131.6680, 678.0601
132.8980, 705.4834
134.1270, 588.2727
135.3560, 568.7290
136.5850, 443.5845
137.8140, 408.1157
139.0430, 309.7395
140.2710, 269.4524
141.5000, 91.25122
142.7280, 13.13208
143.9560, 5.091309
145.1840, 2.875000
146.4120, 15.23096
147.6390, 15.41260
148.8670, 26.08350
150.0940, 46.24805
151.3210, 90.65112
152.5490, 45.12354
153.7750, 10.66431
155.0020, 24.27368
156.2290, 19.94800
157.4550, 25.24707
158.6810, 40.92285
159.9080, 4.393066
161.1340, 9.799316
162.3590, 105.1060
163.5850, 149.9885
164.8110, 266.9089
166.0360, 334.8679
167.2610, 319.8684
168.4860, 521.9104
169.7110, 694.9922
170.9360, 1023.111
172.1610, 1015.136
173.3850, 1300.451
174.6100, 1010.668
175.8340, 803.9155
177.0580, 701.1909
178.2820, 572.4932
179.5050, 435.8208
180.7290, 349.1724
181.9520, 292.5471
183.1760, 234.9832
184.3990, 262.5342
185.6220, 211.1863
186.8450, 190.9116
188.0670, 257.6895
189.2900, 266.4875
190.5120, 270.2974
191.7340, 295.0955
192.9560, 276.9133
194.1780, 281.7603
195.4000, 309.6689
196.6220, 274.6047
197.8430, 319.5659
199.0640, 311.6111
200.2860, 190.6885
201.5070, 326.7329
202.7270, 329.7329
203.9480, 289.6965
205.1690, 179.6389
206.3890, 160.5525
207.6090, 81.40161
208.8290, 226.2056
210.0490, 135.9939
211.2690, 206.7864
212.4890, 211.5850
213.7080, 171.3894
214.9280, 270.2141
216.1470, 256.0725
217.3660, 302.9548
218.5850, 354.8540
219.8030, 428.7847
221.0220, 558.7485
222.2400, 774.7478
223.4590, 980.8572
224.6770, 1248.993
225.8950, 1472.133
227.1120, 1866.274
228.3300, 2353.415
229.5480, 2965.555
230.7650, 3270.696
231.9820, 3336.832
233.1990, 3009.966
234.4160, 3542.097
235.6330, 2152.229
236.8490, 1823.361
238.0660, 1445.492
239.2820, 1232.624
240.4980, 1105.754
241.7140, 910.8853
242.9300, 794.0161
244.1460, 672.1460
245.3610, 740.2761
246.5770, 656.4053
247.7920, 617.5339
249.0070, 670.6621
250.2220, 630.7898
251.4370, 662.9170
252.6510, 697.0437
253.8660, 601.1694
255.0800, 642.2949
256.2940, 686.3083
257.5080, 850.5444
258.7220, 802.0044
259.9360, 1042.572
261.1490, 753.1484
262.3630, 594.2502
263.5760, 519.0298
264.7890, 649.6816
266.0020, 608.8953
267.2150, 523.2358
268.4270, 580.7573
269.6400, 548.8542
270.8520, 590.4507
272.0640, 586.2402
273.2760, 513.4121
274.4880, 492.2981
275.7000, 567.6963
276.9120, 585.5076
278.1230, 545.9946
279.3340, 552.2639
280.5450, 532.1948
281.7560, 565.7097
282.9670, 556.2212
284.1780, 543.4424
285.3880, 592.1904
286.5980, 693.8477
287.8090, 714.6760
289.0190, 826.9736
290.2290, 779.3806
291.4380, 880.4907
292.6480, 1040.550
293.8570, 1117.390
295.0670, 1264.430
296.2760, 1561.684
297.4850, 1804.019
298.6930, 2094.356
299.9020, 2446.241
301.1110, 2950.149
302.3190, 3473.053
303.5270, 4034.377
304.7350, 4918.776
305.9430, 5662.611
307.1510, 6521.065
308.3580, 7613.579
309.5660, 8554.297
310.7730, 9574.405
311.9800, 10394.53
313.1870, 10970.65
314.3940, 11066.77
315.6010, 10595.90
316.8070, 9740.122
318.0130, 8704.476
319.2200, 7749.304
320.4260, 6623.700
321.6310, 5815.189
322.8370, 4883.651
324.0430, 4303.982
325.2480, 3764.353
326.4540, 3305.864
327.6590, 2954.627
328.8640, 2592.509
330.0680, 2476.703
331.2730, 2262.867
332.4780, 2143.028
333.6820, 2170.823
334.8860, 2060.903
336.0900, 2163.095
337.2940, 2122.688
338.4980, 2176.274
339.7010, 2250.544
340.9050, 2322.879
342.1080, 2360.113
343.3110, 2400.643
344.5140, 2430.447
345.7170, 2401.613
346.9200, 2290.776
348.1220, 2183.939
349.3240, 1894.100
350.5270, 1692.236
351.7290, 1417.295
352.9310, 1150.029
354.1320, 1073.187
355.3340, 907.1592
356.5350, 763.3162
357.7370, 678.4727
358.9380, 584.6069
360.1390, 549.7625
361.3400, 498.2639
362.5400, 514.0706
363.7410, 479.2229
364.9410, 576.3745
366.1410, 653.5242
367.3410, 654.6729
368.5410, 653.8191
369.7410, 725.9629
370.9400, 737.1052
372.1400, 843.2449
373.3390, 885.3823
374.5380, 1013.518
375.7370, 1105.650
376.9360, 1275.781
378.1350, 1268.908
379.3330, 1341.034
380.5310, 1407.158
381.7300, 1382.279
382.9280, 1367.398
384.1260, 1324.515
385.3230, 1151.630
386.5210, 1131.744
387.7180, 988.8550
388.9160, 777.9644
390.1130, 659.0715
391.3100, 542.1768
392.5060, 442.2808
393.7030, 416.3826
394.9000, 380.4827
396.0960, 289.5811
397.2920, 309.6777
398.4880, 141.7722
399.6840, 148.8650
400.8800, 151.9355
402.0750, 145.9956
403.2710, 84.04199
404.4660, 77.07471
405.6610, 94.09546
406.8560, 109.1060
408.0510, 46.10767
409.2450, 112.1006
410.4400, 73.08740
411.6340, 27.07080
412.8280, 37.04980
414.0220, 4.026123
415.2160, 16.99707
416.4100, 47.97070
417.6030, 2.941650
418.7970, 78.90601
419.9900, 3.133057
421.1830, 19.17993
422.3760, 34.24097
423.5690, 31.32349
424.7610, 4.425049
425.9540, 4.533936
427.1460, 20.35034
428.3380, 44.76904
429.5300, 44.91528
430.7220, 75.08740
431.9140, 30.29907
433.1050, 33.52271
434.2970, 48.23975
435.4880, 1.992188
436.6790, 32.57300
437.8700, 16.88867
439.0610, 19.66724
440.2510, 80.08936
441.4420, 17.74829
442.6320, 58.74829
443.8220, 98.68701
445.0120, 137.1924
446.2020, 164.2559
447.3910, 147.3369
448.5810, 221.1953
449.7700, 130.1692
450.9600, 129.1550
452.1490, 205.0811
453.3370, 138.9839
454.5260, 145.8018
455.7150, 123.6157
456.9030, 137.4744
458.0910, 101.5427
459.2800, 71.51978
460.4670, 40.31885
461.6550, 22.88721
462.8430, 31.88770
464.0300, 33.34277
465.2180, 17.40234
466.4050, 49.14209
467.5920, 39.87598
468.7790, 16.39600
469.9650, 1.684082
471.1520, 22.97607
472.3380, 10.28760
473.5250, 9.611328
474.7110, 76.05127
475.8970, 69.29053
477.0820, 105.6685
478.2680, 10.10938
479.4540, 17.56348
480.6390, 2.465332
481.8240, 64.48730
483.0090, 49.00293
484.1940, 72.51318
485.3780, 126.0186
486.5630, 150.5195
487.7470, 231.0195
488.9320, 250.5166
490.1160, 419.0381
491.3000, 546.5562
492.4830, 733.0693
493.6670, 1039.577
494.8500, 1281.082
496.0340, 1835.583
497.2170, 2336.082
498.4000, 2875.579
499.5820, 3301.069
500.7650, 3406.575
501.9480, 3084.076
503.1300, 2595.580
504.3120, 2112.078
505.4940, 1641.574
506.6760, 1317.064
507.8580, 1074.550
509.0390, 869.0366
510.2210, 745.5220
511.4020, 581.0034
512.5830, 469.4795
513.7640, 462.9502
514.9450, 391.4165
516.1250, 449.8779
517.3060, 402.3374
518.4860, 330.7925
519.6660, 392.2485
520.8460, 401.7041
522.0260, 358.1880
523.2060, 393.6826
524.3850, 442.1953
525.5650, 404.7139
526.7440, 366.2393
527.9230, 262.7749
529.1020, 330.3325
530.2810, 284.8882
531.4590, 322.4844
532.6380, 209.0752
533.8160, 290.6636
534.9940, 256.2466
536.1720, 239.8218
537.3500, 296.3911
538.5270, 148.9736
539.7050, 289.5503
540.8820, 285.1191
542.0590, 169.6948
543.2360, 249.2632
544.4130, 376.8252
545.5900, 320.3237
546.7660, 355.7871
547.9430, 456.3354
549.1190, 430.8877
550.2950, 619.2236
551.4710, 663.7715
552.6470, 642.2158
553.8220, 726.4785
554.9980, 628.7959
556.1730, 576.9692
557.3480, 514.2080
558.5230, 457.5688
559.6980, 366.7427
560.8730, 335.2290
562.0470, 280.0698
563.2220, 298.4761
564.3960, 213.8677
565.5700, 205.4297
566.7440, 211.3384
567.9170, 131.2334
569.0910, 144.4214
570.2640, 199.0869
571.4380, 164.7305
572.6110, 206.4673
573.7840, 133.0049
574.9570, 98.33008
576.1290, 103.5918
577.3020, 39.51709
578.4740, 28.69678
579.6460, 98.80225
580.8180, 24.95117
581.9900, 28.58350
583.1620, 23.65723
584.3330, 38.87695
585.5040, 25.71729
586.6760, 10.85010
587.8470, 9.148438
589.0180, 65.45996
590.1880, 39.01807
591.3590, 37.28467
592.5290, 53.84277
593.7000, 59.08740
594.8700, 114.4302
596.0400, 98.65430
597.2090, 67.95312
598.3790, 17.15723
599.5490, 38.34912
600.7180, 164.4458
601.8870, 100.4023
603.0560, 151.0918
604.2250, 136.1255
605.3940, 176.1172
606.5620, 215.0894
607.7300, 250.1812
608.8990, 279.3252
610.0670, 309.4336
611.2350, 347.7944
612.4020, 345.3555
613.5700, 414.7319
614.7370, 397.0063
615.9050, 564.9951
617.0720, 519.4355
618.2390, 470.7046
619.4060, 581.0845
620.5720, 694.9468
621.7390, 615.7759
622.9050, 676.6587
624.0710, 874.6987
625.2370, 964.8135
626.4030, 1010.795
627.5690, 1181.644
628.7340, 1129.975
629.9000, 1219.832
631.0650, 1403.142
632.2300, 1524.062
633.3950, 1645.001
634.5600, 1746.150
635.7240, 1943.196
636.8890, 2140.712
638.0530, 2349.891
639.2170, 2665.720
640.3810, 2971.259
641.5450, 3399.363
642.7080, 3997.797
643.8720, 4503.678
645.0350, 5189.127
646.1980, 6287.083
647.3610, 7432.140
648.5240, 8959.271
649.6870, 10956.88
650.8490, 13472.03
652.0120, 16445.95
653.1740, 19707.90
654.3360, 23605.90
655.4980, 27600.83
656.6600, 30655.50
657.8210, 33833.48
658.9830, 35014.53
660.1440, 35024.51
661.3050, 32995.16
662.4660, 29665.66
663.6270, 25978.74
664.7870, 22146.14
665.9480, 18394.74
667.1080, 15467.17
668.2680, 12628.12
669.4280, 10239.70
670.5880, 8601.271
671.7480, 7100.014
672.9070, 5976.531
674.0670, 5029.290
675.2260, 4338.694
676.3850, 3771.354
677.5440, 3219.367
678.7030, 2711.951
679.8610, 2524.578
681.0200, 2221.860
682.1780, 1947.306
683.3360, 1699.893
684.4940, 1530.644
685.6520, 1386.681
686.8090, 1273.393
687.9670, 1203.795
689.1240, 1098.239
690.2810, 992.4316
691.4380, 986.6572
692.5950, 970.7529
693.7520, 870.5215
694.9080, 834.8604
696.0650, 766.0312
697.2210, 735.2490
698.3770, 696.1338
699.5330, 623.5225
700.6880, 583.6226
701.8440, 582.6401
702.9990, 524.6357
704.1550, 543.6211
705.3100, 488.1196
706.4650, 449.5581
707.6190, 367.5024
708.7740, 378.4287
709.9290, 260.3491
711.0830, 316.2627
712.2370, 268.1787
713.3910, 276.0840
714.5450, 245.9800
715.6980, 210.8584
716.8520, 193.5703
718.0050, 148.2188
719.1580, 114.0444
720.3110, 137.2080
721.4640, 96.11719
722.6170, 139.6655
723.7700, 126.2583
724.9220, 80.26904
726.0740, 170.7031
727.2260, 135.1104
728.3780, 73.73389
729.5300, 188.2251
730.6810, 10.68945
731.8330, 142.1890
732.9840, 113.6909
734.1350, 141.2559
735.2860, 118.8027
736.4370, 157.2822
737.5880, 181.5303
738.7380, 144.1831
739.8880, 146.8374
741.0390, 85.77637
742.1890, 105.2192
743.3380, 90.64453
744.4880, 100.0601
745.6380, 100.4575
746.7870, 154.8359
747.9360, 110.1978
749.0850, 6.546387
750.2340, 86.86719
751.3830, 53.17578
752.5310, 82.46826
753.6800, 137.7461
754.8280, 4.994141
755.9760, 95.24951
757.1240, 40.50342
758.2720, 63.74072
759.4190, 70.96484
760.5670, 139.1704
761.7140, 74.35938
762.8610, 77.52930
764.0080, 121.6797
765.1550, 13.81250
766.3020, 35.91797
767.4480, 84.99658
768.5950, 35.01074
769.7410, 120.9971
770.8870, 112.9663
772.0330, 59.91748
773.1780, 80.85010
774.3240, 18.76318
775.4690, 42.65283
776.6140, 160.5229
777.7590, 51.62402
778.9040, 50.17090
780.0490, 3.052734
781.1940, 96.69092
782.3380, 15.41699
783.4820, 71.12012
784.6260, 43.80566
785.7700, 0.5278320
786.9140, 8.108887
788.0580, 23.72021
789.2010, 62.31152
790.3450, 48.92188
791.4880, 32.44043
792.6310, 48.97656
793.7730, 3.495605
794.9160, 26.98828
796.0590, 3.538086
797.2010, 3.093750
798.3430, 109.6782
799.4850, 44.34717
800.6270, 70.06592
801.7690, 27.84766
802.9100, 31.66992
804.0520, 45.53467
805.1930, 86.44922
806.3340, 1.434082
807.4750, 161.4438
808.6160, 30.43701
809.7560, 2.698242
810.8970, 17.14160
812.0370, 111.9639
813.1770, 29.77295
814.3170, 61.43408
815.4570, 37.30420
816.5960, 22.02783
817.7360, 36.26465
818.8750, 54.40332
820.0140, 15.05713
821.1530, 107.6953
822.2920, 20.32031
823.4310, 63.06836
824.5690, 37.49023
825.7070, 22.03467
826.8460, 25.43457
827.9840, 63.06494
829.1220, 57.44873
830.2590, 69.00879
831.3970, 19.37891
832.5340, 61.24707
833.6710, 37.07910
834.8080, 26.60693
835.9450, 1.321777
837.0820, 47.94824
838.2190, 62.20605
839.3550, 136.4536
840.4910, 110.6909
841.6270, 110.9170
842.7630, 144.1328
843.8990, 106.3389
845.0350, 227.5342
846.1700, 277.7188
847.3060, 250.8945
848.4410, 347.0596
849.5760, 318.8525
850.7100, 220.3618
851.8450, 307.4980
852.9800, 293.6240
854.1140, 299.7417
855.2480, 324.8516
856.3820, 265.8149
857.5160, 219.8799
858.6500, 213.7798
859.7830, 241.8555
860.9170, 236.9395
862.0500, 267.1050
863.1830, 279.7695
864.3160, 313.8135
865.4480, 337.5938
866.5810, 332.6479
867.7130, 373.3916
868.8460, 427.4312
869.9780, 332.3560
871.1100, 409.3818
872.2410, 316.3164
873.3730, 361.3281
874.5050, 368.3350
875.6360, 412.3359
876.7670, 388.3301
877.8980, 387.1025
879.0290, 401.4268
880.1590, 327.7368
881.2900, 377.5566
882.4200, 385.3735
883.5500, 301.3320
884.6800, 378.1816
885.8100, 393.7529
886.9400, 343.4980
888.0690, 287.1011
889.1990, 328.8232
890.3280, 409.7524
891.4570, 276.6475
892.5860, 314.4146
893.7140, 258.9502
894.8430, 231.5874
895.9710, 275.2520
897.1000, 235.9272
898.2280, 325.8359
899.3560, 245.5220
900.4830, 285.3911
901.6110, 337.3794
902.7380, 340.8721
903.8660, 406.8398
904.9930, 325.3418
906.1200, 391.2373
907.2460, 360.0991
908.3730, 414.7578
909.5000, 415.5142
910.6260, 312.7891
911.7520, 325.3887
912.8780, 421.3345
914.0040, 336.5586
915.1290, 420.2036
916.2550, 297.5146
917.3800, 317.3765
918.5050, 368.6562
919.6300, 314.2573
920.7550, 487.1011
921.8800, 250.6812
923.0040, 352.7720
924.1290, 218.3179
925.2530, 303.1060
926.3770, 296.8413
927.5010, 222.5117
928.6250, 238.2549
929.7480, 270.2427
930.8720, 243.8984
931.9950, 298.7539
933.1180, 260.1377
934.2410, 357.1431
935.3640, 295.2720
936.4860, 275.8120
937.6090, 155.0352
938.7310, 147.0625
939.8530, 111.2559
940.9750, 76.71582
942.0970, 98.90332
943.2180, 79.05176
944.3400, 151.9189
945.4610, 210.0034
946.5820, 285.8350
947.7030, 313.0161
948.8240, 119.9302
949.9450, 209.4829
951.0650, 176.4751
952.1860, 225.4185
953.3060, 281.6938
954.4260, 290.7974
955.5460, 268.7480
956.6650, 336.0103
957.7850, 382.0107
958.9040, 332.8110
960.0230, 454.9111
961.1420, 345.9678
962.2610, 439.2725
963.3800, 394.5352
964.4990, 468.9189
965.6170, 417.6221
966.7350, 400.7480
967.8530, 417.0327
968.9710, 369.2637
970.0890, 508.8198
971.2070, 523.8643
972.3240, 564.1885
973.4410, 602.5884
974.5580, 633.7148
975.6750, 733.4424
976.7920, 743.8877
977.9090, 785.3423
979.0250, 915.8076
980.1410, 894.2832
981.2580, 901.7690
982.3740, 926.2656
983.4890, 1079.772
984.6050, 1151.291
985.7200, 1388.818
986.8360, 1358.357
987.9510, 1581.907
989.0660, 1562.468
990.1810, 1796.040
991.2950, 2078.622
992.4100, 2440.227
993.5240, 2684.842
994.6390, 3101.468
995.7530, 3740.106
996.8660, 4224.758
997.9800, 4972.418
999.0940, 5930.091
1000.207, 7063.777
1001.320, 8851.474
1002.433, 10845.19
1003.546, 13732.91
1004.659, 17616.65
1005.772, 22506.41
1006.884, 29051.17
1007.996, 36001.95
1009.108, 43941.73
1010.220, 50874.54
1011.332, 55610.34
1012.444, 55390.17
1013.555, 51704.02
1014.666, 44644.87
1015.777, 35975.73
1016.888, 28014.60
1017.999, 21417.49
1019.110, 16274.39
1020.220, 12561.31
1021.331, 9983.523
1022.441, 8049.468
1023.551, 6784.425
1024.661, 5862.397
1025.770, 5154.389
1026.880, 4578.703
1027.989, 4259.722
1029.098, 3745.754
1030.207, 3680.801
1031.316, 3586.858
1032.425, 3365.930
1033.533, 3438.014
1034.642, 3317.110
1035.750, 3226.428
1036.858, 3152.810
1037.966, 3173.979
1039.073, 3091.925
1040.181, 2994.331
1041.288, 2936.604
1042.396, 2787.896
1043.503, 2556.130
1044.610, 2422.709
1045.716, 2001.091
1046.823, 1883.364
1047.929, 1588.669
1049.036, 1613.907
1050.142, 1411.994
1051.248, 1302.342
1052.353, 1202.436
1053.459, 1248.701
1054.564, 941.0889
1055.670, 1014.494
1056.775, 1064.025
1057.880, 871.6606
1058.985, 930.1055
1060.089, 959.5625
1061.194, 884.0312
1062.298, 849.5127
1063.402, 822.0088
1064.506, 767.5176
1065.610, 680.1909
1066.713, 747.4673
1067.817, 657.0552
1068.920, 636.6704
1070.023, 514.6675
1071.126, 589.0942
1072.229, 613.3091
1073.332, 671.9131
1074.435, 535.6729
1075.537, 481.6245
1076.639, 583.4551
1077.741, 627.2954
1078.843, 606.1499
1079.945, 567.2158
1081.046, 516.0894
1082.148, 544.9727
1083.249, 498.3105
1084.350, 498.5454
1085.451, 579.5171
1086.551, 478.4692
1087.652, 538.4302
1088.752, 521.8042
1089.853, 606.7822
1090.953, 577.0444
1092.053, 439.9243
1093.152, 506.4980
1094.252, 517.1123
1095.351, 412.1602
1096.451, 408.2163
1097.550, 450.2969
1098.649, 488.7285
1099.748, 374.8442
1100.846, 368.9863
1101.945, 366.1353
1103.043, 349.3003
1104.141, 392.4731
1105.239, 380.6533
1106.337, 356.8403
1107.434, 448.1270
1108.532, 399.3267
1109.629, 414.5337
1110.726, 333.7456
1111.823, 378.9644
1112.920, 382.1890
1114.017, 455.4194
1115.113, 485.6558
1116.210, 540.7788
1117.306, 551.1470
1118.402, 701.4009
1119.498, 845.6606
1120.593, 1018.926
1121.689, 1050.196
1122.784, 961.4727
1123.879, 1018.746
1124.974, 843.0327
1126.069, 802.3247
1127.164, 599.6211
1128.259, 509.9224
1129.353, 376.2290
1130.447, 336.5396
1131.541, 197.8545
1132.635, 366.1748
1133.729, 325.5000
1134.822, 276.8286
1135.916, 193.1621
1137.009, 340.2861
1138.102, 108.6270
1139.195, 174.9727
1140.288, 311.3223
1141.380, 271.6748
1142.473, 249.0317
1143.565, 78.39160
1144.657, 159.7554
1145.749, 101.1230
1146.841, 75.49316
1147.932, 109.8672
1149.024, 141.2441
1150.115, 80.62402
1151.206, 119.0068
1152.297, 12.60742
1153.388, 92.77832
1154.479, 30.16602
1155.569, 65.55566
1156.659, 22.95605
1157.750, 33.64062
1158.839, 57.75195
1159.929, 72.14648
1161.019, 7.542969
1162.108, 4.941406
1163.198, 23.34082
1164.287, 59.74414
1165.376, 45.14746
1166.465, 6.446289
1167.553, 60.04297
1168.642, 27.33301
1169.730, 70.28906
1170.818, 13.05371
1171.906, 70.60254
1172.994, 38.26758
1174.082, 67.02246
1175.170, 6.686523
1176.257, 37.39746
1177.344, 105.8721
1178.431, 88.14355
1179.518, 32.58691
1180.605, 29.33398
1181.691, 9.902344
1182.778, 59.83398
1183.864, 13.60254
1184.950, 50.61914
1186.036, 99.83984
1187.122, 15.93848
1188.207, 80.72949
1189.292, 83.43359
1190.378, 54.59570
1191.463, 102.7568
1192.548, 43.91895
1193.632, 133.0889
1194.717, 117.2588
1195.801, 60.57422
1196.886, 69.44336
1197.970, 19.64453
1199.054, 74.73242
1200.137, 14.18262
1201.221, 52.11133
1202.305, 16.07520
1203.388, 117.0576
1204.471, 18.89258
1205.554, 7.842773
1206.637, 71.78809
1207.719, 80.73047
1208.802, 45.66895
1209.884, 8.394531
1210.966, 29.52637
1212.048, 91.44531
1213.130, 74.64062
1214.212, 7.224609
1215.293, 177.0811
1216.374, 205.9346
1217.456, 61.78516
1218.536, 7.631836
1219.617, 151.4697
1220.698, 15.30371
1221.778, 44.13281
1222.859, 10.04199
1223.939, 10.23633
1225.019, 78.55078
1226.099, 59.33398
1227.178, 66.11328
1228.258, 12.88867
1229.337, 54.65527
1230.417, 151.4170
1231.496, 78.17676
1232.574, 72.92969
1233.653, 57.67871
1234.732, 182.4219
1235.810, 59.16113
1236.888, 0.8955080
1237.966, 159.6152
1239.044, 78.32812
1240.122, 154.0371
1241.199, 204.7412
1242.277, 111.4404
1243.354, 176.1348
1244.431, 156.8242
1245.508, 232.5098
1246.585, 118.1895
1247.661, 72.86328
1248.738, 185.5332
1249.814, 61.19727
1250.890, 261.8555
1251.966, 106.5088
1253.042, 9.843750
1254.117, 196.7930
1255.193, 85.42383
1256.268, 195.0498
1257.343, 186.6699
1258.418, 114.2822
1259.493, 261.8896
1260.567, 94.49219
1261.642, 66.08887
1262.716, 70.67871
1263.790, 144.2617
1264.864, 142.8408
1265.938, 13.41211
1267.011, 123.9717
1268.085, 76.52344
1269.158, 133.0684
1270.231, 156.6104
1271.304, 55.14355
1272.377, 55.67188
1273.450, 89.19434
1274.522, 95.71094
1275.594, 95.22168
1276.666, 107.0898
1277.738, 95.22754
1278.810, 104.7236
1279.882, 180.2139
1280.953, 176.1426
1282.025, 194.2295
1283.096, 204.6367
1284.167, 190.8262
1285.238, 188.0635
1286.308, 162.5156
1287.379, 136.6504
1288.449, 195.0898
1289.519, 187.5225
1290.589, 111.9502
1291.659, 257.3691
1292.729, 103.7822
1293.798, 204.1885
1294.868, 182.6133
1295.937, 118.8037
1297.006, 208.9385
1298.075, 226.3203
1299.143, 161.7236
1300.212, 108.0938
1301.280, 45.38965
1302.348, 151.6758
1303.416, 84.02539
1304.484, 187.4336
1305.552, 112.6494
1306.620, 206.9854
1307.687, 250.3105
1308.754, 242.7090
1309.821, 281.8857
1310.888, 231.2656
1311.955, 286.8369
1313.021, 184.2412
1314.088, 157.5312
1315.154, 115.8145
1316.220, 128.9824
1317.286, 126.0527
1318.352, 169.3203
1319.417, 260.6709
1320.483, 300.0215
1321.548, 289.4014
1322.613, 247.7480
1323.678, 281.1045
1324.743, 275.1924
1325.807, 249.6914
1326.872, 298.1318
1327.936, 335.3545
1329.000, 232.2266
1330.064, 335.6865
1331.128, 154.4150
1332.191, 308.7402
1333.255, 161.7617
1334.318, 314.7852
1335.381, 214.9834
1336.444, 329.1787
1337.507, 164.3701
1338.569, 132.3584
1339.632, 85.54590
1340.694, 172.7285
1341.756, 106.6885
1342.818, 221.3096
1343.880, 112.4863
1344.941, 39.66016
1346.003, 128.8320
1347.064, 266.5986
1348.125, 189.7656
1349.186, 238.8008
1350.247, 219.9961
1351.308, 180.6064
1352.368, 200.8262
1353.428, 163.8896
1354.489, 178.4971
1355.549, 132.7002
1356.608, 81.53125
1357.668, 86.79883
1358.727, 177.8301
1359.787, 110.9785
1360.846, 176.1240
1361.905, 170.2686
1362.964, 157.4121
1364.022, 156.5557
1365.081, 121.6025
1366.139, 142.7412
1367.197, 143.4609
1368.255, 171.0420
1369.313, 125.1660
1370.371, 271.2891
1371.428, 172.5352
1372.486, 150.7588
1373.543, 99.89355
1374.600, 291.0137
1375.657, 268.1328
1376.713, 218.2520
1377.770, 152.3652
1378.826, 239.4805
1379.882, 191.5938
1380.938, 231.5273
1381.994, 79.58789
1383.050, 35.73926
1384.106, 114.7979
1385.161, 128.8564
1386.216, 92.89453
1387.271, 112.9277
1388.326, 226.9619
1389.381, 146.9922
1390.435, 215.0234
1391.490, 212.0527
1392.544, 67.07227
1393.598, 93.30566
1394.652, 175.3682
1395.705, 123.4121
1396.759, 50.42969
1397.812, 135.6055
1398.866, 114.7705
1399.919, 79.78613
1400.972, 168.8691
1402.024, 36.88281
1403.077, 199.8945
1404.129, 173.9775
1405.181, 123.9883
1406.233, 140.0469
1407.285, 105.2139
1408.337, 35.22070
1409.389, 58.23047
1410.440, 51.23828
1411.491, 26.75879
1412.542, 52.23633
1413.593, 140.2305
1414.644, 121.2314
1415.695, 112.3750
1416.745, 75.32715
1417.795, 58.27930
1418.845, 39.93066
1419.895, 40.29199
1420.945, 22.66699
1421.995, 43.61816
1423.044, 76.57031
1424.093, 48.53320
1425.142, 165.4941
1426.191, 114.4688
1427.240, 153.4199
1428.289, 151.3574
1429.337, 36.32520
1430.385, 5.708984
1431.433, 137.2559
1432.481, 28.22754
1433.529, 122.1924
1434.577, 105.1572
1435.624, 11.10938
1436.672, 104.9336
1437.719, 122.9932
1438.766, 32.93457
1439.812, 95.87988
1440.859, 170.8252
1441.905, 123.7715
1442.952, 87.72754
1443.998, 87.74414
1445.044, 9.736328
1446.090, 8.691406
1447.135, 33.51172
1448.181, 8.513672
1449.226, 4.830078
1450.271, 80.91406
1451.316, 93.05371
1452.361, 1.805664
1453.405, 112.3809
1454.450, 113.6377
1455.494, 154.8945
1456.538, 25.14941
1457.582, 72.41406
1458.626, 12.29492
1459.670, 71.02637
1460.713, 212.3486
1461.757, 161.6758
1462.800, 99.00586
1463.843, 134.3623
1464.886, 68.73047
1465.928, 96.10059
1466.971, 88.47656
1468.013, 136.8535
1469.055, 70.23340
1470.097, 187.6230
1471.139, 95.02051
1472.181, 192.4209
1473.222, 169.8232
1474.263, 38.22852
1475.305, 33.63770
1476.346, 90.04980
1477.386, 154.4688
1478.427, 48.88184
1479.468, 56.29980
1480.508, 31.72559
1481.548, 178.1553
1482.588, 217.5938
1483.628, 192.5479
1484.668, 196.1611
1485.707, 141.9717
1486.747, 94.44824
1487.786, 84.93164
1488.825, 79.42383
1489.864, 179.9121
1490.902, 83.40820
1491.941, 40.91309
1492.979, 205.6846
1494.017, 94.17480
1495.055, 83.67383
1496.093, 20.18555
1497.131, 25.70801
1498.168, 47.19824
1499.206, 142.7412
1500.243, 83.29395
1501.280, 128.8633
1502.317, 232.7578
1503.354, 83.33984
1504.390, 82.94434
1505.426, 44.63086
1506.463, 137.8184
1507.499, 23.27930
1508.535, 92.75293
1509.570, 110.0674
1510.606, 295.1748
1511.641, 56.17383
1512.676, 170.6045
1513.711, 173.5986
1514.746, 82.03320
1515.781, 72.39160
1516.816, 97.03711
1517.850, 78.43848
1518.884, 35.83887
1519.918, 40.23633
1520.952, 70.62891
1521.986, 10.01758
1523.019, 12.39941
1524.053, 72.75195
1525.086, 33.04102
1526.119, 57.40137
1527.152, 71.62012
1528.185, 15.04004
1529.217, 82.28711
1530.250, 40.60156
1531.282, 14.90039
1532.314, 69.18262
1533.346, 56.37305
1534.377, 107.6924
1535.409, 103.2578
1536.440, 237.4688
1537.472, 298.7031
1538.503, 222.9336
1539.534, 5.791992
1540.564, 143.6807
1541.595, 91.88281
1542.625, 61.22363
1543.656, 83.56348
1544.686, 8.101563
1545.716, 86.79199
1546.745, 108.6309
1547.775, 216.9219
1548.804, 192.4609
1549.834, 189.3535
1550.863, 113.6182
1551.892, 191.2441
1552.920, 213.1113
1553.949, 202.8379
1554.977, 272.5234
1556.006, 142.1250
1557.034, 73.86133
1558.062, 111.9365
1559.089, 61.21484
1560.117, 144.7656
1561.144, 142.2568
1562.172, 133.9297
1563.199, 72.90430
1564.226, 190.9355
1565.252, 183.0664
1566.279, 112.6230
1567.305, 58.86133
1568.332, 148.6318
1569.358, 104.1641
1570.384, 0.8222660
1571.409, 100.2422
1572.435, 0.0000000E+00
##END=



