##NAMES=Diopside
##RRUFFID=R060276
##IDEAL CHEMISTRY=CaMgSi_2_O_6_
##LOCALITY=Inagli, Yakutia, Siberia, Russia
##OWNER=RRUFF
##SOURCE=Herb Obodda
##DESCRIPTION=Transparent green cleavage fragment
##STATUS=The identification of this mineral has been confirmed by X-ray diffraction and chemical analysis
##URL=rruff.info/R060276
##MEASURED CHEMISTRY=(Ca_0.97_Na_0.03_)_Σ=1_(Mg_0.96_Fe_0.03_Cr_0.01_)_Σ=1_(Si_1.98_Al_0.02_)_Σ=2_O_6_
##PIN_ID=L01339
##ORIENTATION=Laser parallel to -b* (0 -1 0). Fiducial mark perpendicular to laser is parallel to c [0 0 1]
109.5120, 0.0000000E+00
110.7440, 94.12207
111.9760, 8.624023
113.2080, 57.01562
114.4400, 30.08691
115.6710, 280.1367
116.9030, 267.8916
118.1340, 355.7734
119.3650, 165.5996
120.5960, 363.5000
121.8270, 433.8418
123.0580, 592.2324
124.2880, 839.2432
125.5190, 1175.056
126.7490, 1646.378
127.9790, 2070.424
129.2090, 2802.688
130.4390, 3396.308
131.6680, 4048.215
132.8980, 4968.266
134.1270, 5786.318
135.3560, 6948.166
136.5850, 7998.787
137.8140, 8850.019
139.0430, 9101.804
140.2710, 9008.110
141.5000, 8660.896
142.7280, 8185.127
143.9560, 7180.778
145.1840, 6064.820
146.4120, 4746.234
147.6390, 3567.979
148.8670, 2753.154
150.0940, 1916.028
151.3210, 1728.540
152.5490, 1333.831
153.7750, 965.3125
155.0020, 874.9043
156.2290, 743.6094
157.4550, 714.4287
158.6810, 565.3760
159.9080, 478.7783
161.1340, 497.5586
162.3590, 439.0586
163.5850, 547.2793
164.8110, 455.4512
166.0360, 498.7607
167.2610, 519.2061
168.4860, 379.7871
169.7110, 358.5010
170.9360, 308.3486
172.1610, 269.3232
173.3850, 382.4189
174.6100, 225.6309
175.8340, 266.9590
177.0580, 148.3994
178.2820, 241.9453
179.5050, 237.5996
180.7290, 313.3545
181.9520, 296.2090
183.1760, 387.1289
184.3990, 453.9893
185.6220, 285.8184
186.8450, 342.6504
188.0670, 421.8086
189.2900, 338.5342
190.5120, 534.4170
191.7340, 483.3105
192.9560, 553.5635
194.1780, 532.0000
195.4000, 495.4238
196.6220, 588.9277
197.8430, 449.5488
199.0640, 358.3174
200.2860, 266.1650
201.5070, 308.0898
202.7270, 134.0947
203.9480, 80.18457
205.1690, 148.4629
206.3890, 78.97754
207.6090, 50.70410
208.8290, 57.50879
210.0490, 159.6611
211.2690, 96.24414
212.4890, 37.20996
213.7080, 33.76660
214.9280, 264.3154
216.1470, 153.4570
217.3660, 293.9766
218.5850, 324.9141
219.8030, 454.2285
221.0220, 597.6006
222.2400, 630.0264
223.4590, 692.5586
224.6770, 967.1973
225.8950, 940.8887
227.1120, 1190.632
228.3300, 1281.514
229.5480, 1153.441
230.7650, 1211.427
231.9820, 1232.467
233.1990, 974.5059
234.4160, 873.5586
235.6330, 635.6445
236.8490, 519.7695
238.0660, 448.9346
239.2820, 447.1367
240.4980, 209.3779
241.7140, 250.6543
242.9300, 226.9688
244.1460, 240.3193
245.3610, 281.7051
246.5770, 250.1250
247.7920, 486.5811
249.0070, 378.0684
250.2220, 730.5898
251.4370, 710.1445
252.6510, 663.7305
253.8660, 799.3477
255.0800, 665.9961
256.2940, 779.3398
257.5080, 445.8164
258.7220, 487.8145
259.9360, 250.3203
261.1490, 240.1660
262.3630, 52.30273
263.5760, 5.693359
264.7890, 31.69238
266.0020, 101.8838
267.2150, 109.9082
268.4270, 11.78711
269.6400, 32.48047
270.8520, 92.11523
272.0640, 16.40039
273.2760, 77.96680
274.4880, 114.2383
275.7000, 115.4258
276.9120, 95.53613
278.1230, 97.57227
279.3340, 61.54004
280.5450, 38.72363
281.7560, 40.12207
282.9670, 62.35254
284.1780, 58.49121
285.3880, 189.5439
286.5980, 164.3154
287.8090, 195.0928
289.0190, 100.3037
290.2290, 204.8750
291.4380, 190.4951
292.6480, 196.1631
293.8570, 439.0820
295.0670, 517.8398
296.2760, 584.0898
297.4850, 702.9375
298.6930, 796.0176
299.9020, 939.1191
301.1110, 1062.877
302.3190, 1091.130
303.5270, 1152.372
304.7350, 1257.484
305.9430, 1364.476
307.1510, 1400.502
308.3580, 1425.557
309.5660, 1702.640
310.7730, 2034.755
311.9800, 2283.911
313.1870, 2720.104
314.3940, 3196.347
315.6010, 3723.617
316.8070, 4623.941
318.0130, 5188.297
319.2200, 5868.676
320.4260, 6755.084
321.6310, 7318.536
322.8370, 7307.033
324.0430, 7303.557
325.2480, 6927.107
326.4540, 6219.684
327.6590, 5615.283
328.8640, 4810.904
330.0680, 3973.547
331.2730, 3289.210
332.4780, 2691.894
333.6820, 2175.563
334.8860, 1863.221
336.0900, 1755.127
337.2940, 1604.784
338.4980, 1446.429
339.7010, 1368.019
340.9050, 1320.606
342.1080, 1300.218
343.3110, 1454.911
344.5140, 1547.805
345.7170, 1767.477
346.9200, 1896.359
348.1220, 2018.278
349.3240, 2444.010
350.5270, 2964.334
351.7290, 3299.101
352.9310, 3958.881
354.1320, 4411.397
355.3340, 4525.130
356.5350, 4768.958
357.7370, 5003.800
358.9380, 4887.016
360.1390, 4759.887
361.3400, 4410.771
362.5400, 4060.670
363.7410, 4007.583
364.9410, 3525.509
366.1410, 3285.446
367.3410, 3120.396
368.5410, 2878.359
369.7410, 2455.334
370.9400, 2384.318
372.1400, 2277.314
373.3390, 2251.322
374.5380, 2420.340
375.7370, 2476.365
376.9360, 2845.402
378.1350, 3275.447
379.3330, 3883.504
380.5310, 4550.566
381.7300, 5602.641
382.9280, 6582.721
384.1260, 7477.812
385.3230, 8707.910
386.5210, 9883.020
387.7180, 10564.13
388.9160, 11069.25
390.1130, 11072.38
391.3100, 10461.52
392.5060, 9668.668
393.7030, 8380.820
394.9000, 7107.980
396.0960, 5786.146
397.2920, 4597.320
398.4880, 3499.500
399.6840, 2918.686
400.8800, 2211.895
402.0750, 1864.131
403.2710, 1269.393
404.4660, 1231.678
405.6610, 861.9824
406.8560, 797.3047
408.0510, 569.6445
409.2450, 489.2617
410.4400, 484.4238
411.6340, 334.2441
412.8280, 281.3887
414.0220, 381.7988
415.2160, 166.3418
416.4100, 297.7734
417.6030, 233.8398
418.7970, 188.4375
419.9900, 47.97461
421.1830, 128.3320
422.3760, 38.59570
423.5690, 9.751953
424.7610, 60.65430
425.9540, 92.14453
427.1460, 18.35742
428.3380, 5.130859
429.5300, 65.38477
430.7220, 61.06836
431.9140, 54.52734
433.1050, 116.9922
434.2970, 102.4629
435.4880, 87.00781
436.6790, 22.41602
437.8700, 69.89844
439.0610, 14.98633
440.2510, 99.47070
441.4420, 58.02930
442.6320, 127.5781
443.8220, 50.18945
445.0120, 143.8867
446.2020, 92.61133
447.3910, 33.61719
448.5810, 106.8633
449.7700, 149.8770
450.9600, 179.5352
452.1490, 192.0586
453.3370, 161.9121
454.5260, 107.2949
455.7150, 86.43945
456.9030, 115.4102
458.0910, 84.80859
459.2800, 228.3223
460.4670, 329.2090
461.6550, 445.6973
462.8430, 218.9668
464.0300, 287.0020
465.2180, 317.0664
466.4050, 327.7148
467.5920, 339.4570
468.7790, 290.0586
469.9650, 326.5840
471.1520, 211.9043
472.3380, 318.2227
473.5250, 252.7480
474.7110, 129.9219
475.8970, 112.2559
477.0820, 128.5820
478.2680, 121.0938
479.4540, 121.1602
480.6390, 17.41211
481.8240, 326.6699
483.0090, 215.9590
484.1940, 76.24219
485.3780, 17.52930
486.5630, 102.1973
487.7470, 152.0273
488.9320, 49.25195
490.1160, 48.47070
491.3000, 189.6992
492.4830, 10.07422
493.6670, 217.1250
494.8500, 175.3164
496.0340, 269.5098
497.2170, 297.7031
498.4000, 414.9160
499.5820, 547.1230
500.7650, 621.3203
501.9480, 668.5234
503.1300, 959.7246
504.3120, 1017.918
505.4940, 1067.105
506.6760, 1280.285
507.8580, 1276.457
509.0390, 1224.625
510.2210, 1270.781
511.4020, 1071.934
512.5830, 977.0781
513.7640, 813.2500
514.9450, 740.4102
516.1250, 692.5645
517.3060, 524.7168
518.4860, 486.8613
519.6660, 412.9961
520.8460, 585.1270
522.0260, 342.2500
523.2060, 791.3652
524.3850, 571.4746
525.5650, 436.5762
526.7440, 628.6699
527.9230, 560.7559
529.1020, 367.8301
530.2810, 615.8984
531.4590, 630.0117
532.6380, 444.1152
533.8160, 452.2090
534.9940, 619.3008
536.1720, 557.3828
537.3500, 481.5078
538.5270, 631.6289
539.7050, 485.7344
540.8820, 424.8281
542.0590, 399.9102
543.2360, 464.9824
544.4130, 480.0449
545.5900, 465.0957
546.7660, 527.1328
547.9430, 560.1582
549.1190, 691.1660
550.2950, 785.1602
551.4710, 880.1465
552.6470, 1046.131
553.8220, 1148.117
554.9980, 1247.090
556.1730, 1358.043
557.3480, 1631.998
558.5230, 1315.939
559.6980, 1479.875
560.8730, 1413.812
562.0470, 1087.748
563.2220, 896.6797
564.3960, 1044.609
565.5700, 714.1367
566.7440, 530.0469
567.9170, 418.9355
569.0910, 557.9609
570.2640, 407.1172
571.4380, 418.5898
572.6110, 453.4082
573.7840, 462.2051
574.9570, 361.9805
576.1290, 203.7402
577.3020, 287.4805
578.4740, 259.9941
579.6460, 8.695313
580.8180, 217.9531
581.9900, 142.6621
583.1620, 169.1973
584.3330, 206.8125
585.5040, 13.57812
586.6760, 246.4453
587.8470, 178.2852
589.0180, 274.6875
590.1880, 46.26367
591.3590, 10.84961
592.5290, 137.6035
593.7000, 53.45898
594.8700, 12.72461
596.0400, 8.779297
597.2090, 53.42578
598.3790, 118.0117
599.5490, 60.44336
600.7180, 19.28125
601.8870, 102.1855
603.0560, 42.24609
604.2250, 36.26367
605.3940, 36.54688
606.5620, 28.65430
607.7300, 25.75586
608.8990, 84.08398
610.0670, 34.03516
611.2350, 373.8535
612.4020, 222.0938
613.5700, 160.2676
614.7370, 340.5684
615.9050, 214.7070
617.0720, 449.5781
618.2390, 258.7617
619.4060, 361.2363
620.5720, 349.4004
621.7390, 392.0527
622.9050, 591.7207
624.0710, 426.7344
625.2370, 729.6973
626.4030, 825.8008
627.5690, 777.6602
628.7340, 706.4590
629.9000, 800.1523
631.0650, 1003.080
632.2300, 1027.041
633.3950, 1152.055
634.5600, 1196.010
635.7240, 1251.783
636.8890, 1289.531
638.0530, 1428.066
639.2170, 1570.055
640.3810, 1699.287
641.5450, 1754.588
642.7080, 1842.699
643.8720, 1973.434
645.0350, 2201.340
646.1980, 2476.391
647.3610, 2880.672
648.5240, 3233.316
649.6870, 3865.320
650.8490, 4438.006
652.0120, 5093.488
653.1740, 6165.590
654.3360, 7351.531
655.4980, 9185.855
656.6600, 11237.92
657.8210, 13489.96
658.9830, 16461.32
660.1440, 19444.74
661.3050, 22528.78
662.4660, 25223.80
663.6270, 27238.89
664.7870, 28397.50
665.9480, 28538.03
667.1080, 27213.55
668.2680, 25064.34
669.4280, 22046.88
670.5880, 18717.44
671.7480, 15823.38
672.9070, 12642.96
674.0670, 10312.16
675.2260, 8278.852
676.3850, 6902.926
677.5440, 5689.211
678.7030, 4768.465
679.8610, 4105.135
681.0200, 3506.391
682.1780, 3049.004
683.3360, 2444.555
684.4940, 2282.422
685.6520, 1977.037
686.8090, 1909.158
687.9670, 1618.447
689.1240, 1535.768
690.2810, 1302.686
691.4380, 1194.168
692.5950, 1195.018
693.7520, 1031.123
694.9080, 1024.904
696.0650, 935.2246
697.2210, 867.4414
698.3770, 821.1211
699.5330, 889.2480
700.6880, 838.8594
701.8440, 652.4336
702.9990, 386.9727
704.1550, 586.4805
705.3100, 591.9570
706.4650, 671.4004
707.6190, 505.8086
708.7740, 474.1895
709.9290, 434.5410
711.0830, 407.0293
712.2370, 402.1973
713.3910, 423.4453
714.5450, 411.6777
715.6980, 389.8730
716.8520, 407.0371
718.0050, 305.1641
719.1580, 276.6562
720.3110, 268.7168
721.4640, 258.7285
722.6170, 237.3262
723.7700, 313.7441
724.9220, 143.7832
726.0740, 155.7734
727.2260, 7.250000
728.3780, 263.6602
729.5300, 254.8281
730.6810, 205.9297
731.8330, 176.7305
732.9840, 179.8945
734.1350, 74.49414
735.2860, 129.2988
736.4370, 13.76758
737.5880, 193.6895
738.7380, 126.9941
739.8880, 94.89062
741.0390, 289.1465
742.1890, 160.5859
743.3380, 98.22070
744.4880, 191.7910
745.6380, 205.7363
746.7870, 142.5547
747.9360, 226.4746
749.0850, 116.5645
750.2340, 142.5234
751.3830, 153.5742
752.5310, 46.46289
753.6800, 149.4727
754.8280, 207.3730
755.9760, 127.2383
757.1240, 7.931641
758.2720, 119.8750
759.4190, 40.35156
760.5670, 88.65039
761.7140, 136.9512
762.8610, 28.51367
764.0080, 91.03125
765.1550, 66.48047
766.3020, 30.95312
767.4480, 135.3398
768.5950, 37.30469
769.7410, 103.9785
770.8870, 57.22852
772.0330, 254.4492
773.1780, 20.64062
774.3240, 127.7910
775.4690, 40.90039
776.6140, 247.9746
777.7590, 230.0137
778.9040, 1.023438
780.0490, 47.17969
781.1940, 89.09961
782.3380, 150.9844
783.4820, 127.8379
784.6260, 175.4766
785.7700, 82.65039
786.9140, 227.4023
788.0580, 67.37695
789.2010, 99.06055
790.3450, 99.28906
791.4880, 212.2598
792.6310, 113.7832
793.7730, 5.732422
794.9160, 165.7051
796.0590, 82.28516
797.2010, 65.65625
798.3430, 9.992188
799.4850, 138.2891
800.6270, 4.763672
801.7690, 29.42188
802.9100, 238.2246
804.0520, 36.16602
805.1930, 167.5938
806.3340, 28.68359
807.4750, 195.2656
808.6160, 105.6406
809.7560, 185.5117
810.8970, 10.08594
812.0370, 166.7051
813.1770, 184.8184
814.3170, 38.79883
815.4570, 270.4727
816.5960, 136.0234
817.7360, 226.5449
818.8750, 9.039063
820.0140, 137.4922
821.1530, 57.91211
822.2920, 104.2988
823.4310, 212.6562
824.5690, 163.9863
825.7070, 147.2891
826.8460, 241.5605
827.9840, 89.80664
829.1220, 254.0234
830.2590, 161.2129
831.3970, 450.3750
832.5340, 91.51367
833.6710, 106.6230
834.8080, 310.7051
835.9450, 109.7598
837.0820, 266.7852
838.2190, 257.8008
839.3550, 706.7930
840.4910, 356.7617
841.6270, 680.7070
842.7630, 879.6309
843.8990, 661.5273
845.0350, 1253.402
846.1700, 1592.254
847.3060, 1828.082
848.4410, 2130.889
849.5760, 2660.672
850.7100, 3197.432
851.8450, 3747.170
852.9800, 3663.885
854.1140, 3803.578
855.2480, 3716.250
856.3820, 3516.873
857.5160, 3369.438
858.6500, 2820.941
859.7830, 2609.330
860.9170, 2206.904
862.0500, 1758.873
863.1830, 1334.871
864.3160, 1216.426
865.4480, 1173.828
866.5810, 1144.178
867.7130, 967.3125
868.8460, 814.3066
869.9780, 949.2969
871.1100, 852.5410
872.2410, 661.3164
873.3730, 885.6465
874.5050, 790.6953
875.6360, 709.4941
876.7670, 559.0703
877.8980, 555.4473
879.0290, 510.4004
880.1590, 452.9648
881.2900, 495.0410
882.4200, 520.1660
883.5500, 485.0195
884.6800, 626.2070
885.8100, 629.4844
886.9400, 596.2969
888.0690, 579.1387
889.1990, 392.8105
890.3280, 393.6035
891.4570, 455.6250
892.5860, 535.2988
893.7140, 587.4004
894.8430, 580.8945
895.9710, 558.1582
897.1000, 504.1426
898.2280, 434.8027
899.3560, 347.5195
900.4830, 289.0078
901.6110, 395.5254
902.7380, 400.3086
903.8660, 455.9863
904.9930, 302.3828
906.1200, 447.9238
907.2460, 415.1211
908.3730, 238.2734
909.5000, 482.8906
910.6260, 463.4961
911.7520, 362.4805
912.8780, 451.5762
914.0040, 163.5859
915.1290, 56.49219
916.2550, 196.5527
917.3800, 197.9531
918.5050, 228.6055
919.6300, 84.16406
920.7550, 62.91797
921.8800, 114.2773
923.0040, 35.25586
924.1290, 160.5215
925.2530, 189.9570
926.3770, 183.0059
927.5010, 151.6738
928.6250, 160.1777
929.7480, 176.9023
930.8720, 39.61914
931.9950, 288.9785
933.1180, 195.2559
934.2410, 106.8672
935.3640, 28.45703
936.4860, 43.06836
937.6090, 48.02344
938.7310, 97.00391
939.8530, 2.974609
940.9750, 144.6445
942.0970, 111.5391
943.2180, 127.3633
944.3400, 79.76758
945.4610, 245.4980
946.5820, 57.52148
947.7030, 24.97461
948.8240, 310.2578
949.9450, 19.08398
951.0650, 141.9082
952.1860, 174.2773
953.3060, 227.0312
954.4260, 263.3906
955.5460, 267.7773
956.6650, 215.8164
957.7850, 279.0703
958.9040, 572.7773
960.0230, 51.28711
961.1420, 486.7305
962.2610, 437.5508
963.3800, 127.7715
964.4990, 180.5918
965.6170, 134.1543
966.7350, 401.1602
967.8530, 405.4414
968.9710, 370.0391
970.0890, 432.8984
971.2070, 376.2715
972.3240, 723.7344
973.4410, 541.8750
974.5580, 277.9316
975.6750, 645.7832
976.7920, 587.6309
977.9090, 535.4766
979.0250, 775.4414
980.1410, 770.2832
981.2580, 840.1250
982.3740, 792.9609
983.4890, 1033.824
984.6050, 980.6875
985.7200, 1224.549
986.8360, 1242.408
987.9510, 1330.264
989.0660, 1516.119
990.1810, 1617.977
991.2950, 1767.830
992.4100, 1796.682
993.5240, 2316.535
994.6390, 2550.387
995.7530, 2931.242
996.8660, 3017.098
997.9800, 3680.955
999.0940, 4373.828
1000.207, 5141.699
1001.320, 6477.570
1002.433, 7926.443
1003.546, 9899.322
1004.659, 11971.20
1005.772, 15584.08
1006.884, 19102.96
1007.996, 22718.87
1009.108, 26600.77
1010.220, 30153.67
1011.332, 31373.58
1012.444, 31793.47
1013.555, 30299.86
1014.666, 26967.09
1015.777, 23292.28
1016.888, 18896.18
1017.999, 14957.23
1019.110, 11752.27
1020.220, 9090.381
1021.331, 7186.320
1022.441, 5877.438
1023.551, 4917.402
1024.661, 4088.367
1025.770, 3618.484
1026.880, 3239.152
1027.989, 3077.566
1029.098, 2624.223
1030.207, 2560.570
1031.316, 2591.031
1032.425, 2432.211
1033.533, 2527.895
1034.642, 2558.480
1035.750, 2403.746
1036.858, 2741.633
1037.966, 2565.137
1039.073, 3207.691
1040.181, 3323.961
1041.288, 3689.250
1042.396, 3779.613
1043.503, 4440.461
1044.610, 4747.152
1045.716, 4863.750
1046.823, 4920.301
1047.929, 4416.801
1049.036, 4148.602
1050.142, 3628.344
1051.248, 3435.012
1052.353, 2559.457
1053.459, 2542.113
1054.564, 1990.312
1055.670, 1636.074
1056.775, 1262.961
1057.880, 1532.352
1058.985, 1118.160
1060.089, 1236.305
1061.194, 1128.199
1062.298, 996.2891
1063.402, 926.8477
1064.506, 869.6641
1065.610, 768.7617
1066.713, 727.7227
1067.817, 728.4805
1068.920, 652.6016
1070.023, 606.5117
1071.126, 663.9062
1072.229, 389.4531
1073.332, 414.9297
1074.435, 337.2539
1075.537, 528.5742
1076.639, 184.9453
1077.741, 368.3086
1078.843, 327.7344
1079.945, 470.0938
1081.046, 33.74219
1082.148, 528.9414
1083.249, 296.2500
1084.350, 239.6445
1085.451, 513.7148
1086.551, 953.0938
1087.652, 678.1211
1088.752, 786.8984
1089.853, 574.4414
1090.953, 379.7969
1092.053, 252.5391
1093.152, 190.7148
1094.252, 357.8203
1095.351, 218.6719
1096.451, 361.9922
1097.550, 250.6992
1098.649, 62.07422
1099.748, 397.1445
1100.846, 40.69922
1101.945, 405.8750
1103.043, 267.1289
1104.141, 62.62891
1105.239, 36.82812
1106.337, 58.02344
1107.434, 343.4961
1108.532, 436.6641
1109.629, 243.8242
1110.726, 82.10938
1111.823, 149.2461
1112.920, 187.4844
1114.017, 228.5898
1115.113, 237.6250
1116.210, 173.8008
1117.306, 359.1484
1118.402, 353.2891
1119.498, 644.2812
1120.593, 407.3125
1121.689, 461.6836
1122.784, 297.6836
1123.879, 406.6680
1124.974, 590.9414
1126.069, 370.8984
1127.164, 323.5508
1128.259, 397.8438
1129.353, 305.7656
1130.447, 362.9961
1131.541, 188.6016
1132.635, 438.4766
1133.729, 289.3438
1134.822, 326.5703
1135.916, 206.3984
1137.009, 352.2070
1138.102, 325.0039
1139.195, 226.2539
1140.288, 189.1641
1141.380, 306.9141
1142.473, 188.6445
1143.565, 151.3633
1144.657, 36.05859
1145.749, 75.73438
1146.841, 88.39453
1147.932, 171.0273
1149.024, 119.6484
1150.115, 125.2500
1151.206, 119.9727
1152.297, 305.5273
1153.388, 120.0703
1154.479, 168.5938
1155.569, 273.2148
1156.659, 128.7227
1157.750, 41.52734
1158.839, 67.30859
1159.929, 10.70703
1161.019, 91.80078
1162.108, 73.12500
1163.198, 157.3867
1164.287, 37.45703
1165.376, 16.87109
1166.465, 141.2578
1167.553, 48.50391
1168.642, 23.69922
1169.730, 23.47656
1170.818, 252.9922
1171.906, 248.2773
1172.994, 198.2031
1174.082, 84.84375
1175.170, 123.3711
1176.257, 148.2188
1177.344, 175.4414
1178.431, 191.0508
1179.518, 78.64844
1180.605, 139.8047
1181.691, 159.0078
1182.778, 2.820313
1183.864, 9.816406
1184.950, 274.0664
1186.036, 38.63672
1187.122, 3.351563
1188.207, 229.3008
1189.292, 38.37109
1190.378, 57.00391
1191.463, 143.3398
1192.548, 38.64844
1193.632, 212.9180
1194.717, 93.16406
1195.801, 69.37891
1196.886, 101.5586
1197.970, 150.7031
1199.054, 155.1797
1200.137, 422.8125
1201.221, 6.222656
1202.305, 361.7031
1203.388, 143.6172
1204.471, 307.5000
1205.554, 471.3516
1206.637, 309.1836
1207.719, 311.0625
1208.802, 106.8320
1209.884, 281.6211
1210.966, 254.3828
1212.048, 68.96094
1213.130, 266.6602
1214.212, 281.3320
1215.293, 14.97266
1216.374, 473.5781
1217.456, 106.1523
1218.536, 163.6875
1219.617, 220.1914
1220.698, 296.6641
1221.778, 170.1094
1222.859, 66.51562
1223.939, 2.109375
1225.019, 139.2109
1226.099, 290.6953
1227.178, 106.9727
1228.258, 248.1758
1229.337, 80.14062
1230.417, 201.2227
1231.496, 15.02344
1232.574, 477.0273
1233.653, 276.0000
1234.732, 208.3359
1235.810, 293.9570
1236.888, 199.6367
1237.966, 342.4844
1239.044, 284.3047
1240.122, 235.0938
1241.199, 484.7930
1242.277, 241.5195
1243.354, 381.2188
1244.431, 50.11328
1245.508, 248.4688
1246.585, 205.0234
1247.661, 263.5430
1248.738, 375.6992
1249.814, 388.1562
1250.890, 188.5859
1251.966, 341.9844
1253.042, 455.3516
1254.117, 202.6875
1255.193, 276.2461
1256.268, 105.0781
1257.343, 188.3203
1258.418, 307.0469
1259.493, 266.2227
1260.567, 274.3633
1261.642, 540.4766
1262.716, 59.56250
1263.790, 185.6016
1264.864, 387.6172
1265.938, 333.5977
1267.011, 365.9102
1268.085, 164.8320
1269.158, 241.9414
1270.231, 293.8008
1271.304, 297.8516
1272.377, 325.8281
1273.450, 377.9922
1274.522, 334.6602
1275.594, 477.0430
1276.666, 518.4375
1277.738, 562.0820
1278.810, 339.5430
1279.882, 294.9883
1280.953, 245.3828
1282.025, 535.9102
1283.096, 289.2344
1284.167, 249.8398
1285.238, 273.2734
1286.308, 12.52734
1287.379, 178.1836
1288.449, 378.0859
1289.519, 104.7109
1290.589, 66.64062
1291.659, 48.44531
1292.729, 98.50781
1293.798, 13.20312
1294.868, 54.60938
1295.937, 136.4922
1297.006, 52.29297
1298.075, 3.238281
1299.143, 209.2891
1300.212, 31.62109
1301.280, 257.9883
1302.348, 81.50000
1303.416, 59.49609
1304.484, 75.61719
1305.552, 97.18750
1306.620, 6.027344
1307.687, 5.160156
1308.754, 154.8203
1309.821, 136.6992
1310.888, 135.5898
1311.955, 283.7500
1313.021, 95.57031
1314.088, 77.73438
1315.154, 131.4453
1316.220, 129.7422
1317.286, 49.76953
1318.352, 466.3398
1319.417, 360.5781
1320.483, 342.1484
1321.548, 601.2500
1322.613, 434.0625
1323.678, 391.3398
1324.743, 548.4883
1325.807, 383.7422
1326.872, 279.1758
1327.936, 418.0117
1329.000, 229.8086
1330.064, 453.9102
1331.128, 358.6562
1332.191, 589.9297
1333.255, 459.6367
1334.318, 652.3164
1335.381, 199.9727
1336.444, 521.6094
1337.507, 492.6016
1338.569, 474.1914
1339.632, 656.7461
1340.694, 416.5039
1341.756, 411.0234
1342.818, 566.5898
1343.880, 402.9023
1344.941, 526.3555
1346.003, 605.1406
1347.064, 350.1445
1348.125, 404.3555
1349.186, 493.7266
1350.247, 521.6797
1351.308, 370.1680
1352.368, 324.6953
1353.428, 158.4492
1354.489, 187.3164
1355.549, 340.7930
1356.608, 251.9258
1357.668, 443.9766
1358.727, 530.8711
1359.787, 240.1172
1360.846, 356.2461
1361.905, 377.3555
1362.964, 373.2070
1364.022, 502.2891
1365.081, 308.0703
1366.139, 551.1133
1367.197, 366.1406
1368.255, 172.0000
1369.313, 218.9922
1370.371, 347.8438
1371.428, 191.7930
1372.486, 340.7930
1373.543, 288.6094
1374.600, 300.2969
1375.657, 21.14453
1376.713, 337.0078
1377.770, 187.8594
1378.826, 263.3398
1379.882, 375.1602
1380.938, 427.9688
1381.994, 111.4688
1383.050, 38.25000
1384.106, 300.3008
1385.161, 43.69141
1386.216, 259.4258
1387.271, 397.1094
1388.326, 297.8164
1389.381, 224.5117
1390.435, 323.1953
1391.490, 428.4922
1392.544, 216.1562
1393.598, 77.81641
1394.652, 374.4570
1395.705, 108.6172
1396.759, 383.0898
1397.812, 106.6953
1398.866, 434.2891
1399.919, 214.8750
1400.972, 269.4531
1402.024, 199.0195
1403.077, 464.5781
1404.129, 347.1250
1405.181, 377.6641
1406.233, 236.1953
1407.285, 370.7227
1408.337, 267.1055
1409.389, 235.6133
1410.440, 119.1250
1411.491, 321.5078
1412.542, 374.9883
1413.593, 413.1992
1414.644, 501.2930
1415.695, 162.8008
1416.745, 355.5820
1417.795, 219.1133
1418.845, 156.4609
1419.895, 306.3047
1420.945, 305.4531
1421.995, 294.0312
1423.044, 422.4805
1424.093, 327.3242
1425.142, 457.6289
1426.191, 476.7734
1427.240, 156.9141
1428.289, 481.5430
1429.337, 352.5039
1430.385, 119.4844
1431.433, 155.3906
1432.481, 476.6641
1433.529, 298.6797
1434.577, 309.4180
1435.624, 323.7188
1436.672, 316.9727
1437.719, 314.2188
1438.766, 346.3398
1439.812, 275.4336
1440.859, 402.1328
1441.905, 362.0625
1442.952, 371.9609
1443.998, 150.3984
1445.044, 227.7148
1446.090, 276.0859
1447.135, 89.46094
1448.181, 165.3438
1449.226, 171.7891
1450.271, 578.1875
1451.316, 204.5820
1452.361, 424.0547
1453.405, 256.5234
1454.450, 395.9727
1455.494, 217.3125
1456.538, 105.7227
1457.582, 485.1133
1458.626, 225.4844
1459.670, 158.8398
1460.713, 469.1875
1461.757, 500.5195
1462.800, 306.8320
1463.843, 310.1484
1464.886, 307.1523
1465.928, 285.5352
1466.971, 312.9062
1468.013, 66.28125
1469.055, 12.35938
1470.097, 225.9883
1471.139, 483.3281
1472.181, 287.5742
1473.222, 298.8789
1474.263, 443.2305
1475.305, 384.7383
1476.346, 485.0664
1477.386, 289.3867
1478.427, 327.3555
1479.468, 158.9141
1480.508, 14.48438
1481.548, 479.7500
1482.588, 19.99219
1483.628, 241.2695
1484.668, 348.0078
1485.707, 144.9219
1486.747, 224.8164
1487.786, 452.0234
1488.825, 329.2148
1489.864, 491.3945
1490.902, 245.5664
1491.941, 393.7266
1492.979, 354.6641
1494.017, 287.8203
1495.055, 396.7852
1496.093, 223.1445
1497.131, 437.3281
1498.168, 203.5547
1499.206, 50.97266
1500.243, 352.5195
1501.280, 297.2109
1502.317, 288.8984
1503.354, 360.6562
1504.390, 529.5469
1505.426, 518.4531
1506.463, 413.3789
1507.499, 449.3320
1508.535, 369.3047
1509.570, 314.3164
1510.606, 275.2656
1511.641, 280.3047
1512.676, 458.3711
1513.711, 352.4375
1514.746, 441.5469
1515.781, 333.6641
1516.816, 221.8047
1517.850, 342.9766
1518.884, 327.1719
1519.918, 344.3984
1520.952, 283.4922
1521.986, 579.5312
1523.019, 250.8242
1524.053, 520.1484
1525.086, 516.5352
1526.119, 422.9531
1527.152, 338.7617
1528.185, 266.5312
1529.217, 357.0820
1530.250, 351.7109
1531.282, 553.4062
1532.314, 441.3555
1533.346, 743.9961
1534.377, 232.9180
1535.409, 332.9219
1536.440, 143.7734
1537.472, 303.9297
1538.503, 266.1602
1539.534, 238.4609
1540.564, 514.8320
1541.595, 339.2812
1542.625, 246.8125
1543.656, 109.4258
1544.686, 1031.125
1545.716, 1086.934
1546.745, 391.8320
1547.775, 341.8828
1548.804, 51.91797
1549.834, 87.41406
1550.863, 4.960938
1551.892, 16.40234
1552.920, 111.6562
1553.949, 76.77734
1554.977, 277.1016
1556.006, 304.6406
1557.034, 187.4141
1558.062, 349.4453
1559.089, 308.7578
1560.117, 268.3906
1561.144, 351.7930
1562.172, 193.4492
1563.199, 263.6523
1564.226, 160.7266
1565.252, 344.3047
1566.279, 225.4219
1567.305, 253.7070
1568.332, 106.3047
1569.358, 1.648438
1570.384, 72.82812
1571.409, 97.24219
1572.435, 0.0000000E+00
##END=



