##NAMES=Diopside
##RRUFFID=R070123
##IDEAL CHEMISTRY=CaMgSi_2_O_6_
##LOCALITY=Yates mine, Otter Lake, Huddersfield Township, Pontiac County, Québec, Canada
##OWNER=RRUFF
##SOURCE=Michael Scott
##DESCRIPTION=Black prismatic crystals associated with orange calcite
##STATUS=The identification of this mineral has been confirmed by X-ray diffraction and chemical analysis
##URL=rruff.info/R070123
##MEASURED CHEMISTRY=(Ca_0.95_Na_0.04_Mn_0.01_)_Σ=1_(Mg_0.63_Fe_0.33_Al_0.04_)_Σ=1_Si_2.00_O_6_
##PIN_ID=M00826
##ORIENTATION=Laser parallel to a* (1 0 0). Fiducial mark perpendicular to laser is parallel to -b [0 -1 0]
117.2950, 0.0000000E+00
118.5340, 90.98730
119.7720, 4.477783
121.0100, 4.345215
122.2470, 138.6257
123.4850, 236.4346
124.7220, 365.5085
125.9590, 477.9480
127.1960, 820.0908
128.4330, 1062.498
129.6700, 1505.843
130.9060, 1849.832
132.1430, 2472.213
133.3790, 3163.779
134.6150, 3973.358
135.8500, 4462.812
137.0860, 4929.075
138.3210, 4773.237
139.5560, 4380.204
140.7910, 3538.836
142.0260, 2504.027
143.2610, 1798.692
144.4950, 1183.763
145.7290, 831.1868
146.9630, 521.9180
148.1970, 278.9199
149.4310, 243.1611
150.6640, 136.6157
151.8980, 173.2607
153.1310, 141.0771
154.3640, 12.04736
155.5970, 39.32788
156.8290, 34.74561
158.0620, 64.25391
159.2940, 70.09790
160.5260, 89.84497
161.7580, 135.4968
162.9890, 178.0718
164.2210, 229.5869
165.4520, 181.0518
166.6830, 145.4719
167.9140, 202.8540
169.1450, 247.2021
170.3760, 223.5212
171.6060, 331.8162
172.8360, 270.0913
174.0660, 305.3508
175.2960, 452.5981
176.5260, 451.8337
177.7550, 561.0593
178.9840, 614.2756
180.2130, 589.4834
181.4420, 594.6833
182.6710, 629.8760
183.9000, 572.0623
185.1280, 539.2417
186.3560, 585.4153
187.5840, 539.5837
188.8120, 608.7463
190.0400, 661.9038
191.2670, 665.0452
192.4950, 658.1340
193.7220, 647.1353
194.9490, 668.7288
196.1750, 728.5828
197.4020, 783.5098
198.6280, 811.3647
199.8540, 860.9907
201.0800, 849.6692
202.3060, 810.5659
203.5320, 766.5388
204.7570, 652.5862
205.9830, 463.7385
207.2080, 515.9534
208.4330, 415.3079
209.6570, 439.7573
210.8820, 458.2371
212.1060, 445.2522
213.3310, 439.8657
214.5550, 470.8391
215.7780, 399.4172
217.0020, 366.0156
218.2260, 352.6338
219.4490, 410.2715
220.6720, 359.9294
221.8950, 353.6074
223.1180, 403.3079
224.3400, 324.0461
225.5630, 401.8037
226.7850, 385.5830
228.0070, 454.4026
229.2290, 476.2612
230.4500, 495.1379
231.6720, 501.0259
232.8930, 542.9209
234.1140, 499.8196
235.3350, 494.7205
236.5560, 411.6233
237.7770, 382.5278
238.9970, 319.4341
240.2170, 331.3416
241.4370, 252.2505
242.6570, 225.1604
243.8770, 271.0710
245.0960, 244.9822
246.3160, 222.8936
247.5350, 236.8052
248.7540, 250.7163
249.9730, 217.6277
251.1910, 210.5381
252.4100, 205.4475
253.6280, 205.3560
254.8460, 138.2627
256.0640, 155.1682
257.2810, 151.0718
258.4990, 209.9736
259.7160, 157.7234
260.9330, 141.3093
262.1500, 102.6648
263.3670, 40.55640
264.5840, 72.39014
265.8000, 9.103760
267.0170, 6.690186
268.2330, 44.13721
269.4490, 62.80591
270.6640, 73.07642
271.8800, 102.7852
273.0950, 98.14380
274.3100, 83.43506
275.5260, 105.5671
276.7400, 105.6145
277.9550, 13.76489
279.1690, 72.68335
280.3840, 92.35791
281.5980, 42.65601
282.8120, 7.225098
284.0260, 10.98120
285.2390, 46.21387
286.4530, 66.42358
287.6660, 96.88892
288.8790, 165.2771
290.0920, 149.9614
291.3040, 268.8970
292.5170, 257.9609
293.7290, 367.3145
294.9410, 433.9482
296.1530, 512.0898
297.3650, 500.8159
298.5770, 571.6663
299.7880, 708.8970
301.0000, 733.2576
302.2110, 868.7676
303.4220, 979.1846
304.6320, 1217.668
305.8430, 1344.157
307.0530, 1576.566
308.2630, 1808.818
309.4730, 2204.071
310.6830, 2476.317
311.8930, 2794.570
313.1030, 3243.821
314.3120, 3820.066
315.5210, 4197.325
316.7300, 4785.603
317.9390, 5280.892
319.1470, 5813.178
320.3560, 6117.464
321.5640, 6255.760
322.7720, 6109.204
323.9800, 5961.502
325.1880, 5452.815
326.3950, 5153.246
327.6030, 4619.049
328.8100, 4092.719
330.0170, 3685.010
331.2240, 3188.489
332.4300, 2854.869
333.6370, 2626.327
334.8430, 2447.339
336.0490, 2200.407
337.2550, 2085.556
338.4610, 1947.914
339.6660, 1850.221
340.8720, 1788.117
342.0770, 1777.391
343.2820, 1710.714
344.4870, 1774.758
345.6920, 1779.827
346.8960, 1845.929
348.1010, 1884.789
349.3050, 1907.647
350.5090, 2007.505
351.7130, 2069.361
352.9160, 2030.214
354.1200, 2088.064
355.3230, 2015.911
356.5260, 1994.754
357.7290, 1874.594
358.9320, 1886.429
360.1350, 1796.260
361.3370, 1736.087
362.5390, 1755.910
363.7410, 1712.728
364.9430, 1672.541
366.1450, 1811.349
367.3470, 1826.152
368.5480, 1823.949
369.7490, 1882.742
370.9500, 1971.599
372.1510, 2060.309
373.3520, 2249.084
374.5520, 2379.852
375.7530, 2611.613
376.9530, 2799.369
378.1530, 3123.117
379.3520, 3487.860
380.5520, 3943.595
381.7510, 4411.323
382.9510, 4707.043
384.1500, 5191.759
385.3490, 5577.465
386.5480, 5937.165
387.7460, 6004.857
388.9440, 5708.543
390.1430, 5350.222
391.3410, 4820.893
392.5390, 4065.556
393.7360, 3549.212
394.9340, 2829.861
396.1310, 2386.502
397.3280, 1884.136
398.5250, 1500.762
399.7220, 1321.380
400.9190, 951.9907
402.1150, 908.5938
403.3120, 667.1885
404.5080, 534.7751
405.7040, 493.3545
406.8990, 361.9250
408.0950, 363.4878
409.2900, 276.0481
410.4860, 278.6060
411.6810, 239.1626
412.8760, 237.6345
414.0700, 267.0579
415.2650, 195.8330
416.4590, 117.7180
417.6540, 117.8667
418.8480, 9.909424
420.0420, 42.50928
421.2350, 108.0735
422.4290, 32.86499
423.6220, 3.571777
424.8150, 49.68457
426.0080, 35.13062
427.2010, 27.10132
428.3940, 28.52710
429.5860, 37.94189
430.7790, 20.65356
431.9710, 22.72046
433.1630, 11.08252
434.3540, 42.57080
435.5460, 28.26709
436.7370, 36.00098
437.9290, 4.742676
439.1200, 3.490234
440.3110, 69.29688
441.5010, 39.14209
442.6920, 29.02979
443.8820, 52.04517
445.0730, 29.13452
446.2630, 41.30444
447.4530, 32.58057
448.6420, 31.74585
449.8320, 42.59082
451.0210, 98.31396
452.2100, 79.64746
453.3990, 118.3738
454.5880, 183.1523
455.7770, 176.7297
456.9660, 195.8250
458.1540, 280.8528
459.3420, 151.1494
460.5300, 228.1299
461.7180, 177.5566
462.9050, 213.5112
464.0930, 139.8298
465.2800, 71.40063
466.4670, 141.3252
467.6540, 103.7097
468.8410, 76.32886
470.0280, 34.94800
471.2140, 6.668213
472.4000, 129.8125
473.5870, 66.98901
474.7720, 90.17334
475.9580, 71.14087
477.1440, 26.19116
478.3290, 23.96118
479.5140, 1.264404
480.6990, 14.46680
481.8840, 41.17383
483.0690, 46.86206
484.2540, 64.86182
485.4380, 49.18774
486.6220, 84.84302
487.8060, 69.48364
488.9900, 65.10962
490.1740, 157.7202
491.3570, 120.3176
492.5410, 154.9014
493.7240, 168.4722
494.9070, 258.0293
496.0900, 204.5732
497.2720, 207.1035
498.4550, 347.6204
499.6370, 385.1235
500.8190, 533.6133
502.0010, 672.0889
503.1830, 700.5508
504.3650, 803.0037
505.5460, 921.4521
506.7280, 950.8865
507.9090, 997.4709
509.0900, 983.7175
510.2710, 996.1140
511.4510, 997.4963
512.6320, 950.8647
513.8120, 1006.218
514.9920, 902.5583
516.1720, 801.8838
517.3520, 894.1951
518.5310, 788.4919
519.7110, 731.7898
520.8900, 790.0735
522.0690, 831.3428
523.2480, 807.6045
524.4270, 837.8521
525.6050, 847.0854
526.7840, 950.3066
527.9620, 924.5161
529.1400, 912.7229
530.3180, 928.9297
531.4960, 825.1216
532.6730, 794.3057
533.8510, 753.4761
535.0280, 679.6321
536.2050, 658.7852
537.3820, 624.9309
538.5590, 601.4731
539.7350, 592.1848
540.9120, 586.2888
542.0880, 555.3787
543.2640, 560.4529
544.4400, 591.5125
545.6150, 548.5562
546.7910, 547.5854
547.9660, 507.5996
549.1410, 538.5984
550.3170, 617.5820
551.4910, 587.5498
552.6660, 629.5029
553.8410, 614.4407
555.0150, 686.3723
556.1890, 714.3032
557.3630, 726.2349
558.5370, 795.1760
559.7110, 737.1252
560.8840, 733.9797
562.0570, 620.8044
563.2310, 537.7786
564.4040, 603.5608
565.5760, 530.1326
566.7490, 432.0459
567.9220, 512.8787
569.0940, 449.6450
570.2660, 465.4014
571.4380, 409.1924
572.6100, 424.7383
573.7820, 390.8169
574.9530, 296.7036
576.1240, 325.7915
577.2960, 255.7510
578.4670, 209.4202
579.6370, 246.8059
580.8080, 197.6809
581.9790, 186.9663
583.1490, 165.0796
584.3190, 116.8899
585.4890, 107.5210
586.6590, 84.99316
587.8280, 59.57178
588.9980, 80.09766
590.1670, 15.58496
591.3360, 23.14697
592.5050, 46.85254
593.6740, 20.45703
594.8430, 20.94360
596.0110, 26.60645
597.1790, 79.71802
598.3480, 40.76758
599.5160, 60.37427
600.6830, 38.52588
601.8510, 39.93091
603.0180, 14.57764
604.1860, 27.52173
605.3530, 0.1843260
606.5200, 15.11743
607.6870, 39.35571
608.8530, 26.83716
610.0200, 28.35303
611.1860, 22.99316
612.3520, 9.378418
613.5180, 54.75000
614.6840, 52.78711
615.8500, 84.64575
617.0150, 67.55371
618.1800, 134.8320
619.3450, 121.1602
620.5100, 167.2070
621.6750, 136.0967
622.8400, 139.6006
624.0040, 207.1580
625.1690, 205.8679
626.3330, 268.2578
627.4970, 241.0332
628.6610, 256.7273
629.8240, 312.3682
630.9880, 347.2366
632.1510, 380.0901
633.3140, 450.9290
634.4770, 480.7529
635.6400, 512.5627
636.8020, 551.3579
637.9650, 646.1382
639.1270, 671.9041
640.2890, 692.6558
641.4510, 746.3928
642.6130, 863.1155
643.7750, 973.7937
644.9360, 1045.519
646.0980, 1152.198
647.2590, 1371.864
648.4200, 1592.309
649.5810, 1842.945
650.7410, 2121.568
651.9020, 2492.176
653.0620, 2919.769
654.2220, 3597.348
655.3820, 4269.915
656.5420, 5152.466
657.7020, 6145.004
658.8610, 7540.079
660.0200, 8892.038
661.1800, 10470.08
662.3390, 11793.05
663.4970, 13090.55
664.6560, 13951.01
665.8150, 14484.93
666.9730, 13955.95
668.1310, 12859.02
669.2890, 11274.72
670.4470, 9823.097
671.6050, 8121.857
672.7620, 6696.529
673.9200, 5419.871
675.0770, 4529.822
676.2340, 3675.866
677.3910, 3193.837
678.5470, 2671.123
679.7040, 2253.394
680.8600, 2006.651
682.0160, 1676.895
683.1720, 1448.125
684.3280, 1256.341
685.4840, 1151.544
686.6390, 1050.733
687.7950, 899.9089
688.9500, 802.0710
690.1050, 695.2205
691.2600, 707.3564
692.4150, 658.4792
693.5690, 628.5889
694.7240, 541.6858
695.8780, 521.7695
697.0320, 457.8403
698.1860, 496.8982
699.3400, 466.9434
700.4930, 471.9805
701.6470, 465.0051
702.8000, 494.0168
703.9530, 509.0164
705.1060, 497.0095
706.2590, 425.9902
707.4110, 473.9583
708.5640, 419.9146
709.7160, 425.8591
710.8680, 361.7913
712.0200, 334.7219
713.1720, 328.6411
714.3230, 269.5505
715.4750, 316.4644
716.6260, 299.3789
717.7770, 179.2822
718.9280, 224.1797
720.0790, 148.0706
721.2300, 222.9731
722.3800, 139.8796
723.5300, 177.7883
724.6810, 100.6597
725.8300, 71.42651
726.9800, 62.06445
728.1300, 63.78906
729.2790, 57.77832
730.4290, 53.93066
731.5780, 85.41748
732.7270, 67.48950
733.8760, 90.48730
735.0240, 2.336426
736.1730, 79.29297
737.3210, 10.03198
738.4700, 20.65625
739.6180, 16.99756
740.7650, 14.18457
741.9130, 6.814453
743.0610, 8.055908
744.2080, 2.1240000E-02
745.3550, 31.60669
746.5020, 8.289795
747.6490, 27.44849
748.7960, 33.35986
749.9430, 14.95679
751.0890, 9.732422
752.2350, 9.432617
753.3810, 36.43286
754.5270, 15.88354
755.6730, 22.90430
756.8190, 9.445068
757.9640, 23.02026
759.1090, 30.40991
760.2540, 97.83887
761.3990, 56.26343
762.5440, 47.68433
763.6890, 55.89966
764.8330, 41.47827
765.9780, 37.85132
767.1220, 12.21997
768.2660, 43.58447
769.4100, 55.94385
770.5530, 47.29785
771.6970, 35.64746
772.8400, 9.991699
773.9830, 17.33179
775.1260, 10.37939
776.2690, 95.99854
777.4120, 32.32568
778.5540, 23.64868
779.6970, 67.96729
780.8390, 17.71777
781.9810, 35.41577
783.1230, 66.86401
784.2650, 69.14062
785.4060, 16.58667
786.5480, 4.675293
787.6890, 68.93408
788.8300, 9.190186
789.9710, 30.44385
791.1120, 19.69458
792.2520, 39.94336
793.3930, 8.189941
794.5330, 11.43457
795.6730, 66.32275
796.8130, 4.886719
797.9530, 25.09497
799.0930, 34.69849
800.2320, 0.5068360
801.3710, 1.683105
802.5110, 15.12793
803.6500, 17.94458
804.7880, 56.76758
805.9270, 67.61475
807.0660, 19.50854
808.2040, 36.36768
809.3420, 12.25684
810.4800, 34.85107
811.6180, 60.04053
812.7560, 44.95508
813.8930, 22.88403
815.0310, 14.18115
816.1680, 11.72949
817.3050, 3.315430
818.4420, 13.38477
819.5790, 59.45605
820.7150, 57.52905
821.8520, 15.60400
822.9880, 93.68140
824.1240, 79.76123
825.2600, 69.84326
826.3960, 123.9277
827.5320, 36.01538
828.6670, 67.10596
829.8020, 40.19946
830.9380, 77.29614
832.0730, 28.39624
833.2080, 40.50000
834.3420, 74.60767
835.4770, 56.71899
836.6110, 61.83423
837.7450, 24.95337
838.8790, 83.07690
840.0130, 38.20459
841.1470, 122.3372
842.2810, 134.4741
843.4140, 74.61572
844.5470, 254.7625
845.6800, 208.9141
846.8130, 282.0708
847.9460, 364.2327
849.0790, 406.3999
850.2110, 628.5725
851.3440, 703.7507
852.4760, 836.9346
853.6080, 975.1245
854.7400, 957.3201
855.8710, 963.5215
857.0030, 997.7290
858.1340, 972.9424
859.2650, 859.1624
860.3960, 718.3882
861.5270, 688.6206
862.6580, 629.8325
863.7890, 633.0176
864.9190, 581.2222
866.0490, 516.4187
867.1790, 519.6147
868.3090, 441.8984
869.4390, 498.1819
870.5690, 509.4956
871.6980, 422.2375
872.8270, 461.5696
873.9570, 438.9988
875.0860, 455.9436
876.2140, 436.2561
877.3430, 467.3704
878.4720, 384.2202
879.6000, 421.2439
880.7280, 445.8826
881.8560, 393.3503
882.9840, 432.5498
884.1120, 346.5886
885.2390, 404.1184
886.3670, 472.0276
887.4940, 435.3174
888.6210, 468.7451
889.7480, 449.4392
890.8750, 479.9988
892.0020, 427.6245
893.1280, 524.1353
894.2540, 439.8352
895.3810, 401.4780
896.5070, 585.1343
897.6320, 531.8018
898.7580, 517.4810
899.8840, 522.3335
901.0090, 516.0386
902.1340, 503.7607
903.2590, 576.4976
904.3840, 474.2468
905.5090, 414.0115
906.6340, 515.7930
907.7580, 482.5889
908.8820, 536.4023
910.0060, 479.2300
911.1300, 480.0708
912.2540, 524.9253
913.3780, 448.7922
914.5010, 434.6741
915.6250, 494.5688
916.7480, 471.5063
917.8710, 406.3960
918.9940, 431.3298
920.1160, 444.2817
921.2390, 394.4590
922.3610, 403.4558
923.4840, 369.4700
924.6060, 450.5105
925.7280, 359.5647
926.8490, 346.6411
927.9710, 368.7317
929.0930, 302.8420
930.2140, 369.9695
931.3350, 336.5640
932.4560, 280.7495
933.5770, 263.9622
934.6980, 282.7236
935.8180, 192.9556
936.9380, 294.2515
938.0590, 186.0933
939.1790, 220.8455
940.2990, 145.5562
941.4180, 224.6409
942.5380, 158.0566
943.6570, 146.0991
944.7770, 167.2512
945.8960, 207.7351
947.0150, 148.6223
948.1340, 94.41870
949.2520, 73.29761
950.3710, 105.8687
951.4890, 100.4553
952.6070, 119.8394
953.7260, 140.6821
954.8430, 162.3132
955.9610, 169.9653
957.0790, 189.6372
958.1960, 178.3254
959.3130, 266.0310
960.4310, 237.7664
961.5480, 248.5181
962.6640, 285.2859
963.7810, 228.0708
964.8970, 347.8823
966.0140, 343.7146
967.1300, 338.5635
968.2460, 341.4282
969.3620, 295.3093
970.4780, 324.2070
971.5930, 417.1208
972.7090, 399.0508
973.8240, 382.9971
974.9390, 436.9595
976.0540, 410.9382
977.1690, 474.9331
978.2830, 444.9443
979.3980, 480.5488
980.5120, 496.0159
981.6260, 558.0762
982.7400, 573.1523
983.8540, 660.2446
984.9680, 638.3533
986.0820, 684.4778
987.1950, 826.6191
988.3080, 792.7761
989.4210, 920.9490
990.5340, 1057.138
991.6470, 1116.344
992.7600, 1226.565
993.8720, 1466.803
994.9850, 1644.056
996.0970, 1858.326
997.2090, 2255.612
998.3210, 2590.914
999.4320, 2965.232
1000.544, 3473.567
1001.655, 4271.917
1002.767, 4964.283
1003.878, 6018.666
1004.989, 7090.063
1006.100, 8514.483
1007.210, 10192.92
1008.321, 12479.38
1009.431, 14495.87
1010.541, 16941.38
1011.651, 18960.91
1012.761, 19892.45
1013.871, 19540.02
1014.980, 18081.60
1016.090, 15779.20
1017.199, 13052.82
1018.308, 10404.46
1019.417, 8401.123
1020.526, 6648.804
1021.635, 5312.506
1022.743, 4512.224
1023.852, 3733.205
1024.960, 3180.965
1026.068, 2815.748
1027.176, 2608.550
1028.283, 2334.765
1029.391, 2248.945
1030.498, 2038.799
1031.606, 1921.683
1032.713, 1817.959
1033.820, 1767.870
1034.927, 1745.903
1036.033, 1740.366
1037.140, 1744.319
1038.246, 1699.886
1039.353, 1737.846
1040.459, 1614.072
1041.564, 1693.311
1042.670, 1533.402
1043.776, 1562.544
1044.881, 1555.645
1045.987, 1430.700
1047.092, 1347.022
1048.197, 1265.103
1049.302, 1178.195
1050.406, 1095.305
1051.511, 986.4358
1052.615, 1071.520
1053.720, 972.9331
1054.824, 867.7461
1055.928, 732.5676
1057.031, 804.6648
1058.135, 714.8696
1059.238, 722.9348
1060.342, 683.1611
1061.445, 651.5723
1062.548, 560.5002
1063.651, 669.5723
1064.754, 529.7007
1065.856, 557.8657
1066.959, 571.2649
1068.061, 455.6748
1069.163, 424.7690
1070.265, 531.1936
1071.367, 522.6040
1072.469, 429.9307
1073.570, 441.5383
1074.671, 489.8521
1075.773, 534.3552
1076.874, 511.0166
1077.975, 462.0857
1079.075, 449.1406
1080.176, 435.5999
1081.276, 380.6055
1082.377, 477.1428
1083.477, 398.6331
1084.577, 427.1292
1085.677, 421.6318
1086.777, 395.2888
1087.876, 376.8030
1088.975, 300.0056
1090.075, 421.6062
1091.174, 328.3018
1092.273, 368.0110
1093.372, 422.5525
1094.470, 298.0994
1095.569, 337.7903
1096.667, 348.6956
1097.765, 391.2603
1098.863, 417.8254
1099.961, 403.6497
1101.059, 307.9683
1102.157, 356.5457
1103.254, 334.1270
1104.351, 276.7122
1105.449, 327.3008
1106.546, 317.8933
1107.642, 271.4890
1108.739, 314.0884
1109.836, 287.7078
1110.932, 235.3135
1112.028, 319.9219
1113.124, 311.5332
1114.220, 307.1477
1115.316, 237.7644
1116.412, 307.3835
1117.507, 304.0056
1118.603, 270.6299
1119.698, 277.2561
1120.793, 280.8845
1121.888, 210.5151
1122.983, 333.1477
1124.077, 210.7820
1125.172, 234.4180
1126.266, 236.0554
1127.360, 199.6946
1128.454, 197.3354
1129.548, 199.4233
1130.642, 198.6206
1131.735, 222.2649
1132.829, 237.9102
1133.922, 269.5562
1135.015, 164.2029
1136.108, 197.8506
1137.201, 198.4988
1138.294, 163.1472
1139.386, 189.7959
1140.478, 130.4448
1141.571, 73.09375
1142.663, 94.74243
1143.755, 109.3911
1144.846, 171.0391
1145.938, 82.68677
1147.030, 134.3340
1148.121, 81.98022
1149.212, 69.62573
1150.303, 22.27026
1151.394, 26.91333
1152.485, 38.55542
1153.575, 33.19604
1154.666, 9.164795
1155.756, 79.46997
1156.846, 63.10254
1157.936, 29.73340
1159.026, 11.63794
1160.116, 10.17432
1161.205, 7.600586
1162.295, 0.2138670
1163.384, 10.17554
1164.473, 28.42773
1165.562, 21.97168
1166.651, 11.38477
1167.739, 8.193604
1168.828, 11.89429
1169.916, 17.66528
1171.005, 4.112793
1172.093, 20.56641
1173.181, 3.5645001E-02
1174.268, 0.5100100
1175.356, 1.009766
1176.443, 32.52417
1177.531, 1.965088
1178.618, 58.53833
1179.705, 40.03784
1180.792, 28.20239
1181.879, 21.00537
1182.965, 10.48901
1184.052, 15.01611
1185.138, 36.55957
1186.224, 4.130859
1187.310, 39.71411
1188.396, 23.67261
1189.482, 21.94604
1190.567, 40.41382
1191.653, 10.23145
1192.738, 1.893066
1193.823, 3.566895
1194.908, 83.25439
1195.993, 35.45435
1197.077, 70.48120
1198.162, 13.40527
1199.246, 64.42529
1200.331, 37.30273
1201.415, 16.78687
1202.499, 18.73828
1203.582, 11.92871
1204.666, 49.02100
1205.750, 17.98877
1206.833, 63.00879
1207.916, 21.94580
1208.999, 27.10693
1210.082, 43.81079
1211.165, 9.277832
1212.248, 1.387207
1213.330, 50.48657
1214.412, 100.3535
1215.495, 45.21362
1216.577, 21.06714
1217.658, 69.91187
1218.740, 6.749756
1219.822, 26.57373
1220.903, 22.39014
1221.985, 32.80249
1223.066, 86.97021
1224.147, 46.73584
1225.228, 25.49390
1226.308, 18.75635
1227.389, 2.965820
1228.469, 75.67090
1229.550, 87.36865
1230.630, 92.05957
1231.710, 91.74268
1232.790, 130.4185
1233.869, 97.08716
1234.949, 76.74829
1236.028, 94.40210
1237.108, 107.0483
1238.187, 94.78296
1239.266, 43.31836
1240.344, 96.94189
1241.423, 73.55811
1242.502, 100.1665
1243.580, 126.7671
1244.658, 147.3608
1245.736, 149.9470
1246.814, 113.5256
1247.892, 175.0967
1248.970, 77.66040
1250.047, 155.2168
1251.125, 218.7656
1252.202, 67.31909
1253.279, 146.8652
1254.356, 157.4036
1255.433, 118.9343
1256.509, 110.4570
1257.586, 117.5671
1258.662, 164.4993
1259.738, 129.0088
1260.814, 148.5107
1261.890, 147.0049
1262.966, 143.6995
1264.042, 192.9734
1265.117, 177.4475
1266.193, 205.9146
1267.268, 278.3738
1268.343, 308.8252
1269.418, 281.2686
1270.492, 227.7043
1271.567, 267.1323
1272.642, 160.5527
1273.716, 211.9653
1274.790, 252.3704
1275.864, 230.7676
1276.938, 172.1575
1278.012, 224.5393
1279.085, 233.9136
1280.159, 173.2803
1281.232, 181.6401
1282.305, 135.9932
1283.378, 180.3386
1284.451, 215.4407
1285.524, 199.7705
1286.597, 267.0925
1287.669, 225.4067
1288.741, 171.3235
1289.813, 163.2820
1290.885, 210.5735
1291.957, 178.8396
1293.029, 236.7212
1294.101, 216.9897
1295.172, 272.1426
1296.243, 262.8711
1297.315, 258.1160
1298.386, 266.7515
1299.456, 285.9995
1300.527, 271.0344
1301.598, 317.9678
1302.668, 242.1008
1303.738, 274.1880
1304.809, 243.3228
1305.879, 322.5066
1306.948, 232.4292
1308.018, 313.5981
1309.088, 276.7595
1310.157, 327.9133
1311.226, 300.0613
1312.296, 312.2612
1313.365, 312.1365
1314.433, 328.6184
1315.502, 348.0962
1316.571, 348.3020
1317.639, 315.4043
1318.707, 305.6494
1319.776, 329.7378
1320.844, 407.6453
1321.911, 303.0403
1322.979, 351.2954
1324.047, 315.5142
1325.114, 278.7007
1326.181, 258.6572
1327.249, 299.6150
1328.316, 325.8923
1329.382, 223.8442
1330.449, 184.8171
1331.516, 223.8806
1332.582, 156.6792
1333.648, 227.7905
1334.715, 162.7158
1335.781, 175.9016
1336.846, 190.8701
1337.912, 216.2646
1338.978, 108.2703
1340.043, 187.7412
1341.108, 103.6870
1342.174, 243.6838
1343.239, 134.6782
1344.303, 192.6699
1345.368, 166.5103
1346.433, 160.4973
1347.497, 156.7983
1348.561, 65.70508
1349.626, 130.5200
1350.690, 106.3237
1351.753, 74.29810
1352.817, 175.2703
1353.881, 100.1006
1354.944, 220.7637
1356.007, 116.7253
1357.071, 105.6890
1358.134, 134.6509
1359.196, 132.6106
1360.259, 96.56909
1361.322, 66.52539
1362.384, 88.48071
1363.447, 136.4343
1364.509, 160.3865
1365.571, 43.33716
1366.633, 111.2866
1367.694, 84.21729
1368.756, 94.16406
1369.817, 80.11035
1370.879, 86.05518
1371.940, 33.13306
1373.001, 141.0764
1374.062, 167.0193
1375.122, 115.9612
1376.183, 149.0317
1377.244, 131.9731
1378.304, 228.9946
1379.364, 151.8662
1380.424, 235.8755
1381.484, 182.8164
1382.544, 208.7578
1383.603, 72.69946
1384.663, 165.9077
1385.722, 44.85083
1386.781, 109.7942
1387.840, 106.8311
1388.899, 126.7764
1389.958, 91.72803
1391.017, 84.36084
1392.075, 83.94922
1393.134, 73.72900
1394.192, 103.3091
1395.250, 76.26172
1396.308, 144.2161
1397.365, 151.1719
1398.423, 103.1294
1399.481, 76.08862
1400.538, 181.0503
1401.595, 142.0142
1402.652, 125.9805
1403.709, 187.9497
1404.766, 62.92139
1405.823, 82.89624
1406.879, 130.8721
1407.936, 170.0896
1408.992, 112.1553
1410.048, 204.1951
1411.104, 47.12769
1412.160, 87.06396
1413.215, 85.95825
1414.271, 150.8530
1415.326, 95.74585
1416.382, 86.62524
1417.437, 96.76172
1418.492, 160.6382
1419.546, 83.51367
1420.601, 150.4458
1421.656, 106.3181
1422.710, 59.19189
1423.764, 140.0642
1424.819, 80.92334
1425.873, 72.77295
1426.926, 67.62231
1427.980, 50.47021
1429.034, 58.61035
1430.087, 116.1572
1431.140, 104.9873
1432.194, 82.81323
1433.247, 175.6343
1434.299, 238.4634
1435.352, 78.27881
1436.405, 213.0930
1437.457, 217.2957
1438.510, 148.1692
1439.562, 204.9341
1440.614, 174.3882
1441.666, 216.1418
1442.717, 180.9172
1443.769, 320.7031
1444.821, 286.4978
1445.872, 242.3245
1446.923, 320.2214
1447.974, 255.1614
1449.025, 301.1499
1450.076, 363.1575
1451.127, 342.2026
1452.177, 273.2937
1453.227, 306.4114
1454.278, 304.5508
1455.328, 302.6970
1456.378, 401.8459
1457.428, 294.0015
1458.477, 368.1650
1459.527, 288.3647
1460.576, 288.5684
1461.625, 322.8064
1462.675, 287.0547
1463.724, 319.3074
1464.772, 202.5649
1465.821, 260.8269
1466.870, 249.0940
1467.918, 176.3667
1468.966, 213.6450
1470.015, 195.9272
1471.063, 110.2156
1472.110, 172.5090
1473.158, 148.7908
1474.206, 91.06104
1475.253, 98.33716
1476.301, 141.5925
1477.348, 32.85278
1478.395, 193.1189
1479.442, 59.38184
1480.488, 8.649414
1481.535, 35.92310
1482.582, 54.20312
1483.628, 53.48926
1484.674, 54.46997
1485.720, 38.08154
1486.766, 39.38745
1487.812, 28.69629
1488.858, 37.01123
1489.903, 54.33472
1490.949, 31.66846
1491.994, 28.01050
1493.039, 46.36182
1494.084, 36.72363
1495.129, 63.09790
1496.173, 45.48535
1497.218, 0.1135250
1498.262, 102.3020
1499.307, 45.73315
1500.351, 69.18140
1501.395, 1.646484
1502.439, 45.12256
1503.483, 8.621582
1504.526, 45.85449
1505.570, 12.69312
1506.613, 48.26294
1507.656, 36.85278
1508.699, 72.46118
1509.742, 33.91431
1510.785, 32.72559
1511.827, 75.38086
1512.870, 12.05176
1513.912, 54.73706
1514.955, 33.43677
1515.997, 6.849609
1517.039, 26.87915
1518.080, 22.62280
1519.122, 44.38257
1520.164, 66.51343
1521.205, 118.9551
1522.246, 114.7715
1523.288, 107.4780
1524.329, 136.3357
1525.369, 87.21729
1526.410, 89.12378
1527.451, 94.05664
1528.491, 77.01709
1529.531, 134.0066
1530.572, 148.0259
1531.612, 130.5830
1532.652, 12.65063
1533.691, 30.24438
1534.731, 38.03394
1535.770, 90.59668
1536.810, 71.30688
1537.849, 150.7964
1538.888, 66.09741
1539.927, 134.9043
1540.966, 82.57861
1542.005, 0.9758300
1543.043, 38.88257
1544.082, 66.63354
1545.120, 20.26318
1546.158, 60.73877
1547.196, 47.02734
1548.234, 49.08740
1549.272, 76.06396
1550.309, 65.38794
1551.347, 67.42603
1552.384, 77.49585
1553.421, 73.87891
1554.458, 80.39722
1555.495, 66.21069
1556.532, 56.02246
1557.568, 51.36523
1558.605, 28.51953
1559.641, 51.55811
1560.678, 53.13232
1561.714, 0.9409180
1562.750, 21.98145
1563.785, 5.827148
1564.821, 0.0000000E+00
##END=



