##NAMES=Diopside
##RRUFFID=R070123
##IDEAL CHEMISTRY=CaMgSi_2_O_6_
##LOCALITY=Yates mine, Otter Lake, Huddersfield Township, Pontiac County, Québec, Canada
##OWNER=RRUFF
##SOURCE=Michael Scott
##DESCRIPTION=Black prismatic crystals associated with orange calcite
##STATUS=The identification of this mineral has been confirmed by X-ray diffraction and chemical analysis
##URL=rruff.info/R070123
##MEASURED CHEMISTRY=(Ca_0.95_Na_0.04_Mn_0.01_)_Σ=1_(Mg_0.63_Fe_0.33_Al_0.04_)_Σ=1_Si_2.00_O_6_
##PIN_ID=M00826
##ORIENTATION=Laser parallel to a* (1 0 0). Fiducial mark perpendicular to laser is parallel to -b [0 -1 0]
117.2950, 0.0000000E+00
118.5340, 2.648926
119.7720, 124.7529
121.0100, 209.8389
122.2470, 308.1621
123.4850, 371.3550
124.7220, 659.5903
125.9590, 915.7339
127.1960, 998.3828
128.4330, 1298.903
129.6700, 1517.893
130.9060, 1794.708
132.1430, 2120.561
133.3790, 2493.954
134.6150, 2703.127
135.8500, 2668.026
137.0860, 2639.870
138.3210, 2341.779
139.5560, 2111.346
140.7910, 1608.519
142.0260, 1217.257
143.2610, 782.5200
144.4950, 586.2710
145.7290, 338.4761
146.9630, 237.1016
148.1970, 142.1157
149.4310, 33.50830
150.6640, 103.7974
151.8980, 52.22510
153.1310, 26.53662
154.3640, 20.88379
155.5970, 27.94189
156.8290, 56.01074
158.0620, 166.2495
159.2940, 69.71924
160.5260, 219.3911
161.7580, 225.2769
162.9890, 233.3818
164.2210, 180.7100
165.4520, 150.2544
166.6830, 76.00098
167.9140, 21.93359
169.1450, 111.0371
170.3760, 55.29785
171.6060, 107.7051
172.8360, 12.24854
174.0660, 41.91895
175.2960, 175.7065
176.5260, 225.6055
177.7550, 294.6079
178.9840, 219.7061
180.2130, 296.8945
181.4420, 73.16504
182.6710, 215.5132
183.9000, 246.9326
185.1280, 86.41797
186.3560, 209.9648
187.5840, 201.5684
188.8120, 180.2236
190.0400, 175.9282
191.2670, 204.6631
192.4950, 217.3862
193.7220, 232.0781
194.9490, 231.8223
196.1750, 279.5713
197.4020, 315.3535
198.6280, 365.4780
199.8540, 367.6387
201.0800, 362.6216
202.3060, 364.9243
203.5320, 286.4365
204.7570, 276.1948
205.9830, 246.2100
207.2080, 239.2681
208.4330, 248.4136
209.6570, 259.3433
210.8820, 288.0405
212.1060, 304.4561
213.3310, 340.1733
214.5550, 340.3384
215.7780, 345.0908
217.0020, 399.8242
218.2260, 360.5356
219.4490, 297.2295
220.6720, 439.9038
221.8950, 425.5591
223.1180, 459.1953
224.3400, 557.8203
225.5630, 579.4341
226.7850, 624.0342
228.0070, 650.6318
229.2290, 804.2222
230.4500, 812.8008
231.6720, 796.3730
232.8930, 757.9419
234.1140, 776.5039
235.3350, 637.0620
236.5560, 586.6074
237.7770, 565.1421
238.9970, 439.6577
240.2170, 459.1548
241.4370, 374.6313
242.6570, 416.0889
243.8770, 259.5264
245.0960, 318.9443
246.3160, 331.3423
247.5350, 346.7202
248.7540, 408.0781
249.9730, 348.4146
251.1910, 323.7305
252.4100, 379.0249
253.6280, 329.2988
254.8460, 306.5508
256.0640, 295.7812
257.2810, 383.9902
258.4990, 372.1768
259.7160, 380.3408
260.9330, 399.4824
262.1500, 340.9546
263.3670, 207.6982
264.5840, 185.5190
265.8000, 167.4551
267.0170, 3.235352
268.2330, 143.1890
269.4490, 180.2705
270.6640, 33.60107
271.8800, 77.49707
273.0950, 19.93799
274.3100, 60.76123
275.5260, 104.7271
276.7400, 46.98633
277.9550, 63.75537
279.1690, 13.50830
280.3840, 107.3325
281.5980, 4.564941
282.8120, 85.03711
284.0260, 14.50879
285.2390, 123.6196
286.4530, 171.2896
287.6660, 323.6152
288.8790, 412.0029
290.0920, 544.1567
291.3040, 522.6387
292.5170, 745.0688
293.7290, 798.8779
294.9410, 893.6304
296.1530, 1110.050
297.3650, 1154.967
298.5770, 1205.799
299.7880, 1431.721
301.0000, 1591.250
302.2110, 1752.199
303.4220, 2054.438
304.6320, 2218.593
305.8430, 2569.743
307.0530, 2996.357
308.2630, 3355.736
309.4730, 3869.259
310.6830, 4349.505
311.8930, 4939.462
313.1030, 5640.317
314.3120, 6297.472
315.5210, 7046.329
316.7300, 7652.281
317.9390, 8301.137
319.1470, 8773.210
320.3560, 9197.065
321.5640, 9238.037
322.7720, 9104.890
323.9800, 8552.731
325.1880, 7909.578
326.3950, 7354.417
327.6030, 6639.358
328.8100, 5810.655
330.0170, 5318.784
331.2240, 4739.752
332.4300, 4406.072
333.6370, 3909.877
334.8430, 3732.021
336.0490, 3326.737
337.2550, 3339.051
338.4610, 3188.286
339.6660, 3064.353
340.8720, 3077.396
342.0770, 3066.490
343.2820, 3130.759
344.4870, 3344.203
345.6920, 3439.326
346.8960, 3654.050
348.1010, 3796.087
349.3050, 3901.142
350.5090, 4061.286
351.7130, 4118.184
352.9160, 4141.658
354.1200, 4133.290
355.3230, 4088.875
356.5260, 3975.465
357.7290, 3668.036
358.9320, 3525.587
360.1350, 3559.119
361.3370, 3245.631
362.5390, 3098.123
363.7410, 3185.596
364.9430, 3122.048
366.1450, 3057.481
367.3470, 3057.894
368.5480, 3178.286
369.7490, 3300.768
370.9500, 3509.011
372.1510, 3815.342
373.3520, 4241.653
374.5520, 4745.943
375.7530, 5354.213
376.9530, 6052.551
378.1530, 6849.688
379.3520, 7709.894
380.5520, 8659.079
381.7510, 9678.243
382.9510, 10495.39
384.1500, 11591.51
385.3490, 12145.60
386.5480, 12720.68
387.7460, 12758.74
388.9440, 12159.77
390.1430, 11328.78
391.3410, 9839.766
392.5390, 8459.731
393.7360, 7058.674
394.9340, 5722.596
396.1310, 4723.494
397.3280, 3739.371
398.5250, 2993.225
399.7220, 2271.055
400.9190, 1843.863
402.1150, 1555.649
403.3120, 1288.411
404.5080, 1025.150
405.7040, 872.8662
406.8990, 699.5596
408.0950, 587.2300
409.2900, 582.8828
410.4860, 447.5234
411.6810, 432.1406
412.8760, 397.7456
414.0700, 232.3315
415.2650, 118.8979
416.4590, 242.4385
417.6540, 161.9585
418.8480, 138.4536
420.0420, 100.9219
421.2350, 55.36182
422.4290, 15.77002
423.6220, 36.02100
424.8150, 11.72656
426.0080, 46.49023
427.2010, 14.32764
428.3940, 39.22363
429.5860, 0.8081050
430.7790, 88.21143
431.9710, 56.32617
433.1630, 83.51855
434.3540, 103.8047
435.5460, 102.1836
436.7370, 59.65771
437.9290, 26.20654
439.1200, 70.79150
440.3110, 96.45703
441.5010, 137.1689
442.6920, 122.1592
443.8820, 25.05566
445.0730, 73.88623
446.2630, 29.09961
447.4530, 74.07520
448.6420, 59.96924
449.8320, 133.9165
451.0210, 166.7734
452.2100, 162.6104
453.3990, 216.4355
454.5880, 287.2583
455.7770, 340.0586
456.9660, 242.8550
458.1540, 324.6558
459.3420, 293.4414
460.5300, 390.2373
461.7180, 266.0405
462.9050, 363.8555
464.0930, 290.6582
465.2800, 384.4663
466.4670, 388.2656
467.6540, 341.0586
468.8410, 356.8281
470.0280, 298.5684
471.2140, 213.2881
472.4000, 252.9741
473.5870, 290.6436
474.7720, 206.3027
475.9580, 357.9536
477.1440, 246.5996
478.3290, 136.2446
479.5140, 204.8560
480.6990, 222.4312
481.8840, 261.9707
483.0690, 266.4771
484.2540, 253.3516
485.4380, 210.3857
486.6220, 167.7856
487.8060, 242.1470
488.9900, 133.4722
490.1740, 258.7559
491.3570, 253.0039
492.5410, 132.2158
493.7240, 234.3857
494.9070, 343.5186
496.0900, 198.6177
497.2720, 241.6787
498.4550, 382.7026
499.6370, 426.6924
500.8190, 459.6489
502.0010, 549.5713
503.1830, 572.4600
504.3650, 709.3145
505.5460, 776.1353
506.7280, 791.9219
507.9090, 871.6743
509.0900, 999.3921
510.2710, 941.0757
511.4510, 931.7251
512.6320, 1140.340
513.8120, 1067.920
514.9920, 1170.465
516.1720, 1082.976
517.3520, 1145.452
518.5310, 1182.893
519.7110, 1146.298
520.8900, 1293.669
522.0690, 1367.005
523.2480, 1472.306
524.4270, 1418.571
525.6050, 1565.801
526.7840, 1621.995
527.9620, 1484.155
529.1400, 1526.278
530.3180, 1492.366
531.4960, 1391.417
532.6730, 1331.435
533.8510, 1297.415
535.0280, 1162.360
536.2050, 999.2695
537.3820, 917.1426
538.5590, 911.9795
539.7350, 971.7803
540.9120, 866.5449
542.0880, 798.2739
543.2640, 833.9663
544.4400, 800.6230
545.6150, 783.2427
546.7910, 789.8267
547.9660, 912.3735
549.1410, 951.8848
550.3170, 999.3589
551.4910, 1057.796
552.6660, 1129.172
553.8410, 1118.562
555.0150, 1271.890
556.1890, 1278.327
557.3630, 1300.947
558.5370, 1255.210
559.7110, 1109.922
560.8840, 1018.491
562.0570, 1029.769
563.2310, 829.8794
564.4040, 991.7261
565.5760, 802.3784
566.7490, 774.5967
567.9220, 757.8628
569.0940, 797.7764
570.2660, 736.2964
571.4380, 648.3716
572.6100, 664.2676
573.7820, 631.6602
574.9530, 422.9199
576.1240, 577.4268
577.2960, 400.4990
578.4670, 487.5142
579.6370, 527.1270
580.8080, 355.3960
581.9790, 280.7808
583.1490, 447.2886
584.3190, 392.9131
585.4890, 427.0161
586.6590, 454.0742
587.8280, 478.6514
588.9980, 492.5991
590.1670, 489.5664
591.3360, 435.9609
592.5050, 454.2329
593.6740, 445.6826
594.8430, 495.7783
596.0110, 477.9985
597.1790, 538.4541
598.3480, 613.3970
599.5160, 675.2056
600.6830, 762.1006
601.8510, 730.3057
603.0180, 836.8384
604.1860, 861.4131
605.3530, 757.3018
606.5200, 670.6533
607.6870, 693.4907
608.8530, 583.4238
610.0200, 719.2593
611.1860, 594.8799
612.3520, 577.2598
613.5180, 677.1084
614.6840, 619.1089
615.8500, 696.1924
617.0150, 944.2705
618.1800, 987.9575
619.3450, 1137.296
620.5100, 1220.107
621.6750, 1521.939
622.8400, 1631.054
624.0040, 1778.984
625.1690, 1927.816
626.3330, 1927.427
627.4970, 1942.813
628.6610, 1850.472
629.8240, 1839.480
630.9880, 1542.125
632.1510, 1406.705
633.3140, 1310.569
634.4770, 1207.988
635.6400, 1314.818
636.8020, 1331.005
637.9650, 1424.333
639.1270, 1580.050
640.2890, 1609.730
641.4510, 1901.372
642.6130, 1999.978
643.7750, 2237.545
644.9360, 2405.078
646.0980, 2614.572
647.2590, 2919.030
648.4200, 3103.451
649.5810, 3422.836
650.7410, 3723.185
651.9020, 4188.498
653.0620, 4569.774
654.2220, 5288.012
655.3820, 5985.217
656.5420, 6995.385
657.7020, 8021.519
658.8610, 9265.617
660.0200, 10451.68
661.1800, 11730.71
662.3390, 12824.70
663.4970, 13882.65
664.6560, 13989.58
665.8150, 13985.46
666.9730, 13436.32
668.1310, 12014.13
669.2890, 10708.92
670.4470, 9104.670
671.6050, 7463.386
672.7620, 6284.067
673.9200, 5249.717
675.0770, 4307.332
676.2340, 3554.785
677.3910, 2868.465
678.5470, 2417.980
679.7040, 2004.464
680.8600, 1737.915
682.0160, 1443.334
683.1720, 1266.720
684.3280, 1045.074
685.4840, 882.3965
686.6390, 743.6875
687.7950, 634.0000
688.9500, 537.0850
690.1050, 521.3716
691.2600, 420.5371
692.4150, 439.6719
693.5690, 451.7759
694.7240, 158.8501
695.8780, 260.8916
697.0320, 183.9058
698.1860, 339.8896
699.3400, 334.8452
700.4930, 245.7744
701.6470, 132.6777
702.8000, 201.5552
703.9530, 223.4136
705.1060, 179.2671
706.2590, 105.1089
707.4110, 174.9458
708.5640, 115.7720
709.7160, 92.59277
710.8680, 50.39746
712.0200, 29.20312
713.1720, 38.99707
714.3230, 13.20947
715.4750, 6.434570
716.6260, 3.405762
717.7770, 85.93164
718.9280, 18.73486
720.0790, 12.60645
721.2300, 56.99121
722.3800, 77.37646
723.5300, 88.80420
724.6810, 55.31738
725.8300, 65.87207
726.9800, 27.61035
728.1300, 45.18018
729.2790, 23.10010
730.4290, 9.649902
731.5780, 42.44727
732.7270, 74.30811
733.8760, 10.75049
735.0240, 57.22705
736.1730, 103.2759
737.3210, 18.41846
738.4700, 118.6104
739.6180, 107.9033
740.7650, 134.2915
741.9130, 37.78516
743.0610, 110.3359
744.2080, 53.97949
745.3550, 63.68555
746.5020, 3.458008
747.6490, 51.73584
748.7960, 20.09277
749.9430, 23.03955
751.0890, 46.84814
752.2350, 64.78564
753.3810, 89.78467
754.5270, 83.69580
755.6730, 116.9893
756.8190, 11.20947
757.9640, 50.54688
759.1090, 143.2886
760.2540, 6.017090
761.3990, 112.7290
762.5440, 197.4277
763.6890, 107.1128
764.8330, 285.7871
765.9780, 197.4502
767.1220, 262.1016
768.2660, 266.7446
769.4100, 257.3774
770.5530, 233.9985
771.6970, 140.6128
772.8400, 198.2173
773.9830, 188.8110
775.1260, 194.3950
776.2690, 238.9717
777.4120, 283.5376
778.5540, 269.1196
779.6970, 273.6406
780.8390, 219.1777
781.9810, 214.7061
783.1230, 121.2261
784.2650, 144.7378
785.4060, 185.2412
786.5480, 119.7378
787.6890, 262.2266
788.8300, 198.7080
789.9710, 113.1836
791.1120, 300.6528
792.2520, 241.1157
793.3930, 186.5732
794.5330, 340.0259
795.6730, 246.4741
796.8130, 311.9175
797.9530, 307.3574
799.0930, 306.7944
800.2320, 233.2275
801.3710, 250.6592
802.5110, 165.0884
803.6500, 299.5156
804.7880, 304.9414
805.9270, 300.3667
807.0660, 307.7905
808.2040, 324.2148
809.3420, 235.6392
810.4800, 323.0640
811.6180, 317.4922
812.7560, 320.9155
813.8930, 403.3433
815.0310, 424.7729
816.1680, 500.2046
817.3050, 441.6392
818.4420, 449.0762
819.5790, 600.5166
820.7150, 632.9604
821.8520, 529.4082
822.9880, 681.8594
824.1240, 716.3154
825.2600, 660.7764
826.3960, 607.2417
827.5320, 630.7134
828.6670, 664.1904
829.8020, 736.6729
830.9380, 758.7109
832.0730, 754.3608
833.2080, 851.8633
834.3420, 779.8247
835.4770, 853.0620
836.6110, 756.2461
837.7450, 788.7803
838.8790, 822.9819
840.0130, 732.4927
841.1470, 858.0527
842.2810, 1014.511
843.4140, 1060.681
844.5470, 1209.164
845.6800, 1294.420
846.8130, 1448.578
847.9460, 1477.274
849.0790, 1637.422
850.2110, 1946.947
851.3440, 1794.903
852.4760, 2228.349
853.6080, 2179.478
854.7400, 2427.066
855.8710, 2558.161
857.0030, 2596.488
858.1340, 2637.099
859.2650, 2645.880
860.3960, 2610.255
861.5270, 2534.187
862.6580, 2447.530
863.7890, 2246.353
864.9190, 2189.153
866.0490, 1996.054
867.1790, 1836.246
868.3090, 1732.461
869.4390, 1638.761
870.5690, 1553.454
871.6980, 1563.001
872.8270, 1405.749
873.9570, 1500.916
875.0860, 1416.888
876.2140, 1330.630
877.3430, 1347.817
878.4720, 1291.166
879.6000, 1340.067
880.7280, 1368.613
881.8560, 1335.681
882.9840, 1266.652
884.1120, 1334.723
885.2390, 1327.914
886.3670, 1388.996
887.4940, 1346.802
888.6210, 1394.623
889.7480, 1485.020
890.8750, 1322.936
892.0020, 1457.907
893.1280, 1471.655
894.2540, 1526.328
895.3810, 1524.055
896.5070, 1636.684
897.6320, 1412.522
898.7580, 1432.406
899.8840, 1453.350
901.0090, 1536.332
902.1340, 1503.348
903.2590, 1505.410
904.3840, 1478.126
905.5090, 1416.287
906.6340, 1349.812
907.7580, 1302.016
908.8820, 1187.251
910.0060, 1177.521
911.1300, 1079.823
912.2540, 1016.160
913.3780, 1096.530
914.5010, 872.9404
915.6250, 776.3857
916.7480, 824.8643
917.8710, 703.3779
918.9940, 652.9258
920.1160, 658.5098
921.2390, 584.1279
922.3610, 526.7812
923.4840, 488.4697
924.6060, 446.1943
925.7280, 476.9727
926.8490, 454.7852
927.9710, 460.6348
929.0930, 477.5684
930.2140, 382.5479
931.3350, 387.6123
932.4560, 384.7344
933.5770, 386.9258
934.6980, 377.3916
935.8180, 315.4365
936.9380, 317.7510
938.0590, 308.1055
939.1790, 198.5166
940.2990, 179.9658
941.4180, 185.4697
942.5380, 72.01660
943.6570, 114.6133
944.7770, 70.25586
945.8960, 22.93555
947.0150, 115.6689
948.1340, 184.4512
949.2520, 73.27148
950.3710, 162.1299
951.4890, 299.0264
952.6070, 278.9619
953.7260, 348.9346
954.8430, 295.9453
955.9610, 333.9951
957.0790, 366.0840
958.1960, 292.2100
959.3130, 337.3750
960.4310, 366.5791
961.5480, 284.8223
962.6640, 351.1025
963.7810, 516.4229
964.8970, 406.7803
966.0140, 484.1777
967.1300, 540.6162
968.2460, 461.0928
969.3620, 486.6084
970.4780, 477.1641
971.5930, 564.7568
972.7090, 476.3896
973.8240, 434.0625
974.9390, 499.7754
976.0540, 550.5273
977.1690, 573.3193
978.2830, 607.1514
979.3980, 608.0234
980.5120, 810.9365
981.6260, 757.8896
982.7400, 877.8877
983.8540, 1016.932
984.9680, 1038.021
986.0820, 1279.164
987.1950, 1356.363
988.3080, 1517.615
989.4210, 1563.939
990.5340, 1616.312
991.6470, 1905.740
992.7600, 2209.234
993.8720, 2609.799
994.9850, 2933.439
996.0970, 3659.145
997.2090, 4178.916
998.3210, 5156.745
999.4320, 6228.637
1000.544, 7349.572
1001.655, 8790.562
1002.767, 9989.607
1003.878, 11843.72
1004.989, 13744.88
1006.100, 17428.11
1007.210, 19227.41
1008.321, 22549.75
1009.431, 25851.18
1010.541, 28556.68
1011.651, 30641.27
1012.761, 31391.91
1013.871, 29996.62
1014.980, 27373.34
1016.090, 23746.87
1017.199, 19362.94
1018.308, 15719.32
1019.417, 12612.78
1020.526, 10205.25
1021.635, 8413.380
1022.743, 7099.090
1023.852, 5923.363
1024.960, 4831.371
1026.068, 4564.976
1027.176, 4124.201
1028.283, 3599.121
1029.391, 3233.055
1030.498, 3093.889
1031.606, 2841.535
1032.713, 2725.992
1033.820, 2433.012
1034.927, 2326.617
1036.033, 2291.438
1037.140, 2258.785
1038.246, 2113.436
1039.353, 1989.681
1040.459, 2090.392
1041.564, 1911.130
1042.670, 1899.898
1043.776, 1790.697
1044.881, 1687.523
1045.987, 1616.119
1047.092, 1512.218
1048.197, 1421.220
1049.302, 1335.160
1050.406, 1234.129
1051.511, 1157.125
1052.615, 1041.148
1053.720, 988.2002
1054.824, 839.2783
1055.928, 894.3848
1057.031, 792.5176
1058.135, 792.4834
1059.238, 670.6689
1060.342, 583.8809
1061.445, 482.0908
1062.548, 601.5283
1063.651, 457.9336
1064.754, 505.8926
1065.856, 465.5781
1066.959, 456.8174
1068.061, 509.7725
1069.163, 471.1758
1070.265, 430.1074
1071.367, 554.8555
1072.469, 637.3242
1073.570, 629.8477
1074.671, 635.3086
1075.773, 769.4932
1076.874, 869.4355
1077.975, 827.0068
1079.075, 912.1738
1080.176, 914.0283
1081.276, 1085.656
1082.377, 1100.304
1083.477, 1063.970
1084.577, 1019.654
1085.677, 1037.356
1086.777, 999.0771
1087.876, 872.8145
1088.975, 860.5693
1090.075, 750.3418
1091.174, 660.1318
1092.273, 667.9375
1093.372, 660.7617
1094.470, 557.6016
1095.569, 633.4570
1096.667, 539.3281
1097.765, 593.2158
1098.863, 473.1191
1099.961, 449.0381
1101.059, 370.9717
1102.157, 411.9209
1103.254, 405.8838
1104.351, 324.8623
1105.449, 407.8555
1106.546, 511.8623
1107.642, 505.8828
1108.739, 503.9170
1109.836, 549.2373
1110.932, 535.0264
1112.028, 568.1016
1113.124, 591.1885
1114.220, 570.2891
1115.316, 476.4014
1116.412, 663.5273
1117.507, 373.6631
1118.603, 537.8125
1119.698, 536.9736
1120.793, 429.1445
1121.888, 501.3271
1122.983, 381.5205
1124.077, 532.7236
1125.172, 357.9385
1126.266, 414.1621
1127.360, 387.3955
1128.454, 453.6387
1129.548, 434.8896
1130.642, 328.1504
1131.735, 458.4189
1132.829, 450.6963
1133.922, 393.9814
1135.015, 306.2754
1136.108, 154.5752
1137.201, 146.8838
1138.294, 141.1982
1139.386, 12.51953
1140.478, 73.84668
1141.571, 6.179688
1142.663, 115.5186
1143.755, 13.86133
1144.846, 11.20996
1145.938, 75.43652
1147.030, 51.11621
1148.121, 40.81641
1149.212, 98.92188
1150.303, 81.30078
1151.394, 165.1016
1152.485, 88.98438
1153.575, 96.90820
1154.666, 51.88086
1155.756, 80.87988
1156.846, 53.92090
1157.936, 26.99121
1159.026, 38.34863
1160.116, 124.1875
1161.205, 52.36133
1162.295, 47.56738
1163.384, 94.80176
1164.473, 15.08887
1165.562, 16.60938
1166.651, 45.69336
1167.739, 0.9736330
1168.828, 121.6318
1169.916, 5.289063
1171.005, 46.94043
1172.093, 151.5908
1173.181, 74.23926
1174.268, 106.8896
1175.356, 95.53711
1176.443, 121.1846
1177.531, 0.8320310
1178.618, 69.46582
1179.705, 65.09863
1180.792, 124.7295
1181.879, 109.3604
1182.965, 96.98828
1184.052, 124.4414
1185.138, 158.2402
1186.224, 87.86328
1187.310, 93.48340
1188.396, 41.89746
1189.482, 95.68359
1190.567, 92.26270
1191.653, 160.1611
1192.738, 11.68359
1193.823, 161.2285
1194.908, 52.87402
1195.993, 98.56348
1197.077, 14.67871
1198.162, 0.9091800
1199.246, 64.11816
1200.331, 26.32520
1201.415, 44.47559
1202.499, 55.67871
1203.582, 39.16992
1204.666, 15.94141
1205.750, 14.96094
1206.833, 7.107422
1207.916, 59.15918
1208.999, 29.79492
1210.082, 6.786133
1211.165, 166.0371
1212.248, 153.2119
1213.330, 204.9785
1214.412, 268.1270
1215.495, 266.0967
1216.577, 240.0605
1217.658, 322.0195
1218.740, 217.9756
1219.822, 180.9258
1220.903, 122.8740
1221.985, 216.8164
1223.066, 158.7539
1224.147, 171.6885
1225.228, 253.6182
1226.308, 122.5430
1227.389, 293.4629
1228.469, 293.3789
1229.550, 279.2910
1230.630, 369.1982
1231.710, 441.0996
1232.790, 366.9971
1233.869, 369.8906
1234.949, 464.7793
1236.028, 471.6631
1237.108, 610.5410
1238.187, 495.4160
1239.266, 643.2861
1240.344, 416.1494
1241.423, 446.0107
1242.502, 532.8652
1243.580, 410.7168
1244.658, 510.5635
1245.736, 619.4053
1246.814, 586.4170
1247.892, 620.3945
1248.970, 609.9180
1250.047, 621.7578
1251.125, 635.7314
1252.202, 672.4541
1253.279, 649.3076
1254.356, 684.1641
1255.433, 677.0156
1256.509, 711.8633
1257.586, 622.7334
1258.662, 742.5986
1259.738, 732.4834
1260.814, 965.3633
1261.890, 949.2676
1262.966, 891.1670
1264.042, 1105.062
1265.117, 1161.952
1266.193, 1242.839
1267.268, 1220.721
1268.343, 1349.599
1269.418, 1436.473
1270.492, 1350.344
1271.567, 1489.210
1272.642, 1418.073
1273.716, 1584.932
1274.790, 1499.786
1275.864, 1500.683
1276.938, 1516.840
1278.012, 1413.497
1279.085, 1333.873
1280.159, 1171.212
1281.232, 1199.576
1282.305, 1102.335
1283.378, 980.5693
1284.451, 959.2998
1285.524, 935.3535
1286.597, 847.8770
1287.669, 1011.817
1288.741, 893.0947
1289.813, 906.3896
1290.885, 1088.815
1291.957, 1039.461
1293.029, 1156.325
1294.101, 1157.657
1295.172, 1242.435
1296.243, 1198.026
1297.315, 1206.121
1298.386, 1133.940
1299.456, 1107.196
1300.527, 1197.016
1301.598, 1018.834
1302.668, 1078.652
1303.738, 1173.470
1304.809, 1171.287
1305.879, 1234.104
1306.948, 1388.875
1308.018, 1314.690
1309.088, 1548.507
1310.157, 1536.320
1311.226, 1463.136
1312.296, 1588.956
1313.365, 1605.775
1314.433, 1590.592
1315.502, 1622.409
1316.571, 1567.227
1317.639, 1572.237
1318.707, 1625.057
1319.776, 1694.876
1320.844, 1583.727
1321.911, 1531.377
1322.979, 1400.089
1324.047, 1394.273
1325.114, 1253.761
1326.181, 1165.722
1327.249, 1077.484
1328.316, 880.8486
1329.382, 854.2021
1330.449, 657.7656
1331.516, 523.6377
1332.582, 474.4834
1333.648, 382.4180
1334.715, 288.6562
1335.781, 288.1650
1336.846, 254.0713
1337.912, 257.4111
1338.978, 354.0898
1340.043, 191.0225
1341.108, 254.9629
1342.174, 329.9121
1343.239, 154.8701
1344.303, 215.8379
1345.368, 258.8135
1346.433, 251.7998
1347.497, 260.7949
1348.561, 282.6221
1349.626, 288.4541
1350.690, 288.8340
1351.753, 300.8672
1352.817, 253.9072
1353.881, 214.9561
1354.944, 131.0156
1356.007, 228.0840
1357.071, 166.1631
1358.134, 132.2500
1359.196, 12.34766
1360.259, 129.4551
1361.322, 118.5742
1362.384, 156.7012
1363.447, 121.8408
1364.509, 84.99023
1365.571, 77.15039
1366.633, 171.3223
1367.694, 276.5059
1368.756, 211.7002
1369.817, 287.9062
1370.879, 315.1250
1371.940, 433.3750
1373.001, 419.7910
1374.062, 412.3105
1375.122, 324.0869
1376.183, 444.4268
1377.244, 402.2012
1378.304, 587.8535
1379.364, 571.5283
1380.424, 503.1582
1381.484, 539.3740
1382.544, 567.7432
1383.603, 547.1260
1384.663, 574.2295
1385.722, 519.1377
1386.781, 546.0723
1387.840, 530.6484
1388.899, 447.5439
1389.958, 490.0234
1391.017, 452.5205
1392.075, 375.0352
1393.134, 383.5654
1394.192, 383.1152
1395.250, 252.6826
1396.308, 256.2676
1397.365, 255.8721
1398.423, 249.4961
1399.481, 277.1396
1400.538, 384.8037
1401.595, 362.4873
1402.652, 386.1924
1403.709, 343.9365
1404.766, 502.7158
1405.823, 467.5273
1406.879, 490.3848
1407.936, 463.2803
1408.992, 367.2090
1410.048, 408.1133
1411.104, 340.9932
1412.160, 184.8691
1413.215, 329.6650
1414.271, 211.3779
1415.326, 338.9697
1416.382, 395.5762
1417.437, 197.2139
1418.492, 262.8652
1419.546, 286.5254
1420.601, 223.2051
1421.656, 250.8809
1422.710, 245.5420
1423.764, 255.0488
1424.819, 280.1855
1425.873, 311.4404
1426.926, 337.0244
1427.980, 377.5938
1429.034, 428.6709
1430.087, 487.7188
1431.140, 592.6904
1432.194, 676.3447
1433.247, 801.3770
1434.299, 873.9414
1435.352, 1011.522
1436.405, 1111.125
1437.457, 1319.761
1438.510, 1591.365
1439.562, 1695.124
1440.614, 2004.031
1441.666, 2071.754
1442.717, 2257.508
1443.769, 2349.293
1444.821, 2469.021
1445.872, 2597.259
1446.923, 2702.431
1447.974, 2840.645
1449.025, 2961.908
1450.076, 3021.234
1451.127, 3102.629
1452.177, 3173.538
1453.227, 3220.091
1454.278, 3289.163
1455.328, 3263.752
1456.378, 3247.699
1457.428, 3225.015
1458.477, 3108.688
1459.527, 3000.393
1460.576, 2861.125
1461.625, 2790.888
1462.675, 2700.680
1463.724, 2340.506
1464.772, 2376.362
1465.821, 2083.251
1466.870, 1931.172
1467.918, 1710.127
1468.966, 1569.114
1470.015, 1447.137
1471.063, 1397.185
1472.110, 1388.240
1473.158, 1178.279
1474.206, 1241.310
1475.253, 1115.362
1476.301, 1207.375
1477.348, 1091.352
1478.395, 1171.280
1479.442, 989.2383
1480.488, 956.2256
1481.535, 945.2432
1482.582, 939.2910
1483.628, 790.3682
1484.674, 881.4766
1485.720, 788.6133
1486.766, 766.7783
1487.812, 478.9697
1488.858, 518.1895
1489.903, 393.4414
1490.949, 349.7285
1491.994, 183.0557
1493.039, 200.4238
1494.084, 229.8340
1495.129, 96.28809
1496.173, 126.7881
1497.218, 43.33789
1498.262, 15.94043
1499.307, 7.599609
1500.351, 2.685547
1501.395, 10.91016
1502.439, 16.54004
1503.483, 29.22852
1504.526, 28.24609
1505.570, 10.22461
1506.613, 18.14355
1507.656, 81.99609
1508.699, 107.1895
1509.742, 83.56250
1510.785, 105.7383
1511.827, 69.90820
1512.870, 63.49805
1513.912, 82.04102
1514.955, 123.4736
1515.997, 135.0430
1517.039, 125.6689
1518.080, 170.3506
1519.122, 180.0898
1520.164, 217.8896
1521.205, 177.7529
1522.246, 155.6924
1523.288, 299.7090
1524.329, 341.8076
1525.369, 189.9912
1526.410, 322.2617
1527.451, 309.6240
1528.491, 448.0820
1529.531, 413.6367
1530.572, 427.2949
1531.612, 393.9873
1532.652, 487.1992
1533.691, 433.9922
1534.731, 436.3457
1535.770, 440.4551
1536.810, 338.2480
1537.849, 498.8896
1538.888, 392.5801
1539.927, 389.8838
1540.966, 272.5947
1542.005, 304.9062
1543.043, 343.7510
1544.082, 468.0479
1545.120, 308.6943
1546.158, 359.5625
1547.196, 326.5000
1548.234, 352.3086
1549.272, 338.8076
1550.309, 377.7988
1551.347, 293.1992
1552.384, 304.8408
1553.421, 262.9346
1554.458, 246.9766
1555.495, 250.4668
1556.532, 250.9238
1557.568, 263.7686
1558.605, 257.4238
1559.641, 292.1904
1560.678, 178.5186
1561.714, 142.1885
1562.750, 2.080078
1563.785, 132.8447
1564.821, 0.0000000E+00
##END=



