##NAMES=Diopside
##RRUFFID=R040097
##IDEAL CHEMISTRY=CaMgSi_2_O_6_
##LOCALITY=Fassathal, Tyrol
##OWNER=RRUFF
##SOURCE=University of Arizona Mineral Museum
##DESCRIPTION=Green prismatic crystals
##STATUS=The identification of this mineral has been confirmed by X-ray diffraction and chemical analysis
##URL=rruff.info/R040097
##MEASURED CHEMISTRY=Ca_1.00_(Mg_0.83_Al_0.10_Fe_0.09_Ca_0.02_Ti_0.02_)(Si_0.88_Al_0.12_)_2_O_6_
##PIN_ID=M00314
##ORIENTATION=Laser parallel to c [0 0 1]. Fiducial mark perpendicular to laser is parallel to b* (0 1 0)
99.644, 0.000
101.036, 58.029
102.428, 3.448
103.820, 72.409
105.212, 70.933
106.604, 195.537
107.995, 184.271
109.387, 212.457
110.777, 321.528
112.168, 255.303
113.559, 502.456
114.949, 605.861
116.339, 687.298
117.729, 544.568
119.119, 475.526
120.508, 425.057
121.897, 257.137
123.286, 237.912
124.675, 271.284
126.063, 198.332
127.452, 89.005
128.840, 77.046
130.228, 152.383
131.615, 197.853
133.003, 197.432
134.390, 176.103
135.777, 225.853
137.164, 417.671
138.550, 446.549
139.937, 426.479
141.323, 351.457
142.709, 432.702
144.094, 343.470
145.480, 348.193
146.865, 365.008
148.250, 331.624
149.635, 297.064
151.019, 157.350
152.403, 286.913
153.788, 183.862
155.171, 230.576
156.555, 234.206
157.939, 225.687
159.322, 241.063
160.705, 229.387
162.088, 310.664
163.470, 351.901
164.853, 521.104
166.235, 566.276
167.617, 631.423
168.998, 586.544
170.380, 571.644
171.761, 546.725
173.142, 501.790
174.523, 486.841
175.904, 344.881
177.284, 294.912
178.664, 303.937
180.044, 271.955
181.424, 421.971
182.803, 416.979
184.183, 542.111
185.562, 489.663
186.940, 525.351
188.319, 419.094
189.698, 463.120
191.076, 706.036
192.454, 864.384
193.831, 1188.034
195.209, 1411.746
196.586, 1415.516
197.963, 1079.344
199.340, 743.226
200.717, 427.163
202.093, 201.153
203.470, 215.196
204.846, 38.709
206.221, 2.434
207.597, 14.624
208.972, 16.859
210.347, 88.141
211.722, 90.464
213.097, 94.826
214.472, 29.772
215.846, 133.668
217.220, 138.146
218.594, 252.661
219.967, 370.881
221.341, 561.796
222.714, 636.416
224.087, 741.068
225.460, 925.755
226.832, 1210.469
228.204, 1165.205
229.577, 1319.965
230.948, 994.744
232.320, 1029.547
233.692, 724.370
235.063, 389.203
236.434, 304.036
237.805, 58.892
239.175, 103.768
240.545, 28.646
241.916, 83.547
243.286, 98.467
244.655, 23.408
246.025, 258.370
247.394, 73.351
248.763, 208.353
250.132, 283.373
251.501, 418.412
252.869, 643.473
254.237, 618.552
255.605, 783.652
256.973, 598.772
258.340, 643.914
259.708, 529.078
261.075, 444.263
262.442, 459.477
263.808, 154.719
265.175, 109.185
266.541, 163.737
267.907, 1.670
269.273, 46.746
270.639, 101.704
272.004, 126.566
273.369, 191.353
274.734, 66.100
276.099, 150.721
277.463, 155.303
278.828, 69.825
280.192, 104.293
281.556, 8.702
282.919, 63.022
284.283, 72.686
285.646, 98.475
287.009, 24.308
288.372, 220.411
289.734, 116.352
291.097, 422.318
292.459, 368.314
293.821, 434.335
295.183, 730.375
296.544, 676.436
297.905, 1062.515
299.266, 1088.613
300.627, 1364.729
301.988, 1530.858
303.348, 1747.003
304.709, 1903.163
306.069, 1869.336
307.428, 2025.522
308.788, 2091.714
310.147, 2347.907
311.507, 2584.102
312.865, 2840.299
314.224, 3006.498
315.583, 3282.701
316.941, 3658.873
318.299, 3925.043
319.657, 4441.221
321.015, 4937.400
322.372, 5313.566
323.729, 6149.738
325.086, 6115.916
326.443, 6362.103
327.800, 6158.295
329.156, 5804.496
330.512, 5460.703
331.868, 4726.922
333.224, 4603.144
334.579, 3899.375
335.935, 3785.612
337.290, 3411.858
338.645, 3028.111
339.999, 2974.373
341.354, 2660.642
342.708, 2606.917
344.062, 2453.200
345.416, 2459.490
346.769, 2305.787
348.123, 2452.091
349.476, 2638.345
350.829, 2734.472
352.182, 3150.522
353.534, 3356.495
354.887, 3522.439
356.239, 3798.375
357.591, 3394.322
358.942, 3320.281
360.294, 2856.254
361.645, 2612.237
362.996, 2418.231
364.347, 2024.236
365.698, 2000.252
367.048, 1696.278
368.398, 1679.925
369.748, 1625.606
371.098, 1501.659
372.448, 1717.722
373.797, 1523.795
375.146, 1689.875
376.495, 1905.964
377.844, 1870.309
379.192, 2206.413
380.540, 2262.527
381.889, 2828.646
383.236, 3234.771
384.584, 3880.904
385.932, 4607.044
387.279, 5323.189
388.626, 6249.340
389.973, 7005.498
391.319, 7971.662
392.666, 8247.829
394.012, 7964.007
395.358, 7440.188
396.704, 6226.374
398.049, 5212.570
399.394, 3988.770
400.740, 3305.016
402.084, 2621.268
403.429, 1847.526
404.774, 1663.826
406.118, 1200.131
407.462, 1056.468
408.806, 752.812
410.150, 599.179
411.493, 525.599
412.836, 262.023
414.179, 508.480
415.522, 224.988
416.865, 321.514
418.207, 328.078
419.549, 64.652
420.891, 401.813
422.233, 158.446
423.575, 205.514
424.916, 142.621
426.257, 210.048
427.598, 237.986
428.939, 165.188
430.279, 227.775
431.619, 133.333
432.959, 97.486
434.299, 240.624
435.639, 48.216
436.978, 257.923
438.318, 139.675
439.657, 117.229
440.996, 274.960
442.334, 84.853
443.673, 272.831
445.011, 157.591
446.349, 55.251
447.687, 294.267
449.024, 8.046
450.361, 229.979
451.699, 297.562
453.036, 356.641
454.372, 254.490
455.709, 431.964
457.045, 509.737
458.381, 557.140
459.717, 655.008
461.053, 632.051
462.388, 718.907
463.724, 815.750
465.059, 722.584
466.394, 839.405
467.728, 646.215
469.063, 643.010
470.397, 569.793
471.731, 486.564
473.065, 633.323
474.398, 450.069
475.732, 566.805
477.065, 343.526
478.398, 450.233
479.731, 436.927
481.063, 303.605
482.396, 340.271
483.728, 286.922
485.060, 363.559
486.391, 330.180
487.723, 336.786
489.054, 293.377
490.385, 229.953
491.716, 316.513
493.047, 293.057
494.377, 219.584
495.708, 266.095
497.038, 392.590
498.368, 339.068
499.697, 255.529
501.027, 161.973
502.356, 428.399
503.685, 174.807
505.014, 551.197
506.342, 467.569
507.671, 663.923
508.999, 630.259
510.327, 646.576
511.655, 882.875
512.982, 589.156
514.310, 725.419
515.637, 811.664
516.964, 627.891
518.291, 894.099
519.617, 830.289
520.944, 676.460
522.270, 752.612
523.596, 778.745
524.921, 994.858
526.247, 975.743
527.572, 1007.026
528.897, 1073.091
530.222, 1009.137
531.547, 1135.164
532.871, 961.170
534.196, 1267.153
535.520, 1023.117
536.844, 1009.059
538.167, 1104.987
539.491, 950.895
540.814, 856.778
542.137, 902.642
543.460, 758.481
544.783, 904.299
546.105, 690.093
547.427, 905.864
548.749, 821.931
550.071, 907.654
551.393, 1083.355
552.714, 1189.624
554.035, 1525.277
555.356, 1581.274
556.677, 1847.702
557.998, 2173.387
559.318, 1958.517
560.638, 2084.432
561.958, 1550.922
563.278, 1454.563
564.597, 1280.424
565.917, 752.670
567.236, 888.759
568.555, 528.364
569.874, 615.441
571.192, 501.640
572.511, 443.587
573.829, 599.878
575.147, 318.592
576.464, 362.284
577.782, 409.161
579.099, 124.037
580.416, 402.007
581.733, 160.577
583.050, 180.441
584.366, 106.316
585.683, 74.948
586.999, 190.611
588.315, 29.483
589.630, 159.996
590.946, 45.250
592.261, 38.648
593.576, 105.290
594.891, 178.598
596.206, 40.503
597.520, 64.988
598.834, 15.860
600.148, 48.966
601.462, 104.711
602.776, 210.248
604.089, 95.406
605.402, 61.706
606.715, 146.206
608.028, 99.956
609.341, 180.233
610.653, 63.899
611.965, 127.955
613.277, 201.511
614.589, 135.021
615.901, 214.354
617.212, 121.940
618.523, 295.307
619.834, 379.011
621.145, 462.294
622.456, 465.622
623.766, 388.822
625.076, 451.982
626.386, 605.103
627.696, 588.182
629.006, 761.387
630.315, 604.509
631.624, 737.673
632.933, 770.973
634.242, 743.844
635.551, 1026.718
636.859, 899.506
638.167, 1292.252
639.475, 1234.957
640.783, 1217.620
642.090, 1640.243
643.398, 1662.822
644.705, 2015.361
646.012, 2087.857
647.318, 2390.313
648.625, 2762.727
649.931, 2875.100
651.237, 3487.430
652.543, 3759.720
653.849, 4571.969
655.155, 5454.174
656.460, 6046.338
657.765, 7438.460
659.070, 8520.543
660.375, 10162.582
661.679, 12394.582
662.984, 14456.538
664.288, 16998.451
665.592, 17810.328
666.895, 18322.158
668.199, 17773.951
669.502, 15515.702
670.805, 13797.411
672.108, 11209.080
673.411, 9230.706
674.713, 7882.291
676.016, 6213.837
677.318, 5395.339
678.620, 4476.801
679.921, 3788.222
681.223, 3369.602
682.524, 2800.941
683.825, 2412.238
685.126, 2113.496
686.427, 1884.713
687.727, 1635.890
689.028, 1337.025
690.328, 1478.119
691.628, 969.175
692.927, 1070.188
694.227, 1011.162
695.526, 642.097
696.825, 792.991
698.124, 673.847
699.423, 494.662
700.721, 675.439
702.020, 416.177
703.318, 606.876
704.616, 237.536
705.913, 428.153
707.211, 418.733
708.508, 169.275
709.805, 429.774
711.102, 220.234
712.399, 110.653
713.695, 281.029
714.992, 98.634
716.288, 211.583
717.584, 71.760
718.879, 78.109
720.175, 201.913
721.470, 58.104
722.765, 131.784
724.060, 18.370
725.355, 138.601
726.649, 81.032
727.944, 59.377
729.238, 129.881
730.532, 10.517
731.825, 91.220
733.119, 17.968
734.412, 112.896
735.705, 4.424
736.998, 15.470
738.291, 197.000
739.584, 61.333
740.876, 180.690
742.168, 86.685
743.460, 45.234
744.752, 42.673
746.043, 135.088
747.334, 108.649
748.626, 2.903
749.916, 4.286
751.207, 53.242
752.498, 222.249
753.788, 88.378
755.078, 15.740
756.368, 205.810
757.658, 2.345
758.947, 129.675
760.237, 53.283
761.526, 32.463
762.815, 119.391
764.104, 114.052
765.392, 272.884
766.680, 48.292
767.969, 184.892
769.257, 151.838
770.544, 138.450
771.832, 285.400
773.119, 191.852
774.406, 49.092
775.693, 276.488
776.980, 113.861
778.267, 271.211
779.553, 208.541
780.839, 175.852
782.125, 343.143
783.411, 80.410
784.697, 87.658
785.982, 64.885
787.267, 19.789
788.552, 319.273
789.837, 96.438
791.122, 253.584
792.406, 350.711
793.690, 287.822
794.974, 264.914
796.258, 131.988
797.542, 489.047
798.825, 346.086
800.108, 243.109
801.391, 420.117
802.674, 177.111
803.957, 474.086
805.239, 391.047
806.522, 167.994
807.804, 464.924
809.085, 201.840
810.367, 518.740
811.649, 535.629
812.930, 252.504
814.211, 489.365
815.492, 426.213
816.772, 633.045
818.053, 889.867
819.333, 526.680
820.613, 1133.477
821.893, 780.264
823.173, 997.037
824.452, 953.801
825.732, 810.555
827.011, 1117.297
828.290, 994.025
829.568, 750.748
830.847, 927.461
832.125, 744.164
833.403, 660.859
834.681, 747.549
835.959, 364.229
837.236, 690.904
838.514, 307.570
839.791, 614.234
841.068, 520.891
842.345, 397.535
843.621, 724.199
844.898, 250.855
846.174, 497.562
847.450, 554.264
848.726, 380.961
850.001, 787.709
851.277, 594.453
852.552, 781.207
853.827, 1177.969
855.102, 574.729
856.376, 1211.508
857.651, 1048.285
858.925, 1034.740
860.199, 1381.594
861.473, 868.447
862.746, 1154.715
864.020, 881.625
865.293, 998.162
866.566, 924.322
867.839, 641.201
869.112, 978.609
870.384, 685.264
871.656, 431.314
872.928, 760.234
874.200, 476.914
875.472, 777.182
876.744, 513.605
878.015, 286.488
879.286, 621.877
880.557, 348.123
881.828, 528.600
883.098, 424.707
884.369, 238.381
885.639, 497.053
886.909, 312.525
888.178, 299.975
889.448, 474.305
890.717, 168.020
891.987, 440.416
893.256, 206.795
894.524, 70.395
895.793, 416.932
897.061, 179.205
898.330, 441.857
899.598, 228.717
900.865, 217.424
902.133, 482.881
903.401, 88.887
904.668, 151.828
905.935, 259.359
907.202, 70.529
908.468, 497.352
909.735, 195.055
911.001, 11.992
912.267, 469.527
913.533, 15.771
914.799, 361.510
916.064, 249.188
917.330, 300.686
918.595, 578.684
919.860, 296.256
921.124, 424.307
922.389, 322.377
923.653, 260.428
924.918, 648.543
926.182, 336.680
927.445, 454.457
928.709, 632.633
929.972, 190.742
931.236, 778.967
932.499, 297.209
933.761, 535.471
935.024, 713.754
936.286, 531.889
937.549, 620.084
938.811, 588.211
940.073, 506.178
941.334, 784.557
942.596, 492.912
943.857, 691.326
945.118, 1279.768
946.379, 588.225
947.640, 1016.705
948.900, 585.205
950.161, 773.721
951.421, 1132.262
952.681, 550.818
953.940, 1159.395
955.200, 2027.986
956.459, 1286.598
957.719, 1625.229
958.978, 1153.881
960.236, 1352.551
961.495, 1481.250
962.753, 1299.967
964.012, 1838.701
965.270, 1337.463
966.527, 1756.238
967.785, 1815.039
969.043, 1583.859
970.300, 2102.697
971.557, 1781.551
972.814, 1830.428
974.071, 2189.318
975.327, 1778.232
976.583, 2197.164
977.840, 2226.119
979.095, 2095.096
980.351, 2374.275
981.607, 2123.293
982.862, 2432.459
984.117, 2852.242
985.372, 2511.318
986.627, 3111.172
987.882, 3220.641
989.136, 3299.773
990.390, 3969.770
991.644, 3918.939
992.898, 4928.129
994.152, 4982.133
995.405, 5871.361
996.659, 7313.680
997.912, 7853.422
999.165, 9532.752
1000.417, 10895.648
1001.670, 12275.010
1002.922, 14976.973
1004.174, 16779.561
1005.426, 19278.980
1006.678, 22484.195
1007.930, 24093.635
1009.181, 27433.430
1010.432, 28122.209
1011.683, 27352.572
1012.934, 25273.715
1014.185, 21175.268
1015.435, 17184.814
1016.685, 13692.840
1017.935, 10192.863
1019.185, 8733.746
1020.435, 6855.723
1021.684, 6175.408
1022.934, 5655.533
1024.183, 4676.674
1025.432, 4756.467
1026.680, 4271.512
1027.929, 3952.125
1029.177, 3962.223
1030.425, 3204.088
1031.673, 3554.295
1032.921, 3135.131
1034.169, 2908.330
1035.416, 3219.701
1036.663, 3091.482
1037.911, 2812.420
1039.157, 3253.203
1040.404, 2935.863
1041.650, 3676.398
1042.897, 3901.771
1044.143, 3602.963
1045.389, 4203.725
1046.634, 4045.463
1047.880, 3876.457
1049.125, 4127.285
1050.371, 3319.484
1051.615, 3220.352
1052.860, 2712.271
1054.105, 2213.348
1055.349, 2634.254
1056.593, 1576.988
1057.837, 1698.484
1059.081, 1899.424
1060.325, 1141.998
1061.568, 1662.936
1062.812, 1144.158
1064.055, 1215.977
1065.298, 1496.912
1066.540, 688.928
1067.783, 1170.156
1069.025, 1421.242
1070.267, 623.672
1071.509, 854.627
1072.751, 805.578
1073.993, 617.320
1075.234, 818.248
1076.475, 430.195
1077.716, 831.158
1078.957, 722.049
1080.198, 466.047
1081.438, 806.916
1082.679, 438.084
1083.919, 560.107
1085.159, 870.928
1086.398, 161.861
1087.638, 782.654
1088.877, 543.428
1090.116, 575.588
1091.355, 716.336
1092.594, 277.059
1093.833, 859.146
1095.071, 369.836
1096.309, 461.875
1097.547, 722.521
1098.785, 183.146
1100.023, 424.857
1101.260, 475.535
1102.498, 236.094
1103.735, 676.631
1104.972, 487.146
1106.208, 158.139
1107.445, 629.984
1108.681, 210.428
1109.918, 463.127
1111.154, 633.527
1112.389, 454.260
1113.625, 776.135
1114.860, 366.455
1116.096, 448.021
1117.331, 709.102
1118.566, 399.336
1119.800, 629.543
1121.035, 400.285
1122.269, 520.436
1123.503, 752.121
1124.737, 322.213
1125.971, 403.840
1127.205, 604.684
1128.438, 174.678
1129.671, 377.006
1130.904, 197.004
1132.137, 56.898
1133.370, 588.375
1134.602, 58.480
1135.834, 158.762
1137.066, 429.381
1138.298, 49.076
1139.530, 490.562
1140.762, 271.367
1141.993, 79.066
1143.224, 581.797
1144.455, 208.252
1145.686, 161.053
1146.917, 453.529
1148.147, 207.287
1149.377, 504.344
1150.607, 24.736
1151.837, 35.830
1153.067, 474.668
1154.296, 75.939
1155.526, 343.451
1156.755, 244.410
1157.984, 286.865
1159.213, 124.186
1160.441, 4.844
1161.670, 166.713
1162.898, 434.271
1164.126, 266.498
1165.354, 242.207
1166.581, 58.779
1167.809, 162.559
1169.036, 466.674
1170.263, 127.781
1171.490, 51.488
1172.717, 520.984
1173.943, 34.475
1175.170, 234.084
1176.396, 490.539
1177.622, 58.670
1178.848, 437.127
1180.073, 313.518
1181.299, 30.318
1182.524, 207.900
1183.749, 128.334
1184.974, 334.904
1186.199, 421.459
1187.423, 69.303
1188.648, 536.080
1189.872, 24.748
1191.096, 400.914
1192.320, 648.553
1193.543, 299.520
1194.767, 485.588
1195.990, 533.309
1197.213, 211.449
1198.436, 797.316
1199.659, 295.455
1200.881, 501.256
1202.104, 587.635
1203.326, 146.598
1204.548, 422.697
1205.770, 708.486
1206.991, 176.119
1208.213, 801.201
1209.434, 498.117
1210.655, 333.689
1211.876, 748.533
1213.096, 314.795
1214.317, 509.824
1215.537, 544.424
1216.757, 238.096
1217.977, 752.527
1219.197, 779.203
1220.417, 404.426
1221.636, 738.840
1222.855, 354.121
1224.074, 588.145
1225.293, 772.480
1226.512, 108.840
1227.731, 982.598
1228.949, 536.283
1230.167, 331.236
1231.385, 974.752
1232.603, 590.072
1233.820, 643.430
1235.038, 746.729
1236.255, 292.070
1237.472, 725.232
1238.689, 658.330
1239.906, 302.734
1241.122, 975.701
1242.338, 308.752
1243.555, 682.004
1244.771, 674.770
1245.986, 377.887
1247.202, 620.504
1248.417, 703.051
1249.633, 656.562
1250.848, 1028.975
1252.063, 531.393
1253.277, 325.127
1254.492, 777.316
1255.706, 190.797
1256.920, 892.820
1258.134, 574.770
1259.348, 297.387
1260.562, 869.172
1261.775, 360.887
1262.988, 472.887
1264.201, 844.377
1265.414, 676.053
1266.627, 537.641
1267.839, 738.879
1269.052, 300.453
1270.264, 722.178
1271.476, 303.139
1272.688, 484.766
1273.899, 755.510
1275.111, 205.939
1276.322, 667.258
1277.533, 717.455
1278.744, 296.730
1279.955, 617.605
1281.165, 566.619
1282.376, 476.859
1283.586, 906.312
1284.796, 274.688
1286.006, 403.814
1287.215, 822.822
1288.425, 356.920
1289.634, 566.064
1290.843, 671.689
1292.052, 60.207
1293.261, 868.254
1294.469, 173.033
1295.678, 241.424
1296.886, 877.057
1298.094, 271.840
1299.302, 521.113
1300.509, 493.102
1301.717, 190.785
1302.924, 628.629
1304.131, 146.803
1305.338, 173.305
1306.545, 601.543
1307.752, 126.672
1308.958, 353.729
1310.164, 412.475
1311.370, 21.121
1312.576, 394.342
1313.782, 218.664
1314.987, 14.816
1316.193, 181.703
1317.398, 146.600
1318.603, 167.238
1319.807, 253.594
1321.012, 521.232
1322.216, 324.379
1323.421, 228.176
1324.625, 46.471
1325.829, 638.174
1327.032, 380.402
1328.236, 54.369
1329.439, 629.812
1330.642, 215.947
1331.845, 248.402
1333.048, 480.805
1334.251, 254.746
1335.453, 724.844
1336.656, 208.527
1337.858, 22.621
1339.060, 545.629
1340.261, 169.320
1341.463, 113.100
1342.664, 535.410
1343.866, 98.971
1345.067, 511.398
1346.267, 354.662
1347.468, 47.947
1348.669, 379.320
1349.869, 431.873
1351.069, 94.902
1352.269, 826.211
1353.469, 149.084
1354.668, 401.541
1355.868, 1283.229
1357.067, 195.826
1358.266, 467.270
1359.465, 649.939
1360.664, 57.803
1361.862, 643.035
1363.061, 95.287
1364.259, 317.479
1365.457, 488.824
1366.655, 260.934
1367.852, 761.982
1369.050, 443.951
1370.247, 75.971
1371.444, 644.871
1372.641, 567.787
1373.838, 209.547
1375.035, 1060.514
1376.231, 135.814
1377.427, 584.264
1378.623, 851.201
1379.819, 106.586
1381.015, 761.848
1382.211, 776.971
1383.406, 203.377
1384.601, 888.400
1385.796, 494.557
1386.991, 430.051
1388.185, 894.461
1389.380, 427.730
1390.574, 531.256
1391.768, 805.299
1392.962, 279.711
1394.156, 784.262
1395.350, 507.525
1396.543, 180.621
1397.736, 934.434
1398.929, 196.193
1400.122, 558.742
1401.315, 782.133
1402.507, 345.283
1403.700, 725.672
1404.892, 777.953
1406.084, 431.244
1407.276, 1038.428
1408.467, 436.420
1409.659, 437.961
1410.850, 1029.865
1412.041, 400.156
1413.232, 337.082
1414.423, 916.479
1415.614, 317.264
1416.804, 637.412
1417.994, 597.352
1419.184, 284.939
1420.374, 901.439
1421.564, 595.715
1422.753, 151.713
1423.943, 932.359
1425.132, 168.521
1426.321, 367.570
1427.510, 783.631
1428.698, 331.998
1429.887, 364.639
1431.075, 748.395
1432.263, 234.408
1433.451, 412.723
1434.639, 575.562
1435.827, 300.357
1437.014, 956.818
1438.201, 265.309
1439.388, 281.561
1440.575, 844.500
1441.762, 10.676
1442.949, 696.049
1444.135, 502.609
1445.321, 125.715
1446.507, 674.174
1447.693, 859.840
1448.879, 55.783
1450.064, 1047.756
1451.250, 345.262
1452.435, 189.574
1453.620, 1055.195
1454.805, 330.801
1455.989, 487.035
1457.174, 810.596
1458.358, 102.568
1459.542, 944.516
1460.726, 499.332
1461.910, 342.006
1463.093, 985.209
1464.277, 588.604
1465.460, 281.693
1466.643, 1012.258
1467.826, 323.369
1469.009, 366.512
1470.191, 1037.461
1471.373, 60.809
1472.556, 980.992
1473.738, 656.549
1474.919, 272.465
1476.101, 817.338
1477.283, 843.289
1478.464, 269.199
1479.645, 1144.299
1480.826, 245.445
1482.007, 731.572
1483.187, 1025.352
1484.368, 140.871
1485.548, 1056.658
1486.728, 811.342
1487.908, 127.076
1489.088, 1000.434
1490.268, 606.438
1491.447, 372.646
1492.626, 879.098
1493.805, 685.996
1494.984, 363.340
1496.163, 929.291
1497.341, 196.846
1498.520, 374.604
1499.698, 1042.553
1500.876, 31.043
1502.054, 610.105
1503.232, 630.258
1504.409, 160.504
1505.586, 1042.188
1506.763, 364.715
1507.940, 228.812
1509.117, 1014.953
1510.294, 405.238
1511.470, 604.406
1512.647, 796.168
1513.823, 61.180
1514.999, 951.113
1516.174, 658.617
1517.350, 3.344
1518.526, 0.000
##END=



