##NAMES=Diopside
##RRUFFID=R060276
##IDEAL CHEMISTRY=CaMgSi_2_O_6_
##LOCALITY=Inagli, Yakutia, Siberia, Russia
##OWNER=RRUFF
##SOURCE=Herb Obodda
##DESCRIPTION=Transparent green cleavage fragment
##STATUS=The identification of this mineral has been confirmed by X-ray diffraction and chemical analysis
##URL=rruff.info/R060276
##MEASURED CHEMISTRY=(Ca_0.97_Na_0.03_)_Σ=1_(Mg_0.96_Fe_0.03_Cr_0.01_)_Σ=1_(Si_1.98_Al_0.02_)_Σ=2_O_6_
##PIN_ID=L01049
##ORIENTATION=Laser parallel to a* (1 0 0). Fiducial mark perpendicular to laser is parallel to -b [0 -1 0]
109.5120, 0.0000000E+00
110.7440, 89.55322
111.9760, 8.994141
113.2080, 55.64600
114.4400, 182.3027
115.6710, 297.8091
116.9030, 251.1719
118.1340, 180.9653
119.3650, 173.0459
120.5960, 320.5942
121.8270, 474.1255
123.0580, 745.4829
124.2880, 906.1562
125.5190, 1212.686
126.7490, 2040.724
127.9790, 3039.004
129.2090, 4305.318
130.4390, 5490.661
131.6680, 6609.175
132.8980, 6921.685
134.1270, 7384.871
135.3560, 8089.166
136.5850, 8626.692
137.8140, 9066.388
139.0430, 9449.229
140.2710, 9113.191
141.5000, 8648.250
142.7280, 7682.390
143.9560, 6486.594
145.1840, 5042.854
146.4120, 3532.161
147.6390, 2622.504
148.8670, 1778.882
150.0940, 1168.391
151.3210, 1062.815
152.5490, 663.4927
153.7750, 537.1641
155.0020, 474.5205
156.2290, 198.5933
157.4550, 261.4160
158.6810, 161.3936
159.9080, 159.4663
161.1340, 151.6602
162.3590, 190.6670
163.5850, 262.5723
164.8110, 244.3867
166.0360, 348.1177
167.2610, 305.7734
168.4860, 375.3613
169.7110, 495.8901
170.9360, 571.3623
172.1610, 543.7764
173.3850, 751.1367
174.6100, 597.4463
175.8340, 583.7090
177.0580, 754.9282
178.2820, 969.1079
179.5050, 1020.251
180.7290, 1093.359
181.9520, 1420.437
183.1760, 1218.505
184.3990, 1335.500
185.6220, 1333.425
186.8450, 1147.331
188.0670, 934.6685
189.2900, 807.4624
190.5120, 695.2529
191.7340, 855.2974
192.9560, 962.9219
194.1780, 1107.243
195.4000, 1192.188
196.6220, 1232.867
197.8430, 1045.846
199.0640, 968.7817
200.2860, 798.7832
201.5070, 617.8643
202.7270, 505.0273
203.9480, 207.2798
205.1690, 98.69922
206.3890, 67.77881
207.6090, 107.2065
208.8290, 70.59717
210.0490, 3.046875
211.2690, 76.72705
212.4890, 69.44043
213.7080, 77.18701
214.9280, 283.9658
216.1470, 289.7759
217.3660, 373.6167
218.5850, 700.4873
219.8030, 845.3867
221.0220, 1139.313
222.2400, 1342.267
223.4590, 1552.244
224.6770, 1818.268
225.8950, 1970.304
227.1120, 2182.350
228.3300, 2385.461
229.5480, 2532.581
230.7650, 2407.708
231.9820, 2534.758
233.1990, 2230.727
234.4160, 2050.704
235.6330, 1602.689
236.8490, 1408.687
238.0660, 905.6934
239.2820, 772.7109
240.4980, 782.7383
241.7140, 686.7754
242.9300, 747.8228
244.1460, 871.8784
245.3610, 996.9438
246.5770, 1082.018
247.7920, 1221.102
249.0070, 1176.193
250.2220, 1294.293
251.4370, 1529.403
252.6510, 1713.521
253.8660, 1692.646
255.0800, 1594.778
256.2940, 1480.994
257.5080, 1589.100
258.7220, 1773.279
259.9360, 1314.692
261.1490, 521.9517
262.3630, 305.4209
263.5760, 195.0659
264.7890, 28.85938
266.0020, 24.78027
267.2150, 53.02686
268.4270, 124.0767
269.6400, 100.9180
270.8520, 132.7173
272.0640, 151.4932
273.2760, 170.2573
274.4880, 167.6147
275.7000, 102.7886
276.9120, 139.5483
278.1230, 87.31738
279.3340, 51.08447
280.5450, 91.84912
281.7560, 5.951172
282.9670, 83.58545
284.1780, 119.8115
285.3880, 48.54053
286.5980, 119.8291
287.8090, 280.0723
289.0190, 269.3198
290.2290, 430.5718
291.4380, 675.8516
292.6480, 768.3179
293.8570, 861.5806
295.0670, 1055.214
296.2760, 1122.901
297.4850, 1321.953
298.6930, 1418.273
299.9020, 1652.869
301.1110, 1936.724
302.3190, 2222.655
303.5270, 2393.842
304.7350, 2638.864
305.9430, 2871.810
307.1510, 3311.755
308.3580, 3851.695
309.5660, 4661.658
310.7730, 5550.630
311.9800, 7189.598
313.1870, 8782.583
314.3940, 10408.57
315.6010, 11982.56
316.8070, 13672.55
318.0130, 14996.55
319.2200, 16587.56
320.4260, 17985.57
321.6310, 19294.57
322.8370, 20258.58
324.0430, 20445.59
325.2480, 19761.59
326.4540, 18586.60
327.6590, 16923.62
328.8640, 14755.63
330.0680, 12475.64
331.2730, 9825.647
332.4780, 7980.656
333.6820, 6665.663
334.8860, 5486.574
336.0900, 4547.364
337.2940, 4144.422
338.4980, 3562.920
339.7010, 3241.470
340.9050, 3024.787
342.1080, 2822.101
343.3110, 2804.422
344.5140, 2790.174
345.7170, 2751.508
346.9200, 2873.864
348.1220, 2842.210
349.3240, 3067.561
350.5270, 3273.917
351.7290, 3290.853
352.9310, 3551.330
354.1320, 3836.117
355.3340, 3903.041
356.5350, 4343.415
357.7370, 4453.765
358.9380, 4669.145
360.1390, 4743.529
361.3400, 4731.913
362.5400, 4753.300
363.7410, 4844.691
364.9410, 5078.083
366.1410, 5140.478
367.3410, 5103.875
368.5410, 5045.271
369.7410, 4957.670
370.9400, 4570.072
372.1400, 4423.474
373.3390, 4184.877
374.5380, 4145.280
375.7370, 4175.685
376.9360, 4485.092
378.1350, 5052.500
379.3330, 6074.909
380.5310, 7269.321
381.7300, 8468.733
382.9280, 9888.148
384.1260, 11078.56
385.3230, 12335.98
386.5210, 13303.40
387.7180, 14366.82
388.9160, 15488.24
390.1130, 15813.66
391.3100, 15913.09
392.5060, 15204.51
393.7030, 13861.94
394.9000, 12026.37
396.0960, 9966.794
397.2920, 7977.225
398.4880, 6388.658
399.6840, 4868.089
400.8800, 3686.511
402.0750, 3118.943
403.2710, 2377.393
404.4660, 1887.846
405.6610, 1507.300
406.8560, 1249.755
408.0510, 1005.210
409.2450, 875.5552
410.4400, 732.8794
411.6340, 612.8477
412.8280, 455.3213
414.0220, 389.1572
415.2160, 296.0679
416.4100, 292.7085
417.6030, 309.1323
418.7970, 338.6836
419.9900, 323.2661
421.1830, 149.5034
422.3760, 148.9819
423.5690, 171.6973
424.7610, 109.8174
425.9540, 159.1187
427.1460, 121.5322
428.3380, 5.057129
429.5300, 14.27539
430.7220, 40.67383
431.9140, 87.06934
433.1050, 64.46191
434.2970, 21.85107
435.4880, 36.76270
436.6790, 50.59912
437.8700, 2.042480
439.0610, 22.69287
440.2510, 10.88770
441.4420, 115.0420
442.6320, 21.78857
443.8220, 43.07861
445.0120, 8.871582
446.2020, 72.61621
447.3910, 64.02686
448.5810, 91.23193
449.7700, 60.16504
450.9600, 74.34912
452.1490, 63.77832
453.3370, 93.50000
454.5260, 177.6763
455.7150, 271.0610
456.9030, 280.6191
458.0910, 464.0371
459.2800, 365.6553
460.4670, 531.2974
461.6550, 515.1665
462.8430, 488.6050
464.0300, 436.9868
465.2180, 533.5483
466.4050, 546.1904
467.5920, 436.0195
468.7790, 368.1914
469.9650, 304.0928
471.1520, 252.4805
472.3380, 119.4355
473.5250, 190.8032
474.7110, 204.1572
475.8970, 85.69775
477.0820, 64.91260
478.2680, 88.14111
479.4540, 29.63525
480.6390, 91.57080
481.8240, 21.77393
483.0090, 114.9868
484.1940, 93.19775
485.3780, 100.4097
486.5630, 77.36621
487.7470, 157.8076
488.9320, 57.97949
490.1160, 171.1470
491.3000, 79.32422
492.4830, 120.4985
493.6670, 238.6689
494.8500, 201.8574
496.0340, 290.0713
497.2170, 433.3037
498.4000, 560.5352
499.5820, 726.7627
500.7650, 937.9863
501.9480, 1102.205
503.1300, 1295.421
504.3120, 1566.637
505.4940, 1839.854
506.6760, 1912.066
507.8580, 2286.273
509.0390, 2267.476
510.2210, 2346.671
511.4020, 2290.863
512.5830, 2146.050
513.7640, 2014.234
514.9450, 2126.413
516.1250, 1893.587
517.3060, 1855.771
518.4860, 1662.957
519.6660, 1517.154
520.8460, 1390.358
522.0260, 1548.583
523.2060, 1466.804
524.3850, 1587.019
525.5650, 1539.228
526.7440, 1551.432
527.9230, 1494.648
529.1020, 1459.902
530.2810, 1414.160
531.4590, 1366.982
532.6380, 1262.623
533.8160, 1188.237
534.9940, 1107.092
536.1720, 984.3574
537.3500, 836.6328
538.5270, 719.9004
539.7050, 662.1602
540.8820, 564.7393
542.0590, 617.6660
543.2360, 456.9189
544.4130, 513.1836
545.5900, 507.4395
546.7660, 624.7246
547.9430, 518.0010
549.1190, 439.2842
550.2950, 500.5576
551.4710, 522.8223
552.6470, 555.0791
553.8220, 533.3506
554.9980, 507.6484
556.1730, 573.9658
557.3480, 550.3125
558.5230, 475.6895
559.6980, 494.9570
560.8730, 453.3555
562.0470, 454.0322
563.2220, 432.5342
564.3960, 428.0537
565.5700, 405.9404
566.7440, 381.7754
567.9170, 359.6592
569.0910, 337.1855
570.2640, 314.2051
571.4380, 314.6582
572.6110, 271.1504
573.7840, 195.6328
574.9570, 245.1025
576.1290, 181.5361
577.3020, 257.7734
578.4740, 241.2080
579.6460, 254.2617
580.8180, 154.2471
581.9900, 226.8447
583.1620, 231.1445
584.3330, 26.85938
585.5040, 104.8389
586.6760, 22.43359
587.8470, 40.74707
589.0180, 90.04688
590.1880, 15.57129
591.3590, 110.6875
592.5290, 86.73926
593.7000, 43.41016
594.8700, 114.7256
596.0400, 69.10254
597.2090, 7.991211
598.3790, 5.601563
599.5490, 10.61230
600.7180, 40.71777
601.8870, 28.28125
603.0560, 45.68359
604.2250, 58.83398
605.3940, 3.702148
606.5620, 17.54785
607.7300, 12.37012
608.8990, 3.847656
610.0670, 10.44629
611.2350, 73.24805
612.4020, 12.54297
613.5700, 84.04297
614.7370, 91.69141
615.9050, 46.60742
617.0720, 125.4424
618.2390, 219.7881
619.4060, 208.7510
620.5720, 257.8672
621.7390, 264.9131
622.9050, 359.5742
624.0710, 550.4814
625.2370, 458.9863
626.4030, 490.0137
627.5690, 755.4404
628.7340, 687.1621
629.9000, 819.8525
631.0650, 820.1475
632.2300, 935.0381
633.3950, 924.5400
634.5600, 1148.231
635.7240, 1198.637
636.8890, 1380.353
638.0530, 1583.927
639.2170, 1710.372
640.3810, 1852.952
641.5450, 1959.308
642.7080, 2201.957
643.8720, 2446.419
645.0350, 2905.711
646.1980, 3201.245
647.3610, 3775.477
648.5240, 4261.676
649.6870, 5129.855
650.8490, 6034.396
652.0120, 7397.564
653.1740, 9068.204
654.3360, 10940.69
655.4980, 13832.10
656.6600, 16938.70
657.8210, 20641.74
658.9830, 24253.25
660.1440, 27867.57
661.3050, 31304.45
662.4660, 34342.93
663.6270, 36123.21
664.7870, 37881.31
665.9480, 38092.62
667.1080, 37346.77
668.2680, 34438.22
669.4280, 30967.05
670.5880, 26611.15
671.7480, 22283.18
672.9070, 17718.18
674.0670, 14751.99
675.2260, 11801.97
676.3850, 9667.493
677.5440, 8069.352
678.7030, 6670.347
679.8610, 5726.537
681.0200, 4819.688
682.1780, 3997.696
683.3360, 3409.768
684.4940, 3023.514
685.6520, 2700.651
686.8090, 2441.141
687.9670, 2298.313
689.1240, 2028.765
690.2810, 1901.169
691.4380, 1723.748
692.5950, 1655.712
693.7520, 1462.269
694.9080, 1388.572
696.0650, 1359.969
697.2210, 1365.221
698.3770, 1418.446
699.5330, 1379.645
700.6880, 1371.817
701.8440, 1324.724
702.9990, 1383.083
704.1550, 1230.174
705.3100, 1249.240
706.4650, 1295.277
707.6190, 1184.288
708.7740, 1298.272
709.9290, 1063.231
711.0830, 1072.164
712.2370, 808.0703
713.3910, 894.9482
714.5450, 808.8008
715.6980, 759.6250
716.8520, 712.4336
718.0050, 621.2148
719.1580, 559.9707
720.3110, 504.7090
721.4640, 383.4238
722.6170, 505.1426
723.7700, 465.3672
724.9220, 350.0527
726.0740, 317.4219
727.2260, 247.8379
728.3780, 176.4307
729.5300, 209.2646
730.6810, 118.8184
731.8330, 155.0986
732.9840, 213.0537
734.1350, 14.52539
735.2860, 170.7520
736.4370, 96.77441
737.5880, 130.9053
738.7380, 51.80566
739.8880, 62.65039
741.0390, 25.76465
742.1890, 111.2051
743.3380, 34.79883
744.4880, 74.96777
745.6380, 10.37695
746.7870, 43.04688
747.9360, 66.09668
749.0850, 2.613281
750.2340, 20.85156
751.3830, 34.29883
752.5310, 11.99805
753.6800, 109.6777
754.8280, 16.13574
755.9760, 55.11719
757.1240, 83.56445
758.2720, 2.219727
759.4190, 53.84668
760.5670, 19.55469
761.7140, 76.99414
762.8610, 20.51562
764.0080, 24.99316
765.1550, 75.44336
766.3020, 100.8779
767.4480, 99.28809
768.5950, 16.32520
769.7410, 45.01367
770.8870, 132.3262
772.0330, 81.61719
773.1780, 208.8818
774.3240, 65.12695
775.4690, 93.34570
776.6140, 118.5430
777.7590, 80.71777
778.9040, 128.8691
780.0490, 52.99902
781.1940, 4.104492
782.3380, 6.178711
783.4820, 63.22266
784.6260, 130.2422
785.7700, 184.2422
786.9140, 164.7324
788.0580, 38.18262
789.2010, 122.1191
790.3450, 15.03613
791.4880, 32.92969
792.6310, 46.79980
793.7730, 39.35156
794.9160, 15.55371
796.0590, 39.79297
797.2010, 37.70410
798.3430, 79.42285
799.4850, 6.167969
800.6270, 31.73535
801.7690, 70.28125
802.9100, 11.80762
804.0520, 56.68750
805.1930, 158.2373
806.3340, 152.1035
807.4750, 35.42773
808.6160, 46.73242
809.7560, 46.01855
810.8970, 73.71289
812.0370, 109.5078
813.1770, 55.37988
814.3170, 50.69434
815.4570, 10.75293
816.5960, 4.208984
817.7360, 4.191406
818.8750, 37.19629
820.0140, 71.23926
821.1530, 32.66309
822.2920, 138.4512
823.4310, 78.34375
824.5690, 61.87598
825.7070, 71.85645
826.8460, 104.5752
827.9840, 76.27930
829.1220, 35.03027
830.2590, 14.63086
831.3970, 70.27539
832.5340, 36.90723
833.6710, 148.5244
834.8080, 184.1299
835.9450, 236.7227
837.0820, 92.30371
838.2190, 104.8730
839.3550, 86.42871
840.4910, 216.9746
841.6270, 340.5078
842.7630, 311.0312
843.8990, 611.5420
845.0350, 580.0430
846.1700, 941.5342
847.3060, 1189.013
848.4410, 1617.483
849.5760, 1679.942
850.7100, 2003.393
851.8450, 2224.834
852.9800, 2276.265
854.1140, 2317.686
855.2480, 2402.100
856.3820, 2390.504
857.5160, 2086.898
858.6500, 1814.286
859.7830, 1566.664
860.9170, 1360.046
862.0500, 1218.420
863.1830, 1149.786
864.3160, 994.1465
865.4480, 850.4062
866.5810, 837.7588
867.7130, 671.7803
868.8460, 731.9980
869.9780, 679.3730
871.1100, 500.6953
872.2410, 459.0352
873.3730, 519.0723
874.5050, 465.2578
875.6360, 503.9678
876.7670, 515.8779
877.8980, 472.2266
879.0290, 580.3721
880.1590, 477.1846
881.2900, 547.1855
882.4200, 525.5938
883.5500, 573.3271
884.6800, 542.3027
885.8100, 527.2783
886.9400, 519.1299
888.0690, 495.7549
889.1990, 553.2119
890.3280, 494.3857
891.4570, 540.5049
892.5860, 465.3359
893.7140, 478.4160
894.8430, 542.9062
895.9710, 608.8770
897.1000, 597.0537
898.2280, 615.1299
899.3560, 611.2109
900.4830, 585.5137
901.6110, 567.6035
902.7380, 557.8057
903.8660, 527.0107
904.9930, 580.6328
906.1200, 571.6416
907.2460, 544.0273
908.3730, 717.2061
909.5000, 526.7109
910.6260, 674.8896
911.7520, 762.2354
912.8780, 678.6953
914.0040, 852.0078
915.1290, 834.5596
916.2550, 650.8018
917.3800, 915.2246
918.5050, 903.8154
919.6300, 770.1514
920.7550, 706.7764
921.8800, 626.4229
923.0040, 498.0820
924.1290, 438.3643
925.2530, 408.1904
926.3770, 550.2051
927.5010, 349.5254
928.6250, 451.9385
929.7480, 340.1484
930.8720, 252.8965
931.9950, 248.1680
933.1180, 206.6289
934.2410, 174.6084
935.3640, 224.7939
936.4860, 177.2686
937.6090, 144.9180
938.7310, 216.3369
939.8530, 283.9150
940.9750, 153.1699
942.0970, 183.0332
943.2180, 214.6318
944.3400, 49.29590
945.4610, 116.9727
946.5820, 32.82617
947.7030, 100.4912
948.8240, 213.6172
949.9450, 188.3936
951.0650, 156.0195
952.1860, 169.4375
953.3060, 127.8838
954.4260, 167.3086
955.5460, 327.9600
956.6650, 283.7725
957.7850, 290.1826
958.9040, 435.2305
960.0230, 299.6064
961.1420, 435.7061
962.2610, 490.8682
963.3800, 510.0439
964.4990, 385.4424
965.6170, 508.4375
966.7350, 664.6738
967.8530, 442.8057
968.9710, 613.0703
970.0890, 484.3467
971.2070, 558.6377
972.3240, 672.9414
973.4410, 673.2598
974.5580, 729.5918
975.6750, 907.9404
976.7920, 883.3262
977.9090, 876.7275
979.0250, 1007.146
980.1410, 996.7139
981.2580, 1195.019
982.3740, 1131.480
983.4890, 1232.960
984.6050, 1397.454
985.7200, 1444.963
986.8360, 1616.769
987.9510, 1816.025
989.0660, 1929.578
990.1810, 2183.143
991.2950, 2373.727
992.4100, 2728.330
993.5240, 3168.950
994.6390, 3376.585
995.7530, 3985.236
996.8660, 4735.900
997.9800, 5672.582
999.0940, 6613.278
1000.207, 8144.990
1001.320, 9705.719
1002.433, 12061.46
1003.546, 14827.22
1004.659, 18975.00
1005.772, 22976.79
1006.884, 27955.61
1007.996, 32809.44
1009.108, 37477.29
1010.220, 41270.14
1011.332, 44085.03
1012.444, 45213.93
1013.555, 44297.86
1014.666, 40849.81
1015.777, 35461.79
1016.888, 29568.79
1017.999, 23536.81
1019.110, 18187.85
1020.220, 14134.91
1021.331, 10862.99
1022.441, 8742.096
1023.551, 7165.227
1024.661, 6122.371
1025.770, 5136.961
1026.880, 4372.164
1027.989, 3864.107
1029.098, 3327.350
1030.207, 3300.609
1031.316, 2927.896
1032.425, 2852.195
1033.533, 3080.512
1034.642, 2714.000
1035.750, 2702.653
1036.858, 2683.723
1037.966, 2724.424
1039.073, 2845.906
1040.181, 3051.890
1041.288, 3118.342
1042.396, 3343.489
1043.503, 3319.966
1044.610, 3332.117
1045.716, 3238.900
1046.823, 3155.242
1047.929, 3122.059
1049.036, 3064.777
1050.142, 2792.023
1051.248, 2445.683
1052.353, 2292.639
1053.459, 2017.604
1054.564, 1895.214
1055.670, 1763.466
1056.775, 1512.093
1057.880, 1506.766
1058.985, 1439.971
1060.089, 1311.798
1061.194, 1247.719
1062.298, 1173.083
1063.402, 1110.744
1064.506, 1065.013
1065.610, 1015.880
1066.713, 977.7559
1067.817, 944.3223
1068.920, 912.1055
1070.023, 874.6719
1071.126, 836.2920
1072.229, 787.3066
1073.332, 788.1240
1074.435, 745.4736
1075.537, 790.6797
1076.639, 674.0312
1077.741, 657.3350
1078.843, 550.4893
1079.945, 596.5742
1081.046, 702.8662
1082.148, 640.6240
1083.249, 613.8623
1084.350, 702.8340
1085.451, 470.9854
1086.551, 641.3398
1087.652, 464.4658
1088.752, 563.7500
1089.853, 443.1484
1090.953, 610.8516
1092.053, 479.4629
1093.152, 492.8066
1094.252, 499.6494
1095.351, 591.7256
1096.451, 599.7891
1097.550, 459.3271
1098.649, 400.4102
1099.748, 475.9951
1100.846, 472.2148
1101.945, 433.3584
1103.043, 507.8184
1104.141, 396.9492
1105.239, 491.4062
1106.337, 445.5605
1107.434, 409.0664
1108.532, 539.4238
1109.629, 327.7432
1110.726, 323.3252
1111.823, 310.3789
1112.920, 295.0625
1114.017, 349.6416
1115.113, 293.9355
1116.210, 469.0713
1117.306, 321.5322
1118.402, 476.1436
1119.498, 234.2314
1120.593, 393.3477
1121.689, 221.3623
1122.784, 527.5527
1123.879, 208.9912
1124.974, 355.2949
1126.069, 483.9707
1127.164, 444.3096
1128.259, 366.8730
1129.353, 336.6016
1130.447, 287.6230
1131.541, 283.6465
1132.635, 372.2266
1133.729, 323.9043
1134.822, 335.4053
1135.916, 405.8818
1137.009, 234.2031
1138.102, 277.4248
1139.195, 326.4648
1140.288, 198.3662
1141.380, 164.5547
1142.473, 251.3525
1143.565, 216.2275
1144.657, 245.5986
1145.749, 37.45312
1146.841, 261.2939
1147.932, 170.6494
1149.024, 75.57715
1150.115, 206.6074
1151.206, 202.7607
1152.297, 227.7754
1153.388, 151.6250
1154.479, 101.7705
1155.569, 127.7188
1156.659, 32.06543
1157.750, 158.1865
1158.839, 36.65430
1159.929, 65.63477
1161.019, 66.73828
1162.108, 70.97266
1163.198, 110.6152
1164.287, 74.11816
1165.376, 20.94531
1166.465, 5.642578
1167.553, 8.573242
1168.642, 71.02441
1169.730, 72.18457
1170.818, 3.311523
1171.906, 122.7510
1172.994, 201.1562
1174.082, 104.1836
1175.170, 151.4932
1176.257, 29.87109
1177.344, 6.782227
1178.431, 95.60547
1179.518, 57.59570
1180.605, 21.04102
1181.691, 42.58008
1182.778, 16.55176
1183.864, 18.65527
1184.950, 6.518555
1186.036, 16.70703
1187.122, 112.4893
1188.207, 37.63965
1189.292, 45.29492
1190.378, 76.51172
1191.463, 70.98633
1192.548, 39.72949
1193.632, 34.10449
1194.717, 9.769531
1195.801, 34.59375
1196.886, 30.03027
1197.970, 12.58984
1199.054, 45.87695
1200.137, 52.71777
1201.221, 69.27930
1202.305, 87.70312
1203.388, 170.1025
1204.471, 28.67578
1205.554, 47.97656
1206.637, 33.35449
1207.719, 47.84375
1208.802, 86.07129
1209.884, 110.2725
1210.966, 2.469727
1212.048, 13.76953
1213.130, 91.87402
1214.212, 212.9502
1215.293, 117.9990
1216.374, 72.11719
1217.456, 131.1104
1218.536, 100.1738
1219.617, 75.10938
1220.698, 25.01367
1221.778, 59.11523
1222.859, 22.18555
1223.939, 77.44824
1225.019, 203.2012
1226.099, 48.17676
1227.178, 66.62988
1228.258, 233.3936
1229.337, 57.88184
1230.417, 146.3359
1231.496, 164.7617
1232.574, 90.15918
1233.653, 169.5430
1234.732, 91.86133
1235.810, 165.3838
1236.888, 82.51855
1237.966, 64.23926
1239.044, 128.1348
1240.122, 65.25879
1241.199, 216.3496
1242.277, 47.81445
1243.354, 66.83789
1244.431, 22.31152
1245.508, 173.5254
1246.585, 95.95117
1247.661, 59.87207
1248.738, 184.8594
1249.814, 177.7148
1250.890, 224.0518
1251.966, 28.17480
1253.042, 22.01270
1254.117, 131.7168
1255.193, 53.78613
1256.268, 122.7969
1257.343, 68.52539
1258.418, 49.08301
1259.493, 197.1846
1260.567, 109.5039
1261.642, 157.5488
1262.716, 57.35938
1263.790, 83.97168
1264.864, 89.35742
1265.938, 125.4443
1267.011, 147.7207
1268.085, 190.1416
1269.158, 278.4150
1270.231, 152.3252
1271.304, 49.91406
1272.377, 305.4873
1273.450, 104.5293
1274.522, 260.7832
1275.594, 241.9619
1276.666, 103.4277
1277.738, 203.8613
1278.810, 178.9717
1279.882, 150.8750
1280.953, 182.8682
1282.025, 221.7559
1283.096, 149.4912
1284.167, 194.4023
1285.238, 128.4170
1286.308, 112.8096
1287.379, 132.3682
1288.449, 93.48828
1289.519, 134.9658
1290.589, 100.9248
1291.659, 247.3760
1292.729, 196.2314
1293.798, 238.3301
1294.868, 288.6621
1295.937, 16.36035
1297.006, 286.2676
1298.075, 78.86328
1299.143, 306.4355
1300.212, 107.1543
1301.280, 96.99609
1302.348, 241.5723
1303.416, 254.9717
1304.484, 194.6748
1305.552, 194.4033
1306.620, 239.0039
1307.687, 201.2070
1308.754, 157.9336
1309.821, 124.9551
1310.888, 190.6582
1311.955, 192.3027
1313.021, 44.81055
1314.088, 178.9414
1315.154, 34.54688
1316.220, 267.7715
1317.286, 108.9375
1318.352, 394.0488
1319.417, 64.40039
1320.483, 351.0039
1321.548, 64.99414
1322.613, 233.8535
1323.678, 334.0117
1324.743, 213.0703
1325.807, 242.1875
1326.872, 286.1680
1327.936, 191.5859
1329.000, 193.7520
1330.064, 289.9355
1331.128, 343.1543
1332.191, 174.3633
1333.255, 331.8398
1334.318, 207.4199
1335.381, 162.8633
1336.444, 309.9023
1337.507, 234.8789
1338.569, 214.9590
1339.632, 180.7734
1340.694, 348.2285
1341.756, 338.7559
1342.818, 272.4473
1343.880, 197.9336
1344.941, 307.0020
1346.003, 198.4727
1347.064, 239.9766
1348.125, 338.9414
1349.186, 281.8105
1350.247, 185.7402
1351.308, 226.9277
1352.368, 221.5879
1353.428, 276.2754
1354.489, 145.6562
1355.549, 148.5391
1356.608, 209.8281
1357.668, 251.5898
1358.727, 339.1445
1359.787, 324.6191
1360.846, 273.3105
1361.905, 261.3145
1362.964, 157.1211
1364.022, 30.41406
1365.081, 265.0332
1366.139, 152.7793
1367.197, 210.6992
1368.255, 378.0957
1369.313, 108.1055
1370.371, 272.3398
1371.428, 90.08594
1372.486, 159.1445
1373.543, 100.8203
1374.600, 299.1250
1375.657, 190.0996
1376.713, 256.9160
1377.770, 91.40820
1378.826, 134.9688
1379.882, 192.5137
1380.938, 303.6348
1381.994, 117.7949
1383.050, 122.5391
1384.106, 181.5273
1385.161, 221.2363
1386.216, 73.74219
1387.271, 19.84961
1388.326, 71.07617
1389.381, 117.9941
1390.435, 284.3906
1391.490, 49.92188
1392.544, 129.4453
1393.598, 209.0801
1394.652, 165.9043
1395.705, 193.0684
1396.759, 47.00586
1397.812, 100.5977
1398.866, 93.54297
1399.919, 266.8789
1400.972, 153.6133
1402.024, 164.1992
1403.077, 87.12891
1404.129, 85.31641
1405.181, 6.164063
1406.233, 8.845703
1407.285, 9.816406
1408.337, 9.150391
1409.389, 19.63086
1410.440, 156.7461
1411.491, 123.0332
1412.542, 160.8535
1413.593, 261.9043
1414.644, 134.6660
1415.695, 218.2363
1416.745, 87.16797
1417.795, 198.6973
1418.845, 99.94727
1419.895, 48.79883
1420.945, 172.7891
1421.995, 212.1270
1423.044, 10.84570
1424.093, 47.74805
1425.142, 81.05859
1426.191, 164.9297
1427.240, 39.09766
1428.289, 146.1719
1429.337, 102.8906
1430.385, 101.5684
1431.433, 177.1074
1432.481, 66.60547
1433.529, 52.21289
1434.577, 171.5684
1435.624, 267.7344
1436.672, 180.5469
1437.719, 116.7383
1438.766, 140.8789
1439.812, 68.22266
1440.859, 47.20508
1441.905, 43.31250
1442.952, 86.42773
1443.998, 14.98047
1445.044, 163.8926
1446.090, 73.00000
1447.135, 190.0703
1448.181, 258.3906
1449.226, 92.42773
1450.271, 196.4551
1451.316, 110.4961
1452.361, 116.2969
1453.405, 132.2949
1454.450, 95.68555
1455.494, 99.71094
1456.538, 101.6367
1457.582, 150.3281
1458.626, 203.1953
1459.670, 271.9219
1460.713, 199.6094
1461.757, 64.37109
1462.800, 107.9805
1463.843, 99.80078
1464.886, 115.3516
1465.928, 88.90820
1466.971, 189.7188
1468.013, 234.5000
1469.055, 374.0566
1470.097, 42.66992
1471.139, 690.1523
1472.181, 949.3789
1473.222, 1082.479
1474.263, 739.1875
1475.305, 886.6094
1476.346, 1278.475
1477.386, 236.4258
1478.427, 143.3926
1479.468, 258.1875
1480.508, 260.8633
1481.548, 250.6641
1482.588, 267.4883
1483.628, 101.3516
1484.668, 165.3809
1485.707, 202.5020
1486.747, 33.40039
1487.786, 194.3008
1488.825, 143.4551
1489.864, 210.0195
1490.902, 201.3125
1491.941, 158.0684
1492.979, 252.1758
1494.017, 184.8711
1495.055, 243.3945
1496.093, 107.5059
1497.131, 124.5430
1498.168, 276.0918
1499.206, 294.9727
1500.243, 31.55664
1501.280, 144.5137
1502.317, 342.7324
1503.354, 260.2031
1504.390, 158.4238
1505.426, 192.9414
1506.463, 331.4512
1507.499, 256.7266
1508.535, 319.0605
1509.570, 211.8105
1510.606, 203.0664
1511.641, 140.6035
1512.676, 155.1582
1513.711, 211.1152
1514.746, 215.4922
1515.781, 252.2402
1516.816, 267.3242
1517.850, 226.9551
1518.884, 165.9336
1519.918, 117.7207
1520.952, 196.2617
1521.986, 271.9668
1523.019, 233.5176
1524.053, 78.00000
1525.086, 94.41016
1526.119, 39.98242
1527.152, 154.2305
1528.185, 367.5000
1529.217, 132.8535
1530.250, 287.1777
1531.282, 357.0352
1532.314, 300.8203
1533.346, 196.1387
1534.377, 220.6797
1535.409, 138.9316
1536.440, 327.8066
1537.472, 93.91211
1538.503, 317.8145
1539.534, 174.6465
1540.564, 120.2910
1541.595, 216.3340
1542.625, 51.59180
1543.656, 298.5566
1544.686, 200.6191
1545.716, 86.99219
1546.745, 198.3809
1547.775, 295.7461
1548.804, 165.4277
1549.834, 123.7031
1550.863, 406.0742
1551.892, 482.6758
1552.920, 311.6895
1553.949, 461.2676
1554.977, 379.4727
1556.006, 333.3535
1557.034, 242.7734
1558.062, 256.2539
1559.089, 138.5312
1560.117, 1.156250
1561.144, 192.5156
1562.172, 214.1953
1563.199, 229.4160
1564.226, 147.6914
1565.252, 139.7676
1566.279, 94.64844
1567.305, 341.5664
1568.332, 190.9297
1569.358, 204.3984
1570.384, 67.41406
1571.409, 0.8906250
1572.435, 0.0000000E+00
##END=



