##NAMES=Diopside
##RRUFFID=R060171
##IDEAL CHEMISTRY=CaMgSi_2_O_6_
##LOCALITY=Jeffrey mine, Asbestos, Quebec, Canada
##OWNER=RRUFF
##SOURCE=Guy Ouellet
##DESCRIPTION=Yellowish-brown tabular crystals associated with vesuvianite, R060170
##STATUS=The identification of this mineral has been confirmed by X-ray diffraction and chemical analysis
##URL=rruff.info/R060171
##MEASURED CHEMISTRY=Ca_1.00_(Mg_0.98_Mn_0.02_)_Î£=1_Si_2.00_O_6_
##PIN_ID=L00876
##ORIENTATION=Laser parallel to -b* (0 -1 0). Fiducial mark perpendicular to laser is parallel to -c [0 0 -1]
95.94800, 0.0000000E+00
97.18200, 14.11914
98.41600, 0.8593750
99.64900, 56.17456
100.8830, 29.98901
102.1160, 16.48096
103.3490, 125.2869
104.5820, 279.2559
105.8150, 400.6611
107.0470, 661.9192
108.2800, 853.5913
109.5120, 683.3479
110.7440, 402.9180
111.9760, 366.0776
113.2080, 392.6294
114.4400, 523.4072
115.6710, 644.2710
116.9030, 1022.099
118.1340, 1337.788
119.3650, 1188.309
120.5960, 743.6323
121.8270, 611.6694
123.0580, 800.3425
124.2880, 841.6060
125.5190, 1163.432
126.7490, 1531.752
127.9790, 2450.497
129.2090, 3720.636
130.4390, 5181.136
131.6680, 6219.975
132.8980, 6608.126
134.1270, 7457.560
135.3560, 8986.248
136.5850, 10094.17
137.8140, 10179.31
139.0430, 10673.64
140.2710, 12418.23
141.5000, 15475.47
142.7280, 17053.39
143.9560, 15529.50
145.1840, 12141.74
146.4120, 7931.045
147.6390, 4725.433
148.8670, 2768.909
150.0940, 1901.475
151.3210, 1346.133
152.5490, 873.4702
153.7750, 833.2969
155.0020, 692.3218
156.2290, 497.3013
157.4550, 456.3662
158.6810, 375.5127
159.9080, 380.7383
161.1340, 283.0410
162.3590, 375.4180
163.5850, 277.8667
164.8110, 211.3848
166.0360, 282.9702
167.2610, 310.6211
168.4860, 236.3354
169.7110, 225.0845
170.9360, 257.7861
172.1610, 221.2539
173.3850, 352.1211
174.6100, 239.7866
175.8340, 358.4663
177.0580, 428.1670
178.2820, 420.8955
179.5050, 372.6558
180.7290, 410.4517
181.9520, 569.2856
183.1760, 737.2056
184.3990, 702.4287
185.6220, 619.9214
186.8450, 563.0879
188.0670, 314.1948
189.2900, 208.1636
190.5120, 186.9365
191.7340, 138.9170
192.9560, 159.7856
194.1780, 119.5762
195.4000, 153.4341
196.6220, 114.3892
197.8430, 237.4375
199.0640, 190.5767
200.2860, 162.8564
201.5070, 219.2339
202.7270, 115.7324
203.9480, 169.3198
205.1690, 103.9707
206.3890, 56.66895
207.6090, 112.4053
208.8290, 14.81885
210.0490, 28.98975
211.2690, 56.85596
212.4890, 24.24316
213.7080, 11.70361
214.9280, 45.68994
216.1470, 13.70117
217.3660, 53.25342
218.5850, 48.79639
219.8030, 80.87939
221.0220, 121.9854
222.2400, 132.1143
223.4590, 203.2656
224.6770, 341.4390
225.8950, 338.6328
227.1120, 402.8467
228.3300, 377.0757
229.5480, 497.3262
230.7650, 612.5972
231.9820, 676.8882
233.1990, 795.1987
234.4160, 935.5288
235.6330, 1019.878
236.8490, 822.2456
238.0660, 679.6318
239.2820, 443.0356
240.4980, 248.4570
241.7140, 321.8950
242.9300, 281.5063
244.1460, 197.9932
245.3610, 400.7329
246.5770, 347.8481
247.7920, 343.2026
249.0070, 457.4277
250.2220, 480.1699
251.4370, 580.0107
252.6510, 771.1211
253.8660, 813.2993
255.0800, 956.5957
256.2940, 1132.005
257.5080, 1302.516
258.7220, 1253.124
259.9360, 882.8193
261.1490, 382.5942
262.3630, 240.4448
263.5760, 24.36816
264.7890, 61.35645
266.0020, 51.40723
267.2150, 5.515137
268.4270, 29.25391
269.6400, 24.10889
270.8520, 2.850098
272.0640, 26.54639
273.2760, 109.2031
274.4880, 66.83691
275.7000, 93.47266
276.9120, 94.02490
278.1230, 77.58740
279.3340, 97.12793
280.5450, 87.65186
281.7560, 41.92920
282.9670, 3.401367
284.1780, 17.15576
285.3880, 7.258789
286.5980, 37.35547
287.8090, 74.99414
289.0190, 24.34326
290.2290, 98.14062
291.4380, 56.84082
292.6480, 61.65918
293.8570, 177.3999
295.0670, 233.8032
296.2760, 198.5830
297.4850, 230.7910
298.6930, 308.6958
299.9020, 520.6323
301.1110, 605.9839
302.3190, 768.1729
303.5270, 1032.461
304.7350, 1171.350
305.9430, 1331.091
307.1510, 1577.324
308.3580, 1744.268
309.5660, 2117.317
310.7730, 2440.866
311.9800, 2979.836
313.1870, 3517.818
314.3940, 4130.880
315.6010, 4537.883
316.8070, 4930.912
318.0130, 5260.513
319.2200, 5751.755
320.4260, 6160.804
321.6310, 6712.881
322.8370, 7667.952
324.0430, 8714.271
325.2480, 9017.366
326.4540, 8684.471
327.6590, 7460.305
328.8640, 5973.578
330.0680, 4261.296
331.2730, 3006.518
332.4780, 2284.578
333.6820, 1770.586
334.8860, 1285.574
336.0900, 1176.570
337.2940, 828.5752
338.4980, 767.5864
339.7010, 675.6069
340.9050, 676.6382
342.1080, 705.6792
343.3110, 708.7295
344.5140, 765.7886
345.7170, 872.8564
346.9200, 1044.646
348.1220, 1270.016
349.3240, 1546.106
350.5270, 1927.204
351.7290, 2310.808
352.9310, 2706.281
354.1320, 3144.306
355.3340, 3576.428
356.5350, 3980.556
357.7370, 4421.239
358.9380, 4903.377
360.1390, 5583.522
361.3400, 5773.671
362.5400, 5585.825
363.7410, 4848.983
364.9410, 3865.146
366.1410, 3131.314
367.3410, 2603.486
368.5410, 2227.662
369.7410, 1952.842
370.9400, 1877.026
372.1400, 1743.214
373.3390, 1945.406
374.5380, 1873.602
375.7370, 2198.801
376.9360, 2585.004
378.1350, 3113.209
379.3330, 3955.418
380.5310, 4755.631
381.7300, 5892.847
382.9280, 6811.064
384.1260, 7661.286
385.3230, 8571.511
386.5210, 9686.738
387.7180, 10570.98
388.9160, 11787.24
390.1130, 13189.52
391.3100, 13680.80
392.5060, 12527.11
393.7030, 10389.42
394.9000, 7865.751
396.0960, 5476.087
397.2920, 3842.433
398.4880, 2812.788
399.6840, 1944.889
400.8800, 1549.579
402.0750, 1208.052
403.2710, 976.7578
404.4660, 783.1460
405.6610, 641.8862
406.8560, 532.8711
408.0510, 447.2754
409.2450, 469.6836
410.4400, 354.0962
411.6340, 335.5122
412.8280, 236.9316
414.0220, 215.7280
415.2160, 196.0781
416.4100, 212.7798
417.6030, 168.0151
418.7970, 83.14502
419.9900, 124.0679
421.1830, 54.91064
422.3760, 111.5669
423.5690, 48.26953
424.7610, 17.39062
425.9540, 148.6899
427.1460, 70.02246
428.3380, 80.46973
429.5300, 47.16113
430.7220, 73.61182
431.9140, 89.55762
433.1050, 49.76709
434.2970, 89.83154
435.4880, 1.748535
436.6790, 32.66211
437.8700, 45.92725
439.0610, 64.34326
440.2510, 41.27783
441.4420, 27.07080
442.6320, 18.58154
443.8220, 25.25342
445.0120, 55.76660
446.2020, 57.00586
447.3910, 55.72900
448.5810, 63.86084
449.7700, 20.67529
450.9600, 49.51172
452.1490, 82.03418
453.3370, 60.83887
454.5260, 116.2466
455.7150, 81.33008
456.9030, 1.413574
458.0910, 54.48828
459.2800, 37.56152
460.4670, 12.64209
461.6550, 25.71484
462.8430, 141.7837
464.0300, 37.85156
465.2180, 46.91846
466.4050, 18.01562
467.5920, 90.03271
468.7790, 77.08105
469.9650, 9.127930
471.1520, 29.17627
472.3380, 6.776855
473.5250, 30.25537
474.7110, 39.28418
475.8970, 86.31006
477.0820, 69.34619
478.2680, 88.44238
479.4540, 44.42725
480.6390, 102.4727
481.8240, 77.51660
483.0090, 92.57080
484.1940, 92.64502
485.3780, 90.72754
486.5630, 64.83154
487.7470, 79.45996
488.9320, 86.50391
490.1160, 99.18311
491.3000, 128.3052
492.4830, 151.4263
493.6670, 184.2754
494.8500, 197.6626
496.0340, 295.7783
497.2170, 404.8926
498.4000, 500.0044
499.5820, 709.1143
500.7650, 885.2236
501.9480, 1052.331
503.1300, 1215.437
504.3120, 1339.541
505.4940, 1583.642
506.6760, 1750.741
507.8580, 2112.838
509.0390, 2302.932
510.2210, 2161.023
511.4020, 1819.112
512.5830, 1259.199
513.7640, 928.2837
514.9450, 675.3652
516.1250, 466.4453
517.3060, 317.5220
518.4860, 364.5952
519.6660, 259.6665
520.8460, 220.7344
522.0260, 204.8081
523.2060, 148.8789
524.3850, 145.9473
525.5650, 224.0137
526.7440, 293.0840
527.9230, 215.1533
529.1020, 225.2207
530.2810, 361.2847
531.4590, 281.3447
532.6380, 225.4014
533.8160, 203.4546
534.9940, 108.5044
536.1720, 51.55029
537.3500, 79.59326
538.5270, 107.6318
539.7050, 130.6738
540.8820, 11.71143
542.0590, 27.73779
543.2360, 2.755859
544.4130, 27.76025
545.5900, 97.75732
546.7660, 26.75342
547.9430, 16.74170
549.1190, 91.71924
550.2950, 164.6919
551.4710, 109.6587
552.6470, 164.2012
553.8220, 161.5786
554.9980, 146.5303
556.1730, 168.4805
557.3480, 105.4248
558.5230, 140.3682
559.6980, 165.3237
560.8730, 241.2852
562.0470, 151.2559
563.2220, 226.2368
564.3960, 140.2251
565.5700, 95.22314
566.7440, 14.99902
567.9170, 76.98926
569.0910, 54.97217
570.2640, 21.94873
571.4380, 75.91699
572.6110, 20.87891
573.7840, 83.82959
574.9570, 33.97412
576.1290, 78.91455
577.3020, 74.75049
578.4740, 54.67676
579.6460, 2.954590
580.8180, 106.8623
581.9900, 50.35400
583.1620, 98.15723
584.3330, 79.93848
585.5040, 5.689941
586.6760, 135.9937
587.8470, 47.44336
589.0180, 16.30078
590.1880, 67.37500
591.3590, 40.94043
592.5290, 2.230957
593.7000, 90.60107
594.8700, 51.73730
596.0400, 116.5601
597.2090, 71.46533
598.3790, 113.8315
599.5490, 145.6401
600.7180, 97.34717
601.8870, 157.5708
603.0560, 50.20215
604.2250, 184.9932
605.3940, 118.1113
606.5620, 121.0957
607.7300, 189.3618
608.8990, 239.6660
610.0670, 206.5479
611.2350, 318.8682
612.4020, 260.1641
613.5700, 292.6484
614.7370, 277.3965
615.9050, 317.1304
617.0720, 296.3755
618.2390, 351.1694
619.4060, 373.9663
620.5720, 429.8691
621.7390, 459.7046
622.9050, 568.1567
624.0710, 610.9844
625.2370, 641.9780
626.4030, 646.1504
627.5690, 797.0771
628.7340, 803.4155
629.9000, 922.4077
631.0650, 953.1660
632.2300, 966.1821
633.3950, 1008.035
634.5600, 1142.870
635.7240, 1302.594
636.8890, 1300.318
638.0530, 1414.035
639.2170, 1616.768
640.3810, 1691.479
641.5450, 1996.232
642.7080, 2109.201
643.8720, 2336.920
645.0350, 2766.619
646.1980, 3036.627
647.3610, 3492.313
648.5240, 3910.991
649.6870, 4491.687
650.8490, 5401.378
652.0120, 6563.332
653.1740, 7931.101
654.3360, 9628.743
655.4980, 12110.61
656.6600, 14758.26
657.8210, 18079.87
658.9830, 21339.71
660.1440, 25262.31
661.3050, 28924.99
662.4660, 32939.60
663.6270, 36263.52
664.7870, 39359.35
665.9480, 42069.49
667.1080, 41996.77
668.2680, 40498.47
669.4280, 36264.07
670.5880, 30582.74
671.7480, 25010.35
672.9070, 19704.95
674.0670, 15533.63
675.2260, 12324.34
676.3850, 10089.16
677.5440, 7987.636
678.7030, 6729.828
679.8610, 5530.292
681.0200, 4781.144
682.1780, 4154.270
683.3360, 3425.899
684.4940, 2828.166
685.6520, 2565.546
686.8090, 2315.614
687.9670, 1927.434
689.1240, 1788.830
690.2810, 1568.218
691.4380, 1391.730
692.5950, 1251.488
693.7520, 1065.465
694.9080, 997.8193
696.0650, 885.1650
697.2210, 821.9282
698.3770, 784.8315
699.5330, 661.1519
700.6880, 669.4629
701.8440, 581.7656
702.9990, 475.0591
704.1550, 455.3438
705.3100, 487.6196
706.4650, 381.6636
707.6190, 383.9229
708.7740, 449.1729
709.9290, 261.9551
711.0830, 408.1875
712.2370, 261.9165
713.3910, 244.1313
714.5450, 279.1748
715.6980, 163.3882
716.8520, 198.5986
718.0050, 210.7998
719.1580, 223.1157
720.3110, 217.6821
721.4640, 139.5215
722.6170, 162.7197
723.7700, 115.9185
724.9220, 30.93799
726.0740, 82.14844
727.2260, 85.36914
728.3780, 49.39893
729.5300, 55.62256
730.6810, 74.84766
731.8330, 161.6646
732.9840, 63.88916
734.1350, 97.12646
735.2860, 44.35498
736.4370, 0.5732420
737.5880, 173.7827
738.7380, 20.01758
739.8880, 114.2344
741.0390, 57.40283
742.1890, 142.5635
743.3380, 12.71533
744.4880, 25.85547
745.6380, 1.014648
746.7870, 3.108887
747.9360, 41.21875
749.0850, 25.68164
750.2340, 0.3793950
751.3830, 15.86133
752.5310, 38.91699
753.6800, 101.9634
754.8280, 28.73193
755.9760, 58.27441
757.1240, 37.68896
758.2720, 31.38477
759.4190, 45.41162
760.5670, 32.49219
761.7140, 70.43506
762.8610, 25.42432
764.0080, 73.89941
765.1550, 30.71387
766.3020, 74.97559
767.4480, 25.89844
768.5950, 68.58936
769.7410, 23.57129
770.8870, 51.63428
772.0330, 54.35498
773.1780, 79.12598
774.3240, 88.21973
775.4690, 102.3618
776.6140, 82.63477
777.7590, 109.0391
778.9040, 77.63867
780.0490, 34.22803
781.1940, 89.54736
782.3380, 135.1719
783.4820, 31.72998
784.6260, 144.6260
785.7700, 140.1626
786.9140, 86.82861
788.0580, 86.43555
789.2010, 32.94287
790.3450, 63.59473
791.4880, 127.0801
792.6310, 40.55664
793.7730, 87.02490
794.9160, 113.4810
796.0590, 40.92676
797.2010, 115.3618
798.3430, 14.21191
799.4850, 90.18652
800.6270, 25.57568
801.7690, 35.95312
802.9100, 6.681152
804.0520, 7.661621
805.1930, 53.98877
806.3340, 77.30566
807.4750, 54.61279
808.6160, 70.14404
809.7560, 70.19873
810.8970, 48.47754
812.0370, 38.74658
813.1770, 25.00488
814.3170, 105.2524
815.4570, 10.50830
816.5960, 95.70703
817.7360, 56.91406
818.8750, 110.1147
820.0140, 27.31055
821.1530, 50.50049
822.2920, 0.6826170
823.4310, 147.8477
824.5690, 141.0068
825.7070, 102.1611
826.8460, 159.3076
827.9840, 55.44629
829.1220, 113.5767
830.2590, 154.7002
831.3970, 242.8154
832.5340, 200.9238
833.6710, 200.0249
834.8080, 288.1187
835.9450, 331.2051
837.0820, 331.2852
838.2190, 440.3574
839.3550, 454.4229
840.4910, 584.4810
841.6270, 701.5327
842.7630, 1041.577
843.8990, 1302.624
845.0350, 1807.665
846.1700, 2250.699
847.3060, 2984.728
848.4410, 3645.751
849.5760, 4323.770
850.7100, 4920.781
851.8450, 5839.788
852.9800, 6397.786
854.1140, 7135.779
855.2480, 6905.766
856.3820, 6175.749
857.5160, 5124.726
858.6500, 3845.696
859.7830, 2816.659
860.9170, 2178.616
862.0500, 1515.428
863.1830, 1258.377
864.3160, 943.3188
865.4480, 742.1963
866.5810, 688.0913
867.7130, 589.0146
868.8460, 433.9336
869.9780, 311.8428
871.1100, 315.7480
872.2410, 228.5591
873.3730, 197.8301
874.5050, 158.4893
875.6360, 57.67871
876.7670, 80.54932
877.8980, 162.3745
879.0290, 154.2324
880.1590, 121.7349
881.2900, 155.3750
882.4200, 149.4883
883.5500, 106.7886
884.6800, 142.5010
885.8100, 17.04199
886.9400, 13.83691
888.0690, 82.63721
889.1990, 91.29443
890.3280, 6.077637
891.4570, 112.3545
892.5860, 58.07178
893.7140, 37.77539
894.8430, 46.36328
895.9710, 27.00732
897.1000, 26.02246
898.2280, 19.65283
899.3560, 72.89551
900.4830, 13.34766
901.6110, 62.17383
902.7380, 2.865234
903.8660, 66.24463
904.9930, 29.15234
906.1200, 62.80371
907.2460, 22.68115
908.3730, 18.17480
909.5000, 96.23145
910.6260, 15.32959
911.7520, 27.88770
912.8780, 38.57910
914.0040, 54.95605
915.1290, 101.4409
916.2550, 70.27979
917.3800, 26.24316
918.5050, 91.77979
919.6300, 7.979980
920.7550, 105.5762
921.8800, 5.130371
923.0040, 16.66846
924.1290, 110.2026
925.2530, 1.462402
926.3770, 104.8965
927.5010, 83.44775
928.6250, 35.76953
929.7480, 39.29688
930.8720, 39.84912
931.9950, 73.17822
933.1180, 66.27051
934.2410, 89.18359
935.3640, 54.72705
936.4860, 115.9248
937.6090, 81.21826
938.7310, 61.18213
939.8530, 66.00586
940.9750, 129.4097
942.0970, 39.91016
943.2180, 85.31934
944.3400, 92.79834
945.4610, 200.2788
946.5820, 111.6748
947.7030, 60.02832
948.8240, 154.2998
949.9450, 60.89014
951.0650, 42.76123
952.1860, 237.3750
953.3060, 76.85205
954.4260, 166.4624
955.5460, 158.8027
956.6650, 188.2803
957.7850, 244.9570
958.9040, 209.5898
960.0230, 171.2217
961.1420, 215.8584
962.2610, 104.5200
963.3800, 246.0488
964.4990, 266.7100
965.6170, 248.3872
966.7350, 318.0625
967.8530, 320.7378
968.9710, 354.4106
970.0890, 326.0845
971.2070, 318.7583
972.3240, 400.4316
973.4410, 331.1040
974.5580, 419.7759
975.6750, 417.4453
976.7920, 608.1138
977.9090, 510.7822
979.0250, 647.4482
980.1410, 562.1128
981.2580, 732.7754
982.3740, 734.4370
983.4890, 785.0972
984.6050, 828.7549
985.7200, 965.4111
986.8360, 1099.066
987.9510, 1048.721
989.0660, 1279.373
990.1810, 1311.024
991.2950, 1487.673
992.4100, 1594.319
993.5240, 1975.964
994.6390, 2153.607
995.7530, 2348.248
996.8660, 2767.888
997.9800, 3470.525
999.0940, 3923.160
1000.207, 4771.794
1001.320, 5979.424
1002.433, 7701.054
1003.546, 10050.68
1004.659, 13382.31
1005.772, 18047.93
1006.884, 23245.55
1007.996, 29073.17
1009.108, 35325.79
1010.220, 41300.34
1011.332, 47021.98
1012.444, 51609.59
1013.555, 53815.21
1014.666, 51786.84
1015.777, 44892.46
1016.888, 35344.07
1017.999, 26340.70
1019.110, 19184.32
1020.220, 13907.72
1021.331, 10502.20
1022.441, 8100.832
1023.551, 6487.459
1024.661, 5411.155
1025.770, 4622.886
1026.880, 4053.479
1027.989, 3905.362
1029.098, 3370.930
1030.207, 3243.415
1031.316, 3098.098
1032.425, 2995.615
1033.533, 2928.947
1034.642, 3076.560
1035.750, 3142.707
1036.858, 3427.250
1037.966, 3759.204
1039.073, 4212.035
1040.181, 5041.356
1041.288, 6172.191
1042.396, 7364.146
1043.503, 8455.653
1044.610, 9522.742
1045.716, 10720.58
1046.823, 11612.50
1047.929, 12344.76
1049.036, 12049.09
1050.142, 11085.03
1051.248, 9554.471
1052.353, 7745.756
1053.459, 5954.455
1054.564, 4621.342
1055.670, 3414.628
1056.775, 2783.484
1057.880, 2279.563
1058.985, 1903.355
1060.089, 1513.243
1061.194, 1238.308
1062.298, 1154.106
1063.402, 1167.454
1064.506, 1025.128
1065.610, 766.1387
1066.713, 684.2632
1067.817, 510.3081
1068.920, 496.4019
1070.023, 601.6699
1071.126, 531.7617
1072.229, 486.8105
1073.332, 494.2461
1074.435, 530.2017
1075.537, 500.7236
1076.639, 459.1064
1077.741, 441.2490
1078.843, 417.6064
1079.945, 345.3687
1081.046, 332.9995
1082.148, 279.9453
1083.249, 288.9204
1084.350, 278.4512
1085.451, 323.0752
1086.551, 301.8535
1087.652, 319.9932
1088.752, 344.8130
1089.853, 232.6006
1090.953, 187.2026
1092.053, 353.0459
1093.152, 247.0620
1094.252, 347.8521
1095.351, 257.9648
1096.451, 269.7578
1097.550, 269.5010
1098.649, 239.1260
1099.748, 387.9873
1100.846, 185.5234
1101.945, 305.5547
1103.043, 269.6494
1104.141, 177.4580
1105.239, 298.1016
1106.337, 126.8594
1107.434, 181.4590
1108.532, 275.9395
1109.629, 311.7568
1110.726, 238.2188
1111.823, 220.8047
1112.920, 238.2539
1114.017, 360.8516
1115.113, 277.2842
1116.210, 358.7090
1117.306, 337.3789
1118.402, 480.7861
1119.498, 385.5049
1120.593, 273.8945
1121.689, 406.3477
1122.784, 409.7207
1123.879, 262.0859
1124.974, 284.4414
1126.069, 304.7871
1127.164, 349.1240
1128.259, 274.4521
1129.353, 282.7715
1130.447, 256.0820
1131.541, 169.3818
1132.635, 190.6738
1133.729, 208.9551
1134.822, 146.2285
1135.916, 111.4922
1137.009, 172.7461
1138.102, 311.9902
1139.195, 193.2246
1140.288, 251.4502
1141.380, 215.6650
1142.473, 190.0928
1143.565, 173.2891
1144.657, 201.4766
1145.749, 200.6543
1146.841, 217.4668
1147.932, 198.2168
1149.024, 249.3652
1150.115, 207.9316
1151.206, 204.0850
1152.297, 104.7578
1153.388, 188.8760
1154.479, 128.9844
1155.569, 33.08203
1156.659, 91.16895
1157.750, 240.2432
1158.839, 31.48340
1159.929, 166.6191
1161.019, 121.6670
1162.108, 73.70410
1163.198, 116.7305
1164.287, 107.7451
1165.376, 102.7676
1166.465, 143.7793
1167.553, 3.205078
1168.642, 63.79004
1169.730, 57.22754
1170.818, 123.7109
1171.906, 76.97266
1172.994, 43.90039
1174.082, 66.81445
1175.170, 20.75293
1176.257, 83.66113
1177.344, 161.5566
1178.431, 13.44824
1179.518, 57.67773
1180.605, 62.85547
1181.691, 3.927734
1182.778, 72.31055
1183.864, 4.606445
1184.950, 84.07227
1186.036, 26.26172
1187.122, 69.36816
1188.207, 36.98340
1189.292, 68.58398
1190.378, 82.16992
1191.463, 39.74121
1192.548, 102.0352
1193.632, 8.160156
1194.717, 167.3555
1195.801, 50.85742
1196.886, 31.34375
1197.970, 43.81445
1199.054, 23.26758
1200.137, 27.70605
1201.221, 36.12500
1202.305, 42.52832
1203.388, 40.08496
1204.471, 64.25684
1205.554, 7.582031
1206.637, 7.113281
1207.719, 30.17773
1208.802, 6.546875
1209.884, 106.7002
1210.966, 78.06738
1212.048, 115.0977
1213.130, 53.24902
1214.212, 72.61523
1215.293, 178.4551
1216.374, 98.51367
1217.456, 50.44238
1218.536, 13.45215
1219.617, 92.50586
1220.698, 136.4502
1221.778, 77.37988
1222.859, 0.6884770
1223.939, 76.78125
1225.019, 27.04004
1226.099, 82.84473
1227.178, 44.36719
1228.258, 119.3721
1229.337, 61.09766
1230.417, 175.8057
1231.496, 31.50098
1232.574, 24.20703
1233.653, 65.86719
1234.732, 103.5117
1235.810, 74.14062
1236.888, 109.7549
1237.966, 193.3545
1239.044, 53.94141
1240.122, 242.5127
1241.199, 105.5029
1242.277, 152.0469
1243.354, 98.77441
1244.431, 179.4199
1245.508, 155.9355
1246.585, 75.43750
1247.661, 192.0889
1248.738, 59.56152
1249.814, 160.0186
1250.890, 118.4619
1251.966, 189.8926
1253.042, 232.3096
1254.117, 244.7129
1255.193, 262.4414
1256.268, 268.8604
1257.343, 225.8467
1258.418, 250.1982
1259.493, 182.5381
1260.567, 137.8633
1261.642, 249.1758
1262.716, 239.4766
1263.790, 196.7637
1264.864, 167.0381
1265.938, 282.3311
1267.011, 174.5801
1268.085, 214.8145
1269.158, 162.0371
1270.231, 140.2471
1271.304, 79.44336
1272.377, 187.8018
1273.450, 189.9707
1274.522, 150.2070
1275.594, 75.65723
1276.666, 256.7920
1277.738, 263.9990
1278.810, 233.1035
1279.882, 205.2021
1280.953, 343.1670
1282.025, 218.2012
1283.096, 239.2549
1284.167, 272.2959
1285.238, 156.0400
1286.308, 171.9590
1287.379, 90.52148
1288.449, 112.0771
1289.519, 135.2559
1290.589, 169.2236
1291.659, 269.9980
1292.729, 298.9375
1293.798, 294.8242
1294.868, 309.4658
1295.937, 310.2168
1297.006, 225.4805
1298.075, 252.1826
1299.143, 132.6348
1300.212, 15.38574
1301.280, 232.2441
1302.348, 225.7227
1303.416, 119.2832
1304.484, 264.5908
1305.552, 223.2148
1306.620, 189.9775
1307.687, 220.1768
1308.754, 195.2637
1309.821, 226.0645
1310.888, 200.0186
1311.955, 166.1455
1313.021, 156.5010
1314.088, 235.0029
1315.154, 263.9541
1316.220, 113.3691
1317.286, 274.6396
1318.352, 109.0283
1319.417, 169.4805
1320.483, 355.8086
1321.548, 204.3037
1322.613, 230.2402
1323.678, 190.9473
1324.743, 215.1934
1325.807, 194.3125
1326.872, 242.5068
1327.936, 275.5332
1329.000, 244.5830
1330.064, 353.6924
1331.128, 305.8379
1332.191, 333.5879
1333.255, 261.8027
1334.318, 288.4404
1335.381, 214.1572
1336.444, 292.1494
1337.507, 306.9111
1338.569, 216.2588
1339.632, 334.4990
1340.694, 89.86426
1341.756, 223.9619
1342.818, 277.5010
1343.880, 339.9316
1344.941, 235.1973
1346.003, 289.0879
1347.064, 182.2842
1348.125, 163.5000
1349.186, 200.8926
1350.247, 67.03125
1351.308, 65.01172
1352.368, 107.1777
1353.428, 123.0068
1354.489, 113.1445
1355.549, 77.31836
1356.608, 70.59668
1357.668, 190.6279
1358.727, 129.9688
1359.787, 50.80371
1360.846, 138.5625
1361.905, 288.5918
1362.964, 85.77441
1364.022, 231.8271
1365.081, 71.02344
1366.139, 178.3213
1367.197, 110.2695
1368.255, 7.441406
1369.313, 122.7012
1370.371, 5.966797
1371.428, 26.99023
1372.486, 81.24707
1373.543, 87.49902
1374.600, 14.49316
1375.657, 116.7344
1376.713, 120.6543
1377.770, 78.88770
1378.826, 156.0488
1379.882, 187.2754
1380.938, 140.4990
1381.994, 134.7188
1383.050, 70.93555
1384.106, 91.14844
1385.161, 118.3594
1386.216, 68.56641
1387.271, 53.76855
1388.326, 87.96875
1389.381, 80.18750
1390.435, 105.3828
1391.490, 122.5752
1392.544, 39.76562
1393.598, 114.9160
1394.652, 82.06348
1395.705, 261.2080
1396.759, 111.3506
1397.812, 176.4912
1398.866, 2.446289
1399.919, 143.5811
1400.972, 24.71191
1402.024, 5.158203
1403.077, 41.73340
1404.129, 20.85645
1405.181, 52.97656
1406.233, 40.09570
1407.285, 16.78711
1408.337, 106.3242
1409.389, 43.43457
1410.440, 72.54395
1411.491, 26.61133
1412.542, 61.67773
1413.593, 27.31055
1414.644, 12.47754
1415.695, 40.55469
1416.745, 43.60840
1417.795, 87.65820
1418.845, 80.70996
1419.895, 66.75781
1420.945, 45.80273
1421.995, 69.84863
1423.044, 101.8926
1424.093, 21.94336
1425.142, 129.9902
1426.191, 5.057617
1427.240, 123.8027
1428.289, 63.87012
1429.337, 106.9385
1430.385, 114.9932
1431.433, 26.06641
1432.481, 193.1123
1433.529, 32.15820
1434.577, 218.2090
1435.624, 50.28027
1436.672, 23.04980
1437.719, 88.14941
1438.766, 110.2744
1439.812, 38.40820
1440.859, 46.54590
1441.905, 116.7012
1442.952, 221.8643
1443.998, 98.97363
1445.044, 228.0801
1446.090, 3.178711
1447.135, 48.27051
1448.181, 106.3691
1449.226, 0.4638670
1450.271, 213.5771
1451.316, 191.6875
1452.361, 95.79590
1453.405, 131.9053
1454.450, 161.0430
1455.494, 126.1729
1456.538, 218.2969
1457.582, 55.45215
1458.626, 124.6318
1459.670, 155.8633
1460.713, 66.88770
1461.757, 74.40234
1462.800, 98.67383
1463.843, 245.9834
1464.886, 92.34766
1465.928, 59.75488
1466.971, 161.1670
1468.013, 145.5527
1469.055, 137.9775
1470.097, 245.4072
1471.139, 164.8398
1472.181, 145.7451
1473.222, 107.7744
1474.263, 54.17676
1475.305, 217.3750
1476.346, 13.78516
1477.386, 243.1982
1478.427, 87.61328
1479.468, 48.03027
1480.508, 122.4502
1481.548, 92.87500
1482.588, 65.30273
1483.628, 110.6904
1484.668, 213.1250
1485.707, 105.5654
1486.747, 155.8701
1487.786, 49.09375
1488.825, 134.0938
1489.864, 89.41699
1490.902, 92.53613
1491.941, 138.9883
1492.979, 74.36328
1494.017, 150.3926
1495.055, 190.6475
1496.093, 47.91602
1497.131, 101.5312
1498.168, 155.9854
1499.206, 26.35449
1500.243, 81.61719
1501.280, 132.1299
1502.317, 84.65430
1503.354, 124.1514
1504.390, 170.6973
1505.426, 182.1973
1506.463, 155.7539
1507.499, 149.3193
1508.535, 146.8145
1509.570, 114.4814
1510.606, 140.8828
1511.641, 83.26855
1512.676, 83.88672
1513.711, 14.52051
1514.746, 111.1680
1515.781, 83.83105
1516.816, 42.50781
1517.850, 140.3623
1518.884, 86.89453
1519.918, 57.42969
1520.952, 119.9658
1521.986, 94.50195
1523.019, 4.044922
1524.053, 65.60059
1525.086, 144.0908
1526.119, 24.65332
1527.152, 103.2188
1528.185, 45.78418
1529.217, 81.35254
1530.250, 129.9238
1531.282, 27.50879
1532.314, 123.1221
1533.346, 149.7578
1534.377, 190.4717
1535.409, 156.6367
1536.440, 55.09961
1537.472, 15.43652
1538.503, 156.0156
1539.534, 46.45605
1540.564, 68.88281
1541.595, 69.29004
1542.625, 35.68555
1543.656, 49.97363
1544.686, 145.3174
1545.716, 113.7949
1546.745, 144.4307
1547.775, 143.0635
1548.804, 148.1914
1549.834, 160.2480
1550.863, 181.7178
1551.892, 156.3145
1552.920, 194.8975
1553.949, 163.4561
1554.977, 209.5420
1556.006, 174.1621
1557.034, 111.5898
1558.062, 99.38184
1559.089, 88.21582
1560.117, 7.926758
1561.144, 177.9434
1562.172, 142.8291
1563.199, 161.7256
1564.226, 35.61133
1565.252, 48.34375
1566.279, 102.2764
1567.305, 23.81641
1568.332, 154.2070
1569.358, 32.39844
1570.384, 17.23047
1571.409, 0.1494140
1572.435, 0.0000000E+00
##END=



