##NAMES=Diopside
##RRUFFID=R060276
##IDEAL CHEMISTRY=CaMgSi_2_O_6_
##LOCALITY=Inagli, Yakutia, Siberia, Russia
##OWNER=RRUFF
##SOURCE=Herb Obodda
##DESCRIPTION=Transparent green cleavage fragment
##STATUS=The identification of this mineral has been confirmed by X-ray diffraction and chemical analysis
##URL=rruff.info/R060276
##MEASURED CHEMISTRY=(Ca_0.97_Na_0.03_)_Σ=1_(Mg_0.96_Fe_0.03_Cr_0.01_)_Σ=1_(Si_1.98_Al_0.02_)_Σ=2_O_6_
##PIN_ID=L01812
##ORIENTATION=Laser parallel to -c* (0 0 -1). Fiducial mark perpendicular to laser is parallel to -a [-1 0 0]
109.5120, 0.0000000E+00
110.7440, 82.40088
111.9760, 3.376709
113.2080, 25.52930
114.4400, 84.78833
115.6710, 238.2283
116.9030, 164.0134
118.1340, 140.6538
119.3650, 115.9238
120.5960, 187.3477
121.8270, 269.6191
123.0580, 333.7524
124.2880, 507.4814
125.5190, 585.9104
126.7490, 916.2974
127.9790, 1200.580
129.2090, 1739.942
130.4390, 2270.087
131.6680, 2528.104
132.8980, 3012.095
134.1270, 3558.070
135.3560, 4146.862
136.5850, 4535.291
137.8140, 4984.408
139.0430, 5196.253
140.2710, 5793.864
141.5000, 6283.965
142.7280, 6243.418
143.9560, 5626.995
145.1840, 4366.876
146.4120, 3193.232
147.6390, 2284.870
148.8670, 1562.595
150.0940, 1088.360
151.3210, 810.4529
152.5490, 617.8052
153.7750, 531.1929
155.0020, 393.6047
156.2290, 296.8347
157.4550, 275.7246
158.6810, 289.0820
159.9080, 214.9429
161.1340, 299.0068
162.3590, 185.0898
163.5850, 177.1912
164.8110, 205.3098
166.0360, 141.4453
167.2610, 140.5996
168.4860, 144.7727
169.7110, 98.96558
170.9360, 137.1792
172.1610, 15.58960
173.3850, 32.65967
174.6100, 114.9277
175.8340, 14.78442
177.0580, 52.52393
178.2820, 41.85376
179.5050, 37.79443
180.7290, 60.58008
181.9520, 64.97827
183.1760, 12.58740
184.3990, 3.135742
185.6220, 19.32129
186.8450, 42.80591
188.0670, 55.70117
189.2900, 50.24146
190.5120, 64.43481
191.7340, 49.84424
192.9560, 68.52271
194.1780, 78.83130
195.4000, 67.47510
196.6220, 35.82397
197.8430, 55.20728
199.0640, 129.6243
200.2860, 8.072021
201.5070, 84.54858
202.7270, 69.05225
203.9480, 31.58496
205.1690, 20.83911
206.3890, 85.23047
207.6090, 67.66113
208.8290, 19.11890
210.0490, 30.17749
211.2690, 28.54590
212.4890, 58.28857
213.7080, 62.05127
214.9280, 15.81299
216.1470, 186.5862
217.3660, 59.37158
218.5850, 76.14551
219.8030, 165.9351
221.0220, 67.73291
222.2400, 233.5542
223.4590, 270.3987
224.6770, 231.2654
225.8950, 308.1536
227.1120, 256.0620
228.3300, 320.9905
229.5480, 239.9541
230.7650, 340.9565
231.9820, 264.8872
233.1990, 265.8096
234.4160, 261.7437
235.6330, 112.7014
236.8490, 78.68286
238.0660, 121.6880
239.2820, 44.71753
240.4980, 117.7710
241.7140, 77.84888
242.9300, 65.95068
244.1460, 169.0764
245.3610, 130.2266
246.5770, 175.4011
247.7920, 323.6001
249.0070, 279.8237
250.2220, 353.0710
251.4370, 368.3438
252.6510, 426.6411
253.8660, 418.9631
255.0800, 469.3098
256.2940, 460.2310
257.5080, 416.1699
258.7220, 351.5305
259.9360, 295.4158
261.1490, 160.9055
262.3630, 92.49194
263.5760, 32.12988
264.7890, 3.188965
266.0020, 22.52539
267.2150, 59.26904
268.4270, 16.03687
269.6400, 23.17432
270.8520, 19.37280
272.0640, 24.56152
273.2760, 68.74585
274.4880, 19.93921
275.7000, 20.13208
276.9120, 21.32324
278.1230, 39.51270
279.3340, 43.70386
280.5450, 46.90186
281.7560, 96.88867
282.9670, 5.680176
284.1780, 93.47314
285.3880, 125.2690
286.5980, 108.0693
287.8090, 136.8389
289.0190, 233.5854
290.2290, 268.2622
291.4380, 380.0562
292.6480, 407.7617
293.8570, 379.4692
295.0670, 414.1899
296.2760, 493.9277
297.4850, 542.8223
298.6930, 658.6626
299.9020, 752.4287
301.1110, 898.6816
302.3190, 1008.462
303.5270, 1332.716
304.7350, 1550.358
305.9430, 1710.986
307.1510, 1890.630
308.3580, 2284.291
309.5660, 2479.969
310.7730, 2857.666
311.9800, 3182.381
313.1870, 3873.114
314.3940, 4391.873
315.6010, 4966.652
316.8070, 5198.456
318.0130, 5725.606
319.2200, 6223.416
320.4260, 6783.273
321.6310, 7239.649
322.8370, 7607.541
324.0430, 7948.449
325.2480, 7998.558
326.4540, 7771.500
327.6590, 7160.459
328.8640, 6286.325
330.0680, 5298.837
331.2730, 4349.847
332.4780, 3609.874
333.6820, 2989.916
334.8860, 2581.975
336.0900, 2183.034
337.2940, 2015.075
338.4980, 1797.119
339.7010, 1743.158
340.9050, 1647.182
342.1080, 1710.225
343.3110, 1769.287
344.5140, 1851.366
345.7170, 1930.275
346.9200, 2269.515
348.1220, 2606.131
349.3240, 2990.596
350.5270, 3582.880
351.7290, 3902.393
352.9310, 4456.857
354.1320, 5029.566
355.3340, 5409.499
356.5350, 6111.760
357.7370, 6367.040
358.9380, 6830.337
360.1390, 7009.651
361.3400, 7177.985
362.5400, 6837.336
363.7410, 6578.705
364.9410, 6071.093
366.1410, 5480.498
367.3410, 4957.921
368.5410, 4392.362
369.7410, 4081.822
370.9400, 3677.301
372.1400, 3544.796
373.3390, 3556.311
374.5380, 3511.844
375.7370, 3727.394
376.9360, 4194.963
378.1350, 4784.552
379.3330, 5517.159
380.5310, 6607.783
381.7300, 7747.427
382.9280, 8928.091
384.1260, 10261.77
385.3230, 11683.47
386.5210, 13183.19
387.7180, 14146.93
388.9160, 15276.68
390.1130, 15997.46
391.3100, 16326.25
392.5060, 16067.06
393.7030, 14665.89
394.9000, 12597.74
396.0960, 10260.60
397.2920, 7965.490
398.4880, 6115.393
399.6840, 4611.313
400.8800, 3536.249
402.0750, 2706.203
403.2710, 2151.182
404.4660, 1805.180
405.6610, 1424.197
406.8560, 1231.232
408.0510, 870.2847
409.2450, 806.1489
410.4400, 681.2363
411.6340, 586.3398
412.8280, 526.4619
414.0220, 537.5352
415.2160, 418.7998
416.4100, 425.8428
417.6030, 345.6621
418.7970, 335.9517
419.9900, 301.2510
421.1830, 318.5122
422.3760, 269.9263
423.5690, 203.1489
424.7610, 187.6929
425.9540, 80.54248
427.1460, 112.8711
428.3380, 101.2173
429.5300, 65.58105
430.7220, 101.9624
431.9140, 72.36182
433.1050, 128.7793
434.2970, 74.21387
435.4880, 42.66748
436.6790, 12.13818
437.8700, 58.62793
439.0610, 2.135742
440.2510, 9.338867
441.4420, 40.79688
442.6320, 59.75195
443.8220, 22.68018
445.0120, 115.8999
446.2020, 75.50195
447.3910, 41.09277
448.5810, 31.70557
449.7700, 42.33691
450.9600, 97.00537
452.1490, 174.6738
453.3370, 103.2578
454.5260, 100.9800
455.7150, 199.0200
456.9030, 187.1152
458.0910, 236.1475
459.2800, 251.3618
460.4670, 220.8076
461.6550, 264.6777
462.8430, 179.6001
464.0300, 277.5396
465.2180, 270.5220
466.4050, 218.5254
467.5920, 266.5669
468.7790, 227.6548
469.9650, 293.7739
471.1520, 204.9155
472.3380, 223.0996
473.5250, 109.3135
474.7110, 137.5469
475.8970, 136.8252
477.0820, 122.1411
478.2680, 159.4888
479.4540, 121.8535
480.6390, 40.23486
481.8240, 124.6338
483.0090, 113.0503
484.1940, 77.48682
485.3780, 125.9487
486.5630, 79.43652
487.7470, 8.058594
488.9320, 6.539063
490.1160, 71.00244
491.3000, 43.47266
492.4830, 75.06152
493.6670, 10.37988
494.8500, 77.21875
496.0340, 20.14697
497.2170, 17.49658
498.4000, 85.16650
499.5820, 23.85107
500.7650, 98.55029
501.9480, 85.26709
503.1300, 184.9985
504.3120, 238.7461
505.4940, 205.5083
506.6760, 247.2837
507.8580, 296.0747
509.0390, 358.8960
510.2210, 252.7446
511.4020, 343.6240
512.5830, 170.5254
513.7640, 140.4575
514.9450, 163.4150
516.1250, 194.3979
517.3060, 176.4004
518.4860, 188.4473
519.6660, 168.4575
520.8460, 191.5063
522.0260, 246.5791
523.2060, 284.6899
524.3850, 265.8208
525.5650, 294.9771
526.7440, 418.1450
527.9230, 516.3418
529.1020, 420.5640
530.2810, 576.7993
531.4590, 581.0562
532.6380, 698.3247
533.8160, 640.6040
534.9940, 596.8950
536.1720, 624.2231
537.3500, 536.5737
538.5270, 604.9531
539.7050, 614.3623
540.8820, 596.7852
542.0590, 634.2231
543.2360, 542.6733
544.4130, 588.1333
545.5900, 519.6030
546.7660, 529.0923
547.9430, 573.5903
549.1190, 542.0967
550.2950, 545.6113
551.4710, 626.1357
552.6470, 592.6680
553.8220, 629.2085
554.9980, 736.7573
556.1730, 869.3179
557.3480, 779.8906
558.5230, 738.4756
559.6980, 804.0830
560.8730, 771.7012
562.0470, 795.3311
563.2220, 722.9722
564.3960, 715.6284
565.5700, 495.2998
566.7440, 508.9873
567.9170, 425.6812
569.0910, 510.3804
570.2640, 425.0850
571.4380, 414.7954
572.6110, 395.5112
573.7840, 351.2319
574.9570, 329.9570
576.1290, 290.1553
577.3020, 344.4224
578.4740, 207.1616
579.6460, 235.9048
580.8180, 189.6479
581.9900, 269.2505
583.1620, 210.9209
584.3330, 162.6792
585.5040, 164.9590
586.6760, 51.72363
587.8470, 136.0288
589.0180, 50.80029
590.1880, 87.57422
591.3590, 1.351563
592.5290, 57.16406
593.7000, 22.97070
594.8700, 4.281738
596.0400, 7.872559
597.2090, 53.09863
598.3790, 6.307129
599.5490, 53.26855
600.7180, 14.62793
601.8870, 6.300293
603.0560, 67.53857
604.2250, 20.46777
605.3940, 60.24463
606.5620, 131.7881
607.7300, 87.30518
608.8990, 87.81494
610.0670, 135.8208
611.2350, 121.2915
612.4020, 224.9097
613.5700, 190.1675
614.7370, 243.2100
615.9050, 348.7456
617.0720, 461.1562
618.2390, 442.3218
619.4060, 446.1255
620.5720, 589.9951
621.7390, 545.8491
622.9050, 618.7114
624.0710, 664.1680
625.2370, 728.7241
626.4030, 874.6123
627.5690, 879.3027
628.7340, 984.7905
629.9000, 1173.825
631.0650, 1111.971
632.2300, 1284.464
633.3950, 1269.078
634.5600, 1416.308
635.7240, 1718.472
636.8890, 1742.579
638.0530, 1869.164
639.2170, 2081.737
640.3810, 2287.063
641.5450, 2515.439
642.7080, 2857.072
643.8720, 3359.971
645.0350, 3679.500
646.1980, 4213.104
647.3610, 4755.809
648.5240, 5613.071
649.6870, 6427.378
650.8490, 7549.989
652.0120, 9085.976
653.1740, 10785.52
654.3360, 13355.65
655.4980, 16331.76
656.6600, 20060.54
657.8210, 24331.30
658.9830, 29278.86
660.1440, 34754.46
661.3050, 39841.42
662.4660, 44922.64
663.6270, 49714.58
664.7870, 53261.96
665.9480, 55682.31
667.1080, 55929.48
668.2680, 54212.83
669.4280, 49840.42
670.5880, 43455.01
671.7480, 36596.41
672.9070, 29397.63
674.0670, 23593.01
675.2260, 18780.36
676.3850, 15118.13
677.5440, 12190.65
678.7030, 10111.10
679.8610, 8395.941
681.0200, 7121.095
682.1780, 6152.592
683.3360, 5115.677
684.4940, 4499.815
685.6520, 3878.196
686.8090, 3439.229
687.9670, 2940.243
689.1240, 2637.238
690.2810, 2369.217
691.4380, 2194.176
692.5950, 1886.118
693.7520, 1751.041
694.9080, 1621.944
696.0650, 1499.830
697.2210, 1407.697
698.3770, 1277.546
699.5330, 1209.375
700.6880, 1095.186
701.8440, 1036.977
702.9990, 960.7490
704.1550, 908.5015
705.3100, 883.2349
706.4650, 788.9487
707.6190, 791.6426
708.7740, 654.3169
709.9290, 524.9717
711.0830, 537.6069
712.2370, 538.2222
713.3910, 443.8174
714.5450, 413.3921
715.6980, 401.9473
716.8520, 341.4824
718.0050, 254.9976
719.1580, 192.4922
720.3110, 179.2544
721.4640, 259.4229
722.6170, 160.8628
723.7700, 166.2827
724.9220, 134.5952
726.0740, 86.06689
727.2260, 127.4390
728.3780, 141.7910
729.5300, 168.1221
730.6810, 85.41455
731.8330, 9.704590
732.9840, 21.06738
734.1350, 77.28271
735.2860, 141.1772
736.4370, 83.01416
737.5880, 13.08740
738.7380, 7.610840
739.8880, 13.93359
741.0390, 50.91748
742.1890, 21.03027
743.3380, 28.05322
744.4880, 30.80664
745.6380, 40.36182
746.7870, 24.59229
747.9360, 16.87646
749.0850, 19.78955
750.2340, 36.57568
751.3830, 6.000488
752.5310, 46.53125
753.6800, 74.96094
754.8280, 41.53271
755.9760, 22.16504
757.1240, 61.15088
758.2720, 52.44580
759.4190, 52.71826
760.5670, 50.96973
761.7140, 24.19775
762.8610, 0.3999020
764.0080, 5.437012
765.1550, 75.68652
766.3020, 151.7896
767.4480, 29.87451
768.5950, 106.9355
769.7410, 45.98779
770.8870, 129.0254
772.0330, 32.04346
773.1780, 144.0391
774.3240, 131.0166
775.4690, 79.97705
776.6140, 84.91846
777.7590, 49.84180
778.9040, 24.74463
780.0490, 57.62451
781.1940, 27.48535
782.3380, 97.32373
783.4820, 56.14404
784.6260, 34.94531
785.7700, 39.27295
786.9140, 24.74316
788.0580, 46.26416
789.2010, 5.224609
790.3450, 46.62549
791.4880, 25.07910
792.6310, 25.57520
793.7730, 5.112793
794.9160, 5.680176
796.0590, 29.72168
797.2010, 22.10596
798.3430, 27.52832
799.4850, 80.20264
800.6270, 12.94385
801.7690, 36.71631
802.9100, 52.46680
804.0520, 51.36523
805.1930, 39.24707
806.3340, 5.828613
807.4750, 29.11523
808.6160, 18.90479
809.7560, 123.9092
810.8970, 12.89941
812.0370, 93.12598
813.1770, 37.21875
814.3170, 66.34912
815.4570, 66.26367
816.5960, 9.767090
817.7360, 16.02344
818.8750, 6.303223
820.0140, 59.39795
821.1530, 20.08691
822.2920, 40.23730
823.4310, 135.4048
824.5690, 49.03418
825.7070, 168.6523
826.8460, 51.25830
827.9840, 160.8535
829.1220, 130.4375
830.2590, 186.0103
831.3970, 194.5723
832.5340, 222.1240
833.6710, 274.6646
834.8080, 299.2764
835.9450, 325.7144
837.0820, 406.2246
838.2190, 511.7256
839.3550, 629.2158
840.4910, 796.6973
841.6270, 959.1694
842.7630, 1242.632
843.8990, 1617.086
845.0350, 2045.532
846.1700, 2670.968
847.3060, 3359.396
848.4410, 4301.817
849.5760, 5105.229
850.7100, 6078.633
851.8450, 6765.029
852.9800, 7622.419
854.1140, 8131.800
855.2480, 8418.175
856.3820, 8296.545
857.5160, 7816.904
858.6500, 6916.258
859.7830, 5994.606
860.9170, 5102.948
862.0500, 4339.284
863.1830, 3570.591
864.3160, 3057.915
865.4480, 2515.234
866.5810, 2220.547
867.7130, 1981.821
868.8460, 1670.041
869.9780, 1534.866
871.1100, 1502.096
872.2410, 1239.392
873.3730, 1219.658
874.5050, 1098.672
875.6360, 1022.071
876.7670, 1018.177
877.8980, 841.9697
879.0290, 843.0688
880.1590, 841.3184
881.2900, 834.7983
882.4200, 695.3018
883.5500, 634.8101
884.6800, 643.8193
885.8100, 571.3125
886.9400, 584.7524
888.0690, 528.5020
889.1990, 507.4639
890.3280, 498.9302
891.4570, 570.5190
892.5860, 574.3496
893.7140, 542.5391
894.8430, 595.7979
895.9710, 499.7959
897.1000, 611.9189
898.2280, 566.4551
899.3560, 508.8882
900.4830, 446.9888
901.6110, 459.2920
902.7380, 460.6416
903.8660, 382.4731
904.9930, 400.8379
906.1200, 402.0244
907.2460, 434.4014
908.3730, 381.3838
909.5000, 359.7852
910.6260, 349.1924
911.7520, 313.6040
912.8780, 317.6704
914.0040, 332.3447
915.1290, 330.3589
916.2550, 353.7515
917.3800, 388.8765
918.5050, 369.3926
919.6300, 249.8413
920.7550, 328.1880
921.8800, 307.9751
923.0040, 212.7358
924.1290, 278.1899
925.2530, 200.2661
926.3770, 219.8091
927.5010, 227.7661
928.6250, 293.7559
929.7480, 195.0996
930.8720, 363.4727
931.9950, 166.0825
933.1180, 247.6514
934.2410, 162.8687
935.3640, 70.84229
936.4860, 254.0981
937.6090, 116.9204
938.7310, 183.7676
939.8530, 9.799316
940.9750, 137.6621
942.0970, 185.2925
943.2180, 163.9556
944.3400, 44.84668
945.4610, 100.8989
946.5820, 86.80859
947.7030, 178.7661
948.8240, 231.2983
949.9450, 211.0693
951.0650, 199.9277
952.1860, 254.4023
953.3060, 304.5664
954.4260, 319.3896
955.5460, 277.6353
956.6650, 329.8359
957.7850, 406.7935
958.9040, 351.0991
960.0230, 398.4209
961.1420, 468.7603
962.2610, 436.1304
963.3800, 464.5171
964.4990, 474.9224
965.6170, 418.3438
966.7350, 597.7822
967.8530, 665.2412
968.9710, 597.7173
970.0890, 670.2104
971.2070, 657.7207
972.3240, 731.2485
973.4410, 750.7944
974.5580, 797.3579
975.6750, 864.6929
976.7920, 949.5400
977.9090, 1008.157
979.0250, 987.7925
980.1410, 1079.444
981.2580, 1150.112
982.3740, 1205.797
983.4890, 1355.500
984.6050, 1472.222
985.7200, 1671.964
986.8360, 1622.727
987.9510, 1897.505
989.0660, 1990.301
990.1810, 2310.113
991.2950, 2459.943
992.4100, 2724.792
993.5240, 3169.657
994.6390, 3723.539
995.7530, 4193.437
996.8660, 4946.353
997.9800, 5894.285
999.0940, 6886.237
1000.207, 8249.206
1001.320, 10009.19
1002.433, 12314.20
1003.546, 15309.23
1004.659, 19098.28
1005.772, 23731.35
1006.884, 29382.44
1007.996, 35481.55
1009.108, 41443.69
1010.220, 47196.85
1011.332, 51108.05
1012.444, 53627.29
1013.555, 53745.54
1014.666, 51364.84
1015.777, 45545.16
1016.888, 37746.50
1017.999, 29998.89
1019.110, 23235.31
1020.220, 18062.75
1021.331, 13995.22
1022.441, 11339.72
1023.551, 9552.239
1024.661, 8117.807
1025.770, 6979.410
1026.880, 6309.045
1027.989, 5622.699
1029.098, 5432.369
1030.207, 5079.058
1031.316, 4848.633
1032.425, 5067.360
1033.533, 4801.358
1034.642, 5071.641
1035.750, 5262.564
1036.858, 5694.376
1037.966, 6396.490
1039.073, 6791.630
1040.181, 7707.665
1041.288, 8568.791
1042.396, 9569.553
1043.503, 10418.59
1044.610, 11193.77
1045.716, 11900.61
1046.823, 12235.86
1047.929, 12065.37
1049.036, 11388.47
1050.142, 10208.73
1051.248, 8977.413
1052.353, 7772.233
1053.459, 6406.462
1054.564, 5409.983
1055.670, 4429.216
1056.775, 3803.735
1057.880, 3241.062
1058.985, 2791.496
1060.089, 2622.726
1061.194, 2141.369
1062.298, 2013.875
1063.402, 1806.487
1064.506, 1683.088
1065.610, 1547.831
1066.713, 1350.883
1067.817, 1212.792
1068.920, 1178.446
1070.023, 1069.246
1071.126, 1022.833
1072.229, 930.7251
1073.332, 902.5039
1074.435, 794.2939
1075.537, 802.7842
1076.639, 747.1001
1077.741, 817.7217
1078.843, 788.5381
1079.945, 817.8789
1081.046, 697.1191
1082.148, 764.8496
1083.249, 653.6660
1084.350, 597.6064
1085.451, 663.7080
1086.551, 676.3257
1087.652, 720.8403
1088.752, 712.0605
1089.853, 671.7080
1090.953, 608.0166
1092.053, 509.8252
1093.152, 601.0117
1094.252, 519.2373
1095.351, 519.8481
1096.451, 606.3267
1097.550, 597.1040
1098.649, 522.0918
1099.748, 449.7515
1100.846, 550.7119
1101.945, 593.6616
1103.043, 546.6201
1104.141, 630.7007
1105.239, 582.7944
1106.337, 474.8687
1107.434, 352.1133
1108.532, 512.1333
1109.629, 538.0820
1110.726, 525.0557
1111.823, 533.9248
1112.920, 543.5503
1114.017, 524.1245
1115.113, 581.5239
1116.210, 569.3154
1117.306, 661.1504
1118.402, 622.4976
1119.498, 661.0762
1120.593, 694.7705
1121.689, 658.5601
1122.784, 679.3906
1123.879, 611.5664
1124.974, 673.1191
1126.069, 606.6743
1127.164, 656.4658
1128.259, 593.0845
1129.353, 648.8672
1130.447, 549.8652
1131.541, 541.7222
1132.635, 515.4937
1133.729, 412.5386
1134.822, 483.0410
1135.916, 510.5366
1137.009, 348.1992
1138.102, 481.2456
1139.195, 433.8965
1140.288, 357.5391
1141.380, 348.3657
1142.473, 314.9268
1143.565, 329.3604
1144.657, 289.0312
1145.749, 343.4468
1146.841, 335.0864
1147.932, 242.5537
1149.024, 297.9946
1150.115, 375.7944
1151.206, 224.3242
1152.297, 198.6777
1153.388, 268.1621
1154.479, 163.5410
1155.569, 210.2598
1156.659, 250.7588
1157.750, 197.4014
1158.839, 180.1450
1159.929, 74.46240
1161.019, 106.3164
1162.108, 41.12207
1163.198, 78.51172
1164.287, 3.895020
1165.376, 31.65576
1166.465, 37.34717
1167.553, 106.5732
1168.642, 24.84961
1169.730, 4.507324
1170.818, 35.91992
1171.906, 20.03760
1172.994, 47.49561
1174.082, 52.62305
1175.170, 26.70264
1176.257, 29.28467
1177.344, 20.79492
1178.431, 101.1909
1179.518, 67.00635
1180.605, 36.05811
1181.691, 84.57471
1182.778, 21.80078
1183.864, 59.12402
1184.950, 3.666992
1186.036, 56.63916
1187.122, 13.48047
1188.207, 69.10547
1189.292, 56.00879
1190.378, 35.46777
1191.463, 40.84180
1192.548, 53.40234
1193.632, 38.07178
1194.717, 100.5518
1195.801, 6.309082
1196.886, 58.10400
1197.970, 6.964844
1199.054, 1.618164
1200.137, 29.44775
1201.221, 1.486816
1202.305, 2.510254
1203.388, 15.54688
1204.471, 30.62988
1205.554, 81.76807
1206.637, 107.9878
1207.719, 6.694824
1208.802, 65.33936
1209.884, 43.80859
1210.966, 100.7432
1212.048, 103.2690
1213.130, 24.23047
1214.212, 67.39990
1215.293, 11.18652
1216.374, 15.25879
1217.456, 16.41357
1218.536, 11.13867
1219.617, 151.0864
1220.698, 28.28467
1221.778, 118.5771
1222.859, 40.71045
1223.939, 24.18945
1225.019, 170.9155
1226.099, 26.92822
1227.178, 134.1802
1228.258, 85.12451
1229.337, 24.04004
1230.417, 93.95508
1231.496, 97.80273
1232.574, 96.61621
1233.653, 68.50098
1234.732, 66.31445
1235.810, 71.84473
1236.888, 48.70947
1237.966, 86.36768
1239.044, 104.0630
1240.122, 98.64111
1241.199, 124.4180
1242.277, 183.4243
1243.354, 211.1084
1244.431, 43.55664
1245.508, 147.5034
1246.585, 29.88867
1247.661, 49.28516
1248.738, 199.0649
1249.814, 171.7827
1250.890, 149.1777
1251.966, 140.2676
1253.042, 71.71484
1254.117, 226.2261
1255.193, 209.5034
1256.268, 153.0894
1257.343, 194.8037
1258.418, 155.2549
1259.493, 103.3276
1260.567, 136.2578
1261.642, 156.9971
1262.716, 91.20703
1263.790, 222.4985
1264.864, 256.6475
1265.938, 180.6870
1267.011, 90.80078
1268.085, 181.7573
1269.158, 182.5166
1270.231, 137.2300
1271.304, 278.8013
1272.377, 200.4194
1273.450, 169.9829
1274.522, 271.8311
1275.594, 174.6709
1276.666, 214.1978
1277.738, 219.2192
1278.810, 131.8931
1279.882, 194.4639
1280.953, 275.3921
1282.025, 208.4487
1283.096, 326.9165
1284.167, 163.5693
1285.238, 214.4336
1286.308, 178.1855
1287.379, 151.3735
1288.449, 268.6045
1289.519, 120.0566
1290.589, 187.2856
1291.659, 161.2773
1292.729, 223.1035
1293.798, 203.6396
1294.868, 91.44141
1295.937, 246.3584
1297.006, 159.7163
1298.075, 205.0513
1299.143, 187.5854
1300.212, 295.5454
1301.280, 171.1606
1302.348, 241.8120
1303.416, 247.1025
1304.484, 266.2344
1305.552, 232.6699
1306.620, 243.9258
1307.687, 176.7744
1308.754, 207.3877
1309.821, 128.0391
1310.888, 320.4746
1311.955, 204.2754
1313.021, 82.22266
1314.088, 297.8027
1315.154, 136.7334
1316.220, 249.7344
1317.286, 182.4502
1318.352, 280.0752
1319.417, 213.1553
1320.483, 332.8281
1321.548, 204.3330
1322.613, 249.7305
1323.678, 367.1191
1324.743, 314.3613
1325.807, 334.4883
1326.872, 168.3555
1327.936, 284.7285
1329.000, 245.0400
1330.064, 306.5234
1331.128, 343.7734
1332.191, 268.0000
1333.255, 250.2715
1334.318, 289.2764
1335.381, 278.3262
1336.444, 247.6201
1337.507, 152.9082
1338.569, 286.7842
1339.632, 334.4912
1340.694, 304.1406
1341.756, 159.0498
1342.818, 277.8789
1343.880, 182.7695
1344.941, 260.3389
1346.003, 259.8369
1347.064, 317.6768
1348.125, 219.1416
1349.186, 167.5400
1350.247, 250.3867
1351.308, 356.8232
1352.368, 180.4277
1353.428, 208.5840
1354.489, 129.6152
1355.549, 285.2363
1356.608, 263.2812
1357.668, 185.9658
1358.727, 252.2881
1359.787, 238.9121
1360.846, 171.8135
1361.905, 208.2578
1362.964, 181.4307
1364.022, 196.1309
1365.081, 193.0098
1366.139, 176.3652
1367.197, 212.3994
1368.255, 140.6689
1369.313, 77.70996
1370.371, 146.9902
1371.428, 228.4043
1372.486, 2.004883
1373.543, 276.9570
1374.600, 182.9854
1375.657, 83.57227
1376.713, 90.74512
1377.770, 159.6533
1378.826, 27.43457
1379.882, 9.861328
1380.938, 105.4521
1381.994, 153.5986
1383.050, 71.88965
1384.106, 48.45117
1385.161, 87.36035
1386.216, 168.8584
1387.271, 195.4521
1388.326, 28.79688
1389.381, 109.4092
1390.435, 80.55176
1391.490, 106.1328
1392.544, 123.6816
1393.598, 97.27832
1394.652, 125.2012
1395.705, 163.6387
1396.759, 165.6689
1397.812, 190.2832
1398.866, 170.9043
1399.919, 178.0918
1400.972, 101.1260
1402.024, 94.61133
1403.077, 159.7021
1404.129, 47.80469
1405.181, 106.8809
1406.233, 121.5498
1407.285, 44.52832
1408.337, 38.45117
1409.389, 109.4873
1410.440, 65.42090
1411.491, 32.94922
1412.542, 41.67188
1413.593, 147.1328
1414.644, 126.4717
1415.695, 64.16992
1416.745, 107.2744
1417.795, 192.6250
1418.845, 27.14355
1419.895, 188.4277
1420.945, 53.73145
1421.995, 100.6016
1423.044, 37.29590
1424.093, 191.4062
1425.142, 122.9258
1426.191, 21.99316
1427.240, 94.26367
1428.289, 166.1172
1429.337, 204.2520
1430.385, 208.1562
1431.433, 206.0967
1432.481, 119.6191
1433.529, 147.6338
1434.577, 55.38672
1435.624, 29.24316
1436.672, 6.695313
1437.719, 58.64160
1438.766, 157.3740
1439.812, 2.435547
1440.859, 32.67871
1441.905, 60.76758
1442.952, 211.6328
1443.998, 163.2061
1445.044, 101.1367
1446.090, 98.40137
1447.135, 167.1768
1448.181, 161.2334
1449.226, 0.4765630
1450.271, 154.9043
1451.316, 103.0957
1452.361, 10.51074
1453.405, 137.9062
1454.450, 114.3057
1455.494, 121.7793
1456.538, 100.0176
1457.582, 131.5068
1458.626, 115.7695
1459.670, 112.1426
1460.713, 239.5996
1461.757, 138.0596
1462.800, 87.34766
1463.843, 196.6982
1464.886, 30.79297
1465.928, 35.17578
1466.971, 185.4902
1468.013, 158.7051
1469.055, 100.9395
1470.097, 53.21191
1471.139, 86.37988
1472.181, 68.73730
1473.222, 53.69922
1474.263, 140.9629
1475.305, 146.4404
1476.346, 147.7939
1477.386, 85.80273
1478.427, 94.11230
1479.468, 147.5303
1480.508, 193.7480
1481.548, 32.54102
1482.588, 165.3242
1483.628, 4.304688
1484.668, 197.2119
1485.707, 56.72461
1486.747, 133.4121
1487.786, 107.5537
1488.825, 154.5205
1489.864, 184.7559
1490.902, 99.01074
1491.941, 211.2158
1492.979, 80.67773
1494.017, 180.7412
1495.055, 143.9180
1496.093, 116.7578
1497.131, 98.22559
1498.168, 23.98438
1499.206, 113.1182
1500.243, 13.44531
1501.280, 116.0127
1502.317, 228.1816
1503.354, 144.9180
1504.390, 195.9434
1505.426, 278.0107
1506.463, 84.08887
1507.499, 33.44434
1508.535, 167.5508
1509.570, 86.89453
1510.606, 253.1973
1511.641, 51.97559
1512.676, 157.1787
1513.711, 81.90137
1514.746, 119.7373
1515.781, 178.4404
1516.816, 216.0107
1517.850, 74.21875
1518.884, 174.8574
1519.918, 93.09277
1520.952, 100.1719
1521.986, 71.35938
1523.019, 66.42676
1524.053, 27.25879
1525.086, 230.0459
1526.119, 46.12207
1527.152, 231.5898
1528.185, 210.3652
1529.217, 284.1348
1530.250, 219.7344
1531.282, 107.0488
1532.314, 164.3057
1533.346, 98.87793
1534.377, 140.2197
1535.409, 125.4941
1536.440, 109.2744
1537.472, 137.2109
1538.503, 114.2295
1539.534, 129.2012
1540.564, 156.5635
1541.595, 123.7168
1542.625, 116.1699
1543.656, 83.01465
1544.686, 127.4229
1545.716, 76.87305
1546.745, 53.56934
1547.775, 96.05957
1548.804, 28.87207
1549.834, 96.76367
1550.863, 116.3564
1551.892, 167.9727
1552.920, 172.9941
1553.949, 144.6191
1554.977, 163.5850
1556.006, 86.04395
1557.034, 168.5547
1558.062, 129.9238
1559.089, 110.9609
1560.117, 187.7998
1561.144, 145.9785
1562.172, 131.5938
1563.199, 122.8428
1564.226, 114.5264
1565.252, 101.5127
1566.279, 109.0557
1567.305, 108.9541
1568.332, 94.63770
1569.358, 3.203125
1570.384, 130.1670
1571.409, 42.41797
1572.435, 0.0000000E+00
##END=



