##NAMES=Diopside
##RRUFFID=R040009
##IDEAL CHEMISTRY=CaMgSi_2_O_6_
##LOCALITY=Otter Lake, Quebec, Canada
##OWNER=RRUFF
##SOURCE=University of Arizona Mineral Museum
##DESCRIPTION=Green square prismatic crystal associated with pale orange calcite
##STATUS=The identification of this mineral has been confirmed by X-ray diffraction and chemical analysis
##URL=rruff.info/R040009
##MEASURED CHEMISTRY=(Ca_0.97_Fe_0.02_Na_0.01_)_Σ=1_(Mg_0.97_Fe_0.02_Al_0.01_)_Σ=1_Si_2.00_O_6_; trace amounts of Mn and Ti
##PIN_ID=L00436
##ORIENTATION=Laser parallel to -b [0 -1 0]. Fiducial mark perpendicular to laser is parallel to -c* (0 0 -1)
98.947, 0.000
100.340, 2.509
101.732, 15.497
103.124, 27.236
104.516, 62.180
105.908, 94.307
107.300, 154.356
108.691, 84.484
110.082, 133.102
111.473, 90.775
112.864, 109.176
114.254, 190.051
115.644, 374.199
117.034, 528.460
118.424, 497.700
119.813, 319.807
121.203, 316.690
122.592, 263.267
123.981, 210.471
125.369, 245.246
126.758, 217.542
128.146, 283.318
129.534, 325.533
130.922, 534.154
132.309, 557.150
133.696, 781.494
135.083, 849.159
136.470, 1065.123
137.857, 1067.366
139.243, 1231.868
140.630, 1108.617
142.016, 1049.592
143.401, 791.773
144.787, 760.149
146.172, 566.717
147.557, 432.469
148.942, 326.400
150.327, 163.501
151.711, 140.763
153.096, 152.175
154.480, 179.732
155.863, 153.430
157.247, 151.493
158.630, 110.215
160.013, 128.287
161.396, 95.470
162.779, 119.758
164.161, 88.146
165.544, 87.626
166.926, 153.196
168.308, 161.852
169.689, 195.695
171.070, 109.399
172.452, 293.284
173.833, 337.238
175.213, 464.259
176.594, 675.343
177.974, 845.492
179.354, 997.715
180.734, 1148.037
182.114, 1191.397
183.493, 1027.733
184.872, 862.094
186.251, 541.450
187.630, 392.854
189.008, 244.325
190.387, 192.914
191.765, 130.618
193.143, 129.373
194.520, 100.201
195.898, 68.158
197.275, 77.151
198.652, 79.234
200.029, 112.358
201.405, 25.496
202.782, 19.648
204.158, 9.814
205.534, 32.000
206.909, 87.242
208.285, 13.567
209.660, 98.952
211.035, 76.368
212.410, 91.795
213.784, 5.240
215.159, 11.703
216.533, 39.176
217.907, 21.661
219.281, 80.156
220.654, 142.662
222.027, 169.179
223.400, 255.706
224.773, 302.244
226.146, 474.792
227.518, 602.349
228.891, 882.917
230.263, 1174.495
231.634, 1452.081
233.006, 1713.676
234.377, 1753.280
235.748, 1741.893
237.119, 1558.513
238.490, 1260.141
239.860, 1061.776
241.231, 846.418
242.601, 732.068
243.970, 687.725
245.340, 832.389
246.709, 997.059
248.079, 1264.734
249.448, 1724.416
250.816, 2117.100
252.185, 2618.789
253.553, 2844.482
254.921, 3005.343
256.289, 2830.082
257.657, 2380.824
259.024, 1924.218
260.391, 1391.523
261.758, 1039.478
263.125, 669.202
264.492, 508.651
265.858, 347.423
267.224, 193.134
268.590, 175.048
269.956, 0.378
271.321, 67.851
272.687, 23.261
274.052, 10.439
275.416, 44.008
276.781, 12.302
278.146, 27.656
279.510, 26.689
280.874, 36.586
282.237, 74.301
283.601, 60.308
284.964, 50.884
286.327, 87.991
287.690, 144.864
289.053, 92.354
290.416, 100.816
291.778, 215.011
293.140, 135.325
294.502, 264.831
295.863, 254.347
297.225, 318.992
298.586, 361.198
299.947, 393.708
301.308, 494.197
302.668, 529.709
304.029, 678.256
305.389, 824.953
306.749, 1067.529
308.108, 1208.125
309.468, 1508.995
310.827, 1841.626
312.186, 2221.912
313.545, 2650.181
314.903, 3265.532
316.262, 4210.940
317.620, 5378.782
318.978, 6973.528
320.336, 8817.606
321.693, 10492.348
323.051, 11950.096
324.408, 12710.931
325.765, 12139.708
327.121, 11356.327
328.478, 9403.112
329.834, 7617.905
331.190, 6053.703
332.546, 4782.508
333.902, 3591.319
335.257, 2986.137
336.612, 2419.959
337.967, 2072.788
339.322, 1665.622
340.677, 1492.459
342.031, 1301.301
343.385, 1129.147
344.739, 1042.997
346.093, 1003.850
347.446, 957.706
348.799, 893.565
350.153, 916.428
351.505, 938.292
352.858, 1000.161
354.210, 974.031
355.563, 1096.902
356.915, 1075.774
358.267, 1115.647
359.618, 1120.520
360.969, 1051.394
362.321, 916.266
363.672, 773.137
365.022, 678.007
366.373, 577.241
367.723, 498.745
369.073, 439.612
370.423, 364.477
371.773, 345.339
373.122, 329.200
374.471, 316.058
375.821, 351.913
377.169, 245.765
378.518, 309.615
379.866, 187.461
381.215, 288.304
382.563, 287.214
383.910, 350.050
385.258, 335.883
386.605, 451.932
387.952, 512.756
389.299, 422.613
390.646, 497.430
391.992, 503.242
393.339, 525.050
394.685, 471.854
396.031, 370.652
397.376, 441.446
398.722, 222.235
400.067, 253.020
401.412, 120.798
402.757, 18.572
404.101, 137.340
405.446, 132.104
406.790, 3.008
408.134, 36.957
409.478, 38.749
410.821, 55.487
412.165, 31.221
413.508, 13.948
414.851, 1.669
416.193, 26.616
417.536, 7.788
418.878, 3.917
420.220, 19.152
421.562, 11.795
422.904, 19.768
424.245, 58.160
425.586, 68.877
426.927, 6.203
428.268, 29.789
429.609, 40.442
430.949, 35.897
432.289, 51.727
433.629, 8.561
434.969, 37.556
436.309, 42.191
437.648, 51.097
438.987, 15.485
440.326, 68.936
441.665, 55.398
443.003, 66.898
444.342, 22.568
445.680, 29.968
447.018, 27.486
448.355, 0.937
449.693, 88.549
451.030, 39.162
452.367, 33.792
453.704, 34.551
455.041, 17.135
456.377, 67.776
457.713, 15.508
459.049, 13.217
460.385, 31.038
461.721, 47.285
463.056, 106.537
464.391, 43.781
465.726, 24.026
467.061, 125.264
468.395, 54.495
469.730, 20.718
471.064, 64.930
472.398, 22.858
473.731, 12.322
475.065, 54.512
476.398, 10.619
477.731, 29.266
479.064, 55.813
480.397, 0.110
481.729, 117.946
483.062, 66.994
484.394, 50.038
485.725, 67.079
487.057, 11.109
488.389, 171.127
489.720, 73.139
491.051, 103.167
492.382, 241.190
493.712, 221.202
495.043, 302.244
496.373, 395.275
497.703, 454.297
499.032, 745.321
500.362, 1104.345
501.691, 1516.358
503.020, 2296.381
504.349, 3188.393
505.678, 4354.396
507.007, 5370.387
508.335, 5748.378
509.663, 5574.359
510.991, 4672.327
512.319, 3563.284
513.646, 2604.230
514.973, 2165.162
516.300, 1368.083
517.627, 1104.991
518.954, 838.886
520.280, 530.769
521.607, 695.641
522.933, 490.500
524.259, 456.345
525.584, 403.179
526.910, 462.998
528.235, 581.805
529.560, 520.601
530.885, 523.393
532.209, 395.181
533.534, 482.957
534.858, 427.720
536.182, 396.469
537.506, 258.205
538.829, 267.926
540.152, 260.634
541.476, 106.327
542.799, 265.004
544.121, 185.665
545.444, 74.309
546.766, 237.935
548.088, 120.543
549.410, 191.134
550.732, 138.708
552.053, 197.265
553.375, 181.804
554.696, 178.327
556.017, 199.833
557.337, 208.321
558.658, 249.791
559.978, 274.245
561.298, 168.681
562.618, 208.101
563.938, 207.503
565.257, 111.888
566.576, 93.099
567.895, 24.557
569.214, 154.735
570.533, 249.186
571.851, 209.442
573.170, 164.904
574.488, 207.055
575.805, 118.714
577.123, 147.143
578.440, 93.068
579.758, 84.359
581.075, 179.857
582.391, 139.324
583.708, 135.503
585.024, 89.153
586.341, 22.224
587.657, 216.724
588.972, 155.292
590.288, 183.001
591.603, 108.465
592.918, 98.347
594.233, 123.175
595.548, 132.688
596.863, 188.447
598.177, 203.683
599.491, 175.547
600.805, 226.821
602.119, 224.015
603.432, 183.233
604.746, 205.687
606.059, 247.115
607.372, 131.854
608.685, 169.716
609.997, 295.573
611.309, 222.542
612.621, 233.007
613.933, 316.296
615.245, 299.278
616.557, 343.348
617.868, 372.979
619.179, 377.798
620.490, 430.262
621.801, 420.245
623.111, 612.808
624.421, 503.926
625.731, 665.925
627.041, 546.822
628.351, 742.360
629.660, 759.798
630.970, 808.073
632.279, 970.294
633.588, 946.398
634.896, 1054.485
636.205, 966.395
637.513, 1184.389
638.821, 1206.070
640.129, 1349.880
641.437, 1563.812
642.744, 1796.725
644.051, 1878.345
645.358, 2083.013
646.665, 2379.338
647.972, 2847.053
649.278, 3106.706
650.584, 3575.020
651.890, 4302.729
653.196, 5143.380
654.502, 6346.107
655.807, 7860.316
657.113, 9480.080
658.418, 12198.693
659.722, 16033.639
661.027, 20280.973
662.331, 25486.691
663.636, 31404.330
664.940, 36349.961
666.244, 38696.266
667.547, 39184.699
668.851, 35811.082
670.154, 31426.139
671.457, 25593.227
672.760, 20272.277
674.062, 16105.332
675.365, 12619.441
676.667, 9888.691
677.969, 7917.931
679.271, 6408.961
680.572, 5160.792
681.874, 4386.879
683.175, 3893.568
684.476, 3225.727
685.777, 2694.020
687.077, 2401.027
688.378, 2099.864
689.678, 2015.055
690.978, 1709.133
692.278, 1473.939
693.577, 1231.609
694.877, 1316.154
696.176, 1153.094
697.475, 1136.477
698.774, 915.898
700.072, 876.971
701.371, 814.997
702.669, 806.775
703.967, 762.439
705.265, 733.656
706.562, 673.594
707.860, 594.485
709.157, 483.349
710.454, 662.501
711.751, 472.312
713.047, 556.096
714.344, 346.853
715.640, 401.952
716.936, 284.656
718.232, 350.849
719.527, 430.499
720.823, 308.122
722.118, 232.653
723.413, 245.011
724.708, 247.731
726.002, 163.317
727.297, 284.977
728.591, 152.440
729.885, 278.967
731.179, 206.414
732.472, 22.677
733.766, 22.053
735.059, 121.139
736.352, 117.166
737.645, 120.441
738.937, 184.703
740.230, 67.847
741.522, 49.763
742.814, 90.580
744.106, 69.846
745.397, 153.940
746.689, 86.020
747.980, 9.873
749.271, 58.700
750.562, 59.562
751.853, 83.430
753.143, 96.378
754.433, 22.298
755.723, 95.347
757.013, 27.700
758.303, 102.236
759.592, 44.819
760.881, 43.959
762.170, 32.794
763.459, 1.564
764.748, 48.697
766.036, 1.717
767.325, 12.617
768.613, 13.074
769.901, 87.151
771.188, 37.871
772.476, 11.581
773.763, 134.148
775.050, 27.126
776.337, 97.383
777.624, 14.054
778.910, 22.339
780.196, 79.652
781.482, 99.218
782.768, 119.938
784.054, 14.613
785.339, 81.840
786.625, 98.000
787.910, 37.676
789.195, 93.853
790.479, 31.045
791.764, 11.328
793.048, 25.195
794.332, 74.191
795.616, 11.561
796.900, 13.014
798.183, 103.377
799.467, 6.442
800.750, 3.621
802.033, 90.666
803.316, 10.570
804.598, 154.100
805.880, 140.257
807.163, 63.281
808.445, 38.791
809.726, 38.725
811.008, 32.293
812.289, 49.165
813.570, 68.477
814.851, 103.814
816.132, 7.080
817.413, 20.316
818.693, 34.476
819.973, 87.685
821.253, 51.825
822.533, 56.939
823.813, 130.022
825.092, 116.078
826.371, 119.007
827.650, 112.107
828.929, 93.083
830.208, 54.029
831.486, 49.947
832.764, 93.838
834.042, 135.703
835.320, 68.542
836.598, 157.355
837.875, 39.142
839.152, 1.900
840.429, 37.371
841.706, 35.420
842.983, 6.946
844.259, 27.553
845.536, 86.133
846.812, 112.687
848.088, 136.213
849.363, 35.714
850.639, 162.185
851.914, 129.634
853.189, 224.051
854.464, 267.443
855.739, 368.810
857.013, 349.168
858.288, 316.504
859.562, 224.821
860.836, 347.132
862.110, 236.422
863.383, 154.690
864.656, 243.956
865.930, 230.200
867.203, 252.428
868.475, 142.634
869.748, 355.851
871.020, 108.047
872.292, 236.229
873.564, 313.391
874.836, 216.568
876.108, 297.725
877.379, 179.863
878.650, 216.844
879.922, 193.387
881.192, 251.019
882.463, 212.869
883.733, 225.924
885.004, 367.957
886.274, 229.185
887.544, 258.384
888.813, 314.993
890.083, 240.562
891.352, 220.121
892.621, 315.926
893.890, 351.218
895.159, 275.412
896.427, 205.759
897.695, 297.995
898.964, 406.560
900.232, 239.817
901.499, 226.557
902.767, 349.654
904.034, 247.730
905.301, 251.881
906.568, 242.061
907.835, 208.513
909.102, 228.940
910.368, 223.417
911.634, 214.510
912.900, 290.810
914.166, 218.606
915.432, 285.331
916.697, 201.312
917.962, 55.320
919.227, 260.476
920.492, 206.006
921.757, 115.764
923.021, 199.547
924.285, 195.560
925.550, 223.970
926.813, 179.869
928.077, 217.486
929.341, 198.740
930.604, 227.796
931.867, 271.468
933.130, 173.010
934.393, 76.127
935.655, 248.769
936.918, 175.934
938.180, 320.514
939.442, 197.770
940.703, 138.630
941.965, 213.885
943.226, 106.700
944.488, 121.859
945.749, 257.360
947.009, 175.865
948.270, 94.308
949.530, 121.803
950.791, 165.723
952.051, 250.662
953.311, 204.318
954.570, 147.152
955.830, 259.362
957.089, 296.283
958.348, 244.645
959.607, 346.365
960.866, 270.727
962.124, 280.989
963.383, 214.748
964.641, 405.962
965.899, 324.464
967.156, 440.591
968.414, 394.617
969.671, 399.329
970.928, 441.817
972.185, 520.723
973.442, 579.252
974.699, 477.592
975.955, 694.827
977.211, 706.371
978.468, 681.145
979.723, 871.634
980.979, 841.280
982.234, 932.677
983.490, 1164.172
984.745, 957.957
986.000, 1303.938
987.254, 1362.524
988.509, 1376.768
989.763, 1616.566
991.017, 1871.229
992.271, 1974.658
993.525, 2243.910
994.779, 2469.051
996.032, 2967.791
997.285, 3316.197
998.538, 3825.348
999.791, 4309.757
1001.044, 5243.625
1002.296, 5963.449
1003.548, 7582.389
1004.800, 9358.360
1006.052, 11730.041
1007.304, 15832.823
1008.555, 20407.449
1009.807, 27875.838
1011.058, 36064.750
1012.309, 43890.762
1013.559, 48031.461
1014.810, 45859.488
1016.060, 38916.191
1017.310, 31044.672
1018.560, 23162.395
1019.810, 16855.617
1021.060, 12660.662
1022.309, 9851.185
1023.558, 7514.787
1024.807, 6192.711
1026.056, 5059.294
1027.305, 4293.062
1028.553, 3724.926
1029.801, 3301.199
1031.049, 3037.353
1032.297, 2596.795
1033.545, 2326.088
1034.793, 2335.885
1036.040, 2158.579
1037.287, 2048.668
1038.534, 2090.917
1039.781, 2038.620
1041.027, 2073.275
1042.274, 2140.652
1043.520, 2160.820
1044.766, 2231.568
1046.012, 2281.710
1047.257, 2374.252
1048.503, 2426.135
1049.748, 2526.500
1050.993, 2006.717
1052.238, 2049.658
1053.483, 1638.886
1054.727, 1320.926
1055.971, 1168.885
1057.216, 1160.517
1058.459, 982.782
1059.703, 809.202
1060.947, 770.767
1062.190, 672.957
1063.433, 792.869
1064.676, 537.514
1065.919, 622.352
1067.162, 458.489
1068.404, 600.580
1069.646, 400.673
1070.888, 296.972
1072.130, 574.787
1073.372, 249.699
1074.613, 368.702
1075.855, 533.014
1077.096, 282.943
1078.337, 235.961
1079.578, 404.316
1080.818, 289.134
1082.059, 525.042
1083.299, 250.307
1084.539, 378.411
1085.779, 326.847
1087.018, 343.621
1088.258, 192.949
1089.497, 288.028
1090.736, 177.363
1091.975, 214.810
1093.213, 129.509
1094.452, 273.764
1095.690, 317.531
1096.928, 293.291
1098.166, 255.838
1099.404, 229.660
1100.642, 241.559
1101.879, 103.502
1103.116, 196.476
1104.353, 110.381
1105.590, 252.465
1106.827, 42.115
1108.063, 197.877
1109.299, 14.469
1110.536, 150.162
1111.771, 135.465
1113.007, 52.440
1114.243, 131.690
1115.478, 117.299
1116.713, 38.995
1117.948, 121.067
1119.183, 164.857
1120.418, 43.327
1121.652, 176.222
1122.886, 220.644
1124.120, 311.953
1125.354, 217.888
1126.588, 159.349
1127.821, 214.593
1129.055, 150.743
1130.288, 165.178
1131.521, 130.460
1132.753, 99.193
1133.986, 86.924
1135.218, 106.942
1136.450, 270.627
1137.682, 22.054
1138.914, 246.229
1140.146, 118.243
1141.377, 187.561
1142.609, 128.280
1143.840, 19.282
1145.071, 134.352
1146.301, 212.855
1147.532, 168.082
1148.762, 189.609
1149.992, 80.195
1151.222, 718.311
1152.452, 330.263
1153.682, 397.841
1154.911, 45.589
1156.140, 155.143
1157.369, 8.699
1158.598, 47.861
1159.827, 50.237
1161.055, 109.671
1162.284, 70.323
1163.512, 92.700
1164.740, 5.132
1165.967, 72.646
1167.195, 122.321
1168.422, 22.301
1169.650, 34.146
1170.877, 66.219
1172.103, 128.498
1173.330, 54.546
1174.557, 42.911
1175.783, 163.334
1177.009, 94.434
1178.235, 3.985
1179.461, 6.627
1180.686, 73.210
1181.912, 14.937
1183.137, 198.029
1184.362, 96.817
1185.587, 74.945
1186.811, 170.660
1188.036, 168.338
1189.260, 62.190
1190.484, 198.787
1191.708, 101.744
1192.932, 249.001
1194.155, 104.048
1195.378, 78.705
1196.602, 158.186
1197.825, 179.100
1199.047, 45.462
1200.270, 149.592
1201.492, 180.631
1202.715, 184.906
1203.937, 247.230
1205.159, 285.244
1206.380, 255.521
1207.602, 203.168
1208.823, 73.596
1210.044, 115.109
1211.265, 137.002
1212.486, 121.738
1213.707, 227.113
1214.927, 106.559
1216.147, 70.070
1217.367, 149.803
1218.587, 158.150
1219.807, 201.844
1221.027, 156.742
1222.246, 22.414
1223.465, 2.086
1224.684, 130.543
1225.903, 244.025
1227.121, 147.232
1228.340, 29.551
1229.558, 186.738
1230.776, 346.504
1231.994, 174.762
1233.212, 76.336
1234.429, 164.375
1235.646, 159.438
1236.864, 83.516
1238.081, 97.432
1239.297, 30.281
1240.514, 58.463
1241.730, 51.002
1242.947, 84.256
1244.163, 130.176
1245.378, 67.768
1246.594, 226.639
1247.810, 272.482
1249.025, 62.520
1250.240, 151.541
1251.455, 14.271
1252.670, 85.916
1253.885, 216.561
1255.099, 233.600
1256.313, 183.572
1257.527, 29.053
1258.741, 29.375
1259.955, 219.188
1261.168, 40.398
1262.382, 111.467
1263.595, 189.082
1264.808, 231.105
1266.021, 201.480
1267.233, 232.764
1268.446, 87.426
1269.658, 251.955
1270.870, 124.787
1272.082, 170.242
1273.294, 70.027
1274.505, 223.252
1275.716, 114.037
1276.928, 134.996
1278.139, 74.404
1279.349, 178.074
1280.560, 124.000
1281.770, 149.078
1282.981, 12.412
1284.191, 70.838
1285.401, 74.203
1286.610, 135.432
1287.820, 56.225
1289.029, 19.877
1290.239, 43.010
1291.448, 176.553
1292.656, 77.496
1293.865, 49.773
1295.073, 115.955
1296.282, 57.488
1297.490, 92.561
1298.698, 40.730
1299.906, 85.018
1301.113, 133.969
1302.320, 48.852
1303.528, 17.740
1304.735, 19.869
1305.942, 33.693
1307.148, 128.598
1308.355, 100.654
1309.561, 4.123
1310.767, 93.578
1311.973, 58.566
1313.179, 20.359
1314.384, 59.715
1315.590, 59.244
1316.795, 53.270
1318.000, 6.260
1319.205, 61.752
1320.410, 1.590
1321.614, 1.021
1322.819, 7.152
1324.023, 146.074
1325.227, 19.355
1326.431, 218.047
1327.634, 26.768
1328.838, 58.600
1330.041, 69.389
1331.244, 99.018
1332.447, 274.965
1333.650, 195.211
1334.852, 56.877
1336.055, 110.430
1337.257, 21.588
1338.459, 60.822
1339.661, 33.543
1340.862, 86.678
1342.064, 144.201
1343.265, 60.664
1344.466, 67.141
1345.667, 58.189
1346.868, 136.217
1348.068, 264.135
1349.269, 179.188
1350.469, 12.289
1351.669, 368.152
1352.869, 141.717
1354.069, 98.488
1355.268, 188.586
1356.468, 122.127
1357.667, 241.256
1358.866, 192.309
1360.065, 144.004
1361.263, 298.637
1362.462, 84.254
1363.660, 57.369
1364.858, 281.693
1366.056, 176.990
1367.254, 141.457
1368.451, 311.258
1369.649, 221.633
1370.846, 143.557
1372.043, 236.814
1373.240, 95.395
1374.436, 255.607
1375.633, 228.707
1376.829, 87.598
1378.025, 168.766
1379.221, 43.695
1380.417, 255.234
1381.613, 142.014
1382.808, 157.963
1384.003, 309.764
1385.199, 348.297
1386.393, 268.436
1387.588, 15.912
1388.783, 298.035
1389.977, 163.789
1391.171, 398.643
1392.365, 25.381
1393.559, 198.846
1394.753, 391.305
1395.946, 234.793
1397.140, 217.029
1398.333, 234.713
1399.526, 259.295
1400.719, 255.469
1401.911, 360.193
1403.104, 253.646
1404.296, 120.117
1405.488, 86.510
1406.680, 305.592
1407.872, 244.070
1409.063, 151.025
1410.255, 369.436
1411.446, 99.424
1412.637, 229.729
1413.828, 38.891
1415.018, 133.551
1416.209, 191.330
1417.399, 94.723
1418.589, 79.875
1419.779, 288.609
1420.969, 42.377
1422.159, 138.547
1423.348, 25.447
1424.537, 196.656
1425.726, 314.314
1426.915, 214.389
1428.104, 82.471
1429.293, 195.434
1430.481, 225.035
1431.669, 112.840
1432.857, 272.768
1434.045, 154.207
1435.233, 89.447
1436.420, 366.807
1437.608, 399.359
1438.795, 170.064
1439.982, 323.371
1441.169, 296.059
1442.355, 158.006
1443.542, 147.525
1444.728, 516.621
1445.914, 149.504
1447.100, 368.436
1448.286, 295.176
1449.472, 282.246
1450.657, 148.385
1451.842, 594.889
1453.027, 458.592
1454.212, 483.309
1455.397, 614.176
1456.581, 266.213
1457.766, 297.164
1458.950, 545.787
1460.134, 212.201
1461.318, 444.635
1462.501, 7.791
1463.685, 151.520
1464.868, 309.902
1466.051, 284.975
1467.234, 559.271
1468.417, 538.221
1469.600, 133.123
1470.782, 449.299
1471.965, 448.410
1473.147, 84.428
1474.329, 419.238
1475.510, 344.805
1476.692, 13.746
1477.873, 35.318
1479.055, 274.959
1480.236, 55.004
1481.416, 420.346
1482.597, 44.932
1483.778, 273.953
1484.958, 178.422
1486.138, 163.506
1487.318, 5.457
1488.498, 35.658
1489.678, 38.295
1490.857, 167.502
1492.037, 61.400
1493.216, 348.557
1494.395, 144.414
1495.574, 135.340
1496.752, 247.105
1497.931, 0.000
##END=



