##NAMES=Diopside
##RRUFFID=R060276
##IDEAL CHEMISTRY=CaMgSi_2_O_6_
##LOCALITY=Inagli, Yakutia, Siberia, Russia
##OWNER=RRUFF
##SOURCE=Herb Obodda
##DESCRIPTION=Transparent green cleavage fragment
##STATUS=The identification of this mineral has been confirmed by X-ray diffraction and chemical analysis
##URL=rruff.info/R060276
##MEASURED CHEMISTRY=(Ca_0.97_Na_0.03_)_Σ=1_(Mg_0.96_Fe_0.03_Cr_0.01_)_Σ=1_(Si_1.98_Al_0.02_)_Σ=2_O_6_
##PIN_ID=L01321
##ORIENTATION=Laser parallel to (1 0 1). Fiducial mark perpendicular to laser is parallel to -b [0 -1 0]
111.9760, 0.0000000E+00
113.2080, 2.280518
114.4400, 33.30029
115.6710, 172.4504
116.9030, 89.17480
118.1340, 59.94995
119.3650, 31.22046
120.5960, 100.2825
121.8270, 181.6211
123.0580, 245.4580
124.2880, 419.4292
125.5190, 498.4414
126.7490, 829.0923
127.9790, 1114.536
129.2090, 1655.836
130.4390, 2189.144
131.6680, 2450.168
132.8980, 2936.761
134.1270, 3484.187
135.3560, 4073.640
136.5850, 4465.017
137.8140, 4917.086
139.0430, 5131.636
140.2710, 5731.711
141.5000, 6216.372
142.7280, 6184.324
143.9560, 5580.488
145.1840, 4310.360
146.4120, 3149.354
147.6390, 2248.501
148.8670, 1533.730
150.0940, 1060.049
151.3210, 782.3335
152.5490, 589.8376
153.7750, 503.5996
155.0020, 366.1675
156.2290, 273.4524
157.4550, 247.1541
158.6810, 238.0999
159.9080, 193.9995
161.1340, 288.1628
162.3590, 174.5962
163.5850, 167.7546
164.8110, 195.9949
166.0360, 132.2546
167.2610, 131.5325
168.4860, 135.8276
169.7110, 90.14136
170.9360, 128.4739
172.1610, 24.17383
173.3850, 24.19507
174.6100, 106.5791
175.8340, 23.02075
177.0580, 44.39600
178.2820, 33.83105
179.5050, 45.71558
180.7290, 52.75757
181.9520, 57.25073
183.1760, 20.23462
184.3990, 10.69824
185.6220, 11.85864
186.8450, 35.43823
188.0670, 48.05298
189.2900, 43.20947
190.5120, 54.00586
191.7340, 35.51050
192.9560, 59.78296
194.1780, 68.67529
195.4000, 55.25049
196.6220, 31.28540
197.8430, 50.80957
199.0640, 125.3740
200.2860, 3.977051
201.5070, 80.61548
202.7270, 65.28540
203.9480, 27.98364
205.1690, 24.29004
206.3890, 88.52344
207.6090, 70.82153
208.8290, 16.12720
210.0490, 33.00098
211.2690, 25.88794
212.4890, 55.79370
213.7080, 59.71655
214.9280, 13.65796
216.1470, 184.5847
217.3660, 57.51465
218.5850, 74.45020
219.8030, 164.3625
221.0220, 66.28442
222.2400, 232.1963
223.4590, 269.1284
224.6770, 230.0833
225.8950, 307.0601
227.1120, 255.0571
228.3300, 320.0718
229.5480, 239.1008
230.7650, 340.1597
231.9820, 264.2488
233.1990, 265.2527
234.4160, 261.2366
235.6330, 112.2271
236.8490, 78.23901
238.0660, 121.2725
239.2820, 44.32959
240.4980, 117.4102
241.7140, 77.51465
242.9300, 65.64258
244.1460, 168.7944
245.3610, 129.9697
246.5770, 175.1694
247.7920, 323.3926
249.0070, 279.6399
250.2220, 352.9116
251.4370, 368.2070
252.6510, 426.5271
253.8660, 418.8711
255.0800, 469.2395
256.2940, 458.6321
257.5080, 414.9031
258.7220, 351.5229
259.9360, 295.9011
261.1490, 161.6746
262.3630, 93.58032
263.5760, 33.58154
264.7890, 1.346191
266.0020, 24.77832
267.2150, 61.94312
268.4270, 19.13770
269.6400, 19.64575
270.8520, 15.41772
272.0640, 20.18262
273.2760, 63.94409
274.4880, 14.72095
275.7000, 14.50610
276.9120, 15.30396
278.1230, 33.11328
279.3340, 36.93604
280.5450, 39.77271
281.7560, 104.3757
282.9670, 13.51123
284.1780, 101.6353
285.3880, 133.7505
286.5980, 116.8579
287.8090, 145.9600
289.0190, 243.0015
290.2290, 277.9165
291.4380, 389.9917
292.6480, 417.9248
293.8570, 389.8281
295.0670, 424.7085
296.2760, 504.5991
297.4850, 553.5825
298.6930, 669.4067
299.9020, 763.3247
301.1110, 909.6094
302.3190, 1019.523
303.5270, 1343.737
304.7350, 1561.630
305.9430, 1722.380
307.1510, 1902.101
308.3580, 2295.835
309.5660, 2491.581
310.7730, 2869.345
311.9800, 3194.125
313.1870, 3884.921
314.3940, 4403.744
315.6010, 4978.584
316.8070, 5210.449
318.0130, 5736.794
319.2200, 6234.534
320.4260, 6794.449
321.6310, 7250.017
322.8370, 7617.965
324.0430, 7958.928
325.2480, 8008.255
326.4540, 7781.251
327.6590, 7170.263
328.8640, 6295.277
330.0680, 5306.898
331.2730, 4357.694
332.4780, 3617.771
333.6820, 2997.864
334.8860, 2589.970
336.0900, 2191.093
337.2940, 2023.214
338.4980, 1805.312
339.7010, 1751.412
340.9050, 1655.505
342.1080, 1718.409
343.3110, 1777.504
344.5140, 1859.616
345.7170, 1937.819
346.9200, 2277.058
348.1220, 2613.561
349.3240, 2997.815
350.5270, 3589.460
351.7290, 3908.396
352.9310, 4462.331
354.1320, 5034.646
355.3340, 5413.971
356.5350, 6116.181
357.7370, 6371.482
358.9380, 6834.801
360.1390, 7013.808
361.3400, 7182.159
362.5400, 6841.529
363.7410, 6582.916
364.9410, 6075.319
366.1410, 5484.740
367.3410, 4962.178
368.5410, 4396.634
369.7410, 4086.107
370.9400, 3681.599
372.1400, 3549.108
373.3390, 3560.635
374.5380, 3516.178
375.7370, 3731.740
376.9360, 4199.320
378.1350, 4788.918
379.3330, 5521.534
380.5310, 6612.167
381.7300, 7751.820
382.9280, 8932.491
384.1260, 10266.18
385.3230, 11687.89
386.5210, 13187.61
387.7180, 14151.36
388.9160, 15281.12
390.1130, 16001.90
391.3100, 16330.70
392.5060, 16071.52
393.7030, 14670.35
394.9000, 12602.21
396.0960, 10265.08
397.2920, 7969.964
398.4880, 6119.873
399.6840, 4615.799
400.8800, 3540.743
402.0750, 2710.705
403.2710, 2155.686
404.4660, 1809.685
405.6610, 1428.700
406.8560, 1235.733
408.0510, 874.7808
409.2450, 810.5771
410.4400, 685.6558
411.6340, 590.7495
412.8280, 530.8584
414.0220, 541.8130
415.2160, 422.9932
416.4100, 429.9473
417.6030, 349.5518
418.7970, 339.8086
419.9900, 305.0908
421.1830, 322.3477
422.3760, 273.6953
423.5690, 206.8511
424.7610, 191.3325
425.9540, 84.14893
427.1460, 116.4419
428.3380, 104.7510
429.5300, 69.07617
430.7220, 105.4170
431.9140, 75.77393
433.1050, 132.1475
434.2970, 77.53711
435.4880, 45.94482
436.6790, 15.36865
437.8700, 61.81055
439.0610, 5.269043
440.2510, 6.255859
441.4420, 37.76367
442.6320, 62.73682
443.8220, 19.74658
445.0120, 118.7837
446.2020, 72.66846
447.3910, 43.87549
448.5810, 34.43799
449.7700, 45.01709
450.9600, 99.63770
452.1490, 177.2529
453.3370, 105.7231
454.5260, 103.3916
455.7150, 201.3506
456.9030, 189.3198
458.0910, 238.2720
459.2800, 253.3618
460.4670, 222.6982
461.6550, 266.5166
462.8430, 181.3862
464.0300, 279.2739
465.2180, 272.2070
466.4050, 220.1602
467.5920, 268.1519
468.7790, 229.1929
469.9650, 295.2651
471.1520, 206.3594
472.3380, 224.4990
473.5250, 110.6729
474.7110, 138.8667
475.8970, 138.1055
477.0820, 123.3818
478.2680, 160.6890
479.4540, 123.0127
480.6390, 41.35303
481.8240, 125.7109
483.0090, 114.0850
484.1940, 78.47949
485.3780, 126.8999
486.5630, 80.34570
487.7470, 7.191406
488.9320, 5.710449
490.1160, 70.21191
491.3000, 42.71973
492.4830, 75.77881
493.6670, 9.696289
494.8500, 77.87158
496.0340, 19.52246
497.2170, 18.09570
498.4000, 85.74121
499.5820, 24.40234
500.7650, 99.07812
501.9480, 85.77051
503.1300, 185.4795
504.3120, 239.2046
505.4940, 205.9434
506.6760, 247.6973
507.8580, 296.4648
509.0390, 359.2637
510.2210, 253.0884
511.4020, 343.9453
512.5830, 170.8218
513.7640, 140.7310
514.9450, 163.6650
516.1250, 194.6240
517.3060, 176.6030
518.4860, 188.6260
519.6660, 168.6123
520.8460, 191.6367
522.0260, 246.6855
523.2060, 284.7720
524.3850, 265.8779
525.5650, 295.0103
526.7440, 418.1538
527.9230, 516.3262
529.1020, 420.5234
530.2810, 576.7344
531.4590, 580.9663
532.6380, 698.2114
533.8160, 640.4658
534.9940, 596.7319
536.1720, 624.0352
537.3500, 536.3604
538.5270, 604.7158
539.7050, 614.1001
540.8820, 596.4985
542.0590, 633.9116
543.2360, 542.3369
544.4130, 587.7715
545.5900, 519.2163
546.7660, 528.6807
547.9430, 573.1528
549.1190, 541.6348
550.2950, 545.1240
551.4710, 625.6240
552.6470, 592.1323
553.8220, 628.6479
554.9980, 736.1719
556.1730, 868.7090
557.3480, 779.2578
558.5230, 737.8198
559.6980, 803.4053
560.8730, 771.0015
562.0470, 794.6094
563.2220, 722.2290
564.3960, 714.8633
565.5700, 494.5137
566.7440, 508.1807
567.9170, 424.8535
569.0910, 509.5317
570.2640, 424.2163
571.4380, 413.9067
572.6110, 394.6025
573.7840, 350.3027
574.9570, 329.0083
576.1290, 289.1870
577.3020, 343.4351
578.4740, 206.1548
579.6460, 234.8794
580.8180, 188.6079
581.9900, 268.2588
583.1620, 210.0811
584.3330, 161.8218
585.5040, 164.2031
586.6760, 50.95068
587.8470, 135.4312
589.0180, 50.18555
590.1880, 86.94287
591.3590, 0.7036130
592.5290, 56.49805
593.7000, 23.64893
594.8700, 3.584473
596.0400, 8.587402
597.2090, 53.82715
598.3790, 7.051270
599.5490, 54.02344
600.7180, 15.39844
601.8870, 5.515625
603.0560, 66.74072
604.2250, 19.65039
605.3940, 59.41455
606.5620, 130.9380
607.7300, 86.44385
608.8990, 86.94189
610.0670, 134.9365
611.2350, 120.3892
612.4020, 223.9976
613.5700, 189.2446
614.7370, 242.2749
615.9050, 347.8013
617.0720, 460.2026
618.2390, 441.3594
619.4060, 445.1543
620.5720, 589.0259
621.7390, 544.8813
622.9050, 617.7446
624.0710, 663.1846
625.2370, 727.7344
626.4030, 873.6157
627.5690, 878.2974
628.7340, 983.8169
629.9000, 1172.868
631.0650, 1111.149
632.2300, 1283.760
633.3950, 1268.368
634.5600, 1415.628
635.7240, 1717.786
636.8890, 1741.956
638.0530, 1868.534
639.2170, 2081.103
640.3810, 2286.422
641.5450, 2514.784
642.7080, 2856.412
643.8720, 3359.299
645.0350, 3678.824
646.1980, 4212.421
647.3610, 4755.126
648.5240, 5612.390
649.6870, 6426.695
650.8490, 7549.303
652.0120, 9085.292
653.1740, 10784.83
654.3360, 13354.96
655.4980, 16331.08
656.6600, 20059.86
657.8210, 24330.62
658.9830, 29278.17
660.1440, 34753.77
661.3050, 39840.75
662.4660, 44921.96
663.6270, 49713.90
664.7870, 53261.27
665.9480, 55681.62
667.1080, 55928.80
668.2680, 54212.15
669.4280, 49839.73
670.5880, 43454.33
671.7480, 36595.71
672.9070, 29396.95
674.0670, 23592.32
675.2260, 18779.67
676.3850, 15117.44
677.5440, 12189.97
678.7030, 10110.43
679.8610, 8395.268
681.0200, 7120.426
682.1780, 6151.926
683.3360, 5115.012
684.4940, 4499.150
685.6520, 3877.536
686.8090, 3438.568
687.9670, 2939.583
689.1240, 2636.579
690.2810, 2368.558
691.4380, 2193.518
692.5950, 1885.460
693.7520, 1750.384
694.9080, 1621.290
696.0650, 1499.177
697.2210, 1407.045
698.3770, 1276.895
699.5330, 1208.726
700.6880, 1094.537
701.8440, 1036.330
702.9990, 960.1045
704.1550, 907.8589
705.3100, 882.5942
706.4650, 788.3101
707.6190, 791.0063
708.7740, 653.6826
709.9290, 524.3403
711.0830, 536.9780
712.2370, 537.5957
713.3910, 443.1934
714.5450, 412.7715
715.6980, 401.3301
716.8520, 340.8687
718.0050, 254.3872
719.1580, 191.8857
720.3110, 178.6509
721.4640, 258.8223
722.6170, 160.2651
723.7700, 165.6880
724.9220, 134.0029
726.0740, 85.47656
727.2260, 126.8506
728.3780, 141.2041
729.5300, 167.5371
730.6810, 84.82715
731.8330, 9.119141
732.9840, 20.54492
734.1350, 76.76270
735.2860, 140.6860
736.4370, 82.59717
737.5880, 13.47705
738.7380, 7.293457
739.8880, 14.19531
741.0390, 51.17676
742.1890, 20.77441
743.3380, 28.30713
744.4880, 30.55615
745.6380, 40.60938
746.7870, 24.83643
747.9360, 17.11719
749.0850, 19.55225
750.2340, 36.80957
751.3830, 6.231445
752.5310, 46.30420
753.6800, 75.18408
754.8280, 41.75195
755.9760, 22.38037
757.1240, 60.93945
758.2720, 52.23877
759.4190, 52.51562
760.5670, 50.77051
761.7140, 24.00342
762.8610, 0.2089840
764.0080, 5.623535
765.1550, 75.50488
766.3020, 151.6123
767.4480, 29.70068
768.5950, 106.7656
769.7410, 45.82178
770.8870, 128.8618
772.0330, 31.88330
773.1780, 143.8823
774.3240, 130.8623
775.4690, 79.82568
776.6140, 84.77002
777.7590, 49.69580
778.9040, 24.60156
780.0490, 57.48389
781.1940, 27.34717
782.3380, 97.18848
783.4820, 56.01172
784.6260, 34.81592
785.7700, 39.39941
786.9140, 24.86670
788.0580, 46.38379
789.2010, 5.341797
790.3450, 46.73926
791.4880, 25.18994
792.6310, 25.68262
793.7730, 5.216797
794.9160, 5.781250
796.0590, 29.62402
797.2010, 22.01074
798.3430, 27.62012
799.4850, 80.29053
800.6270, 13.02881
801.7690, 36.79883
802.9100, 52.38867
804.0520, 51.43994
805.1930, 39.31836
806.3340, 5.760254
807.4750, 29.18018
808.6160, 18.84326
809.7560, 123.8506
810.8970, 12.84424
812.0370, 93.17822
813.1770, 37.26807
814.3170, 66.39551
815.4570, 66.30664
816.5960, 9.807617
817.7360, 16.06104
818.8750, 6.337891
820.0140, 59.36670
821.1530, 20.05859
822.2920, 40.26221
823.4310, 135.3823
824.5690, 49.01465
825.7070, 168.6357
826.8460, 51.24561
827.9840, 160.8438
829.1220, 130.4302
830.2590, 186.0059
831.3970, 194.5703
832.5340, 222.1250
833.6710, 274.6689
834.8080, 299.2842
835.9450, 325.7256
837.0820, 406.2388
838.2190, 511.7417
839.3550, 629.2358
840.4910, 796.7202
841.6270, 959.1953
842.7630, 1242.661
843.8990, 1617.118
845.0350, 2045.567
846.1700, 2671.006
847.3060, 3359.438
848.4410, 4301.861
849.5760, 5105.275
850.7100, 6078.683
851.8450, 6765.082
852.9800, 7622.475
854.1140, 8131.860
855.2480, 8418.238
856.3820, 8296.608
857.5160, 7816.972
858.6500, 6916.330
859.7830, 5994.680
860.9170, 5103.024
862.0500, 4339.365
863.1830, 3570.676
864.3160, 3058.003
865.4480, 2515.324
866.5810, 2220.640
867.7130, 1981.920
868.8460, 1670.139
869.9780, 1534.970
871.1100, 1502.204
872.2410, 1239.503
873.3730, 1219.772
874.5050, 1098.787
875.6360, 1022.190
876.7670, 1018.300
877.8980, 842.0962
879.0290, 843.2046
880.1590, 841.4580
881.2900, 834.9482
882.4200, 695.4551
883.5500, 634.9658
884.6800, 643.9775
885.8100, 571.4800
886.9400, 584.9224
888.0690, 528.6738
889.1990, 507.6401
890.3280, 499.1079
891.4570, 570.6987
892.5860, 574.5308
893.7140, 542.7231
894.8430, 595.9731
895.9710, 499.9624
897.1000, 612.0776
898.2280, 566.6230
899.3560, 509.0571
900.4830, 447.1587
901.6110, 459.4639
902.7380, 460.8149
903.8660, 382.6562
904.9930, 401.0220
906.1200, 402.2021
907.2460, 434.5801
908.3730, 381.5698
909.5000, 359.9722
910.6260, 349.3809
911.7520, 313.7939
912.8780, 317.8608
914.0040, 332.5381
915.1290, 330.5620
916.2550, 353.9561
917.3800, 389.0898
918.5050, 369.6069
919.6300, 250.0576
920.7550, 328.4004
921.8800, 308.1855
923.0040, 212.9434
924.1290, 278.3955
925.2530, 200.4697
926.3770, 220.0107
927.5010, 227.9644
928.6250, 293.9521
929.7480, 195.2925
930.8720, 363.6631
931.9950, 166.2744
933.1180, 247.8408
934.2410, 163.0552
935.3640, 71.02490
936.4860, 254.2773
937.6090, 117.0957
938.7310, 183.9443
939.8530, 9.972168
940.9750, 137.8311
942.0970, 185.4712
943.2180, 164.1304
944.3400, 45.02246
945.4610, 101.0757
946.5820, 86.98633
947.7030, 178.9395
948.8240, 231.4668
949.9450, 211.2329
951.0650, 200.0869
952.1860, 254.5566
953.3060, 304.7158
954.4260, 319.5361
955.5460, 277.7822
956.6650, 329.9834
957.7850, 406.9355
958.9040, 351.2412
960.0230, 398.5640
961.1420, 468.9038
962.2610, 436.2749
963.3800, 464.6611
964.4990, 475.0679
965.6170, 418.4893
966.7350, 597.9277
967.8530, 665.3877
968.9710, 597.8647
970.0890, 670.3584
971.2070, 657.8691
972.3240, 731.3975
973.4410, 750.9438
974.5580, 797.5073
975.6750, 864.8433
976.7920, 949.6904
977.9090, 1008.309
979.0250, 987.9434
980.1410, 1079.596
981.2580, 1150.264
982.3740, 1205.948
983.4890, 1355.653
984.6050, 1472.374
985.7200, 1672.117
986.8360, 1622.879
987.9510, 1897.658
989.0660, 1990.453
990.1810, 2310.266
991.2950, 2460.096
992.4100, 2724.945
993.5240, 3169.811
994.6390, 3723.691
995.7530, 4193.590
996.8660, 4946.505
997.9800, 5894.438
999.0940, 6886.391
1000.207, 8249.358
1001.320, 10009.35
1002.433, 12314.35
1003.546, 15309.38
1004.659, 19098.44
1005.772, 23731.50
1006.884, 29382.60
1007.996, 35481.71
1009.108, 41443.84
1010.220, 47197.01
1011.332, 51108.20
1012.444, 53627.43
1013.555, 53745.70
1014.666, 51364.99
1015.777, 45545.30
1016.888, 37746.65
1017.999, 29999.04
1019.110, 23235.45
1020.220, 18062.89
1021.331, 13995.37
1022.441, 11339.86
1023.551, 9552.389
1024.661, 8117.953
1025.770, 6979.555
1026.880, 6309.189
1027.989, 5622.843
1029.098, 5432.513
1030.207, 5079.201
1031.316, 4848.778
1032.425, 5067.503
1033.533, 4801.500
1034.642, 5071.785
1035.750, 5262.707
1036.858, 5694.518
1037.966, 6396.632
1039.073, 6791.771
1040.181, 7707.806
1041.288, 8568.931
1042.396, 9569.692
1043.503, 10418.73
1044.610, 11193.91
1045.716, 11900.75
1046.823, 12236.00
1047.929, 12065.50
1049.036, 11388.60
1050.142, 10208.86
1051.248, 8977.547
1052.353, 7772.363
1053.459, 6406.592
1054.564, 5410.111
1055.670, 4429.343
1056.775, 3803.861
1057.880, 3241.186
1058.985, 2791.620
1060.089, 2622.848
1061.194, 2141.490
1062.298, 2013.996
1063.402, 1806.605
1064.506, 1683.205
1065.610, 1547.946
1066.713, 1350.998
1067.817, 1212.905
1068.920, 1178.558
1070.023, 1069.356
1071.126, 1022.943
1072.229, 930.8335
1073.332, 902.6108
1074.435, 794.3999
1075.537, 802.8887
1076.639, 747.2031
1077.741, 817.8242
1078.843, 788.6392
1079.945, 817.9785
1081.046, 697.2178
1082.148, 764.9482
1083.249, 653.7632
1084.350, 597.7031
1085.451, 663.8027
1086.551, 676.4204
1087.652, 720.9341
1088.752, 712.1528
1089.853, 671.7993
1090.953, 608.1084
1092.053, 509.9170
1093.152, 601.1025
1094.252, 519.3267
1095.351, 519.9370
1096.451, 606.4160
1097.550, 597.1924
1098.649, 522.1792
1099.748, 449.8384
1100.846, 550.7988
1101.945, 593.7476
1103.043, 546.7051
1104.141, 630.7856
1105.239, 582.8784
1106.337, 474.9517
1107.434, 352.1958
1108.532, 512.2148
1109.629, 538.1631
1110.726, 525.1357
1111.823, 534.0039
1112.920, 543.6294
1114.017, 524.2031
1115.113, 581.6016
1116.210, 569.3921
1117.306, 661.2275
1118.402, 622.5737
1119.498, 661.1509
1120.593, 694.8447
1121.689, 658.6338
1122.784, 679.4639
1123.879, 611.6387
1124.974, 673.1904
1126.069, 606.7451
1127.164, 656.5361
1128.259, 593.1533
1129.353, 648.9355
1130.447, 549.9326
1131.541, 541.7891
1132.635, 515.5596
1133.729, 412.6035
1134.822, 483.1055
1135.916, 510.6006
1137.009, 348.2622
1138.102, 481.3076
1139.195, 433.9570
1140.288, 357.5991
1141.380, 348.4253
1142.473, 314.9854
1143.565, 329.4185
1144.657, 289.0889
1145.749, 343.5029
1146.841, 335.1421
1147.932, 242.6089
1149.024, 298.0488
1150.115, 375.8472
1151.206, 224.3765
1152.297, 198.7295
1153.388, 268.2129
1154.479, 163.5913
1155.569, 210.3091
1156.659, 250.8071
1157.750, 197.4487
1158.839, 180.1919
1159.929, 74.50879
1161.019, 106.3618
1162.108, 41.07715
1163.198, 78.55566
1164.287, 3.938477
1165.376, 31.61279
1166.465, 37.38916
1167.553, 106.6143
1168.642, 24.80908
1169.730, 4.546387
1170.818, 35.95850
1171.906, 20.07568
1172.994, 47.45850
1174.082, 52.65967
1175.170, 26.73779
1176.257, 29.25000
1177.344, 20.82861
1178.431, 101.1582
1179.518, 67.03857
1180.605, 36.08936
1181.691, 84.54443
1182.778, 21.77100
1183.864, 59.15332
1184.950, 3.694824
1186.036, 56.61182
1187.122, 13.50732
1188.207, 69.13184
1189.292, 55.98389
1190.378, 35.44287
1191.463, 40.81787
1192.548, 53.37939
1193.632, 38.04980
1194.717, 100.5298
1195.801, 6.288086
1196.886, 58.08447
1197.970, 6.945313
1199.054, 1.599609
1200.137, 29.46631
1201.221, 1.504395
1202.305, 2.494141
1203.388, 15.53076
1204.471, 30.61426
1205.554, 81.75293
1206.637, 107.9741
1207.719, 6.708008
1208.802, 65.35254
1209.884, 43.79688
1210.966, 100.7544
1212.048, 103.2803
1213.130, 24.22021
1214.212, 67.41016
1215.293, 11.17773
1216.374, 15.26758
1217.456, 16.40527
1218.536, 11.13086
1219.617, 151.0933
1220.698, 28.29053
1221.778, 118.5830
1222.859, 40.71582
1223.939, 24.18506
1225.019, 170.9194
1226.099, 26.93164
1227.178, 134.1831
1228.258, 85.12695
1229.337, 24.04102
1230.417, 93.95654
1231.496, 97.80273
1232.574, 96.61572
1233.653, 68.50000
1234.732, 66.31299
1235.810, 71.84277
1236.888, 48.70654
1237.966, 86.36475
1239.044, 104.0591
1240.122, 98.63770
1241.199, 124.4141
1242.277, 183.4189
1243.354, 211.1025
1244.431, 43.55078
1245.508, 147.4971
1246.585, 29.88184
1247.661, 49.27783
1248.738, 199.0571
1249.814, 171.7744
1250.890, 149.1685
1251.966, 140.2578
1253.042, 71.70508
1254.117, 226.2158
1255.193, 209.4917
1256.268, 153.0776
1257.343, 194.7910
1258.418, 155.2417
1259.493, 103.3145
1260.567, 136.2441
1261.642, 156.9829
1262.716, 91.19189
1263.790, 222.4834
1264.864, 256.6309
1265.938, 180.6704
1267.011, 90.78369
1268.085, 181.7397
1269.158, 182.4985
1270.231, 137.2114
1271.304, 278.7822
1272.377, 200.4004
1273.450, 169.9639
1274.522, 271.8115
1275.594, 174.6494
1276.666, 214.1772
1277.738, 219.1973
1278.810, 131.8701
1279.882, 194.4419
1280.953, 275.3696
1282.025, 208.4258
1283.096, 326.8921
1284.167, 163.5449
1285.238, 214.4097
1286.308, 178.1606
1287.379, 151.3486
1288.449, 268.5791
1289.519, 120.0322
1290.589, 187.2593
1291.659, 161.2495
1292.729, 223.0767
1293.798, 203.6123
1294.868, 91.41211
1295.937, 246.3281
1297.006, 159.6855
1298.075, 205.0200
1299.143, 187.5527
1300.212, 295.5132
1301.280, 171.1270
1302.348, 241.7798
1303.416, 247.0688
1304.484, 266.2012
1305.552, 232.6377
1306.620, 243.8906
1307.687, 176.7402
1308.754, 207.3535
1309.821, 128.0039
1310.888, 320.4395
1311.955, 204.2402
1313.021, 82.18750
1314.088, 297.7686
1315.154, 136.6982
1316.220, 249.7002
1317.286, 182.4160
1318.352, 280.0400
1319.417, 213.1201
1320.483, 332.7930
1321.548, 204.2988
1322.613, 249.6973
1323.678, 367.0859
1324.743, 314.3271
1325.807, 334.4551
1326.872, 168.3232
1327.936, 284.6953
1329.000, 245.0068
1330.064, 306.4922
1331.128, 343.7412
1332.191, 267.9678
1333.255, 250.2393
1334.318, 289.2451
1335.381, 278.2949
1336.444, 247.5889
1337.507, 152.8779
1338.569, 286.7539
1339.632, 334.4600
1340.694, 304.1094
1341.756, 159.0195
1342.818, 277.8486
1343.880, 182.7393
1344.941, 260.3076
1346.003, 259.8066
1347.064, 317.6465
1348.125, 219.1113
1349.186, 167.5078
1350.247, 250.3555
1351.308, 356.7910
1352.368, 180.3965
1353.428, 208.5537
1354.489, 129.5840
1355.549, 285.2051
1356.608, 263.2500
1357.668, 185.9336
1358.727, 252.2549
1359.787, 238.8789
1360.846, 171.7803
1361.905, 208.2236
1362.964, 181.3965
1364.022, 196.0967
1365.081, 192.9746
1366.139, 176.3311
1367.197, 212.3643
1368.255, 140.6338
1369.313, 77.67383
1370.371, 146.9561
1371.428, 228.3701
1372.486, 1.969727
1373.543, 276.9209
1374.600, 182.9482
1375.657, 83.53418
1376.713, 90.70801
1377.770, 159.6162
1378.826, 27.39746
1379.882, 9.899414
1380.938, 105.4141
1381.994, 153.5605
1383.050, 71.85254
1384.106, 48.41211
1385.161, 87.32324
1386.216, 168.8203
1387.271, 195.4131
1388.326, 28.75977
1389.381, 109.3721
1390.435, 80.51465
1391.490, 106.0947
1392.544, 123.6436
1393.598, 97.24121
1394.652, 125.1641
1395.705, 163.6025
1396.759, 165.6328
1397.812, 190.2461
1398.866, 170.8682
1399.919, 178.0537
1400.972, 101.0879
1402.024, 94.57324
1403.077, 159.6650
1404.129, 47.76758
1405.181, 106.8438
1406.233, 121.5127
1407.285, 44.49121
1408.337, 38.48730
1409.389, 109.5234
1410.440, 65.38379
1411.491, 32.91211
1412.542, 41.63574
1413.593, 147.0977
1414.644, 126.4365
1415.695, 64.13379
1416.745, 107.2402
1417.795, 192.5898
1418.845, 27.17773
1419.895, 188.3936
1420.945, 53.69727
1421.995, 100.5693
1423.044, 37.26367
1424.093, 191.3740
1425.142, 122.8945
1426.191, 22.02441
1427.240, 94.23145
1428.289, 166.0850
1429.337, 204.2207
1430.385, 208.1250
1431.433, 206.0674
1432.481, 119.5889
1433.529, 147.6055
1434.577, 55.35840
1435.624, 29.21582
1436.672, 6.667969
1437.719, 58.61523
1438.766, 157.3477
1439.812, 2.409180
1440.859, 32.70410
1441.905, 60.74316
1442.952, 211.6094
1443.998, 163.1826
1445.044, 101.1152
1446.090, 98.37891
1447.135, 167.1562
1448.181, 161.2148
1449.226, 0.4580080
1450.271, 154.8857
1451.316, 103.0771
1452.361, 10.49316
1453.405, 137.8887
1454.450, 114.2881
1455.494, 121.7607
1456.538, 100.0000
1457.582, 131.4893
1458.626, 115.7529
1459.670, 112.1250
1460.713, 239.5830
1461.757, 138.0420
1462.800, 87.33105
1463.843, 196.6816
1464.886, 30.77637
1465.928, 35.16016
1466.971, 185.4746
1468.013, 158.6875
1469.055, 100.9238
1470.097, 53.19629
1471.139, 86.36523
1472.181, 68.72168
1473.222, 53.68359
1474.263, 140.9473
1475.305, 146.4258
1476.346, 147.7803
1477.386, 85.78906
1478.427, 94.09766
1479.468, 147.5166
1480.508, 193.7344
1481.548, 32.52734
1482.588, 165.3125
1483.628, 4.292969
1484.668, 197.2012
1485.707, 56.71387
1486.747, 133.4004
1487.786, 107.5430
1488.825, 154.5098
1489.864, 184.7451
1490.902, 99.00195
1491.941, 211.2070
1492.979, 80.66797
1494.017, 180.7334
1495.055, 143.9102
1496.093, 116.7500
1497.131, 98.21875
1498.168, 23.99023
1499.206, 113.1133
1500.243, 13.45020
1501.280, 116.0068
1502.317, 228.1768
1503.354, 144.9141
1504.390, 195.9414
1505.426, 278.0088
1506.463, 84.08691
1507.499, 33.44336
1508.535, 167.5518
1509.570, 86.89551
1510.606, 253.1982
1511.641, 51.97656
1512.676, 157.1807
1513.711, 81.90430
1514.746, 119.7402
1515.781, 178.4434
1516.816, 216.0137
1517.850, 74.22266
1518.884, 174.8623
1519.918, 93.09863
1520.952, 100.1787
1521.986, 71.36621
1523.019, 66.43555
1524.053, 27.25000
1525.086, 230.0547
1526.119, 46.13184
1527.152, 231.5996
1528.185, 210.3770
1529.217, 284.1484
1530.250, 219.7490
1531.282, 107.0635
1532.314, 164.3213
1533.346, 98.89453
1534.377, 140.2363
1535.409, 125.5107
1536.440, 109.2969
1537.472, 137.2363
1538.503, 114.2578
1539.534, 129.2285
1540.564, 156.5938
1541.595, 123.7480
1542.625, 116.2021
1543.656, 83.04688
1544.686, 127.4551
1545.716, 76.90723
1546.745, 53.60352
1547.775, 96.09473
1548.804, 28.91895
1549.834, 96.81250
1550.863, 116.4062
1551.892, 168.0244
1552.920, 173.0479
1553.949, 144.6738
1554.977, 163.6406
1556.006, 86.10059
1557.034, 168.6123
1558.062, 129.9824
1559.089, 111.0195
1560.117, 187.8584
1561.144, 146.0410
1562.172, 131.6562
1563.199, 122.9043
1564.226, 114.5869
1565.252, 101.5693
1566.279, 109.1064
1567.305, 108.9980
1568.332, 94.66699
1569.358, 3.203125
1570.384, 130.1123
1571.409, 42.23145
1572.435, 0.0000000E+00
##END=



