##NAMES=Diopside
##RRUFFID=R040009
##IDEAL CHEMISTRY=CaMgSi_2_O_6_
##LOCALITY=Otter Lake, Quebec, Canada
##OWNER=RRUFF
##SOURCE=University of Arizona Mineral Museum
##DESCRIPTION=Green square prismatic crystal associated with pale orange calcite
##STATUS=The identification of this mineral has been confirmed by X-ray diffraction and chemical analysis
##URL=rruff.info/R040009
##MEASURED CHEMISTRY=(Ca_0.97_Fe_0.02_Na_0.01_)_Σ=1_(Mg_0.97_Fe_0.02_Al_0.01_)_Σ=1_Si_2.00_O_6_; trace amounts of Mn and Ti
##PIN_ID=M00219
##ORIENTATION=Laser parallel to [-1 0 -1]. Fiducial mark perpendicular to laser is parallel to b* (0 1 0)
105.908, 0.000
107.300, 0.355
108.691, 101.047
110.082, 103.607
111.473, 13.782
112.864, 88.772
114.254, 68.950
115.644, 188.768
117.034, 120.954
118.424, 21.700
119.813, 289.646
121.203, 98.860
122.592, 133.838
123.981, 104.493
125.369, 37.757
126.758, 88.565
128.146, 39.869
129.534, 325.619
130.922, 296.777
132.309, 220.309
133.696, 138.188
135.083, 445.389
136.470, 392.888
137.857, 510.665
139.243, 291.700
140.630, 322.980
142.016, 281.485
143.401, 238.204
144.787, 233.122
146.172, 186.227
147.557, 166.525
148.942, 36.984
150.327, 97.590
151.711, 48.329
153.096, 142.206
154.480, 127.223
155.863, 84.372
157.247, 160.648
158.630, 145.050
160.013, 153.574
161.396, 230.215
162.779, 281.963
164.161, 165.815
165.544, 271.767
166.926, 204.811
168.308, 230.945
169.689, 88.165
171.070, 273.466
172.452, 362.845
173.833, 248.297
175.213, 429.818
176.594, 400.407
177.974, 756.061
179.354, 992.776
180.734, 868.553
182.114, 731.387
183.493, 606.277
184.872, 441.221
186.251, 407.218
187.630, 358.680
189.008, 373.765
190.387, 334.833
191.765, 251.901
193.143, 306.971
194.520, 112.049
195.898, 238.130
197.275, 150.290
198.652, 158.650
200.029, 213.109
201.405, 16.674
202.782, 75.315
204.158, 160.976
205.534, 179.650
206.909, 76.341
208.285, 98.145
209.660, 150.977
211.035, 52.952
212.410, 250.954
213.784, 171.969
215.159, 126.998
216.533, 160.043
217.907, 233.102
219.281, 249.181
220.654, 203.275
222.027, 344.389
223.400, 407.524
224.773, 577.673
226.146, 610.858
227.518, 771.058
228.891, 894.268
230.263, 1025.490
231.634, 1006.206
233.006, 913.973
234.377, 887.229
235.748, 748.498
237.119, 626.470
238.490, 525.070
239.860, 382.371
241.231, 339.684
242.601, 293.267
243.970, 298.339
245.340, 316.685
246.709, 335.043
248.079, 446.418
249.448, 446.813
250.816, 629.220
252.185, 708.639
253.553, 734.062
254.921, 645.498
256.289, 493.941
257.657, 422.396
259.024, 275.859
260.391, 289.336
261.758, 108.842
263.125, 185.356
264.492, 289.959
265.858, 201.580
267.224, 168.223
268.590, 21.127
269.956, 182.560
271.321, 164.943
272.687, 30.508
274.052, 44.663
275.416, 265.901
276.781, 273.224
278.146, 143.568
279.510, 200.000
280.874, 84.506
282.237, 263.083
283.601, 61.133
284.964, 93.840
286.327, 175.603
287.690, 153.760
289.053, 206.297
290.416, 286.195
291.778, 314.170
293.140, 509.437
294.502, 249.589
295.863, 476.199
297.225, 477.512
298.586, 641.811
299.947, 832.219
301.308, 666.451
302.668, 907.716
304.029, 918.152
305.389, 1197.482
306.749, 1190.836
308.108, 1575.062
309.468, 1776.466
310.827, 2130.761
312.186, 2280.207
313.545, 2814.169
314.903, 3533.707
316.262, 4413.209
317.620, 5795.729
318.978, 7185.266
320.336, 9010.816
321.693, 10423.382
323.051, 11106.219
324.408, 10020.814
325.765, 8788.609
327.121, 6672.226
328.478, 5061.963
329.834, 3997.840
331.190, 3180.802
332.546, 2260.466
333.902, 2008.271
335.257, 1608.951
336.612, 1311.515
337.967, 1251.211
339.322, 1008.918
340.677, 885.675
342.031, 896.396
343.385, 891.135
344.739, 810.869
346.093, 807.331
347.446, 713.379
348.799, 790.133
350.153, 809.893
351.505, 923.654
352.858, 939.421
354.210, 1015.192
355.563, 1009.970
356.915, 1165.751
358.267, 1171.538
359.618, 1022.329
360.969, 1043.125
362.321, 919.924
363.672, 1014.726
365.022, 1037.530
366.373, 1053.335
367.723, 1177.143
369.073, 1130.952
370.423, 1216.763
371.773, 1050.575
373.122, 1103.387
374.471, 1306.199
375.821, 1240.010
377.169, 1699.821
378.518, 1859.632
379.866, 2421.441
381.215, 3386.525
382.563, 4453.334
383.910, 5777.464
385.258, 7598.268
386.605, 9785.072
387.952, 10986.604
389.299, 12082.405
390.646, 11001.629
391.992, 9146.455
393.339, 6841.254
394.685, 4916.537
396.031, 3886.331
397.376, 2537.123
398.722, 2137.918
400.067, 1533.708
401.412, 1103.920
402.757, 1043.725
404.101, 880.748
405.446, 581.614
406.790, 559.408
408.134, 420.767
409.478, 612.555
410.821, 375.357
412.165, 175.180
413.508, 523.849
414.851, 427.690
416.193, 282.622
417.536, 187.457
418.878, 338.434
420.220, 288.693
421.562, 56.531
422.904, 139.996
424.245, 384.965
425.586, 256.402
426.927, 373.689
428.268, 159.602
429.609, 10.590
430.949, 215.176
432.289, 317.455
433.629, 53.441
434.969, 155.432
436.309, 100.225
437.648, 59.035
438.987, 134.830
440.326, 79.332
441.665, 47.055
443.003, 89.566
444.342, 70.076
445.680, 137.580
447.018, 129.566
448.355, 133.260
449.693, 58.369
451.030, 126.648
452.367, 147.264
453.704, 50.564
455.041, 35.424
456.377, 132.357
457.713, 17.520
459.049, 30.076
460.385, 12.785
461.721, 156.332
463.056, 64.455
464.391, 30.984
465.726, 166.799
467.061, 149.311
468.395, 101.055
469.730, 173.383
471.064, 1.984
472.398, 260.838
473.731, 125.768
475.065, 22.141
476.398, 105.137
477.731, 168.662
479.064, 102.916
480.397, 103.369
481.729, 126.619
483.062, 26.855
484.394, 96.076
485.725, 47.285
487.057, 137.494
488.389, 68.689
489.720, 39.871
491.051, 23.043
492.382, 98.195
493.712, 68.379
495.043, 104.547
496.373, 3.697
497.703, 248.830
499.032, 113.949
500.362, 97.055
501.691, 188.154
503.020, 14.758
504.349, 295.297
505.678, 170.338
507.007, 109.404
508.335, 174.455
509.663, 275.490
510.991, 272.512
512.319, 165.514
513.646, 362.504
514.973, 205.479
516.300, 509.443
517.627, 431.391
518.954, 232.326
520.280, 386.246
521.607, 575.152
522.933, 798.043
524.259, 863.916
525.584, 835.775
526.910, 1223.617
528.235, 1180.441
529.560, 1383.246
530.885, 981.035
532.209, 832.811
533.534, 818.576
534.858, 601.318
536.182, 639.049
537.506, 374.758
538.829, 413.449
540.152, 83.121
541.476, 408.771
542.799, 74.400
544.121, 181.010
545.444, 172.598
546.766, 0.236
548.088, 211.295
549.410, 56.807
550.732, 152.295
552.053, 221.768
553.375, 46.219
554.696, 248.246
556.017, 198.650
557.337, 347.020
558.658, 181.383
559.978, 67.535
561.298, 412.955
562.618, 120.254
563.938, 158.865
565.257, 202.115
566.576, 41.346
567.895, 188.865
569.214, 247.674
570.533, 21.832
571.851, 11.582
573.170, 217.670
574.488, 175.729
575.805, 222.650
577.123, 103.934
578.440, 103.840
579.758, 299.141
581.075, 0.002
582.391, 173.033
583.708, 59.814
585.024, 95.857
586.341, 185.295
587.657, 165.998
588.972, 244.646
590.288, 94.768
591.603, 166.131
592.918, 166.840
594.233, 215.459
595.548, 212.008
596.863, 265.584
598.177, 86.459
599.491, 206.762
600.805, 57.602
602.119, 58.010
603.432, 68.262
604.746, 191.635
606.059, 36.170
607.372, 196.053
608.685, 291.383
609.997, 171.186
611.309, 108.340
612.621, 10.518
613.933, 91.746
615.245, 146.918
616.557, 258.182
617.868, 184.271
619.179, 249.582
620.490, 84.799
621.801, 430.203
623.111, 13.621
624.421, 410.109
625.731, 26.096
627.041, 478.639
628.351, 173.588
629.660, 124.408
630.970, 591.068
632.279, 141.203
633.588, 231.926
634.896, 155.502
636.205, 468.246
637.513, 167.951
638.821, 412.764
640.129, 579.229
641.437, 506.797
642.744, 225.205
644.051, 548.680
645.358, 563.479
646.665, 641.799
647.972, 747.744
649.278, 874.705
650.584, 755.361
651.890, 1191.447
653.196, 1201.686
654.502, 1648.816
655.807, 1747.434
657.113, 2155.771
658.418, 3275.369
659.722, 3936.229
661.027, 4754.473
662.331, 5929.254
663.636, 7095.480
664.940, 7412.715
666.244, 7634.820
667.547, 6535.914
668.851, 5843.770
670.154, 4521.650
671.457, 3517.727
672.760, 3085.465
674.062, 2294.035
675.365, 1898.496
676.667, 1491.996
677.969, 1237.377
679.271, 1006.629
680.572, 703.775
681.874, 859.096
683.175, 911.801
684.476, 492.312
685.777, 635.324
687.077, 432.779
688.378, 536.924
689.678, 634.186
690.978, 390.555
692.278, 459.820
693.577, 618.344
694.877, 316.814
696.176, 365.127
697.475, 267.078
698.774, 499.279
700.072, 285.125
701.371, 429.270
702.669, 125.387
703.967, 289.742
705.265, 611.227
706.562, 360.830
707.860, 29.797
709.157, 306.732
710.454, 127.184
711.751, 324.084
713.047, 35.957
714.344, 278.795
715.640, 78.604
716.936, 33.221
718.232, 342.492
719.527, 193.010
720.823, 275.598
722.118, 376.221
723.413, 199.373
724.708, 43.059
726.002, 526.439
727.297, 171.111
728.591, 295.523
729.885, 370.832
731.179, 64.023
732.472, 25.729
733.766, 62.828
735.059, 169.568
736.352, 338.695
737.645, 214.164
738.937, 494.094
740.230, 199.916
741.522, 98.459
742.814, 346.344
744.106, 357.324
745.397, 158.258
746.689, 66.668
747.980, 271.836
749.271, 20.480
750.562, 286.773
751.853, 16.391
753.143, 226.348
754.433, 26.502
755.723, 19.912
757.013, 390.023
758.303, 60.090
759.592, 264.746
760.881, 44.930
762.170, 196.160
763.459, 84.465
764.748, 122.770
766.036, 391.357
767.325, 38.805
768.613, 200.264
769.901, 113.965
771.188, 164.928
772.476, 211.178
773.763, 10.762
775.050, 198.420
776.337, 144.990
777.624, 159.119
778.910, 44.926
780.196, 217.738
781.482, 112.658
782.768, 210.709
784.054, 277.721
785.339, 308.312
786.625, 323.049
787.910, 227.471
789.195, 301.457
790.479, 222.164
791.764, 225.107
793.048, 64.180
794.332, 435.691
795.616, 176.545
796.900, 271.379
798.183, 48.811
799.467, 164.984
800.750, 248.041
802.033, 62.398
803.316, 284.711
804.598, 163.943
805.880, 376.699
807.163, 262.715
808.445, 73.355
809.726, 159.975
811.008, 220.572
812.289, 38.842
813.570, 82.703
814.851, 221.219
816.132, 88.969
817.413, 148.555
818.693, 201.824
819.973, 231.246
821.253, 227.600
822.533, 454.932
823.813, 26.252
825.092, 212.541
826.371, 47.838
827.650, 81.107
828.929, 101.293
830.208, 85.531
831.486, 107.908
832.764, 131.121
834.042, 151.354
835.320, 102.564
836.598, 243.742
837.875, 474.951
839.152, 158.135
840.429, 641.301
841.706, 22.553
842.983, 79.602
844.259, 437.730
845.536, 15.844
846.812, 297.926
848.088, 243.988
849.363, 276.027
850.639, 420.059
851.914, 324.107
853.189, 300.135
854.464, 787.137
855.739, 716.168
857.013, 501.578
858.288, 191.574
859.562, 387.551
860.836, 775.508
862.110, 64.441
863.383, 609.369
864.656, 347.680
865.930, 550.574
867.203, 352.463
868.475, 491.316
869.748, 105.334
871.020, 440.037
872.292, 286.822
873.564, 318.252
874.836, 383.998
876.108, 273.734
877.379, 577.127
878.650, 472.193
879.922, 429.947
881.192, 264.059
882.463, 467.793
883.733, 328.512
885.004, 357.318
886.274, 175.594
887.544, 640.434
888.813, 321.699
890.083, 460.361
891.352, 308.787
892.621, 205.412
893.890, 384.727
895.159, 332.590
896.427, 14.139
897.695, 468.654
898.964, 455.689
900.232, 187.314
901.499, 398.766
902.767, 193.146
904.034, 292.539
905.301, 552.660
906.568, 595.809
907.835, 578.285
909.102, 305.168
910.368, 310.551
911.634, 523.914
912.900, 331.105
914.166, 742.416
915.432, 329.307
916.697, 229.906
917.962, 547.645
919.227, 446.406
920.492, 280.748
921.757, 575.545
923.021, 605.955
924.285, 419.549
925.550, 543.309
926.813, 543.717
928.077, 470.723
929.341, 437.121
930.604, 545.316
931.867, 141.314
933.130, 331.711
934.393, 809.873
935.655, 37.086
936.918, 649.148
938.180, 389.285
939.442, 208.479
940.703, 591.588
941.965, 571.225
943.226, 650.291
944.488, 438.146
945.749, 738.943
947.009, 474.219
948.270, 348.439
949.530, 417.641
950.791, 326.223
952.051, 287.330
953.311, 212.789
954.570, 676.201
955.830, 317.590
957.089, 808.791
958.348, 254.258
959.607, 617.355
960.866, 388.059
962.124, 367.029
963.383, 565.697
964.641, 523.568
965.899, 567.875
967.156, 309.455
968.414, 397.811
969.671, 412.252
970.928, 354.096
972.185, 494.189
973.442, 531.129
974.699, 800.463
975.955, 519.990
977.211, 629.836
978.468, 792.633
979.723, 600.330
980.979, 576.945
982.234, 735.184
983.490, 548.135
984.745, 904.770
986.000, 1098.615
987.254, 878.143
988.509, 1459.547
989.763, 1179.738
991.017, 1385.725
992.271, 1488.650
993.525, 1619.166
994.779, 2120.699
996.032, 2159.904
997.285, 2554.766
998.538, 2413.139
999.791, 3472.008
1001.044, 3498.910
1002.296, 4560.658
1003.548, 5360.523
1004.800, 6711.574
1006.052, 8681.879
1007.304, 11390.023
1008.555, 15076.812
1009.807, 19429.678
1011.058, 23813.391
1012.309, 25926.834
1013.559, 23990.727
1014.810, 19556.285
1016.060, 15460.184
1017.310, 11169.762
1018.560, 7962.344
1019.810, 6308.742
1021.060, 4988.443
1022.309, 3653.494
1023.558, 3463.549
1024.807, 2753.895
1026.056, 2299.389
1027.305, 2302.828
1028.553, 2258.672
1029.801, 1922.148
1031.049, 1446.039
1032.297, 1528.225
1033.545, 1337.139
1034.793, 1290.684
1036.040, 1334.113
1037.287, 1362.943
1038.534, 1314.047
1039.781, 1584.598
1041.027, 1168.967
1042.274, 1440.836
1043.520, 1544.451
1044.766, 1400.348
1046.012, 1294.094
1047.257, 1447.572
1048.503, 1867.781
1049.748, 862.504
1050.993, 1640.133
1052.238, 1410.174
1053.483, 1008.645
1054.727, 1097.158
1055.971, 1134.721
1057.216, 780.531
1058.459, 1087.596
1059.703, 535.656
1060.947, 1017.793
1062.190, 900.514
1063.433, 826.066
1064.676, 740.418
1065.919, 523.930
1067.162, 529.225
1068.404, 420.303
1069.646, 451.172
1070.888, 654.516
1072.130, 620.264
1073.372, 676.492
1074.613, 752.727
1075.855, 591.238
1077.096, 500.320
1078.337, 646.164
1079.578, 404.791
1080.818, 576.361
1082.059, 172.143
1083.299, 620.568
1084.539, 434.695
1085.779, 519.898
1087.018, 496.090
1088.258, 476.148
1089.497, 449.387
1090.736, 357.246
1091.975, 319.887
1093.213, 159.957
1094.452, 223.559
1095.690, 69.496
1096.928, 330.852
1098.166, 423.070
1099.404, 497.199
1100.642, 193.832
1101.879, 327.172
1103.116, 64.359
1104.353, 351.008
1105.590, 36.414
1106.827, 554.914
1108.063, 106.062
1109.299, 280.387
1110.536, 294.676
1111.771, 15.363
1113.007, 282.379
1114.243, 351.051
1115.478, 194.789
1116.713, 565.059
1117.948, 199.648
1119.183, 3.891
1120.418, 121.770
1121.652, 288.004
1122.886, 108.121
1124.120, 405.828
1125.354, 60.270
1126.588, 343.270
1127.821, 146.824
1129.055, 420.645
1130.288, 525.082
1131.521, 286.980
1132.753, 111.770
1133.986, 181.836
1135.218, 679.012
1136.450, 133.492
1137.682, 874.867
1138.914, 58.547
1140.146, 213.094
1141.377, 97.820
1142.609, 146.492
1143.840, 170.477
1145.071, 381.945
1146.301, 281.422
1147.532, 344.762
1148.762, 25.016
1149.992, 75.395
1151.222, 354.062
1152.452, 537.027
1153.682, 117.719
1154.911, 250.375
1156.140, 322.371
1157.369, 216.883
1158.598, 160.664
1159.827, 365.395
1161.055, 2.535
1162.284, 160.887
1163.512, 120.328
1164.740, 284.492
1165.967, 271.445
1167.195, 300.742
1168.422, 274.469
1169.650, 197.004
1170.877, 182.949
1172.103, 277.207
1173.330, 59.340
1174.557, 435.340
1175.783, 186.203
1177.009, 239.219
1178.235, 316.285
1179.461, 21.570
1180.686, 199.688
1181.912, 276.188
1183.137, 198.129
1184.362, 46.543
1185.587, 221.305
1186.811, 295.785
1188.036, 321.004
1189.260, 420.973
1190.484, 368.715
1191.708, 622.582
1192.932, 393.613
1194.155, 400.562
1195.378, 75.414
1196.602, 635.180
1197.825, 151.883
1199.047, 527.512
1200.270, 541.934
1201.492, 808.383
1202.715, 744.641
1203.937, 556.613
1205.159, 489.531
1206.380, 479.629
1207.602, 249.652
1208.823, 317.184
1210.044, 587.164
1211.265, 390.852
1212.486, 582.758
1213.707, 409.496
1214.927, 571.668
1216.147, 476.477
1217.367, 566.516
1218.587, 481.953
1219.807, 596.520
1221.027, 548.824
1222.246, 468.457
1223.465, 556.375
1224.684, 578.934
1225.903, 643.375
1227.121, 652.395
1228.340, 669.176
1229.558, 623.738
1230.776, 430.094
1231.994, 348.762
1233.212, 646.770
1234.429, 729.176
1235.646, 413.398
1236.864, 866.164
1238.081, 342.301
1239.297, 460.500
1240.514, 833.195
1241.730, 404.914
1242.947, 556.492
1244.163, 316.516
1245.378, 769.195
1246.594, 601.273
1247.810, 39.902
1249.025, 680.645
1250.240, 582.781
1251.455, 512.285
1252.670, 711.000
1253.885, 555.535
1255.099, 463.355
1256.313, 474.148
1257.527, 354.895
1258.741, 425.137
1259.955, 234.625
1261.168, 431.801
1262.382, 509.262
1263.595, 411.609
1264.808, 240.250
1266.021, 291.648
1267.233, 424.723
1268.446, 428.113
1269.658, 261.594
1270.870, 502.176
1272.082, 250.504
1273.294, 376.070
1274.505, 201.930
1275.716, 529.883
1276.928, 118.316
1278.139, 547.824
1279.349, 292.211
1280.560, 367.160
1281.770, 267.180
1282.981, 260.078
1284.191, 547.613
1285.401, 472.750
1286.610, 240.914
1287.820, 429.938
1289.029, 34.711
1290.239, 114.945
1291.448, 262.859
1292.656, 270.133
1293.865, 224.137
1295.073, 438.730
1296.282, 371.988
1297.490, 201.379
1298.698, 348.156
1299.906, 444.359
1301.113, 374.902
1302.320, 185.703
1303.528, 413.941
1304.735, 317.219
1305.942, 205.938
1307.148, 664.449
1308.355, 35.512
1309.561, 768.297
1310.767, 256.957
1311.973, 615.430
1313.179, 84.883
1314.384, 676.422
1315.590, 153.051
1316.795, 472.281
1318.000, 341.102
1319.205, 692.629
1320.410, 476.352
1321.614, 113.641
1322.819, 656.875
1324.023, 332.945
1325.227, 612.402
1326.431, 356.082
1327.634, 407.715
1328.838, 203.230
1330.041, 182.680
1331.244, 266.312
1332.447, 127.676
1333.650, 140.051
1334.852, 200.855
1336.055, 1.324
1337.257, 0.000
##END=



