##NAMES=Diopside
##RRUFFID=R040097
##IDEAL CHEMISTRY=CaMgSi_2_O_6_
##LOCALITY=Fassathal, Tyrol
##OWNER=RRUFF
##SOURCE=University of Arizona Mineral Museum
##DESCRIPTION=Green prismatic crystals
##STATUS=The identification of this mineral has been confirmed by X-ray diffraction and chemical analysis
##URL=rruff.info/R040097
##MEASURED CHEMISTRY=Ca_1.00_(Mg_0.83_Al_0.10_Fe_0.09_Ca_0.02_Ti_0.02_)(Si_0.88_Al_0.12_)_2_O_6_
##PIN_ID=M00269
##ORIENTATION=Laser parallel to b* (0 1 0). Fiducial mark perpendicular to laser is parallel to -c [0 0 -1]
124.675, 0.000
126.063, 5.733
127.452, 68.060
128.840, 316.652
130.228, 300.662
131.615, 545.101
133.003, 746.818
134.390, 833.865
135.777, 1145.327
137.164, 1510.745
138.550, 1749.035
139.937, 1949.004
141.323, 2050.584
142.709, 2023.773
144.094, 1738.381
145.480, 1565.606
146.865, 1303.316
148.250, 1111.318
149.635, 940.053
151.019, 769.464
152.403, 587.807
153.788, 396.485
155.171, 225.482
156.555, 274.779
157.939, 169.396
159.322, 199.052
160.705, 26.151
162.088, 76.148
163.470, 63.518
164.853, 1.261
166.235, 41.763
167.617, 41.926
168.998, 182.363
170.380, 113.054
171.761, 163.979
173.142, 54.878
174.523, 26.473
175.904, 188.018
177.284, 59.746
178.664, 131.644
180.044, 13.705
181.424, 155.922
182.803, 248.283
184.183, 350.785
185.562, 393.418
186.940, 276.174
188.319, 249.047
189.698, 62.031
191.076, 34.876
192.454, 218.320
193.831, 21.614
195.209, 165.003
196.586, 51.515
197.963, 62.091
199.340, 99.172
200.717, 41.796
202.093, 7.967
203.470, 113.795
204.846, 10.590
206.221, 74.920
207.597, 19.647
208.972, 54.228
210.347, 128.846
211.722, 63.517
213.097, 118.207
214.472, 242.926
215.846, 167.674
217.220, 122.460
218.594, 77.280
219.967, 142.139
221.341, 187.032
222.714, 251.968
224.087, 274.669
225.460, 331.949
226.832, 316.996
228.204, 362.078
229.577, 387.522
230.948, 332.340
232.320, 317.497
233.692, 192.688
235.063, 57.914
236.434, 173.173
237.805, 168.467
239.175, 13.795
240.545, 99.146
241.916, 164.523
243.286, 9.924
244.655, 215.348
246.025, 280.781
247.394, 166.195
248.763, 241.609
250.132, 297.055
251.501, 252.527
252.869, 338.031
254.237, 353.562
255.605, 379.123
256.973, 234.709
258.340, 370.324
259.708, 205.965
261.075, 21.631
262.442, 147.322
263.808, 223.039
265.175, 98.783
266.541, 274.551
267.907, 200.346
269.273, 196.170
270.639, 2.025
272.004, 41.910
273.369, 1.898
274.734, 65.787
276.099, 40.912
277.463, 176.877
278.828, 168.525
280.192, 36.275
281.556, 192.221
282.919, 86.498
284.283, 162.475
285.646, 108.512
287.009, 249.992
288.372, 216.121
289.734, 259.152
291.097, 265.711
292.459, 249.930
293.821, 244.484
295.183, 315.215
296.544, 359.293
297.905, 444.496
299.266, 489.855
300.627, 515.338
301.988, 580.922
303.348, 640.965
304.709, 752.348
306.069, 778.176
307.428, 904.070
308.788, 960.023
310.147, 946.021
311.507, 982.059
312.865, 1118.139
314.224, 1484.203
315.583, 1330.311
316.941, 1766.455
318.299, 1712.639
319.657, 1918.855
321.015, 2115.107
322.372, 1951.367
323.729, 2207.705
325.086, 2333.998
326.443, 2430.320
327.800, 2406.639
329.156, 2282.887
330.512, 2189.139
331.868, 2015.422
333.224, 2041.732
334.579, 2128.072
335.935, 1884.434
337.290, 1988.984
338.645, 1715.395
339.999, 1761.826
341.354, 1638.281
342.708, 1654.754
344.062, 1421.248
345.416, 1627.760
346.769, 1564.291
348.123, 1530.842
349.476, 1607.406
350.829, 1523.986
352.182, 1490.584
353.534, 1537.193
354.887, 1484.148
356.239, 1669.426
357.591, 1526.076
358.942, 1532.742
360.294, 1677.826
361.645, 1364.514
362.996, 1431.195
364.347, 1336.498
365.698, 1272.910
367.048, 1285.348
368.398, 1052.041
369.748, 1046.119
371.098, 1102.828
372.448, 1009.541
373.797, 1046.260
375.146, 892.986
376.495, 1079.719
377.844, 1036.457
379.192, 1233.199
380.540, 1209.945
381.889, 1356.695
383.236, 1443.449
384.584, 1560.209
385.932, 1796.977
387.279, 1913.748
388.626, 2270.520
389.973, 2297.301
391.319, 2314.086
392.666, 2560.883
394.012, 2297.682
395.358, 2104.492
396.704, 1971.307
398.049, 1868.164
399.394, 1415.031
400.740, 1052.051
402.084, 1108.961
403.429, 625.873
404.774, 782.875
406.118, 659.826
407.462, 396.811
408.806, 243.795
410.150, 260.785
411.493, 268.611
412.836, 125.682
414.179, 23.361
415.522, 50.465
416.865, 7.568
418.207, 64.842
419.549, 67.973
420.891, 20.309
422.233, 7.576
423.575, 5.053
424.916, 62.723
426.257, 60.199
427.598, 54.885
428.939, 63.516
430.279, 25.637
431.619, 15.518
432.959, 165.896
434.299, 20.758
435.639, 38.178
436.978, 175.520
438.318, 136.064
439.657, 134.531
440.996, 43.938
442.334, 82.031
443.673, 124.141
445.011, 2.773
446.349, 74.393
447.687, 313.918
449.024, 41.551
450.361, 199.746
451.699, 41.830
453.036, 116.404
454.372, 75.719
455.709, 77.123
457.045, 242.260
458.381, 224.221
459.717, 105.279
461.053, 252.506
462.388, 99.592
463.724, 216.996
465.059, 134.639
466.394, 312.010
467.728, 189.365
469.063, 256.869
470.397, 193.664
471.731, 100.447
473.065, 137.219
474.398, 193.977
475.732, 120.719
477.065, 417.453
478.398, 144.170
479.731, 340.875
481.063, 187.566
482.396, 154.240
483.728, 50.904
485.060, 118.590
486.391, 234.182
487.723, 230.799
489.054, 267.400
490.385, 153.988
491.716, 210.557
493.047, 245.127
494.377, 253.645
495.708, 380.160
497.038, 366.660
498.368, 433.143
499.697, 552.119
501.027, 608.246
502.356, 709.162
503.685, 788.889
505.014, 905.271
506.342, 951.635
507.671, 1067.975
508.999, 974.291
510.327, 760.586
511.655, 716.857
512.982, 703.104
514.310, 629.326
515.637, 606.672
516.964, 581.713
518.291, 567.867
519.617, 583.998
520.944, 640.111
522.270, 546.197
523.596, 432.258
524.921, 454.451
526.247, 714.320
527.572, 430.332
528.897, 786.318
530.222, 842.289
531.547, 778.230
532.871, 914.148
534.196, 690.039
535.520, 895.900
536.844, 631.734
538.167, 827.541
539.491, 643.318
540.814, 599.068
542.137, 645.229
543.460, 560.922
544.783, 487.531
546.105, 507.322
547.427, 443.838
548.749, 454.906
550.071, 411.961
551.393, 299.225
552.714, 305.000
554.035, 473.219
555.356, 429.021
556.677, 343.953
557.998, 670.982
559.318, 186.822
560.638, 422.449
561.958, 557.732
563.278, 230.881
564.597, 507.328
565.917, 370.557
567.236, 326.139
568.555, 412.596
569.874, 105.387
571.192, 591.961
572.511, 139.041
573.829, 480.801
575.147, 496.273
576.464, 291.203
577.782, 437.064
579.099, 99.430
580.416, 357.854
581.733, 313.186
583.050, 219.021
584.366, 297.725
585.683, 172.635
586.999, 139.834
588.315, 201.348
589.630, 45.127
590.946, 60.238
592.261, 145.963
593.576, 262.051
594.891, 47.213
596.206, 111.996
597.520, 18.555
598.834, 52.867
600.148, 127.014
601.462, 8.762
602.776, 24.695
604.089, 98.965
605.402, 99.166
606.715, 183.404
608.028, 107.354
609.341, 97.145
610.653, 107.941
611.965, 51.828
613.277, 306.244
614.589, 44.588
615.901, 11.410
617.212, 3.240
618.523, 276.332
619.834, 310.941
621.145, 234.564
622.456, 179.420
623.766, 242.846
625.076, 246.318
626.386, 210.668
627.696, 423.393
629.006, 476.758
630.315, 479.795
631.624, 536.594
632.933, 415.561
634.242, 539.441
635.551, 592.174
636.859, 665.459
638.167, 847.793
639.475, 940.844
640.783, 734.385
642.090, 1026.525
643.398, 1119.348
644.705, 1102.422
646.012, 1364.758
647.318, 1457.561
648.625, 1529.986
649.931, 1472.555
651.237, 1924.711
652.543, 2106.541
653.849, 2498.547
655.155, 2950.230
656.460, 3322.422
657.765, 3814.002
659.070, 4445.531
660.375, 4627.449
661.679, 5858.877
662.984, 6210.254
664.288, 6801.574
665.592, 7202.846
666.895, 7204.066
668.199, 6855.234
669.502, 5996.350
670.805, 5337.418
672.108, 4618.430
673.411, 4109.389
674.713, 3420.297
676.016, 2961.152
677.318, 2481.955
678.620, 2202.709
679.921, 1703.498
681.223, 1734.396
682.524, 1514.990
683.825, 1175.848
685.126, 1166.379
686.427, 976.816
687.727, 817.197
689.028, 1027.801
690.328, 498.078
691.628, 868.299
692.927, 508.717
694.227, 528.832
695.526, 579.143
696.825, 439.295
698.124, 329.248
699.423, 529.145
700.721, 208.988
702.020, 488.768
703.318, 428.494
704.616, 308.164
705.913, 137.779
707.211, 117.328
708.508, 366.805
709.805, 56.225
711.102, 345.568
712.399, 75.145
713.695, 124.004
714.992, 313.086
716.288, 88.043
717.584, 430.838
718.879, 49.885
720.175, 168.760
721.470, 52.602
722.765, 325.912
724.060, 154.371
725.355, 207.234
726.649, 130.189
727.944, 88.311
729.238, 34.244
730.532, 293.701
731.825, 248.422
733.119, 189.176
734.412, 156.768
735.705, 302.891
736.998, 234.402
738.291, 101.527
739.584, 8.189
740.876, 345.070
742.168, 59.537
743.460, 285.488
744.752, 191.779
746.043, 106.873
747.334, 171.279
748.626, 117.314
749.916, 225.887
751.207, 299.932
752.498, 336.918
753.788, 380.090
755.078, 402.143
756.368, 370.000
757.658, 381.340
758.947, 282.010
760.237, 176.922
761.526, 281.844
762.815, 337.357
764.104, 27.742
765.392, 402.209
766.680, 316.930
767.969, 180.662
769.257, 586.355
770.544, 239.953
771.832, 120.719
773.119, 502.391
774.406, 107.789
775.693, 253.271
776.980, 78.377
778.267, 273.184
779.553, 248.203
780.839, 103.182
782.125, 487.949
783.411, 233.369
784.697, 298.744
785.982, 324.072
787.267, 309.346
788.552, 114.570
789.837, 319.744
791.122, 174.867
792.406, 519.936
793.690, 204.959
794.974, 119.930
796.258, 484.850
797.542, 219.727
798.825, 154.555
800.108, 309.332
801.391, 184.066
802.674, 260.756
803.957, 213.400
805.239, 297.998
806.522, 362.553
807.804, 307.062
809.085, 551.529
810.367, 235.953
811.649, 430.332
812.930, 704.662
814.211, 258.953
815.492, 713.199
816.772, 777.402
818.053, 901.561
819.333, 535.674
820.613, 519.746
821.893, 683.777
823.173, 677.764
824.452, 721.713
825.732, 785.619
827.011, 479.480
828.290, 733.309
829.568, 617.090
830.847, 410.830
832.125, 484.533
833.403, 318.203
834.681, 278.078
835.959, 355.418
837.236, 258.945
838.514, 322.441
839.791, 495.902
841.068, 409.270
842.345, 262.531
843.621, 425.750
844.898, 558.922
846.174, 262.047
847.450, 605.133
848.726, 258.184
850.001, 281.203
851.277, 694.188
852.552, 436.652
853.827, 839.527
855.102, 851.426
856.376, 774.230
857.651, 1146.973
858.925, 1139.180
860.199, 1090.375
861.473, 731.301
862.746, 983.656
864.020, 1123.500
865.293, 745.699
866.566, 828.711
867.839, 839.562
869.112, 551.535
870.384, 843.664
871.656, 156.070
872.928, 750.555
874.200, 321.672
875.472, 535.953
876.744, 427.809
878.015, 248.738
879.286, 693.262
880.557, 363.941
881.828, 294.059
883.098, 209.426
884.369, 511.020
885.639, 182.938
886.909, 484.020
888.178, 65.184
889.448, 213.215
890.717, 414.461
891.987, 304.629
893.256, 302.578
894.524, 145.742
895.793, 323.598
897.061, 234.965
898.330, 194.094
899.598, 285.910
900.865, 106.598
902.133, 53.227
903.401, 557.828
904.668, 40.789
905.935, 60.750
907.202, 342.500
908.468, 114.371
909.735, 356.113
911.001, 27.957
912.267, 269.441
913.533, 230.457
914.799, 261.992
916.064, 113.789
917.330, 110.285
918.595, 201.812
919.860, 73.594
921.124, 244.820
922.389, 58.836
923.653, 400.453
924.918, 93.320
926.182, 415.816
927.445, 126.805
928.709, 508.805
929.972, 199.434
931.236, 111.266
932.499, 372.984
933.761, 273.703
935.024, 96.121
936.286, 407.566
937.549, 109.203
938.811, 259.719
940.073, 270.723
941.334, 292.105
942.596, 252.863
943.857, 183.164
945.118, 463.973
946.379, 624.656
947.640, 306.141
948.900, 837.676
950.161, 188.840
951.421, 560.078
952.681, 521.758
953.940, 533.387
955.200, 604.977
956.459, 636.516
957.719, 408.008
958.978, 589.453
960.236, 330.859
961.495, 651.809
962.753, 372.734
964.012, 563.941
965.270, 434.820
966.527, 405.992
967.785, 946.809
969.043, 287.395
970.300, 758.438
971.557, 669.453
972.814, 510.434
974.071, 421.387
975.327, 792.332
976.583, 573.273
977.840, 944.309
979.095, 725.387
980.351, 575.906
981.607, 1067.145
982.862, 378.414
984.117, 1259.902
985.372, 921.441
986.627, 843.113
987.882, 1209.023
989.136, 1201.117
990.390, 1403.273
991.644, 1782.551
992.898, 1526.812
994.152, 2288.461
995.405, 2246.715
996.659, 2835.355
997.912, 2997.090
999.165, 3158.227
1000.417, 4320.047
1001.670, 4711.855
1002.922, 4964.141
1004.174, 5215.652
1005.426, 5587.016
1006.678, 5918.613
1007.930, 5970.301
1009.181, 5641.988
1010.432, 5443.672
1011.683, 4825.352
1012.934, 4157.027
1014.185, 3628.727
1015.435, 2670.461
1016.685, 2202.227
1017.935, 1994.012
1019.185, 1675.812
1020.435, 1507.613
1021.684, 1341.465
1022.934, 1271.242
1024.183, 1105.203
1025.432, 1064.938
1026.680, 996.828
1027.929, 1058.762
1029.177, 920.730
1030.425, 1012.742
1031.673, 854.789
1032.921, 1046.879
1034.169, 979.023
1035.416, 751.195
1036.663, 833.379
1037.911, 965.746
1039.157, 718.289
1040.404, 1291.535
1041.650, 895.016
1042.897, 1098.641
1044.143, 972.363
1045.389, 736.512
1046.634, 1230.812
1047.880, 1065.262
1049.125, 789.891
1050.371, 954.699
1051.615, 639.707
1052.860, 814.938
1054.105, 510.410
1055.349, 656.148
1056.593, 982.188
1057.837, 118.551
1059.081, 765.285
1060.325, 632.430
1061.568, 370.031
1062.812, 588.148
1064.055, 56.762
1065.298, 455.910
1066.540, 205.617
1067.783, 115.938
1069.025, 436.957
1070.267, 668.746
1071.509, 28.586
1072.751, 605.066
1073.993, 20.180
1075.234, 335.809
1076.475, 383.199
1077.716, 192.203
1078.957, 355.750
1080.198, 89.551
1081.438, 137.352
1082.679, 273.457
1083.919, 0.266
1085.159, 0.000
##END=



