##NAMES=Diopside
##RRUFFID=R040009
##IDEAL CHEMISTRY=CaMgSi_2_O_6_
##LOCALITY=Otter Lake, Quebec, Canada
##OWNER=RRUFF
##SOURCE=University of Arizona Mineral Museum
##DESCRIPTION=Green square prismatic crystal associated with pale orange calcite
##STATUS=The identification of this mineral has been confirmed by X-ray diffraction and chemical analysis
##URL=rruff.info/R040009
##MEASURED CHEMISTRY=(Ca_0.97_Fe_0.02_Na_0.01_)_Σ=1_(Mg_0.97_Fe_0.02_Al_0.01_)_Σ=1_Si_2.00_O_6_; trace amounts of Mn and Ti
##PIN_ID=L00436
##ORIENTATION=Laser parallel to -b [0 -1 0]. Fiducial mark perpendicular to laser is parallel to -c* (0 0 -1)
96.161, 0.000
97.554, 0.371
98.947, 23.685
100.340, 8.340
101.732, 4.885
103.124, 58.015
104.516, 0.451
105.908, 91.069
107.300, 230.050
108.691, 154.830
110.082, 252.004
111.473, 199.218
112.864, 190.165
114.254, 382.594
115.644, 449.297
117.034, 653.100
118.424, 768.903
119.813, 696.747
121.203, 841.576
122.592, 851.244
123.981, 1108.625
125.369, 1297.616
126.758, 1560.136
128.146, 2083.117
129.534, 2789.504
130.922, 4063.250
132.309, 5665.317
133.696, 7835.668
135.083, 10043.277
136.470, 12731.121
137.857, 14502.172
139.243, 15233.540
140.630, 14253.891
142.016, 12317.207
143.401, 9601.135
144.787, 7050.369
146.172, 5042.572
147.557, 3547.754
148.942, 2470.904
150.327, 1818.027
151.711, 1303.128
153.096, 982.213
154.480, 831.285
155.863, 647.348
157.247, 503.403
158.630, 506.456
160.013, 377.507
161.396, 508.559
162.779, 452.611
164.161, 346.665
165.544, 382.721
166.926, 330.781
168.308, 301.845
169.689, 328.914
171.070, 316.986
172.452, 335.063
173.833, 329.146
175.213, 354.235
176.594, 492.330
177.974, 540.432
179.354, 667.523
180.734, 659.854
182.114, 678.817
183.493, 573.266
184.872, 561.235
186.251, 472.453
187.630, 500.783
189.008, 397.491
190.387, 434.678
191.765, 385.182
193.143, 432.489
194.520, 439.891
195.898, 423.410
197.275, 382.950
198.652, 354.523
200.029, 286.127
201.405, 294.763
202.782, 285.430
204.158, 310.126
205.534, 305.852
206.909, 330.608
208.285, 309.827
209.660, 322.201
211.035, 262.035
212.410, 237.894
213.784, 204.776
215.159, 212.681
216.533, 210.608
217.907, 198.765
219.281, 203.527
220.654, 217.517
222.027, 246.527
223.400, 317.553
224.773, 370.593
226.146, 426.645
227.518, 475.705
228.891, 591.774
230.263, 652.854
231.634, 720.941
233.006, 871.037
234.377, 769.141
235.748, 660.253
237.119, 637.373
238.490, 392.501
239.860, 407.638
241.231, 248.782
242.601, 234.933
243.970, 198.090
245.340, 212.254
246.709, 285.424
248.079, 375.602
249.448, 587.785
250.816, 641.973
252.185, 954.167
253.553, 1003.369
254.921, 953.583
256.289, 915.807
257.657, 721.042
259.024, 558.289
260.391, 228.552
261.758, 210.092
263.125, 97.358
264.492, 1.773
265.858, 22.832
267.224, 49.523
268.590, 31.073
269.956, 106.515
271.321, 105.739
272.687, 101.899
274.052, 40.247
275.416, 79.819
276.781, 65.475
278.146, 107.810
279.510, 53.255
280.874, 27.012
282.237, 77.073
283.601, 1.367
284.964, 44.886
286.327, 25.737
287.690, 70.859
289.053, 62.733
290.416, 62.444
291.778, 154.770
293.140, 0.600
294.502, 178.726
295.863, 144.695
297.225, 324.516
298.586, 314.152
299.947, 464.806
301.308, 522.478
302.668, 710.166
304.029, 773.868
305.389, 1046.583
306.749, 1296.302
308.108, 1550.094
309.468, 1926.853
310.827, 2205.578
312.186, 2572.308
313.545, 2688.038
314.903, 3086.948
316.262, 3411.733
317.620, 4041.518
318.978, 5175.258
320.336, 6210.000
321.693, 7413.744
323.051, 8163.491
324.408, 8577.240
325.765, 7997.992
327.121, 7182.745
328.478, 5806.502
329.834, 4586.260
331.190, 3704.020
332.546, 2958.782
333.902, 2356.547
335.257, 2022.312
336.612, 1632.081
337.967, 1390.851
339.322, 1287.622
340.677, 1189.395
342.031, 1071.169
343.385, 1098.944
344.739, 1179.720
346.093, 1171.467
347.446, 1141.162
348.799, 1344.773
350.153, 1616.340
351.505, 1988.841
352.858, 2369.311
354.210, 2846.749
355.563, 3584.158
356.915, 4312.572
358.267, 4638.989
359.618, 5046.404
360.969, 4984.821
362.321, 4726.242
363.672, 4212.664
365.022, 3542.090
366.373, 3057.517
367.723, 2641.946
369.073, 2219.377
370.423, 2087.810
371.773, 1952.243
373.122, 1792.677
374.471, 1854.112
375.821, 1955.548
377.169, 1971.983
378.518, 2288.420
379.866, 2576.855
381.215, 3262.291
382.563, 4017.727
383.910, 5313.160
385.258, 6784.595
386.605, 8702.029
387.952, 10671.456
389.299, 11912.887
390.646, 12729.315
391.992, 11852.743
393.339, 10160.168
394.685, 8029.592
396.031, 6097.013
397.376, 4578.432
398.722, 3292.849
400.067, 2445.263
401.412, 1832.674
402.757, 1423.083
404.101, 1145.488
405.446, 893.974
406.790, 627.537
408.134, 535.933
409.478, 450.054
410.821, 461.720
412.165, 449.428
413.508, 271.287
414.851, 348.083
416.193, 298.713
417.536, 160.764
418.878, 119.318
420.220, 153.641
421.562, 108.718
422.904, 97.489
424.245, 78.642
425.586, 62.580
426.927, 67.586
428.268, 77.158
429.609, 1.244
430.949, 65.837
432.289, 65.773
433.629, 125.264
434.969, 5.746
436.309, 21.133
437.648, 34.877
438.987, 12.538
440.326, 24.210
441.665, 19.403
443.003, 47.912
444.342, 11.606
445.680, 41.195
447.018, 36.294
448.355, 15.348
449.693, 64.249
451.030, 12.141
452.367, 37.570
453.704, 42.814
455.041, 53.509
456.377, 5.784
457.713, 17.084
459.049, 74.387
460.385, 95.719
461.721, 120.742
463.056, 192.414
464.391, 156.779
465.726, 163.147
467.061, 158.513
468.395, 62.904
469.730, 73.305
471.064, 199.702
472.398, 159.118
473.731, 250.534
475.065, 45.944
476.398, 78.387
477.731, 80.824
479.064, 180.267
480.397, 112.706
481.729, 165.139
483.062, 180.568
484.394, 178.990
485.725, 179.407
487.057, 235.818
488.389, 177.230
489.720, 166.639
491.051, 227.041
492.382, 229.434
493.712, 277.817
495.043, 391.212
496.373, 234.596
497.703, 254.970
499.032, 470.334
500.362, 575.687
501.691, 785.028
503.020, 976.357
504.349, 1268.673
505.678, 1863.977
507.007, 2174.267
508.335, 2259.541
509.663, 2242.799
510.991, 1839.042
512.319, 1476.270
513.646, 1071.480
514.973, 854.675
516.300, 640.853
517.627, 621.015
518.954, 544.158
520.280, 435.284
521.607, 491.391
522.933, 470.480
524.259, 433.551
525.584, 384.602
526.910, 476.634
528.235, 518.646
529.560, 502.639
530.885, 456.612
532.209, 427.564
533.534, 435.496
534.858, 536.408
536.182, 417.298
537.506, 419.168
538.829, 361.015
540.152, 288.842
541.476, 295.646
542.799, 252.087
544.121, 210.188
545.444, 230.926
546.766, 223.641
548.088, 234.333
549.410, 221.002
550.732, 240.647
552.053, 253.617
553.375, 264.825
554.696, 293.440
556.017, 314.989
557.337, 332.515
558.658, 385.015
559.978, 387.490
561.298, 258.940
562.618, 288.364
563.938, 190.763
565.257, 173.135
566.576, 224.480
567.895, 41.798
569.214, 151.084
570.533, 142.487
571.851, 106.861
573.170, 123.436
574.488, 164.165
575.805, 64.870
577.123, 184.825
578.440, 14.746
579.758, 62.899
581.075, 137.871
582.391, 49.721
583.708, 104.711
585.024, 54.506
586.341, 26.502
587.657, 153.605
588.972, 154.501
590.288, 101.484
591.603, 138.750
592.918, 68.664
594.233, 132.161
595.548, 99.376
596.863, 152.571
598.177, 124.661
599.491, 128.365
600.805, 152.989
602.119, 218.780
603.432, 126.512
604.746, 221.383
606.059, 293.017
607.372, 250.471
608.685, 255.083
609.997, 417.022
611.309, 271.017
612.621, 420.586
613.933, 331.920
615.245, 521.594
616.557, 453.790
617.868, 563.257
619.179, 565.356
620.490, 664.348
621.801, 624.961
623.111, 868.039
624.421, 843.117
625.731, 990.836
627.041, 819.712
628.351, 1170.712
629.660, 1051.796
630.970, 1111.268
632.279, 1404.685
633.588, 1374.350
634.896, 1399.709
636.205, 1497.646
637.513, 1567.778
638.821, 1705.941
640.129, 1870.722
641.437, 2096.818
642.744, 2379.479
644.051, 2475.725
645.358, 2738.762
646.665, 3084.381
647.972, 3355.470
649.278, 3852.500
650.584, 4288.757
651.890, 4927.307
653.196, 5858.640
654.502, 6969.002
655.807, 8579.521
657.113, 10392.680
658.418, 12987.719
659.722, 16969.857
661.027, 21375.648
662.331, 26709.477
663.636, 32898.938
664.940, 38234.273
666.244, 40274.156
667.547, 40542.992
668.851, 36351.957
670.154, 31603.723
671.457, 25478.143
672.760, 20025.660
674.062, 16140.341
675.365, 12771.580
676.667, 10117.766
677.969, 8295.895
679.271, 6914.099
680.572, 5733.123
681.874, 4790.098
683.175, 4344.020
684.476, 3843.886
685.777, 3341.700
687.077, 3027.463
688.378, 2681.173
689.678, 2485.828
690.978, 2248.431
692.278, 2012.979
693.577, 1790.477
694.877, 1826.919
696.176, 1568.308
697.475, 1666.643
698.774, 1406.924
700.072, 1478.151
701.371, 1385.324
702.669, 1274.441
703.967, 1047.507
705.265, 1159.517
706.562, 1270.473
707.860, 1137.374
709.157, 956.221
710.454, 1046.012
711.751, 768.749
713.047, 867.432
714.344, 761.059
715.640, 814.630
716.936, 594.147
718.232, 737.609
719.527, 698.017
720.823, 527.284
722.118, 561.415
723.413, 506.654
724.708, 498.111
726.002, 434.961
727.297, 435.711
728.591, 381.249
729.885, 337.788
731.179, 337.432
732.472, 270.591
733.766, 272.182
735.059, 208.941
736.352, 244.880
737.645, 267.060
738.937, 225.801
740.230, 254.699
741.522, 203.318
742.814, 168.511
744.106, 221.396
745.397, 204.230
746.689, 110.818
747.980, 37.484
749.271, 123.773
750.562, 53.267
751.853, 71.545
753.143, 21.008
754.433, 3.207
755.723, 47.355
757.013, 83.458
758.303, 21.866
759.592, 93.226
760.881, 116.119
762.170, 40.863
763.459, 79.938
764.748, 14.874
766.036, 125.760
767.325, 27.853
768.613, 68.391
769.901, 20.883
771.188, 4.526
772.476, 93.128
773.763, 53.351
775.050, 119.384
776.337, 16.140
777.624, 4.779
778.910, 36.862
780.196, 87.234
781.482, 28.181
782.768, 28.894
784.054, 64.461
785.339, 8.494
786.625, 98.013
787.910, 127.765
789.195, 80.382
790.479, 20.818
791.764, 12.830
793.048, 65.840
794.332, 14.576
795.616, 103.743
796.900, 14.476
798.183, 53.077
799.467, 14.187
800.750, 7.954
802.033, 54.013
803.316, 56.433
804.598, 230.106
805.880, 60.628
807.163, 189.233
808.445, 171.021
809.726, 121.438
811.008, 196.702
812.289, 211.773
813.570, 176.634
814.851, 248.325
816.132, 225.921
817.413, 301.389
818.693, 318.800
819.973, 415.154
821.253, 412.455
822.533, 368.701
823.813, 404.893
825.092, 473.027
826.371, 439.107
827.650, 384.877
828.929, 478.573
830.208, 536.302
831.486, 559.971
832.764, 447.788
834.042, 508.523
835.320, 588.251
836.598, 582.930
837.875, 741.557
839.152, 765.136
840.429, 775.662
841.706, 994.143
842.983, 895.576
844.259, 1069.965
845.536, 1484.310
846.812, 1567.607
848.088, 1875.854
849.363, 2441.055
850.639, 3232.206
851.914, 4217.310
853.189, 5271.370
854.464, 6078.381
855.739, 6671.343
857.013, 6392.265
858.288, 5427.140
859.562, 4560.975
860.836, 3714.761
862.110, 3201.503
863.383, 2428.198
864.656, 2341.852
865.930, 1989.461
867.203, 1741.026
868.475, 1471.547
869.748, 1406.021
871.020, 1129.450
872.292, 1145.833
873.564, 1216.170
874.836, 1040.461
876.108, 1007.709
877.379, 941.908
878.650, 1082.064
879.922, 1023.028
881.192, 940.957
882.463, 888.609
883.733, 843.030
885.004, 931.403
886.274, 758.448
887.544, 754.448
888.813, 896.139
890.083, 750.931
891.352, 783.769
892.621, 744.388
893.890, 799.082
895.159, 744.514
896.427, 758.685
897.695, 612.210
898.964, 730.527
900.232, 654.407
901.499, 571.613
902.767, 627.450
904.034, 667.812
905.301, 646.281
906.568, 610.533
907.835, 636.286
909.102, 571.411
910.368, 651.650
911.634, 416.152
912.900, 547.729
914.166, 382.838
915.432, 563.635
916.697, 432.952
917.962, 272.057
919.227, 439.440
920.492, 354.891
921.757, 393.827
923.021, 438.721
924.285, 373.182
925.550, 301.494
926.813, 334.092
928.077, 227.873
929.341, 180.254
930.604, 291.622
931.867, 315.909
933.130, 241.489
934.393, 209.518
935.655, 294.077
936.918, 186.291
938.180, 270.555
939.442, 85.514
940.703, 59.088
941.965, 125.075
943.226, 136.416
944.488, 32.491
945.749, 81.556
947.009, 199.526
948.270, 48.175
949.530, 61.416
950.791, 12.612
952.051, 132.382
953.311, 133.982
954.570, 30.705
955.830, 192.555
957.089, 275.150
958.348, 105.006
959.607, 107.136
960.866, 180.762
962.124, 201.810
963.383, 232.425
964.641, 268.072
965.899, 294.112
967.156, 302.806
968.414, 335.387
969.671, 326.290
970.928, 359.186
972.185, 351.297
973.442, 417.169
974.699, 476.682
975.955, 523.076
977.211, 699.593
978.468, 491.907
979.723, 706.819
980.979, 775.973
982.234, 682.978
983.490, 1185.758
984.745, 725.586
986.000, 1114.032
987.254, 1152.757
988.509, 1068.098
989.763, 1440.414
991.017, 1500.520
992.271, 1716.424
993.525, 1998.946
994.779, 2313.437
996.032, 2648.728
997.285, 3044.625
998.538, 3520.285
999.791, 4051.469
1001.044, 5197.002
1002.296, 5774.205
1003.548, 7334.522
1004.800, 9109.229
1006.052, 11577.498
1007.304, 15311.341
1008.555, 20298.650
1009.807, 27492.498
1011.058, 35700.504
1012.309, 43965.426
1013.559, 48286.070
1014.810, 45937.801
1016.060, 38929.816
1017.310, 30829.887
1018.560, 22784.551
1019.810, 16711.154
1021.060, 12812.631
1022.309, 9892.853
1023.558, 7599.430
1024.807, 6495.550
1026.056, 5270.109
1027.305, 4550.006
1028.553, 4131.855
1029.801, 4101.743
1031.049, 3661.840
1032.297, 3411.391
1033.545, 3384.092
1034.793, 3326.660
1036.040, 3367.708
1037.287, 3631.711
1038.534, 3912.195
1039.781, 4251.730
1041.027, 4832.232
1042.274, 5259.748
1043.520, 6415.072
1044.766, 7547.311
1046.012, 8477.633
1047.257, 9427.967
1048.503, 9457.815
1049.748, 9144.652
1050.993, 7721.246
1052.238, 6647.082
1053.483, 5217.517
1054.727, 4118.613
1055.971, 3370.035
1057.216, 2934.423
1058.459, 2328.446
1059.703, 1969.624
1060.947, 1715.420
1062.190, 1467.474
1063.433, 1383.331
1064.676, 1165.881
1065.919, 1062.311
1067.162, 742.814
1068.404, 902.993
1069.646, 684.934
1070.888, 669.485
1072.130, 757.274
1073.372, 533.043
1074.613, 496.731
1075.855, 665.324
1077.096, 359.991
1078.337, 288.995
1079.578, 511.424
1080.818, 452.053
1082.059, 418.402
1083.299, 227.150
1084.539, 299.053
1085.779, 350.889
1087.018, 228.051
1088.258, 295.604
1089.497, 266.182
1090.736, 254.273
1091.975, 251.141
1093.213, 64.117
1094.452, 5.492
1095.690, 297.803
1096.928, 71.807
1098.166, 252.852
1099.404, 104.535
1100.642, 235.256
1101.879, 116.125
1103.116, 193.115
1104.353, 155.096
1105.590, 142.896
1106.827, 51.430
1108.063, 201.248
1109.299, 54.494
1110.536, 138.434
1111.771, 193.383
1113.007, 129.051
1114.243, 49.234
1115.478, 100.166
1116.713, 103.479
1117.948, 94.266
1119.183, 108.168
1120.418, 140.881
1121.652, 191.201
1122.886, 227.717
1124.120, 284.104
1125.354, 333.902
1126.588, 100.641
1127.821, 136.348
1129.055, 19.115
1130.288, 195.973
1131.521, 244.234
1132.753, 208.336
1133.986, 81.104
1135.218, 7.117
1136.450, 329.609
1137.682, 91.947
1138.914, 375.264
1140.146, 13.959
1141.377, 33.611
1142.609, 34.523
1143.840, 30.848
1145.071, 156.012
1146.301, 202.787
1147.532, 67.188
1148.762, 214.492
1149.992, 43.912
1151.222, 7.984
1152.452, 165.637
1153.682, 260.242
1154.911, 45.711
1156.140, 230.832
1157.369, 20.141
1158.598, 49.170
1159.827, 61.186
1161.055, 118.426
1162.284, 20.244
1163.512, 10.566
1164.740, 1.133
1165.967, 64.354
1167.195, 67.816
1168.422, 86.611
1169.650, 143.855
1170.877, 52.287
1172.103, 148.271
1173.330, 33.021
1174.557, 179.037
1175.783, 177.029
1177.009, 152.980
1178.235, 33.145
1179.461, 221.395
1180.686, 172.146
1181.912, 34.455
1183.137, 236.408
1184.362, 297.465
1185.587, 168.158
1186.811, 141.221
1188.036, 133.518
1189.260, 114.717
1190.484, 145.135
1191.708, 150.131
1192.932, 114.168
1194.155, 96.031
1195.378, 17.627
1196.602, 183.715
1197.825, 227.545
1199.047, 153.303
1200.270, 233.375
1201.492, 72.658
1202.715, 204.525
1203.937, 46.062
1205.159, 323.555
1206.380, 166.758
1207.602, 300.324
1208.823, 58.697
1210.044, 58.947
1211.265, 293.494
1212.486, 100.756
1213.707, 86.754
1214.927, 54.170
1216.147, 179.252
1217.367, 44.379
1218.587, 184.033
1219.807, 173.377
1221.027, 170.098
1222.246, 116.066
1223.465, 7.609
1224.684, 162.629
1225.903, 233.514
1227.121, 82.221
1228.340, 38.924
1229.558, 177.256
1230.776, 109.859
1231.994, 172.750
1233.212, 53.807
1234.429, 185.975
1235.646, 53.865
1236.864, 10.650
1238.081, 156.346
1239.297, 131.096
1240.514, 138.455
1241.730, 182.256
1242.947, 126.068
1244.163, 160.846
1245.378, 72.213
1246.594, 154.766
1247.810, 218.152
1249.025, 167.893
1250.240, 279.791
1251.455, 67.346
1252.670, 1.506
1253.885, 30.115
1255.099, 191.545
1256.313, 2.650
1257.527, 140.793
1258.741, 373.973
1259.955, 19.977
1261.168, 119.621
1262.382, 18.043
1263.595, 121.363
1264.808, 93.578
1266.021, 95.900
1267.233, 38.428
1268.446, 29.932
1269.658, 105.965
1270.870, 112.189
1272.082, 154.068
1273.294, 44.279
1274.505, 146.562
1275.716, 4.576
1276.928, 18.135
1278.139, 79.102
1279.349, 177.023
1280.560, 43.719
1281.770, 67.084
1282.981, 5.150
1284.191, 22.959
1285.401, 21.822
1286.610, 20.850
1287.820, 23.111
1289.029, 175.559
1290.239, 128.162
1291.448, 120.568
1292.656, 147.715
1293.865, 51.252
1295.073, 108.172
1296.282, 48.150
1297.490, 138.248
1298.698, 55.699
1299.906, 83.811
1301.113, 114.252
1302.320, 27.232
1303.528, 101.516
1304.735, 44.770
1305.942, 79.809
1307.148, 61.844
1308.355, 199.861
1309.561, 91.922
1310.767, 255.541
1311.973, 138.252
1313.179, 61.748
1314.384, 25.539
1315.590, 0.629
1316.795, 150.244
1318.000, 156.967
1319.205, 16.932
1320.410, 207.260
1321.614, 187.469
1322.819, 86.838
1324.023, 417.721
1325.227, 142.172
1326.431, 384.176
1327.634, 192.273
1328.838, 64.070
1330.041, 179.877
1331.244, 263.412
1332.447, 401.080
1333.650, 378.512
1334.852, 279.559
1336.055, 334.543
1337.257, 278.320
1338.459, 272.734
1339.661, 125.822
1340.862, 364.143
1342.064, 170.123
1343.265, 349.062
1344.466, 226.475
1345.667, 368.006
1346.868, 190.480
1348.068, 480.469
1349.269, 373.039
1350.469, 84.852
1351.669, 526.717
1352.869, 385.150
1354.069, 424.432
1355.268, 702.760
1356.468, 202.795
1357.667, 466.400
1358.866, 568.441
1360.065, 368.566
1361.263, 560.148
1362.462, 385.967
1363.660, 421.230
1364.858, 530.592
1366.056, 430.637
1367.254, 490.459
1368.451, 537.252
1369.649, 456.857
1370.846, 329.486
1372.043, 492.799
1373.240, 370.135
1374.436, 517.783
1375.633, 476.523
1376.829, 413.480
1378.025, 455.770
1379.221, 297.395
1380.417, 484.615
1381.613, 444.396
1382.808, 378.297
1384.003, 453.258
1385.199, 457.023
1386.393, 471.564
1387.588, 459.975
1388.783, 376.678
1389.977, 397.703
1391.171, 257.316
1392.365, 207.344
1393.559, 257.764
1394.753, 457.834
1395.946, 244.902
1397.140, 374.836
1398.333, 329.779
1399.526, 193.697
1400.719, 129.240
1401.911, 93.051
1403.104, 339.531
1404.296, 98.303
1405.488, 116.258
1406.680, 254.889
1407.872, 64.885
1409.063, 132.506
1410.255, 300.961
1411.446, 86.387
1412.637, 149.102
1413.828, 44.867
1415.018, 313.350
1416.209, 276.256
1417.399, 234.678
1418.589, 25.799
1419.779, 352.039
1420.969, 85.402
1422.159, 340.100
1423.348, 67.506
1424.537, 207.350
1425.726, 306.979
1426.915, 92.654
1428.104, 199.869
1429.293, 240.562
1430.481, 270.113
1431.669, 101.805
1432.857, 205.633
1434.045, 183.590
1435.233, 163.406
1436.420, 530.074
1437.608, 388.500
1438.795, 499.242
1439.982, 435.355
1441.169, 456.098
1442.355, 490.109
1443.542, 280.785
1444.728, 535.051
1445.914, 304.316
1447.100, 450.684
1448.286, 368.066
1449.472, 525.141
1450.657, 209.953
1451.842, 629.773
1453.027, 386.582
1454.212, 482.746
1455.397, 653.551
1456.581, 135.609
1457.766, 405.293
1458.950, 496.617
1460.134, 229.965
1461.318, 648.273
1462.501, 241.188
1463.685, 174.395
1464.868, 436.703
1466.051, 113.785
1467.234, 696.270
1468.417, 269.027
1469.600, 335.152
1470.782, 473.359
1471.965, 433.531
1473.147, 40.844
1474.329, 534.711
1475.510, 248.242
1476.692, 152.336
1477.873, 274.477
1479.055, 346.516
1480.236, 134.695
1481.416, 612.070
1482.597, 9.453
1483.778, 355.070
1484.958, 329.543
1486.138, 358.234
1487.318, 490.777
1488.498, 273.422
1489.678, 84.922
1490.857, 0.848
1492.037, 211.422
1493.216, 0.000
##END=



