##NAMES=Diopside
##RRUFFID=R060171
##IDEAL CHEMISTRY=CaMgSi_2_O_6_
##LOCALITY=Jeffrey mine, Asbestos, Quebec, Canada
##OWNER=RRUFF
##SOURCE=Guy Ouellet
##DESCRIPTION=Yellowish-brown tabular crystals associated with vesuvianite, R060170
##STATUS=The identification of this mineral has been confirmed by X-ray diffraction and chemical analysis
##URL=rruff.info/R060171
##MEASURED CHEMISTRY=Ca_1.00_(Mg_0.98_Mn_0.02_)_Î£=1_Si_2.00_O_6_
##PIN_ID=L00876
##ORIENTATION=Laser parallel to -b* (0 -1 0). Fiducial mark perpendicular to laser is parallel to -c [0 0 -1]
95.94800, 0.0000000E+00
97.18200, 2.417725
98.41600, 21.19922
99.64900, 59.68042
100.8830, 29.51538
102.1160, 97.53296
103.3490, 92.91113
104.5820, 70.70728
105.8150, 141.2651
107.0470, 167.8984
108.2800, 197.7869
109.5120, 295.2656
110.7440, 268.0818
111.9760, 338.1389
113.2080, 360.2925
114.4400, 282.4229
115.6710, 269.4272
116.9030, 237.2163
118.1340, 179.7109
119.3650, 209.8457
120.5960, 175.5649
121.8270, 90.82031
123.0580, 192.5693
124.2880, 136.7861
125.5190, 85.43701
126.7490, 118.4873
127.9790, 237.9111
129.2090, 447.6860
130.4390, 460.7905
131.6680, 656.2061
132.8980, 600.9136
134.1270, 678.8887
135.3560, 957.1055
136.5850, 1017.545
137.8140, 992.1914
139.0430, 978.0337
140.2710, 1084.065
141.5000, 1102.280
142.7280, 1174.673
143.9560, 1037.236
145.1840, 845.9600
146.4120, 528.8418
147.6390, 424.8770
148.8670, 305.0640
150.0940, 155.3994
151.3210, 170.8789
152.5490, 163.8105
153.7750, 121.5625
155.0020, 184.4473
156.2290, 151.1514
157.4550, 164.5967
158.6810, 127.8511
159.9080, 124.2183
161.1340, 83.69434
162.3590, 102.7334
163.5850, 128.9551
164.8110, 142.7324
166.0360, 125.6016
167.2610, 145.5610
168.4860, 129.6064
169.7110, 310.7051
170.9360, 442.7734
172.1610, 438.8335
173.3850, 512.8989
174.6100, 551.9795
175.8340, 648.0820
177.0580, 967.2124
178.2820, 942.3745
179.5050, 959.5728
180.7290, 965.8159
181.9520, 1305.125
183.1760, 1561.588
184.3990, 1444.100
185.6220, 991.6616
186.8450, 573.2788
188.0670, 340.9507
189.2900, 129.9141
190.5120, 151.6646
191.7340, 112.4727
192.9560, 93.38916
194.1780, 76.35596
195.4000, 139.3848
196.6220, 17.51416
197.8430, 97.73877
199.0640, 117.9995
200.2860, 88.36035
201.5070, 95.80273
202.7270, 110.2959
203.9480, 83.84863
205.1690, 35.47266
206.3890, 90.18506
207.6090, 18.05957
208.8290, 35.74170
210.0490, 25.59961
211.2690, 75.50537
212.4890, 33.46240
213.7080, 38.45312
214.9280, 42.90869
216.1470, 119.5195
217.3660, 81.58936
218.5850, 119.6904
219.8030, 237.8145
221.0220, 313.5073
222.2400, 401.1279
223.4590, 606.3174
224.6770, 809.5283
225.8950, 1008.758
227.1120, 1188.428
228.3300, 1356.130
229.5480, 1507.571
230.7650, 1657.882
231.9820, 1751.211
233.1990, 1878.559
234.4160, 2179.926
235.6330, 2483.311
236.8490, 2292.714
238.0660, 1781.133
239.2820, 1239.570
240.4980, 846.0234
241.7140, 783.4937
242.9300, 733.7295
244.1460, 910.0757
245.3610, 1138.853
246.5770, 1367.864
247.7920, 1599.666
249.0070, 1845.517
250.2220, 2076.982
251.4370, 2316.646
252.6510, 2507.429
253.8660, 2680.323
255.0800, 2868.318
256.2940, 3140.407
257.5080, 3061.582
258.7220, 2498.839
259.9360, 1805.171
261.1490, 1135.575
262.3630, 609.0464
263.5760, 435.5820
264.7890, 321.9292
266.0020, 312.5825
267.2150, 176.8672
268.4270, 139.3433
269.6400, 7.505859
270.8520, 148.3628
272.0640, 85.26562
273.2760, 129.2114
274.4880, 1.749512
275.7000, 28.77734
276.9120, 29.79541
278.1230, 27.89893
279.3340, 129.0381
280.5450, 41.21240
281.7560, 18.58057
282.9670, 48.65869
284.1780, 160.9292
285.3880, 21.47607
286.5980, 97.38965
287.8090, 141.1270
289.0190, 22.15186
290.2290, 17.56689
291.4380, 211.0068
292.6480, 146.0928
293.8570, 173.6870
295.0670, 189.8130
296.2760, 277.4473
297.4850, 433.6143
298.6930, 293.2104
299.9020, 412.8267
301.1110, 482.4629
302.3190, 722.5815
303.5270, 808.9136
304.7350, 984.6074
305.9430, 1169.680
307.1510, 1417.409
308.3580, 1694.695
309.5660, 2092.283
310.7730, 2571.366
311.9800, 3523.556
313.1870, 4358.907
314.3940, 5549.729
315.6010, 6427.071
316.8070, 7404.922
318.0130, 8471.787
319.2200, 9759.251
320.4260, 10689.15
321.6310, 11677.71
322.8370, 12326.63
324.0430, 13331.57
325.2480, 13399.49
326.4540, 12386.45
327.6590, 10267.19
328.8640, 7875.546
330.0680, 5824.544
331.2730, 4197.813
332.4780, 3113.128
333.6820, 2415.159
334.8860, 1793.199
336.0900, 1588.250
337.2940, 1234.312
338.4980, 1142.153
339.7010, 1009.234
340.9050, 855.3237
342.1080, 745.4229
343.3110, 803.5293
344.5140, 818.6445
345.7170, 727.7671
346.9200, 591.8975
348.1220, 741.0347
349.3240, 618.1787
350.5270, 799.3301
351.7290, 760.4873
352.9310, 754.5293
354.1320, 845.6987
355.3340, 838.8735
356.5350, 879.0532
357.7370, 923.2388
358.9380, 917.4282
360.1390, 868.1851
361.3400, 835.8223
362.5400, 684.0269
363.7410, 589.2349
364.9410, 436.4478
366.1410, 277.6646
367.3410, 276.8857
368.5410, 208.1099
369.7410, 216.3394
370.9400, 184.5718
372.1400, 155.8076
373.3390, 161.0474
374.5380, 77.29102
375.7370, 10.53809
376.9360, 77.78857
378.1350, 167.0425
379.3330, 195.2988
380.5310, 250.8301
381.7300, 290.1377
382.9280, 271.0874
384.1260, 343.3564
385.3230, 245.6279
386.5210, 244.9019
387.7180, 363.1943
388.9160, 423.5039
390.1130, 312.8286
391.3100, 423.1680
392.5060, 351.5200
393.7030, 423.8848
394.9000, 235.2612
396.0960, 125.6484
397.2920, 125.0474
398.4880, 107.4561
399.6840, 56.87451
400.8800, 9.302734
402.0750, 50.73926
403.2710, 30.18457
404.4660, 52.63818
405.6610, 97.10010
406.8560, 54.60938
408.0510, 12.91406
409.2450, 40.56152
410.4400, 46.95605
411.6340, 102.4897
412.8280, 23.06641
414.0220, 27.34961
415.2160, 18.77197
416.4100, 41.19971
417.6030, 5.367676
418.7970, 16.97412
419.9900, 31.50146
421.1830, 37.92285
422.3760, 88.35107
423.5690, 116.7842
424.7610, 119.5659
425.9540, 97.50244
427.1460, 82.94824
428.3380, 4.397949
429.5300, 21.15283
430.7220, 53.71387
431.9140, 21.30127
433.1050, 22.09961
434.2970, 36.50293
435.4880, 1.069336
436.6790, 28.00635
437.8700, 36.96143
439.0610, 27.11475
440.2510, 53.90430
441.4420, 21.81836
442.6320, 66.13965
443.8220, 84.46338
445.0120, 31.21094
446.2020, 85.90576
447.3910, 135.3530
448.5810, 28.38721
449.7700, 50.85303
450.9600, 6.094727
452.1490, 17.66846
453.3370, 12.55371
454.5260, 9.227051
455.7150, 47.01953
456.9030, 19.84229
458.0910, 28.68164
459.2800, 112.4570
460.4670, 112.5967
461.6550, 11.26318
462.8430, 100.8633
464.0300, 30.00977
465.2180, 96.09424
466.4050, 133.1987
467.5920, 51.69678
468.7790, 147.3740
469.9650, 5.444824
471.1520, 15.50781
472.3380, 133.5674
473.5250, 19.62695
474.7110, 18.68457
475.8970, 75.73779
477.0820, 79.79150
478.2680, 74.84521
479.4540, 136.8999
480.6390, 6.953613
481.8240, 114.9995
483.0090, 94.04590
484.1940, 160.0913
485.3780, 119.1421
486.5630, 203.1929
487.7470, 198.2476
488.9320, 239.3228
490.1160, 228.3975
491.3000, 332.4717
492.4830, 409.5498
493.6670, 530.6289
494.8500, 509.7080
496.0340, 845.7930
497.2170, 1129.876
498.4000, 1654.961
499.5820, 2182.043
500.7650, 2559.125
501.9480, 3129.206
503.1300, 3698.287
504.3120, 4328.367
505.4940, 4618.447
506.6760, 5083.524
507.8580, 5516.602
509.0390, 5599.680
510.2210, 5058.757
511.4020, 4039.833
512.5830, 2906.911
513.7640, 1851.000
514.9450, 1313.092
516.1250, 998.1841
517.3060, 758.2749
518.4860, 636.3652
519.6660, 538.4561
520.8460, 463.5459
522.0260, 413.6338
523.2060, 350.7314
524.3850, 424.8286
525.5650, 554.9326
526.7440, 431.0361
527.9230, 468.1396
529.1020, 375.2437
530.2810, 432.3477
531.4590, 503.4512
532.6380, 300.5532
533.8160, 383.6558
534.9940, 313.7578
536.1720, 298.8696
537.3500, 203.9937
538.5270, 202.1313
539.7050, 98.29443
540.8820, 154.4580
542.0590, 140.6211
543.2360, 153.7827
544.4130, 123.9424
545.5900, 66.10107
546.7660, 180.2578
547.9430, 44.42676
549.1190, 145.5928
550.2950, 125.0068
551.4710, 117.1709
552.6470, 158.7573
553.8220, 150.2021
554.9980, 113.0068
556.1730, 88.16602
557.3480, 104.3252
558.5230, 107.4824
559.6980, 82.08740
560.8730, 45.24072
562.0470, 42.45117
563.2220, 78.61621
564.3960, 102.7798
565.5700, 40.94092
566.7440, 172.1011
567.9170, 194.2603
569.0910, 63.41943
570.2640, 87.33057
571.4380, 98.90234
572.6110, 166.6772
573.7840, 96.18896
574.9570, 43.33691
576.1290, 30.48193
577.3020, 3.004883
578.4740, 114.0400
579.6460, 37.56348
580.8180, 92.60010
581.9900, 31.87598
583.1620, 91.22754
584.3330, 40.32959
585.5040, 98.43018
586.6760, 132.0664
587.8470, 34.50537
589.0180, 137.6006
590.1880, 200.3330
591.3590, 103.4268
592.5290, 35.97754
593.7000, 125.2422
594.8700, 84.02734
596.0400, 142.7192
597.2090, 114.2749
598.3790, 21.36963
599.5490, 135.9629
600.7180, 109.0566
601.8870, 128.1509
603.0560, 223.6641
604.2250, 147.7607
605.3940, 110.1982
606.5620, 214.2930
607.7300, 69.38867
608.8990, 107.5107
610.0670, 170.6055
611.2350, 223.9351
612.4020, 170.6602
613.5700, 237.7563
614.7370, 188.5923
615.9050, 126.3916
617.0720, 212.4854
618.2390, 245.6421
619.4060, 337.8135
620.5720, 389.9048
621.7390, 473.2251
622.9050, 476.3159
624.0710, 526.1465
625.2370, 570.6587
626.4030, 592.8101
627.5690, 624.7363
628.7340, 690.7441
629.9000, 726.8779
631.0650, 799.3252
632.2300, 814.0586
633.3950, 918.4766
634.5600, 1069.717
635.7240, 1068.942
636.8890, 1132.055
638.0530, 1183.166
639.2170, 1377.280
640.3810, 1596.394
641.5450, 1835.506
642.7080, 1997.619
643.8720, 2301.798
645.0350, 2557.968
646.1980, 2772.073
647.3610, 3304.178
648.5240, 3910.305
649.6870, 4513.430
650.8490, 5292.687
652.0120, 6376.243
653.1740, 8050.436
654.3360, 9908.078
655.4980, 12158.58
656.6600, 15198.70
657.8210, 18381.88
658.9830, 21977.21
660.1440, 25984.32
661.3050, 29508.44
662.4660, 32690.83
663.6270, 36015.09
664.7870, 37586.86
665.9480, 38622.21
667.1080, 37623.50
668.2680, 35073.10
669.4280, 30653.35
670.5880, 25819.65
671.7480, 20552.74
672.9070, 16434.33
674.0670, 13080.61
675.2260, 10172.51
676.3850, 8241.518
677.5440, 6808.322
678.7030, 5605.557
679.8610, 4836.293
681.0200, 4059.590
682.1780, 3401.820
683.3360, 2938.869
684.4940, 2607.287
685.6520, 2211.326
686.8090, 2023.658
687.9670, 1826.859
689.1240, 1653.021
690.2810, 1495.035
691.4380, 1303.699
692.5950, 1198.852
693.7520, 1057.893
694.9080, 905.5005
696.0650, 854.0220
697.2210, 694.1274
698.3770, 814.1519
699.5330, 678.2188
700.6880, 646.7510
701.8440, 508.9766
702.9990, 542.0645
704.1550, 393.0708
705.3100, 509.4370
706.4650, 466.6724
707.6190, 415.9395
708.7740, 481.1499
709.9290, 315.1265
711.0830, 246.1040
712.2370, 234.0903
713.3910, 205.0776
714.5450, 262.0581
715.6980, 198.0112
716.8520, 254.3223
718.0050, 154.2959
719.1580, 256.2749
720.3110, 199.2568
721.4640, 161.8452
722.6170, 144.8296
723.7700, 163.8076
724.9220, 209.7788
726.0740, 63.75439
727.2260, 226.7476
728.3780, 275.7344
729.5300, 207.9561
730.6810, 64.94043
731.8330, 149.9204
732.9840, 168.1162
734.1350, 172.0928
735.2860, 200.0015
736.4370, 185.0049
737.5880, 189.4170
738.7380, 124.4077
739.8880, 95.75342
741.0390, 99.41602
742.1890, 120.6040
743.3380, 123.6465
744.4880, 109.6196
745.6380, 165.7871
746.7870, 121.1543
747.9360, 112.9976
749.0850, 113.5098
750.2340, 48.73975
751.3830, 144.8296
752.5310, 76.80273
753.6800, 111.7681
754.8280, 63.69824
755.9760, 28.61914
757.1240, 25.53223
758.2720, 49.43652
759.4190, 97.44434
760.5670, 74.44336
761.7140, 114.4414
762.8610, 13.22754
764.0080, 39.45215
765.1550, 6.627441
766.3020, 71.56250
767.4480, 45.21729
768.5950, 54.41455
769.7410, 8.817383
770.8870, 5.926758
772.0330, 30.37354
773.1780, 8.686523
774.3240, 121.1514
775.4690, 96.05615
776.6140, 149.7812
777.7590, 83.77002
778.9040, 135.8174
780.0490, 89.63574
781.1940, 49.49902
782.3380, 52.21143
783.4820, 80.89307
784.6260, 91.51270
785.7700, 86.21533
786.9140, 103.7041
788.0580, 47.76123
789.2010, 13.34131
790.3450, 35.09229
791.4880, 8.784180
792.6310, 17.30029
793.7730, 116.9722
794.9160, 67.46533
796.0590, 34.14014
797.2010, 120.6797
798.3430, 83.16797
799.4850, 22.15576
800.6270, 46.26465
801.7690, 12.32568
802.9100, 31.35791
804.0520, 38.72949
805.1930, 11.36328
806.3340, 49.86035
807.4750, 36.95361
808.6160, 118.1372
809.7560, 11.76904
810.8970, 41.35059
812.0370, 30.36377
813.1770, 32.08301
814.3170, 44.78857
815.4570, 83.61719
816.5960, 4.546387
817.7360, 36.68359
818.8750, 48.76270
820.0140, 102.8301
821.1530, 21.88623
822.2920, 100.9292
823.4310, 38.03809
824.5690, 41.95508
825.7070, 59.93652
826.8460, 16.90625
827.9840, 45.86182
829.1220, 62.80469
830.2590, 155.7363
831.3970, 8.657715
832.5340, 13.56299
833.6710, 77.45361
834.8080, 149.3335
835.9450, 85.20264
837.0820, 25.93945
838.2190, 5.110840
839.3550, 78.69482
840.4910, 133.4897
841.6270, 24.27393
842.7630, 40.04590
843.8990, 34.80420
845.0350, 43.55078
846.1700, 141.2847
847.3060, 173.0078
848.4410, 159.7212
849.5760, 139.4238
850.7100, 202.1162
851.8450, 275.7979
852.9800, 259.4683
854.1140, 348.1313
855.2480, 310.7832
856.3820, 275.4248
857.5160, 266.0552
858.6500, 248.6855
859.7830, 159.3042
860.9170, 105.9131
862.0500, 159.5098
863.1830, 120.1143
864.3160, 129.7080
865.4480, 47.28955
866.5810, 148.8594
867.7130, 146.4180
868.8460, 51.96436
869.9780, 113.4990
871.1100, 24.97900
872.2410, 130.5117
873.3730, 151.9917
874.5050, 145.4604
875.6360, 26.91846
876.7670, 1.637695
877.8980, 136.7871
879.0290, 87.20020
880.1590, 118.6016
881.2900, 56.99023
882.4200, 91.36572
883.5500, 51.72949
884.6800, 8.081543
885.8100, 40.41846
886.9400, 72.74072
888.0690, 99.05029
889.1990, 99.34717
890.3280, 119.6343
891.4570, 173.9087
892.5860, 131.8892
893.7140, 140.7485
894.8430, 80.55957
895.9710, 81.80566
897.1000, 80.04053
898.2280, 16.26318
899.3560, 33.69189
900.4830, 89.42920
901.6110, 50.76367
902.7380, 145.0034
903.8660, 14.10596
904.9930, 101.2334
906.1200, 110.3682
907.2460, 66.84619
908.3730, 50.08447
909.5000, 69.01660
910.6260, 51.05273
911.7520, 8.922852
912.8780, 26.57031
914.0040, 17.78809
915.1290, 63.06152
916.2550, 50.02930
917.3800, 83.94385
918.5050, 88.85498
919.6300, 171.8369
920.7550, 88.19189
921.8800, 175.7549
923.0040, 32.30859
924.1290, 135.4785
925.2530, 140.9531
926.3770, 18.77783
927.5010, 101.1401
928.6250, 58.63135
929.7480, 121.4858
930.8720, 53.27588
931.9950, 82.89648
933.1180, 92.72852
934.2410, 45.55029
935.3640, 124.0791
936.4860, 139.7227
937.6090, 24.84326
938.7310, 108.3682
939.8530, 30.94092
940.9750, 60.19873
942.0970, 23.80176
943.2180, 20.32617
944.3400, 20.05469
945.4610, 28.26953
946.5820, 111.7783
947.7030, 86.64941
948.8240, 72.40039
949.9450, 132.3447
951.0650, 69.84180
952.1860, 71.82715
953.3060, 146.2363
954.4260, 96.70312
955.5460, 104.3418
956.6650, 146.5967
957.7850, 134.2188
958.9040, 171.5312
960.0230, 192.1299
961.1420, 175.3857
962.2610, 252.5371
963.3800, 245.9199
964.4990, 291.5303
965.6170, 178.9287
966.7350, 308.9287
967.8530, 210.9990
968.9710, 228.6191
970.0890, 238.1699
971.2070, 344.6660
972.3240, 301.2324
973.4410, 428.6113
974.5580, 431.0547
975.6750, 415.5664
976.7920, 513.0586
977.9090, 496.3115
979.0250, 442.6475
980.1410, 638.9600
981.2580, 665.4268
982.3740, 621.9766
983.4890, 709.6865
984.6050, 719.1338
985.7200, 826.5732
986.8360, 797.0039
987.9510, 999.4268
989.0660, 1181.839
990.1810, 1250.242
991.2950, 1286.801
992.4100, 1588.187
993.5240, 1693.627
994.6390, 1907.996
995.7530, 2227.354
996.8660, 2784.114
997.9800, 3291.455
999.0940, 3818.788
1000.207, 4799.139
1001.320, 6141.482
1002.433, 7755.787
1003.546, 10209.87
1004.659, 13690.24
1005.772, 18520.32
1006.884, 24274.79
1007.996, 30238.16
1009.108, 36555.67
1010.220, 42185.70
1011.332, 46517.36
1012.444, 49344.60
1013.555, 48825.75
1014.666, 44866.95
1015.777, 37727.99
1016.888, 29240.11
1017.999, 21552.74
1019.110, 15954.38
1020.220, 11648.38
1021.331, 8756.389
1022.441, 6879.500
1023.551, 5497.078
1024.661, 4483.199
1025.770, 3761.313
1026.880, 3087.079
1027.989, 2888.175
1029.098, 2511.151
1030.207, 2257.527
1031.316, 1972.678
1032.425, 1976.281
1033.533, 1751.512
1034.642, 1638.017
1035.750, 1674.924
1036.858, 1517.412
1037.966, 1465.314
1039.073, 1408.784
1040.181, 1459.037
1041.288, 1625.557
1042.396, 1615.524
1043.503, 1813.575
1044.610, 1936.655
1045.716, 2001.882
1046.823, 2154.550
1047.929, 2041.206
1049.036, 1992.007
1050.142, 1814.685
1051.248, 1495.554
1052.353, 1364.478
1053.459, 1148.672
1054.564, 890.4307
1055.670, 756.6582
1056.775, 604.4443
1057.880, 591.6855
1058.985, 492.0742
1060.089, 469.7217
1061.194, 441.7334
1062.298, 449.6992
1063.402, 488.9033
1064.506, 342.8896
1065.610, 257.8662
1066.713, 304.9648
1067.817, 316.7549
1068.920, 369.7490
1070.023, 182.8379
1071.126, 295.7285
1072.229, 354.5674
1073.332, 152.4648
1074.435, 230.7080
1075.537, 299.2285
1076.639, 154.7910
1077.741, 168.4111
1078.843, 232.8770
1079.945, 221.8877
1081.046, 210.9443
1082.148, 121.0117
1083.249, 110.8916
1084.350, 131.9990
1085.451, 228.0879
1086.551, 203.1982
1087.652, 264.8174
1088.752, 204.5459
1089.853, 153.7002
1090.953, 122.4795
1092.053, 116.3203
1093.152, 152.3369
1094.252, 289.3145
1095.351, 116.2930
1096.451, 222.9932
1097.550, 143.0166
1098.649, 116.7393
1099.748, 141.6094
1100.846, 70.36523
1101.945, 117.5195
1103.043, 135.5293
1104.141, 0.8691410
1105.239, 94.61621
1106.337, 136.3213
1107.434, 151.2881
1108.532, 23.85547
1109.629, 125.4111
1110.726, 77.95605
1111.823, 93.49023
1112.920, 201.1396
1114.017, 87.91504
1115.113, 49.51953
1116.210, 191.4395
1117.306, 203.2441
1118.402, 134.9053
1119.498, 152.4160
1120.593, 224.8564
1121.689, 325.3633
1122.784, 72.78125
1123.879, 193.1846
1124.974, 96.57812
1126.069, 170.2422
1127.164, 162.6113
1128.259, 61.94336
1129.353, 115.3652
1130.447, 183.9473
1131.541, 51.23242
1132.635, 105.7715
1133.729, 135.0312
1134.822, 137.2871
1135.916, 93.52344
1137.009, 69.74902
1138.102, 66.10938
1139.195, 85.59668
1140.288, 55.44336
1141.380, 76.82520
1142.473, 34.29785
1143.565, 108.4590
1144.657, 139.7314
1145.749, 177.8691
1146.841, 104.9961
1147.932, 152.1104
1149.024, 0.7851560
1150.115, 107.3018
1151.206, 88.81445
1152.297, 188.8799
1153.388, 204.9336
1154.479, 9.976563
1155.569, 154.0029
1156.659, 163.0176
1157.750, 63.97949
1158.839, 116.9717
1159.929, 142.2646
1161.019, 19.19336
1162.108, 69.10547
1163.198, 178.0059
1164.287, 151.8955
1165.376, 3.787109
1166.465, 92.66113
1167.553, 15.52344
1168.642, 9.628906
1169.730, 15.19531
1170.818, 63.00586
1171.906, 65.80273
1172.994, 75.60352
1174.082, 7.606445
1175.170, 47.16016
1176.257, 9.083984
1177.344, 136.7617
1178.431, 101.4863
1179.518, 172.1992
1180.605, 99.09668
1181.691, 117.5352
1182.778, 68.81445
1183.864, 52.75293
1184.950, 127.3633
1186.036, 46.12793
1187.122, 8.395508
1188.207, 38.06641
1189.292, 11.51465
1190.378, 95.94629
1191.463, 89.36621
1192.548, 57.77344
1193.632, 39.16699
1194.717, 42.46680
1195.801, 22.08887
1196.886, 50.24512
1197.970, 74.56348
1199.054, 78.87207
1200.137, 54.16699
1201.221, 29.44824
1202.305, 110.7139
1203.388, 28.96777
1204.471, 28.79199
1205.554, 107.4160
1206.637, 91.61426
1207.719, 74.80566
1208.802, 136.9863
1209.884, 53.17285
1210.966, 35.35840
1212.048, 21.53223
1213.130, 86.69238
1214.212, 22.83984
1215.293, 27.97070
1216.374, 3.914063
1217.456, 6.819336
1218.536, 118.2520
1219.617, 17.31152
1220.698, 100.3545
1221.778, 5.613281
1222.859, 42.39551
1223.939, 48.38965
1225.019, 46.37012
1226.099, 110.3359
1227.178, 30.28906
1228.258, 20.77246
1229.337, 62.13672
1230.417, 87.03125
1231.496, 28.23242
1232.574, 20.61523
1233.653, 115.4492
1234.732, 2.278320
1235.810, 87.46582
1236.888, 22.25391
1237.966, 137.0273
1239.044, 256.4346
1240.122, 119.1943
1241.199, 164.8232
1242.277, 83.49316
1243.354, 50.72754
1244.431, 6.163086
1245.508, 14.27148
1246.585, 33.94629
1247.661, 65.60645
1248.738, 98.25586
1249.814, 150.8936
1250.890, 93.51855
1251.966, 146.1328
1253.042, 295.5742
1254.117, 155.1660
1255.193, 43.68164
1256.268, 211.2510
1257.343, 89.80957
1258.418, 180.9463
1259.493, 38.48340
1260.567, 155.0068
1261.642, 42.26270
1262.716, 176.7334
1263.790, 104.2236
1264.864, 281.7051
1265.938, 118.0928
1267.011, 72.37012
1268.085, 38.62012
1269.158, 68.93848
1270.231, 198.1191
1271.304, 203.3789
1272.377, 182.5957
1273.450, 74.96582
1274.522, 306.3535
1275.594, 174.7256
1276.666, 186.0488
1277.738, 154.4014
1278.810, 130.0732
1279.882, 5.375000
1280.953, 189.5840
1282.025, 164.8945
1283.096, 117.1943
1284.167, 260.0107
1285.238, 227.2920
1286.308, 262.5635
1287.379, 113.1650
1288.449, 12.41992
1289.519, 154.6611
1290.589, 194.4883
1291.659, 272.5156
1292.729, 235.7305
1293.798, 190.9365
1294.868, 107.5996
1295.937, 192.6875
1297.006, 240.4297
1298.075, 182.6299
1299.143, 113.0605
1300.212, 140.9883
1301.280, 115.9199
1302.348, 145.8818
1303.416, 143.8320
1304.484, 128.6592
1305.552, 64.49121
1306.620, 241.5928
1307.687, 174.6211
1308.754, 252.7178
1309.821, 95.86621
1310.888, 76.94727
1311.955, 78.97852
1313.021, 55.22461
1314.088, 283.9941
1315.154, 232.7100
1316.220, 195.3828
1317.286, 249.0518
1318.352, 251.5576
1319.417, 98.45605
1320.483, 224.3184
1321.548, 207.0410
1322.613, 99.67773
1323.678, 316.3184
1324.743, 168.0781
1325.807, 322.7402
1326.872, 206.7969
1327.936, 289.5684
1329.000, 292.2314
1330.064, 228.7852
1331.128, 224.6748
1332.191, 118.3799
1333.255, 203.6855
1334.318, 218.9971
1335.381, 172.1426
1336.444, 252.8574
1337.507, 266.5498
1338.569, 223.3555
1339.632, 318.6553
1340.694, 195.1279
1341.756, 296.8691
1342.818, 320.3398
1343.880, 419.8281
1344.941, 213.6553
1346.003, 163.2979
1347.064, 224.1484
1348.125, 322.5605
1349.186, 277.3320
1350.247, 210.0400
1351.308, 319.5625
1352.368, 275.1064
1353.428, 187.6387
1354.489, 327.4365
1355.549, 109.8965
1356.608, 222.6426
1357.668, 305.2314
1358.727, 165.9316
1359.787, 247.2090
1360.846, 152.6162
1361.905, 212.4170
1362.964, 154.3271
1364.022, 176.0107
1365.081, 87.41992
1366.139, 203.2119
1367.197, 164.9365
1368.255, 57.72754
1369.313, 196.5391
1370.371, 140.1992
1371.428, 149.7217
1372.486, 213.4014
1373.543, 134.7510
1374.600, 277.2021
1375.657, 211.9385
1376.713, 171.6582
1377.770, 86.43555
1378.826, 160.1338
1379.882, 108.9082
1380.938, 149.6836
1381.994, 164.8076
1383.050, 161.2891
1384.106, 225.9209
1385.161, 161.6045
1386.216, 248.3965
1387.271, 201.9014
1388.326, 133.6924
1389.381, 223.2148
1390.435, 177.0059
1391.490, 217.8750
1392.544, 60.66016
1393.598, 87.06348
1394.652, 252.0010
1395.705, 63.42090
1396.759, 72.96777
1397.812, 98.66406
1398.866, 22.36133
1399.919, 134.0586
1400.972, 56.63379
1402.024, 180.3301
1403.077, 127.0254
1404.129, 221.7207
1405.181, 138.4150
1406.233, 57.11328
1407.285, 97.37500
1408.337, 76.07227
1409.389, 94.74316
1410.440, 107.3096
1411.491, 104.8105
1412.542, 137.8809
1413.593, 106.9336
1414.644, 137.6660
1415.695, 118.9961
1416.745, 144.6787
1417.795, 142.3584
1418.845, 85.03613
1419.895, 98.71191
1420.945, 127.3838
1421.995, 120.2705
1423.044, 69.94336
1424.093, 50.61914
1425.142, 113.3027
1426.191, 157.0527
1427.240, 251.7412
1428.289, 198.4307
1429.337, 194.1211
1430.385, 64.81641
1431.433, 173.5156
1432.481, 107.1006
1433.529, 131.8770
1434.577, 188.4131
1435.624, 196.2109
1436.672, 122.9434
1437.719, 117.6494
1438.766, 100.5713
1439.812, 98.00488
1440.859, 117.1045
1441.905, 131.6279
1442.952, 135.3828
1443.998, 164.9531
1445.044, 100.8418
1446.090, 120.2666
1447.135, 225.6035
1448.181, 67.78320
1449.226, 264.6768
1450.271, 196.5684
1451.316, 60.47266
1452.361, 2.622070
1453.405, 124.2861
1454.450, 171.2070
1455.494, 84.13086
1456.538, 145.0303
1457.582, 20.88574
1458.626, 103.7393
1459.670, 7.400391
1460.713, 24.10156
1461.757, 111.3633
1462.800, 62.74219
1463.843, 52.83887
1464.886, 13.92773
1465.928, 71.99805
1466.971, 104.9375
1468.013, 153.9082
1469.055, 217.8789
1470.097, 204.8799
1471.139, 294.8652
1472.181, 210.8291
1473.222, 161.8135
1474.263, 67.81543
1475.305, 66.11914
1476.346, 148.8467
1477.386, 70.86914
1478.427, 147.8965
1479.468, 169.9297
1480.508, 196.9678
1481.548, 256.0127
1482.588, 179.0664
1483.628, 64.12305
1484.668, 105.1855
1485.707, 101.2598
1486.747, 169.1318
1487.786, 143.2168
1488.825, 207.3135
1489.864, 222.4189
1490.902, 143.5361
1491.941, 26.33398
1492.979, 194.8057
1494.017, 65.95215
1495.055, 150.1084
1496.093, 181.2773
1497.131, 85.45898
1498.168, 343.6504
1499.206, 201.8076
1500.243, 38.02148
1501.280, 98.24805
1502.317, 279.4873
1503.354, 240.7422
1504.390, 330.9873
1505.426, 201.2236
1506.463, 174.4707
1507.499, 217.7822
1508.535, 32.10742
1509.570, 134.4502
1510.606, 161.8154
1511.641, 225.2188
1512.676, 169.6436
1513.711, 339.4678
1514.746, 207.9131
1515.781, 64.02344
1516.816, 152.5088
1517.850, 388.9561
1518.884, 316.4785
1519.918, 204.8516
1520.952, 261.9648
1521.986, 155.0811
1523.019, 195.1982
1524.053, 184.3184
1525.086, 198.4385
1526.119, 225.5576
1527.152, 189.6748
1528.185, 112.7920
1529.217, 137.8721
1530.250, 132.9834
1531.282, 124.0947
1532.314, 232.1982
1533.346, 283.2969
1534.377, 44.15039
1535.409, 245.0557
1536.440, 128.9375
1537.472, 10.26074
1538.503, 65.07129
1539.534, 94.84473
1540.564, 127.5791
1541.595, 174.4844
1542.625, 95.08691
1543.656, 170.6348
1544.686, 162.7432
1545.716, 32.24121
1546.745, 168.4023
1547.775, 261.5938
1548.804, 141.7793
1549.834, 66.95801
1550.863, 111.1279
1551.892, 211.2881
1552.920, 152.4365
1553.949, 195.1006
1554.977, 232.5820
1556.006, 175.0186
1557.034, 71.46777
1558.062, 25.94434
1559.089, 71.78320
1560.117, 150.6201
1561.144, 121.4072
1562.172, 61.52246
1563.199, 259.3965
1564.226, 114.4121
1565.252, 132.6465
1566.279, 35.32227
1567.305, 147.4824
1568.332, 7.391602
1569.358, 195.9844
1570.384, 38.15039
1571.409, 6.627930
1572.435, 0.0000000E+00
##END=



