##NAMES=Diopside
##RRUFFID=R060276
##IDEAL CHEMISTRY=CaMgSi_2_O_6_
##LOCALITY=Inagli, Yakutia, Siberia, Russia
##OWNER=RRUFF
##SOURCE=Herb Obodda
##DESCRIPTION=Transparent green cleavage fragment
##STATUS=The identification of this mineral has been confirmed by X-ray diffraction and chemical analysis
##URL=rruff.info/R060276
##MEASURED CHEMISTRY=(Ca_0.97_Na_0.03_)_Σ=1_(Mg_0.96_Fe_0.03_Cr_0.01_)_Σ=1_(Si_1.98_Al_0.02_)_Σ=2_O_6_
##PIN_ID=L01339
##ORIENTATION=Laser parallel to -b* (0 -1 0). Fiducial mark perpendicular to laser is parallel to c [0 0 1]
109.5120, 0.0000000E+00
110.7440, 114.8398
111.9760, 3.605469
113.2080, 1.749023
114.4400, 126.3164
115.6710, 206.8486
116.9030, 164.6533
118.1340, 225.8877
119.3650, 97.92871
120.5960, 111.3184
121.8270, 179.7100
123.0580, 352.8242
124.2880, 351.4336
125.5190, 348.3486
126.7490, 637.4131
127.9790, 800.4971
129.2090, 1092.485
130.4390, 1426.317
131.6680, 1747.936
132.8980, 2184.264
134.1270, 2597.230
135.3560, 3337.774
136.5850, 3747.852
137.8140, 4570.406
139.0430, 4543.399
140.2710, 4624.795
141.5000, 4201.564
142.7280, 3705.678
143.9560, 3319.113
145.1840, 2486.847
146.4120, 1891.857
147.6390, 1486.123
148.8670, 1082.613
150.0940, 919.5645
151.3210, 669.0537
152.5490, 589.6963
153.7750, 470.4854
155.0020, 368.5332
156.2290, 288.7129
157.4550, 318.0195
158.6810, 195.4531
159.9080, 128.0137
161.1340, 179.7002
162.3590, 111.6377
163.5850, 302.5527
164.8110, 211.5742
166.0360, 244.6982
167.2610, 211.9229
168.4860, 365.2422
169.7110, 339.6553
170.9360, 327.1562
172.1610, 330.7432
173.3850, 274.4111
174.6100, 357.1553
175.8340, 248.9756
177.0580, 433.8662
178.2820, 483.8242
179.5050, 635.8486
180.7290, 453.9346
181.9520, 545.0811
183.1760, 498.2646
184.3990, 499.4053
185.6220, 408.5195
186.8450, 366.6270
188.0670, 255.7393
189.2900, 282.8623
190.5120, 354.1084
191.7340, 402.8174
192.9560, 438.8555
194.1780, 488.9688
195.4000, 498.7930
196.6220, 356.0732
197.8430, 407.4424
199.0640, 278.0889
200.2860, 328.7227
201.5070, 177.3516
202.7270, 271.0811
203.9480, 222.8955
205.1690, 159.7432
206.3890, 151.6562
207.6090, 16.66016
208.8290, 36.86523
210.0490, 161.0938
211.2690, 19.34375
212.4890, 121.6162
213.7080, 48.91113
214.9280, 5.774414
216.1470, 75.56055
217.3660, 181.9199
218.5850, 170.2988
219.8030, 312.6982
221.0220, 137.1182
222.2400, 347.5732
223.4590, 265.0693
224.6770, 540.5820
225.8950, 448.1152
227.1120, 668.6914
228.3300, 719.2822
229.5480, 842.8877
230.7650, 814.5117
231.9820, 777.1484
233.1990, 721.7959
234.4160, 773.4570
235.6330, 723.1299
236.8490, 586.8125
238.0660, 357.5059
239.2820, 414.2090
240.4980, 251.9219
241.7140, 426.6455
242.9300, 296.3770
244.1460, 417.1162
245.3610, 503.8633
246.5770, 528.6201
247.7920, 749.3848
249.0070, 681.1533
250.2220, 1006.932
251.4370, 951.7148
252.6510, 1359.504
253.8660, 1221.301
255.0800, 1177.102
256.2940, 1047.786
257.5080, 905.7383
258.7220, 768.1650
259.9360, 597.4717
261.1490, 423.3916
262.3630, 265.4805
263.5760, 82.72070
264.7890, 96.09375
266.0020, 80.58691
267.2150, 208.1885
268.4270, 55.88770
269.6400, 209.3203
270.8520, 60.48047
272.0640, 60.56836
273.2760, 44.77832
274.4880, 116.2676
275.7000, 0.5908200
276.9120, 33.56934
278.1230, 0.6748050
279.3340, 24.06250
280.5450, 41.24707
281.7560, 12.14453
282.9670, 129.5420
284.1780, 76.73438
285.3880, 141.2061
286.5980, 88.28516
287.8090, 95.43555
289.0190, 132.0898
290.2290, 1.564453
291.4380, 110.0605
292.6480, 81.57031
293.8570, 329.4385
295.0670, 333.8428
296.2760, 251.6045
297.4850, 355.0498
298.6930, 394.8818
299.9020, 470.6748
301.1110, 580.3281
302.3190, 601.1543
303.5270, 572.0938
304.7350, 724.0137
305.9430, 760.3809
307.1510, 950.8799
308.3580, 1055.786
309.5660, 1215.706
310.7730, 1435.795
311.9800, 1791.737
313.1870, 2034.824
314.3940, 2400.787
315.6010, 2744.903
316.8070, 3342.038
318.0130, 3994.070
319.2200, 4641.174
320.4260, 5196.235
321.6310, 5856.395
322.8370, 5879.623
324.0430, 5874.750
325.2480, 5735.885
326.4540, 5121.023
327.6590, 4418.167
328.8640, 3907.443
330.0680, 3256.840
331.2730, 2612.850
332.4780, 2168.308
333.6820, 1662.951
334.8860, 1375.374
336.0900, 1118.481
337.2940, 1027.755
338.4980, 965.8555
339.7010, 1001.960
340.9050, 728.9297
342.1080, 773.7314
343.3110, 861.1289
344.5140, 695.2217
345.7170, 743.4600
346.9200, 634.5566
348.1220, 865.6543
349.3240, 842.2373
350.5270, 1056.334
351.7290, 1067.432
352.9310, 1122.528
354.1320, 1191.621
355.3340, 1511.713
356.5350, 1745.805
357.7370, 1650.893
358.9380, 1569.979
360.1390, 1391.014
361.3400, 1479.094
362.5400, 1414.172
363.7410, 1178.248
364.9410, 1019.320
366.1410, 1021.387
367.3410, 881.4512
368.5410, 841.7930
369.7410, 781.5703
370.9400, 774.6250
372.1400, 773.3145
373.3390, 712.7168
374.5380, 821.7559
375.7370, 837.7910
376.9360, 884.0527
378.1350, 828.8477
379.3330, 1050.867
380.5310, 1056.883
381.7300, 1333.891
382.9280, 1593.896
384.1260, 1926.896
385.3230, 2209.891
386.5210, 2632.879
387.7180, 2880.861
388.9160, 3161.838
390.1130, 3045.811
391.3100, 3040.773
392.5060, 2929.732
393.7030, 2592.734
394.9000, 2245.680
396.0960, 1828.619
397.2920, 1528.551
398.4880, 1315.479
399.6840, 838.3965
400.8800, 832.3203
402.0750, 561.2480
403.2710, 458.1836
404.4660, 347.1230
405.6610, 322.0645
406.8560, 283.0059
408.0510, 246.9492
409.2450, 176.8906
410.4400, 141.8320
411.6340, 79.76953
412.8280, 152.7051
414.0220, 103.9336
415.2160, 177.6074
416.4100, 91.72656
417.6030, 38.29297
418.7970, 32.15234
419.9900, 206.9883
421.1830, 91.16211
422.3760, 142.6113
423.5690, 114.0059
424.7610, 68.22070
425.9540, 52.50000
427.1460, 38.58594
428.3380, 60.08398
429.5300, 158.7520
430.7220, 173.1484
431.9140, 37.68750
433.1050, 21.77539
434.2970, 89.97070
435.4880, 6.470703
436.6790, 30.17383
437.8700, 98.13477
439.0610, 65.24805
440.2510, 16.19141
441.4420, 61.57812
442.6320, 128.5312
443.8220, 18.72461
445.0120, 134.6504
446.2020, 57.95117
447.3910, 132.5371
448.5810, 107.1836
449.7700, 23.75586
450.9600, 156.9941
452.1490, 250.3438
453.3370, 54.41211
454.5260, 211.0938
455.7150, 63.16797
456.9030, 139.7559
458.0910, 66.34766
459.2800, 65.68555
460.4670, 151.0469
461.6550, 100.1211
462.8430, 255.4668
464.0300, 106.0625
465.2180, 92.76562
466.4050, 119.6992
467.5920, 226.5332
468.7790, 330.4414
469.9650, 333.5957
471.1520, 101.8184
472.3380, 349.9219
473.5250, 112.9336
474.7110, 66.25781
475.8970, 24.09961
477.0820, 29.91602
478.2680, 184.7070
479.4540, 98.71875
480.6390, 185.4844
481.8240, 219.2402
483.0090, 42.97852
484.1940, 21.69531
485.3780, 78.38281
486.5630, 196.0762
487.7470, 114.7559
488.9320, 242.4297
490.1160, 220.0879
491.3000, 61.73438
492.4830, 220.3965
493.6670, 245.0430
494.8500, 376.6719
496.0340, 367.2910
497.2170, 584.8926
498.4000, 663.4844
499.5820, 925.0586
500.7650, 919.6191
501.9480, 1207.166
503.1300, 1582.699
504.3120, 1824.219
505.4940, 2301.725
506.6760, 2187.217
507.8580, 2290.719
509.0390, 1895.207
510.2210, 1905.680
511.4020, 1667.137
512.5830, 1221.582
513.7640, 1032.021
514.9450, 758.4473
516.1250, 743.8613
517.3060, 639.2539
518.4860, 386.6309
519.6660, 414.9961
520.8460, 596.3438
522.0260, 390.6934
523.2060, 444.0293
524.3850, 491.3809
525.5650, 544.7305
526.7440, 563.0664
527.9230, 541.2500
529.1020, 417.6953
530.2810, 452.9844
531.4590, 350.6152
532.6380, 293.5098
533.8160, 313.7500
534.9940, 182.9746
536.1720, 266.1797
537.3500, 320.3633
538.5270, 264.5332
539.7050, 419.6836
540.8820, 367.8164
542.0590, 307.9277
543.2360, 350.0234
544.4130, 272.1133
545.5900, 293.1855
546.7660, 369.2344
547.9430, 461.2930
549.1190, 386.3281
550.2950, 413.3496
551.4710, 426.3496
552.6470, 531.3301
553.8220, 550.2871
554.9980, 605.0176
556.1730, 594.1836
557.3480, 676.1211
558.5230, 709.2480
559.6980, 694.1680
560.8730, 524.0332
562.0470, 512.9160
563.2220, 520.8828
564.3960, 602.7266
565.5700, 355.5488
566.7440, 416.8047
567.9170, 154.5840
569.0910, 255.5840
570.2640, 395.3184
571.4380, 364.0332
572.6110, 121.5469
573.7840, 250.1367
574.9570, 31.04492
576.1290, 175.6738
577.3020, 7.423828
578.4740, 135.8105
579.6460, 382.6641
580.8180, 61.16016
581.9900, 180.4199
583.1620, 223.2402
584.3330, 227.6953
585.5040, 170.6562
586.6760, 216.2012
587.8470, 134.4961
589.0180, 141.0371
590.1880, 15.10938
591.3590, 137.9434
592.5290, 109.2266
593.7000, 215.5938
594.8700, 42.67578
596.0400, 168.8926
597.2090, 50.95117
598.3790, 5.828125
599.5490, 98.84180
600.7180, 102.8477
601.8870, 17.82617
603.0560, 75.30078
604.2250, 75.29297
605.3940, 35.77734
606.5620, 213.5312
607.7300, 31.97461
608.8990, 207.7910
610.0670, 92.80859
611.2350, 126.3438
612.4020, 132.5176
613.5700, 152.1641
614.7370, 73.72656
615.9050, 281.0762
617.0720, 320.7734
618.2390, 227.8926
619.4060, 131.5195
620.5720, 365.4512
621.7390, 211.5410
622.9050, 649.2031
624.0710, 570.8145
625.2370, 441.1328
626.4030, 236.4043
627.5690, 355.8164
628.7340, 344.4609
629.9000, 598.2480
631.0650, 539.3633
632.2300, 657.6406
633.3950, 718.3887
634.5600, 747.8418
635.7240, 725.8438
636.8890, 933.6582
638.0530, 963.9473
639.2170, 1220.279
640.3810, 1059.012
641.5450, 1165.625
642.7080, 1340.877
643.8720, 1396.828
645.0350, 1508.467
646.1980, 1684.305
647.3610, 2763.041
648.5240, 2126.797
649.6870, 3829.576
650.8490, 3044.176
652.0120, 3399.441
653.1740, 3963.527
654.3360, 4832.004
655.4980, 5900.332
656.6600, 7144.637
657.8210, 8793.443
658.9830, 10823.74
660.1440, 12893.61
661.3050, 14857.30
662.4660, 17611.58
663.6270, 19518.04
664.7870, 20483.65
665.9480, 20913.00
667.1080, 20052.83
668.2680, 18175.07
669.4280, 15648.19
670.5880, 13195.05
671.7480, 10899.13
672.9070, 8811.764
674.0670, 7163.480
675.2260, 5805.441
676.3850, 4853.160
677.5440, 3780.061
678.7030, 3378.088
679.8610, 2742.527
681.0200, 2528.277
682.1780, 2213.297
683.3360, 1668.373
684.4940, 1751.105
685.6520, 1534.361
686.8090, 1365.793
687.9670, 1201.307
689.1240, 920.1152
690.2810, 1094.029
691.4380, 999.1562
692.5950, 884.2559
693.7520, 742.9336
694.9080, 761.9805
696.0650, 652.0020
697.2210, 648.2051
698.3770, 618.7402
699.5330, 488.7109
700.6880, 502.6523
701.8440, 509.6523
702.9990, 358.8574
704.1550, 539.7520
705.3100, 619.6152
706.4650, 608.4805
707.6190, 483.1172
708.7740, 371.9434
709.9290, 317.7441
711.0830, 473.5176
712.2370, 480.0254
713.3910, 377.7969
714.5450, 251.2715
715.6980, 440.9375
716.8520, 268.4766
718.0050, 323.9336
719.1580, 252.6289
720.3110, 25.72852
721.4640, 137.3359
722.6170, 281.9453
723.7700, 144.5234
724.9220, 201.0215
726.0740, 327.5586
727.2260, 175.8438
728.3780, 385.2070
729.5300, 144.9121
730.6810, 318.2773
731.8330, 203.4941
732.9840, 245.9512
734.1350, 323.7578
735.2860, 234.7695
736.4370, 65.96680
737.5880, 223.7500
738.7380, 144.7461
739.8880, 280.6836
741.0390, 167.9297
742.1890, 107.7441
743.3380, 148.3281
744.4880, 202.7676
745.6380, 50.93555
746.7870, 246.1641
747.9360, 142.2754
749.0850, 32.99609
750.2340, 28.17773
751.3830, 21.60742
752.5310, 218.4355
753.6800, 18.91602
754.8280, 70.83203
755.9760, 33.86523
757.1240, 15.90430
758.2720, 69.34570
759.4190, 67.15625
760.5670, 164.9414
761.7140, 204.6953
762.8610, 69.43555
764.0080, 70.43945
765.1550, 257.2031
766.3020, 18.17578
767.4480, 251.3965
768.5950, 30.94727
769.7410, 115.5332
770.8870, 230.8945
772.0330, 158.2949
773.1780, 31.67578
774.3240, 59.02344
775.4690, 9.347656
776.6140, 163.6367
777.7590, 60.90430
778.9040, 84.14453
780.0490, 6.361328
781.1940, 16.54492
782.3380, 59.69727
783.4820, 21.26367
784.6260, 84.07617
785.7700, 24.05273
786.9140, 18.04492
788.0580, 38.00977
789.2010, 110.9492
790.3450, 45.13477
791.4880, 48.71875
792.6310, 76.55078
793.7730, 76.35742
794.9160, 227.1367
796.0590, 4.099609
797.2010, 161.6621
798.3430, 59.63086
799.4850, 49.54102
800.6270, 120.8418
801.7690, 44.31836
802.9100, 18.15039
804.0520, 1.515625
805.1930, 27.32422
806.3340, 49.70898
807.4750, 101.1895
808.6160, 44.82617
809.7560, 1.197266
810.8970, 120.0918
812.0370, 43.42383
813.1770, 105.6660
814.3170, 56.57422
815.4570, 18.94141
816.5960, 172.5820
817.7360, 91.80469
818.8750, 21.93945
820.0140, 24.95117
821.1530, 75.11719
822.2920, 247.1602
823.4310, 80.81250
824.5690, 106.1445
825.7070, 28.77734
826.8460, 7.687500
827.9840, 324.5723
829.1220, 253.4414
830.2590, 31.29492
831.3970, 208.1230
832.5340, 213.9375
833.6710, 52.26953
834.8080, 43.47266
835.9450, 220.1914
837.0820, 233.8926
838.2190, 149.5781
839.3550, 99.24609
840.4910, 187.8945
841.6270, 366.5273
842.7630, 303.1426
843.8990, 338.7422
845.0350, 562.3262
846.1700, 384.8945
847.3060, 463.4453
848.4410, 407.9805
849.5760, 694.5000
850.7100, 969.0039
851.8450, 804.5000
852.9800, 1118.977
854.1140, 1154.449
855.2480, 1256.908
856.3820, 1100.350
857.5160, 1122.332
858.6500, 848.3457
859.7830, 647.7441
860.9170, 605.7598
862.0500, 655.9980
863.1830, 721.3516
864.3160, 549.4551
865.4480, 553.7793
866.5810, 665.7480
867.7130, 426.0547
868.8460, 260.2422
869.9780, 475.5215
871.1100, 308.7891
872.2410, 513.0410
873.3730, 439.5762
874.5050, 501.8066
875.6360, 398.6953
876.7670, 168.9492
877.8980, 438.9980
879.0290, 452.7832
880.1590, 143.7754
881.2900, 403.9883
882.4200, 222.5312
883.5500, 361.7695
884.6800, 366.7227
885.8100, 292.1230
886.9400, 176.7207
888.0690, 568.9375
889.1990, 406.1133
890.3280, 307.2715
891.4570, 91.86328
892.5860, 376.2266
893.7140, 291.2969
894.8430, 209.8516
895.9710, 459.3887
897.1000, 183.3223
898.2280, 339.4102
899.3560, 21.92969
900.4830, 177.8691
901.6110, 315.9238
902.7380, 354.1465
903.8660, 196.1836
904.9930, 277.5605
906.1200, 220.5938
907.2460, 219.6621
908.3730, 200.5469
909.5000, 149.8730
910.6260, 112.3477
911.7520, 506.3691
912.8780, 194.3203
914.0040, 118.8359
915.1290, 433.4414
916.2550, 317.3789
917.3800, 277.5840
918.5050, 245.0781
919.6300, 146.3438
920.7550, 59.67578
921.8800, 280.9551
923.0040, 144.1816
924.1290, 254.5801
925.2530, 171.2754
926.3770, 203.1562
927.5010, 203.6172
928.6250, 148.2832
929.7480, 150.5547
930.8720, 85.84375
931.9950, 68.38867
933.1180, 76.32812
934.2410, 12.58008
935.3640, 197.8867
936.4860, 122.1504
937.6090, 142.4258
938.7310, 4.462891
939.8530, 109.3379
940.9750, 96.69727
942.0970, 30.21680
943.2180, 3.005859
944.3400, 52.46875
945.4610, 171.4727
946.5820, 41.31836
947.7030, 80.83984
948.8240, 23.36719
949.9450, 16.21094
951.0650, 203.3711
952.1860, 39.55859
953.3060, 372.1484
954.4260, 128.4375
955.5460, 116.6445
956.6650, 270.1680
957.7850, 195.1406
958.9040, 346.9102
960.0230, 26.42969
961.1420, 109.9023
962.2610, 158.1172
963.3800, 213.0898
964.4990, 222.0664
965.6170, 364.4336
966.7350, 321.3984
967.8530, 65.36719
968.9710, 287.1250
970.0890, 121.5469
971.2070, 129.5117
972.3240, 437.4727
973.4410, 323.3477
974.5580, 283.0117
975.6750, 443.9648
976.7920, 459.9141
977.9090, 488.8633
979.0250, 442.8086
980.1410, 530.7539
981.2580, 533.4336
982.3740, 634.6406
983.4890, 581.5820
984.6050, 769.5742
985.7200, 766.5898
986.8360, 1009.527
987.9510, 726.6562
989.0660, 1067.586
990.1810, 1123.508
991.2950, 1013.434
992.4100, 1298.355
993.5240, 1232.285
994.6390, 1652.203
995.7530, 1951.125
996.8660, 2197.047
997.9800, 2776.016
999.0940, 3278.934
1000.207, 4096.852
1001.320, 4526.766
1002.433, 5636.848
1003.546, 7095.758
1004.659, 8902.676
1005.772, 10946.59
1006.884, 13661.51
1007.996, 16593.92
1009.108, 19819.95
1010.220, 22667.86
1011.332, 24738.76
1012.444, 25491.67
1013.555, 24072.58
1014.666, 21283.48
1015.777, 18136.38
1016.888, 14410.34
1017.999, 11315.24
1019.110, 8597.277
1020.220, 6863.172
1021.331, 5396.223
1022.441, 4162.133
1023.551, 3755.750
1024.661, 3098.660
1025.770, 2864.637
1026.880, 2541.547
1027.989, 1990.754
1029.098, 1943.668
1030.207, 1676.578
1031.316, 1572.484
1032.425, 1753.348
1033.533, 1852.840
1034.642, 1766.762
1035.750, 1799.055
1036.858, 1784.531
1037.966, 1644.375
1039.073, 1806.723
1040.181, 2027.883
1041.288, 2255.379
1042.396, 2237.762
1043.503, 2418.441
1044.610, 2709.406
1045.716, 2795.371
1046.823, 3104.363
1047.929, 2435.969
1049.036, 2500.953
1050.142, 1893.938
1051.248, 1881.203
1052.353, 1557.188
1053.459, 1640.164
1054.564, 1401.055
1055.670, 876.6875
1056.775, 1156.023
1057.880, 935.0156
1058.985, 854.6562
1060.089, 834.6562
1061.194, 487.5977
1062.298, 529.6055
1063.402, 714.5859
1064.506, 524.4102
1065.610, 652.3516
1066.713, 420.3984
1067.817, 394.8906
1068.920, 525.8633
1070.023, 453.3945
1071.126, 465.4062
1072.229, 549.0977
1073.332, 206.1016
1074.435, 584.8242
1075.537, 565.1094
1076.639, 277.0742
1077.741, 306.3906
1078.843, 383.1992
1079.945, 396.1016
1081.046, 407.0078
1082.148, 403.6016
1083.249, 367.3711
1084.350, 452.8398
1085.451, 388.6953
1086.551, 525.3203
1087.652, 438.5820
1088.752, 340.8555
1089.853, 343.2500
1090.953, 374.1406
1092.053, 204.2109
1093.152, 286.5234
1094.252, 381.4648
1095.351, 340.8984
1096.451, 200.0820
1097.550, 217.3750
1098.649, 207.3594
1099.748, 415.6836
1100.846, 301.6992
1101.945, 356.6445
1103.043, 311.1523
1104.141, 180.3555
1105.239, 167.1602
1106.337, 179.0039
1107.434, 539.7305
1108.532, 249.5000
1109.629, 371.9180
1110.726, 370.9102
1111.823, 198.8242
1112.920, 180.5430
1114.017, 411.6680
1115.113, 417.1094
1116.210, 137.9062
1117.306, 133.5742
1118.402, 438.3242
1119.498, 106.9688
1120.593, 593.5977
1121.689, 806.2109
1122.784, 474.8125
1123.879, 314.4023
1124.974, 599.9766
1126.069, 436.5391
1127.164, 279.0859
1128.259, 181.2070
1129.353, 149.8633
1130.447, 170.3711
1131.541, 463.4492
1132.635, 369.9258
1133.729, 123.4336
1134.822, 354.8828
1135.916, 176.2227
1137.009, 261.6680
1138.102, 388.2656
1139.195, 26.88281
1140.288, 141.5117
1141.380, 172.8867
1142.473, 374.2539
1143.565, 287.8125
1144.657, 241.1445
1145.749, 466.4570
1146.841, 344.7578
1147.932, 159.0430
1149.024, 236.3164
1150.115, 141.5742
1151.206, 217.3164
1152.297, 141.5430
1153.388, 271.7500
1154.479, 13.94531
1155.569, 298.1172
1156.659, 129.8945
1157.750, 228.0312
1158.839, 109.1562
1159.929, 354.2578
1161.019, 338.4961
1162.108, 241.5664
1163.198, 5.621094
1164.287, 280.7930
1165.376, 247.8047
1166.465, 97.31250
1167.553, 74.17578
1168.642, 17.12891
1169.730, 58.79297
1170.818, 102.8320
1171.906, 80.07812
1172.994, 42.16406
1174.082, 37.71484
1175.170, 146.5820
1176.257, 17.01172
1177.344, 219.5742
1178.431, 52.12109
1179.518, 459.7852
1180.605, 324.7227
1181.691, 6.687500
1182.778, 207.9375
1183.864, 245.3633
1184.950, 270.7734
1186.036, 50.16406
1187.122, 38.46875
1188.207, 251.8398
1189.292, 90.86719
1190.378, 294.3398
1191.463, 22.53125
1192.548, 48.30859
1193.632, 257.8477
1194.717, 27.92578
1195.801, 353.9961
1196.886, 0.9453130
1197.970, 196.0742
1199.054, 263.0703
1200.137, 79.04688
1201.221, 500.0039
1202.305, 350.9531
1203.388, 245.8789
1204.471, 217.2109
1205.554, 132.4609
1206.637, 139.1875
1207.719, 263.8125
1208.802, 27.57422
1209.884, 272.9883
1210.966, 4.531250
1212.048, 97.03516
1213.130, 244.5156
1214.212, 472.9805
1215.293, 310.4766
1216.374, 43.94531
1217.456, 120.3906
1218.536, 116.8164
1219.617, 11.21484
1220.698, 258.5820
1221.778, 163.9336
1222.859, 177.2617
1223.939, 46.42969
1225.019, 71.81250
1226.099, 129.0352
1227.178, 100.2344
1228.258, 172.0117
1229.337, 87.56250
1230.417, 157.6992
1231.496, 176.8047
1232.574, 46.89453
1233.653, 108.9727
1234.732, 389.0117
1235.810, 315.0273
1236.888, 244.0273
1237.966, 639.0078
1239.044, 47.97266
1240.122, 141.9062
1241.199, 157.8203
1242.277, 436.7070
1243.354, 100.5781
1244.431, 37.42969
1245.508, 172.2461
1246.585, 473.9922
1247.661, 174.6992
1248.738, 343.4609
1249.814, 419.0039
1250.890, 327.7305
1251.966, 657.4297
1253.042, 209.1133
1254.117, 535.7773
1255.193, 431.4258
1256.268, 243.0508
1257.343, 56.65234
1258.418, 163.2383
1259.493, 341.7578
1260.567, 55.29688
1261.642, 334.8164
1262.716, 184.3164
1263.790, 290.6328
1264.864, 6.019531
1265.938, 310.4414
1267.011, 157.8477
1268.085, 94.22656
1269.158, 265.9531
1270.231, 205.1797
1271.304, 307.5000
1272.377, 145.8008
1273.450, 378.0820
1274.522, 432.3398
1275.594, 358.5820
1276.666, 557.8047
1277.738, 210.1289
1278.810, 391.3164
1279.882, 73.34766
1280.953, 477.4961
1282.025, 273.4766
1283.096, 533.5859
1284.167, 198.9609
1285.238, 47.03125
1286.308, 323.8711
1287.379, 341.9023
1288.449, 347.6172
1289.519, 152.6094
1290.589, 374.5859
1291.659, 423.5430
1292.729, 153.5234
1293.798, 260.4453
1294.868, 63.35156
1295.937, 124.1367
1297.006, 55.14453
1298.075, 45.03125
1299.143, 156.4062
1300.212, 139.9766
1301.280, 240.1953
1302.348, 285.9453
1303.416, 133.9453
1304.484, 200.6328
1305.552, 244.3125
1306.620, 430.0273
1307.687, 126.0273
1308.754, 55.63281
1309.821, 133.2109
1310.888, 112.5039
1311.955, 327.0547
1313.021, 273.5898
1314.088, 291.1172
1315.154, 232.9961
1316.220, 183.1562
1317.286, 558.6445
1318.352, 315.4648
1319.417, 418.9336
1320.483, 276.4375
1321.548, 121.8750
1322.613, 220.0312
1323.678, 462.8867
1324.743, 309.2969
1325.807, 404.6094
1326.872, 445.9570
1327.936, 367.3242
1329.000, 246.1562
1330.064, 495.3984
1331.128, 257.7344
1332.191, 283.0547
1333.255, 604.6484
1334.318, 596.5391
1335.381, 544.5547
1336.444, 526.8398
1337.507, 417.2734
1338.569, 150.5391
1339.632, 210.8047
1340.694, 123.7617
1341.756, 281.0000
1342.818, 190.2266
1343.880, 393.4414
1344.941, 290.9414
1346.003, 293.7891
1347.064, 484.6133
1348.125, 579.3047
1349.186, 486.4805
1350.247, 335.4805
1351.308, 359.5273
1352.368, 335.6328
1353.428, 389.2266
1354.489, 316.8242
1355.549, 197.7539
1356.608, 276.7539
1357.668, 142.3867
1358.727, 315.2734
1359.787, 412.2344
1360.846, 79.60156
1361.905, 285.2461
1362.964, 364.2812
1364.022, 463.3047
1365.081, 428.3242
1366.139, 515.3359
1367.197, 338.6758
1368.255, 401.4375
1369.313, 379.2539
1370.371, 460.2422
1371.428, 537.8125
1372.486, 449.0469
1373.543, 406.9062
1374.600, 485.8789
1375.657, 514.7500
1376.713, 346.6641
1377.770, 256.5781
1378.826, 512.4883
1379.882, 265.3945
1380.938, 592.2969
1381.994, 258.1992
1383.050, 113.0898
1384.106, 426.9844
1385.161, 512.2852
1386.216, 183.0391
1387.271, 275.8789
1388.326, 258.1289
1389.381, 162.9609
1390.435, 97.72656
1391.490, 104.4609
1392.544, 419.4375
1393.598, 391.2148
1394.652, 340.8203
1395.705, 56.84375
1396.759, 375.9258
1397.812, 358.6914
1398.866, 120.4531
1399.919, 358.9961
1400.972, 218.7578
1402.024, 511.5117
1403.077, 52.26562
1404.129, 9.019531
1405.181, 295.7695
1406.233, 254.5195
1407.285, 281.7656
1408.337, 137.5156
1409.389, 280.2656
1410.440, 278.0117
1411.491, 360.7656
1412.542, 356.8906
1413.593, 226.6484
1414.644, 133.4062
1415.695, 150.3945
1416.745, 398.7734
1417.795, 210.5430
1418.845, 247.3086
1419.895, 378.9609
1420.945, 172.7461
1421.995, 398.0273
1423.044, 256.9375
1424.093, 188.2031
1425.142, 510.6484
1426.191, 392.4102
1427.240, 318.1797
1428.289, 122.9102
1429.337, 222.0078
1430.385, 54.77734
1431.433, 277.7734
1432.481, 6.785156
1433.529, 170.8125
1434.577, 361.7188
1435.624, 326.3555
1436.672, 205.3359
1437.719, 223.2188
1438.766, 290.3047
1439.812, 372.4102
1440.859, 557.5352
1441.905, 221.6875
1442.952, 97.07031
1443.998, 345.6641
1445.044, 517.9531
1446.090, 255.9219
1447.135, 452.8516
1448.181, 306.8320
1449.226, 100.0547
1450.271, 264.8516
1451.316, 468.7695
1452.361, 448.6797
1453.405, 79.57031
1454.450, 671.5195
1455.494, 49.37500
1456.538, 420.7422
1457.582, 264.8867
1458.626, 269.0469
1459.670, 434.2031
1460.713, 149.3672
1461.757, 373.5430
1462.800, 182.7188
1463.843, 147.9258
1464.886, 280.1680
1465.928, 406.4141
1466.971, 261.6641
1468.013, 446.9102
1469.055, 391.1875
1470.097, 338.4570
1471.139, 147.7344
1472.181, 363.0273
1473.222, 389.3242
1474.263, 236.6406
1475.305, 430.9648
1476.346, 410.2930
1477.386, 154.6289
1478.427, 644.9766
1479.468, 342.3242
1480.508, 241.6875
1481.548, 487.0703
1482.588, 502.4609
1483.628, 819.6875
1484.668, 665.6328
1485.707, 1101.359
1486.747, 337.6953
1487.786, 405.0391
1488.825, 155.3984
1489.864, 562.5039
1490.902, 534.8906
1491.941, 380.2852
1492.979, 321.7031
1494.017, 119.1367
1495.055, 460.5898
1496.093, 530.0547
1497.131, 270.5391
1498.168, 668.0430
1499.206, 468.7109
1500.243, 203.3984
1501.280, 554.0273
1502.317, 280.5898
1503.354, 279.0156
1504.390, 467.6016
1505.426, 327.2070
1506.463, 272.8281
1507.499, 120.4570
1508.535, 166.7930
1509.570, 200.7305
1510.606, 225.3555
1511.641, 284.7773
1512.676, 425.4297
1513.711, 375.9336
1514.746, 433.4414
1515.781, 389.8945
1516.816, 396.3594
1517.850, 394.8281
1518.884, 465.3008
1519.918, 424.0117
1520.952, 278.2578
1521.986, 424.7383
1523.019, 378.2188
1524.053, 473.6992
1525.086, 425.1797
1526.119, 359.6602
1527.152, 463.1328
1528.185, 265.6016
1529.217, 256.2695
1530.250, 120.0430
1531.282, 242.8281
1532.314, 433.6289
1533.346, 379.4453
1534.377, 192.2656
1535.409, 582.0938
1536.440, 271.9219
1537.472, 231.9102
1538.503, 470.0820
1539.534, 234.2734
1540.564, 180.4922
1541.595, 247.7266
1542.625, 346.1680
1543.656, 4.835938
1544.686, 302.7227
1545.716, 367.7031
1546.745, 486.7773
1547.775, 70.95703
1548.804, 35.73828
1549.834, 40.69922
1550.863, 75.29688
1551.892, 163.0547
1552.920, 359.9688
1553.949, 232.0820
1554.977, 238.4141
1556.006, 55.98438
1557.034, 95.80859
1558.062, 116.9336
1559.089, 236.2617
1560.117, 206.8008
1561.144, 114.3281
1562.172, 188.5898
1563.199, 198.0391
1564.226, 210.6484
1565.252, 339.3477
1566.279, 20.99609
1567.305, 0.4726560
1568.332, 214.5820
1569.358, 1.535156
1570.384, 1.523438
1571.409, 141.3906
1572.435, 0.0000000E+00
##END=



