##NAMES=Diopside
##RRUFFID=R050666
##IDEAL CHEMISTRY=CaMgSi_2_O_6_
##LOCALITY=Franklin, Sussex County, New Jersey, USA
##OWNER=RRUFF
##SOURCE=University of Arizona Mineral Museum
##DESCRIPTION=Brown cleavage fragment with white hardystonite
##STATUS=The identification of this mineral has been confirmed by X-ray diffraction and chemical analysis
##URL=rruff.info/R050666
##MEASURED CHEMISTRY=Ca(Mg_0.66_Mn_0.33_Fe_0.01_)Si_2_O_6_
##PIN_ID=L01400
##ORIENTATION=Laser parallel to -a* (-1 0 0). Fiducial mark perpendicular to laser is parallel to -b [0 -1 0]
155.0020, 0.0000000E+00
156.2290, 78.84570
157.4550, 23.24609
158.6810, 255.8809
159.9080, 30.85938
161.1340, 225.7305
162.3590, 146.2617
163.5850, 129.5156
164.8110, 206.2246
166.0360, 35.81055
167.2610, 283.3828
168.4860, 163.6973
169.7110, 159.9297
170.9360, 403.9414
172.1610, 415.6348
173.3850, 755.9375
174.6100, 600.7910
175.8340, 543.1465
177.0580, 395.2461
178.2820, 326.3066
179.5050, 361.2520
180.7290, 216.3789
181.9520, 195.6992
183.1760, 201.8711
184.3990, 52.92578
185.6220, 209.8418
186.8450, 265.9609
188.0670, 242.2832
189.2900, 38.80664
190.5120, 264.5410
191.7340, 168.4824
192.9560, 501.6230
194.1780, 310.9512
195.4000, 350.4512
196.6220, 496.1152
197.8430, 397.9395
199.0640, 446.0176
200.2860, 475.8789
201.5070, 477.5137
202.7270, 684.6504
203.9480, 547.3477
205.1690, 250.6387
206.3890, 384.8906
207.6090, 198.3086
208.8290, 139.8906
210.0490, 190.6309
211.2690, 191.5332
212.4890, 238.5879
213.7080, 235.7988
214.9280, 265.1582
216.1470, 93.66602
217.3660, 128.3164
218.5850, 204.1113
219.8030, 315.0508
221.0220, 95.13086
222.2400, 94.35352
223.4590, 167.7305
224.6770, 178.3223
225.8950, 224.0430
227.1120, 329.9023
228.3300, 388.8848
229.5480, 645.9258
230.7650, 559.0098
231.9820, 673.1270
233.1990, 866.2891
234.4160, 726.4316
235.6330, 719.6309
236.8490, 311.8926
238.0660, 367.2207
239.2820, 242.6172
240.4980, 146.0820
241.7140, 250.6211
242.9300, 93.76562
244.1460, 402.9336
245.3610, 203.7285
246.5770, 8.386719
247.7920, 108.4219
249.0070, 371.6230
250.2220, 71.24805
251.4370, 220.9590
252.6510, 283.2461
253.8660, 342.6113
255.0800, 326.0586
256.2940, 200.5859
257.5080, 715.1973
258.7220, 495.8594
259.9360, 1071.662
261.1490, 464.5195
262.3630, 309.4609
263.5760, 347.4863
264.7890, 131.5977
266.0020, 256.7930
267.2150, 231.0723
268.4270, 35.43750
269.6400, 45.89062
270.8520, 2.806641
272.0640, 195.0293
273.2760, 33.70898
274.4880, 105.4512
275.7000, 211.2520
276.9120, 59.13086
278.1230, 239.0996
279.3340, 246.1582
280.5450, 98.30273
281.7560, 237.5371
282.9670, 278.8613
284.1780, 374.2812
285.3880, 453.0156
286.5980, 290.3809
287.8090, 502.0645
289.0190, 404.8398
290.2290, 216.7031
291.4380, 713.2070
292.6480, 683.1348
293.8570, 892.2305
295.0670, 795.4180
296.2760, 933.6934
297.4850, 915.0781
298.6930, 1068.564
299.9020, 1316.141
301.1110, 1619.385
302.3190, 1736.111
303.5270, 2078.287
304.7350, 2407.727
305.9430, 2815.482
307.1510, 3222.529
308.3580, 3906.689
309.5660, 4468.006
310.7730, 5026.449
311.9800, 5463.596
313.1870, 5995.273
314.3940, 6034.059
315.6010, 6079.055
316.8070, 5803.043
318.0130, 5405.211
319.2200, 4965.393
320.4260, 4184.670
321.6310, 3699.064
322.8370, 3434.566
324.0430, 2994.133
325.2480, 2816.777
326.4540, 2421.521
327.6590, 2156.346
328.8640, 2227.258
330.0680, 1719.244
331.2730, 1785.312
332.4780, 1736.744
333.6820, 1688.963
334.8860, 1748.754
336.0900, 1860.840
337.2940, 1906.576
338.4980, 2012.094
339.7010, 2286.686
340.9050, 2558.346
342.1080, 2706.078
343.3110, 2917.068
344.5140, 3048.900
345.7170, 3461.805
346.9200, 3429.730
348.1220, 3682.699
349.3240, 3430.742
350.5270, 3188.855
351.7290, 3276.041
352.9310, 2938.301
354.1320, 2722.668
355.3340, 2403.029
356.5350, 2270.498
357.7370, 2131.037
358.9380, 2241.646
360.1390, 1833.324
361.3400, 1823.072
362.5400, 1731.889
363.7410, 1571.773
364.9410, 1863.725
366.1410, 1689.746
367.3410, 1850.832
368.5410, 2189.986
369.7410, 2339.207
370.9400, 2599.494
372.1400, 3155.848
373.3390, 3511.268
374.5380, 4010.750
375.7370, 4775.301
376.9360, 5564.918
378.1350, 6333.600
379.3330, 7001.350
380.5310, 7647.164
381.7300, 8105.047
382.9280, 7733.996
384.1260, 7269.016
385.3230, 6577.102
386.5210, 5404.248
387.7180, 4558.381
388.9160, 3475.666
390.1130, 2932.018
391.3100, 2527.307
392.5060, 1727.180
393.7030, 1476.732
394.9000, 1243.283
396.0960, 989.9688
397.2920, 836.7188
398.4880, 760.5352
399.6840, 648.4199
400.8800, 711.3691
402.0750, 381.3848
403.2710, 563.4668
404.4660, 375.6152
405.6610, 283.8320
406.8560, 410.1152
408.0510, 418.4609
409.2450, 186.8730
410.4400, 266.3516
411.6340, 218.8965
412.8280, 204.5078
414.0220, 143.1855
415.2160, 192.9277
416.4100, 92.73633
417.6030, 124.6113
418.7970, 232.5488
419.9900, 158.5527
421.1830, 175.7285
422.3760, 225.7559
423.5690, 103.9551
424.7610, 19.78125
425.9540, 61.45312
427.1460, 79.00391
428.3380, 54.75977
429.5300, 22.88672
430.7220, 27.45508
431.9140, 185.0898
433.1050, 114.7871
434.2970, 95.54883
435.4880, 223.3672
436.6790, 335.2363
437.8700, 185.4824
439.0610, 95.47852
440.2510, 18.53906
441.4420, 71.66016
442.6320, 35.48242
443.8220, 171.1250
445.0120, 167.8105
446.2020, 57.21680
447.3910, 302.9238
448.5810, 443.4785
449.7700, 172.1074
450.9600, 132.9102
452.1490, 312.6934
453.3370, 414.5488
454.5260, 359.4824
455.7150, 302.5078
456.9030, 217.6172
458.0910, 9.197266
459.2800, 149.0879
460.4670, 6.548828
461.6550, 80.88281
462.8430, 146.0371
464.0300, 133.8672
465.2180, 0.4785160
466.4050, 51.25781
467.5920, 206.0723
468.7790, 104.3281
469.9650, 229.2812
471.1520, 31.02734
472.3380, 117.1289
473.5250, 10.30078
474.7110, 55.45703
475.8970, 147.8477
477.0820, 52.78125
478.2680, 115.6504
479.4540, 16.84570
480.6390, 176.7246
481.8240, 204.3711
483.0090, 278.0859
484.1940, 60.88281
485.3780, 11.25195
486.5630, 90.68164
487.7470, 56.69531
488.9320, 319.7734
490.1160, 136.9258
491.3000, 199.1465
492.4830, 423.4375
493.6670, 378.8281
494.8500, 624.2910
496.0340, 673.8281
497.2170, 671.4590
498.4000, 874.1582
499.5820, 978.9258
500.7650, 1269.764
501.9480, 1233.674
503.1300, 1001.652
504.3120, 1173.713
505.4940, 971.8438
506.6760, 857.0508
507.8580, 781.3301
509.0390, 617.6074
510.2210, 545.1719
511.4020, 397.7168
512.5830, 473.3594
513.7640, 451.0762
514.9450, 509.8848
516.1250, 719.7598
517.3060, 540.7031
518.4860, 600.7422
519.6660, 453.8535
520.8460, 579.0332
522.0260, 775.2793
523.2060, 379.5938
524.3850, 703.0020
525.5650, 898.4785
526.7440, 622.0195
527.9230, 504.6641
529.1020, 585.3750
530.2810, 511.1758
531.4590, 489.0469
532.6380, 380.9824
533.8160, 528.9883
534.9940, 321.0762
536.1720, 211.2285
537.3500, 381.4590
538.5270, 227.7520
539.7050, 62.12695
540.8820, 463.5820
542.0590, 694.1191
543.2360, 593.7305
544.4130, 783.4082
545.5900, 595.1816
546.7660, 599.0176
547.9430, 822.9277
549.1190, 843.9062
550.2950, 1106.951
551.4710, 1259.059
552.6470, 1390.230
553.8220, 1392.469
554.9980, 1274.768
556.1730, 1358.131
557.3480, 1345.562
558.5230, 890.0820
559.6980, 974.6641
560.8730, 806.3105
562.0470, 314.0215
563.2220, 606.7930
564.3960, 355.6309
565.5700, 330.5293
566.7440, 460.2383
567.9170, 431.0586
569.0910, 486.4258
570.2640, 368.5469
571.4380, 399.7598
572.6110, 305.0352
573.7840, 255.3711
574.9570, 213.7734
576.1290, 177.2383
577.3020, 13.76172
578.4740, 95.65234
579.6460, 303.9648
580.8180, 233.6465
581.9900, 185.3887
583.1620, 254.3965
584.3330, 151.2598
585.5040, 10.81641
586.6760, 143.1660
587.8470, 5.791016
589.0180, 89.30859
590.1880, 121.4648
591.3590, 60.31445
592.5290, 218.9453
593.7000, 119.2656
594.8700, 94.77344
596.0400, 37.21094
597.2090, 114.4512
598.3790, 48.50000
599.5490, 76.83398
600.7180, 33.50781
601.8870, 188.1582
603.0560, 16.05664
604.2250, 128.2207
605.3940, 211.8906
606.5620, 158.0957
607.7300, 34.43555
608.8990, 106.5488
610.0670, 24.51562
611.2350, 16.43359
612.4020, 85.69336
613.5700, 197.8789
614.7370, 270.1191
615.9050, 435.1230
617.0720, 142.4746
618.2390, 595.6602
619.4060, 391.1211
620.5720, 321.3789
621.7390, 551.6875
622.9050, 410.3086
624.0710, 418.1211
625.2370, 618.8477
626.4030, 572.4473
627.5690, 654.5254
628.7340, 766.4141
629.9000, 752.3535
631.0650, 604.3496
632.2300, 921.3926
633.3950, 925.7637
634.5600, 747.9141
635.7240, 993.2266
636.8890, 1032.336
638.0530, 1267.641
639.2170, 1409.994
640.3810, 1477.396
641.5450, 1574.340
642.7080, 1863.846
643.8720, 1839.775
645.0350, 2522.381
646.1980, 2864.223
647.3610, 3357.057
648.5240, 4138.367
649.6870, 4789.164
650.8490, 5752.021
652.0120, 7056.516
653.1740, 8588.996
654.3360, 10357.18
655.4980, 12055.22
656.6600, 13672.30
657.8210, 15406.00
658.9830, 16347.95
660.1440, 16813.17
661.3050, 16448.43
662.4660, 15495.95
663.6270, 13844.63
664.7870, 11986.34
665.9480, 10215.78
667.1080, 8349.859
668.2680, 6978.389
669.4280, 5932.590
670.5880, 4640.205
671.7480, 4042.932
672.9070, 3255.631
674.0670, 2649.373
675.2260, 2724.158
676.3850, 2167.988
677.5440, 1924.855
678.7030, 1708.076
679.8610, 1507.553
681.0200, 1347.904
682.1780, 1161.238
683.3360, 1066.809
684.4940, 907.2070
685.6520, 767.3574
686.8090, 820.8613
687.9670, 899.0938
689.1240, 560.3613
690.2810, 783.6621
691.4380, 802.0059
692.5950, 497.3848
693.7520, 563.8047
694.9080, 794.2598
696.0650, 584.7520
697.2210, 494.1250
698.3770, 308.6914
699.5330, 505.2969
700.6880, 555.9375
701.8440, 587.6133
702.9990, 683.3281
704.1550, 546.4453
705.3100, 504.8613
706.4650, 360.6816
707.6190, 272.5469
708.7740, 389.4531
709.9290, 351.4004
711.0830, 489.3828
712.2370, 319.3984
713.3910, 421.4531
714.5450, 347.9395
715.6980, 224.6602
716.8520, 198.8145
718.0050, 228.6914
719.1580, 113.9160
720.3110, 151.1758
721.4640, 19.53320
722.6170, 114.7656
723.7700, 314.0957
724.9220, 121.1055
726.0740, 101.5039
727.2260, 165.7109
728.3780, 98.17578
729.5300, 185.6738
730.6810, 131.1113
731.8330, 164.6758
732.9840, 64.27148
734.1350, 267.9004
735.2860, 9.562500
736.4370, 47.23828
737.5880, 84.05664
738.7380, 159.6191
739.8880, 169.3301
741.0390, 230.0742
742.1890, 109.1992
743.3380, 54.75586
744.4880, 3.408203
745.6380, 15.77734
746.7870, 95.30078
747.9360, 82.82812
749.0850, 209.7637
750.2340, 198.0059
751.3830, 196.9980
752.5310, 222.0215
753.6800, 153.0781
754.8280, 87.16992
755.9760, 238.2949
757.1240, 144.4551
758.2720, 69.64648
759.4190, 30.87109
760.5670, 219.1191
761.7140, 1.601563
762.8610, 148.6875
764.0080, 156.0059
765.1550, 17.35938
766.3020, 131.7285
767.4480, 116.1309
768.5950, 232.5625
769.7410, 213.9629
770.8870, 95.48242
772.0330, 168.9785
773.1780, 21.47070
774.3240, 51.01758
775.4690, 259.4824
776.6140, 124.0117
777.7590, 92.57227
778.9040, 43.16406
780.0490, 108.7793
781.1940, 5.572266
782.3380, 180.0820
783.4820, 2.230469
784.6260, 65.46484
785.7700, 137.8086
786.9140, 94.86133
788.0580, 54.43555
789.2010, 83.74609
790.3450, 40.91406
791.4880, 58.40039
792.6310, 112.2676
793.7730, 122.9668
794.9160, 84.30273
796.0590, 30.39648
797.2010, 138.1191
798.3430, 323.8750
799.4850, 57.12500
800.6270, 62.06445
801.7690, 49.72852
802.9100, 154.5488
804.0520, 104.6016
805.1930, 202.4883
806.3340, 13.66797
807.4750, 103.1797
808.6160, 68.05664
809.7560, 113.9668
810.8970, 243.7910
812.0370, 227.7598
813.1770, 133.7539
814.3170, 110.7754
815.4570, 28.16992
816.5960, 14.11719
817.7360, 41.56641
818.8750, 0.9960940
820.0140, 35.06250
821.1530, 84.84570
822.2920, 87.22070
823.4310, 12.68555
824.5690, 73.41797
825.7070, 133.5488
826.8460, 250.7109
827.9840, 97.90234
829.1220, 341.1230
830.2590, 71.37305
831.3970, 311.6523
832.5340, 188.9629
833.6710, 81.69922
834.8080, 219.6191
835.9450, 511.9648
837.0820, 165.3418
838.2190, 485.7480
839.3550, 628.1855
840.4910, 925.6484
841.6270, 1135.275
842.7630, 1039.670
843.8990, 1486.225
845.0350, 1648.809
846.1700, 1645.422
847.3060, 1977.068
848.4410, 2060.742
849.5760, 1777.443
850.7100, 1754.176
851.8450, 1601.939
852.9800, 1396.732
854.1140, 1121.555
855.2480, 921.4219
856.3820, 747.3203
857.5160, 707.2441
858.6500, 493.9980
859.7830, 504.9863
860.9170, 384.0039
862.0500, 555.0527
863.1830, 492.1348
864.3160, 394.2480
865.4480, 315.3887
866.5810, 346.5645
867.7130, 290.7793
868.8460, 193.0254
869.9780, 417.1719
871.1100, 113.4805
872.2410, 288.0762
873.3730, 356.9512
874.5050, 184.5176
875.6360, 312.9492
876.7670, 228.4121
877.8980, 468.9102
879.0290, 294.4395
880.1590, 140.7617
881.2900, 684.0566
882.4200, 150.3281
883.5500, 62.00781
884.6800, 269.7422
885.8100, 224.5117
886.9400, 488.3184
888.0690, 439.1562
889.1990, 285.0254
890.3280, 267.9297
891.4570, 206.8633
892.5860, 176.8320
893.7140, 294.8320
894.8430, 281.8262
895.9710, 320.1484
897.1000, 200.2441
898.2280, 366.2383
899.3560, 119.4355
900.4830, 380.6641
901.6110, 272.7070
902.7380, 353.0332
903.8660, 74.39648
904.9930, 399.8242
906.1200, 375.2871
907.2460, 157.5352
908.3730, 246.0918
909.5000, 385.5742
910.6260, 311.3496
911.7520, 403.0566
912.8780, 356.7969
914.0040, 354.5703
915.1290, 149.8926
916.2550, 366.7461
917.3800, 320.2578
918.5050, 397.1816
919.6300, 119.9473
920.7550, 320.8047
921.8800, 219.2715
923.0040, 290.3301
924.1290, 200.4141
925.2530, 156.9473
926.3770, 186.5703
927.5010, 283.5684
928.6250, 260.8066
929.7480, 164.0801
930.8720, 119.8223
931.9950, 82.41602
933.1180, 199.8379
934.2410, 36.70312
935.3640, 272.5781
936.4860, 39.77734
937.6090, 115.0254
938.7310, 287.6250
939.8530, 27.33398
940.9750, 55.33594
942.0970, 109.4141
943.2180, 173.1602
944.3400, 4.871094
945.4610, 58.30859
946.5820, 77.53906
947.7030, 53.42383
948.8240, 60.34570
949.9450, 135.3203
951.0650, 209.0215
952.1860, 297.5430
953.3060, 104.6328
954.4260, 310.0977
955.5460, 294.7695
956.6650, 223.7031
957.7850, 339.9570
958.9040, 311.9355
960.0230, 343.2637
961.1420, 314.6348
962.2610, 345.0449
963.3800, 500.4902
964.4990, 332.9766
965.6170, 560.5039
966.7350, 380.0664
967.8530, 372.6680
968.9710, 283.4648
970.0890, 360.1426
971.2070, 522.8574
972.3240, 344.6133
973.4410, 553.4062
974.5580, 449.2383
975.6750, 517.1074
976.7920, 789.0137
977.9090, 543.9570
979.0250, 858.9414
980.1410, 468.9648
981.2580, 681.0273
982.3740, 704.1250
983.4890, 870.2617
984.6050, 757.4355
985.7200, 896.6484
986.8360, 873.9102
987.9510, 971.2109
989.0660, 930.5488
990.1810, 1028.924
991.2950, 1249.340
992.4100, 1360.812
993.5240, 1329.359
994.6390, 1777.965
995.7530, 1786.621
996.8660, 2236.328
997.9800, 2402.072
999.0940, 2775.869
1000.207, 3517.703
1001.320, 4061.574
1002.433, 5113.482
1003.546, 6482.428
1004.659, 7758.410
1005.772, 9711.430
1006.884, 12687.50
1007.996, 15735.60
1009.108, 19436.78
1010.220, 23005.99
1011.332, 26368.25
1012.444, 27712.55
1013.555, 27535.88
1014.666, 25043.27
1015.777, 20810.69
1016.888, 16869.16
1017.999, 13009.67
1019.110, 10020.21
1020.220, 7597.783
1021.331, 6158.396
1022.441, 4842.043
1023.551, 4245.729
1024.661, 3622.449
1025.770, 3155.205
1026.880, 3075.996
1027.989, 2728.824
1029.098, 2710.686
1030.207, 2839.588
1031.316, 2645.523
1032.425, 2694.385
1033.533, 2819.410
1034.642, 2999.627
1035.750, 3125.092
1036.858, 3555.686
1037.966, 3406.256
1039.073, 3484.875
1040.181, 3482.523
1041.288, 3339.760
1042.396, 3225.490
1043.503, 2841.807
1044.610, 2607.762
1045.716, 2165.211
1046.823, 1892.695
1047.929, 1831.207
1049.036, 1480.629
1050.142, 1224.205
1051.248, 1369.822
1052.353, 991.4707
1053.459, 1173.160
1054.564, 1036.879
1055.670, 1090.670
1056.775, 811.4902
1057.880, 1001.361
1058.985, 856.2910
1060.089, 921.2539
1061.194, 877.8184
1062.298, 906.8145
1063.402, 743.7227
1064.506, 723.1895
1065.610, 645.4316
1066.713, 747.6211
1067.817, 743.3691
1068.920, 866.6152
1070.023, 772.9121
1071.126, 479.2383
1072.229, 659.5918
1073.332, 558.7266
1074.435, 557.3066
1075.537, 779.7910
1076.639, 720.2949
1077.741, 747.8281
1078.843, 499.5488
1079.945, 516.1328
1081.046, 425.7754
1082.148, 675.7578
1083.249, 750.4199
1084.350, 527.4355
1085.451, 541.1738
1086.551, 530.3281
1087.652, 559.8477
1088.752, 690.3711
1089.853, 669.2637
1090.953, 308.1797
1092.053, 575.1289
1093.152, 347.1035
1094.252, 525.1016
1095.351, 598.1211
1096.451, 496.6270
1097.550, 407.8125
1098.649, 357.9004
1099.748, 457.0117
1100.846, 520.1465
1101.945, 674.3281
1103.043, 372.5312
1104.141, 439.7578
1105.239, 369.0078
1106.337, 572.2773
1107.434, 338.5703
1108.532, 332.8828
1109.629, 435.2188
1110.726, 280.8477
1111.823, 545.2207
1112.920, 433.6367
1114.017, 369.0703
1115.113, 612.5254
1116.210, 754.0000
1117.306, 974.4941
1118.402, 1101.529
1119.498, 1242.219
1120.593, 1619.770
1121.689, 1563.338
1122.784, 1749.242
1123.879, 1328.338
1124.974, 1375.400
1126.069, 934.8574
1127.164, 613.7441
1128.259, 777.8809
1129.353, 399.9824
1130.447, 575.1855
1131.541, 577.3145
1132.635, 299.0918
1133.729, 253.8398
1134.822, 309.8359
1135.916, 209.6113
1137.009, 152.4004
1138.102, 310.2051
1139.195, 123.0215
1140.288, 203.2539
1141.380, 311.1055
1142.473, 313.8633
1143.565, 352.8496
1144.657, 271.2480
1145.749, 330.1484
1146.841, 171.6641
1147.932, 102.6680
1149.024, 174.6152
1150.115, 54.57617
1151.206, 113.4395
1152.297, 83.57617
1153.388, 201.6562
1154.479, 109.7051
1155.569, 190.0996
1156.659, 51.24805
1157.750, 33.32812
1158.839, 150.4199
1159.929, 148.5234
1161.019, 88.83398
1162.108, 131.9570
1163.198, 139.7852
1164.287, 63.93945
1165.376, 91.96680
1166.465, 51.50586
1167.553, 266.5332
1168.642, 128.4219
1169.730, 6.416016
1170.818, 93.41211
1171.906, 16.44531
1172.994, 4.484375
1174.082, 15.52148
1175.170, 161.5605
1176.257, 96.43164
1177.344, 170.3184
1178.431, 278.2109
1179.518, 45.89062
1180.605, 54.98633
1181.691, 89.86523
1182.778, 63.75195
1183.864, 201.6426
1184.950, 154.5664
1186.036, 231.4336
1187.122, 162.3379
1188.207, 180.2402
1189.292, 243.3828
1190.378, 143.1035
1191.463, 7.222656
1192.548, 27.15234
1193.632, 38.91797
1194.717, 47.01367
1195.801, 42.13867
1196.886, 71.71289
1197.970, 74.56641
1199.054, 76.41992
1200.137, 121.2754
1201.221, 103.1230
1202.305, 90.67773
1203.388, 108.8457
1204.471, 43.70508
1205.554, 75.55859
1206.637, 79.48633
1207.719, 152.4141
1208.802, 68.26953
1209.884, 131.1270
1210.966, 75.98242
1212.048, 40.15625
1213.130, 129.6719
1214.212, 33.50000
1215.293, 324.3242
1216.374, 28.15039
1217.456, 10.03125
1218.536, 9.230469
1219.617, 233.5527
1220.698, 236.3320
1221.778, 223.1055
1222.859, 173.8809
1223.939, 244.6504
1225.019, 130.4160
1226.099, 28.17773
1227.178, 74.93164
1228.258, 226.6816
1229.337, 286.4258
1230.417, 324.9805
1231.496, 324.5957
1232.574, 345.6406
1233.653, 264.8359
1234.732, 202.5586
1235.810, 241.3613
1236.888, 160.0781
1237.966, 200.7852
1239.044, 381.4902
1240.122, 62.44141
1241.199, 268.1328
1242.277, 251.4707
1243.354, 196.1445
1244.431, 234.8145
1245.508, 296.4766
1246.585, 141.1309
1247.661, 12.22070
1248.738, 92.39648
1249.814, 208.0039
1250.890, 240.6055
1251.966, 70.19727
1253.042, 44.22070
1254.117, 59.68555
1255.193, 49.20703
1256.268, 4.775391
1257.343, 25.58594
1258.418, 62.98828
1259.493, 8.658203
1260.567, 64.66797
1261.642, 130.9883
1262.716, 209.2988
1263.790, 87.61328
1264.864, 306.9160
1265.938, 167.2070
1267.011, 158.4902
1268.085, 301.7617
1269.158, 13.74609
1270.231, 226.4922
1271.304, 29.72461
1272.377, 4.019531
1273.450, 42.20703
1274.522, 161.3730
1275.594, 51.53320
1276.666, 137.6621
1277.738, 205.7930
1278.810, 228.6797
1279.882, 254.7871
1280.953, 173.4531
1282.025, 155.5391
1283.096, 214.7812
1284.167, 95.84180
1285.238, 148.3730
1286.308, 261.4082
1287.379, 177.2305
1288.449, 206.8008
1289.519, 122.8184
1290.589, 185.0234
1291.659, 140.9941
1292.729, 18.14648
1293.798, 190.0762
1294.868, 81.83008
1295.937, 257.0742
1297.006, 210.9609
1298.075, 373.0742
1299.143, 398.6406
1300.212, 284.0742
1301.280, 254.9727
1302.348, 262.3984
1303.416, 316.2617
1304.484, 117.5273
1305.552, 277.3164
1306.620, 163.0938
1307.687, 277.8594
1308.754, 285.7344
1309.821, 306.4766
1310.888, 184.2129
1311.955, 308.9492
1313.021, 199.7070
1314.088, 406.4180
1315.154, 352.1172
1316.220, 187.8008
1317.286, 90.47461
1318.352, 320.1328
1319.417, 429.5117
1320.483, 224.8125
1321.548, 312.2539
1322.613, 170.0898
1323.678, 300.3301
1324.743, 338.8184
1325.807, 353.3770
1326.872, 440.9258
1327.936, 422.5117
1329.000, 253.0430
1330.064, 255.5645
1331.128, 290.0781
1332.191, 400.5820
1333.255, 269.9336
1334.318, 127.5000
1335.381, 127.9727
1336.444, 301.4375
1337.507, 253.8438
1338.569, 148.2891
1339.632, 352.8535
1340.694, 326.9336
1341.756, 367.3496
1342.818, 323.4688
1343.880, 318.3848
1344.941, 455.8770
1346.003, 291.5469
1347.064, 346.2051
1348.125, 378.5371
1349.186, 196.8574
1350.247, 206.2539
1351.308, 322.5527
1352.368, 408.8438
1353.428, 477.1270
1354.489, 298.9375
1355.549, 325.1699
1356.608, 310.4238
1357.668, 317.8359
1358.727, 195.0723
1359.787, 441.3008
1360.846, 69.76367
1361.905, 306.9648
1362.964, 123.6230
1364.022, 228.7891
1365.081, 277.9395
1366.139, 178.0117
1367.197, 97.07617
1368.255, 142.8867
1369.313, 43.07812
1370.371, 182.9219
1371.428, 268.9102
1372.486, 166.8672
1373.543, 205.8125
1374.600, 251.7227
1375.657, 191.6680
1376.713, 287.8301
1377.770, 184.7070
1378.826, 265.5742
1379.882, 342.1465
1380.938, 304.0117
1381.994, 259.4102
1383.050, 284.8711
1384.106, 242.5312
1385.161, 343.8438
1386.216, 265.7676
1387.271, 178.3164
1388.326, 283.1602
1389.381, 285.9102
1390.435, 188.9238
1391.490, 315.6270
1392.544, 220.3594
1393.598, 256.0566
1394.652, 245.7461
1395.705, 38.74023
1396.759, 55.98633
1397.812, 120.7949
1398.866, 106.5781
1399.919, 280.2734
1400.972, 164.1621
1402.024, 268.7520
1403.077, 26.27734
1404.129, 315.2051
1405.181, 32.74609
1406.233, 151.2656
1407.285, 147.2285
1408.337, 231.2227
1409.389, 95.62109
1410.440, 136.0488
1411.491, 58.20117
1412.542, 149.5312
1413.593, 73.10156
1414.644, 150.3223
1415.695, 13.69727
1416.745, 89.85547
1417.795, 171.3496
1418.845, 28.47070
1419.895, 199.1777
1420.945, 275.4062
1421.995, 95.24219
1423.044, 223.4727
1424.093, 38.01367
1425.142, 101.2070
1426.191, 294.4160
1427.240, 239.6367
1428.289, 275.8496
1429.337, 311.1289
1430.385, 315.5332
1431.433, 205.4316
1432.481, 390.6348
1433.529, 257.6230
1434.577, 312.3965
1435.624, 237.9023
1436.672, 178.1484
1437.719, 242.2031
1438.766, 124.3320
1439.812, 371.4453
1440.859, 172.5469
1441.905, 305.6445
1442.952, 371.7715
1443.998, 196.1914
1445.044, 38.21289
1446.090, 287.6094
1447.135, 344.8164
1448.181, 117.7031
1449.226, 272.2969
1450.271, 172.1953
1451.316, 303.0938
1452.361, 147.9746
1453.405, 128.8438
1454.450, 334.6953
1455.494, 173.3809
1456.538, 213.2051
1457.582, 276.0059
1458.626, 157.8184
1459.670, 124.6133
1460.713, 152.4043
1461.757, 212.2070
1462.800, 150.2070
1463.843, 234.7715
1464.886, 10.53320
1465.928, 327.2832
1466.971, 165.0195
1468.013, 19.18945
1469.055, 228.7930
1470.097, 242.4766
1471.139, 274.8379
1472.181, 220.7891
1473.222, 290.3770
1474.263, 187.9512
1475.305, 130.5312
1476.346, 162.1172
1477.386, 234.6934
1478.427, 236.3379
1479.468, 295.0723
1480.508, 133.8535
1481.548, 255.6367
1482.588, 117.3984
1483.628, 229.1445
1484.668, 240.8848
1485.707, 99.89648
1486.747, 326.5156
1487.786, 75.28320
1488.825, 277.6777
1489.864, 283.2715
1490.902, 155.0977
1491.941, 417.3535
1492.979, 137.1191
1494.017, 198.0566
1495.055, 164.9355
1496.093, 352.0488
1497.131, 261.5352
1498.168, 149.6816
1499.206, 205.0293
1500.243, 221.1562
1501.280, 250.4922
1502.317, 204.8242
1503.354, 183.1562
1504.390, 135.4863
1505.426, 50.79883
1506.463, 143.9883
1507.499, 58.24219
1508.535, 127.4941
1509.570, 167.5000
1510.606, 39.66016
1511.641, 7.296875
1512.676, 10.77148
1513.711, 128.9492
1514.746, 22.93164
1515.781, 90.16016
1516.816, 138.0352
1517.850, 161.0547
1518.884, 178.7578
1519.918, 69.29688
1520.952, 157.7305
1521.986, 100.5059
1523.019, 128.3066
1524.053, 157.0781
1525.086, 170.1230
1526.119, 183.4258
1527.152, 235.8730
1528.185, 215.0430
1529.217, 212.5840
1530.250, 231.7910
1531.282, 184.4941
1532.314, 250.1680
1533.346, 331.9023
1534.377, 358.7441
1535.409, 130.6445
1536.440, 196.6777
1537.472, 171.7754
1538.503, 165.8477
1539.534, 252.9023
1540.564, 248.1445
1541.595, 113.8457
1542.625, 244.3848
1543.656, 363.6348
1544.686, 311.2852
1545.716, 164.2559
1546.745, 238.7598
1547.775, 68.94531
1548.804, 183.5645
1549.834, 244.3906
1550.863, 239.1426
1551.892, 198.8223
1552.920, 124.4824
1553.949, 264.0000
1554.977, 386.8828
1556.006, 218.9414
1557.034, 162.8984
1558.062, 255.6406
1559.089, 27.44727
1560.117, 9.673828
1561.144, 22.04297
1562.172, 154.0996
1563.199, 172.3105
1564.226, 279.4863
1565.252, 294.5605
1566.279, 135.0312
1567.305, 170.7578
1568.332, 81.75195
1569.358, 7.414063
1570.384, 104.2617
1571.409, 79.33594
1572.435, 0.0000000E+00
##END=



