##NAMES=Diopside
##RRUFFID=R050666
##IDEAL CHEMISTRY=CaMgSi_2_O_6_
##LOCALITY=Franklin, Sussex County, New Jersey, USA
##OWNER=RRUFF
##SOURCE=University of Arizona Mineral Museum
##DESCRIPTION=Brown cleavage fragment with white hardystonite
##STATUS=The identification of this mineral has been confirmed by X-ray diffraction and chemical analysis
##URL=rruff.info/R050666
##MEASURED CHEMISTRY=Ca(Mg_0.66_Mn_0.33_Fe_0.01_)Si_2_O_6_
##PIN_ID=L00985
##ORIENTATION=Laser parallel to (1 0 1). Fiducial mark perpendicular to laser is parallel to -b [0 -1 0]
129.2090, 0.0000000E+00
130.4390, 0.4765630
131.6680, 116.4121
132.8980, 119.7324
134.1270, 15.04688
135.3560, 232.8008
136.5850, 323.4434
137.8140, 379.3809
139.0430, 171.5449
140.2710, 112.5410
141.5000, 352.0352
142.7280, 87.24609
143.9560, 272.4668
145.1840, 175.9883
146.4120, 368.1562
147.6390, 384.8379
148.8670, 370.9199
150.0940, 411.2930
151.3210, 392.8535
152.5490, 420.2637
153.7750, 422.9141
155.0020, 443.8262
156.2290, 433.3535
157.4550, 398.7266
158.6810, 412.1621
159.9080, 374.0430
161.1340, 392.5137
162.3590, 308.8809
163.5850, 365.9180
164.8110, 324.7656
166.0360, 327.9160
167.2610, 380.8145
168.4860, 357.2539
169.7110, 367.1953
170.9360, 466.6074
172.1610, 428.3105
173.3850, 552.7422
174.6100, 465.4316
175.8340, 379.5156
177.0580, 470.9805
178.2820, 485.8262
179.5050, 431.0410
180.7290, 628.6191
181.9520, 290.5547
183.1760, 377.8398
184.3990, 361.4707
185.6220, 411.4414
186.8450, 283.7480
188.0670, 348.9902
189.2900, 389.3398
190.5120, 351.6191
191.7340, 420.2148
192.9560, 330.1289
194.1780, 377.3516
195.4000, 391.8809
196.6220, 400.7188
197.8430, 404.8594
199.0640, 520.3047
200.2860, 613.0430
201.5070, 652.0859
202.7270, 673.2148
203.9480, 575.6914
205.1690, 566.0820
206.3890, 487.5469
207.6090, 266.0859
208.8290, 505.7188
210.0490, 471.3750
211.2690, 611.1484
212.4890, 448.0469
213.7080, 425.0781
214.9280, 561.2500
216.1470, 442.5664
217.3660, 431.0312
218.5850, 382.6562
219.8030, 508.4453
221.0220, 524.3984
222.2400, 590.5234
223.4590, 521.8242
224.6770, 638.3125
225.8950, 613.9844
227.1120, 627.9258
228.3300, 632.0469
229.5480, 593.3359
230.7650, 680.8047
231.9820, 715.4688
233.1990, 332.3125
234.4160, 504.3320
235.6330, 363.5703
236.8490, 454.9883
238.0660, 686.5859
239.2820, 494.3594
240.4980, 647.3125
241.7140, 429.4453
242.9300, 775.7578
244.1460, 560.2461
245.3610, 483.9180
246.5770, 442.7695
247.7920, 501.8047
249.0070, 447.0195
250.2220, 509.4102
251.4370, 336.9883
252.6510, 443.7461
253.8660, 482.6875
255.0800, 628.8125
256.2940, 481.1133
257.5080, 654.6016
258.7220, 615.1484
259.9360, 818.1211
261.1490, 568.1602
262.3630, 526.3828
263.5760, 419.7969
264.7890, 289.3984
266.0020, 548.1875
267.2150, 774.1484
268.4270, 326.2969
269.6400, 560.6289
270.8520, 537.1367
272.0640, 286.9062
273.2760, 464.7812
274.4880, 811.8320
275.7000, 562.3711
276.9120, 621.8281
278.1230, 536.5781
279.3340, 531.5078
280.5450, 497.4414
281.7560, 521.7891
282.9670, 822.9805
284.1780, 687.4609
285.3880, 656.2227
286.5980, 799.2500
287.8090, 691.5312
289.0190, 429.1133
290.2290, 679.8789
291.4380, 588.8711
292.6480, 752.0859
293.8570, 777.5234
295.0670, 1012.168
296.2760, 1129.020
297.4850, 1175.066
298.6930, 1396.316
299.9020, 1478.754
301.1110, 1552.383
302.3190, 1715.211
303.5270, 1964.227
304.7350, 2049.418
305.9430, 2288.805
307.1510, 2561.395
308.3580, 2643.586
309.5660, 2761.516
310.7730, 3169.613
311.9800, 3143.883
313.1870, 2928.305
314.3940, 2581.496
315.6010, 2768.715
316.8070, 2719.613
318.0130, 2421.617
319.2200, 2464.848
320.4260, 2388.230
321.6310, 2228.672
322.8370, 2170.266
324.0430, 2021.359
325.2480, 1880.906
326.4540, 1765.078
327.6590, 1580.391
328.8640, 1498.859
330.0680, 1431.465
331.2730, 1474.219
332.4780, 1462.418
333.6820, 1706.902
334.8860, 1867.082
336.0900, 1929.406
337.2940, 2199.867
338.4980, 2024.582
339.7010, 2349.293
340.9050, 2601.164
342.1080, 2579.176
343.3110, 2822.320
344.5140, 2857.598
345.7170, 3074.012
346.9200, 3225.555
348.1220, 3197.234
349.3240, 2870.047
350.5270, 2428.988
351.7290, 2525.066
352.9310, 2329.273
354.1320, 2136.621
355.3340, 1837.098
356.5350, 1853.711
357.7370, 1460.461
358.9380, 1681.344
360.1390, 1448.363
361.3400, 1317.516
362.5400, 1373.805
363.7410, 1220.223
364.9410, 1193.777
366.1410, 1503.465
367.3410, 1510.289
368.5410, 1787.250
369.7410, 1918.340
370.9400, 2199.562
372.1400, 2725.922
373.3390, 3460.410
374.5380, 3703.031
375.7370, 4054.785
376.9360, 4236.672
378.1350, 4502.691
379.3330, 4555.840
380.5310, 4306.117
381.7300, 4291.527
382.9280, 4266.070
384.1260, 3666.742
385.3230, 3123.543
386.5210, 2978.477
387.7180, 2552.539
388.9160, 2225.859
390.1130, 1971.664
391.3100, 1557.184
392.5060, 1383.762
393.7030, 1002.473
394.9000, 679.3125
396.0960, 689.7656
397.2920, 617.8672
398.4880, 593.0898
399.6840, 543.4453
400.8800, 368.9297
402.0750, 303.5430
403.2710, 271.3164
404.4660, 296.1406
405.6610, 208.1289
406.8560, 288.2461
408.0510, 195.4883
409.2450, 120.8594
410.4400, 456.3555
411.6340, 10.02344
412.8280, 75.72656
414.0220, 314.5938
415.2160, 181.5938
416.4100, 274.7148
417.6030, 47.96094
418.7970, 10.33203
419.9900, 95.85938
421.1830, 170.5391
422.3760, 107.3789
423.5690, 175.5273
424.7610, 40.51172
425.9540, 228.8125
427.1460, 67.26562
428.3380, 138.8750
429.5300, 104.6406
430.7220, 78.18359
431.9140, 124.6172
433.1050, 99.85547
434.2970, 100.2461
435.4880, 158.8047
436.6790, 181.4961
437.8700, 185.0859
439.0610, 262.3828
440.2510, 247.5391
441.4420, 217.8438
442.6320, 368.3047
443.8220, 240.9141
445.0120, 190.8320
446.2020, 429.8789
447.3910, 313.9219
448.5810, 282.5391
449.7700, 226.4414
450.9600, 34.06641
452.1490, 246.5664
453.3370, 320.3438
454.5260, 278.2695
455.7150, 99.33594
456.9030, 43.45312
458.0910, 36.10547
459.2800, 130.3828
460.4670, 58.98438
461.6550, 364.5586
462.8430, 5.515625
464.0300, 92.97656
465.2180, 235.7422
466.4050, 28.58984
467.5920, 239.0781
468.7790, 259.1289
469.9650, 202.9688
471.1520, 240.1836
472.3380, 103.5156
473.5250, 176.7109
474.7110, 65.90234
475.8970, 28.44531
477.0820, 19.15234
478.2680, 169.8906
479.4540, 319.7656
480.6390, 8.218750
481.8240, 120.0586
483.0090, 165.2148
484.1940, 253.6289
485.3780, 199.1914
486.5630, 379.8867
487.7470, 264.0234
488.9320, 272.8945
490.1160, 103.8516
491.3000, 184.1250
492.4830, 135.5391
493.6670, 90.09375
494.8500, 114.7617
496.0340, 87.75000
497.2170, 88.63281
498.4000, 148.7656
499.5820, 119.0391
500.7650, 110.3047
501.9480, 279.0078
503.1300, 73.73438
504.3120, 67.60156
505.4940, 105.6016
506.6760, 325.7461
507.8580, 52.01953
509.0390, 255.4414
510.2210, 102.0000
511.4020, 87.69141
512.5830, 304.5195
513.7640, 99.48828
514.9450, 28.58984
516.1250, 203.8320
517.3060, 282.2070
518.4860, 383.7188
519.6660, 126.3711
520.8460, 371.1562
522.0260, 209.0781
523.2060, 172.1328
524.3850, 452.3672
525.5650, 146.7539
526.7440, 401.2695
527.9230, 460.9727
529.1020, 384.8086
530.2810, 144.7773
531.4590, 467.8828
532.6380, 24.86719
533.8160, 69.50000
534.9940, 294.0273
536.1720, 230.7109
537.3500, 51.47656
538.5270, 214.4570
539.7050, 228.5312
540.8820, 185.7578
542.0590, 392.1172
543.2360, 488.6133
544.4130, 788.2383
545.5900, 692.9961
546.7660, 709.8867
547.9430, 1255.918
549.1190, 1293.078
550.2950, 1554.371
551.4710, 1227.797
552.6470, 1003.359
553.8220, 1424.969
554.9980, 1027.789
556.1730, 936.7344
557.3480, 897.8281
558.5230, 735.0469
559.6980, 715.3945
560.8730, 552.1562
562.0470, 145.7695
563.2220, 347.5039
564.3960, 220.3750
565.5700, 124.3711
566.7440, 235.4961
567.9170, 143.7500
569.0910, 121.3711
570.2640, 285.8789
571.4380, 53.51953
572.6110, 195.2812
573.7840, 183.1719
574.9570, 63.19141
576.1290, 50.86719
577.3020, 234.1367
578.4740, 21.52734
579.6460, 42.04688
580.8180, 288.6914
581.9900, 225.4570
583.1620, 238.2109
584.3330, 75.22656
585.5040, 100.6367
586.6760, 12.58984
587.8470, 277.9844
589.0180, 80.54297
590.1880, 200.1719
591.3590, 158.4375
592.5290, 192.7539
593.7000, 56.60938
594.8700, 46.58984
596.0400, 43.19531
597.2090, 44.91797
598.3790, 69.70312
599.5490, 125.6914
600.7180, 188.2734
601.8870, 107.9766
603.0560, 157.0547
604.2250, 69.08594
605.3940, 78.00000
606.5620, 71.10156
607.7300, 37.67578
608.8990, 72.35938
610.0670, 20.91016
611.2350, 2.425781
612.4020, 25.05469
613.5700, 78.20312
614.7370, 9.937500
615.9050, 123.7227
617.0720, 258.3594
618.2390, 217.5586
619.4060, 218.8711
620.5720, 80.29297
621.7390, 314.7422
622.9050, 375.6875
624.0710, 273.4531
625.2370, 272.4609
626.4030, 304.1328
627.5690, 488.7656
628.7340, 343.6797
629.9000, 202.0078
631.0650, 152.1211
632.2300, 384.6094
633.3950, 541.2695
634.5600, 314.3750
635.7240, 653.2578
636.8890, 641.6133
638.0530, 826.7148
639.2170, 865.9258
640.3810, 818.2930
641.5450, 1062.719
642.7080, 952.8672
643.8720, 1406.512
645.0350, 1715.262
646.1980, 1807.137
647.3610, 2241.078
648.5240, 2387.758
649.6870, 2949.949
650.8490, 3675.250
652.0120, 4282.656
653.1740, 5085.406
654.3360, 5979.027
655.4980, 6324.750
656.6600, 6421.582
657.8210, 6665.527
658.9830, 6464.660
660.1440, 6023.855
661.3050, 5719.113
662.4660, 5275.484
663.6270, 4866.418
664.7870, 4214.789
665.9480, 3446.461
667.1080, 2968.199
668.2680, 2494.078
669.4280, 2136.051
670.5880, 1756.137
671.7480, 1438.355
672.9070, 1376.977
674.0670, 1227.203
675.2260, 964.2969
676.3850, 802.8711
677.5440, 934.0625
678.7030, 747.4727
679.8610, 767.8477
681.0200, 676.5664
682.1780, 447.6250
683.3360, 801.7812
684.4940, 644.0312
685.6520, 223.3750
686.8090, 546.9375
687.9670, 774.4727
689.1240, 492.0977
690.2810, 537.8203
691.4380, 348.6289
692.5950, 442.5352
693.7520, 471.5352
694.9080, 348.6250
696.0650, 463.9766
697.2210, 202.2539
698.3770, 310.6406
699.5330, 69.11328
700.6880, 249.6719
701.8440, 447.3281
702.9990, 285.0664
704.1550, 103.8984
705.3100, 295.8242
706.4650, 352.8359
707.6190, 77.93359
708.7740, 133.1211
709.9290, 265.3906
711.0830, 434.7539
712.2370, 420.2031
713.3910, 179.7383
714.5450, 34.63281
715.6980, 146.0391
716.8520, 355.8008
718.0050, 157.6445
719.1580, 168.5742
720.3110, 306.5898
721.4640, 24.69141
722.6170, 279.8633
723.7700, 251.1211
724.9220, 209.2930
726.0740, 101.9727
727.2260, 139.4844
728.3780, 23.66016
729.5300, 297.3867
730.6810, 108.9766
731.8330, 164.2930
732.9840, 308.2070
734.1350, 299.2070
735.2860, 203.2891
736.4370, 99.45703
737.5880, 142.7070
738.7380, 194.0430
739.8880, 127.4648
741.0390, 144.8164
742.1890, 45.60156
743.3380, 319.8633
744.4880, 1.511719
745.6380, 137.2031
746.7870, 243.9961
747.9360, 46.44141
749.0850, 285.3125
750.2340, 364.7891
751.3830, 27.85938
752.5310, 190.0391
753.6800, 147.2422
754.8280, 127.5898
755.9760, 287.0195
757.1240, 132.5273
758.2720, 249.1172
759.4190, 11.78516
760.5670, 82.51562
761.7140, 457.3320
762.8610, 41.24609
764.0080, 157.2109
765.1550, 90.25391
766.3020, 20.62500
767.4480, 323.5391
768.5950, 63.78125
769.7410, 52.09375
770.8870, 173.4766
772.0330, 6.937500
773.1780, 268.4531
774.3240, 11.95703
775.4690, 307.6719
776.6140, 202.3867
777.7590, 15.17188
778.9040, 182.0156
780.0490, 107.0586
781.1940, 151.8594
782.3380, 235.8594
783.4820, 143.7305
784.6260, 57.87891
785.7700, 78.08984
786.9140, 255.3711
788.0580, 363.7266
789.2010, 238.1953
790.3450, 105.8398
791.4880, 176.4141
792.6310, 150.0625
793.7730, 61.27344
794.9160, 230.0586
796.0590, 128.9141
797.2010, 134.8555
798.3430, 227.8555
799.4850, 151.0039
800.6270, 134.8516
801.7690, 6.480469
802.9100, 176.6484
804.0520, 162.1133
805.1930, 402.6172
806.3340, 183.7969
807.4750, 405.0703
808.6160, 27.49219
809.7560, 160.2891
810.8970, 11.95312
812.0370, 44.36719
813.1770, 333.2344
814.3170, 248.9062
815.4570, 85.02344
816.5960, 24.16016
817.7360, 79.67969
818.8750, 161.5781
820.0140, 384.5664
821.1530, 333.6211
822.2920, 178.7422
823.4310, 24.93359
824.5690, 430.1719
825.7070, 203.4961
826.8460, 330.8750
827.9840, 484.3125
829.1220, 283.8242
830.2590, 211.4023
831.3970, 282.0469
832.5340, 22.76172
833.6710, 332.9922
834.8080, 168.6602
835.9450, 201.5508
837.0820, 558.2266
838.2190, 340.2539
839.3550, 669.3438
840.4910, 726.5039
841.6270, 760.7266
842.7630, 1256.027
843.8990, 733.3945
845.0350, 1118.586
846.1700, 1067.086
847.3060, 1012.648
848.4410, 1130.273
849.5760, 950.9648
850.7100, 714.7188
851.8450, 726.0078
852.9800, 530.8945
854.1140, 364.8555
855.2480, 548.8789
856.3820, 514.9688
857.5160, 463.1250
858.6500, 367.4805
859.7830, 238.7656
860.9170, 269.9648
862.0500, 104.5391
863.1830, 235.9766
864.3160, 262.5273
865.4480, 85.35547
866.5810, 72.07812
867.7130, 95.60156
868.8460, 322.7188
869.9780, 217.6289
871.1100, 423.6055
872.2410, 582.6406
873.3730, 183.6914
874.5050, 575.8477
875.6360, 303.0781
876.7670, 271.3633
877.8980, 134.4844
879.0290, 327.9570
880.1590, 381.4648
881.2900, 302.3633
882.4200, 237.0000
883.5500, 380.7109
884.6800, 277.6328
885.8100, 297.6367
886.9400, 342.4062
888.0690, 303.9844
889.1990, 240.0352
890.3280, 329.1602
891.4570, 276.3516
892.5860, 244.8008
893.7140, 373.9258
894.8430, 203.3086
895.9710, 261.7266
897.1000, 367.9609
898.2280, 122.5273
899.3560, 465.0391
900.4830, 428.7461
901.6110, 264.3047
902.7380, 443.4336
903.8660, 409.3242
904.9930, 157.5977
906.1200, 191.6758
907.2460, 273.7500
908.3730, 483.6016
909.5000, 429.8594
910.6260, 291.8125
911.7520, 201.1914
912.8780, 386.6289
914.0040, 367.0859
915.1290, 198.6484
916.2550, 261.6562
917.3800, 177.3477
918.5050, 46.90234
919.6300, 381.8750
920.7550, 229.7578
921.8800, 450.0625
923.0040, 341.0273
924.1290, 11.05859
925.2530, 82.13281
926.3770, 363.0391
927.5010, 242.2344
928.6250, 62.50391
929.7480, 253.7891
930.8720, 209.1250
931.9950, 96.45312
933.1180, 131.8789
934.2410, 86.28125
935.3640, 268.9805
936.4860, 61.14453
937.6090, 187.0391
938.7310, 180.7930
939.8530, 18.63672
940.9750, 4.484375
942.0970, 28.53125
943.2180, 143.4062
944.3400, 31.39453
945.4610, 43.48047
946.5820, 243.7734
947.7030, 197.3750
948.8240, 128.6523
949.9450, 17.99609
951.0650, 160.7539
952.1860, 252.7109
953.3060, 423.4805
954.4260, 394.2734
955.5460, 419.4492
956.6650, 326.6211
957.7850, 293.3828
958.9040, 204.0742
960.0230, 54.96094
961.1420, 292.9023
962.2610, 351.9023
963.3800, 345.9688
964.4990, 247.0859
965.6170, 61.26953
966.7350, 192.5117
967.8530, 1.199219
968.9710, 74.84766
970.0890, 184.5312
971.2070, 367.9688
972.3240, 333.4688
973.4410, 271.0703
974.5580, 292.6875
975.6750, 328.3633
976.7920, 514.8711
977.9090, 312.6680
979.0250, 476.5195
980.1410, 217.4297
981.2580, 697.3984
982.3740, 570.4258
983.4890, 260.5117
984.6050, 802.6523
985.7200, 727.8516
986.8360, 422.1328
987.9510, 745.7188
989.0660, 533.1094
990.1810, 816.5547
991.2950, 621.0586
992.4100, 1092.613
993.5240, 1106.238
994.6390, 949.9180
995.7530, 1235.652
996.8660, 1225.059
997.9800, 1606.914
999.0940, 1964.832
1000.207, 2448.191
1001.320, 3280.973
1002.433, 4086.582
1003.546, 5001.730
1004.659, 6627.930
1005.772, 8327.180
1006.884, 10125.49
1007.996, 12472.85
1009.108, 13981.27
1010.220, 14936.75
1011.332, 15189.28
1012.444, 14274.88
1013.555, 13366.84
1014.666, 11525.86
1015.777, 10070.74
1016.888, 8178.832
1017.999, 6667.910
1019.110, 4935.957
1020.220, 4173.152
1021.331, 3122.305
1022.441, 2699.004
1023.551, 2246.168
1024.661, 1911.234
1025.770, 1723.969
1026.880, 1767.035
1027.989, 1565.520
1029.098, 1550.457
1030.207, 1654.102
1031.316, 1612.781
1032.425, 1687.004
1033.533, 1832.809
1034.642, 2061.664
1035.750, 2090.598
1036.858, 2232.602
1037.966, 2157.641
1039.073, 2359.719
1040.181, 2042.848
1041.288, 2128.441
1042.396, 1964.684
1043.503, 1679.320
1044.610, 1475.809
1045.716, 1045.219
1046.823, 1091.680
1047.929, 839.4883
1049.036, 760.4805
1050.142, 883.2578
1051.248, 628.9648
1052.353, 355.9219
1053.459, 732.7188
1054.564, 386.5703
1055.670, 388.3984
1056.775, 594.3438
1057.880, 387.3047
1058.985, 286.2031
1060.089, 357.2930
1061.194, 206.4258
1062.298, 243.2266
1063.402, 370.3516
1064.506, 271.2148
1065.610, 255.5312
1066.713, 270.9609
1067.817, 210.2969
1068.920, 294.7617
1070.023, 450.1016
1071.126, 479.7070
1072.229, 459.8320
1073.332, 441.9648
1074.435, 248.9141
1075.537, 338.8281
1076.639, 75.71094
1077.741, 155.3320
1078.843, 242.0938
1079.945, 278.1367
1081.046, 323.9961
1082.148, 224.1523
1083.249, 299.5859
1084.350, 175.8281
1085.451, 343.1367
1086.551, 69.51172
1087.652, 383.8516
1088.752, 153.2617
1089.853, 270.2266
1090.953, 239.7227
1092.053, 202.2695
1093.152, 209.8438
1094.252, 278.4766
1095.351, 264.9570
1096.451, 317.6680
1097.550, 224.4141
1098.649, 213.3672
1099.748, 14.04297
1100.846, 145.4492
1101.945, 170.5273
1103.043, 216.6367
1104.141, 375.2891
1105.239, 40.33203
1106.337, 199.4062
1107.434, 483.5273
1108.532, 60.44531
1109.629, 335.7266
1110.726, 70.93750
1111.823, 178.1875
1112.920, 195.5469
1114.017, 189.8750
1115.113, 293.2578
1116.210, 285.7500
1117.306, 249.1875
1118.402, 278.8125
1119.498, 49.67578
1120.593, 629.8516
1121.689, 473.4141
1122.784, 129.0117
1123.879, 591.6445
1124.974, 597.4062
1126.069, 349.1094
1127.164, 166.8594
1128.259, 168.6562
1129.353, 82.20703
1130.447, 102.5234
1131.541, 215.4102
1132.635, 35.34766
1133.729, 255.5977
1134.822, 243.5820
1135.916, 192.5938
1137.009, 163.6406
1138.102, 73.72266
1139.195, 79.84375
1140.288, 145.9922
1141.380, 205.1719
1142.473, 155.1562
1143.565, 106.4062
1144.657, 19.83984
1145.749, 21.73047
1146.841, 81.32812
1147.932, 32.35156
1149.024, 50.37500
1150.115, 120.8242
1151.206, 49.67969
1152.297, 154.8086
1153.388, 23.65625
1154.479, 11.39453
1155.569, 27.61328
1156.659, 134.1133
1157.750, 204.7109
1158.839, 340.3828
1159.929, 16.84766
1161.019, 75.32812
1162.108, 136.0625
1163.198, 53.08594
1164.287, 192.1406
1165.376, 275.1172
1166.465, 75.93359
1167.553, 74.78125
1168.642, 80.44141
1169.730, 321.3398
1170.818, 314.2617
1171.906, 219.0586
1172.994, 356.9570
1174.082, 33.51172
1175.170, 58.67969
1176.257, 414.1953
1177.344, 344.6406
1178.431, 42.12891
1179.518, 27.17188
1180.605, 6.992188
1181.691, 111.0820
1182.778, 171.7109
1183.864, 191.1211
1184.950, 243.2734
1186.036, 1.546875
1187.122, 292.6406
1188.207, 102.8516
1189.292, 194.0898
1190.378, 216.4062
1191.463, 207.6836
1192.548, 293.9805
1193.632, 239.3203
1194.717, 20.68359
1195.801, 195.0586
1196.886, 82.44922
1197.970, 272.9648
1199.054, 268.3945
1200.137, 332.8477
1201.221, 115.3203
1202.305, 469.1133
1203.388, 42.62500
1204.471, 293.1484
1205.554, 159.6992
1206.637, 182.2852
1207.719, 280.8867
1208.802, 328.5117
1209.884, 122.5430
1210.966, 46.79688
1212.048, 124.3516
1213.130, 29.00781
1214.212, 156.6914
1215.293, 187.3906
1216.374, 189.1016
1217.456, 122.7617
1218.536, 312.5000
1219.617, 39.73438
1220.698, 140.5000
1221.778, 277.7773
1222.859, 283.5742
1223.939, 200.3867
1225.019, 15.21484
1226.099, 203.0508
1227.178, 441.8984
1228.258, 375.8828
1229.337, 191.7539
1230.417, 128.5078
1231.496, 249.4297
1232.574, 91.38672
1233.653, 31.58594
1234.732, 280.5625
1235.810, 330.5039
1236.888, 200.9336
1237.966, 15.94141
1239.044, 145.1914
1240.122, 217.2109
1241.199, 133.2500
1242.277, 112.2969
1243.354, 132.5352
1244.431, 127.6016
1245.508, 111.5039
1246.585, 155.7734
1247.661, 99.87500
1248.738, 137.9844
1249.814, 179.1445
1250.890, 173.9883
1251.966, 198.1289
1253.042, 173.5664
1254.117, 117.7930
1255.193, 232.0391
1256.268, 139.3555
1257.343, 8.542969
1258.418, 7.273438
1259.493, 63.90625
1260.567, 156.3633
1261.642, 82.55078
1262.716, 174.0547
1263.790, 202.3672
1264.864, 199.5781
1265.938, 320.9062
1267.011, 229.3242
1268.085, 391.5547
1269.158, 268.5664
1270.231, 332.8086
1271.304, 33.27344
1272.377, 205.5273
1273.450, 200.2148
1274.522, 98.73047
1275.594, 53.73828
1276.666, 48.89453
1277.738, 58.15234
1278.810, 171.2188
1279.882, 301.3789
1280.953, 238.4531
1282.025, 256.6523
1283.096, 45.99609
1284.167, 111.7578
1285.238, 126.3984
1286.308, 20.71875
1287.379, 154.1602
1288.449, 89.66406
1289.519, 3.125000
1290.589, 292.0898
1291.659, 145.1992
1292.729, 33.18359
1293.798, 118.9219
1294.868, 292.0195
1295.937, 179.6250
1297.006, 38.27344
1298.075, 312.6523
1299.143, 202.9648
1300.212, 46.07422
1301.280, 117.7656
1302.348, 42.23047
1303.416, 106.4023
1304.484, 65.35547
1305.552, 78.08594
1306.620, 75.17578
1307.687, 213.1641
1308.754, 38.83203
1309.821, 282.8008
1310.888, 67.88672
1311.955, 100.9688
1313.021, 190.0508
1314.088, 330.1328
1315.154, 211.2930
1316.220, 179.3828
1317.286, 369.4688
1318.352, 153.5586
1319.417, 290.6445
1320.483, 228.7344
1321.548, 297.3555
1322.613, 294.4375
1323.678, 287.9258
1324.743, 295.0059
1325.807, 146.0332
1326.872, 351.1211
1327.936, 189.4512
1329.000, 232.5430
1330.064, 99.11523
1331.128, 397.2578
1332.191, 289.9238
1333.255, 207.0156
1334.318, 397.5176
1335.381, 309.6133
1336.444, 287.2402
1337.507, 88.33594
1338.569, 339.4316
1339.632, 71.85742
1340.694, 182.9551
1341.756, 274.7734
1342.818, 170.8691
1343.880, 331.9648
1344.941, 138.0605
1346.003, 298.1719
1347.064, 77.28516
1348.125, 181.8770
1349.186, 74.98828
1350.247, 300.1094
1351.308, 225.0059
1352.368, 423.1113
1353.428, 245.4297
1354.489, 368.5352
1355.549, 145.6387
1356.608, 180.3066
1357.668, 253.2031
1358.727, 287.3027
1359.787, 233.4043
1360.846, 123.3496
1361.905, 329.7891
1362.964, 258.8809
1364.022, 86.96484
1365.081, 407.0605
1366.139, 281.2422
1367.197, 285.3047
1368.255, 248.3633
1369.313, 517.4199
1370.371, 136.4863
1371.428, 326.5605
1372.486, 269.5664
1373.543, 184.4883
1374.600, 304.4922
1375.657, 205.2656
1376.713, 420.5156
1377.770, 327.4473
1378.826, 276.3730
1379.882, 112.2969
1380.938, 163.2168
1381.994, 161.0449
1383.050, 145.9590
1384.106, 244.8652
1385.161, 326.7520
1386.216, 388.9219
1387.271, 112.4883
1388.326, 327.3848
1389.381, 199.9590
1390.435, 245.8535
1391.490, 334.7441
1392.544, 150.6094
1393.598, 130.4668
1394.652, 318.3203
1395.705, 43.16797
1396.759, 387.9883
1397.812, 124.7988
1398.866, 370.1113
1399.919, 201.9141
1400.972, 355.5527
1402.024, 9.107422
1403.077, 288.2734
1404.129, 48.66992
1405.181, 337.4121
1406.233, 246.0898
1407.285, 169.7559
1408.337, 76.41797
1409.389, 87.50000
1410.440, 63.00977
1411.491, 109.4492
1412.542, 125.9512
1413.593, 95.58984
1414.644, 10.43945
1415.695, 26.74609
1416.745, 122.0684
1417.795, 335.6465
1418.845, 338.0801
1419.895, 146.1914
1420.945, 378.6465
1421.995, 6.222656
1423.044, 40.32617
1424.093, 78.07227
1425.142, 96.59766
1426.191, 241.1758
1427.240, 321.9551
1428.289, 213.3613
1429.337, 93.75000
1430.385, 48.45508
1431.433, 31.50195
1432.481, 214.5508
1433.529, 98.57227
1434.577, 282.9883
1435.624, 223.6211
1436.672, 266.0039
1437.719, 418.8457
1438.766, 198.0391
1439.812, 195.3887
1440.859, 206.1348
1441.905, 156.4551
1442.952, 171.8262
1443.998, 254.1328
1445.044, 193.3594
1446.090, 289.6152
1447.135, 39.59766
1448.181, 229.4883
1449.226, 290.0391
1450.271, 218.2070
1451.316, 373.2754
1452.361, 340.4316
1453.405, 80.27344
1454.450, 412.4199
1455.494, 45.53516
1456.538, 126.2285
1457.582, 277.7988
1458.626, 256.9180
1459.670, 18.99219
1460.713, 207.9414
1461.757, 39.50000
1462.800, 360.0234
1463.843, 250.0859
1464.886, 118.1484
1465.928, 250.0586
1466.971, 15.94922
1468.013, 202.7637
1469.055, 184.7461
1470.097, 346.2070
1471.139, 317.1758
1472.181, 333.5684
1473.222, 193.8730
1474.263, 274.8184
1475.305, 132.7520
1476.346, 21.66992
1477.386, 155.2188
1478.427, 129.9297
1479.468, 257.6406
1480.508, 258.5469
1481.548, 40.09375
1482.588, 51.99805
1483.628, 156.7500
1484.668, 169.3730
1485.707, 417.1699
1486.747, 173.7305
1487.786, 255.6719
1488.825, 291.1562
1489.864, 118.8633
1490.902, 144.8145
1491.941, 329.7246
1492.979, 229.6035
1494.017, 232.9043
1495.055, 95.88672
1496.093, 111.6699
1497.131, 412.6289
1498.168, 218.1172
1499.206, 220.6328
1500.243, 16.23828
1501.280, 69.21680
1502.317, 153.4336
1503.354, 249.0410
1504.390, 212.4277
1505.426, 271.1660
1506.463, 296.5039
1507.499, 326.3652
1508.535, 328.3887
1509.570, 318.1289
1510.606, 295.8164
1511.641, 73.56445
1512.676, 283.3047
1513.711, 112.5176
1514.746, 312.1895
1515.781, 360.7344
1516.816, 157.0918
1517.850, 196.4199
1518.884, 191.8926
1519.918, 354.1406
1520.952, 152.0508
1521.986, 233.3164
1523.019, 54.54492
1524.053, 264.7344
1525.086, 273.8203
1526.119, 127.8203
1527.152, 217.8379
1528.185, 384.0898
1529.217, 86.66016
1530.250, 320.1875
1531.282, 213.6543
1532.314, 345.0977
1533.346, 124.6055
1534.377, 350.7676
1535.409, 183.1211
1536.440, 117.6250
1537.472, 119.0293
1538.503, 40.82617
1539.534, 206.5742
1540.564, 204.2402
1541.595, 157.8145
1542.625, 19.21289
1543.656, 94.17969
1544.686, 63.50586
1545.716, 11.94727
1546.745, 219.3105
1547.775, 416.8086
1548.804, 273.8438
1549.834, 68.19922
1550.863, 188.8242
1551.892, 260.7852
1552.920, 171.7676
1553.949, 109.7812
1554.977, 263.8379
1556.006, 223.2539
1557.034, 338.5098
1558.062, 212.7578
1559.089, 176.3574
1560.117, 168.0332
1561.144, 83.64062
1562.172, 54.38672
1563.199, 294.3887
1564.226, 8.173828
1565.252, 130.6641
1566.279, 65.98047
1567.305, 402.9316
1568.332, 216.2793
1569.358, 18.04492
1570.384, 195.9512
1571.409, 2.876953
1572.435, 0.0000000E+00
##END=



