##NAMES=Diopside
##RRUFFID=R060276
##IDEAL CHEMISTRY=CaMgSi_2_O_6_
##LOCALITY=Inagli, Yakutia, Siberia, Russia
##OWNER=RRUFF
##SOURCE=Herb Obodda
##DESCRIPTION=Transparent green cleavage fragment
##STATUS=The identification of this mineral has been confirmed by X-ray diffraction and chemical analysis
##URL=rruff.info/R060276
##MEASURED CHEMISTRY=(Ca_0.97_Na_0.03_)_Σ=1_(Mg_0.96_Fe_0.03_Cr_0.01_)_Σ=1_(Si_1.98_Al_0.02_)_Σ=2_O_6_
##PIN_ID=L01049
##ORIENTATION=Laser parallel to a* (1 0 0). Fiducial mark perpendicular to laser is parallel to -b [0 -1 0]
109.5120, 0.0000000E+00
110.7440, 161.5010
111.9760, 10.62598
113.2080, 35.36328
114.4400, 165.3330
115.6710, 292.4824
116.9030, 132.5005
118.1340, 331.7573
119.3650, 396.8359
120.5960, 466.6890
121.8270, 663.7349
123.0580, 1045.151
124.2880, 1435.317
125.5190, 1968.513
126.7490, 2915.230
127.9790, 4288.107
129.2090, 6101.880
130.4390, 7789.500
131.6680, 9116.080
132.8980, 9763.460
134.1270, 10706.57
135.3560, 11763.53
136.5850, 13091.03
137.8140, 14276.08
139.0430, 15207.71
140.2710, 15624.95
141.5000, 15416.83
142.7280, 14185.40
143.9560, 11959.66
145.1840, 9503.645
146.4120, 6846.377
147.6390, 4789.875
148.8670, 3297.196
150.0940, 2404.281
151.3210, 1764.015
152.5490, 1192.771
153.7750, 933.4072
155.0020, 711.6885
156.2290, 537.5576
157.4550, 444.0552
158.6810, 252.2432
159.9080, 257.1201
161.1340, 351.5337
162.3590, 174.3545
163.5850, 265.6772
164.8110, 292.7329
166.0360, 270.6992
167.2610, 248.5854
168.4860, 351.3960
169.7110, 368.1392
170.9360, 573.8145
172.1610, 580.4150
173.3850, 729.9399
174.6100, 698.3921
175.8340, 700.7764
177.0580, 888.0962
178.2820, 954.3564
179.5050, 1074.559
180.7290, 1072.708
181.9520, 1164.806
183.1760, 1085.886
184.3990, 1143.924
185.6220, 877.9136
186.8450, 688.1035
188.0670, 556.0322
189.2900, 420.2090
190.5120, 465.9834
191.7340, 380.6475
192.9560, 506.2603
194.1780, 463.7832
195.4000, 433.5449
196.6220, 471.7563
197.8430, 334.5625
199.0640, 336.0410
200.2860, 285.3418
201.5070, 317.7515
202.7270, 216.2236
203.9480, 111.7881
205.1690, 40.57031
206.3890, 100.8843
207.6090, 139.4683
208.8290, 53.40967
210.0490, 124.6396
211.2690, 42.85107
212.4890, 29.95508
213.7080, 26.22217
214.9280, 22.61670
216.1470, 132.4707
217.3660, 155.3389
218.5850, 320.2212
219.8030, 417.1152
221.0220, 475.0215
222.2400, 580.9731
223.4590, 633.9487
224.6770, 783.9287
225.8950, 909.9077
227.1120, 983.9023
228.3300, 1036.036
229.5480, 975.9077
230.7650, 1055.878
231.9820, 953.6816
233.1990, 929.3252
234.4160, 812.8711
235.6330, 802.3740
236.8490, 680.8711
238.0660, 506.3701
239.2820, 490.8711
240.4980, 495.3740
241.7140, 590.8789
242.9300, 696.3853
244.1460, 822.8931
245.3610, 1035.403
246.5770, 1325.914
247.7920, 1339.425
249.0070, 1357.938
250.2220, 1657.454
251.4370, 1705.969
252.6510, 1754.486
253.8660, 1777.005
255.0800, 1796.524
256.2940, 1766.240
257.5080, 1680.667
258.7220, 1744.302
259.9360, 1168.345
261.1490, 655.3589
262.3630, 337.5757
263.5760, 139.9551
264.7890, 27.46729
266.0020, 60.08594
267.2150, 0.2080080
268.4270, 68.43652
269.6400, 85.63379
270.8520, 148.8179
272.0640, 99.01562
273.2760, 149.2227
274.4880, 111.4575
275.7000, 96.67920
276.9120, 87.96094
278.1230, 96.25146
279.3340, 17.40771
280.5450, 101.9492
281.7560, 44.75879
282.9670, 27.30273
284.1780, 7.878906
285.3880, 26.35303
286.5980, 58.92432
287.8090, 113.5444
289.0190, 183.5684
290.2290, 241.5605
291.4380, 343.3560
292.6480, 358.7729
293.8570, 461.0742
295.0670, 495.1064
296.2760, 663.2495
297.4850, 756.3037
298.6930, 835.9775
299.9020, 916.3057
301.1110, 1058.426
302.3190, 1281.514
303.5270, 1356.573
304.7350, 1619.301
305.9430, 1866.850
307.1510, 2344.291
308.3580, 2790.666
309.5660, 3488.023
310.7730, 4485.369
311.9800, 5662.726
313.1870, 7185.070
314.3940, 8600.404
315.6010, 10281.73
316.8070, 11626.05
318.0130, 13134.37
319.2200, 14234.68
320.4260, 15246.98
321.6310, 16059.28
322.8370, 16910.56
324.0430, 16908.84
325.2480, 16241.10
326.4540, 15047.36
327.6590, 13662.61
328.8640, 11693.85
330.0680, 9595.085
331.2730, 7945.312
332.4780, 6322.087
333.6820, 5389.911
334.8860, 4505.133
336.0900, 3744.116
337.2940, 3291.071
338.4980, 2883.849
339.7010, 2491.437
340.9050, 2388.375
342.1080, 2163.176
343.3110, 2061.077
344.5140, 2085.290
345.7170, 2125.225
346.9200, 2042.019
348.1220, 2134.517
349.3240, 2186.685
350.5270, 2155.922
351.7290, 2239.386
352.9310, 2377.438
354.1320, 2422.901
355.3340, 2541.902
356.5350, 2611.046
357.7370, 2866.709
358.9380, 3057.912
360.1390, 2994.522
361.3400, 3109.715
362.5400, 3050.001
363.7410, 3080.451
364.9410, 2986.897
366.1410, 2919.341
367.3410, 2957.783
368.5410, 2741.222
369.7410, 2712.659
370.9400, 2570.092
372.1400, 2587.523
373.3390, 2468.951
374.5380, 2560.376
375.7370, 2815.799
376.9360, 3144.220
378.1350, 3643.640
379.3330, 4307.060
380.5310, 5104.478
381.7300, 6077.897
382.9280, 6946.315
384.1260, 7969.732
385.3230, 8609.151
386.5210, 9274.566
387.7180, 9941.984
388.9160, 10300.40
390.1130, 10494.82
391.3100, 10178.24
392.5060, 9483.659
393.7030, 8517.075
394.9000, 7349.492
396.0960, 6075.910
397.2920, 4854.328
398.4880, 3754.744
399.6840, 2899.161
400.8800, 2323.563
402.0750, 1791.967
403.2710, 1448.379
404.4660, 1118.792
405.6610, 1000.197
406.8560, 772.5967
408.0510, 555.8843
409.2450, 548.6729
410.4400, 451.6064
411.6340, 322.5205
412.8280, 362.1069
414.0220, 295.5679
415.2160, 125.0156
416.4100, 138.5415
417.6030, 117.8677
418.7970, 67.51709
419.9900, 205.0474
421.1830, 58.07910
422.3760, 139.5430
423.5690, 147.9414
424.7610, 15.95801
425.9540, 143.6714
427.1460, 30.23047
428.3380, 75.99854
429.5300, 118.5137
430.7220, 33.75439
431.9140, 106.1704
433.1050, 27.63574
434.2970, 42.46387
435.4880, 18.67822
436.6790, 55.81201
437.8700, 11.06006
439.0610, 32.94775
440.2510, 12.85938
441.4420, 25.78662
442.6320, 2.266113
443.8220, 79.30957
445.0120, 61.78271
446.2020, 20.53906
447.3910, 86.56396
448.5810, 28.58496
449.7700, 51.68799
450.9600, 33.70117
452.1490, 44.47949
453.3370, 131.7837
454.5260, 110.7637
455.7150, 136.7656
456.9030, 208.8252
458.0910, 116.8770
459.2800, 237.6289
460.4670, 243.4072
461.6550, 256.6152
462.8430, 193.7378
464.0300, 254.8232
465.2180, 137.8350
466.4050, 214.8125
467.5920, 193.7876
468.7790, 196.7598
469.9650, 165.7305
471.1520, 140.1797
472.3380, 52.67383
473.5250, 80.67627
474.7110, 27.34180
475.8970, 46.37744
477.0820, 6.562988
478.2680, 58.51758
479.4540, 2.471191
480.6390, 9.424805
481.8240, 69.37646
483.0090, 5.671875
484.1940, 23.72412
485.3780, 5.788086
486.5630, 12.85547
487.7470, 7.024414
488.9320, 3.851074
490.1160, 18.03076
491.3000, 3.010742
492.4830, 36.99121
493.6670, 53.99170
494.8500, 152.0269
496.0340, 305.1191
497.2170, 450.2334
498.4000, 605.3896
499.5820, 764.5654
500.7650, 1027.763
501.9480, 1200.984
503.1300, 1373.228
504.3120, 1649.473
505.4940, 1851.718
506.6760, 1964.979
507.8580, 2233.271
509.0390, 2058.574
510.2210, 2105.891
511.4020, 1797.217
512.5830, 1682.543
513.7640, 1349.872
514.9450, 1125.202
516.1250, 930.5317
517.3060, 970.8730
518.4860, 826.2173
519.6660, 840.5830
520.8460, 794.9497
522.0260, 693.3369
523.2060, 814.7295
524.3850, 751.1309
525.5650, 771.5718
526.7440, 783.0386
527.9230, 774.5830
529.1020, 842.9976
530.2810, 816.4980
531.4590, 777.9966
532.6380, 830.5020
533.8160, 697.0039
534.9940, 572.5059
536.1720, 617.0127
537.3500, 591.5166
538.5270, 562.0200
539.7050, 460.5210
540.8820, 489.0234
542.0590, 578.5234
543.2360, 503.0215
544.4130, 560.5176
545.5900, 553.0117
546.7660, 488.5039
547.9430, 506.9927
549.1190, 398.4883
550.2950, 542.9800
551.4710, 618.4741
552.6470, 468.9663
553.8220, 463.4639
554.9980, 426.9839
556.1730, 464.5308
557.3480, 427.1226
558.5230, 398.7446
559.6980, 397.4116
560.8730, 399.0762
562.0470, 340.8076
563.2220, 349.5493
564.3960, 298.3403
565.5700, 438.1328
566.7440, 322.8281
567.9170, 155.0928
569.0910, 282.5718
570.2640, 352.0522
571.4380, 366.5835
572.6110, 159.6216
573.7840, 238.0942
574.9570, 201.3359
576.1290, 159.0903
577.3020, 277.3540
578.4740, 104.2705
579.6460, 219.3647
580.8180, 166.7979
581.9900, 175.7676
583.1620, 174.0776
584.3330, 50.69385
585.5040, 132.4795
586.6760, 1.738281
587.8470, 76.97266
589.0180, 161.7446
590.1880, 2.487305
591.3590, 120.2510
592.5290, 29.35742
593.7000, 8.768066
594.8700, 85.48145
596.0400, 37.32715
597.2090, 11.02539
598.3790, 12.71924
599.5490, 32.59229
600.7180, 32.92432
601.8870, 2.185059
603.0560, 0.5981450
604.2250, 3.663086
605.3940, 21.36865
606.5620, 39.55322
607.7300, 60.33984
608.8990, 87.05078
610.0670, 147.9131
611.2350, 167.3071
612.4020, 155.0234
613.5700, 28.40527
614.7370, 167.5396
615.9050, 261.8657
617.0720, 164.2554
618.2390, 307.0830
619.4060, 324.9033
620.5720, 373.0005
621.7390, 345.4775
622.9050, 415.3154
624.0710, 460.7266
625.2370, 582.3364
626.4030, 720.7002
627.5690, 739.7363
628.7340, 884.4448
629.9000, 967.8774
631.0650, 972.3809
632.2300, 1099.948
633.3950, 1100.676
634.5600, 1312.149
635.7240, 1388.336
636.8890, 1710.794
638.0530, 1784.523
639.2170, 2011.984
640.3810, 2126.726
641.5450, 2323.287
642.7080, 2598.934
643.8720, 3019.629
645.0350, 3455.162
646.1980, 3922.415
647.3610, 4630.967
648.5240, 5436.837
649.6870, 6238.548
650.8490, 7562.352
652.0120, 8959.861
653.1740, 11035.87
654.3360, 13348.71
655.4980, 16608.34
656.6600, 20659.10
657.8210, 25105.34
658.9830, 29813.94
660.1440, 34303.50
661.3050, 38684.86
662.4660, 42666.31
663.6270, 45618.05
664.7870, 47890.74
665.9480, 48353.27
667.1080, 47340.55
668.2680, 44464.49
669.4280, 39580.48
670.5880, 34153.79
671.7480, 28792.62
672.9070, 23472.71
674.0670, 18934.08
675.2260, 15322.57
676.3850, 12299.63
677.5440, 10105.94
678.7030, 8380.102
679.8610, 7054.584
681.0200, 6003.694
682.1780, 5308.854
683.3360, 4520.046
684.4940, 3979.211
685.6520, 3440.174
686.8090, 3086.114
687.9670, 2762.847
689.1240, 2447.717
690.2810, 2232.896
691.4380, 1964.801
692.5950, 1802.697
693.7520, 1767.502
694.9080, 1782.290
696.0650, 1545.119
697.2210, 1340.874
698.3770, 1381.611
699.5330, 1276.332
700.6880, 1257.034
701.8440, 1230.720
702.9990, 1195.388
704.1550, 1160.038
705.3100, 1090.833
706.4650, 1033.283
707.6190, 936.8784
708.7740, 938.4565
709.9290, 866.0166
711.0830, 790.5576
712.2370, 661.0898
713.3910, 745.6035
714.5450, 564.1060
715.6980, 592.6025
716.8520, 574.0806
718.0050, 481.5405
719.1580, 500.9854
720.3110, 462.4209
721.4640, 405.8428
722.6170, 363.2534
723.7700, 347.6470
724.9220, 257.0215
726.0740, 274.2158
727.2260, 174.5537
728.3780, 157.8735
729.5300, 189.0879
730.6810, 168.3711
731.8330, 136.6348
732.9840, 272.8159
734.1350, 107.0674
735.2860, 210.2754
736.4370, 167.4038
737.5880, 132.5186
738.7380, 147.9121
739.8880, 106.2583
741.0390, 93.79932
742.1890, 40.11182
743.3380, 50.08398
744.4880, 82.10742
745.6380, 56.14209
746.7870, 103.1572
747.9360, 65.40088
749.0850, 24.13037
750.2340, 15.08057
751.3830, 2.003418
752.5310, 5.866699
753.6800, 51.72314
754.8280, 36.56543
755.9760, 39.60156
757.1240, 62.17578
758.2720, 25.93359
759.4190, 139.6680
760.5670, 52.38525
761.7140, 52.08301
762.8610, 37.76318
764.0080, 61.42773
765.1550, 23.92383
766.3020, 94.31836
767.4480, 40.28027
768.5950, 113.6792
769.7410, 81.13477
770.8870, 59.57275
772.0330, 199.9912
773.1780, 17.60693
774.3240, 129.7534
775.4690, 49.09717
776.6140, 110.4219
777.7590, 44.27100
778.9040, 10.01758
780.0490, 43.80127
781.1940, 42.36230
782.3380, 123.5073
783.4820, 41.36475
784.6260, 92.28760
785.7700, 18.28857
786.9140, 32.32812
788.0580, 18.52002
789.2010, 63.46240
790.3450, 10.32129
791.4880, 14.15820
792.6310, 23.97363
793.7730, 21.22900
794.9160, 2.529785
796.0590, 67.73535
797.2010, 21.93701
798.3430, 65.40771
799.4850, 3.812012
800.6270, 25.24365
801.7690, 136.7129
802.9100, 87.27783
804.0520, 66.08789
805.1930, 95.56055
806.3340, 17.28271
807.4750, 42.96484
808.6160, 16.80273
809.7560, 88.39893
810.8970, 14.58789
812.0370, 14.23926
813.1770, 76.90674
814.3170, 14.04004
815.4570, 42.15771
816.5960, 1.738281
817.7360, 44.34717
818.8750, 27.41943
820.0140, 14.47803
821.1530, 15.52295
822.2920, 58.55371
823.4310, 58.57324
824.5690, 28.41943
825.7070, 96.55811
826.8460, 1.474121
827.9840, 45.47852
829.1220, 42.41943
830.2590, 124.3486
831.3970, 150.2681
832.5340, 42.17676
833.6710, 103.0747
834.8080, 203.9629
835.9450, 122.8403
837.0820, 244.7090
838.2190, 236.5674
839.3550, 396.4165
840.4910, 350.2559
841.6270, 524.0864
842.7630, 615.9072
843.8990, 887.7188
845.0350, 1004.522
846.1700, 1237.317
847.3060, 1607.103
848.4410, 2106.880
849.5760, 2471.649
850.7100, 2733.410
851.8450, 3204.164
852.9800, 3285.910
854.1140, 3567.646
855.2480, 3462.377
856.3820, 3412.099
857.5160, 3145.813
858.6500, 2892.521
859.7830, 2566.222
860.9170, 2114.915
862.0500, 1820.601
863.1830, 1582.282
864.3160, 1390.957
865.4480, 1143.625
866.5810, 998.2871
867.7130, 831.9424
868.8460, 831.5903
869.9780, 704.2354
871.1100, 706.7905
872.2410, 752.4453
873.3730, 550.0952
874.5050, 673.7407
875.6360, 698.3887
876.7670, 694.9473
877.8980, 565.4521
879.0290, 510.6650
880.1590, 551.9814
881.2900, 460.4277
882.4200, 546.7637
883.5500, 520.2920
884.6800, 543.6602
885.8100, 534.4893
886.9400, 541.0137
888.0690, 534.5039
889.1990, 545.8740
890.3280, 493.1758
891.4570, 464.3447
892.5860, 392.5977
893.7140, 386.4512
894.8430, 392.8789
895.9710, 416.4775
897.1000, 394.7910
898.2280, 515.1104
899.3560, 495.3535
900.4830, 419.7158
901.6110, 356.0811
902.7380, 494.0635
903.8660, 344.4590
904.9930, 501.0723
906.1200, 442.5576
907.2460, 462.9619
908.3730, 287.6182
909.5000, 509.5547
910.6260, 417.2139
911.7520, 440.5938
912.8780, 525.2471
914.0040, 613.6162
915.1290, 438.1670
916.2550, 557.6338
917.3800, 441.0488
918.5050, 493.7734
919.6300, 370.4980
920.7550, 320.0557
921.8800, 340.3027
923.0040, 385.7012
924.1290, 433.9990
925.2530, 393.5889
926.3770, 353.6807
927.5010, 205.9287
928.6250, 222.3887
929.7480, 302.7295
930.8720, 222.6035
931.9950, 346.1064
933.1180, 111.6318
934.2410, 254.3604
935.3640, 177.9971
936.4860, 120.3584
937.6090, 273.7979
938.7310, 124.3848
939.8530, 207.2305
940.9750, 126.3945
942.0970, 80.52441
943.2180, 191.3164
944.3400, 86.57812
945.4610, 71.57812
946.5820, 174.3232
947.7030, 87.92578
948.8240, 135.9902
949.9450, 125.8096
951.0650, 29.76172
952.1860, 113.3867
953.3060, 207.4014
954.4260, 143.3779
955.5460, 149.3184
956.6650, 48.29590
957.7850, 207.4717
958.9040, 253.6641
960.0230, 180.0566
961.1420, 290.3086
962.2610, 210.2480
963.3800, 395.4531
964.4990, 340.6631
965.6170, 341.9775
966.7350, 344.3037
967.8530, 288.5820
968.9710, 395.9287
970.0890, 467.2871
971.2070, 591.6592
972.3240, 433.0420
973.4410, 474.4395
974.5580, 587.8467
975.6750, 545.2676
976.7920, 724.6992
977.9090, 625.1445
979.0250, 780.6006
980.1410, 756.0693
981.2580, 819.5498
982.3740, 874.0439
983.4890, 978.5488
984.6050, 969.0645
985.7200, 1154.593
986.8360, 1227.134
987.9510, 1257.688
989.0660, 1415.261
990.1810, 1542.845
991.2950, 1748.443
992.4100, 2077.060
993.5240, 2291.688
994.6390, 2612.328
995.7530, 2916.982
996.8660, 3562.648
997.9800, 3901.326
999.0940, 4951.016
1000.207, 5764.721
1001.320, 7183.436
1002.433, 8824.166
1003.546, 11034.90
1004.659, 13800.66
1005.772, 17071.44
1006.884, 20884.22
1007.996, 24536.03
1009.108, 27818.85
1010.220, 30278.68
1011.332, 31565.52
1012.444, 31881.38
1013.555, 30384.25
1014.666, 27494.13
1015.777, 23753.03
1016.888, 19498.94
1017.999, 15420.87
1019.110, 11876.80
1020.220, 9304.758
1021.331, 7483.844
1022.441, 6007.860
1023.551, 4917.873
1024.661, 4318.901
1025.770, 3655.944
1026.880, 3226.024
1027.989, 3002.117
1029.098, 2697.225
1030.207, 2567.737
1031.316, 2456.117
1032.425, 2348.004
1033.533, 2299.162
1034.642, 2267.116
1035.750, 2272.916
1036.858, 2320.051
1037.966, 2401.530
1039.073, 2530.123
1040.181, 2733.564
1041.288, 2881.891
1042.396, 2972.052
1043.503, 3037.842
1044.610, 3076.194
1045.716, 3065.977
1046.823, 2988.516
1047.929, 2966.131
1049.036, 2809.942
1050.142, 2618.327
1051.248, 2176.816
1052.353, 2166.623
1053.459, 1884.348
1054.564, 1691.668
1055.670, 1521.560
1056.775, 1544.209
1057.880, 1319.141
1058.985, 1247.488
1060.089, 1190.348
1061.194, 982.0068
1062.298, 1092.700
1063.402, 1001.983
1064.506, 847.6680
1065.610, 904.3838
1066.713, 850.6445
1067.817, 809.4424
1068.920, 886.7695
1070.023, 659.7754
1071.126, 730.9414
1072.229, 690.8828
1073.332, 588.0674
1074.435, 692.2090
1075.537, 637.1299
1076.639, 674.0576
1077.741, 702.2021
1078.843, 636.8682
1079.945, 601.8604
1081.046, 611.5156
1082.148, 636.7422
1083.249, 568.7920
1084.350, 524.8486
1085.451, 457.5947
1086.551, 504.6455
1087.652, 589.9385
1088.752, 560.7363
1089.853, 550.1416
1090.953, 512.1436
1092.053, 459.1455
1093.152, 422.1611
1094.252, 371.3125
1095.351, 345.9346
1096.451, 347.8779
1097.550, 351.8848
1098.649, 365.9160
1099.748, 476.9453
1100.846, 464.9746
1101.945, 479.9336
1103.043, 477.5527
1104.141, 429.0459
1105.239, 424.3887
1106.337, 334.4785
1107.434, 327.9268
1108.532, 399.1162
1109.629, 428.3105
1110.726, 287.6748
1111.823, 292.7061
1112.920, 456.9424
1114.017, 385.3174
1115.113, 540.3477
1116.210, 608.3779
1117.306, 575.4043
1118.402, 595.7158
1119.498, 614.1094
1120.593, 740.5977
1121.689, 785.6992
1122.784, 748.3008
1123.879, 742.6230
1124.974, 702.6807
1126.069, 655.9727
1127.164, 613.5244
1128.259, 523.3184
1129.353, 486.3184
1130.447, 369.4609
1131.541, 271.0566
1132.635, 305.0439
1133.729, 359.0420
1134.822, 336.0225
1135.916, 273.0010
1137.009, 296.5781
1138.102, 226.5479
1139.195, 121.6621
1140.288, 369.9229
1141.380, 262.9678
1142.473, 244.2842
1143.565, 177.4219
1144.657, 197.3564
1145.749, 205.7080
1146.841, 141.0049
1147.932, 357.0791
1149.024, 158.2363
1150.115, 324.5107
1151.206, 154.7676
1152.297, 5.660156
1153.388, 29.54199
1154.479, 75.66602
1155.569, 191.3643
1156.659, 152.4590
1157.750, 99.55762
1158.839, 53.48242
1159.929, 67.45117
1161.019, 45.68945
1162.108, 25.48438
1163.198, 14.41406
1164.287, 78.36230
1165.376, 125.4053
1166.465, 80.70117
1167.553, 4.993164
1168.642, 11.14160
1169.730, 22.17773
1170.818, 18.51953
1171.906, 15.56055
1172.994, 57.06641
1174.082, 9.868164
1175.170, 89.67480
1176.257, 35.69629
1177.344, 14.97461
1178.431, 15.00586
1179.518, 32.98828
1180.605, 9.012695
1181.691, 41.74707
1182.778, 14.07617
1183.864, 31.37695
1184.950, 35.72656
1186.036, 9.674805
1187.122, 75.36621
1188.207, 14.01172
1189.292, 16.29199
1190.378, 40.36328
1191.463, 92.66699
1192.548, 83.04492
1193.632, 11.82227
1194.717, 141.3701
1195.801, 151.6445
1196.886, 7.813477
1197.970, 94.96191
1199.054, 87.54590
1200.137, 97.48145
1201.221, 30.50391
1202.305, 93.47266
1203.388, 38.42383
1204.471, 58.35742
1205.554, 175.2695
1206.637, 128.1660
1207.719, 70.04492
1208.802, 69.09668
1209.884, 111.7100
1210.966, 83.49414
1212.048, 62.22559
1213.130, 106.9248
1214.212, 107.6035
1215.293, 50.73047
1216.374, 39.12500
1217.456, 58.42578
1218.536, 34.04492
1219.617, 36.43262
1220.698, 179.8857
1221.778, 148.3203
1222.859, 207.7354
1223.939, 105.5303
1225.019, 67.22852
1226.099, 128.5801
1227.178, 36.08984
1228.258, 141.3789
1229.337, 177.6338
1230.417, 144.8682
1231.496, 79.08105
1232.574, 63.27246
1233.653, 63.44043
1234.732, 74.58496
1235.810, 135.7061
1236.888, 51.88477
1237.966, 113.9590
1239.044, 114.0117
1240.122, 74.27441
1241.199, 155.6182
1242.277, 106.7822
1243.354, 74.74316
1244.431, 193.2734
1245.508, 317.2285
1246.585, 188.1211
1247.661, 92.99121
1248.738, 73.98926
1249.814, 16.99023
1250.890, 144.5938
1251.966, 47.35352
1253.042, 22.08594
1254.117, 156.1289
1255.193, 53.89062
1256.268, 148.6689
1257.343, 212.2900
1258.418, 186.8877
1259.493, 136.4619
1260.567, 52.01758
1261.642, 204.5371
1262.716, 171.2539
1263.790, 243.8682
1264.864, 327.8926
1265.938, 14.64941
1267.011, 260.7207
1268.085, 142.3447
1269.158, 106.6631
1270.231, 157.9561
1271.304, 92.55566
1272.377, 134.7939
1273.450, 201.0049
1274.522, 82.30762
1275.594, 94.50488
1276.666, 146.8955
1277.738, 126.0938
1278.810, 97.52930
1279.882, 100.5781
1280.953, 194.8115
1282.025, 273.7959
1283.096, 129.0127
1284.167, 54.12988
1285.238, 139.6016
1286.308, 38.70898
1287.379, 177.9971
1288.449, 165.8164
1289.519, 190.9463
1290.589, 99.59766
1291.659, 126.4434
1292.729, 199.8369
1293.798, 127.7109
1294.868, 161.7910
1295.937, 212.8008
1297.006, 85.18945
1298.075, 196.8818
1299.143, 226.7510
1300.212, 117.3945
1301.280, 234.5986
1302.348, 148.3398
1303.416, 151.4199
1304.484, 224.0820
1305.552, 169.2588
1306.620, 105.0381
1307.687, 89.51953
1308.754, 156.4531
1309.821, 251.0244
1310.888, 152.8340
1311.955, 280.2627
1313.021, 90.76074
1314.088, 203.4521
1315.154, 124.4795
1316.220, 132.7119
1317.286, 116.4463
1318.352, 117.7471
1319.417, 204.5215
1320.483, 291.6064
1321.548, 262.7891
1322.613, 238.8213
1323.678, 171.7021
1324.743, 244.4912
1325.807, 254.2051
1326.872, 109.8740
1327.936, 309.7070
1329.000, 191.5283
1330.064, 485.5430
1331.128, 318.4492
1332.191, 329.0508
1333.255, 412.6631
1334.318, 287.7324
1335.381, 191.3877
1336.444, 260.9844
1337.507, 176.8799
1338.569, 274.9229
1339.632, 295.0039
1340.694, 300.2959
1341.756, 318.7510
1342.818, 298.4639
1343.880, 301.5586
1344.941, 320.5820
1346.003, 283.2490
1347.064, 319.8779
1348.125, 303.8789
1349.186, 198.2686
1350.247, 279.6387
1351.308, 76.04395
1352.368, 94.23926
1353.428, 245.4561
1354.489, 325.9014
1355.549, 123.1494
1356.608, 195.3945
1357.668, 188.6865
1358.727, 268.8926
1359.787, 289.8936
1360.846, 223.9209
1361.905, 217.7148
1362.964, 252.5312
1364.022, 150.5801
1365.081, 192.2500
1366.139, 202.4258
1367.197, 114.3457
1368.255, 89.01465
1369.313, 127.2520
1370.371, 195.0029
1371.428, 46.59375
1372.486, 160.5049
1373.543, 259.3936
1374.600, 255.2598
1375.657, 133.8027
1376.713, 226.2822
1377.770, 183.5322
1378.826, 223.1406
1379.882, 255.1865
1380.938, 85.48535
1381.994, 147.0156
1383.050, 136.1270
1384.106, 187.6094
1385.161, 188.1221
1386.216, 182.6113
1387.271, 165.9219
1388.326, 211.7461
1389.381, 114.1396
1390.435, 132.4932
1391.490, 46.53906
1392.544, 158.8896
1393.598, 173.5781
1394.652, 96.79785
1395.705, 216.8428
1396.759, 180.7012
1397.812, 82.74316
1398.866, 243.5703
1399.919, 166.4629
1400.972, 133.5752
1402.024, 152.1934
1403.077, 98.83203
1404.129, 137.6611
1405.181, 74.84180
1406.233, 203.0078
1407.285, 109.5566
1408.337, 135.8906
1409.389, 95.74316
1410.440, 26.63672
1411.491, 41.41016
1412.542, 105.4453
1413.593, 54.94238
1414.644, 161.6826
1415.695, 76.24316
1416.745, 90.02246
1417.795, 71.26758
1418.845, 55.24805
1419.895, 109.2061
1420.945, 54.49121
1421.995, 102.8896
1423.044, 98.42285
1424.093, 74.49121
1425.142, 28.97852
1426.191, 14.55078
1427.240, 20.57812
1428.289, 73.97656
1429.337, 40.84766
1430.385, 62.71387
1431.433, 97.54785
1432.481, 30.66406
1433.529, 59.59082
1434.577, 59.67871
1435.624, 90.29688
1436.672, 28.58496
1437.719, 33.52051
1438.766, 34.63184
1439.812, 69.51172
1440.859, 89.58887
1441.905, 97.33203
1442.952, 197.5488
1443.998, 204.2061
1445.044, 171.3486
1446.090, 115.5908
1447.135, 79.41211
1448.181, 16.90430
1449.226, 4.048828
1450.271, 6.232422
1451.316, 49.03125
1452.361, 7.279297
1453.405, 26.77930
1454.450, 80.74902
1455.494, 26.94043
1456.538, 85.11328
1457.582, 96.28027
1458.626, 107.4551
1459.670, 50.61133
1460.713, 296.8027
1461.757, 104.0098
1462.800, 233.1934
1463.843, 68.46973
1464.886, 95.66016
1465.928, 177.5830
1466.971, 152.7012
1468.013, 1.202148
1469.055, 87.87695
1470.097, 89.84180
1471.139, 134.5996
1472.181, 181.7012
1473.222, 198.1592
1474.263, 198.1533
1475.305, 255.9053
1476.346, 129.8389
1477.386, 145.7686
1478.427, 93.13281
1479.468, 93.87207
1480.508, 111.7686
1481.548, 202.6475
1482.588, 128.0273
1483.628, 146.6982
1484.668, 120.5195
1485.707, 93.37891
1486.747, 201.7559
1487.786, 185.4307
1488.825, 183.8330
1489.864, 241.9893
1490.902, 79.48926
1491.941, 134.7354
1492.979, 254.7783
1494.017, 78.47852
1495.055, 292.6758
1496.093, 164.3848
1497.131, 186.0957
1498.168, 203.7441
1499.206, 196.5010
1500.243, 167.2588
1501.280, 126.0615
1502.317, 158.6943
1503.354, 203.6260
1504.390, 217.2744
1505.426, 124.9580
1506.463, 179.1152
1507.499, 94.23438
1508.535, 107.0137
1509.570, 245.1846
1510.606, 187.5586
1511.641, 298.2842
1512.676, 182.6660
1513.711, 164.5908
1514.746, 228.6943
1515.781, 0.4267580
1516.816, 102.1416
1517.850, 334.4512
1518.884, 135.5684
1519.918, 137.4268
1520.952, 250.6348
1521.986, 199.6318
1523.019, 75.54395
1524.053, 104.4785
1525.086, 83.18262
1526.119, 109.3867
1527.152, 95.12793
1528.185, 126.4785
1529.217, 1.646484
1530.250, 4.637695
1531.282, 185.5459
1532.314, 0.8056640
1533.346, 122.6855
1534.377, 75.81738
1535.409, 156.6377
1536.440, 5.656250
1537.472, 100.8936
1538.503, 57.96191
1539.534, 170.2324
1540.564, 47.13672
1541.595, 264.1240
1542.625, 123.1885
1543.656, 177.3145
1544.686, 188.3838
1545.716, 208.1680
1546.745, 188.4883
1547.775, 107.8857
1548.804, 125.8125
1549.834, 277.8623
1550.863, 214.1719
1551.892, 282.2607
1552.920, 274.5020
1553.949, 268.1260
1554.977, 184.0918
1556.006, 328.0352
1557.034, 45.49902
1558.062, 77.90918
1559.089, 213.3076
1560.117, 35.70996
1561.144, 185.9268
1562.172, 77.93848
1563.199, 17.46582
1564.226, 139.2822
1565.252, 279.8848
1566.279, 3.103516
1567.305, 199.4180
1568.332, 2.166992
1569.358, 166.1875
1570.384, 656.5977
1571.409, 146.9131
1572.435, 0.0000000E+00
##END=



