##NAMES=Diopside
##RRUFFID=R060171
##IDEAL CHEMISTRY=CaMgSi_2_O_6_
##LOCALITY=Jeffrey mine, Asbestos, Quebec, Canada
##OWNER=RRUFF
##SOURCE=Guy Ouellet
##DESCRIPTION=Yellowish-brown tabular crystals associated with vesuvianite, R060170
##STATUS=The identification of this mineral has been confirmed by X-ray diffraction and chemical analysis
##URL=rruff.info/R060171
##MEASURED CHEMISTRY=Ca_1.00_(Mg_0.98_Mn_0.02_)_Î£=1_Si_2.00_O_6_
##PIN_ID=L00876
##ORIENTATION=Laser parallel to -b* (0 -1 0). Fiducial mark perpendicular to laser is parallel to -c [0 0 -1]
95.94800, 0.0000000E+00
97.18200, 31.48584
98.41600, 3.462891
99.64900, 18.32202
100.8830, 19.31567
102.1160, 75.07349
103.3490, 143.1121
104.5820, 226.4839
105.8150, 348.5190
107.0470, 654.7158
108.2800, 862.7004
109.5120, 469.2051
110.7440, 166.0474
111.9760, 250.0681
113.2080, 270.0999
114.4400, 297.9993
115.6710, 301.6519
116.9030, 227.9614
118.1340, 267.8496
119.3650, 221.2771
120.5960, 305.2183
121.8270, 287.6675
123.0580, 543.5303
124.2880, 548.9863
125.5190, 659.9434
126.7490, 1059.214
127.9790, 1683.768
129.2090, 2531.522
130.4390, 3482.464
131.6680, 4213.581
132.8980, 4577.861
134.1270, 5247.292
135.3560, 6109.851
136.5850, 6802.536
137.8140, 6653.334
139.0430, 6469.239
140.2710, 7528.293
141.5000, 8995.695
142.7280, 9635.268
143.9560, 8180.196
145.1840, 5978.180
146.4120, 3922.039
147.6390, 2268.099
148.8670, 1297.212
150.0940, 800.6768
151.3210, 666.3479
152.5490, 422.0149
153.7750, 342.5928
155.0020, 206.7759
156.2290, 165.0156
157.4550, 160.2585
158.6810, 76.54785
159.9080, 44.89038
161.1340, 42.28320
162.3590, 23.16968
163.5850, 63.21021
164.8110, 41.74097
166.0360, 62.31421
167.2610, 66.92920
168.4860, 100.5845
169.7110, 68.25830
170.9360, 139.7246
172.1610, 174.4954
173.3850, 269.1543
174.6100, 319.7891
175.8340, 397.4373
177.0580, 527.1038
178.2820, 569.7913
179.5050, 494.5024
180.7290, 625.2397
181.9520, 927.0039
183.1760, 1291.796
184.3990, 1107.826
185.6220, 840.0454
186.8450, 477.7871
188.0670, 218.8423
189.2900, 175.1946
190.5120, 75.89868
191.7340, 110.6338
192.9560, 89.55640
194.1780, 138.4587
195.4000, 12.56934
196.6220, 57.44287
197.8430, 64.51514
199.0640, 56.64966
200.2860, 134.8191
201.5070, 144.0366
202.7270, 79.30640
203.9480, 5.371826
205.1690, 21.02368
206.3890, 14.65454
207.6090, 51.26465
208.8290, 4.147705
210.0490, 31.42090
211.2690, 12.02905
212.4890, 5.497803
213.7080, 70.98438
214.9280, 25.48804
216.1470, 3.007813
217.3660, 38.45703
218.5850, 204.0928
219.8030, 101.6536
221.0220, 222.2285
222.2400, 212.8169
223.4590, 459.4182
224.6770, 504.0234
225.8950, 603.6223
227.1120, 679.2251
228.3300, 849.8411
229.5480, 1029.470
230.7650, 1006.099
231.9820, 1251.740
233.1990, 1408.393
234.4160, 1765.059
235.6330, 1963.736
236.8490, 1775.424
238.0660, 1362.124
239.2820, 917.8340
240.4980, 627.5547
241.7140, 590.2859
242.9300, 563.8840
244.1460, 673.7417
245.3610, 789.7688
246.5770, 815.1099
247.7920, 999.6230
249.0070, 1248.281
250.2220, 1371.064
251.4370, 1515.956
252.6510, 1635.943
253.8660, 1921.015
255.0800, 2315.165
256.2940, 2481.385
257.5080, 2602.668
258.7220, 2009.009
259.9360, 1455.402
261.1490, 879.8484
262.3630, 486.3398
263.5760, 343.8733
264.7890, 267.4465
266.0020, 129.0566
267.2150, 84.70117
268.4270, 28.37793
269.6400, 39.08472
270.8520, 66.81885
272.0640, 47.42188
273.2760, 90.54248
274.4880, 12.52954
275.7000, 14.26807
276.9120, 25.08887
278.1230, 37.11694
279.3340, 34.62451
280.5450, 40.69043
281.7560, 38.42139
282.9670, 90.18311
284.1780, 50.56787
285.3880, 9.824463
286.5980, 18.05615
287.8090, 69.84204
289.0190, 2.898193
290.2290, 29.31787
291.4380, 46.78979
292.6480, 64.53735
293.8570, 139.4470
295.0670, 170.4556
296.2760, 153.4712
297.4850, 284.4578
298.6930, 283.6384
299.9020, 443.3853
301.1110, 547.4890
302.3190, 702.6077
303.5270, 891.9827
304.7350, 1050.411
305.9430, 1271.211
307.1510, 1502.950
308.3580, 1678.657
309.5660, 1986.469
310.7730, 2529.386
311.9800, 3240.517
313.1870, 4024.630
314.3940, 4667.750
315.6010, 5466.000
316.8070, 5986.134
318.0130, 6441.278
319.2200, 7216.639
320.4260, 8049.797
321.6310, 8983.961
322.8370, 10302.13
324.0430, 11494.30
325.2480, 11759.49
326.4540, 10930.67
327.6590, 8957.866
328.8640, 6827.064
330.0680, 5010.252
331.2730, 3538.414
332.4780, 2693.580
333.6820, 1887.742
334.8860, 1448.897
336.0900, 1159.014
337.2940, 940.1365
338.4980, 810.2632
339.7010, 720.3940
340.9050, 648.2412
342.1080, 605.2949
343.3110, 562.5239
344.5140, 599.6707
345.7170, 643.8208
346.9200, 706.9741
348.1220, 754.1301
349.3240, 826.1777
350.5270, 972.7690
351.7290, 1160.567
352.9310, 1313.000
354.1320, 1436.169
355.3340, 1636.384
356.5350, 1717.556
357.7370, 1954.730
358.9380, 2159.905
360.1390, 2355.082
361.3400, 2340.261
362.5400, 2113.196
363.7410, 1710.377
364.9410, 1415.561
366.1410, 1169.745
367.3410, 924.2656
368.5410, 779.1174
369.7410, 615.3052
370.9400, 602.4941
372.1400, 593.6846
373.3390, 604.6514
374.5380, 700.0674
375.7370, 801.2603
376.9360, 981.4546
378.1350, 1228.649
379.3330, 1553.845
380.5310, 1901.041
381.7300, 2271.238
382.9280, 2643.436
384.1260, 2985.634
385.3230, 3314.833
386.5210, 3637.031
387.7180, 4066.241
388.9160, 4420.460
390.1130, 4794.688
391.3100, 4867.922
392.5060, 4348.162
393.7030, 3477.408
394.9000, 2594.659
396.0960, 1824.916
397.2920, 1190.175
398.4880, 900.4385
399.6840, 672.7053
400.8800, 437.9751
402.0750, 359.2471
403.2710, 295.5217
404.4660, 270.4299
405.6610, 180.7087
406.8560, 142.6243
408.0510, 179.2715
409.2450, 65.55493
410.4400, 60.83984
411.6340, 78.12622
412.8280, 132.4133
414.0220, 57.70142
415.2160, 70.98999
416.4100, 23.33228
417.6030, 14.55566
418.7970, 60.34985
419.9900, 57.26880
421.1830, 16.55640
422.3760, 9.859375
423.5690, 7.703613
424.7610, 63.01074
425.9540, 9.648682
427.1460, 1.269775
428.3380, 1.766357
429.5300, 30.15649
430.7220, 4.731689
431.9140, 43.49976
433.1050, 32.36597
434.2970, 1.869385
435.4880, 20.20557
436.6790, 21.72192
437.8700, 31.87720
439.0610, 28.01880
440.2510, 4.300293
441.4420, 41.80054
442.6320, 2.019531
443.8220, 3.860352
445.0120, 23.95923
446.2020, 12.10767
447.3910, 8.790771
448.5810, 2.167969
449.7700, 13.70972
450.9600, 4.354736
452.1490, 14.60962
453.3370, 0.9321290
454.5260, 28.57812
455.7150, 33.11426
456.9030, 65.29663
458.0910, 22.67285
459.2800, 50.66187
460.4670, 105.3906
461.6550, 18.48853
462.8430, 87.52612
464.0300, 84.50293
465.2180, 82.47681
466.4050, 162.4485
467.5920, 84.41748
468.7790, 85.38379
469.9650, 86.34741
471.1520, 68.64917
472.3380, 100.2659
473.5250, 101.2209
474.7110, 81.17334
475.8970, 138.1228
477.0820, 142.0698
478.2680, 139.0137
479.4540, 88.95532
480.6390, 141.8943
481.8240, 102.8308
483.0090, 103.7646
484.1940, 132.6975
485.3780, 207.6282
486.5630, 162.5557
487.7470, 120.4807
488.9320, 261.4031
490.1160, 260.3232
491.3000, 242.2402
492.4830, 314.1550
493.6670, 272.0696
494.8500, 453.9834
496.0340, 637.9019
497.2170, 790.8176
498.4000, 1158.735
499.5820, 1572.649
500.7650, 1890.561
501.9480, 2118.470
503.1300, 2573.374
504.3120, 2961.277
505.4940, 3301.182
506.6760, 3832.083
507.8580, 4492.982
509.0390, 4697.877
510.2210, 4217.769
511.4020, 3271.659
512.5830, 2356.545
513.7640, 1662.432
514.9450, 1114.317
516.1250, 814.2004
517.3060, 678.0815
518.4860, 647.9600
519.6660, 407.8418
520.8460, 516.7217
522.0260, 474.6028
523.2060, 398.4807
524.3850, 447.3555
525.5650, 454.2271
526.7440, 459.1047
527.9230, 462.9785
529.1020, 464.8506
530.2810, 495.7192
531.4590, 434.5869
532.6380, 413.4600
533.8160, 398.3318
534.9940, 282.2002
536.1720, 263.0806
537.3500, 256.9683
538.5270, 217.8582
539.7050, 135.7441
540.8820, 220.6409
542.0590, 110.5339
543.2360, 107.4231
544.4130, 112.3191
545.5900, 6.231445
546.7660, 115.1509
547.9430, 77.08862
549.1190, 144.0303
550.2950, 78.96704
551.4710, 58.91943
552.6470, 111.8669
553.8220, 88.81396
554.9980, 79.76416
556.1730, 58.71484
557.3480, 91.66089
558.5230, 153.5056
559.6980, 116.2341
560.8730, 7.194580
562.0470, 120.1438
563.2220, 39.90063
564.3960, 73.44019
565.5700, 37.93604
566.7440, 53.87109
567.9170, 61.46777
569.0910, 103.6980
570.2640, 100.1616
571.4380, 64.79541
572.6110, 39.88379
573.7840, 36.70898
574.9570, 27.17651
576.1290, 1.402832
577.3020, 27.26074
578.4740, 14.28564
579.6460, 81.58887
580.8180, 15.54150
581.9900, 6.342773
583.1620, 67.98438
584.3330, 23.09521
585.5040, 5.177734
586.6760, 18.53516
587.8470, 21.98096
589.0180, 27.37720
590.1880, 50.40576
591.3590, 39.49878
592.5290, 20.62549
593.7000, 4.347900
594.8700, 6.428467
596.0400, 4.722900
597.2090, 6.000244
598.3790, 1.577637
599.5490, 31.30371
600.7180, 7.991943
601.8870, 10.70117
603.0560, 14.78760
604.2250, 67.86133
605.3940, 61.53955
606.5620, 119.2141
607.7300, 97.88452
608.8990, 111.5503
610.0670, 157.2119
611.2350, 146.8694
612.4020, 222.5295
613.5700, 166.1860
614.7370, 126.8381
615.9050, 159.4861
617.0720, 225.1296
618.2390, 230.7683
619.4060, 340.4204
620.5720, 295.0679
621.7390, 358.7119
622.9050, 399.3513
624.0710, 475.9934
625.2370, 567.6907
626.4030, 491.3220
627.5690, 608.9485
628.7340, 538.6819
629.9000, 724.2988
631.0650, 763.9111
632.2300, 799.5344
633.3950, 965.1375
634.5600, 955.7349
635.7240, 1102.399
636.8890, 1204.025
638.0530, 1245.621
639.2170, 1379.292
640.3810, 1558.865
641.5450, 1714.481
642.7080, 1996.045
643.8720, 2127.603
645.0350, 2480.155
646.1980, 2829.770
647.3610, 3232.362
648.5240, 3714.899
649.6870, 4301.506
650.8490, 5048.146
652.0120, 6155.666
653.1740, 7682.957
654.3360, 9331.948
655.4980, 11508.94
656.6600, 13955.57
657.8210, 17227.30
658.9830, 20572.31
660.1440, 24070.13
661.3050, 27619.60
662.4660, 31420.25
663.6270, 34458.85
664.7870, 37150.40
665.9480, 39011.03
667.1080, 38801.48
668.2680, 36510.40
669.4280, 32249.84
670.5880, 27202.96
671.7480, 21903.36
672.9070, 17331.33
674.0670, 13746.96
675.2260, 10765.10
676.3850, 8726.057
677.5440, 7104.905
678.7030, 5997.442
679.8610, 5080.213
681.0200, 4308.805
682.1780, 3666.291
683.3360, 3208.124
684.4940, 2780.492
685.6520, 2456.122
686.8090, 2173.854
687.9670, 1907.100
689.1240, 1797.423
690.2810, 1602.363
691.4380, 1489.670
692.5950, 1356.906
693.7520, 1354.926
694.9080, 1160.415
696.0650, 1044.739
697.2210, 1039.116
698.3770, 866.3743
699.5330, 712.6250
700.6880, 922.2349
701.8440, 691.5398
702.9990, 661.7480
704.1550, 584.9683
705.3100, 620.1514
706.4650, 540.3564
707.6190, 557.5544
708.7740, 506.7473
709.9290, 495.9343
711.0830, 440.1228
712.2370, 470.3062
713.3910, 419.4949
714.5450, 413.6328
715.6980, 368.0688
716.8520, 414.9294
718.0050, 419.6570
719.1580, 412.8325
720.3110, 398.4600
721.4640, 379.1438
722.6170, 311.7041
723.7700, 348.8418
724.9220, 308.2656
726.0740, 355.3506
727.2260, 257.4712
728.3780, 297.6177
729.5300, 260.7598
730.6810, 208.9019
731.8330, 273.0293
732.9840, 241.6333
734.1350, 233.1196
735.2860, 228.7056
736.4370, 212.6353
737.5880, 198.3608
738.7380, 221.4639
739.8880, 223.8164
741.0390, 173.8223
742.1890, 257.9248
743.3380, 136.9985
744.4880, 186.1860
745.6380, 191.2437
746.7870, 164.2944
747.9360, 170.3779
749.0850, 207.4131
750.2340, 198.0488
751.3830, 251.2236
752.5310, 236.2358
753.6800, 214.1260
754.8280, 208.0239
755.9760, 160.3081
757.1240, 151.3564
758.2720, 163.3296
759.4190, 136.5293
760.5670, 92.48682
761.7140, 72.49414
762.8610, 58.19287
764.0080, 132.5161
765.1550, 78.44189
766.3020, 48.35986
767.4480, 128.2695
768.5950, 76.17090
769.7410, 71.06543
770.8870, 132.9512
772.0330, 119.8301
773.1780, 57.70117
774.3240, 65.56396
775.4690, 71.41895
776.6140, 52.26611
777.7590, 87.10498
778.9040, 62.93652
780.0490, 86.76074
781.1940, 162.5767
782.3380, 92.38623
783.4820, 58.18896
784.6260, 61.98291
785.7700, 137.7700
786.9140, 55.54980
788.0580, 47.32178
789.2010, 77.08643
790.3450, 1.843262
791.4880, 8.585938
792.6310, 7.969727
793.7730, 43.03613
794.9160, 25.74756
796.0590, 10.55029
797.2010, 15.13135
798.3430, 2.196777
799.4850, 31.45850
800.6270, 41.10596
801.7690, 51.74512
802.9100, 21.62305
804.0520, 102.9824
805.1930, 6.581055
806.3340, 81.16797
807.4750, 1.749023
808.6160, 18.68359
809.7560, 3.859375
810.8970, 24.39014
812.0370, 47.08740
813.1770, 28.60400
814.3170, 11.14990
815.4570, 34.28418
816.5960, 42.28857
817.7360, 22.10254
818.8750, 40.48438
820.0140, 28.13965
821.1530, 68.79297
822.2920, 51.49512
823.4310, 75.23486
824.5690, 20.02686
825.7070, 68.15820
826.8460, 63.66309
827.9840, 72.46973
829.1220, 5.403320
830.2590, 18.29102
831.3970, 10.20020
832.5340, 50.87354
833.6710, 35.94092
834.8080, 70.00146
835.9450, 109.0562
837.0820, 95.10596
838.2190, 43.15283
839.3550, 145.1938
840.4910, 208.2300
841.6270, 176.2607
842.7630, 423.2861
843.8990, 500.3066
845.0350, 613.3213
846.1700, 843.3311
847.3060, 1111.336
848.4410, 1348.336
849.5760, 1706.331
850.7100, 1911.320
851.8450, 2224.305
852.9800, 2366.288
854.1140, 2553.276
855.2480, 2664.266
856.3820, 2380.251
857.5160, 1807.239
858.6500, 1410.224
859.7830, 1105.223
860.9170, 753.2183
862.0500, 452.2124
863.1830, 521.2021
864.3160, 304.1875
865.4480, 361.1680
866.5810, 226.1436
867.7130, 216.1152
868.8460, 163.0820
869.9780, 166.0479
871.1100, 129.0117
872.2410, 130.9746
873.3730, 143.9331
874.5050, 99.89014
875.6360, 116.8428
876.7670, 33.79443
877.8980, 21.74268
879.0290, 42.68604
880.1590, 10.62549
881.2900, 47.56006
882.4200, 100.4902
883.5500, 28.41699
884.6800, 76.33936
885.8100, 28.74170
886.9400, 1.158691
888.0690, 48.05322
889.1990, 15.94482
890.3280, 47.83154
891.4570, 66.72656
892.5860, 69.38232
893.7140, 79.47021
894.8430, 3.678711
895.9710, 104.1665
897.1000, 18.02051
898.2280, 56.86328
899.3560, 24.35596
900.4830, 35.48291
901.6110, 68.32080
902.7380, 56.04785
903.8660, 106.8838
904.9930, 136.7295
906.1200, 88.55664
907.2460, 109.4067
908.3730, 76.25439
909.5000, 65.02832
910.6260, 65.84912
911.7520, 72.10645
912.8780, 155.4648
914.0040, 93.32812
915.1290, 129.1470
916.2550, 100.0117
917.3800, 99.90576
918.5050, 136.8047
919.6300, 136.6416
920.7550, 156.4941
921.8800, 30.39453
923.0040, 98.21777
924.1290, 81.00537
925.2530, 118.9014
926.3770, 152.0229
927.5010, 135.4375
928.6250, 160.8394
929.7480, 131.6040
930.8720, 125.2637
931.9950, 71.62842
933.1180, 204.1772
934.2410, 265.0762
935.3640, 178.7876
936.4860, 70.54395
937.6090, 111.3447
938.7310, 157.0464
939.8530, 158.9316
940.9750, 173.8979
942.0970, 189.2290
943.2180, 160.4233
944.3400, 170.3413
945.4610, 151.6694
946.5820, 167.3398
947.7030, 221.4976
948.8240, 247.8237
949.9450, 218.2554
951.0650, 196.9941
952.1860, 201.4907
953.3060, 164.1611
954.4260, 218.9331
955.5460, 207.3506
956.6650, 194.2280
957.7850, 298.2056
958.9040, 248.7065
960.0230, 259.6895
961.1420, 300.5884
962.2610, 320.8647
963.3800, 344.7676
964.4990, 359.7373
965.6170, 364.9165
966.7350, 350.6235
967.8530, 418.4878
968.9710, 357.2959
970.0890, 395.2163
971.2070, 431.1406
972.3240, 376.0684
973.4410, 530.9570
974.5580, 592.8906
975.6750, 596.8276
976.7920, 543.7676
977.9090, 619.7100
979.0250, 619.6562
980.1410, 734.6064
981.2580, 769.5596
982.3740, 789.5161
983.4890, 840.4756
984.6050, 941.4385
985.7200, 1024.406
986.8360, 1071.375
987.9510, 1101.348
989.0660, 1252.324
990.1810, 1490.304
991.2950, 1543.287
992.4100, 1671.273
993.5240, 1800.263
994.6390, 2181.257
995.7530, 2359.254
996.8660, 3022.254
997.9800, 3494.257
999.0940, 4022.265
1000.207, 5083.275
1001.320, 6312.295
1002.433, 7870.311
1003.546, 10465.43
1004.659, 13981.45
1005.772, 18552.48
1006.884, 24509.51
1007.996, 30523.55
1009.108, 36683.58
1010.220, 42848.62
1011.332, 48764.63
1012.444, 53151.61
1013.555, 54601.66
1014.666, 51788.59
1015.777, 43995.73
1016.888, 34361.80
1017.999, 25329.88
1019.110, 18169.05
1020.220, 13390.51
1021.331, 10272.43
1022.441, 7820.513
1023.551, 6374.516
1024.661, 5033.279
1025.770, 4498.375
1026.880, 3848.406
1027.989, 3425.813
1029.098, 3145.687
1030.207, 2987.542
1031.316, 2701.602
1032.425, 2711.818
1033.533, 2473.111
1034.642, 2519.510
1035.750, 2524.396
1036.858, 2568.680
1037.966, 2780.657
1039.073, 3192.852
1040.181, 3681.275
1041.288, 4134.450
1042.396, 4885.638
1043.503, 5609.456
1044.610, 6116.882
1045.716, 6858.276
1046.823, 7283.585
1047.929, 7684.201
1049.036, 7447.444
1050.142, 6652.973
1051.248, 5538.729
1052.353, 4433.491
1053.459, 3518.770
1054.564, 2716.222
1055.670, 2161.506
1056.775, 1683.809
1057.880, 1398.114
1058.985, 1176.435
1060.089, 975.7617
1061.194, 872.1426
1062.298, 741.4775
1063.402, 654.8701
1064.506, 563.3003
1065.610, 503.9229
1066.713, 483.0854
1067.817, 427.5264
1068.920, 383.8950
1070.023, 366.3188
1071.126, 311.6938
1072.229, 279.1846
1073.332, 289.6743
1074.435, 305.0659
1075.537, 236.4629
1076.639, 288.9038
1077.741, 262.3159
1078.843, 169.7329
1079.945, 186.1519
1081.046, 170.5879
1082.148, 186.0366
1083.249, 107.4932
1084.350, 115.9531
1085.451, 121.4282
1086.551, 85.67822
1087.652, 162.4102
1088.752, 102.9004
1089.853, 116.4136
1090.953, 221.9453
1092.053, 108.5005
1093.152, 112.0649
1094.252, 46.63232
1095.351, 84.22119
1096.451, 107.8110
1097.550, 65.40625
1098.649, 115.1743
1099.748, 80.85791
1100.846, 155.4688
1101.945, 100.0806
1103.043, 100.6934
1104.141, 30.42627
1105.239, 1.959961
1106.337, 40.65381
1107.434, 71.26807
1108.532, 53.88184
1109.629, 76.21338
1110.726, 45.11133
1111.823, 83.72656
1112.920, 56.49658
1114.017, 76.11182
1115.113, 156.7256
1116.210, 116.3403
1117.306, 96.95459
1118.402, 269.5679
1119.498, 138.1816
1120.593, 266.7944
1121.689, 226.4067
1122.784, 198.0190
1123.879, 254.6299
1124.974, 244.3330
1126.069, 137.0376
1127.164, 164.6484
1128.259, 120.2588
1129.353, 163.8901
1130.447, 36.49902
1131.541, 56.10645
1132.635, 12.71338
1133.729, 71.31934
1134.822, 1.076172
1135.916, 79.52588
1137.009, 37.41064
1138.102, 141.0103
1139.195, 60.60791
1140.288, 50.25977
1141.380, 54.85498
1142.473, 49.44824
1143.565, 66.04004
1144.657, 51.63086
1145.749, 59.78760
1146.841, 3.893555
1147.932, 64.47949
1149.024, 9.062988
1150.115, 3.644531
1151.206, 51.22266
1152.297, 69.80664
1153.388, 62.51660
1154.479, 76.09717
1155.569, 47.31104
1156.659, 66.07471
1157.750, 61.62451
1158.839, 4.605469
1159.929, 94.98730
1161.019, 46.65723
1162.108, 129.8735
1163.198, 12.40234
1164.287, 23.01562
1165.376, 2.497070
1166.465, 12.96289
1167.553, 2.650391
1168.642, 45.93408
1169.730, 28.79053
1170.818, 35.69580
1171.906, 61.98291
1172.994, 67.02148
1174.082, 52.94775
1175.170, 3.458496
1176.257, 29.59619
1177.344, 34.04590
1178.431, 16.59424
1179.518, 96.38379
1180.605, 109.1343
1181.691, 16.86328
1182.778, 16.25146
1183.864, 55.11084
1184.950, 15.33936
1186.036, 122.6855
1187.122, 110.6436
1188.207, 154.0229
1189.292, 186.4702
1190.378, 167.2549
1191.463, 62.86475
1192.548, 146.0527
1193.632, 64.10938
1194.717, 56.47510
1195.801, 93.64404
1196.886, 60.51514
1197.970, 60.34180
1199.054, 87.74756
1200.137, 67.10840
1201.221, 113.4209
1202.305, 55.54980
1203.388, 56.67139
1204.471, 161.7852
1205.554, 109.7642
1206.637, 73.86475
1207.719, 109.9575
1208.802, 102.0444
1209.884, 93.12305
1210.966, 100.1953
1212.048, 93.72119
1213.130, 91.32422
1214.212, 86.36914
1215.293, 97.41211
1216.374, 81.44775
1217.456, 110.4756
1218.536, 96.49561
1219.617, 100.5088
1220.698, 154.5137
1221.778, 97.51123
1222.859, 135.5005
1223.939, 147.7930
1225.019, 123.9121
1226.099, 162.9883
1227.178, 100.9448
1228.258, 53.89258
1229.337, 75.83057
1230.417, 173.8135
1231.496, 254.7344
1232.574, 135.7856
1233.653, 66.68896
1234.732, 124.5840
1235.810, 143.4839
1236.888, 137.3599
1237.966, 196.2432
1239.044, 147.2114
1240.122, 172.0615
1241.199, 124.9141
1242.277, 61.74609
1243.354, 163.5674
1244.431, 203.3804
1245.508, 138.1836
1246.585, 253.9780
1247.661, 122.7637
1248.738, 238.5400
1249.814, 105.3071
1250.890, 160.0649
1251.966, 125.8140
1253.042, 199.5854
1254.117, 81.41162
1255.193, 81.41064
1256.268, 163.1206
1257.343, 172.9272
1258.418, 99.66748
1259.493, 156.3496
1260.567, 187.0229
1261.642, 120.6855
1262.716, 191.3340
1263.790, 124.9785
1264.864, 170.5166
1265.938, 43.14209
1267.011, 131.7554
1268.085, 145.3594
1269.158, 94.95410
1270.231, 195.5420
1271.304, 195.1201
1272.377, 177.7100
1273.450, 110.2695
1274.522, 187.8188
1275.594, 89.58252
1276.666, 174.0317
1277.738, 113.5513
1278.810, 137.9966
1279.882, 130.4062
1280.953, 131.8970
1282.025, 81.37891
1283.096, 185.8496
1284.167, 109.4546
1285.238, 16.22949
1286.308, 128.6636
1287.379, 62.08789
1288.449, 103.1968
1289.519, 17.60303
1290.589, 175.2520
1291.659, 117.6328
1292.729, 95.90918
1293.798, 107.9570
1294.868, 103.0386
1295.937, 81.12451
1297.006, 11.81543
1298.075, 45.29785
1299.143, 9.443359
1300.212, 13.42822
1301.280, 19.17920
1302.348, 50.95361
1303.416, 99.60889
1304.484, 17.55713
1305.552, 37.56494
1306.620, 121.6167
1307.687, 22.64600
1308.754, 65.44971
1309.821, 125.2505
1310.888, 6.178711
1311.955, 60.37695
1313.021, 113.4082
1314.088, 66.73535
1315.154, 44.73828
1316.220, 51.21924
1317.286, 36.83301
1318.352, 142.0791
1319.417, 139.9834
1320.483, 95.82910
1321.548, 0.7158200
1322.613, 45.53320
1323.678, 94.30518
1324.743, 63.15430
1325.807, 29.92041
1326.872, 30.67285
1327.936, 38.49219
1329.000, 48.24756
1330.064, 114.0464
1331.128, 166.7324
1332.191, 136.4136
1333.255, 0.1899410
1334.318, 124.9541
1335.381, 149.6719
1336.444, 195.4209
1337.507, 259.1621
1338.569, 142.8936
1339.632, 164.6167
1340.694, 146.3315
1341.756, 207.0391
1342.818, 185.5083
1343.880, 177.3975
1344.941, 179.0854
1346.003, 133.7612
1347.064, 139.4287
1348.125, 116.0889
1349.186, 131.7407
1350.247, 95.38525
1351.308, 10.02246
1352.368, 131.6494
1353.428, 61.26709
1354.489, 105.8765
1355.549, 126.4771
1356.608, 133.9062
1357.668, 74.41748
1358.727, 91.99609
1359.787, 53.56641
1360.846, 89.12793
1361.905, 86.30762
1362.964, 76.05127
1364.022, 95.64697
1365.081, 82.17676
1366.139, 59.69971
1367.197, 98.21387
1368.255, 82.72021
1369.313, 158.2183
1370.371, 170.5537
1371.428, 129.0376
1372.486, 238.5137
1373.543, 145.9819
1374.600, 169.4424
1375.657, 96.89600
1376.713, 199.3423
1377.770, 251.7812
1378.826, 143.2139
1379.882, 75.64014
1380.938, 60.05859
1381.994, 22.05371
1383.050, 146.6914
1384.106, 57.09033
1385.161, 70.48340
1386.216, 169.8496
1387.271, 119.2949
1388.326, 120.6719
1389.381, 133.0430
1390.435, 334.4102
1391.490, 196.7715
1392.544, 335.1289
1393.598, 137.1973
1394.652, 167.5449
1395.705, 123.8882
1396.759, 173.9883
1397.812, 185.3218
1398.866, 74.65137
1399.919, 332.9756
1400.972, 148.2964
1402.024, 25.61328
1403.077, 170.8384
1404.129, 188.1465
1405.181, 112.4507
1406.233, 214.7515
1407.285, 78.04883
1408.337, 102.3433
1409.389, 132.5063
1410.440, 42.79443
1411.491, 179.0664
1412.542, 180.5278
1413.593, 219.8188
1414.644, 140.9038
1415.695, 141.8813
1416.745, 91.43018
1417.795, 132.7280
1418.845, 193.0234
1419.895, 134.2607
1420.945, 184.5571
1421.995, 183.1084
1423.044, 115.2974
1424.093, 90.66309
1425.142, 89.70166
1426.191, 167.0195
1427.240, 160.0869
1428.289, 65.79004
1429.337, 190.4976
1430.385, 140.8096
1431.433, 54.57910
1432.481, 273.6387
1433.529, 209.9502
1434.577, 223.6323
1435.624, 167.8062
1436.672, 134.2051
1437.719, 136.9111
1438.766, 108.7217
1439.812, 125.3252
1440.859, 125.6543
1441.905, 110.2529
1442.952, 97.42627
1443.998, 183.4722
1445.044, 187.8228
1446.090, 224.9150
1447.135, 184.9258
1448.181, 173.9185
1449.226, 269.4653
1450.271, 259.7319
1451.316, 176.5762
1452.361, 249.5322
1453.405, 171.8828
1454.450, 100.3159
1455.494, 233.6426
1456.538, 141.9609
1457.582, 142.2700
1458.626, 222.5713
1459.670, 188.8643
1460.713, 155.1489
1461.757, 186.4253
1462.800, 131.6929
1463.843, 83.43506
1464.886, 284.5542
1465.928, 295.7920
1466.971, 220.9614
1468.013, 206.0200
1469.055, 120.1816
1470.097, 123.3682
1471.139, 202.4336
1472.181, 110.6089
1473.222, 111.7930
1474.263, 182.9697
1475.305, 115.1382
1476.346, 141.2998
1477.386, 150.4131
1478.427, 267.0708
1479.468, 90.06738
1480.508, 97.12988
1481.548, 295.2490
1482.588, 152.3613
1483.628, 168.4658
1484.668, 223.5664
1485.707, 165.6553
1486.747, 190.5298
1487.786, 215.7686
1488.825, 156.5010
1489.864, 183.5498
1490.902, 130.5918
1491.941, 100.6255
1492.979, 69.43018
1494.017, 70.58838
1495.055, 104.4722
1496.093, 124.4849
1497.131, 121.4873
1498.168, 209.4780
1499.206, 113.4644
1500.243, 99.46582
1501.280, 149.5107
1502.317, 125.6475
1503.354, 167.7231
1504.390, 97.87646
1505.426, 221.0444
1506.463, 185.2129
1507.499, 172.4033
1508.535, 117.6899
1509.570, 169.0273
1510.606, 163.3687
1511.641, 20.74023
1512.676, 201.1221
1513.711, 155.5137
1514.746, 227.9224
1515.781, 107.3315
1516.816, 198.7412
1517.850, 87.15283
1518.884, 96.57178
1519.918, 167.0024
1520.952, 16.55957
1521.986, 155.8872
1523.019, 114.3438
1524.053, 139.8081
1525.086, 57.28223
1526.119, 76.77197
1527.152, 135.2837
1528.185, 174.8096
1529.217, 44.35156
1530.250, 162.9116
1531.282, 232.4961
1532.314, 117.1064
1533.346, 180.7461
1534.377, 234.4160
1535.409, 157.1157
1536.440, 105.8511
1537.472, 92.62256
1538.503, 93.42773
1539.534, 10.73291
1540.564, 29.14258
1541.595, 62.04980
1542.625, 141.7295
1543.656, 90.68896
1544.686, 58.67920
1545.716, 0.2963870
1546.745, 116.7656
1547.775, 66.88184
1548.804, 82.85840
1549.834, 29.86621
1550.863, 98.90625
1551.892, 71.63623
1552.920, 136.0908
1553.949, 91.23340
1554.977, 72.40820
1556.006, 130.6099
1557.034, 127.8203
1558.062, 64.65674
1559.089, 76.45508
1560.117, 36.38672
1561.144, 0.6791990
1562.172, 4.806641
1563.199, 10.66016
1564.226, 28.91162
1565.252, 127.2598
1566.279, 67.83447
1567.305, 135.3081
1568.332, 5.317871
1569.358, 32.46826
1570.384, 21.82178
1571.409, 17.39844
1572.435, 0.0000000E+00
##END=



