##NAMES=Diopside
##RRUFFID=R070123
##IDEAL CHEMISTRY=CaMgSi_2_O_6_
##LOCALITY=Yates mine, Otter Lake, Huddersfield Township, Pontiac County, Québec, Canada
##OWNER=RRUFF
##SOURCE=Michael Scott
##DESCRIPTION=Black prismatic crystals associated with orange calcite
##STATUS=The identification of this mineral has been confirmed by X-ray diffraction and chemical analysis
##URL=rruff.info/R070123
##MEASURED CHEMISTRY=(Ca_0.95_Na_0.04_Mn_0.01_)_Σ=1_(Mg_0.63_Fe_0.33_Al_0.04_)_Σ=1_Si_2.00_O_6_
##PIN_ID=M01501
##ORIENTATION=Laser parallel to -b* (0 -1 0). Fiducial mark perpendicular to laser is parallel to c [0 0 1]
115.5700, 0.0000000E+00
116.8080, 13.52466
118.0460, 67.17798
119.2830, 9.223633
120.5210, 166.7942
121.7580, 361.5181
122.9950, 706.5212
124.2320, 1195.975
125.4690, 1868.702
126.7050, 2495.620
127.9410, 3233.286
129.1780, 4167.750
130.4140, 5112.368
131.6490, 6389.335
132.8850, 7494.793
134.1200, 8678.851
135.3560, 9042.606
136.5910, 9286.979
137.8260, 8672.826
139.0610, 7545.591
140.2950, 6030.744
141.5290, 4577.129
142.7640, 3150.581
143.9980, 2185.029
145.2320, 1485.483
146.4650, 1098.950
147.6990, 667.4346
148.9320, 505.9404
150.1650, 376.4700
151.3980, 297.0256
152.6310, 197.6357
153.8640, 129.3667
155.0960, 103.1729
156.3280, 17.20459
157.5600, 15.60645
158.7920, 74.42480
160.0240, 64.24121
161.2560, 30.97339
162.4870, 28.29688
163.7180, 80.11499
164.9490, 211.6111
166.1800, 241.5161
167.4110, 298.2378
168.6410, 333.0811
169.8720, 333.5842
171.1020, 444.1399
172.3320, 591.7463
173.5620, 565.4004
174.7910, 712.1008
176.0210, 658.8452
177.2500, 677.6289
178.4790, 567.4478
179.7080, 569.2993
180.9370, 519.1824
182.1650, 429.0957
183.3940, 321.0386
184.6220, 358.0103
185.8500, 369.0093
187.0780, 356.0352
188.3050, 380.9070
189.5330, 298.4741
190.7600, 366.9937
191.9870, 365.0654
193.2140, 281.1755
194.4410, 343.6897
195.6680, 323.9177
196.8940, 355.0859
198.1200, 312.7915
199.3470, 435.9211
200.5720, 478.0911
201.7980, 490.2917
203.0240, 330.5774
204.2490, 165.9805
205.4740, 96.46240
206.6990, 19.03125
207.9240, 26.30713
209.1490, 22.41479
210.3740, 1.827393
211.5980, 11.83569
212.8220, 22.54883
214.0460, 26.92139
215.2700, 75.28369
216.4930, 31.36304
217.7170, 2.020264
218.9400, 67.68750
220.1630, 9.365479
221.3860, 80.05371
222.6090, 31.75244
223.8320, 222.4619
225.0540, 211.1882
226.2760, 362.9263
227.4980, 318.6741
228.7200, 423.4307
229.9420, 536.1968
231.1630, 593.9697
232.3850, 607.7500
233.6060, 581.5376
234.8270, 532.3318
236.0480, 438.1072
237.2690, 306.8789
238.4890, 313.6226
239.7090, 225.3081
240.9290, 253.9958
242.1490, 164.6902
243.3690, 134.3931
244.5890, 99.10498
245.8080, 124.8252
247.0270, 127.5535
248.2470, 170.2903
249.4650, 166.0344
250.6840, 147.7864
251.9030, 140.5454
253.1210, 170.3120
254.3390, 126.0854
255.5570, 133.8660
256.7750, 119.6531
257.9930, 162.4468
259.2100, 110.1221
260.4280, 207.0532
261.6450, 39.86621
262.8620, 8.690674
264.0790, 8.910400
265.2950, 2.034180
266.5120, 35.92212
267.7280, 9.150146
268.9440, 84.45557
270.1600, 14.81226
271.3760, 26.79468
272.5920, 27.61816
273.8070, 8.967285
275.0220, 21.57275
276.2370, 94.80396
277.4520, 1.172852
278.6670, 29.43457
279.8820, 3.085449
281.0960, 62.29321
282.3100, 89.05908
283.5240, 192.4707
284.7380, 128.6262
285.9520, 251.7366
287.1650, 209.0276
288.3780, 240.9561
289.5920, 330.9663
290.8050, 356.6086
292.0170, 426.5190
293.2300, 524.6240
294.4430, 616.9409
295.6550, 671.4526
296.8670, 837.1145
298.0790, 909.3420
299.2910, 1059.537
300.5020, 1193.698
301.7140, 1393.048
302.9250, 1610.126
304.1360, 1866.438
305.3470, 2141.650
306.5580, 2435.434
307.7680, 2807.274
308.9780, 3213.344
310.1890, 3528.419
311.3990, 4009.449
312.6090, 4511.436
313.8180, 4830.422
315.0280, 5242.436
316.2370, 5700.463
317.4460, 6194.498
318.6550, 6505.543
319.8640, 6672.595
321.0730, 6561.659
322.2810, 6462.726
323.4890, 6132.802
324.6980, 5612.893
325.9060, 5304.981
327.1130, 4875.114
328.3210, 4251.212
329.5280, 3810.334
330.7360, 3493.441
331.9430, 3256.994
333.1500, 3031.360
334.3560, 2869.481
335.5630, 2696.688
336.7690, 2665.801
337.9760, 2595.918
339.1820, 2491.040
340.3870, 2566.150
341.5930, 2588.340
342.7990, 2710.436
344.0040, 2782.461
345.2090, 2757.595
346.4140, 2982.681
347.6190, 3016.770
348.8240, 3121.863
350.0280, 3271.958
351.2330, 3308.056
352.4370, 3350.133
353.6410, 3303.962
354.8440, 3339.063
356.0480, 3201.396
357.2520, 3045.359
358.4550, 2757.479
359.6580, 2640.343
360.8610, 2467.187
362.0640, 2225.297
363.2660, 2166.950
364.4690, 2096.063
365.6710, 2056.037
366.8730, 1966.152
368.0750, 1923.268
369.2770, 1853.385
370.4780, 2111.503
371.6800, 2104.622
372.8810, 2315.741
374.0820, 2445.862
375.2830, 2767.982
376.4830, 2989.103
377.6840, 3387.225
378.8840, 3811.346
380.0840, 4265.469
381.2840, 4800.591
382.4840, 5317.712
383.6840, 5862.837
384.8830, 6102.961
386.0830, 6239.085
387.2820, 6144.211
388.4810, 5865.337
389.6800, 5427.463
390.8780, 4778.590
392.0770, 3938.719
393.2750, 3438.847
394.4730, 2852.976
395.6710, 2291.105
396.8690, 1832.234
398.0660, 1580.363
399.2640, 1241.493
400.4610, 1012.623
401.6580, 762.7517
402.8550, 642.8809
404.0520, 602.0100
405.2490, 475.1384
406.4450, 469.2666
407.6410, 387.7312
408.8370, 353.4495
410.0330, 269.2444
411.2290, 297.3733
412.4240, 296.5002
413.6200, 255.6243
414.8150, 251.7454
416.0100, 141.0476
417.2050, 187.1621
418.4000, 136.1890
419.5940, 222.1387
420.7880, 106.2424
421.9830, 32.19214
423.1770, 38.24683
424.3700, 29.93213
425.5640, 2.978760
426.7580, 14.43530
427.9510, 14.17725
429.1440, 14.24902
430.3370, 1.318115
431.5300, 26.61865
432.7220, 59.57568
433.9150, 37.57007
435.1070, 57.59058
436.2990, 28.64795
437.4910, 3.272949
438.6830, 34.81177
439.8750, 68.92090
441.0660, 14.07349
442.2570, 61.24072
443.4480, 24.55371
444.6390, 38.65454
445.8300, 14.83594
447.0210, 43.92456
448.2110, 22.86670
449.4010, 82.69897
450.5910, 49.91260
451.7810, 60.98584
452.9710, 85.30566
454.1610, 150.3318
455.3500, 99.68066
456.5390, 138.6318
457.7280, 112.9705
458.9170, 69.43335
460.1060, 89.69556
461.2940, 135.8992
462.4830, 154.9421
463.6710, 232.7139
464.8590, 78.73926
466.0470, 155.0845
467.2350, 64.38696
468.4220, 72.38672
469.6090, 57.33032
470.7970, 92.27417
471.9840, 63.23389
473.1700, 76.18970
474.3570, 10.16235
475.5440, 24.14697
476.7300, 131.1423
477.9160, 49.14185
479.1020, 128.1470
480.2880, 104.1462
481.4740, 110.1448
482.6590, 118.1372
483.8440, 50.12354
485.0300, 114.1023
486.2140, 204.0747
487.3990, 122.0405
488.5840, 272.9998
489.7680, 256.9521
490.9530, 310.8977
492.1370, 344.8364
493.3210, 457.7683
494.5040, 584.6929
495.6880, 622.6104
496.8720, 868.5312
498.0550, 925.4448
499.2380, 1151.355
500.4210, 1380.272
501.6040, 1452.190
502.7860, 1598.111
503.9690, 1675.047
505.1510, 1580.976
506.3330, 1513.899
507.5150, 1255.814
508.6970, 1106.722
509.8780, 892.6213
511.0600, 856.5125
512.2410, 768.3953
513.4220, 733.2695
514.6030, 686.1350
515.7840, 675.9919
516.9640, 701.8401
518.1440, 619.6802
519.3250, 715.5212
520.5050, 767.3555
521.6850, 711.1870
522.8640, 815.0271
524.0440, 896.8682
525.2230, 926.7039
526.4020, 981.5317
527.5820, 995.3506
528.7600, 1029.165
529.9390, 1029.787
531.1180, 975.7805
532.2960, 1024.601
533.4740, 996.4111
534.6520, 1012.230
535.8300, 953.0386
537.0080, 947.4175
538.1850, 900.6260
539.3630, 889.4038
540.5400, 906.1711
541.7170, 847.9280
542.8940, 842.6738
544.0700, 767.4094
545.2470, 822.1335
546.4230, 817.8467
547.5990, 846.5488
548.7750, 737.2400
549.9510, 765.9233
551.1270, 666.5991
552.3020, 766.2646
553.4780, 745.9187
554.6530, 758.5610
555.8280, 729.1917
557.0030, 799.8105
558.1770, 745.4263
559.3520, 704.0300
560.5260, 814.6260
561.7000, 742.2170
562.8740, 683.7961
564.0480, 689.3340
565.2220, 655.8997
566.3950, 566.4216
567.5680, 645.5432
568.7420, 602.9580
569.9150, 627.3550
571.0870, 518.7373
572.2600, 527.9397
573.4320, 541.5010
574.6050, 400.9761
575.7770, 528.8147
576.9490, 400.3804
578.1210, 305.7468
579.2920, 197.8967
580.4640, 215.9702
581.6350, 199.7651
582.8060, 193.9885
583.9770, 167.2883
585.1480, 115.9207
586.3190, 70.65112
587.4890, 89.06201
588.6590, 47.26294
589.8290, 78.67993
590.9990, 25.60474
592.1690, 42.60791
593.3390, 37.91235
594.5080, 13.62817
595.6770, 35.31201
596.8470, 6.880127
598.0160, 45.61255
599.1840, 0.4799800
600.3530, 48.59570
601.5210, 11.01562
602.6900, 93.75781
603.8580, 31.46826
605.0260, 106.1133
606.1930, 58.98755
607.3610, 62.35376
608.5280, 111.6155
609.6960, 158.9565
610.8630, 150.1899
612.0300, 186.8230
613.1970, 209.9531
614.3630, 234.0308
615.5300, 238.3896
616.6960, 283.1616
617.8620, 325.2141
619.0280, 348.0374
620.1940, 393.1758
621.3590, 420.2397
622.5250, 478.9495
623.6900, 536.6882
624.8550, 598.2671
626.0200, 664.9248
627.1850, 794.5642
628.3490, 799.1863
629.5140, 891.7910
630.6780, 1040.378
631.8420, 1049.948
633.0060, 1144.499
634.1700, 1281.033
635.3330, 1374.551
636.4970, 1477.050
637.6600, 1613.531
638.8230, 1735.994
639.9860, 1914.331
641.1490, 2170.759
642.3110, 2278.169
643.4740, 2564.561
644.6360, 2881.936
645.7980, 3265.292
646.9600, 3638.630
648.1220, 4248.951
649.2840, 4782.251
650.4450, 5785.537
651.6060, 6711.803
652.7670, 8016.050
653.9280, 9506.277
655.0890, 11542.49
656.2500, 13670.69
657.4100, 16313.94
658.5700, 19223.14
659.7300, 22056.60
660.8900, 25058.10
662.0500, 27661.15
663.2100, 29621.45
664.3690, 30464.18
665.5280, 30360.48
666.6880, 28654.59
667.8460, 25807.58
669.0050, 22620.02
670.1640, 19214.49
671.3220, 16065.23
672.4810, 13065.17
673.6390, 10732.21
674.7970, 8875.112
675.9540, 7367.994
677.1120, 6118.868
678.2690, 5159.711
679.4270, 4364.536
680.5840, 3751.341
681.7410, 3276.128
682.8980, 2769.896
684.0540, 2445.646
685.2110, 2229.377
686.3670, 1949.090
687.5230, 1756.785
688.6790, 1583.460
689.8350, 1414.119
690.9900, 1269.758
692.1460, 1090.379
693.3010, 1009.982
694.4560, 963.5674
695.6110, 922.1345
696.7660, 763.6841
697.9210, 751.2156
699.0750, 648.7290
700.2290, 624.2249
701.3840, 543.7029
702.5370, 481.1633
703.6910, 459.6062
704.8450, 407.0322
705.9980, 425.4409
707.1520, 386.3064
708.3050, 324.2117
709.4580, 337.5723
710.6110, 291.9163
711.7630, 253.2446
712.9160, 247.5654
714.0680, 191.8870
715.2200, 161.2031
716.3720, 181.5198
717.5240, 119.8298
718.6760, 76.12476
719.8270, 104.4128
720.9780, 124.7051
722.1300, 89.98657
723.2810, 51.26953
724.4310, 78.53369
725.5820, 0.7387700
726.7330, 6.967285
727.8830, 19.99243
729.0330, 35.12451
730.1830, 8.128174
731.3330, 17.73853
732.4830, 47.70703
733.6320, 55.18237
734.7810, 66.31128
735.9310, 56.45142
737.0800, 11.97974
738.2290, 22.73657
739.3770, 76.28467
740.5260, 34.81909
741.6740, 35.22803
742.8220, 3.399170
743.9700, 8.454102
745.1180, 18.46924
746.2660, 19.58398
747.4130, 16.09497
748.5610, 2.357178
749.7080, 56.83521
750.8550, 16.63306
752.0020, 65.91455
753.1490, 62.51953
754.2950, 51.17798
755.4420, 20.88403
756.5880, 28.62256
757.7340, 23.60352
758.8800, 5.181885
760.0250, 67.01074
761.1710, 16.19263
762.3160, 60.36377
763.4620, 72.52515
764.6070, 68.67651
765.7520, 29.81836
766.8960, 36.95068
768.0410, 64.07422
769.1850, 77.18848
770.3300, 71.54492
771.4740, 63.39111
772.6180, 63.47974
773.7610, 64.56030
774.9050, 79.63330
776.0480, 40.69873
777.1920, 47.24292
778.3350, 54.78101
779.4780, 79.79834
780.6200, 126.8091
781.7630, 46.81323
782.9060, 116.8113
784.0480, 103.8035
785.1900, 17.78979
786.3320, 41.77026
787.4740, 102.7458
788.6150, 34.71631
789.7570, 68.68164
790.8980, 9.642578
792.0390, 14.59912
793.1800, 31.55127
794.3210, 2.500244
795.4620, 48.55713
796.6020, 11.63745
797.7420, 37.72461
798.8830, 81.82837
800.0230, 54.97070
801.1620, 23.13672
802.3020, 11.31177
803.4420, 3.774414
804.5810, 32.67603
805.7200, 18.87134
806.8590, 65.07275
807.9980, 103.2991
809.1370, 26.43091
810.2750, 94.83960
811.4140, 2.851807
812.5520, 21.54346
813.6900, 1.234863
814.8280, 71.92578
815.9650, 31.61719
817.1030, 65.46167
818.2400, 138.0032
819.3780, 97.69800
820.5150, 122.3938
821.6520, 129.0916
822.7880, 82.79077
823.9250, 210.4924
825.0610, 136.1963
826.1980, 87.90259
827.3340, 154.6118
828.4700, 207.3237
829.6050, 158.8992
830.7410, 190.7576
831.8760, 132.4800
833.0120, 99.20581
834.1470, 156.9358
835.2820, 97.67017
836.4160, 122.4087
837.5510, 182.1523
838.6860, 195.9001
839.8200, 257.6536
840.9540, 330.4121
842.0880, 404.1765
843.2220, 504.9463
844.3550, 571.7222
845.4890, 857.5039
846.6220, 1116.292
847.7550, 1418.087
848.8880, 1862.889
850.0210, 2117.698
851.1540, 2638.514
852.2860, 2837.988
853.4190, 3217.166
854.5510, 3136.004
855.6830, 3189.725
856.8150, 2987.577
857.9460, 2780.439
859.0780, 2471.258
860.2090, 2192.781
861.3410, 1861.581
862.4720, 1682.191
863.6020, 1359.214
864.7330, 1313.929
865.8640, 1148.228
866.9940, 982.4438
868.1240, 880.1797
869.2540, 834.0933
870.3840, 791.9634
871.5140, 796.9399
872.6440, 743.5947
873.7730, 645.6426
874.9020, 690.6589
876.0320, 646.3677
877.1600, 664.7471
878.2890, 668.1567
879.4180, 651.6272
880.5460, 669.4980
881.6750, 635.6125
882.8030, 665.4526
883.9310, 665.2207
885.0590, 624.0542
886.1860, 611.5298
887.3140, 593.4878
888.4410, 595.5188
889.5680, 591.5146
890.6950, 570.9175
891.8220, 600.9771
892.9490, 583.6206
894.0750, 583.9468
895.2020, 555.2036
896.3280, 601.6104
897.4540, 619.9897
898.5800, 573.4399
899.7050, 601.2925
900.8310, 566.4243
901.9560, 553.9543
903.0820, 515.5132
904.2070, 406.1133
905.3320, 484.7341
906.4560, 396.4014
907.5810, 396.0908
908.7050, 420.8169
909.8300, 474.5740
910.9540, 376.3586
912.0780, 390.1809
913.2010, 423.1333
914.3250, 406.0017
915.4480, 393.9075
916.5720, 392.8491
917.6950, 328.8276
918.8180, 436.8274
919.9410, 389.8647
921.0630, 372.9265
922.1860, 433.0098
923.3080, 417.1353
924.4300, 340.2930
925.5520, 332.4834
926.6740, 374.6958
927.7960, 382.9319
928.9170, 368.1902
930.0390, 404.4080
931.1600, 387.7058
932.2810, 367.7747
933.4020, 283.8154
934.5230, 328.3171
935.6430, 264.5801
936.7640, 332.4299
937.8840, 193.7214
939.0040, 215.2163
940.1240, 269.8352
941.2440, 269.0242
942.3630, 220.1958
943.4830, 265.0969
944.6020, 184.8188
945.7210, 234.4519
946.8400, 258.2273
947.9590, 285.0444
949.0770, 284.8750
950.1960, 287.7437
951.3140, 341.6431
952.4320, 357.1609
953.5500, 449.5298
954.6680, 450.5129
955.7860, 534.5264
956.9030, 626.5652
958.0210, 499.6365
959.1380, 537.7336
960.2550, 599.8579
961.3720, 581.0093
962.4890, 627.1860
963.6050, 691.3918
964.7220, 688.6240
965.8380, 636.8818
966.9540, 735.1660
968.0700, 707.4785
969.1860, 724.8167
970.3010, 760.1816
971.4170, 879.5725
972.5320, 878.9980
973.6470, 916.4543
974.7620, 935.9380
975.8770, 997.4490
976.9910, 945.9875
978.1060, 1072.556
979.2200, 1125.150
980.3340, 1133.771
981.4480, 1243.417
982.5620, 1322.092
983.6760, 1385.793
984.7890, 1538.519
985.9030, 1597.272
987.0160, 1773.052
988.1290, 1886.857
989.2420, 2019.689
990.3550, 2388.548
991.4670, 2601.433
992.5800, 2871.344
993.6920, 3148.280
994.8040, 3673.246
995.9160, 4256.236
997.0280, 4835.266
998.1390, 5660.331
999.2510, 6541.428
1000.362, 7784.554
1001.473, 9042.717
1002.584, 10836.91
1003.695, 12997.15
1004.805, 16040.42
1005.916, 19162.74
1007.026, 23093.11
1008.136, 26846.51
1009.246, 30927.95
1010.356, 34491.43
1011.466, 36203.97
1012.576, 36920.55
1013.685, 35104.15
1014.794, 31558.78
1015.903, 27309.45
1017.012, 22309.14
1018.121, 18046.85
1019.229, 14472.60
1020.338, 11736.39
1021.446, 9861.213
1022.554, 8344.077
1023.662, 7223.363
1024.770, 6385.316
1025.878, 5774.306
1026.985, 5267.331
1028.092, 4872.378
1029.200, 4517.539
1030.307, 4458.641
1031.413, 4382.863
1032.520, 4302.732
1033.627, 4347.929
1034.733, 4473.950
1035.839, 4621.985
1036.945, 4681.172
1038.051, 4897.481
1039.157, 4990.890
1040.262, 5060.400
1041.368, 5130.451
1042.473, 5007.074
1043.578, 4950.901
1044.683, 4592.882
1045.788, 4278.317
1046.893, 3896.463
1047.997, 3601.519
1049.101, 3164.157
1050.205, 3000.132
1051.309, 2568.641
1052.413, 2335.664
1053.517, 2102.511
1054.621, 1902.073
1055.724, 1826.240
1056.827, 1585.986
1057.930, 1499.823
1059.033, 1460.452
1060.136, 1277.184
1061.238, 1178.845
1062.341, 1085.619
1063.443, 1047.679
1064.545, 983.8330
1065.647, 964.5908
1066.749, 862.3777
1067.850, 810.3435
1068.952, 781.6694
1070.053, 729.4458
1071.154, 737.1318
1072.255, 682.0713
1073.356, 689.4385
1074.457, 689.3767
1075.557, 670.5544
1076.658, 663.9524
1077.758, 605.1990
1078.858, 641.5288
1079.958, 714.0093
1081.057, 673.0703
1082.157, 637.0930
1083.256, 595.2251
1084.356, 623.3477
1085.455, 575.5361
1086.554, 579.7705
1087.653, 549.6470
1088.751, 576.7292
1089.850, 585.2493
1090.948, 604.3977
1092.046, 543.6304
1093.144, 582.9185
1094.242, 469.0684
1095.340, 579.7549
1096.437, 574.9456
1097.534, 470.0955
1098.632, 475.2527
1099.729, 517.8081
1100.826, 482.9800
1101.922, 518.3765
1103.019, 482.4194
1104.115, 541.4749
1105.212, 483.6829
1106.308, 455.1321
1107.404, 505.5413
1108.499, 400.1475
1109.595, 454.0278
1110.691, 472.2542
1111.786, 455.5020
1112.881, 503.9058
1113.976, 469.3059
1115.071, 507.5508
1116.166, 463.8162
1117.260, 494.2166
1118.355, 491.4734
1119.449, 479.7336
1120.543, 449.9973
1121.637, 455.3455
1122.731, 492.6152
1123.824, 477.8877
1124.918, 485.1628
1126.011, 500.4399
1127.104, 467.7197
1128.197, 439.6306
1129.290, 448.9136
1130.382, 426.1982
1131.475, 437.4841
1132.567, 414.7708
1133.659, 419.0632
1134.751, 371.3513
1135.843, 371.6394
1136.935, 353.9280
1138.027, 337.2158
1139.118, 260.5037
1140.209, 266.7905
1141.300, 257.0759
1142.391, 216.3604
1143.482, 225.6689
1144.573, 162.9497
1145.663, 159.4016
1146.754, 151.5049
1147.844, 135.8474
1148.934, 118.1272
1150.024, 120.3955
1151.113, 51.66040
1152.203, 63.92188
1153.292, 9.179932
1154.381, 15.56641
1155.470, 43.67871
1156.559, 36.91968
1157.648, 13.15576
1158.737, 68.38696
1159.825, 3.386719
1160.913, 2.832520
1162.001, 27.92017
1163.089, 37.72363
1164.177, 41.54956
1165.265, 20.40039
1166.352, 36.26660
1167.440, 85.15674
1168.527, 9.6680000E-02
1169.614, 102.0454
1170.701, 4.041992
1171.788, 61.91064
1172.874, 37.97046
1173.961, 24.05908
1175.047, 57.16968
1176.133, 2.679688
1177.219, 9.480713
1178.305, 54.65698
1179.390, 46.87402
1180.476, 51.12793
1181.561, 31.57837
1182.646, 49.72412
1183.731, 1.933105
1184.816, 30.57690
1185.901, 64.78857
1186.985, 25.20386
1188.070, 25.64819
1189.154, 40.87720
1190.238, 12.39282
1191.322, 34.89648
1192.406, 52.60986
1193.489, 72.16235
1194.573, 24.77246
1195.656, 49.41479
1196.739, 1.103516
1197.822, 2.813232
1198.905, 7.545654
1199.988, 19.30347
1201.070, 6.093506
1202.153, 26.09082
1203.235, 20.73755
1204.317, 32.40015
1205.399, 21.52490
1206.481, 18.36475
1207.562, 0.7111820
1208.644, 21.76221
1209.725, 17.20239
1210.806, 40.79810
1211.887, 58.78516
1212.968, 6.759521
1214.049, 7.710693
1215.129, 36.63867
1216.209, 35.55200
1217.290, 15.45312
1218.370, 73.33374
1219.450, 4.200684
1220.529, 53.04102
1221.609, 43.86719
1222.688, 41.67847
1223.768, 62.47461
1224.847, 27.25659
1225.926, 59.02002
1227.005, 79.76855
1228.083, 105.5032
1229.162, 36.22388
1230.240, 104.9265
1231.318, 58.61523
1232.396, 92.28833
1233.474, 2.947510
1234.552, 20.57812
1235.629, 48.18481
1236.707, 51.77417
1237.784, 42.34741
1238.861, 32.90308
1239.938, 86.43823
1241.015, 81.95825
1242.092, 58.46338
1243.168, 59.95215
1244.244, 144.4243
1245.321, 85.88184
1246.397, 63.32373
1247.473, 173.7495
1248.548, 116.1599
1249.624, 147.5554
1250.699, 74.93555
1251.775, 150.2998
1252.850, 130.6487
1253.925, 170.9822
1254.999, 110.3003
1256.074, 162.6030
1257.148, 43.89062
1258.223, 142.1567
1259.297, 121.4075
1260.371, 140.6431
1261.445, 109.8633
1262.519, 102.0676
1263.592, 146.2566
1264.666, 201.4438
1265.739, 113.6023
1266.812, 147.7493
1267.885, 118.8809
1268.958, 114.9966
1270.030, 138.0967
1271.103, 133.1812
1272.175, 103.2495
1273.247, 152.3020
1274.319, 151.3403
1275.391, 114.3628
1276.463, 95.37012
1277.535, 110.3604
1278.606, 129.3350
1279.677, 134.2937
1280.748, 143.2368
1281.819, 149.7590
1282.890, 156.1213
1283.961, 158.5999
1285.031, 169.4807
1286.102, 179.3459
1287.172, 188.2817
1288.242, 143.1155
1289.312, 183.8513
1290.381, 109.6514
1291.451, 126.3403
1292.520, 183.4431
1293.590, 162.2009
1294.659, 196.1108
1295.728, 185.9058
1296.797, 168.7761
1297.865, 150.4226
1298.934, 99.97388
1300.002, 72.43188
1301.070, 113.3560
1302.138, 119.7117
1303.206, 143.8701
1304.274, 126.8816
1305.341, 128.6970
1306.409, 130.3130
1307.476, 109.2791
1308.543, 106.6682
1309.610, 106.7261
1310.677, 111.2078
1311.744, 122.5190
1312.810, 136.4758
1313.877, 141.9653
1314.943, 161.8540
1316.009, 137.2246
1317.075, 118.4509
1318.140, 75.88989
1319.206, 106.1301
1320.272, 155.6438
1321.337, 137.9492
1322.402, 150.9729
1323.467, 119.9172
1324.532, 160.2629
1325.596, 126.5901
1326.661, 158.7603
1327.725, 130.5847
1328.790, 148.6472
1329.854, 146.4658
1330.918, 185.7327
1331.981, 225.5386
1333.045, 217.7788
1334.108, 214.8542
1335.172, 206.6736
1336.235, 216.6465
1337.298, 211.1606
1338.361, 206.8450
1339.423, 214.5581
1340.486, 188.7830
1341.548, 200.5247
1342.611, 170.0605
1343.673, 165.1248
1344.735, 112.8833
1345.796, 101.2627
1346.858, 126.4377
1347.919, 143.1758
1348.981, 198.2869
1350.042, 109.3147
1351.103, 164.2878
1352.164, 141.4634
1353.225, 216.0396
1354.285, 125.1123
1355.346, 156.2256
1356.406, 151.3315
1357.466, 123.0403
1358.526, 97.13208
1359.586, 95.41162
1360.645, 116.2207
1361.705, 91.94897
1362.764, 135.0042
1363.823, 155.8179
1364.882, 169.6704
1365.941, 126.5430
1367.000, 88.92212
1368.059, 82.95410
1369.117, 56.96387
1370.175, 115.8167
1371.233, 147.6724
1372.291, 136.6812
1373.349, 93.66895
1374.407, 91.52002
1375.464, 107.5134
1376.522, 128.5020
1377.579, 165.4854
1378.636, 58.38232
1379.693, 109.3560
1380.750, 99.32495
1381.806, 159.2896
1382.863, 130.2498
1383.919, 73.20605
1384.975, 135.5286
1386.031, 88.47632
1387.087, 95.45312
1388.143, 95.39307
1389.199, 111.3289
1390.254, 125.3347
1391.309, 28.26367
1392.364, 105.2998
1393.419, 96.22974
1394.474, 75.17749
1395.529, 134.0854
1396.583, 73.98926
1397.638, 137.8904
1398.692, 89.78955
1399.746, 53.66016
1400.800, 103.8838
1401.853, 123.7678
1402.907, 34.72900
1403.960, 72.53638
1405.014, 68.40234
1406.067, 84.27490
1407.120, 88.82251
1408.173, 83.01440
1409.225, 80.10449
1410.278, 71.97046
1411.330, 51.83765
1412.383, 104.7031
1413.435, 6.567871
1414.487, 52.43066
1415.538, 86.29077
1416.590, 47.14844
1417.641, 27.94678
1418.693, 12.78320
1419.744, 18.62598
1420.795, 54.46704
1421.846, 35.30859
1422.897, 56.84253
1423.947, 35.71094
1424.998, 68.57007
1426.048, 78.44067
1427.098, 84.17163
1428.148, 95.80469
1429.198, 53.96753
1430.247, 102.8743
1431.297, 44.79565
1432.346, 46.66968
1433.396, 74.54077
1434.445, 42.44214
1435.494, 67.11768
1436.542, 59.68921
1437.591, 78.42871
1438.639, 57.28003
1439.688, 37.82178
1440.736, 43.64160
1441.784, 8.498535
1442.832, 55.35400
1443.880, 67.21729
1444.927, 59.14771
1445.975, 73.12158
1447.022, 85.11182
1448.069, 54.13159
1449.116, 40.16382
1450.163, 64.20337
1451.209, 96.26855
1452.256, 76.35083
1453.302, 20.44092
1454.348, 14.54370
1455.394, 36.64722
1456.440, 10.75317
1457.486, 59.87134
1458.532, 69.98975
1459.577, 6.109131
1460.623, 91.23022
1461.668, 87.35156
1462.713, 7.474121
1463.758, 65.60352
1464.802, 67.75269
1465.847, 32.90698
1466.891, 13.07031
1467.936, 68.23608
1468.980, 56.40625
1470.024, 16.42139
1471.067, 38.75415
1472.111, 32.93262
1473.155, 83.11401
1474.198, 66.29858
1475.241, 64.49023
1476.284, 29.68970
1477.327, 5.893311
1478.370, 31.08008
1479.413, 83.28394
1480.455, 101.4868
1481.497, 143.6948
1482.540, 125.6001
1483.582, 61.12524
1484.624, 70.34766
1485.665, 27.57812
1486.707, 12.18384
1487.748, 95.05933
1488.790, 126.3108
1489.831, 97.42603
1490.872, 5.306396
1491.912, 46.87744
1492.953, 25.11377
1493.994, 81.40649
1495.034, 36.70483
1496.074, 54.01514
1497.114, 45.33716
1498.154, 70.66968
1499.194, 56.01392
1500.234, 65.36938
1501.273, 80.73511
1502.313, 64.11499
1503.352, 50.39624
1504.391, 90.80933
1505.430, 43.23730
1506.468, 48.67773
1507.507, 65.13013
1508.545, 34.59424
1509.584, 46.00903
1510.622, 85.39868
1511.660, 19.89258
1512.698, 61.25244
1513.735, 99.63281
1514.773, 10.15674
1515.810, 71.61206
1516.848, 5.158203
1517.885, 16.26685
1518.922, 20.25977
1519.958, 32.79736
1520.995, 52.16479
1522.032, 93.72290
1523.068, 44.29419
1524.104, 104.8787
1525.140, 3.522949
1526.176, 72.38647
1527.212, 12.96826
1528.248, 106.8108
1529.283, 49.40137
1530.318, 91.00342
1531.353, 51.61646
1532.389, 105.2400
1533.423, 0.1264650
1534.458, 79.52002
1535.493, 59.17407
1536.527, 68.83472
1537.561, 113.5049
1538.596, 96.02466
1539.630, 52.31055
1540.663, 79.39648
1541.697, 94.28809
1542.731, 54.76001
1543.764, 70.21460
1544.797, 48.51147
1545.830, 79.34448
1546.863, 6.306152
1547.896, 61.99316
1548.929, 46.39111
1549.961, 69.40820
1550.994, 86.29883
1552.026, 151.0576
1553.058, 123.9714
1554.090, 151.0381
1555.121, 93.28662
1556.153, 84.58203
1557.185, 56.36938
1558.216, 28.69312
1559.247, 15.22705
1560.278, 39.70898
1561.309, 0.1242680
1562.340, 65.65234
1563.370, 0.0000000E+00
##END=



