##NAMES=Diopside
##RRUFFID=R060276
##IDEAL CHEMISTRY=CaMgSi_2_O_6_
##LOCALITY=Inagli, Yakutia, Siberia, Russia
##OWNER=RRUFF
##SOURCE=Herb Obodda
##DESCRIPTION=Transparent green cleavage fragment
##STATUS=The identification of this mineral has been confirmed by X-ray diffraction and chemical analysis
##URL=rruff.info/R060276
##MEASURED CHEMISTRY=(Ca_0.97_Na_0.03_)_Σ=1_(Mg_0.96_Fe_0.03_Cr_0.01_)_Σ=1_(Si_1.98_Al_0.02_)_Σ=2_O_6_
##PIN_ID=L01812
##ORIENTATION=Laser parallel to -c* (0 0 -1). Fiducial mark perpendicular to laser is parallel to -a [-1 0 0]
109.5120, 0.0000000E+00
110.7440, 0.2548830
111.9760, 33.27881
113.2080, 34.46167
114.4400, 117.7908
115.6710, 161.8447
116.9030, 134.2251
118.1340, 100.0603
119.3650, 59.35400
120.5960, 84.08252
121.8270, 48.89453
123.0580, 75.73193
124.2880, 33.63208
125.5190, 1.607178
126.7490, 16.33521
127.9790, 113.8088
129.2090, 160.0439
130.4390, 230.3506
131.6680, 261.2048
132.8980, 339.2959
134.1270, 416.7429
135.3560, 509.5264
136.5850, 507.4004
137.8140, 541.3579
139.0430, 487.3955
140.2710, 376.5093
141.5000, 363.6963
142.7280, 266.9546
143.9560, 181.2825
145.1840, 132.6792
146.4120, 128.1438
147.6390, 54.67505
148.8670, 35.28418
150.0940, 22.82251
151.3210, 22.54736
152.5490, 7.980957
153.7750, 66.48145
155.0020, 56.93921
156.2290, 56.39648
157.4550, 120.8557
158.6810, 110.9705
159.9080, 220.9053
161.1340, 262.2261
162.3590, 346.5701
163.5850, 337.9390
164.8110, 299.3350
166.0360, 375.7603
167.2610, 328.2161
168.4860, 391.7034
169.7110, 370.2236
170.9360, 430.7783
172.1610, 639.3667
173.3850, 661.9897
174.6100, 773.6487
175.8340, 969.3445
177.0580, 1246.077
178.2820, 1601.848
179.5050, 1698.657
180.7290, 1529.506
181.9520, 1325.393
183.1760, 1173.329
184.3990, 1045.296
185.6220, 945.2861
186.8450, 806.2983
188.0670, 738.1196
189.2900, 708.3750
190.5120, 792.1240
191.7340, 856.3813
192.9560, 969.2825
194.1780, 887.9797
195.4000, 823.7070
196.6220, 627.4646
197.8430, 561.2534
199.0640, 432.0732
200.2860, 302.9248
201.5070, 240.8083
202.7270, 159.7246
203.9480, 50.65527
205.1690, 72.61816
206.3890, 31.36523
207.6090, 17.31323
208.8290, 2.229736
210.0490, 9.886230
211.2690, 72.03589
212.4890, 68.21899
213.7080, 97.43750
214.9280, 103.6917
216.1470, 221.9822
217.3660, 212.3105
218.5850, 341.6758
219.8030, 514.0789
221.0220, 626.5188
222.2400, 844.9956
223.4590, 973.5090
224.6770, 1216.057
225.8950, 1409.639
227.1120, 1577.255
228.3300, 1692.906
229.5480, 1848.590
230.7650, 1753.309
231.9820, 1712.041
233.1990, 1426.800
234.4160, 1202.594
235.6330, 1042.421
236.8490, 813.2832
238.0660, 629.1787
239.2820, 544.1089
240.4980, 409.0723
241.7140, 454.0691
242.9300, 462.0996
244.1460, 568.1638
245.3610, 634.2612
246.5770, 768.3916
247.7920, 828.5547
249.0070, 1025.750
250.2220, 1265.979
251.4370, 1332.240
252.6510, 1408.534
253.8660, 1338.859
255.0800, 1134.217
256.2940, 985.6394
257.5080, 872.4380
258.7220, 683.0400
259.9360, 583.5161
261.1490, 386.6038
262.3630, 206.6245
263.5760, 117.6069
264.7890, 54.29858
266.0020, 18.12378
267.2150, 79.37964
268.4270, 11.23926
269.6400, 5.956299
270.8520, 47.32471
272.0640, 57.27686
273.2760, 93.23853
274.4880, 61.23120
275.7000, 64.20264
276.9120, 45.80566
278.1230, 3.831299
279.3340, 27.88794
280.5450, 59.97437
281.7560, 56.08862
282.9670, 107.2305
284.1780, 85.39990
285.3880, 128.5959
286.5980, 178.8193
287.8090, 249.5393
289.0190, 332.3452
290.2290, 451.6475
291.4380, 588.9751
292.6480, 704.3284
293.8570, 855.7258
295.0670, 993.1440
296.2760, 1182.261
297.4850, 1339.710
298.6930, 1558.746
299.9020, 1751.015
301.1110, 2079.395
302.3190, 2274.293
303.5270, 2693.850
304.7350, 3007.396
305.9430, 3426.969
307.1510, 3959.581
308.3580, 4643.244
309.5660, 5387.937
310.7730, 6440.672
311.9800, 7750.434
313.1870, 9314.227
314.3940, 11100.07
315.6010, 13255.95
316.8070, 15567.88
318.0130, 18190.83
319.2200, 20604.82
320.4260, 22824.87
321.6310, 23732.96
322.8370, 23417.09
324.0430, 22529.24
325.2480, 20342.43
326.4540, 17906.62
327.6590, 15574.85
328.8640, 13118.10
330.0680, 10949.36
331.2730, 8715.649
332.4780, 7347.955
333.6820, 6130.284
334.8860, 5041.609
336.0900, 4297.943
337.2940, 3704.258
338.4980, 3423.562
339.7010, 3072.889
340.9050, 2848.239
342.1080, 2788.611
343.3110, 2608.005
344.5140, 2552.421
345.7170, 2702.859
346.9200, 2695.320
348.1220, 2921.802
349.3240, 3098.305
350.5270, 3283.831
351.7290, 3459.932
352.9310, 3672.692
354.1320, 3797.067
355.3340, 3757.677
356.5350, 3701.309
357.7370, 3588.962
358.9380, 3452.635
360.1390, 3163.328
361.3400, 3029.042
362.5400, 2856.777
363.7410, 2694.531
364.9410, 2591.306
366.1410, 2567.101
367.3410, 2575.036
368.5410, 2683.749
369.7410, 2767.601
370.9400, 2992.473
372.1400, 3210.365
373.3390, 3411.275
374.5380, 3922.205
375.7370, 4487.152
376.9360, 5536.119
378.1350, 6749.104
379.3330, 8464.106
380.5310, 10488.13
381.7300, 12774.17
382.9280, 15546.23
384.1260, 18587.30
385.3230, 21459.40
386.5210, 24330.51
387.7180, 26252.64
388.9160, 26950.79
390.1130, 25801.95
391.3100, 23854.13
392.5060, 21027.34
393.7030, 18105.55
394.9000, 15128.78
396.0960, 12281.03
397.2920, 9656.301
398.4880, 7642.587
399.6840, 5873.889
400.8800, 4551.204
402.0750, 3565.535
403.2710, 2912.887
404.4660, 2222.258
405.6610, 1928.646
406.8560, 1507.053
408.0510, 1310.479
409.2450, 1140.925
410.4400, 955.9604
411.6340, 844.5776
412.8280, 742.7688
414.0220, 701.4958
415.2160, 625.5999
416.4100, 542.3193
417.6030, 524.4807
418.7970, 430.1111
419.9900, 449.6438
421.1830, 371.2969
422.3760, 338.7605
423.5690, 289.6584
424.7610, 266.3674
425.9540, 211.0947
427.1460, 182.8396
428.3380, 193.6030
429.5300, 140.3838
430.7220, 100.1829
431.9140, 156.9990
433.1050, 24.83301
434.2970, 10.68384
435.4880, 19.55200
436.6790, 7.437012
437.8700, 2.661133
439.0610, 37.25684
440.2510, 36.19727
441.4420, 33.15527
442.6320, 39.86890
443.8220, 42.88403
445.0120, 23.89062
446.2020, 57.11816
447.3910, 14.14380
448.5810, 44.30762
449.7700, 56.22192
450.9600, 24.91504
452.1490, 110.4844
453.3370, 201.4890
454.5260, 269.1091
455.7150, 302.9971
456.9030, 378.7246
458.0910, 469.9102
459.2800, 472.0566
460.4670, 532.0923
461.6550, 587.2542
462.8430, 580.7476
464.0300, 632.1345
465.2180, 588.4705
466.4050, 528.9023
467.5920, 533.2698
468.7790, 494.6636
469.9650, 341.0498
471.1520, 326.6077
472.3380, 219.0254
473.5250, 290.4531
474.7110, 199.8904
475.8970, 178.0938
477.0820, 108.5557
478.2680, 141.0364
479.4540, 109.5659
480.6390, 75.06787
481.8240, 127.5784
483.0090, 80.09717
484.1940, 131.6243
485.3780, 43.15894
486.5630, 52.70117
487.7470, 63.25122
488.9320, 94.80859
490.1160, 82.41797
491.3000, 82.94458
492.4830, 72.52319
493.6670, 53.10864
494.8500, 56.70728
496.0340, 113.3162
497.2170, 68.93213
498.4000, 40.55396
499.5820, 13.18164
500.7650, 92.81494
501.9480, 129.4534
503.1300, 154.0972
504.3120, 170.7461
505.4940, 292.3999
506.6760, 309.0583
507.8580, 389.7217
509.0390, 454.3889
510.2210, 495.0610
511.4020, 552.7378
512.5830, 668.4180
513.7640, 649.1025
514.9450, 751.7910
516.1250, 779.4834
517.3060, 949.1797
518.4860, 1011.880
519.6660, 1209.583
520.8460, 1498.298
522.0260, 1656.020
523.2060, 1893.757
524.3850, 2101.499
525.5650, 2316.261
526.7440, 2457.036
527.9230, 2516.814
529.1020, 2413.601
530.2810, 2238.413
531.4590, 2124.237
532.6380, 1795.074
533.8160, 1624.926
534.9940, 1347.785
536.1720, 1115.653
537.3500, 1020.542
538.5270, 924.4331
539.7050, 792.3350
540.8820, 733.2368
542.0590, 676.1382
543.2360, 717.0391
544.4130, 662.9399
545.5900, 771.8418
546.7660, 768.7546
547.9430, 937.6743
549.1190, 1088.595
550.2950, 1217.523
551.4710, 1426.455
552.6470, 1650.388
553.8220, 1934.352
554.9980, 2126.316
556.1730, 2279.282
557.3480, 2281.831
558.5230, 2295.229
559.6980, 2070.224
560.8730, 1886.229
562.0470, 1602.238
563.2220, 1315.243
564.3960, 1016.245
565.5700, 842.2417
566.7440, 597.2344
567.9170, 572.2219
569.0910, 441.2051
570.2640, 434.1826
571.4380, 324.1550
572.6110, 321.1221
573.7840, 268.0833
574.9570, 234.0386
576.1290, 223.9878
577.3020, 212.9307
578.4740, 117.8672
579.6460, 130.7632
580.8180, 135.6865
581.9900, 155.8123
583.1620, 56.72119
584.3330, 90.84521
585.5040, 42.13599
586.6760, 24.20850
587.8470, 42.55933
589.0180, 2.613037
590.1880, 45.58179
591.3590, 88.91211
592.5290, 6.380859
593.7000, 59.97803
594.8700, 12.27246
596.0400, 8.742920
597.2090, 84.91553
598.3790, 59.52295
599.5490, 41.61548
600.7180, 10.29590
601.8870, 55.72412
603.0560, 59.86523
604.2250, 89.15332
605.3940, 23.54932
606.5620, 8.489502
607.7300, 44.00342
608.8990, 47.50732
610.0670, 55.47559
611.2350, 43.85474
612.4020, 79.67749
613.5700, 73.99707
614.7370, 144.2734
615.9050, 25.93896
617.0720, 81.05054
618.2390, 139.2920
619.4060, 68.80249
620.5720, 185.3472
621.7390, 148.4375
622.9050, 159.4363
624.0710, 245.4202
625.2370, 239.3892
626.4030, 217.3735
627.5690, 311.3125
628.7340, 399.2485
629.9000, 462.1863
631.0650, 440.0798
632.2300, 474.0142
633.3950, 472.9399
634.5600, 559.8066
635.7240, 670.6379
636.8890, 645.4526
638.0530, 696.2515
639.2170, 808.0339
640.3810, 843.8005
641.5450, 1029.551
642.7080, 1136.284
643.8720, 1254.001
645.0350, 1547.702
646.1980, 1665.385
647.3610, 1914.052
648.5240, 2134.702
649.6870, 2605.447
650.8490, 3115.171
652.0120, 3668.771
653.1740, 4493.361
654.3360, 5461.105
655.4980, 6609.708
656.6600, 8297.389
657.8210, 9987.096
658.9830, 12264.72
660.1440, 14729.14
661.3050, 17219.33
662.4660, 19312.62
663.6270, 20943.43
664.7870, 21399.03
665.9480, 21225.91
667.1080, 19735.45
668.2680, 17784.20
669.4280, 15368.18
670.5880, 13001.87
671.7480, 10807.54
672.9070, 8795.368
674.0670, 7033.664
675.2260, 5634.566
676.3850, 4580.459
677.5440, 3867.139
678.7030, 3214.543
679.8610, 2740.711
681.0200, 2291.830
682.1780, 1975.050
683.3360, 1756.266
684.4940, 1475.522
685.6520, 1309.326
686.8090, 1169.986
687.9670, 1030.383
689.1240, 923.5183
690.2810, 885.3542
691.4380, 795.4138
692.5950, 745.2773
693.7520, 711.4810
694.9080, 650.1069
696.0650, 503.9380
697.2210, 509.9609
698.3770, 484.2705
699.5330, 515.5254
700.6880, 433.2639
701.8440, 420.9785
702.9990, 470.6699
704.1550, 435.3376
705.3100, 500.9819
706.4650, 442.6033
707.6190, 345.2002
708.7740, 321.7739
709.9290, 240.3242
711.0830, 198.8508
712.2370, 214.3540
713.3910, 237.8335
714.5450, 293.2896
715.6980, 223.7219
716.8520, 279.1309
718.0050, 185.5164
719.1580, 221.8784
720.3110, 119.2173
721.4640, 192.5303
722.6170, 210.8203
723.7700, 111.0903
724.9220, 90.33887
726.0740, 94.56006
727.2260, 70.75415
728.3780, 123.7986
729.5300, 70.08374
730.6810, 67.57861
731.8330, 37.18530
732.9840, 71.34155
734.1350, 85.87085
735.2860, 45.12256
736.4370, 52.52075
737.5880, 9.448975
738.7380, 6.396240
739.8880, 56.43530
741.0390, 55.33618
742.1890, 14.07471
743.3380, 51.53491
744.4880, 28.21606
745.6380, 48.78760
746.7870, 19.58740
747.9360, 9.986816
749.0850, 71.44751
750.2340, 28.90845
751.3830, 57.39136
752.5310, 63.85376
753.6800, 6.295898
754.8280, 92.95459
755.9760, 4.655762
757.1240, 32.69556
758.2720, 29.98560
759.4190, 81.29053
760.5670, 117.5767
761.7140, 112.8447
762.8610, 117.0945
764.0080, 89.32642
765.1550, 95.88770
766.3020, 91.88696
767.4480, 86.91602
768.5950, 93.07715
769.7410, 78.63013
770.8870, 76.01123
772.0330, 85.45605
773.1780, 101.5476
774.3240, 145.6228
775.4690, 158.6814
776.6140, 175.7231
777.7590, 132.7490
778.9040, 152.7588
780.0490, 114.7527
781.1940, 126.7302
782.3380, 104.6926
783.4820, 100.5244
784.6260, 92.57080
785.7700, 98.48730
786.9140, 50.38867
788.0580, 50.27393
789.2010, 93.14355
790.3450, 71.99829
791.4880, 29.83862
792.6310, 58.66309
793.7730, 34.47266
794.9160, 23.26685
796.0590, 38.04517
797.2010, 19.19141
798.3430, 0.4594730
799.4850, 34.74927
800.6270, 3.921875
801.7690, 57.42505
802.9100, 30.82251
804.0520, 16.74463
805.1930, 14.70239
806.3340, 83.17603
807.4750, 31.71118
808.6160, 32.28052
809.7560, 51.88354
810.8970, 12.53076
812.0370, 23.20068
813.1770, 71.89819
814.3170, 5.648193
815.4570, 34.41553
816.5960, 38.78491
817.7360, 63.97437
818.8750, 13.15308
820.0140, 7.320068
821.1530, 3.6621001E-02
822.2920, 47.38184
823.4310, 30.27441
824.5690, 8.192871
825.7070, 40.12573
826.8460, 20.08862
827.9840, 0.9296880
829.1220, 87.06274
830.2590, 8.107910
831.3970, 20.16602
832.5340, 30.75952
833.6710, 5.323730
834.8080, 36.41772
835.9450, 15.53516
837.0820, 48.33447
838.2190, 41.19604
839.3550, 25.05029
840.4910, 56.89697
841.6270, 61.73633
842.7630, 28.56885
843.8990, 73.39429
845.0350, 85.21338
846.1700, 162.0259
847.3060, 277.8320
848.4410, 339.6323
849.5760, 446.4268
850.7100, 513.2156
851.8450, 573.9443
852.9800, 688.7764
854.1140, 685.5491
855.2480, 704.3169
856.3820, 760.0796
857.5160, 744.6279
858.6500, 658.3818
859.7830, 566.1311
860.9170, 622.6121
862.0500, 598.8042
863.1830, 486.0688
864.3160, 450.8455
865.4480, 475.4011
866.5810, 534.2893
867.7130, 486.2759
868.8460, 476.3721
869.9780, 457.5874
871.1100, 523.0547
872.2410, 454.6589
873.3730, 442.6580
874.5050, 583.1084
875.6360, 561.5259
876.7670, 594.8591
877.8980, 539.2808
879.0290, 502.8142
880.1590, 486.4141
881.2900, 517.5327
882.4200, 563.1963
883.5500, 565.8376
884.6800, 539.3108
885.8100, 540.7454
886.9400, 544.0325
888.0690, 523.8105
889.1990, 563.6211
890.3280, 533.0303
891.4570, 496.9792
892.5860, 527.6279
893.7140, 476.3147
894.8430, 537.8079
895.9710, 506.7439
897.1000, 467.7610
898.2280, 501.7874
899.3560, 533.8494
900.4830, 514.8860
901.6110, 485.9578
902.7380, 425.0254
903.8660, 411.0806
904.9930, 516.1821
906.1200, 377.2344
907.2460, 472.2854
908.3730, 452.4155
909.5000, 480.5720
910.6260, 395.7351
911.7520, 358.9182
912.8780, 371.1152
914.0040, 281.3274
915.1290, 296.5510
916.2550, 349.7817
917.3800, 274.0505
918.5050, 388.3335
919.6300, 391.6394
920.7550, 309.9521
921.8800, 295.2722
923.0040, 318.4971
924.1290, 326.7332
925.2530, 271.0862
926.3770, 289.4382
927.5010, 291.6362
928.6250, 309.9690
929.7480, 285.2219
930.8720, 291.2673
931.9950, 262.7744
933.1180, 258.2893
934.2410, 240.0249
935.3640, 179.6548
936.4860, 171.7734
937.6090, 120.5837
938.7310, 165.1270
939.8530, 79.48193
940.9750, 128.6343
942.0970, 202.5391
943.2180, 147.7256
944.3400, 175.9302
945.4610, 141.9585
946.5820, 136.5254
947.7030, 159.4800
948.8240, 260.4399
949.9450, 275.6030
951.0650, 253.0366
952.1860, 376.7109
953.3060, 331.4253
954.4260, 434.0283
955.5460, 454.6260
956.6650, 420.1743
957.7850, 508.1655
958.9040, 557.2939
960.0230, 573.6782
961.1420, 526.3154
962.2610, 650.2422
963.3800, 624.9395
964.4990, 775.8242
965.6170, 786.3594
966.7350, 762.4731
967.8530, 784.3726
968.9710, 853.0708
970.0890, 843.4722
971.2070, 906.9180
972.3240, 1031.871
973.4410, 1064.839
974.5580, 1183.818
975.6750, 1177.813
976.7920, 1290.821
977.9090, 1343.842
979.0250, 1364.904
980.1410, 1408.981
981.2580, 1530.283
982.3740, 1680.179
983.4890, 1798.297
984.6050, 2023.430
985.7200, 2174.576
986.8360, 2375.735
987.9510, 2590.910
989.0660, 2671.096
990.1810, 3097.300
991.2950, 3367.518
992.4100, 3849.750
993.5240, 4320.996
994.6390, 4983.255
995.7530, 5569.540
996.8660, 6596.840
997.9800, 7548.158
999.0940, 8996.491
1000.207, 10886.84
1001.320, 13182.21
1002.433, 15971.60
1003.546, 19594.00
1004.659, 24754.42
1005.772, 30496.85
1006.884, 37891.30
1007.996, 45537.79
1009.108, 52662.28
1010.220, 58430.80
1011.332, 60778.33
1012.444, 59695.88
1013.555, 55099.46
1014.666, 48259.05
1015.777, 40518.65
1016.888, 32434.28
1017.999, 25475.92
1019.110, 19923.59
1020.220, 15491.29
1021.331, 12148.01
1022.441, 9802.738
1023.551, 8039.478
1024.661, 6585.348
1025.770, 5646.156
1026.880, 4888.014
1027.989, 4370.215
1029.098, 3934.039
1030.207, 3640.975
1031.316, 3435.000
1032.425, 3159.302
1033.533, 2983.356
1034.642, 2986.569
1035.750, 2747.196
1036.858, 2789.216
1037.966, 2823.024
1039.073, 3021.401
1040.181, 3057.676
1041.288, 3089.016
1042.396, 3268.167
1043.503, 3430.515
1044.610, 3645.896
1045.716, 3602.723
1046.823, 3635.888
1047.929, 3614.068
1049.036, 3267.462
1050.142, 3173.032
1051.248, 2826.804
1052.353, 2522.733
1053.459, 2214.041
1054.564, 1980.361
1055.670, 1778.021
1056.775, 1646.304
1057.880, 1438.736
1058.985, 1362.208
1060.089, 1331.854
1061.194, 1216.423
1062.298, 1246.744
1063.402, 1096.425
1064.506, 1098.228
1065.610, 991.8291
1066.713, 969.3872
1067.817, 970.9663
1068.920, 882.5317
1070.023, 904.0933
1071.126, 788.4404
1072.229, 767.4390
1073.332, 628.5537
1074.435, 703.1606
1075.537, 662.5591
1076.639, 580.3013
1077.741, 667.7778
1078.843, 606.5532
1079.945, 600.3906
1081.046, 580.9590
1082.148, 499.6089
1083.249, 529.1821
1084.350, 522.7393
1085.451, 486.4951
1086.551, 467.8896
1087.652, 447.5146
1088.752, 456.0981
1089.853, 413.7617
1090.953, 334.0386
1092.053, 397.7749
1093.152, 384.7910
1094.252, 340.2954
1095.351, 402.6421
1096.451, 395.3296
1097.550, 348.0708
1098.649, 390.0571
1099.748, 357.7085
1100.846, 390.2749
1101.945, 328.9536
1103.043, 370.2866
1104.141, 369.0132
1105.239, 362.6704
1106.337, 325.0830
1107.434, 346.8838
1108.532, 303.3867
1109.629, 341.6382
1110.726, 365.8413
1111.823, 298.5659
1112.920, 297.3711
1114.017, 379.8555
1115.113, 297.2480
1116.210, 393.7617
1117.306, 397.2979
1118.402, 516.8174
1119.498, 511.2910
1120.593, 477.6929
1121.689, 548.1279
1122.784, 507.3169
1123.879, 531.8369
1124.974, 447.4150
1126.069, 445.6401
1127.164, 479.4429
1128.259, 384.1714
1129.353, 404.4780
1130.447, 349.0015
1131.541, 298.4731
1132.635, 396.0146
1133.729, 246.5835
1134.822, 336.8584
1135.916, 296.0435
1137.009, 209.3813
1138.102, 312.7930
1139.195, 264.1523
1140.288, 283.9175
1141.380, 188.3730
1142.473, 272.6270
1143.565, 263.3330
1144.657, 224.6528
1145.749, 223.8013
1146.841, 199.9395
1147.932, 124.9639
1149.024, 177.9902
1150.115, 133.0801
1151.206, 132.1030
1152.297, 144.3398
1153.388, 152.5054
1154.479, 78.82275
1155.569, 41.41455
1156.659, 60.35840
1157.750, 55.51562
1158.839, 44.33301
1159.929, 79.96143
1161.019, 52.01221
1162.108, 21.81494
1163.198, 121.7637
1164.287, 37.58057
1165.376, 3.551270
1166.465, 10.28418
1167.553, 58.68262
1168.642, 45.60791
1169.730, 1.401855
1170.818, 10.29541
1171.906, 115.1904
1172.994, 47.62549
1174.082, 3.921387
1175.170, 49.67773
1176.257, 24.10205
1177.344, 28.72168
1178.431, 12.26172
1179.518, 10.10205
1180.605, 112.5332
1181.691, 19.43799
1182.778, 53.11279
1183.864, 42.99121
1184.950, 42.73438
1186.036, 30.83447
1187.122, 57.18945
1188.207, 24.13672
1189.292, 17.20508
1190.378, 27.94092
1191.463, 6.877441
1192.548, 21.48438
1193.632, 42.54297
1194.717, 27.91895
1195.801, 8.191406
1196.886, 16.56641
1197.970, 16.26807
1199.054, 53.29785
1200.137, 25.18555
1201.221, 82.71777
1202.305, 6.050781
1203.388, 4.533203
1204.471, 29.79639
1205.554, 87.02832
1206.637, 18.45850
1207.719, 77.05273
1208.802, 34.25879
1209.884, 18.00439
1210.966, 2.095215
1212.048, 53.12451
1213.130, 3.417969
1214.212, 27.62012
1215.293, 35.28516
1216.374, 121.4077
1217.456, 67.33301
1218.536, 78.14551
1219.617, 59.92822
1220.698, 13.67725
1221.778, 48.38721
1222.859, 22.94287
1223.939, 108.2456
1225.019, 14.85303
1226.099, 66.47656
1227.178, 59.00977
1228.258, 12.16797
1229.337, 82.28418
1230.417, 102.7461
1231.496, 76.19678
1232.574, 160.8696
1233.653, 67.18604
1234.732, 83.53564
1235.810, 141.9819
1236.888, 52.39209
1237.966, 119.6558
1239.044, 190.2095
1240.122, 75.54395
1241.199, 65.60010
1242.277, 53.05322
1243.354, 122.6582
1244.431, 143.9741
1245.508, 113.8530
1246.585, 107.6992
1247.661, 110.9966
1248.738, 120.7729
1249.814, 136.9336
1250.890, 23.66553
1251.966, 185.3208
1253.042, 105.7261
1254.117, 90.30859
1255.193, 172.8525
1256.268, 2.258789
1257.343, 60.30664
1258.418, 149.0630
1259.493, 95.64844
1260.567, 106.4395
1261.642, 88.18115
1262.716, 79.91602
1263.790, 148.2935
1264.864, 167.9351
1265.938, 129.3940
1267.011, 109.6021
1268.085, 120.2539
1269.158, 52.95508
1270.231, 92.96484
1271.304, 142.2437
1272.377, 58.14209
1273.450, 123.6582
1274.522, 161.6240
1275.594, 161.7090
1276.666, 185.9238
1277.738, 182.8330
1278.810, 164.8931
1279.882, 177.7983
1280.953, 123.4199
1282.025, 137.5620
1283.096, 98.88379
1284.167, 61.67090
1285.238, 181.1157
1286.308, 126.8965
1287.379, 124.8018
1288.449, 84.10010
1289.519, 134.7651
1290.589, 101.3657
1291.659, 122.9648
1292.729, 57.26953
1293.798, 112.4600
1294.868, 72.97900
1295.937, 106.2339
1297.006, 163.3589
1298.075, 59.31787
1299.143, 149.3970
1300.212, 188.2744
1301.280, 90.06494
1302.348, 247.7788
1303.416, 180.1602
1304.484, 123.4810
1305.552, 161.2646
1306.620, 131.0571
1307.687, 145.6475
1308.754, 140.3691
1309.821, 177.5298
1310.888, 112.3389
1311.955, 149.7451
1313.021, 141.2188
1314.088, 149.7749
1315.154, 144.8174
1316.220, 160.4038
1317.286, 125.4297
1318.352, 170.7407
1319.417, 168.9907
1320.483, 209.1050
1321.548, 129.3438
1322.613, 181.1069
1323.678, 142.7939
1324.743, 125.2822
1325.807, 131.8467
1326.872, 217.4834
1327.936, 162.1333
1329.000, 144.2729
1330.064, 205.3271
1331.128, 149.6831
1332.191, 202.5840
1333.255, 209.0425
1334.318, 146.2349
1335.381, 99.82373
1336.444, 70.41064
1337.507, 156.0107
1338.569, 189.0029
1339.632, 212.5303
1340.694, 124.8281
1341.756, 261.2168
1342.818, 214.7988
1343.880, 131.9595
1344.941, 172.6436
1346.003, 251.8496
1347.064, 261.2979
1348.125, 243.1426
1349.186, 212.4375
1350.247, 147.3906
1351.308, 106.6821
1352.368, 241.7217
1353.428, 177.6255
1354.489, 283.5430
1355.549, 114.5762
1356.608, 192.4707
1357.668, 179.9468
1358.727, 174.5508
1359.787, 112.9399
1360.846, 195.9292
1361.905, 174.7388
1362.964, 143.6519
1364.022, 144.5024
1365.081, 170.5464
1366.139, 93.61133
1367.197, 159.1953
1368.255, 155.9521
1369.313, 73.29883
1370.371, 42.13330
1371.428, 88.47705
1372.486, 205.7446
1373.543, 278.3667
1374.600, 67.38818
1375.657, 183.3872
1376.713, 82.33936
1377.770, 176.3994
1378.826, 192.3428
1379.882, 27.36914
1380.938, 192.0220
1381.994, 259.7065
1383.050, 91.58691
1384.106, 153.0117
1385.161, 97.43945
1386.216, 129.0420
1387.271, 70.78857
1388.326, 73.13330
1389.381, 65.17920
1390.435, 141.0884
1391.490, 68.42480
1392.544, 102.7681
1393.598, 153.1045
1394.652, 45.11523
1395.705, 34.12891
1396.759, 169.6660
1397.812, 14.54443
1398.866, 194.5493
1399.919, 3.998535
1400.972, 139.0864
1402.024, 101.3979
1403.077, 117.4180
1404.129, 76.29004
1405.181, 68.10742
1406.233, 104.7979
1407.285, 162.5645
1408.337, 38.97900
1409.389, 16.40576
1410.440, 92.46533
1411.491, 137.3442
1412.542, 63.80273
1413.593, 32.98828
1414.644, 72.11621
1415.695, 67.03125
1416.745, 183.1274
1417.795, 135.9131
1418.845, 31.07031
1419.895, 91.63574
1420.945, 12.50537
1421.995, 12.88379
1423.044, 89.85938
1424.093, 4.799316
1425.142, 22.16455
1426.191, 62.14844
1427.240, 59.05615
1428.289, 113.6392
1429.337, 0.6054690
1430.385, 135.3779
1431.433, 1.111816
1432.481, 56.75293
1433.529, 92.28125
1434.577, 15.84277
1435.624, 101.2852
1436.672, 110.9775
1437.719, 1.289551
1438.766, 44.73193
1439.812, 28.09277
1440.859, 138.4946
1441.905, 16.19092
1442.952, 85.20898
1443.998, 20.32129
1445.044, 12.41797
1446.090, 23.09766
1447.135, 33.37500
1448.181, 42.83887
1449.226, 32.21289
1450.271, 110.2676
1451.316, 97.50732
1452.361, 21.32959
1453.405, 64.87402
1454.450, 3.234375
1455.494, 57.12695
1456.538, 29.39307
1457.582, 90.59766
1458.626, 72.46973
1459.670, 45.62598
1460.713, 22.41553
1461.757, 61.50342
1462.800, 14.35400
1463.843, 106.9761
1464.886, 39.90332
1465.928, 5.510254
1466.971, 59.28467
1468.013, 26.79053
1469.055, 56.32031
1470.097, 25.78906
1471.139, 59.89453
1472.181, 22.96045
1473.222, 119.3984
1474.263, 99.09717
1475.305, 64.14014
1476.346, 169.1851
1477.386, 83.77197
1478.427, 149.3354
1479.468, 53.22949
1480.508, 26.01318
1481.548, 11.70850
1482.588, 176.8809
1483.628, 126.2300
1484.668, 141.6519
1485.707, 73.01465
1486.747, 25.00537
1487.786, 14.66846
1488.825, 51.09961
1489.864, 143.0410
1490.902, 5.719727
1491.941, 122.6948
1492.979, 83.08057
1494.017, 45.47803
1495.055, 138.2329
1496.093, 84.07617
1497.131, 113.5786
1498.168, 12.91895
1499.206, 109.7554
1500.243, 107.8203
1501.280, 119.6592
1502.317, 98.46973
1503.354, 105.7383
1504.390, 141.7769
1505.426, 191.8237
1506.463, 98.96240
1507.499, 125.5034
1508.535, 79.81299
1509.570, 79.78125
1510.606, 188.1528
1511.641, 32.78418
1512.676, 153.5464
1513.711, 77.42773
1514.746, 15.22607
1515.781, 181.5605
1516.816, 228.3682
1517.850, 57.89355
1518.884, 119.5068
1519.918, 98.80762
1520.952, 116.8647
1521.986, 115.6968
1523.019, 61.33203
1524.053, 93.42676
1525.086, 21.31592
1526.119, 6.289063
1527.152, 51.23779
1528.185, 129.9058
1529.217, 111.8037
1530.250, 226.3979
1531.282, 71.36426
1532.314, 144.8452
1533.346, 188.4961
1534.377, 13.30371
1535.409, 117.8711
1536.440, 84.56738
1537.472, 154.9697
1538.503, 189.9150
1539.534, 192.6543
1540.564, 94.60645
1541.595, 170.5596
1542.625, 55.30371
1543.656, 110.7197
1544.686, 74.14258
1545.716, 135.7588
1546.745, 117.1260
1547.775, 95.54883
1548.804, 154.9707
1549.834, 21.14160
1550.863, 154.1006
1551.892, 48.03125
1552.920, 95.57031
1553.949, 106.0430
1554.977, 8.673828
1556.006, 154.2686
1557.034, 48.75781
1558.062, 45.62598
1559.089, 173.1680
1560.117, 38.70020
1561.144, 95.10352
1562.172, 58.64258
1563.199, 96.22363
1564.226, 43.14160
1565.252, 54.07227
1566.279, 36.66797
1567.305, 146.3027
1568.332, 136.6221
1569.358, 7.045898
1570.384, 88.46191
1571.409, 0.5410160
1572.435, 0.0000000E+00
##END=



