##NAMES=Diopside
##RRUFFID=R040009
##IDEAL CHEMISTRY=CaMgSi_2_O_6_
##LOCALITY=Otter Lake, Quebec, Canada
##OWNER=RRUFF
##SOURCE=University of Arizona Mineral Museum
##DESCRIPTION=Green square prismatic crystal associated with pale orange calcite
##STATUS=The identification of this mineral has been confirmed by X-ray diffraction and chemical analysis
##URL=rruff.info/R040009
##MEASURED CHEMISTRY=(Ca_0.97_Fe_0.02_Na_0.01_)_Σ=1_(Mg_0.97_Fe_0.02_Al_0.01_)_Σ=1_Si_2.00_O_6_; trace amounts of Mn and Ti
##PIN_ID=M00219
##ORIENTATION=Laser parallel to [-1 0 -1]. Fiducial mark perpendicular to laser is parallel to b* (0 1 0)
100.340, 0.000
101.732, 108.384
103.124, 6.254
104.516, 45.779
105.908, 127.648
107.300, 85.840
108.691, 170.693
110.082, 183.342
111.473, 227.763
112.864, 266.264
114.254, 294.018
115.644, 414.015
117.034, 365.959
118.424, 231.610
119.813, 488.772
121.203, 225.283
122.592, 339.007
123.981, 481.823
125.369, 550.638
126.758, 660.354
128.146, 729.894
129.534, 1331.186
130.922, 1434.172
132.309, 2020.802
133.696, 2618.025
135.083, 3803.804
136.470, 4913.099
137.857, 6260.875
139.243, 6217.105
140.630, 5101.764
142.016, 3632.826
143.401, 2385.316
144.787, 1564.135
146.172, 1293.254
147.557, 849.796
148.942, 669.603
150.327, 565.670
151.711, 333.992
153.096, 487.556
154.480, 375.354
155.863, 405.381
157.247, 377.626
158.630, 265.080
160.013, 272.735
161.396, 376.584
162.779, 289.616
164.161, 315.827
165.544, 286.209
166.926, 263.753
168.308, 320.455
169.689, 206.310
171.070, 315.310
172.452, 392.450
173.833, 356.733
175.213, 339.152
176.594, 272.705
177.974, 426.387
179.354, 549.194
180.734, 413.127
182.114, 328.192
183.493, 468.346
184.872, 262.120
186.251, 353.170
187.630, 258.228
189.008, 352.307
190.387, 289.420
191.765, 311.626
193.143, 360.207
194.520, 230.509
195.898, 220.926
197.275, 174.485
198.652, 239.290
200.029, 104.225
201.405, 144.206
202.782, 83.259
204.158, 150.377
205.534, 228.587
206.909, 114.943
208.285, 133.400
209.660, 284.918
211.035, 184.493
212.410, 241.133
213.784, 81.835
215.159, 48.587
216.533, 301.439
217.907, 161.341
219.281, 250.287
220.654, 171.281
222.027, 332.321
223.400, 397.406
224.773, 500.537
226.146, 711.713
227.518, 764.932
228.891, 715.195
230.263, 620.499
231.634, 601.846
233.006, 435.233
234.377, 331.660
235.748, 236.128
237.119, 143.633
238.490, 160.177
239.860, 177.759
241.231, 142.378
242.601, 177.032
243.970, 222.861
245.340, 185.724
246.709, 112.619
248.079, 367.545
249.448, 318.516
250.816, 324.555
252.185, 525.627
253.553, 415.742
254.921, 514.902
256.289, 212.148
257.657, 232.420
259.024, 139.730
260.391, 265.066
261.758, 2.469
263.125, 186.912
264.492, 1.387
265.858, 94.814
267.224, 158.164
268.590, 68.588
269.956, 99.453
271.321, 121.770
272.687, 70.336
274.052, 73.109
275.416, 88.066
276.781, 23.195
278.146, 39.475
279.510, 100.896
280.874, 24.738
282.237, 316.412
283.601, 85.826
284.964, 80.938
286.327, 150.047
287.690, 65.178
289.053, 73.352
290.416, 249.633
291.778, 104.973
293.140, 316.141
294.502, 201.367
295.863, 212.641
297.225, 227.275
298.586, 269.973
299.947, 487.729
301.308, 447.543
302.668, 591.412
304.029, 513.363
305.389, 518.336
306.749, 279.357
308.108, 402.682
309.468, 502.068
310.827, 614.238
312.186, 771.473
313.545, 1006.348
314.903, 1264.086
316.262, 1575.438
317.620, 2193.824
318.978, 2727.629
320.336, 3610.084
321.693, 4416.574
323.051, 4835.004
324.408, 4350.553
325.765, 3976.135
327.121, 2858.746
328.478, 2178.387
329.834, 1816.117
331.190, 1451.811
332.546, 915.527
333.902, 924.268
335.257, 638.035
336.612, 635.824
337.967, 484.637
339.322, 451.473
340.677, 525.328
342.031, 531.203
343.385, 552.102
344.739, 418.016
346.093, 387.951
347.446, 397.902
348.799, 661.863
350.153, 763.846
351.505, 941.846
352.858, 1119.463
354.210, 1226.900
355.563, 1393.955
356.915, 1507.006
358.267, 1537.074
359.618, 1367.162
360.969, 1657.264
362.321, 1330.381
363.672, 1317.512
365.022, 1345.656
366.373, 1423.812
367.723, 1357.984
369.073, 1078.168
370.423, 1012.363
371.773, 636.570
373.122, 693.789
374.471, 909.018
375.821, 682.256
377.169, 986.504
378.518, 1047.764
379.866, 1110.029
381.215, 1429.305
382.563, 1809.588
383.910, 2187.094
385.258, 3194.393
386.605, 4066.699
387.952, 4464.066
389.299, 4621.340
390.646, 4828.717
391.992, 4042.049
393.339, 3199.395
394.685, 2270.938
396.031, 1868.756
397.376, 1106.586
398.722, 969.949
400.067, 568.352
401.412, 549.441
402.757, 534.832
404.101, 420.936
405.446, 387.086
406.790, 356.035
408.134, 274.010
409.478, 367.414
410.821, 376.816
412.165, 346.182
413.508, 333.172
414.851, 336.613
416.193, 143.051
417.536, 170.701
418.878, 242.529
420.220, 130.465
421.562, 213.045
422.904, 231.215
424.245, 286.652
425.586, 230.293
426.927, 282.932
428.268, 184.387
429.609, 42.859
430.949, 155.484
432.289, 291.396
433.629, 76.539
434.969, 266.068
436.309, 30.627
437.648, 287.195
438.987, 13.771
440.326, 15.363
441.665, 66.051
443.003, 122.527
444.342, 16.338
445.680, 49.113
447.018, 88.590
448.355, 115.566
449.693, 70.945
451.030, 37.441
452.367, 180.617
453.704, 170.793
455.041, 49.213
456.377, 183.680
457.713, 39.758
459.049, 63.203
460.385, 121.641
461.721, 135.104
463.056, 174.182
464.391, 30.980
465.726, 191.451
467.061, 59.883
468.395, 35.516
469.730, 235.885
471.064, 110.688
472.398, 463.270
473.731, 35.373
475.065, 12.043
476.398, 208.264
477.731, 166.566
479.064, 11.863
480.397, 57.148
481.729, 206.426
483.062, 18.309
484.394, 176.934
485.725, 34.172
487.057, 209.400
488.389, 102.615
489.720, 52.178
491.051, 90.984
492.382, 78.135
493.712, 65.303
495.043, 200.459
496.373, 57.604
497.703, 136.742
499.032, 183.869
500.362, 126.984
501.691, 251.098
503.020, 75.197
504.349, 236.287
505.678, 201.369
507.007, 191.441
508.335, 207.502
509.663, 364.549
510.991, 489.584
512.319, 240.609
513.646, 487.631
514.973, 336.635
516.300, 419.631
517.627, 349.633
518.954, 322.357
520.280, 274.590
521.607, 280.545
522.933, 240.486
524.259, 213.412
525.584, 85.320
526.910, 359.215
528.235, 381.092
529.560, 440.955
530.885, 169.799
532.209, 106.631
533.534, 406.443
534.858, 158.242
536.182, 246.023
537.506, 188.789
538.829, 283.533
540.152, 111.264
541.476, 326.975
542.799, 185.332
544.121, 227.223
545.444, 197.758
546.766, 84.943
548.088, 249.443
549.410, 196.922
550.732, 168.383
552.053, 163.553
553.375, 65.977
554.696, 6.764
556.017, 7.133
557.337, 313.439
558.658, 110.738
559.978, 47.600
561.298, 336.133
562.618, 6.363
563.938, 68.547
565.257, 311.711
566.576, 54.148
567.895, 165.059
569.214, 191.391
570.533, 141.418
571.851, 37.867
573.170, 236.838
574.488, 211.785
575.805, 105.164
577.123, 2.840
578.440, 19.033
579.758, 521.744
581.075, 33.529
582.391, 385.273
583.708, 119.994
585.024, 118.727
586.341, 228.777
587.657, 210.664
588.972, 455.818
590.288, 83.672
591.603, 2.426
592.918, 207.955
594.233, 261.312
595.548, 259.793
596.863, 313.908
598.177, 189.621
599.491, 245.025
600.805, 193.307
602.119, 81.666
603.432, 189.717
604.746, 319.025
606.059, 171.611
607.372, 44.984
608.685, 364.920
609.997, 121.084
611.309, 80.248
612.621, 40.699
613.933, 315.059
615.245, 344.480
616.557, 204.217
617.868, 292.223
619.179, 340.131
620.490, 237.082
621.801, 491.320
623.111, 235.189
624.421, 329.738
625.731, 69.414
627.041, 700.801
628.351, 284.115
629.660, 81.365
630.970, 767.309
632.279, 227.545
633.588, 497.732
634.896, 234.646
636.205, 696.693
637.513, 351.117
638.821, 527.754
640.129, 673.234
641.437, 617.734
642.744, 562.164
644.051, 623.234
645.358, 960.609
646.665, 886.973
647.972, 1001.656
649.278, 1193.959
650.584, 1209.396
651.890, 1731.645
653.196, 1720.865
654.502, 2388.465
655.807, 2623.393
657.113, 3316.723
658.418, 4619.992
659.722, 5496.082
661.027, 6980.555
662.331, 8881.578
663.636, 10568.625
664.940, 11347.609
666.244, 11643.861
667.547, 10161.207
668.851, 8893.111
670.154, 6851.984
671.457, 5161.836
672.760, 4440.332
674.062, 3228.389
675.365, 2746.160
676.667, 2207.904
677.969, 1908.643
679.271, 1586.463
680.572, 1083.131
681.874, 1445.771
683.175, 1360.385
684.476, 913.975
685.777, 828.537
687.077, 649.070
688.378, 850.957
689.678, 752.631
690.978, 656.088
692.278, 630.754
693.577, 521.834
694.877, 440.289
696.176, 471.639
697.475, 474.959
698.774, 707.254
700.072, 592.307
701.371, 626.551
702.669, 102.770
703.967, 466.904
705.265, 1026.068
706.562, 607.205
707.860, 91.318
709.157, 634.400
710.454, 174.260
711.751, 553.824
713.047, 278.354
714.344, 436.334
715.640, 125.258
716.936, 12.252
718.232, 539.619
719.527, 444.760
720.823, 278.285
722.118, 372.088
723.413, 227.262
724.708, 192.018
726.002, 458.746
727.297, 100.549
728.591, 565.551
729.885, 290.139
731.179, 153.705
732.472, 78.033
733.766, 178.566
735.059, 0.441
736.352, 392.004
737.645, 362.574
738.937, 416.977
740.230, 251.242
741.522, 169.387
742.814, 203.723
744.106, 135.270
745.397, 202.910
746.689, 13.760
747.980, 260.697
749.271, 53.096
750.562, 411.047
751.853, 38.166
753.143, 274.258
754.433, 263.322
755.723, 28.629
757.013, 356.385
758.303, 228.734
759.592, 302.027
760.881, 32.152
762.170, 223.439
763.459, 90.309
764.748, 156.451
766.036, 561.775
767.325, 19.451
768.613, 260.068
769.901, 244.695
771.188, 92.350
772.476, 302.975
773.763, 95.418
775.050, 327.109
776.337, 187.619
777.624, 294.105
778.910, 100.582
780.196, 370.033
781.482, 34.297
782.768, 112.283
784.054, 130.014
785.339, 190.768
786.625, 0.908
787.910, 363.402
789.195, 179.705
790.479, 140.986
791.764, 193.252
793.048, 226.514
794.332, 559.752
795.616, 29.984
796.900, 361.934
798.183, 100.145
799.467, 523.330
800.750, 256.527
802.033, 158.578
803.316, 581.766
804.598, 97.057
805.880, 395.061
807.163, 276.162
808.445, 164.254
809.726, 80.705
811.008, 217.043
812.289, 32.887
813.570, 331.146
814.851, 165.166
816.132, 27.172
817.413, 15.154
818.693, 398.113
819.973, 193.482
821.253, 165.418
822.533, 671.330
823.813, 52.764
825.092, 330.098
826.371, 103.947
827.650, 74.225
828.929, 609.586
830.208, 454.910
831.486, 261.691
832.764, 236.529
834.042, 287.314
835.320, 353.105
836.598, 494.957
837.875, 374.740
839.152, 291.504
840.429, 754.264
841.706, 179.016
842.983, 223.756
844.259, 688.484
845.536, 386.201
846.812, 606.906
848.088, 696.594
849.363, 1040.268
850.639, 1346.934
851.914, 1125.621
853.189, 1509.295
854.464, 1949.016
855.739, 1945.789
857.013, 1363.875
858.288, 905.621
859.562, 849.352
860.836, 966.068
862.110, 442.043
863.383, 614.771
864.656, 605.098
865.930, 711.822
867.203, 626.547
868.475, 562.312
869.748, 214.477
871.020, 687.934
872.292, 422.656
873.564, 281.426
874.836, 430.188
876.108, 51.939
877.379, 382.551
878.650, 537.996
879.922, 569.795
881.192, 473.125
882.463, 570.900
883.733, 292.670
885.004, 321.967
886.274, 187.926
887.544, 901.314
888.813, 529.137
890.083, 555.846
891.352, 502.541
892.621, 269.217
893.890, 442.838
895.159, 297.102
896.427, 150.484
897.695, 537.559
898.964, 440.891
900.232, 218.277
901.499, 493.828
902.767, 437.504
904.034, 343.012
905.301, 441.562
906.568, 699.035
907.835, 459.488
909.102, 335.730
910.368, 195.141
911.634, 666.840
912.900, 479.219
914.166, 761.273
915.432, 403.449
916.697, 173.055
917.962, 653.363
919.227, 387.180
920.492, 379.410
921.757, 432.656
923.021, 715.133
924.285, 638.695
925.550, 553.887
926.813, 467.184
928.077, 601.516
929.341, 572.328
930.604, 666.477
931.867, 314.223
933.130, 523.457
934.393, 857.598
935.655, 59.746
936.918, 741.941
938.180, 324.855
939.442, 294.211
940.703, 724.516
941.965, 550.496
943.226, 703.891
944.488, 399.340
945.749, 648.047
947.009, 503.266
948.270, 131.012
949.530, 372.289
950.791, 516.344
952.051, 501.484
953.311, 111.461
954.570, 802.121
955.830, 357.074
957.089, 585.805
958.348, 482.242
959.607, 502.559
960.866, 233.293
962.124, 255.926
963.383, 510.262
964.641, 467.461
965.899, 578.199
967.156, 346.789
968.414, 342.145
969.671, 520.789
970.928, 240.457
972.185, 482.234
973.442, 418.430
974.699, 702.773
975.955, 393.906
977.211, 529.832
978.468, 725.449
979.723, 447.852
980.979, 228.598
982.234, 1329.215
983.490, 101.852
984.745, 529.504
986.000, 877.520
987.254, 353.266
988.509, 881.453
989.763, 595.121
991.017, 838.996
992.271, 737.684
993.525, 678.809
994.779, 1091.777
996.032, 1270.727
997.285, 1094.344
998.538, 904.984
999.791, 1671.871
1001.044, 1273.145
1002.296, 1994.828
1003.548, 1898.059
1004.800, 2487.965
1006.052, 3311.824
1007.304, 4348.117
1008.555, 5376.152
1009.807, 6936.848
1011.058, 8658.855
1012.309, 9496.125
1013.559, 8750.391
1014.810, 6947.066
1016.060, 5432.547
1017.310, 4157.148
1018.560, 2779.852
1019.810, 2482.609
1021.060, 2332.586
1022.309, 1603.672
1023.558, 1978.605
1024.807, 1286.891
1026.056, 1181.637
1027.305, 1059.363
1028.553, 897.770
1029.801, 1088.730
1031.049, 1046.777
1032.297, 1121.023
1033.545, 1378.082
1034.793, 1039.098
1036.040, 756.230
1037.287, 1133.359
1038.534, 912.316
1039.781, 1436.277
1041.027, 786.031
1042.274, 845.457
1043.520, 1166.785
1044.766, 1198.398
1046.012, 900.352
1047.257, 883.020
1048.503, 1426.352
1049.748, 597.023
1050.993, 1355.645
1052.238, 1116.418
1053.483, 751.727
1054.727, 712.293
1055.971, 960.770
1057.216, 885.262
1058.459, 1067.715
1059.703, 965.109
1060.947, 883.672
1062.190, 763.930
1063.433, 772.270
1064.676, 749.008
1065.919, 609.219
1067.162, 957.227
1068.404, 429.379
1069.646, 551.492
1070.888, 881.492
1072.130, 485.926
1073.372, 550.879
1074.613, 677.402
1075.855, 554.695
1077.096, 526.441
1078.337, 912.129
1079.578, 561.711
1080.818, 492.230
1082.059, 294.812
1083.299, 649.094
1084.539, 411.352
1085.779, 410.547
1087.018, 533.633
1088.258, 442.648
1089.497, 258.594
1090.736, 492.398
1091.975, 186.480
1093.213, 43.023
1094.452, 634.477
1095.690, 26.785
1096.928, 370.977
1098.166, 97.250
1099.404, 596.152
1100.642, 53.109
1101.879, 124.148
1103.116, 246.809
1104.353, 272.074
1105.590, 39.723
1106.827, 380.793
1108.063, 79.766
1109.299, 207.844
1110.536, 386.844
1111.771, 54.832
1113.007, 385.750
1114.243, 286.562
1115.478, 223.145
1116.713, 365.453
1117.948, 276.676
1119.183, 50.785
1120.418, 405.781
1121.652, 508.824
1122.886, 159.633
1124.120, 368.875
1125.354, 203.480
1126.588, 311.961
1127.821, 73.508
1129.055, 424.750
1130.288, 445.371
1131.521, 214.926
1132.753, 60.219
1133.986, 16.434
1135.218, 732.223
1136.450, 35.559
1137.682, 665.863
1138.914, 23.191
1140.146, 178.391
1141.377, 94.484
1142.609, 118.473
1143.840, 132.176
1145.071, 322.719
1146.301, 305.117
1147.532, 242.402
1148.762, 92.836
1149.992, 63.125
1151.222, 187.711
1152.452, 427.445
1153.682, 193.941
1154.911, 310.465
1156.140, 186.855
1157.369, 221.363
1158.598, 177.371
1159.827, 263.449
1161.055, 76.180
1162.284, 198.406
1163.512, 17.164
1164.740, 193.320
1165.967, 149.672
1167.195, 304.148
1168.422, 110.043
1169.650, 437.574
1170.877, 124.250
1172.103, 93.676
1173.330, 131.500
1174.557, 465.902
1175.783, 250.879
1177.009, 237.117
1178.235, 356.727
1179.461, 166.461
1180.686, 47.121
1181.912, 356.695
1183.137, 322.195
1184.362, 244.629
1185.587, 191.984
1186.811, 588.273
1188.036, 394.492
1189.260, 465.637
1190.484, 462.703
1191.708, 408.980
1192.932, 322.598
1194.155, 480.422
1195.378, 459.172
1196.602, 683.188
1197.825, 539.414
1199.047, 573.863
1200.270, 444.012
1201.492, 654.309
1202.715, 221.734
1203.937, 854.062
1205.159, 760.051
1206.380, 876.637
1207.602, 163.879
1208.823, 413.711
1210.044, 723.820
1211.265, 517.125
1212.486, 728.625
1213.707, 534.184
1214.927, 671.656
1216.147, 608.605
1217.367, 680.938
1218.587, 492.395
1219.807, 355.164
1221.027, 441.676
1222.246, 277.145
1223.465, 718.641
1224.684, 616.137
1225.903, 672.297
1227.121, 604.305
1228.340, 538.367
1229.558, 654.945
1230.776, 564.344
1231.994, 337.195
1233.212, 666.629
1234.429, 714.262
1235.646, 657.223
1236.864, 988.004
1238.081, 425.902
1239.297, 580.809
1240.514, 906.480
1241.730, 715.262
1242.947, 611.941
1244.163, 533.691
1245.378, 754.398
1246.594, 864.020
1247.810, 303.980
1249.025, 620.695
1250.240, 622.688
1251.455, 297.090
1252.670, 565.254
1253.885, 490.773
1255.099, 359.504
1256.313, 84.805
1257.527, 30.242
1258.741, 599.070
1259.955, 133.160
1261.168, 352.367
1262.382, 583.352
1263.595, 523.539
1264.808, 404.602
1266.021, 273.484
1267.233, 334.102
1268.446, 498.586
1269.658, 86.609
1270.870, 545.844
1272.082, 381.445
1273.294, 302.875
1274.505, 378.066
1275.716, 432.699
1276.928, 198.219
1278.139, 454.664
1279.349, 486.836
1280.560, 354.891
1281.770, 129.344
1282.981, 297.234
1284.191, 450.594
1285.401, 439.457
1286.610, 328.973
1287.820, 312.504
1289.029, 292.125
1290.239, 224.855
1291.448, 303.738
1292.656, 234.535
1293.865, 142.934
1295.073, 238.266
1296.282, 21.992
1297.490, 368.230
1298.698, 459.910
1299.906, 290.719
1301.113, 140.395
1302.320, 68.684
1303.528, 339.500
1304.735, 91.242
1305.942, 22.520
1307.148, 461.258
1308.355, 51.559
1309.561, 299.555
1310.767, 274.473
1311.973, 66.008
1313.179, 9.152
1314.384, 20.668
1315.590, 113.344
1316.795, 194.852
1318.000, 1.008
1319.205, 249.418
1320.410, 0.000
##END=



