##NAMES=Diopside
##RRUFFID=R040009
##IDEAL CHEMISTRY=CaMgSi_2_O_6_
##LOCALITY=Otter Lake, Quebec, Canada
##OWNER=RRUFF
##SOURCE=University of Arizona Mineral Museum
##DESCRIPTION=Green square prismatic crystal associated with pale orange calcite
##STATUS=The identification of this mineral has been confirmed by X-ray diffraction and chemical analysis
##URL=rruff.info/R040009
##MEASURED CHEMISTRY=(Ca_0.97_Fe_0.02_Na_0.01_)_Σ=1_(Mg_0.97_Fe_0.02_Al_0.01_)_Σ=1_Si_2.00_O_6_; trace amounts of Mn and Ti
##PIN_ID=L00101
##ORIENTATION=Laser parallel to -a [-1 0 0]. Fiducial mark perpendicular to laser is parallel to -b* (0 -1 0)
89.193, 0.000
90.587, 236.285
91.981, 274.510
93.375, 197.607
94.768, 186.734
96.161, 180.132
97.554, 119.992
98.947, 104.161
100.340, 61.593
101.732, 24.542
103.124, 21.319
104.516, 136.831
105.908, 391.873
107.300, 513.291
108.691, 345.803
110.082, 197.196
111.473, 113.305
112.864, 253.055
114.254, 430.455
115.644, 704.427
117.034, 1059.868
118.424, 1255.704
119.813, 1411.869
121.203, 1343.303
122.592, 1242.732
123.981, 985.260
125.369, 961.765
126.758, 982.249
128.146, 1349.710
129.534, 1861.150
130.922, 2566.569
132.309, 3482.964
133.696, 5107.340
135.083, 7679.922
136.470, 11562.384
137.857, 14695.089
139.243, 15681.071
140.630, 12775.968
142.016, 8979.753
143.401, 5833.442
144.787, 3869.038
146.172, 2702.554
147.557, 1908.136
148.942, 1313.521
150.327, 934.851
151.711, 728.691
153.096, 601.683
154.480, 572.817
155.863, 404.154
157.247, 308.370
158.630, 297.579
160.013, 128.779
161.396, 203.970
162.779, 219.150
164.161, 177.313
165.544, 139.458
166.926, 150.586
168.308, 100.697
169.689, 99.789
171.070, 70.864
172.452, 166.920
173.833, 249.947
175.213, 413.961
176.594, 650.002
177.974, 1076.049
179.354, 1923.071
180.734, 2535.352
182.114, 2348.305
183.493, 1391.085
184.872, 738.661
186.251, 331.160
187.630, 232.308
189.008, 109.397
190.387, 203.060
191.765, 217.781
193.143, 362.535
194.520, 375.317
195.898, 276.118
197.275, 259.936
198.652, 153.767
200.029, 86.612
201.405, 76.481
202.782, 74.402
204.158, 11.410
205.534, 84.476
206.909, 118.555
208.285, 103.652
209.660, 110.748
211.035, 55.555
212.410, 0.181
213.784, 38.981
215.159, 113.909
216.533, 70.847
217.907, 20.796
219.281, 28.241
220.654, 28.738
222.027, 9.266
223.400, 58.253
224.773, 141.224
226.146, 319.177
227.518, 444.113
228.891, 674.033
230.263, 947.569
231.634, 2051.819
233.006, 1524.687
234.377, 2136.521
235.748, 2343.236
237.119, 1111.900
238.490, 612.530
239.860, 545.146
241.231, 411.748
242.601, 353.337
243.970, 447.911
245.340, 533.472
246.709, 703.018
248.079, 981.549
249.448, 1555.066
250.816, 2230.570
252.185, 3323.059
253.553, 4130.963
254.921, 4158.747
256.289, 3268.035
257.657, 2094.623
259.024, 1379.203
260.391, 824.161
261.758, 459.747
263.125, 303.699
264.492, 192.016
265.858, 79.280
267.224, 14.350
268.590, 2.986
269.956, 31.565
271.321, 51.751
272.687, 79.433
274.052, 64.534
275.416, 59.502
276.781, 36.901
278.146, 5.017
279.510, 7.505
280.874, 11.640
282.237, 39.932
283.601, 19.232
284.964, 45.607
286.327, 4.686
287.690, 66.214
289.053, 61.225
290.416, 90.962
291.778, 113.442
293.140, 138.075
294.502, 237.830
295.863, 207.984
297.225, 384.476
298.586, 359.931
299.947, 409.276
301.308, 555.782
302.668, 586.136
304.029, 753.329
305.389, 851.633
306.749, 954.648
308.108, 1179.850
309.468, 1467.522
310.827, 1779.845
312.186, 2250.207
313.545, 2934.390
314.903, 3794.826
316.262, 5078.210
317.620, 7016.236
318.978, 10494.174
320.336, 13784.726
321.693, 18371.783
323.051, 21869.180
324.408, 22841.451
325.765, 20299.154
327.121, 17151.184
328.478, 12571.173
329.834, 9235.164
331.190, 7063.132
332.546, 5366.100
333.902, 4154.719
335.257, 3449.256
336.612, 2813.781
337.967, 2279.296
339.322, 1988.800
340.677, 1711.292
342.031, 1505.320
343.385, 1390.236
344.739, 1307.638
346.093, 1162.949
347.446, 1105.193
348.799, 973.412
350.153, 964.608
351.505, 935.747
352.858, 915.864
354.210, 886.972
355.563, 981.069
356.915, 830.156
358.267, 925.232
359.618, 918.296
360.969, 893.351
362.321, 963.394
363.672, 977.426
365.022, 1013.447
366.373, 1147.456
367.723, 1137.405
369.073, 1131.390
370.423, 1060.361
371.773, 920.320
373.122, 881.268
374.471, 847.201
375.821, 902.668
377.169, 930.336
378.518, 1046.076
379.866, 1130.672
381.215, 1325.064
382.563, 1580.921
383.910, 2041.852
385.258, 2744.564
386.605, 3838.383
387.952, 5006.188
389.299, 5878.082
390.646, 6234.861
391.992, 5520.656
393.339, 4326.411
394.685, 3243.153
396.031, 2416.884
397.376, 1820.600
398.722, 1282.304
400.067, 991.996
401.412, 693.676
402.757, 569.344
404.101, 513.000
405.446, 349.643
406.790, 311.274
408.134, 261.925
409.478, 355.532
410.821, 232.521
412.165, 327.710
413.508, 102.281
414.851, 86.838
416.193, 104.381
417.536, 90.914
418.878, 86.521
420.220, 135.031
421.562, 81.528
422.904, 9.012
424.245, 131.662
425.586, 66.103
426.927, 97.653
428.268, 77.234
429.609, 54.745
430.949, 92.926
432.289, 72.865
433.629, 66.656
434.969, 35.817
436.309, 0.597
437.648, 42.413
438.987, 26.850
440.326, 27.115
441.665, 27.495
443.003, 3.078
444.342, 27.221
445.680, 46.755
447.018, 17.259
448.355, 54.208
449.693, 11.762
451.030, 22.711
452.367, 16.358
453.704, 27.540
455.041, 20.332
456.377, 5.294
457.713, 47.142
459.049, 53.971
460.385, 77.966
461.721, 36.631
463.056, 69.471
464.391, 104.295
465.726, 74.103
467.061, 163.895
468.395, 91.672
469.730, 16.441
471.064, 56.014
472.398, 3.067
473.731, 82.660
475.065, 68.629
476.398, 4.964
477.731, 65.328
479.064, 0.740
480.397, 11.178
481.729, 47.354
483.062, 12.868
484.394, 7.638
485.725, 124.827
487.057, 46.281
488.389, 51.724
489.720, 49.153
491.051, 52.462
492.382, 49.994
493.712, 131.395
495.043, 172.801
496.373, 262.194
497.703, 381.578
499.032, 426.964
500.362, 619.336
501.691, 965.700
503.020, 1474.056
504.349, 2346.397
505.678, 3722.730
507.007, 5262.049
508.335, 5779.383
509.663, 4984.703
510.991, 3594.010
512.319, 2502.305
513.646, 1748.584
514.973, 1397.862
516.300, 1035.132
517.627, 930.389
518.954, 634.632
520.280, 560.862
521.607, 536.078
522.933, 516.284
524.259, 564.482
525.584, 567.674
526.910, 632.852
528.235, 759.016
529.560, 840.165
530.885, 868.300
532.209, 785.419
533.534, 593.524
534.858, 574.611
536.182, 446.684
537.506, 344.751
538.829, 373.829
540.152, 320.907
541.476, 249.974
542.799, 300.022
544.121, 166.061
545.444, 253.081
546.766, 256.083
548.088, 141.065
549.410, 208.027
550.732, 158.971
552.053, 253.895
553.375, 232.799
554.696, 184.685
556.017, 244.551
557.337, 270.398
558.658, 351.225
559.978, 243.033
561.298, 307.820
562.618, 207.588
563.938, 192.336
565.257, 183.064
566.576, 163.090
567.895, 177.519
569.214, 187.129
570.533, 206.954
571.851, 228.582
573.170, 240.008
574.488, 222.454
575.805, 228.841
577.123, 153.470
578.440, 253.929
579.758, 186.553
581.075, 224.279
582.391, 127.109
583.708, 200.687
585.024, 143.961
586.341, 133.609
587.657, 133.000
588.972, 108.704
590.288, 162.980
591.603, 122.453
592.918, 85.047
594.233, 147.339
595.548, 151.606
596.863, 139.345
598.177, 173.932
599.491, 174.804
600.805, 141.271
602.119, 164.011
603.432, 131.294
604.746, 199.957
606.059, 168.958
607.372, 256.342
608.685, 235.680
609.997, 314.194
611.309, 262.107
612.621, 289.619
613.933, 259.097
615.245, 387.893
616.557, 419.508
617.868, 403.884
619.179, 465.376
620.490, 490.405
621.801, 513.760
623.111, 655.515
624.421, 635.921
625.731, 854.641
627.041, 758.010
628.351, 912.090
629.660, 964.614
630.970, 937.665
632.279, 1158.960
633.588, 1125.789
634.896, 1268.932
636.205, 1347.526
637.513, 1528.913
638.821, 1615.503
640.129, 1797.672
641.437, 1937.390
642.744, 2237.206
644.051, 2324.260
645.358, 2696.346
646.665, 2998.297
647.972, 3484.472
649.278, 4010.463
650.584, 5120.363
651.890, 6304.208
653.196, 6602.655
654.502, 8110.888
655.807, 9748.967
657.113, 12009.119
658.418, 15291.602
659.722, 20117.234
661.027, 26178.348
662.331, 34379.445
663.636, 43295.656
664.940, 52298.312
666.244, 56216.402
667.547, 56033.473
668.851, 48749.680
670.154, 39964.344
671.457, 30955.992
672.760, 23637.018
674.062, 18517.033
675.365, 14305.060
676.667, 11408.014
677.969, 9255.650
679.271, 7576.375
680.572, 6357.641
681.874, 5346.992
683.175, 4620.554
684.476, 4000.350
685.777, 3465.830
687.077, 2939.534
688.378, 2626.877
689.678, 2418.277
690.978, 2072.410
692.278, 1957.151
693.577, 1563.118
694.877, 1618.690
696.176, 1342.233
697.475, 1326.748
698.774, 1139.233
700.072, 1239.688
701.371, 1165.115
702.669, 1064.512
703.967, 933.880
705.265, 945.120
706.562, 1007.429
707.860, 924.681
709.157, 785.931
710.454, 781.152
711.751, 590.343
713.047, 621.504
714.344, 548.637
715.640, 507.740
716.936, 473.813
718.232, 448.858
719.527, 394.291
720.823, 361.858
722.118, 292.813
723.413, 326.709
724.708, 286.605
726.002, 198.473
727.297, 335.309
728.591, 245.116
729.885, 215.894
731.179, 272.643
732.472, 165.362
733.766, 195.967
735.059, 199.626
736.352, 116.254
737.645, 196.849
738.937, 190.231
740.230, 191.773
741.522, 128.156
742.814, 163.501
744.106, 135.772
745.397, 102.908
746.689, 128.258
747.980, 94.384
749.271, 91.318
750.562, 65.479
751.853, 54.871
753.143, 21.733
754.433, 37.938
755.723, 52.119
757.013, 51.141
758.303, 93.228
759.592, 48.144
760.881, 1.210
762.170, 36.358
763.459, 15.366
764.748, 30.337
766.036, 10.274
767.325, 5.820
768.613, 7.960
769.901, 73.855
771.188, 28.984
772.476, 83.269
773.763, 78.392
775.050, 127.728
776.337, 91.788
777.624, 25.271
778.910, 72.761
780.196, 57.362
781.482, 20.812
782.768, 35.880
784.054, 26.829
785.339, 36.639
786.625, 74.532
787.910, 51.867
789.195, 36.860
790.479, 29.892
791.764, 34.514
793.048, 65.095
794.332, 36.518
795.616, 55.724
796.900, 54.401
798.183, 3.207
799.467, 10.399
800.750, 8.123
802.033, 30.136
803.316, 43.517
804.598, 60.230
805.880, 69.162
807.163, 15.643
808.445, 9.794
809.726, 57.867
811.008, 68.862
812.289, 16.441
813.570, 19.932
814.851, 60.334
816.132, 11.434
817.413, 25.756
818.693, 104.088
819.973, 39.979
821.253, 39.014
822.533, 4.014
823.813, 122.976
825.092, 44.096
826.371, 16.229
827.650, 19.594
828.929, 11.383
830.208, 21.137
831.486, 90.858
832.764, 14.453
834.042, 25.808
835.320, 28.211
836.598, 81.337
837.875, 18.850
839.152, 87.329
840.429, 26.774
841.706, 106.188
842.983, 85.571
844.259, 142.922
845.536, 229.244
846.812, 168.539
848.088, 367.805
849.363, 469.045
850.639, 823.261
851.914, 1249.454
853.189, 1596.621
854.464, 1928.762
855.739, 2165.877
857.013, 2110.969
858.288, 1644.035
859.562, 1339.079
860.836, 1078.098
862.110, 953.093
863.383, 692.061
864.656, 636.003
865.930, 486.927
867.203, 468.825
868.475, 434.699
869.748, 383.573
871.020, 292.421
872.292, 262.246
873.564, 308.044
874.836, 343.823
876.108, 339.996
877.379, 378.141
878.650, 355.037
879.922, 392.551
881.192, 385.221
882.463, 333.866
883.733, 307.379
885.004, 304.973
886.274, 359.225
887.544, 349.577
888.813, 428.925
890.083, 395.447
891.352, 255.187
892.621, 336.423
893.890, 299.640
895.159, 247.566
896.427, 276.615
897.695, 263.520
898.964, 252.319
900.232, 320.085
901.499, 280.739
902.767, 312.357
904.034, 410.840
905.301, 313.251
906.568, 421.496
907.835, 369.782
909.102, 395.099
910.368, 290.384
911.634, 318.818
912.900, 443.036
914.166, 229.565
915.432, 432.677
916.697, 351.666
917.962, 291.694
919.227, 332.521
920.492, 281.537
921.757, 339.406
923.021, 176.500
924.285, 275.639
925.550, 321.728
926.813, 193.750
928.077, 263.146
929.341, 367.919
930.604, 237.397
931.867, 202.495
933.130, 140.309
934.393, 158.289
935.655, 245.922
936.918, 16.723
938.180, 299.540
939.442, 133.602
940.703, 89.736
941.965, 197.686
943.226, 150.545
944.488, 101.546
945.749, 133.829
947.009, 177.782
948.270, 58.243
949.530, 120.521
950.791, 52.979
952.051, 151.815
953.311, 119.935
954.570, 20.898
955.830, 213.297
957.089, 241.774
958.348, 171.906
959.607, 221.963
960.866, 124.530
962.124, 153.275
963.383, 153.352
964.641, 187.148
965.899, 328.091
967.156, 332.133
968.414, 367.634
969.671, 467.761
970.928, 428.574
972.185, 434.713
973.442, 622.823
974.699, 477.018
975.955, 572.607
977.211, 591.340
978.468, 613.042
979.723, 704.696
980.979, 623.712
982.234, 759.531
983.490, 997.718
984.745, 836.157
986.000, 897.477
987.254, 1138.311
988.509, 1116.635
989.763, 1291.273
991.017, 1326.584
992.271, 1541.681
993.525, 1845.959
994.779, 2098.629
996.032, 2386.625
997.285, 2705.148
998.538, 3438.881
999.791, 3753.611
1001.044, 4719.256
1002.296, 4977.964
1003.548, 6145.508
1004.800, 7399.932
1006.052, 9490.162
1007.304, 12426.620
1008.555, 16706.904
1009.807, 22445.842
1011.058, 30059.121
1012.309, 38054.488
1013.559, 42102.523
1014.810, 39595.543
1016.060, 32133.893
1017.310, 24129.086
1018.560, 17183.566
1019.810, 12320.167
1021.060, 9138.034
1022.309, 7136.344
1023.558, 5510.240
1024.807, 4625.456
1026.056, 3914.812
1027.305, 3798.146
1028.553, 3062.670
1029.801, 2844.719
1031.049, 2542.382
1032.297, 2417.195
1033.545, 2269.021
1034.793, 2311.672
1036.040, 2207.012
1037.287, 2175.877
1038.534, 2276.752
1039.781, 2278.996
1041.027, 2437.680
1042.274, 2514.694
1043.520, 2770.249
1044.766, 3065.865
1046.012, 3210.436
1047.257, 3418.603
1048.503, 3358.890
1049.748, 3282.975
1050.993, 2619.854
1052.238, 2307.742
1053.483, 1911.413
1054.727, 1553.199
1055.971, 1287.895
1057.216, 1092.123
1058.459, 978.658
1059.703, 867.415
1060.947, 802.669
1062.190, 766.638
1063.433, 717.155
1064.676, 561.623
1065.919, 583.109
1067.162, 509.339
1068.404, 531.818
1069.646, 496.963
1070.888, 384.920
1072.130, 500.033
1073.372, 277.739
1074.613, 394.531
1075.855, 429.312
1077.096, 313.579
1078.337, 167.813
1079.578, 415.035
1080.818, 354.144
1082.059, 346.101
1083.299, 330.918
1084.539, 355.787
1085.779, 279.093
1087.018, 399.312
1088.258, 275.290
1089.497, 294.161
1090.736, 252.093
1091.975, 206.264
1093.213, 225.643
1094.452, 183.477
1095.690, 227.216
1096.928, 119.041
1098.166, 155.430
1099.404, 177.607
1100.642, 227.181
1101.879, 185.496
1103.116, 154.481
1104.353, 84.850
1105.590, 73.455
1106.827, 1.922
1108.063, 118.670
1109.299, 35.512
1110.536, 17.119
1111.771, 149.281
1113.007, 66.955
1114.243, 104.882
1115.478, 134.651
1116.713, 19.279
1117.948, 68.797
1119.183, 24.146
1120.418, 70.194
1121.652, 70.924
1122.886, 247.396
1124.120, 268.438
1125.354, 227.063
1126.588, 131.830
1127.821, 131.697
1129.055, 29.981
1130.288, 81.644
1131.521, 56.521
1132.753, 204.137
1133.986, 90.565
1135.218, 174.886
1136.450, 233.439
1137.682, 89.903
1138.914, 229.810
1140.146, 8.206
1141.377, 4.522
1142.609, 121.930
1143.840, 94.345
1145.071, 47.984
1146.301, 169.062
1147.532, 16.412
1148.762, 33.212
1149.992, 15.879
1151.222, 48.372
1152.452, 76.383
1153.682, 113.317
1154.911, 53.174
1156.140, 86.395
1157.369, 19.029
1158.598, 74.345
1159.827, 44.582
1161.055, 132.970
1162.284, 136.382
1163.512, 29.920
1164.740, 104.956
1165.967, 26.662
1167.195, 105.944
1168.422, 161.004
1169.650, 61.937
1170.877, 150.660
1172.103, 21.188
1173.330, 25.873
1174.557, 31.701
1175.783, 6.331
1177.009, 73.799
1178.235, 0.972
1179.461, 130.160
1180.686, 114.561
1181.912, 144.733
1183.137, 16.809
1184.362, 84.539
1185.587, 13.058
1186.811, 63.262
1188.036, 65.119
1189.260, 18.816
1190.484, 101.332
1191.708, 77.783
1192.932, 73.889
1194.155, 154.675
1195.378, 117.631
1196.602, 146.639
1197.825, 187.549
1199.047, 26.297
1200.270, 227.528
1201.492, 187.701
1202.715, 202.450
1203.937, 73.980
1205.159, 234.043
1206.380, 142.324
1207.602, 136.577
1208.823, 171.106
1210.044, 153.830
1211.265, 121.484
1212.486, 139.938
1213.707, 184.258
1214.927, 119.553
1216.147, 173.117
1217.367, 201.480
1218.587, 148.552
1219.807, 144.627
1221.027, 187.850
1222.246, 178.439
1223.465, 221.210
1224.684, 280.134
1225.903, 262.765
1227.121, 260.487
1228.340, 242.222
1229.558, 194.062
1230.776, 183.953
1231.994, 151.409
1233.212, 161.494
1234.429, 194.300
1235.646, 124.358
1236.864, 254.817
1238.081, 284.410
1239.297, 170.325
1240.514, 78.726
1241.730, 260.855
1242.947, 261.635
1244.163, 77.900
1245.378, 123.105
1246.594, 365.601
1247.810, 174.025
1249.025, 163.560
1250.240, 319.251
1251.455, 195.813
1252.670, 87.713
1253.885, 315.459
1255.099, 316.851
1256.313, 250.001
1257.527, 53.481
1258.741, 84.405
1259.955, 67.822
1261.168, 89.089
1262.382, 92.948
1263.595, 227.109
1264.808, 101.729
1266.021, 128.421
1267.233, 151.762
1268.446, 63.930
1269.658, 207.520
1270.870, 122.672
1272.082, 219.106
1273.294, 186.439
1274.505, 274.277
1275.716, 104.734
1276.928, 224.056
1278.139, 18.562
1279.349, 163.308
1280.560, 63.393
1281.770, 119.045
1282.981, 113.986
1284.191, 164.483
1285.401, 139.423
1286.610, 153.030
1287.820, 174.188
1289.029, 157.097
1290.239, 112.842
1291.448, 162.121
1292.656, 2.417
1293.865, 25.009
1295.073, 4.230
1296.282, 67.091
1297.490, 5.859
1298.698, 188.177
1299.906, 78.574
1301.113, 116.440
1302.320, 76.174
1303.528, 31.932
1304.735, 174.033
1305.942, 92.299
1307.148, 29.617
1308.355, 30.309
1309.561, 139.967
1310.767, 134.621
1311.973, 66.609
1313.179, 8.850
1314.384, 90.893
1315.590, 157.303
1316.795, 39.578
1318.000, 161.189
1319.205, 1.646
1320.410, 37.463
1321.614, 37.938
1322.819, 115.553
1324.023, 36.848
1325.227, 280.963
1326.431, 140.021
1327.634, 57.969
1328.838, 58.211
1330.041, 73.580
1331.244, 148.047
1332.447, 179.172
1333.650, 34.041
1334.852, 78.127
1336.055, 154.484
1337.257, 78.344
1338.459, 184.844
1339.661, 5.416
1340.862, 228.486
1342.064, 105.373
1343.265, 96.871
1344.466, 125.543
1345.667, 50.879
1346.868, 9.699
1348.068, 311.826
1349.269, 190.025
1350.469, 147.039
1351.669, 271.359
1352.869, 99.406
1354.069, 161.432
1355.268, 304.727
1356.468, 20.010
1357.667, 311.504
1358.866, 280.766
1360.065, 107.260
1361.263, 426.885
1362.462, 232.240
1363.660, 418.141
1364.858, 520.193
1366.056, 454.881
1367.254, 323.152
1368.451, 547.992
1369.649, 381.848
1370.846, 329.316
1372.043, 437.357
1373.240, 334.371
1374.436, 307.357
1375.633, 388.154
1376.829, 354.184
1378.025, 238.934
1379.221, 260.938
1380.417, 375.922
1381.613, 259.283
1382.808, 325.672
1384.003, 416.244
1385.199, 387.203
1386.393, 465.061
1387.588, 430.326
1388.783, 431.502
1389.977, 332.582
1391.171, 340.930
1392.365, 235.340
1393.559, 315.709
1394.753, 463.748
1395.946, 316.402
1397.140, 460.912
1398.333, 328.826
1399.526, 446.297
1400.719, 291.762
1401.911, 237.811
1403.104, 327.799
1404.296, 297.396
1405.488, 263.566
1406.680, 455.506
1407.872, 21.541
1409.063, 77.102
1410.255, 645.189
1411.446, 234.723
1412.637, 490.312
1413.828, 310.037
1415.018, 150.740
1416.209, 440.123
1417.399, 252.438
1418.589, 166.830
1419.779, 513.086
1420.969, 292.391
1422.159, 316.506
1423.348, 85.770
1424.537, 411.311
1425.726, 319.945
1426.915, 220.580
1428.104, 190.914
1429.293, 190.979
1430.481, 262.592
1431.669, 88.068
1432.857, 508.840
1434.045, 346.941
1435.233, 314.785
1436.420, 586.973
1437.608, 469.684
1438.795, 470.688
1439.982, 228.646
1441.169, 176.355
1442.355, 369.562
1443.542, 350.732
1444.728, 348.146
1445.914, 283.576
1447.100, 406.590
1448.286, 445.883
1449.472, 333.551
1450.657, 102.963
1451.842, 553.518
1453.027, 369.025
1454.212, 429.955
1455.397, 685.764
1456.581, 217.666
1457.766, 303.072
1458.950, 551.654
1460.134, 303.191
1461.318, 791.596
1462.501, 104.102
1463.685, 19.271
1464.868, 214.932
1466.051, 0.029
1467.234, 181.789
1468.417, 62.762
1469.600, 9.221
1470.782, 69.668
1471.965, 285.318
1473.147, 104.037
1474.329, 277.779
1475.510, 916.127
1476.692, 490.045
1477.873, 312.105
1479.055, 612.465
1480.236, 77.473
1481.416, 698.754
1482.597, 239.146
1483.778, 450.084
1484.958, 37.379
1486.138, 0.375
1487.318, 0.000
##END=



