##NAMES=Diopside
##RRUFFID=R040097
##IDEAL CHEMISTRY=CaMgSi_2_O_6_
##LOCALITY=Fassathal, Tyrol
##OWNER=RRUFF
##SOURCE=University of Arizona Mineral Museum
##DESCRIPTION=Green prismatic crystals
##STATUS=The identification of this mineral has been confirmed by X-ray diffraction and chemical analysis
##URL=rruff.info/R040097
##MEASURED CHEMISTRY=Ca_1.00_(Mg_0.83_Al_0.10_Fe_0.09_Ca_0.02_Ti_0.02_)(Si_0.88_Al_0.12_)_2_O_6_
##PIN_ID=M00314
##ORIENTATION=Laser parallel to c [0 0 1]. Fiducial mark perpendicular to laser is parallel to b* (0 1 0)
105.212, 0.000
106.604, 167.715
107.995, 169.644
109.387, 139.898
110.777, 2.866
112.168, 1.364
113.559, 209.732
114.949, 254.233
116.339, 386.368
117.729, 255.537
119.119, 170.575
120.508, 154.896
121.897, 96.136
123.286, 68.108
124.675, 86.984
126.063, 33.137
127.452, 50.602
128.840, 55.535
130.228, 189.785
131.615, 183.321
133.003, 216.193
134.390, 221.182
135.777, 308.091
137.164, 323.963
138.550, 372.691
139.937, 422.946
141.323, 492.087
142.709, 391.617
144.094, 363.262
145.480, 480.313
146.865, 338.026
148.250, 317.449
149.635, 325.550
151.019, 285.625
152.403, 337.732
153.788, 252.603
155.171, 372.714
156.555, 235.490
157.939, 389.221
159.322, 285.295
160.705, 293.303
162.088, 389.087
163.470, 380.236
164.853, 397.453
166.235, 345.627
167.617, 383.711
168.998, 317.705
170.380, 393.616
171.761, 363.702
173.142, 284.215
174.523, 344.856
175.904, 288.886
177.284, 237.730
178.664, 155.779
180.044, 296.811
181.424, 106.818
182.803, 114.800
184.183, 232.771
185.562, 74.827
186.940, 63.870
188.319, 36.417
189.698, 63.408
191.076, 130.043
192.454, 94.980
193.831, 247.663
195.209, 177.674
196.586, 317.846
197.963, 188.077
199.340, 151.369
200.717, 44.708
202.093, 3.087
203.470, 30.500
204.846, 70.055
206.221, 38.417
207.597, 10.089
208.972, 20.577
210.347, 160.948
211.722, 124.484
213.097, 101.025
214.472, 74.566
215.846, 148.102
217.220, 129.634
218.594, 46.158
219.967, 196.679
221.341, 159.191
222.714, 186.692
224.087, 229.177
225.460, 299.643
226.832, 371.079
228.204, 355.491
229.577, 363.857
230.948, 346.185
232.320, 308.486
233.692, 160.772
235.063, 29.042
236.434, 18.733
237.805, 100.632
239.175, 81.202
240.545, 111.663
241.916, 40.271
243.286, 54.188
244.655, 187.088
246.025, 170.977
247.394, 143.860
248.763, 310.740
250.132, 460.620
251.501, 718.498
252.869, 812.365
254.237, 1015.154
255.605, 1204.794
256.973, 1047.382
258.340, 1335.967
259.708, 1042.553
261.075, 810.354
262.442, 580.989
263.808, 366.555
265.175, 390.796
266.541, 228.754
267.907, 256.542
269.273, 183.429
270.639, 50.938
272.004, 153.424
273.369, 24.716
274.734, 46.235
276.099, 7.244
277.463, 10.586
278.828, 44.232
280.192, 37.074
281.556, 189.612
282.919, 83.262
284.283, 272.473
285.646, 235.490
287.009, 280.249
288.372, 390.747
289.734, 244.052
291.097, 437.867
292.459, 410.956
293.821, 501.118
295.183, 610.201
296.544, 649.219
297.905, 954.172
299.266, 1009.065
300.627, 1119.901
301.988, 1160.687
303.348, 1451.421
304.709, 1562.097
306.069, 1822.716
307.428, 2093.274
308.788, 2293.759
310.147, 2704.176
311.507, 2844.498
312.865, 3154.756
314.224, 3304.962
315.583, 3465.131
316.941, 3925.262
318.299, 3955.295
319.657, 4555.124
321.015, 5084.863
322.372, 5574.525
323.729, 6414.158
325.086, 6753.764
326.443, 7113.338
327.800, 7122.895
329.156, 7012.439
330.512, 6571.979
331.868, 6001.510
333.224, 5831.031
334.579, 5370.533
335.935, 4999.898
337.290, 4679.047
338.645, 4352.425
339.999, 4057.383
341.354, 3826.334
342.708, 3564.943
344.062, 3344.115
345.416, 3232.351
346.769, 3030.670
348.123, 2879.645
349.476, 2847.550
350.829, 2665.303
352.182, 2742.457
353.534, 2600.184
354.887, 2558.639
356.239, 2626.779
357.591, 2445.720
358.942, 2424.369
360.294, 2263.439
361.645, 2192.146
362.996, 1980.705
364.347, 1798.136
365.698, 1774.006
367.048, 1567.824
368.398, 1629.209
369.748, 1596.622
371.098, 1451.867
372.448, 1556.500
373.797, 1385.138
375.146, 1433.625
376.495, 1551.942
377.844, 1350.048
379.192, 1518.646
380.540, 1467.169
381.889, 1644.956
383.236, 1643.767
384.584, 2042.424
385.932, 2201.198
387.279, 2390.154
388.626, 2739.184
389.973, 3018.213
391.319, 3297.238
392.666, 3196.261
394.012, 3015.282
395.358, 2864.302
396.704, 2432.995
398.049, 1970.742
399.394, 1616.349
400.740, 1196.869
402.084, 968.654
403.429, 578.577
404.774, 492.067
406.118, 314.792
407.462, 383.674
408.806, 172.496
410.150, 151.214
411.493, 200.269
412.836, 49.328
414.179, 138.424
415.522, 9.473
416.865, 3.369
418.207, 135.789
419.549, 109.052
420.891, 144.152
422.233, 16.596
423.575, 212.824
424.916, 2.158
426.257, 41.611
427.598, 131.386
428.939, 20.773
430.279, 120.771
431.619, 40.125
432.959, 0.369
434.299, 189.478
435.639, 46.771
436.978, 43.004
438.318, 51.511
439.657, 63.880
440.996, 84.506
442.334, 77.721
443.673, 81.960
445.011, 48.293
446.349, 7.516
447.687, 22.917
449.024, 73.049
450.361, 143.519
451.699, 16.628
453.036, 103.745
454.372, 73.856
455.709, 243.378
457.045, 223.062
458.381, 262.478
459.717, 401.879
461.053, 231.267
462.388, 290.641
463.724, 330.001
465.059, 379.349
466.394, 468.682
467.728, 338.000
469.063, 337.306
470.397, 356.597
471.731, 415.874
473.065, 375.139
474.398, 164.397
475.732, 423.644
477.065, 182.875
478.398, 272.096
479.731, 341.302
481.063, 200.496
482.396, 159.679
483.728, 228.849
485.060, 268.008
486.391, 297.155
487.723, 327.350
489.054, 305.413
490.385, 344.525
491.716, 353.626
493.047, 332.714
494.377, 251.790
495.708, 360.853
497.038, 329.904
498.368, 358.945
499.697, 227.974
501.027, 326.991
502.356, 525.998
503.685, 384.996
505.014, 793.981
506.342, 662.959
507.671, 861.929
508.999, 780.887
510.327, 989.838
511.655, 998.782
512.982, 957.722
514.310, 946.656
515.637, 885.580
516.964, 890.406
518.291, 923.398
519.617, 892.290
520.944, 851.169
522.270, 860.037
523.596, 998.893
524.921, 1137.743
526.247, 956.594
527.572, 1235.452
528.897, 1334.331
530.222, 1313.201
531.547, 1492.075
532.871, 1330.953
534.196, 1609.818
535.520, 1478.674
536.844, 1477.515
538.167, 1246.347
539.491, 1135.166
540.814, 1023.972
542.137, 1082.768
543.460, 921.550
544.783, 980.318
546.105, 719.073
547.427, 837.812
548.749, 726.536
550.071, 845.243
551.393, 733.937
552.714, 712.613
554.035, 851.272
555.356, 609.916
556.677, 828.545
557.998, 917.163
559.318, 798.127
560.638, 956.762
561.958, 586.156
563.278, 767.979
564.597, 716.912
565.917, 597.015
567.236, 606.201
568.555, 395.554
569.874, 554.864
571.192, 394.798
572.511, 411.461
573.829, 501.774
575.147, 340.408
576.464, 461.425
577.782, 350.387
579.099, 168.878
580.416, 348.703
581.733, 155.646
583.050, 295.447
584.366, 164.123
585.683, 119.347
586.999, 309.438
588.315, 87.061
589.630, 248.429
590.946, 46.945
592.261, 100.513
593.576, 90.410
594.891, 73.226
596.206, 108.053
597.520, 23.442
598.834, 30.641
600.148, 59.159
601.462, 20.933
602.776, 105.970
604.089, 53.808
605.402, 69.969
606.715, 117.814
608.028, 65.562
609.341, 189.532
610.653, 76.357
611.965, 129.827
613.277, 267.182
614.589, 224.844
615.901, 392.410
617.212, 339.818
618.523, 447.281
619.834, 564.983
621.145, 642.301
622.456, 739.943
623.766, 617.201
625.076, 864.429
626.386, 861.627
627.696, 888.794
629.006, 1165.932
630.315, 1133.041
631.624, 1271.742
632.933, 1378.790
634.242, 1505.808
635.551, 1722.793
636.859, 1659.750
638.167, 2076.678
639.475, 1993.574
640.783, 2310.440
642.090, 2737.276
643.398, 2774.082
644.705, 3280.857
646.012, 3457.604
647.318, 4184.320
648.625, 4531.004
649.931, 4987.660
651.237, 6004.285
652.543, 6570.879
653.849, 7747.444
655.155, 9163.981
656.460, 10270.482
657.765, 12416.958
659.070, 14483.401
660.375, 17419.816
661.679, 20946.201
662.984, 24352.557
664.288, 28608.881
665.592, 29985.170
666.895, 31171.441
668.199, 29707.672
669.502, 25753.877
670.805, 22800.051
672.108, 18706.195
673.411, 15592.312
674.713, 12878.396
676.016, 10394.450
677.318, 8750.474
678.620, 7296.471
679.921, 6072.435
681.223, 5308.371
682.524, 4484.275
683.825, 3900.151
685.126, 3335.997
686.427, 3011.813
687.727, 2637.600
689.028, 2213.355
690.328, 2199.083
691.628, 1604.779
692.927, 1670.446
694.227, 1446.083
695.526, 1231.691
696.825, 1247.270
698.124, 962.819
699.423, 968.340
700.721, 893.830
702.020, 689.294
703.318, 804.729
704.616, 550.134
705.913, 665.510
707.211, 480.859
708.508, 366.180
709.805, 461.474
711.102, 356.739
712.399, 261.976
713.695, 327.187
714.992, 12.369
716.288, 267.502
717.584, 62.607
718.879, 2.320
720.175, 172.695
721.470, 27.682
722.765, 102.626
724.060, 57.539
725.355, 62.420
726.649, 27.269
727.944, 87.923
729.238, 16.788
730.532, 71.454
731.825, 163.910
733.119, 110.592
734.412, 194.937
735.705, 140.598
736.998, 106.382
738.291, 142.401
739.584, 51.588
740.876, 234.593
742.168, 8.804
743.460, 117.447
744.752, 14.377
746.043, 89.211
747.334, 217.978
748.626, 4.841
749.916, 102.431
751.207, 186.607
752.498, 35.882
753.788, 75.725
755.078, 14.502
756.368, 61.303
757.658, 130.524
758.947, 61.619
760.237, 73.188
761.526, 35.065
762.815, 97.205
764.104, 91.030
765.392, 231.291
766.680, 86.945
767.969, 245.020
769.257, 97.543
770.544, 109.869
771.832, 182.432
773.119, 114.978
774.406, 47.506
775.693, 290.015
776.980, 42.508
778.267, 314.982
779.553, 237.440
780.839, 249.884
782.125, 302.312
783.411, 134.726
784.697, 187.124
785.982, 30.492
787.267, 231.859
788.552, 274.198
789.837, 206.523
791.122, 298.834
792.406, 221.134
793.690, 393.419
794.974, 395.691
796.258, 267.952
797.542, 430.199
798.825, 332.436
800.108, 274.661
801.391, 496.874
802.674, 279.076
803.957, 561.268
805.239, 343.447
806.522, 305.617
807.804, 627.777
809.085, 259.927
810.367, 442.066
811.649, 514.197
812.930, 466.319
814.211, 498.433
815.492, 520.536
816.772, 652.632
818.053, 844.719
819.333, 726.797
820.613, 1118.869
821.893, 780.933
823.173, 932.989
824.452, 1115.039
825.732, 867.081
827.011, 989.117
828.290, 961.147
829.568, 863.172
830.847, 975.189
832.125, 877.202
833.403, 839.211
834.681, 771.213
835.959, 673.212
837.236, 775.207
838.514, 517.196
839.791, 629.186
841.068, 631.173
842.345, 463.156
843.621, 705.138
844.898, 397.115
846.174, 539.140
847.450, 671.160
848.726, 573.179
850.001, 1045.242
851.277, 907.304
852.552, 1309.366
853.827, 1551.468
855.102, 1373.568
856.376, 1865.723
857.651, 1867.875
858.925, 1810.028
860.199, 2002.199
861.473, 1574.371
862.746, 1736.546
864.020, 1208.770
865.293, 1360.992
866.566, 1273.295
867.839, 965.601
869.112, 1165.562
870.384, 907.917
871.656, 749.529
872.928, 938.794
874.200, 520.963
875.472, 931.953
876.744, 773.853
878.015, 445.573
879.286, 817.322
880.557, 508.468
881.828, 472.670
883.098, 483.411
884.369, 435.279
885.639, 424.843
886.909, 356.929
888.178, 464.667
889.448, 375.866
890.717, 259.289
891.987, 410.510
893.256, 162.475
894.524, 108.053
895.793, 418.965
897.061, 52.042
898.330, 351.664
899.598, 143.908
900.865, 20.930
902.133, 392.016
903.401, 186.452
904.668, 225.896
905.935, 148.144
907.202, 74.837
908.468, 315.483
909.735, 188.033
911.001, 81.886
912.267, 324.544
913.533, 77.289
914.799, 419.910
916.064, 292.823
917.330, 329.655
918.595, 582.872
919.860, 210.159
921.124, 473.428
922.389, 346.522
923.653, 479.704
924.918, 743.039
926.182, 366.308
927.445, 499.329
928.709, 702.726
929.972, 485.788
931.236, 839.229
932.499, 532.690
933.761, 546.173
935.024, 759.681
936.286, 623.207
937.549, 886.758
938.811, 788.705
940.073, 792.297
941.334, 1005.917
942.596, 799.561
943.857, 883.224
945.118, 1046.913
946.379, 820.622
947.640, 1214.360
948.900, 878.120
950.161, 1011.900
951.421, 1325.704
952.681, 749.527
953.940, 1323.373
955.200, 1297.244
956.459, 1341.136
957.719, 1375.052
958.978, 1228.991
960.236, 1442.950
961.495, 2026.944
962.753, 1610.957
964.012, 1784.992
965.270, 1449.054
966.527, 1763.137
967.785, 1937.245
969.043, 1741.376
970.300, 2195.527
971.557, 1849.701
972.814, 2113.896
974.071, 2148.109
975.327, 1882.355
976.583, 2376.623
977.840, 2490.914
979.095, 2205.229
980.351, 2799.562
981.607, 2453.922
982.862, 2928.301
984.117, 3292.779
985.372, 3067.201
986.627, 3611.783
987.882, 3746.244
989.136, 4200.725
990.390, 4766.154
991.644, 4950.680
992.898, 6065.402
994.152, 6480.094
995.405, 7524.680
996.659, 9120.355
997.912, 10104.979
999.165, 12239.637
1000.417, 14265.086
1001.670, 16189.781
1002.922, 19794.889
1004.174, 22048.969
1005.426, 25683.742
1006.678, 29520.906
1007.930, 31835.709
1009.181, 35950.547
1010.432, 36619.363
1011.683, 36094.672
1012.934, 33100.164
1014.185, 27845.756
1015.435, 22620.680
1016.685, 18163.939
1017.935, 14638.088
1019.185, 11634.953
1020.435, 9359.938
1021.684, 8354.965
1022.934, 7503.342
1024.183, 6333.928
1025.432, 6539.082
1026.680, 6095.707
1027.929, 5436.090
1029.177, 5516.631
1030.425, 4388.877
1031.673, 4634.246
1032.921, 4270.568
1034.169, 3966.861
1035.416, 4132.742
1036.663, 3924.396
1037.911, 3940.311
1039.157, 4336.211
1040.404, 4157.162
1041.650, 4892.957
1042.897, 5093.414
1044.143, 5039.451
1045.389, 5715.438
1046.634, 5483.848
1047.880, 5370.238
1049.125, 5096.768
1050.371, 4309.578
1051.615, 4105.723
1052.860, 3402.543
1054.105, 3079.316
1055.349, 3265.568
1056.593, 2113.623
1057.837, 2130.803
1059.081, 2317.127
1060.325, 1695.648
1061.568, 1942.012
1062.812, 1619.387
1064.055, 1576.092
1065.298, 1712.480
1066.540, 1170.922
1067.783, 1387.443
1069.025, 1244.338
1070.267, 981.850
1071.509, 1128.287
1072.751, 1005.250
1073.993, 942.627
1075.234, 1079.053
1076.475, 776.338
1077.716, 1132.756
1078.957, 909.166
1080.198, 756.568
1081.438, 962.969
1082.679, 779.863
1083.919, 917.041
1085.159, 913.414
1086.398, 480.750
1087.638, 937.109
1088.877, 703.463
1090.116, 831.922
1091.355, 858.260
1092.594, 605.156
1093.833, 1042.396
1095.071, 638.713
1096.309, 647.027
1097.547, 803.318
1098.785, 599.596
1100.023, 566.670
1101.260, 702.918
1102.498, 509.391
1103.735, 906.771
1104.972, 692.971
1106.208, 480.002
1107.445, 846.984
1108.681, 523.135
1109.918, 712.100
1111.154, 918.217
1112.389, 694.656
1113.625, 842.277
1114.860, 418.336
1116.096, 505.789
1117.331, 862.393
1118.566, 608.393
1119.800, 734.766
1121.035, 490.918
1122.269, 546.855
1123.503, 895.650
1124.737, 411.543
1125.971, 558.732
1127.205, 615.199
1128.438, 241.023
1129.671, 678.375
1130.904, 274.150
1132.137, 119.900
1133.370, 536.379
1134.602, 112.082
1135.834, 368.074
1137.066, 464.219
1138.298, 10.164
1139.530, 516.750
1140.762, 123.170
1141.993, 138.686
1143.224, 354.775
1144.455, 189.318
1145.686, 186.311
1146.917, 314.762
1148.147, 179.980
1149.377, 346.502
1150.607, 101.963
1151.837, 152.979
1153.067, 306.893
1154.296, 197.611
1155.526, 247.762
1156.755, 216.027
1157.984, 59.281
1159.213, 116.488
1160.441, 82.729
1161.670, 162.289
1162.898, 263.672
1164.126, 281.184
1165.354, 162.982
1166.581, 61.496
1167.809, 144.002
1169.036, 283.631
1170.263, 188.740
1171.490, 62.969
1172.717, 313.359
1173.943, 9.832
1175.170, 404.936
1176.396, 227.699
1177.622, 67.990
1178.848, 346.195
1180.073, 120.680
1181.299, 133.932
1182.524, 237.734
1183.749, 45.426
1184.974, 257.613
1186.199, 302.766
1187.423, 23.807
1188.648, 549.420
1189.872, 8.621
1191.096, 334.068
1192.320, 470.068
1193.543, 34.113
1194.767, 296.754
1195.990, 269.861
1197.213, 36.939
1198.436, 515.336
1199.659, 228.414
1200.881, 250.623
1202.104, 673.127
1203.326, 72.152
1204.548, 194.119
1205.770, 436.549
1206.991, 59.152
1208.213, 460.912
1209.434, 178.352
1210.655, 340.707
1211.876, 512.277
1213.096, 75.145
1214.317, 397.043
1215.537, 308.699
1216.757, 172.605
1217.977, 483.840
1219.197, 306.123
1220.417, 207.250
1221.636, 588.293
1222.855, 230.225
1224.074, 491.131
1225.293, 491.977
1226.512, 204.740
1227.731, 625.455
1228.949, 326.105
1230.167, 257.145
1231.385, 687.662
1232.603, 219.350
1233.820, 479.744
1235.038, 620.076
1236.255, 101.926
1237.472, 542.133
1238.689, 322.283
1239.906, 246.799
1241.122, 616.836
1242.338, 116.818
1243.555, 586.738
1244.771, 546.602
1245.986, 276.412
1247.202, 626.150
1248.417, 415.832
1249.633, 205.479
1250.848, 535.037
1252.063, 274.537
1253.277, 284.158
1254.492, 523.523
1255.706, 93.074
1256.920, 752.307
1258.134, 401.479
1259.348, 170.707
1260.562, 669.754
1261.775, 188.734
1262.988, 347.805
1264.201, 546.654
1265.414, 395.428
1266.627, 444.260
1267.839, 572.879
1269.052, 101.713
1270.264, 650.404
1271.476, 208.795
1272.688, 347.109
1273.899, 625.357
1275.111, 183.521
1276.322, 611.562
1277.533, 559.471
1278.744, 317.152
1279.955, 506.678
1281.165, 423.977
1282.376, 381.572
1283.586, 678.855
1284.796, 215.072
1286.006, 292.082
1287.215, 708.826
1288.425, 355.547
1289.634, 392.568
1290.843, 418.199
1292.052, 94.826
1293.261, 901.324
1294.469, 196.973
1295.678, 393.285
1296.886, 629.135
1298.094, 35.939
1299.302, 333.117
1300.509, 316.711
1301.717, 62.615
1302.924, 468.439
1304.131, 200.197
1305.338, 145.410
1306.545, 351.520
1307.752, 146.330
1308.958, 261.746
1310.164, 438.770
1311.370, 23.684
1312.576, 328.062
1313.782, 33.156
1314.987, 131.855
1316.193, 79.883
1317.398, 49.205
1318.603, 126.104
1319.807, 107.061
1321.012, 228.453
1322.216, 195.525
1323.421, 192.875
1324.625, 102.955
1325.829, 560.223
1327.032, 243.367
1328.236, 16.857
1329.439, 474.564
1330.642, 122.078
1331.845, 261.291
1333.048, 279.596
1334.251, 76.963
1335.453, 591.801
1336.656, 14.924
1337.858, 88.117
1339.060, 328.832
1340.261, 201.533
1341.463, 164.047
1342.664, 420.223
1343.866, 143.055
1345.067, 335.158
1346.267, 247.287
1347.468, 50.064
1348.669, 340.727
1349.869, 212.357
1351.069, 154.799
1352.269, 644.988
1353.469, 32.682
1354.668, 158.586
1355.868, 540.473
1357.067, 72.627
1358.266, 212.678
1359.465, 254.633
1360.664, 16.166
1361.862, 377.068
1363.061, 89.002
1364.259, 310.377
1365.457, 311.305
1366.655, 103.154
1367.852, 534.121
1369.050, 385.939
1370.247, 27.756
1371.444, 478.572
1372.641, 400.402
1373.838, 191.758
1375.035, 662.861
1376.231, 65.391
1377.427, 376.477
1378.623, 608.451
1379.819, 40.406
1381.015, 353.256
1382.211, 546.596
1383.406, 20.748
1384.601, 603.852
1385.796, 337.504
1386.991, 400.420
1388.185, 803.807
1389.380, 367.109
1390.574, 378.111
1391.768, 709.990
1392.962, 272.250
1394.156, 545.297
1395.350, 488.227
1396.543, 228.443
1397.736, 640.275
1398.929, 212.785
1400.122, 454.086
1401.315, 696.188
1402.507, 238.674
1403.700, 360.838
1404.892, 540.830
1406.084, 222.637
1407.276, 684.207
1408.467, 322.723
1409.659, 223.002
1410.850, 639.104
1412.041, 179.916
1413.232, 187.621
1414.423, 686.146
1415.614, 365.654
1416.804, 486.846
1417.994, 442.539
1419.184, 200.740
1420.374, 676.277
1421.564, 327.898
1422.753, 19.178
1423.943, 564.795
1425.132, 95.004
1426.321, 220.584
1427.510, 552.537
1428.698, 218.709
1429.887, 274.061
1431.075, 371.979
1432.263, 39.977
1433.451, 218.914
1434.639, 328.402
1435.827, 197.055
1437.014, 724.854
1438.201, 125.021
1439.388, 143.482
1440.575, 629.920
1441.762, 35.676
1442.949, 441.711
1444.135, 340.949
1445.321, 48.385
1446.507, 383.760
1447.693, 542.719
1448.879, 39.289
1450.064, 597.031
1451.250, 352.453
1452.435, 520.840
1453.620, 1429.850
1454.805, 747.688
1455.989, 185.318
1457.174, 742.793
1458.358, 9.988
1459.542, 626.660
1460.726, 342.986
1461.910, 179.662
1463.093, 785.824
1464.277, 491.668
1465.460, 167.689
1466.643, 683.264
1467.826, 367.691
1469.009, 393.289
1470.191, 858.707
1471.373, 34.412
1472.556, 755.264
1473.738, 401.490
1474.919, 218.533
1476.101, 656.088
1477.283, 632.836
1478.464, 240.293
1479.645, 777.965
1480.826, 305.844
1482.007, 569.779
1483.187, 857.658
1484.368, 45.512
1485.548, 778.984
1486.728, 826.812
1487.908, 24.816
1489.088, 742.992
1490.268, 380.521
1491.447, 128.816
1492.626, 667.244
1493.805, 425.865
1494.984, 264.758
1496.163, 873.975
1497.341, 213.656
1498.520, 423.805
1499.698, 854.236
1500.876, 144.992
1502.054, 426.197
1503.232, 667.936
1504.409, 190.500
1505.586, 883.680
1506.763, 357.658
1507.940, 122.516
1509.117, 908.408
1510.294, 395.477
1511.470, 343.930
1512.647, 554.084
1513.823, 76.266
1514.999, 700.951
1516.174, 558.816
1517.350, 9.154
1518.526, 898.504
1519.701, 758.705
1520.876, 0.000
##END=



