##NAMES=Diopside
##RRUFFID=R070123
##IDEAL CHEMISTRY=CaMgSi_2_O_6_
##LOCALITY=Yates mine, Otter Lake, Huddersfield Township, Pontiac County, Québec, Canada
##OWNER=RRUFF
##SOURCE=Michael Scott
##DESCRIPTION=Black prismatic crystals associated with orange calcite
##STATUS=The identification of this mineral has been confirmed by X-ray diffraction and chemical analysis
##URL=rruff.info/R070123
##MEASURED CHEMISTRY=(Ca_0.95_Na_0.04_Mn_0.01_)_Σ=1_(Mg_0.63_Fe_0.33_Al_0.04_)_Σ=1_Si_2.00_O_6_
##PIN_ID=M01382
##ORIENTATION=Laser parallel to (1 0 -1). Fiducial mark perpendicular to laser is parallel to b [0 1 0]
106.9000, 0.0000000E+00
108.1390, 0.3045650
109.3780, 5.173218
110.6170, 44.34387
111.8550, 7.181274
113.0940, 18.80969
114.3320, 134.8303
115.5700, 71.89124
116.8080, 76.98621
118.0460, 66.01892
119.2830, 29.90527
120.5210, 2.538696
121.7580, 6.339600
122.9950, 50.22888
124.2320, 66.20618
125.4690, 101.5594
126.7050, 84.25818
127.9410, 155.2737
129.1780, 237.8448
130.4140, 245.0430
131.6490, 367.7783
132.8850, 458.4452
134.1200, 495.5804
135.3560, 552.9370
136.5910, 557.5013
137.8260, 591.2611
139.0610, 541.2045
140.2950, 436.3214
141.5290, 281.6024
142.7640, 201.0388
143.9980, 78.62268
145.2320, 102.3420
146.4650, 45.18530
147.6990, 20.14282
148.9320, 20.20715
150.1650, 13.62744
151.3980, 43.63843
152.6310, 35.00647
153.8640, 9.521484
155.0960, 29.05298
156.3280, 5.725952
157.5600, 40.49268
158.7920, 19.65186
160.0240, 70.28845
161.2560, 64.30981
162.4870, 106.4087
163.7180, 143.5820
164.9490, 180.8273
166.1800, 200.1418
167.4110, 166.5231
168.6410, 152.9690
169.8720, 179.4775
171.1020, 235.0470
172.3320, 249.6754
173.5620, 290.3613
174.7910, 259.1030
176.0210, 287.8994
177.2500, 293.7489
178.4790, 219.6503
179.7080, 195.6023
180.9370, 151.5891
182.1650, 133.5696
183.3940, 128.0286
184.6220, 134.5406
185.8500, 140.5406
187.0780, 116.5551
188.3050, 137.5861
189.5330, 172.6361
190.7600, 131.7070
191.9870, 123.8068
193.2140, 163.9568
194.4410, 173.1760
195.6680, 132.4990
196.8940, 156.9045
198.1200, 205.3878
199.3470, 225.9763
200.5720, 263.6348
201.7980, 239.3219
203.0240, 220.0425
204.2490, 123.8062
205.4740, 59.58826
206.6990, 27.38757
207.9240, 13.66431
209.1490, 46.03772
210.3740, 41.89136
211.5980, 61.76428
212.8220, 71.65662
214.0460, 85.56860
215.2700, 71.50049
216.4930, 116.4524
217.7170, 129.4243
218.9400, 180.4165
220.1630, 184.4288
221.3860, 215.4614
222.6090, 282.5144
223.8320, 386.5878
225.0540, 434.6814
226.2760, 539.7959
227.4980, 656.9309
228.7200, 756.0862
229.9420, 890.2620
231.1630, 1012.458
232.3850, 1116.675
233.6060, 1096.912
234.8270, 1050.169
236.0480, 944.4473
237.2690, 816.7446
238.4890, 747.0626
239.7090, 653.4006
240.9290, 579.7583
242.1490, 549.1360
243.3690, 588.5334
244.5890, 552.9507
245.8080, 649.3877
247.0270, 645.8440
248.2470, 687.3198
249.4650, 679.8152
250.6840, 705.3293
251.9030, 737.8633
253.1210, 788.4160
254.3390, 772.3887
255.5570, 776.4011
256.7750, 780.5786
257.9930, 807.8508
259.2100, 781.5452
260.4280, 768.4333
261.6450, 737.1252
262.8620, 708.6782
264.0790, 683.2900
265.2950, 655.9565
266.5120, 662.6738
267.7280, 645.4385
268.9440, 648.1492
270.1600, 549.0022
271.3760, 576.8967
272.5920, 548.8308
273.8070, 618.8032
275.0220, 580.8123
276.2370, 623.5969
277.4520, 660.3757
278.6670, 698.6165
279.8820, 680.8140
281.0960, 653.7170
282.3100, 690.1404
283.5240, 687.3599
284.7380, 763.0024
285.9520, 792.9316
287.1650, 736.2339
288.3780, 824.0571
289.5920, 810.9424
290.8050, 924.0042
292.0170, 982.8083
293.2300, 1057.234
294.4430, 1096.682
295.6550, 1270.735
296.8670, 1333.032
298.0790, 1552.543
299.2910, 1732.436
300.5020, 1893.879
301.7140, 2152.454
302.9250, 2360.151
304.1360, 2691.765
305.3470, 3064.096
306.5580, 3385.748
307.7680, 3716.418
308.9780, 4099.107
310.1890, 4472.814
311.3990, 4860.537
312.6090, 5252.690
313.8180, 5719.038
315.0280, 6049.812
316.2370, 6472.605
317.4460, 6881.414
318.6550, 7148.241
319.8640, 7207.807
321.0730, 7179.689
322.2810, 6958.816
323.4890, 6613.707
324.6980, 6109.612
325.9060, 5399.534
327.1130, 4783.471
328.3210, 4073.424
329.5280, 3652.394
330.7360, 3171.377
331.9430, 2753.377
333.1500, 2548.394
334.3560, 2267.426
335.5630, 1999.474
336.7690, 1790.538
337.9760, 1728.618
339.1820, 1593.714
340.3870, 1461.824
341.5930, 1207.950
342.7990, 1305.091
344.0040, 1137.246
345.2090, 1106.415
346.4140, 1103.598
347.6190, 1046.793
348.8240, 968.0032
350.0280, 1000.226
351.2330, 957.4614
352.4370, 924.7102
353.6410, 925.9724
354.8440, 837.2473
356.0480, 789.5349
357.2520, 776.8357
358.4550, 702.1492
359.6580, 661.4753
360.8610, 652.8145
362.0640, 584.1655
363.2660, 539.5298
364.4690, 515.9060
365.6710, 500.2949
366.8730, 456.6960
368.0750, 433.1091
369.2770, 438.5347
370.4780, 515.9722
371.6800, 499.4219
372.8810, 512.8833
374.0820, 470.3567
375.2830, 516.8418
376.4830, 521.3384
377.6840, 521.8469
378.8840, 581.3669
380.0840, 705.8984
381.2840, 683.4412
382.4840, 769.9954
383.6840, 770.5608
384.8830, 846.1377
386.0830, 804.7258
387.2820, 808.3252
388.4810, 818.9355
389.6800, 767.5569
390.8780, 717.1895
392.0770, 620.8325
393.2750, 573.4868
394.4730, 497.4648
395.6710, 400.8276
396.8690, 352.5142
398.0660, 294.2114
399.2640, 214.9265
400.4610, 149.6594
401.6580, 101.4094
402.8550, 78.17603
404.0520, 30.95874
405.2490, 86.75757
406.4450, 44.57202
407.6410, 89.40161
408.8370, 35.24609
410.0330, 14.10571
411.2290, 13.97998
412.4240, 3.726318
413.6200, 41.77075
414.8150, 6.687256
416.0100, 58.61743
417.2050, 27.56104
418.4000, 25.51807
419.5940, 13.51147
420.7880, 12.53540
421.9830, 21.55347
423.1770, 2.430908
424.3700, 89.57397
425.5640, 61.60693
426.7580, 37.34375
427.9510, 45.69312
429.1440, 68.73926
430.3370, 8.194580
431.5300, 83.85962
432.7220, 27.94141
433.9150, 87.02539
435.1070, 25.13843
436.2990, 15.74683
437.4910, 31.64380
438.6830, 28.44824
439.8750, 30.45630
441.0660, 16.62720
442.2570, 23.70923
443.4480, 24.20801
444.6390, 63.13745
445.8300, 3.079834
447.0210, 39.04248
448.2110, 50.02563
449.4010, 49.03369
450.5910, 23.06738
451.7810, 88.11377
452.9710, 70.17749
454.1610, 97.26465
455.3500, 131.3804
456.5390, 119.5127
457.7280, 149.4993
458.9170, 76.87207
460.1060, 165.0803
461.2940, 102.3101
462.4830, 73.56250
463.6710, 84.84375
464.8590, 124.1553
466.0470, 59.48584
467.2350, 10.84082
468.4220, 46.20850
469.6090, 26.60229
470.7970, 52.01465
471.9840, 21.44458
473.1700, 13.89526
474.3570, 41.37354
475.5440, 50.87939
476.7300, 57.41406
477.9160, 48.97607
479.1020, 20.54883
480.2880, 53.13818
481.4740, 28.74023
482.6590, 74.35034
483.8440, 84.96875
485.0300, 118.5942
486.2140, 98.22681
487.3990, 136.8667
488.5840, 176.5129
489.7680, 239.1677
490.9530, 190.8291
492.1370, 346.4971
493.3210, 361.1714
494.5040, 447.8523
495.6880, 607.5391
496.8720, 715.2322
498.0550, 861.9314
499.2380, 941.6377
500.4210, 1276.350
501.6040, 1450.067
502.7860, 1646.791
503.9690, 1716.520
505.1510, 1624.254
506.3330, 1528.994
507.5150, 1280.740
508.6970, 1142.490
509.8780, 912.2454
511.0600, 770.0059
512.2410, 590.7708
513.4220, 567.5405
514.6030, 555.3145
515.7840, 424.0933
516.9640, 432.8760
518.1440, 395.6631
519.3250, 378.4543
520.5050, 401.2493
521.6850, 390.0530
522.8640, 318.8633
524.0440, 438.6863
525.2230, 348.5200
526.4020, 404.3604
527.5820, 377.2109
528.7600, 365.0659
529.9390, 471.9275
531.1180, 492.7920
532.2960, 448.6711
533.4740, 483.5559
534.6520, 502.4434
535.8300, 533.3455
537.0080, 520.3040
538.1850, 497.1633
539.3630, 490.0796
540.5400, 458.0020
541.7170, 453.9263
542.8940, 432.8525
544.0700, 448.7803
545.2470, 458.7097
546.4230, 459.6406
547.5990, 475.5728
548.7750, 521.5063
549.9510, 520.4407
551.1270, 542.3765
552.3020, 602.3132
553.4780, 597.2505
554.6530, 641.1846
555.8280, 676.1240
557.0030, 677.0637
558.1770, 760.0039
559.3520, 678.9470
560.5260, 660.8921
561.7000, 541.0911
562.8740, 495.3340
564.0480, 443.1479
565.2220, 419.0308
566.3950, 390.2405
567.5680, 423.9602
568.7420, 406.9133
569.9150, 345.4714
571.0870, 391.7708
572.2600, 299.7229
573.4320, 276.1802
574.6050, 304.6003
575.7770, 274.8689
576.9490, 229.4187
578.1210, 231.3699
579.2920, 204.3210
580.4640, 166.6895
581.6350, 208.6399
582.8060, 134.6455
583.9770, 101.3633
585.1480, 128.5203
586.3190, 155.9177
587.4890, 125.3994
588.6590, 72.53369
589.8290, 135.4119
590.9990, 31.84766
592.1690, 39.28638
593.3390, 68.79883
594.5080, 40.71582
595.6770, 94.00977
596.8470, 60.34644
598.0160, 146.7041
599.1840, 76.87036
600.3530, 130.8154
601.5210, 89.48071
602.6900, 150.4009
603.8580, 184.7703
605.0260, 241.5229
606.1930, 243.5857
607.3610, 261.0386
608.5280, 292.7002
609.6960, 275.6152
610.8630, 329.6603
612.0300, 343.4685
613.1970, 442.0448
614.3630, 405.3318
615.5300, 498.6365
616.6960, 510.2113
617.8620, 616.4302
619.0280, 664.8035
620.1940, 752.5569
621.3590, 733.3982
622.5250, 870.2695
623.6900, 923.2126
624.8550, 1021.992
626.0200, 1121.762
627.1850, 1165.523
628.3490, 1287.275
629.5140, 1402.273
630.6780, 1411.006
631.8420, 1589.729
633.0060, 1609.443
634.1700, 1835.146
635.3330, 1964.840
636.4970, 2160.524
637.6600, 2257.199
638.8230, 2481.045
639.9860, 2693.699
641.1490, 2864.344
642.3110, 3260.978
643.4740, 3533.602
644.6360, 3884.215
645.7980, 4328.915
646.9600, 4837.508
648.1220, 5535.090
649.2840, 6494.661
650.4450, 7355.223
651.6060, 8581.774
652.7670, 10085.31
653.9280, 12072.84
655.0890, 14288.36
656.2500, 17209.87
657.4100, 20345.36
658.5700, 24332.85
659.7300, 27971.32
660.8900, 32543.66
662.0500, 36595.56
663.2100, 40242.90
664.3690, 42222.79
665.5280, 42685.69
666.6880, 40804.54
667.8460, 37526.11
669.0050, 32973.99
670.1640, 27784.36
671.3220, 23113.30
672.4810, 18793.11
673.6390, 15242.44
674.7970, 12512.37
675.9540, 10187.68
677.1120, 8573.213
678.2690, 7017.601
679.4270, 5979.577
680.5840, 5117.838
681.7410, 4237.085
682.8980, 3698.321
684.0540, 3284.544
685.2110, 2795.753
686.3670, 2444.950
687.5230, 2243.134
688.6790, 1955.306
689.8350, 1667.465
690.9900, 1482.684
692.1460, 1450.818
693.3010, 1303.938
694.4560, 1194.195
695.6110, 1017.291
696.7660, 934.3735
697.9210, 877.1001
699.0750, 790.5188
700.2290, 694.5637
701.3840, 652.0713
702.5370, 672.0977
703.6910, 573.3861
704.8450, 504.5098
705.9980, 482.5986
707.1520, 405.6145
708.3050, 385.6174
709.4580, 355.6184
710.6110, 321.6223
711.7630, 254.6136
712.9160, 201.6118
714.0680, 179.6042
715.2200, 180.6044
716.3720, 219.5981
717.5240, 154.5791
718.6760, 197.5474
719.8270, 86.51038
720.9780, 70.46069
722.1300, 62.40259
723.2810, 55.33655
724.4310, 41.25610
725.5820, 7.841553
726.7330, 0.9743650
727.8830, 13.13977
729.0330, 22.34375
730.1830, 36.40881
731.3330, 8.144043
732.4830, 15.14758
733.6320, 37.47839
734.7810, 10.14050
735.9310, 55.26624
737.0800, 36.73218
738.2290, 16.75269
739.3770, 13.78455
740.5260, 18.35828
741.6740, 41.97095
742.8220, 48.63452
743.9700, 6.352173
745.1180, 29.10132
746.2660, 18.10632
747.4130, 37.70520
748.5610, 8.563843
749.7080, 5.453613
750.8550, 18.37280
752.0020, 46.32764
753.1490, 47.33252
754.2950, 52.38745
755.4420, 47.49463
756.5880, 16.34875
757.7340, 9.824585
758.8800, 3.973633
760.0250, 37.75098
761.1710, 29.51709
762.3160, 55.21423
763.4620, 57.01538
764.6070, 69.74963
765.7520, 49.47424
766.8960, 17.18909
768.0410, 82.89160
769.1850, 43.58496
770.3300, 113.2690
771.4740, 84.94421
772.6180, 56.61060
773.7610, 32.26831
774.9050, 65.91736
776.0480, 10.55811
777.1920, 124.1882
778.3350, 42.81042
779.4780, 78.42468
780.6200, 87.03125
781.7630, 39.63049
782.9060, 7.222412
784.0480, 39.80579
785.1900, 43.38196
786.3320, 28.95154
787.4740, 47.51440
788.6150, 23.07080
789.7570, 45.62122
790.8980, 30.16541
792.0390, 14.70398
793.1800, 21.23682
794.3210, 16.76404
795.4620, 6.769165
796.6020, 24.80310
797.7420, 17.68481
798.8830, 11.18677
800.0230, 36.69910
801.1620, 30.23389
802.3020, 13.78723
803.4420, 31.35046
804.5810, 6.931885
805.7200, 16.51929
806.8590, 7.883545
807.9980, 53.71680
809.1370, 17.34399
810.2750, 15.02026
811.4140, 56.61816
812.5520, 7.717041
813.6900, 34.95020
814.8280, 5.632080
815.9650, 26.31763
817.1030, 40.98779
818.2400, 15.29150
819.3780, 54.59375
820.5150, 64.89502
821.6520, 57.19507
822.7880, 119.4944
823.9250, 101.7930
825.0610, 129.0911
826.1980, 110.3892
827.3340, 5.312744
828.4700, 47.98438
829.6050, 45.28149
830.7410, 10.42090
831.8760, 79.87573
833.0120, 7.173096
834.1470, 31.52856
835.2820, 21.23584
836.4160, 47.05444
837.5510, 54.65381
838.6860, 5.625488
839.8200, 18.09351
840.9540, 9.813721
842.0880, 6.533203
843.2220, 21.74854
844.3550, 21.03247
845.4890, 43.31909
846.6220, 114.6084
847.7550, 137.8574
848.8880, 185.1953
850.0210, 260.4932
851.1540, 273.7947
852.2860, 384.0991
853.4190, 441.4067
854.5510, 536.7183
855.6830, 544.0334
856.8150, 493.3528
857.9460, 484.6230
859.0780, 424.8252
860.2090, 431.9490
861.3410, 388.4524
862.4720, 381.5415
863.6020, 312.7002
864.7330, 321.1189
865.8640, 275.9844
866.9940, 219.8511
868.1240, 183.6482
869.2540, 266.0457
870.3840, 212.0701
871.5140, 197.0571
872.6440, 162.0269
873.7730, 158.1934
874.9020, 161.2605
876.0320, 131.2627
877.1600, 186.6892
878.2890, 191.6721
879.4180, 208.2764
880.5460, 192.5759
881.6750, 242.4900
882.8030, 213.2012
883.9310, 270.6641
885.0590, 223.0024
886.1860, 173.5830
887.3140, 160.4009
888.4410, 212.5137
889.5680, 257.6145
890.6950, 254.4509
891.8220, 263.6494
892.9490, 207.6995
894.0750, 228.3750
895.2020, 267.9714
896.3280, 224.5439
897.4540, 285.0510
898.5800, 246.7290
899.7050, 263.4260
900.8310, 280.1404
901.9560, 253.8752
903.0820, 317.3804
904.2070, 223.1709
905.3320, 358.9819
906.4560, 315.8113
907.5810, 319.6572
908.7050, 352.5271
909.8300, 262.4253
910.9540, 325.3457
912.0780, 314.1069
913.2010, 272.0769
914.3250, 336.0752
915.4480, 314.1050
916.5720, 345.1646
917.6950, 295.2537
918.8180, 285.2720
919.9410, 355.4102
921.0630, 334.5664
922.1860, 335.7505
923.3080, 373.9609
924.4300, 366.2034
925.5520, 318.4741
926.6740, 379.7776
927.7960, 312.1011
928.9170, 327.4517
930.0390, 339.8281
931.1600, 407.2485
932.2810, 381.6907
933.4020, 344.2905
934.5230, 323.3345
935.6430, 347.9509
936.7640, 382.0181
937.8840, 276.1218
939.0040, 353.2712
940.1240, 364.7305
941.2440, 329.8901
942.3630, 379.5718
943.4830, 396.7046
944.6020, 422.9780
945.7210, 394.7383
946.8400, 389.9229
947.9590, 415.7415
949.0770, 414.3445
950.1960, 457.1140
951.3140, 537.3093
952.4320, 536.2314
953.5500, 624.1758
954.6680, 670.1443
955.7860, 653.1396
956.9030, 694.1621
958.0210, 695.2258
959.1380, 752.3130
960.2550, 784.4272
961.3720, 759.5640
962.4890, 873.6511
963.6050, 883.8367
964.7220, 989.0449
965.8380, 968.1311
966.9540, 1018.389
968.0700, 1084.669
969.1860, 1152.316
970.3010, 1154.281
971.4170, 1295.631
972.5320, 1376.532
973.6470, 1406.928
974.7620, 1386.078
975.8770, 1524.403
976.9910, 1582.793
978.1060, 1654.282
979.2200, 1740.795
980.3340, 1847.331
981.4480, 2004.891
982.5620, 2186.475
983.6760, 2322.082
984.7890, 2368.712
985.9030, 2717.371
987.0160, 2829.053
988.1290, 3129.759
989.2420, 3454.487
990.3550, 3809.240
991.4670, 4090.014
992.5800, 4662.813
993.6920, 5203.637
994.8040, 5826.484
995.9160, 6735.356
997.0280, 7754.264
998.1390, 8699.204
999.2510, 10299.18
1000.362, 11879.20
1001.473, 14256.24
1002.584, 16868.31
1003.695, 20424.43
1004.805, 24549.57
1005.916, 29747.75
1007.026, 35430.98
1008.136, 42261.24
1009.246, 49103.55
1010.356, 55260.88
1011.466, 60149.25
1012.576, 62092.66
1013.685, 60840.12
1014.794, 56055.61
1015.903, 48120.14
1017.012, 39694.69
1018.121, 31864.29
1019.229, 25337.91
1020.338, 20147.57
1021.446, 16609.27
1022.554, 13642.00
1023.662, 11617.78
1024.770, 10044.60
1025.878, 8766.458
1026.985, 7941.348
1028.092, 7069.746
1029.200, 6607.691
1030.307, 6090.659
1031.413, 5776.705
1032.520, 5655.472
1033.627, 5555.714
1034.733, 5422.667
1035.839, 5355.060
1036.945, 5669.027
1038.051, 5653.927
1039.157, 5798.410
1040.262, 5834.570
1041.368, 5915.197
1042.473, 5912.964
1043.578, 5723.174
1044.683, 5452.646
1045.788, 5169.811
1046.893, 4711.502
1047.997, 4368.958
1049.101, 3950.864
1050.205, 3414.847
1051.309, 3024.093
1052.413, 2829.227
1053.517, 2456.617
1054.621, 2224.165
1055.724, 1995.164
1056.827, 1914.687
1057.930, 1760.289
1059.033, 1733.789
1060.136, 1550.446
1061.238, 1482.606
1062.341, 1349.661
1063.443, 1261.879
1064.545, 1191.914
1065.647, 1149.790
1066.749, 1032.379
1067.850, 957.5588
1068.952, 962.7727
1070.053, 977.2700
1071.154, 854.7339
1072.255, 863.7334
1073.356, 826.8838
1074.457, 786.2698
1075.557, 792.1665
1076.658, 761.5645
1077.758, 719.9553
1078.858, 738.0198
1079.958, 723.9434
1081.057, 725.7642
1082.157, 744.1934
1083.256, 763.0332
1084.356, 735.9272
1085.455, 674.9004
1086.554, 691.2241
1087.653, 697.0555
1088.751, 744.0828
1089.850, 695.3323
1090.948, 655.5436
1092.046, 670.4724
1093.144, 683.4253
1094.242, 634.6523
1095.340, 681.2177
1096.437, 641.2407
1097.534, 618.8035
1098.632, 611.0344
1099.729, 588.0635
1100.826, 574.1846
1101.922, 590.9265
1103.019, 644.3796
1104.115, 622.4578
1105.212, 604.5999
1106.308, 598.6594
1107.404, 584.7275
1108.499, 599.8030
1109.595, 592.9556
1110.691, 587.8381
1111.786, 597.3871
1112.881, 562.7043
1113.976, 594.8447
1115.071, 557.9795
1116.166, 611.1460
1117.260, 537.3500
1118.355, 582.5857
1119.449, 606.7208
1120.543, 617.8607
1121.637, 604.0054
1122.731, 615.1547
1123.824, 634.3081
1124.918, 591.4657
1126.011, 590.6274
1127.104, 617.7930
1128.197, 621.9619
1129.290, 601.1345
1130.382, 580.3103
1131.475, 522.4888
1132.567, 490.6702
1133.659, 471.4760
1134.751, 447.6293
1135.843, 440.2283
1136.935, 433.4182
1138.027, 424.6097
1139.118, 427.8416
1140.209, 302.0354
1141.300, 369.2303
1142.391, 289.4259
1143.482, 300.6218
1144.573, 283.8176
1145.663, 268.0134
1146.754, 255.2089
1147.844, 226.4117
1148.934, 241.5978
1150.024, 173.7906
1151.113, 120.9824
1152.203, 104.1724
1153.292, 111.3608
1154.381, 32.54724
1155.470, 8.731201
1156.559, 40.91284
1157.648, 18.09143
1158.737, 17.73267
1159.825, 4.434570
1160.913, 38.59839
1162.001, 2.241577
1163.089, 22.08630
1164.177, 7.942749
1165.265, 23.80603
1166.352, 46.68286
1167.440, 54.56409
1168.527, 19.49731
1169.614, 9.443115
1170.701, 28.60181
1171.788, 28.35840
1172.874, 45.33801
1173.961, 19.34644
1175.047, 22.37061
1176.133, 32.26270
1177.219, 39.47852
1178.305, 50.57227
1179.390, 40.70056
1180.476, 40.85889
1181.561, 28.04761
1182.646, 9.260742
1183.731, 13.51123
1184.816, 29.72388
1185.901, 19.98547
1186.985, 43.26917
1188.070, 27.58752
1189.154, 40.92834
1190.238, 5.699219
1191.322, 17.68359
1192.406, 15.08960
1193.489, 80.51831
1194.573, 2.995728
1195.656, 25.50415
1196.739, 69.96655
1197.822, 3.428955
1198.905, 12.11267
1199.988, 15.67822
1201.070, 14.26965
1202.153, 21.88696
1203.235, 7.534302
1204.317, 5.795044
1205.399, 1.891846
1206.481, 18.59985
1207.562, 34.66272
1208.644, 2.084106
1209.725, 14.85327
1210.806, 43.34851
1211.887, 5.460083
1212.968, 11.29333
1214.049, 38.84473
1215.129, 31.97156
1216.209, 19.08679
1217.290, 8.186523
1218.370, 5.266479
1219.450, 45.67517
1220.529, 27.33459
1221.609, 9.330322
1222.688, 54.30530
1223.768, 30.26880
1224.847, 20.21814
1225.926, 48.15112
1227.005, 22.07190
1228.083, 34.97559
1229.162, 55.86511
1230.240, 44.74255
1231.318, 49.60828
1232.396, 52.08826
1233.474, 57.16162
1234.552, 51.12939
1235.629, 73.94409
1236.707, 75.74634
1237.784, 78.53625
1238.861, 57.31384
1239.938, 49.07812
1241.015, 56.82727
1242.092, 46.56494
1243.168, 68.28699
1244.244, 71.99585
1245.321, 66.69165
1246.397, 19.37427
1247.473, 60.03430
1248.548, 99.68042
1249.624, 136.3132
1250.699, 98.93311
1251.775, 91.53979
1252.850, 92.13342
1253.925, 127.7139
1254.999, 145.2812
1256.074, 121.8352
1257.148, 134.3759
1258.223, 153.9031
1259.297, 135.4166
1260.371, 171.9166
1261.445, 125.4064
1262.519, 138.8823
1263.592, 172.3445
1264.666, 105.7930
1265.739, 173.2274
1266.812, 134.6482
1267.885, 86.05518
1268.958, 182.4480
1270.030, 169.8273
1271.103, 117.1924
1272.175, 162.5436
1273.247, 132.8806
1274.319, 129.2035
1275.391, 130.5125
1276.463, 117.8070
1277.535, 112.6604
1278.606, 114.6589
1279.677, 103.6060
1280.748, 123.8439
1281.819, 143.0676
1282.890, 160.2771
1283.961, 149.4723
1285.031, 170.6531
1286.102, 181.8204
1287.172, 178.5195
1288.242, 128.6321
1289.312, 160.7567
1290.381, 162.8671
1291.451, 114.9076
1292.520, 133.2356
1293.590, 116.1339
1294.659, 151.2899
1295.728, 100.0291
1296.797, 168.2052
1297.865, 139.4877
1298.934, 162.1421
1300.002, 106.1265
1301.070, 109.6512
1302.138, 103.0425
1303.206, 112.9977
1304.274, 120.7478
1305.341, 113.7848
1306.409, 135.2794
1307.476, 118.0232
1308.543, 135.3143
1309.610, 143.5370
1310.677, 157.5031
1311.744, 175.5884
1312.810, 129.4220
1313.877, 100.1635
1314.943, 136.3962
1316.009, 170.1802
1317.075, 175.9221
1318.140, 176.3120
1319.206, 165.9924
1320.272, 179.1494
1321.337, 170.3564
1322.402, 179.4042
1323.467, 165.6406
1324.532, 124.0399
1325.596, 177.7781
1326.661, 221.4880
1327.725, 172.5800
1328.790, 160.3998
1329.854, 158.2605
1330.918, 157.5967
1331.981, 152.7880
1333.045, 187.7512
1334.108, 198.2072
1335.172, 196.7130
1336.235, 210.4532
1337.298, 196.7676
1338.361, 176.3016
1339.423, 205.8787
1340.486, 210.9291
1341.548, 157.5007
1342.611, 113.0245
1343.673, 166.4727
1344.735, 121.5725
1345.796, 118.1899
1346.858, 160.5922
1347.919, 151.8098
1348.981, 139.0327
1350.042, 94.54041
1351.103, 115.0353
1352.164, 138.2488
1353.225, 159.3313
1354.285, 113.7529
1355.346, 108.6368
1356.406, 126.8894
1357.466, 88.31091
1358.526, 156.9641
1359.586, 107.3219
1360.645, 102.7097
1361.705, 91.09253
1362.764, 112.4194
1363.823, 71.84094
1364.882, 59.24585
1365.941, 94.65198
1367.000, 144.9752
1368.059, 125.2051
1369.117, 150.5085
1370.175, 67.66809
1371.233, 118.0051
1372.291, 71.37634
1373.349, 102.6937
1374.407, 106.9678
1375.464, 93.21033
1376.522, 81.55383
1377.579, 94.06372
1378.636, 68.23853
1379.693, 112.5808
1380.750, 124.8871
1381.806, 130.2589
1382.863, 94.55640
1383.919, 118.9154
1384.975, 131.1785
1386.031, 50.43689
1387.087, 92.69092
1388.143, 95.75012
1389.199, 105.9919
1390.254, 94.22888
1391.309, 78.46069
1392.364, 93.68811
1393.419, 68.94800
1394.474, 83.20264
1395.529, 91.40906
1396.583, 122.6639
1397.638, 113.9333
1398.692, 86.08740
1399.746, 96.28064
1400.800, 69.46729
1401.853, 39.65002
1402.907, 65.82874
1403.960, 61.00378
1405.014, 77.17468
1406.067, 88.34192
1407.120, 69.50500
1408.173, 81.66418
1409.225, 54.81946
1410.278, 36.97083
1411.330, 51.11780
1412.383, 67.40027
1413.435, 66.57520
1414.487, 64.69617
1415.538, 48.85913
1416.590, 61.98608
1417.641, 76.10071
1418.693, 44.25256
1419.744, 24.36462
1420.795, 67.47595
1421.846, 29.59009
1422.897, 28.69165
1423.947, 20.82605
1424.998, 54.96277
1426.048, 78.15295
1427.098, 66.28271
1428.148, 56.45923
1429.198, 57.60596
1430.247, 19.75623
1431.297, 25.91382
1432.346, 50.08167
1433.396, 29.25879
1434.445, 73.44971
1435.494, 61.33337
1436.542, 68.55713
1437.591, 32.80469
1438.639, 70.86060
1439.688, 16.64050
1440.736, 38.77344
1441.784, 13.93286
1442.832, 18.89294
1443.880, 11.70679
1444.927, 9.529175
1445.975, 15.77930
1447.022, 48.01001
1448.069, 101.2659
1449.116, 45.55127
1450.163, 43.84924
1451.209, 19.16577
1452.256, 43.50183
1453.302, 35.84229
1454.348, 61.20862
1455.394, 39.57361
1456.440, 53.95203
1457.486, 57.37732
1458.532, 28.81189
1459.577, 41.24902
1460.623, 0.6899410
1461.668, 0.1346440
1462.713, 46.57593
1463.758, 14.01697
1464.802, 43.45776
1465.847, 11.89758
1466.891, 50.33801
1467.936, 35.78125
1468.980, 72.22620
1470.024, 47.67810
1471.067, 24.13831
1472.111, 35.59937
1473.155, 21.06152
1474.198, 31.52515
1475.241, 65.99023
1476.284, 27.45850
1477.327, 61.92017
1478.370, 2.614380
1479.413, 45.85498
1480.455, 65.32837
1481.497, 21.80640
1482.540, 74.28967
1483.582, 6.221069
1484.624, 56.27490
1485.665, 24.77783
1486.707, 84.28833
1487.748, 69.80688
1488.790, 28.33313
1489.831, 57.86743
1490.872, 29.41125
1491.912, 62.96545
1492.953, 41.46008
1493.994, 28.97253
1495.034, 58.46704
1496.074, 71.06372
1497.114, 25.67175
1498.154, 31.15027
1499.194, 50.76282
1500.234, 58.39941
1501.273, 50.04138
1502.313, 30.57812
1503.352, 33.71497
1504.391, 24.17834
1505.430, 33.51099
1506.468, 15.15710
1507.507, 43.81409
1508.545, 5.586060
1509.584, 64.15039
1510.622, 32.71948
1511.660, 77.28979
1512.698, 16.47949
1513.735, 52.72192
1514.773, 41.12646
1515.810, 37.50256
1516.848, 49.06201
1517.885, 20.56396
1518.922, 21.02747
1519.958, 22.58618
1520.995, 19.54761
1522.032, 28.45288
1523.068, 27.51355
1524.104, 29.78137
1525.140, 37.48877
1526.176, 35.99353
1527.212, 37.45630
1528.248, 41.92041
1529.283, 54.36145
1530.318, 72.83435
1531.353, 56.16528
1532.389, 69.60718
1533.423, 55.97925
1534.458, 35.32214
1535.493, 35.54675
1536.527, 5.750000
1537.561, 26.46069
1538.596, 40.22522
1539.630, 22.81030
1540.663, 31.40027
1541.697, 36.58252
1542.731, 24.70752
1543.764, 58.15063
1544.797, 87.75317
1545.830, 77.29175
1546.863, 45.00061
1547.896, 62.63855
1548.929, 55.29431
1549.961, 26.98193
1550.994, 93.03772
1552.026, 31.52490
1553.058, 151.3695
1554.090, 108.9041
1555.121, 75.96619
1556.153, 85.09790
1557.185, 59.35034
1558.216, 72.92395
1559.247, 1.560059
1560.278, 94.10828
1561.309, 59.37244
1562.340, 23.31360
1563.370, 0.0000000E+00
##END=



