##NAMES=Diopside
##RRUFFID=R070123
##IDEAL CHEMISTRY=CaMgSi_2_O_6_
##LOCALITY=Yates mine, Otter Lake, Huddersfield Township, Pontiac County, Québec, Canada
##OWNER=RRUFF
##SOURCE=Michael Scott
##DESCRIPTION=Black prismatic crystals associated with orange calcite
##STATUS=The identification of this mineral has been confirmed by X-ray diffraction and chemical analysis
##URL=rruff.info/R070123
##MEASURED CHEMISTRY=(Ca_0.95_Na_0.04_Mn_0.01_)_Σ=1_(Mg_0.63_Fe_0.33_Al_0.04_)_Σ=1_Si_2.00_O_6_
##PIN_ID=M00826
##ORIENTATION=Laser parallel to a* (1 0 0). Fiducial mark perpendicular to laser is parallel to -b [0 -1 0]
117.2950, 0.0000000E+00
118.5340, 89.50928
119.7720, 59.67334
121.0100, 73.85889
122.2470, 7.091309
123.4850, 185.5015
124.7220, 107.8125
125.9590, 163.7295
127.1960, 299.0415
128.4330, 197.6675
129.6700, 374.5015
130.9060, 431.4424
132.1430, 540.3970
133.3790, 586.9326
134.6150, 683.9990
135.8500, 753.9302
137.0860, 661.6460
138.3210, 772.0728
139.5560, 651.1455
140.7910, 489.8125
142.0260, 328.0386
143.2610, 207.7861
144.4950, 162.0210
145.7290, 44.71240
146.9630, 20.83057
148.1970, 17.65234
149.4310, 53.76074
150.6640, 82.48145
151.8980, 163.0527
153.1310, 165.9336
154.3640, 242.1055
155.5970, 179.5430
156.8290, 131.2217
158.0620, 261.1216
159.2940, 305.2246
160.5260, 411.5244
161.7580, 444.0283
162.9890, 423.7480
164.2210, 408.6963
165.4520, 375.8691
166.6830, 331.2520
167.9140, 203.8306
169.1450, 226.5928
170.3760, 184.5264
171.6060, 215.6211
172.8360, 246.6562
174.0660, 256.2607
175.2960, 316.7891
176.5260, 329.7344
177.7550, 447.2314
178.9840, 376.1338
180.2130, 293.1479
181.4420, 299.2695
182.6710, 111.4937
183.9000, 124.8145
185.1280, 107.2280
186.3560, 151.7314
187.5840, 185.3193
188.8120, 103.9888
190.0400, 116.7358
191.2670, 121.5356
192.4950, 125.3188
193.7220, 163.1279
194.9490, 194.8477
196.1750, 242.6182
197.4020, 245.4058
198.6280, 285.5283
199.8540, 232.0454
201.0800, 368.9053
202.3060, 468.8262
203.5320, 463.9688
204.7570, 269.3330
205.9830, 312.9434
207.2080, 292.8052
208.4330, 375.9463
209.6570, 329.3628
210.8820, 292.9502
212.1060, 460.6069
213.3310, 497.2676
214.5550, 514.9341
215.7780, 587.6050
217.0020, 657.2822
218.2260, 705.9663
219.4490, 664.6577
220.6720, 754.3574
221.8950, 713.0659
223.1180, 863.7837
224.3400, 870.5112
225.5630, 873.2490
226.7850, 968.0000
228.0070, 1052.767
229.2290, 1059.549
230.4500, 1060.346
231.6720, 1145.155
232.8930, 1087.976
234.1140, 1153.816
235.3350, 1017.686
236.5560, 868.5723
237.7770, 682.4697
238.9970, 734.3779
240.2170, 762.2964
241.4370, 698.2246
242.6570, 678.1626
243.8770, 774.1099
245.0960, 703.0664
246.3160, 602.0308
247.5350, 732.0049
248.7540, 654.9873
249.9730, 684.9780
251.1910, 651.9766
252.4100, 739.9824
253.6280, 728.9956
254.8460, 591.0156
256.0640, 606.0430
257.2810, 539.0762
258.4990, 612.1157
259.7160, 555.5713
260.9330, 650.2124
262.1500, 497.2686
263.3670, 376.3301
264.5840, 344.0801
265.8000, 311.8081
267.0170, 269.4888
268.2330, 326.3467
269.4490, 260.6602
270.6640, 268.2578
271.8800, 219.0815
273.0950, 232.4619
274.3100, 201.9424
275.5260, 151.5176
276.7400, 287.1816
277.9550, 163.9287
279.1690, 309.7549
280.3840, 241.6094
281.5980, 344.5376
282.8120, 367.5352
284.0260, 452.5981
285.2390, 561.1436
286.4530, 653.6313
287.6660, 767.0366
288.8790, 911.9219
290.0920, 1040.812
291.3040, 1218.244
292.5170, 1373.267
293.7290, 1555.429
294.9410, 1737.452
296.1530, 1919.022
297.3650, 2125.914
298.5770, 2325.611
299.7880, 2541.048
301.0000, 2672.503
302.2110, 2951.594
303.4220, 3419.401
304.6320, 3794.592
305.8430, 4289.577
307.0530, 4760.412
308.2630, 5398.375
309.4730, 6270.259
310.6830, 6958.209
311.8930, 8010.137
313.1030, 9188.087
314.3120, 10091.05
315.5210, 11206.04
316.7300, 12209.05
317.9390, 13217.07
319.1470, 13691.11
320.3560, 13989.17
321.5640, 13956.25
322.7720, 13797.33
323.9800, 13050.44
325.1880, 12259.56
326.3950, 10864.70
327.6030, 10048.84
328.8100, 8934.005
330.0170, 8042.181
331.2240, 7305.371
332.4300, 6672.608
333.6370, 6138.855
334.8430, 5623.282
336.0490, 5388.671
337.2550, 5172.122
338.4610, 4932.610
339.6660, 4978.057
340.8720, 4868.520
342.0770, 4937.891
343.2820, 5076.189
344.4870, 5303.541
345.6920, 5381.858
346.8960, 5848.212
348.1010, 6177.634
349.3050, 6524.164
350.5090, 6608.978
351.7130, 6826.998
352.9160, 6873.301
354.1200, 6883.975
355.3230, 6781.343
356.5260, 6503.710
357.7290, 6221.079
358.9320, 5767.448
360.1350, 5496.818
361.3370, 5179.187
362.5390, 5107.558
363.7410, 4928.925
364.9430, 4905.296
366.1450, 4825.665
367.3470, 4897.032
368.5480, 5020.400
369.7490, 5162.768
370.9500, 5517.135
372.1510, 5903.499
373.3520, 6644.863
374.5520, 7273.226
375.7530, 8268.590
376.9530, 9497.947
378.1530, 10827.31
379.3520, 12430.66
380.5520, 14123.01
381.7510, 15476.36
382.9510, 17016.71
384.1500, 18304.05
385.3490, 19428.39
386.5480, 19636.73
387.7460, 19633.06
388.9440, 18591.40
390.1430, 17029.73
391.3410, 15005.05
392.5390, 12699.37
393.7360, 10412.68
394.9340, 8400.997
396.1310, 6825.303
397.3280, 5518.604
398.5250, 4434.901
399.7220, 3654.195
400.9190, 2933.481
402.1150, 2378.764
403.3120, 1969.041
404.5080, 1738.312
405.7040, 1439.578
406.8990, 1156.838
408.0950, 993.0918
409.2900, 885.3511
410.4860, 750.6152
411.6810, 712.8848
412.8760, 576.1582
414.0700, 571.4385
415.2650, 415.7212
416.4590, 467.0059
417.6540, 401.2920
418.8480, 305.5781
420.0420, 193.8652
421.2350, 263.1514
422.4290, 217.4370
423.6220, 169.7212
424.8150, 158.0029
426.0080, 69.28271
427.2010, 67.56006
428.3940, 9.833984
429.5860, 19.90234
430.7790, 80.66553
431.9710, 147.4878
433.1630, 40.40479
434.3540, 108.3589
435.5460, 116.3882
436.7370, 58.49365
437.9290, 128.6470
439.1200, 134.8843
440.3110, 157.1875
441.5010, 73.33887
442.6920, 163.7788
443.8820, 115.2988
445.0730, 44.88721
446.2630, 71.32617
447.4530, 3.041504
448.6420, 40.66455
449.8320, 165.2832
451.0210, 60.81006
452.2100, 123.4937
453.3990, 77.88379
454.5880, 117.3062
455.7770, 184.9043
456.9660, 128.3716
458.1540, 144.8818
459.3420, 210.4434
460.5300, 202.0386
461.7180, 266.6592
462.9050, 196.3154
464.0930, 235.9844
465.2800, 157.6748
466.4670, 193.4038
467.6540, 149.1426
468.8410, 160.9370
470.0280, 218.7466
471.2140, 157.5293
472.4000, 159.6079
473.5870, 158.9185
474.7720, 109.6016
475.9580, 111.6099
477.1440, 73.30225
478.3290, 86.06006
479.5140, 76.42188
480.6990, 72.66943
481.8840, 85.25635
483.0690, 85.95850
484.2540, 111.6436
485.4380, 136.3115
486.6220, 124.9634
487.8060, 180.5991
488.9900, 132.2183
490.1740, 119.8213
491.3570, 34.40674
492.5410, 64.65918
493.7240, 54.91992
494.9070, 130.0068
496.0900, 105.4985
497.2720, 185.9712
498.4550, 246.4253
499.6370, 229.8613
500.8190, 220.2788
502.0010, 316.6782
503.1830, 410.0586
504.3650, 377.4199
505.5460, 563.7622
506.7280, 583.0854
507.9090, 641.3896
509.0900, 755.6733
510.2710, 760.9385
511.4510, 804.1826
512.6320, 845.4077
513.8120, 942.6123
514.9920, 1014.796
516.1720, 1103.959
517.3520, 1191.103
518.5310, 1257.225
519.7110, 1360.326
520.8900, 1407.406
522.0690, 1570.465
523.2480, 1766.502
524.4270, 1777.518
525.6050, 1886.511
526.7840, 2003.483
527.9620, 1958.433
529.1400, 1887.361
530.3180, 1824.266
531.4960, 1731.148
532.6730, 1514.008
533.8510, 1463.845
535.0280, 1334.659
536.2050, 1287.451
537.3820, 1197.085
538.5590, 1116.963
539.7350, 1036.684
540.9120, 1020.381
542.0880, 951.0547
543.2640, 1049.704
544.4400, 905.3301
545.6150, 1023.932
546.7910, 988.5088
547.9660, 1065.062
549.1410, 1076.589
550.3170, 1190.092
551.4910, 1281.571
552.6660, 1244.025
553.8410, 1356.452
555.0150, 1503.855
556.1890, 1458.233
557.3630, 1486.584
558.5370, 1436.910
559.7110, 1361.209
560.8840, 1243.482
562.0570, 1125.729
563.2310, 1036.949
564.4040, 984.1426
565.5760, 853.3096
566.7490, 847.4497
567.9220, 801.5625
569.0940, 676.6475
570.2660, 688.2852
571.4380, 727.0122
572.6100, 685.8496
573.7820, 630.3999
574.9530, 409.4214
576.1240, 429.4683
577.2960, 408.7974
578.4670, 227.4199
579.6370, 244.6787
580.8080, 220.4878
581.9790, 108.1499
583.1490, 169.1646
584.3190, 214.5957
585.4890, 168.0786
586.6590, 116.2061
587.8280, 145.3442
588.9980, 83.62158
590.1670, 104.5278
591.3360, 131.9678
592.5050, 98.87402
593.6740, 229.8682
594.8430, 216.2007
596.0110, 151.2617
597.1790, 228.9136
598.3480, 215.4736
599.5160, 254.5420
600.6830, 291.1650
601.8510, 312.4722
603.0180, 345.6997
604.1860, 322.5044
605.3530, 288.1694
606.5200, 358.9565
607.6870, 356.0762
608.8530, 270.2534
610.0200, 267.4023
611.1860, 276.1108
612.3520, 212.5757
613.5180, 179.2261
614.6840, 307.6069
615.8500, 268.8867
617.0150, 342.3125
618.1800, 397.3154
619.3450, 480.1768
620.5100, 491.3618
621.6750, 551.8691
622.8400, 643.6602
624.0040, 794.1426
625.1690, 917.6885
626.3330, 882.2822
627.4970, 922.7974
628.6610, 901.3604
629.8240, 883.8188
630.9880, 890.1821
632.1510, 870.4097
633.3140, 881.3242
634.4770, 897.0005
635.6400, 1043.234
636.8020, 1101.322
637.9650, 1060.554
639.1270, 1188.750
640.2890, 1428.909
641.4510, 1429.033
642.6130, 1674.119
643.7750, 1950.171
644.9360, 2013.187
646.0980, 2324.166
647.2590, 2601.108
648.4200, 2997.016
649.5810, 3418.887
650.7410, 3901.723
651.9020, 4519.522
653.0620, 5314.286
654.2220, 6628.015
655.3820, 7754.709
656.5420, 9291.364
657.7020, 11048.99
658.8610, 12825.57
660.0200, 14646.12
661.1800, 16865.64
662.3390, 18606.12
663.4970, 20015.56
664.6560, 20408.97
665.8150, 20097.34
666.9730, 19132.68
668.1310, 17329.99
669.2890, 15082.26
670.4470, 12969.49
671.6050, 10666.69
672.7620, 8912.852
673.9200, 7392.983
675.0770, 6090.078
676.2340, 5137.140
677.3910, 4229.167
678.5470, 3711.158
679.7040, 3018.117
680.8600, 2622.042
682.0160, 2294.933
683.1720, 1946.789
684.3280, 1703.612
685.4840, 1410.401
686.6390, 1335.157
687.7950, 1062.879
688.9500, 1037.569
690.1050, 824.2251
691.2600, 869.8481
692.4150, 684.4385
693.5690, 697.9961
694.7240, 560.5215
695.8780, 520.0137
697.0320, 489.4736
698.1860, 511.9023
699.3400, 455.2983
700.4930, 480.6616
701.6470, 472.9941
702.8000, 473.2949
703.9530, 461.5640
705.1060, 360.8018
706.2590, 431.0083
707.4110, 287.1836
708.5640, 234.3286
709.7160, 325.4458
710.8680, 259.5439
712.0200, 162.6396
713.1720, 86.74854
714.3230, 155.8389
715.4750, 59.93262
716.6260, 73.02490
717.7770, 65.10303
718.9280, 23.81543
720.0790, 2.236328
721.2300, 0.9648440
722.3800, 51.95654
723.5300, 5.983887
724.6810, 59.03418
725.8300, 29.67871
726.9800, 0.8994140
728.1300, 135.9644
729.2790, 15.52637
730.4290, 10.05127
731.5780, 11.20361
732.7270, 114.2812
733.8760, 62.88867
735.0240, 89.73877
736.1730, 153.5312
737.3210, 190.4556
738.4700, 130.5298
739.6180, 90.72266
740.7650, 139.0112
741.9130, 54.42090
743.0610, 85.90576
744.2080, 153.4814
745.3550, 49.18311
746.5020, 83.95508
747.6490, 5.850098
748.7960, 16.80859
749.9430, 62.78809
751.0890, 4.125488
752.2350, 65.74023
753.3810, 22.12158
754.5270, 8.856934
755.6730, 69.33789
756.8190, 40.39746
757.9640, 12.88916
759.1090, 104.7866
760.2540, 15.44287
761.3990, 112.0771
762.5440, 81.69238
763.6890, 116.2896
764.8330, 61.86621
765.9780, 47.42480
767.1220, 188.9644
768.2660, 168.4858
769.4100, 202.9907
770.5530, 152.4834
771.6970, 193.9619
772.8400, 178.4268
773.9830, 76.87549
775.1260, 176.3091
776.2690, 40.72705
777.4120, 53.12939
778.5540, 174.5166
779.6970, 142.8896
780.8390, 76.24805
781.9810, 90.59180
783.1230, 190.9229
784.2650, 44.24023
785.4060, 133.5449
786.5480, 99.83691
787.6890, 138.1162
788.8300, 149.3843
789.9710, 118.6406
791.1120, 125.8857
792.2520, 54.11963
793.3930, 170.3428
794.5330, 138.5571
795.6730, 185.7607
796.8130, 133.9551
797.9530, 148.1411
799.0930, 160.3188
800.2320, 155.4883
801.3710, 122.6504
802.5110, 114.8057
803.6500, 156.9546
804.7880, 50.09668
805.9270, 143.2334
807.0660, 145.3647
808.2040, 105.4912
809.3420, 113.6138
810.4800, 222.7324
811.6180, 176.8467
812.7560, 249.9585
813.8930, 211.0669
815.0310, 201.1729
816.1680, 274.2773
817.3050, 270.3789
818.4420, 330.2256
819.5790, 312.0146
820.7150, 441.6787
821.8520, 324.7778
822.9880, 358.8765
824.1240, 491.9756
825.2600, 427.0752
826.3960, 514.1758
827.5320, 429.2769
828.6670, 463.3804
829.8020, 445.4863
830.9380, 348.5938
832.0730, 370.7051
833.2080, 419.8179
834.3420, 393.9346
835.4770, 380.0552
836.6110, 392.1792
837.7450, 349.3071
838.8790, 361.4404
840.0130, 382.5781
841.1470, 481.7212
842.2810, 580.8701
843.4140, 677.0239
844.5470, 763.3301
845.6800, 839.3525
846.8130, 958.5264
847.9460, 1036.708
849.0790, 1193.743
850.2110, 1424.307
851.3440, 1566.346
852.4760, 1777.539
853.6080, 1847.014
854.7400, 1958.394
855.8710, 2011.778
857.0030, 1972.858
858.1340, 2044.800
859.2650, 1819.604
860.3960, 1871.355
861.5270, 1783.840
862.6580, 1685.614
863.7890, 1634.879
864.9190, 1606.734
866.0490, 1505.947
867.1790, 1516.121
868.3090, 1368.025
869.4390, 1291.536
870.5690, 1262.350
871.6980, 1198.562
872.8270, 1193.854
873.9570, 1250.917
875.0860, 1186.834
876.2140, 1123.347
877.3430, 1102.929
878.4720, 1221.924
879.6000, 1279.049
880.7280, 1210.042
881.8560, 1263.694
882.9840, 1142.278
884.1120, 1107.882
885.2390, 1308.921
886.3670, 1260.208
887.4940, 1244.303
888.6210, 1291.665
889.7480, 1242.104
890.8750, 1374.404
892.0020, 1420.967
893.1280, 1322.728
894.2540, 1436.111
895.3810, 1394.157
896.5070, 1372.975
897.6320, 1369.092
898.7580, 1252.261
899.8840, 1390.467
901.0090, 1312.721
902.1340, 1280.966
903.2590, 1158.287
904.3840, 1235.641
905.5090, 1188.026
906.6340, 1158.442
907.7580, 1098.893
908.8820, 1062.544
910.0060, 1100.890
911.1300, 981.4375
912.2540, 972.0229
913.3780, 941.6470
914.5010, 868.3125
915.6250, 849.0254
916.7480, 761.7866
917.8710, 662.6025
918.9940, 597.4526
920.1160, 626.3379
921.2390, 691.2588
922.3610, 701.2134
923.4840, 544.2046
924.6060, 485.2305
925.7280, 474.2920
926.8490, 431.1528
927.9710, 447.5415
929.0930, 465.7324
930.2140, 449.9819
931.3350, 499.2905
932.4560, 356.6689
933.5770, 432.1138
934.6980, 356.6230
935.8180, 344.1943
936.9380, 228.8252
938.0590, 180.5176
939.1790, 42.26758
940.2990, 149.0762
941.4180, 88.94580
942.5380, 133.8735
943.6570, 102.8579
944.7770, 110.9023
945.8960, 127.9893
947.0150, 136.1226
948.1340, 119.3135
949.2520, 190.5469
950.3710, 160.8242
951.4890, 280.1479
952.6070, 268.5103
953.7260, 457.9111
954.8430, 246.3511
955.9610, 474.8320
957.0790, 451.3516
958.1960, 513.9106
959.3130, 625.5078
960.4310, 602.1450
961.5480, 652.8213
962.6640, 680.5371
963.7810, 661.2920
964.8970, 726.2114
966.0140, 761.9199
967.1300, 817.7935
968.2460, 864.5645
969.3620, 910.4688
970.4780, 953.6509
971.5930, 991.6826
972.7090, 1029.754
973.8240, 1037.865
974.9390, 1009.017
976.0540, 1042.208
977.1690, 1082.438
978.2830, 1213.709
979.3980, 1240.020
980.5120, 1371.370
981.6260, 1461.760
982.7400, 1559.103
983.8540, 1679.528
984.9680, 1776.175
986.0820, 1909.729
987.1950, 2001.329
988.3080, 2122.972
989.4210, 2396.659
990.5340, 2644.408
991.6470, 2834.211
992.7600, 3260.071
993.8720, 3740.999
994.9850, 4449.983
996.0970, 5031.039
997.2090, 5856.141
998.3210, 7002.296
999.4320, 8244.541
1000.544, 9725.844
1001.655, 11645.21
1002.767, 13802.62
1003.878, 16420.12
1004.989, 19605.69
1006.100, 23508.33
1007.210, 27881.06
1008.321, 32402.90
1009.431, 37279.82
1010.541, 41226.82
1011.651, 44195.89
1012.761, 44229.05
1013.871, 42039.27
1014.980, 38122.57
1016.090, 32224.94
1017.199, 27000.38
1018.308, 21253.15
1019.417, 16986.16
1020.526, 13751.88
1021.635, 10864.03
1022.743, 9161.722
1023.852, 7755.695
1024.960, 6754.513
1026.068, 5861.084
1027.176, 5150.971
1028.283, 4754.684
1029.391, 4359.792
1030.498, 3985.795
1031.606, 3617.774
1032.713, 3563.798
1033.820, 3286.685
1034.927, 3193.070
1036.033, 2951.714
1037.140, 3083.924
1038.246, 2966.167
1039.353, 2943.443
1040.459, 2886.752
1041.564, 2653.094
1042.670, 2534.468
1043.776, 2382.875
1044.881, 2398.023
1045.987, 2255.388
1047.092, 2143.587
1048.197, 1940.852
1049.302, 1857.596
1050.406, 1732.612
1051.511, 1589.236
1052.615, 1510.931
1053.720, 1460.614
1054.824, 1321.328
1055.928, 1261.071
1057.031, 1138.843
1058.135, 1068.644
1059.238, 1055.915
1060.342, 1045.289
1061.445, 923.5811
1062.548, 829.3682
1063.651, 753.3877
1064.754, 731.9160
1065.856, 701.6523
1066.959, 774.9736
1068.061, 697.5688
1069.163, 819.6958
1070.265, 616.2856
1071.367, 677.8394
1072.469, 665.6694
1073.570, 732.0410
1074.671, 741.6948
1075.773, 729.0703
1076.874, 819.1729
1077.975, 797.5078
1079.075, 799.3174
1080.176, 771.6562
1081.276, 917.9780
1082.377, 816.2549
1083.477, 894.1807
1084.577, 802.5347
1085.677, 767.9058
1086.777, 814.2944
1087.876, 773.9253
1088.975, 725.3765
1090.075, 723.8159
1091.174, 698.6509
1092.273, 669.9268
1093.372, 647.2319
1094.470, 608.7358
1095.569, 502.2549
1096.667, 441.7896
1097.765, 496.3384
1098.863, 553.9023
1099.961, 496.4805
1101.059, 464.0737
1102.157, 484.6802
1103.254, 479.2998
1104.351, 538.9336
1105.449, 538.5811
1106.546, 541.2407
1107.642, 579.9136
1108.739, 519.5986
1109.836, 546.3594
1110.932, 523.0049
1112.028, 542.7266
1113.124, 496.4590
1114.220, 480.2026
1115.316, 577.9570
1116.412, 537.7227
1117.507, 519.4985
1118.603, 570.2842
1119.698, 554.0811
1120.793, 481.8867
1121.888, 492.7031
1122.983, 496.5283
1124.077, 539.3628
1125.172, 530.2056
1126.266, 442.0571
1127.360, 583.9170
1128.454, 496.7842
1129.548, 562.6592
1130.642, 442.5415
1131.735, 359.4302
1132.829, 498.3257
1133.922, 363.2266
1135.015, 383.1338
1136.108, 339.0459
1137.201, 326.9629
1138.294, 255.8848
1139.386, 249.8101
1140.478, 232.7393
1141.571, 87.67090
1142.663, 118.6060
1143.755, 120.5430
1144.846, 33.48193
1145.938, 77.42285
1147.030, 31.36377
1148.121, 39.30566
1149.212, 11.75195
1150.303, 80.81396
1151.394, 3.907715
1152.485, 41.00537
1153.575, 86.11768
1154.666, 71.26855
1155.756, 66.45166
1156.846, 77.66406
1157.936, 15.08643
1159.026, 93.16504
1160.116, 45.46289
1161.205, 48.21582
1162.295, 92.10889
1163.384, 19.48096
1164.473, 69.86719
1165.562, 2.291992
1166.651, 6.724121
1167.739, 43.83154
1168.828, 54.38379
1169.916, 54.28516
1171.005, 68.47314
1172.093, 43.01025
1173.181, 46.54199
1174.268, 30.06836
1175.356, 4.411621
1176.443, 6.763672
1177.531, 20.41699
1178.618, 36.95166
1179.705, 43.51855
1180.792, 63.12158
1181.879, 42.22803
1182.965, 19.57080
1184.052, 32.90479
1185.138, 37.23047
1186.224, 27.54883
1187.310, 53.85791
1188.396, 38.89404
1189.482, 4.549805
1190.567, 13.71924
1191.653, 19.02637
1192.738, 57.80518
1193.823, 60.01123
1194.908, 98.52148
1195.993, 84.48291
1197.077, 76.51318
1198.162, 63.60938
1199.246, 54.85059
1200.331, 60.97461
1201.415, 43.24414
1202.499, 46.45996
1203.582, 53.93604
1204.666, 41.36523
1205.750, 35.84570
1206.833, 46.37451
1207.916, 17.04199
1208.999, 8.436523
1210.082, 31.19531
1211.165, 21.12402
1212.248, 23.42188
1213.330, 10.69873
1214.412, 121.9482
1215.495, 69.18701
1216.577, 93.41260
1217.658, 52.62744
1218.740, 66.82666
1219.822, 153.0132
1220.903, 136.1880
1221.985, 130.3506
1223.066, 189.5010
1224.147, 132.6396
1225.228, 206.7651
1226.308, 137.8784
1227.389, 151.9790
1228.469, 219.0674
1229.550, 144.1426
1230.630, 155.2051
1231.710, 170.2544
1232.790, 224.2915
1233.869, 314.3154
1234.949, 298.3262
1236.028, 339.8779
1237.108, 217.3086
1238.187, 342.2798
1239.266, 275.2378
1240.344, 240.1826
1241.423, 287.1143
1242.502, 297.0337
1243.580, 357.9395
1244.658, 303.8311
1245.736, 409.7109
1246.814, 342.5889
1247.892, 273.4712
1248.970, 345.3618
1250.047, 393.2490
1251.125, 330.1279
1252.202, 533.0088
1253.279, 433.8755
1254.356, 453.7285
1255.433, 462.5850
1256.509, 480.4390
1257.586, 530.2812
1258.662, 509.1084
1259.738, 680.9229
1260.814, 626.7241
1261.890, 726.5122
1262.966, 617.2866
1264.042, 686.0498
1265.117, 723.7998
1266.193, 767.5356
1267.268, 880.2578
1268.343, 904.9663
1269.418, 876.6611
1270.492, 965.3418
1271.567, 890.0088
1272.642, 976.6621
1273.716, 957.3018
1274.790, 870.9272
1275.864, 910.5391
1276.938, 933.1372
1278.012, 911.7217
1279.085, 843.0122
1280.159, 767.0977
1281.232, 765.5283
1282.305, 795.5459
1283.378, 766.0840
1284.451, 742.3608
1285.524, 658.8198
1286.597, 660.1450
1287.669, 597.0312
1288.741, 660.6958
1289.813, 643.9868
1290.885, 710.4019
1291.957, 672.8643
1293.029, 723.3027
1294.101, 776.8975
1295.172, 758.0151
1296.243, 767.8940
1297.315, 792.8960
1298.386, 828.5449
1299.456, 828.8496
1300.527, 874.1411
1301.598, 903.4170
1302.668, 877.6792
1303.738, 936.5518
1304.809, 956.8062
1305.879, 1015.777
1306.948, 1025.285
1308.018, 1075.746
1309.088, 1090.744
1310.157, 1112.487
1311.226, 1091.640
1312.296, 1093.739
1313.365, 1024.866
1314.433, 1085.978
1315.502, 1055.821
1316.571, 1095.167
1317.639, 1096.244
1318.707, 1114.867
1319.776, 1226.406
1320.844, 1102.043
1321.911, 1019.204
1322.979, 1044.151
1324.047, 1071.607
1325.114, 882.8740
1326.181, 852.5737
1327.249, 796.0181
1328.316, 713.9497
1329.382, 708.4355
1330.449, 653.9756
1331.516, 500.2568
1332.582, 423.0146
1333.648, 403.5083
1334.715, 377.2979
1335.781, 405.3765
1336.846, 404.2397
1337.912, 301.6450
1338.978, 375.5371
1340.043, 329.4634
1341.108, 374.4502
1342.174, 407.8037
1343.239, 282.7456
1344.303, 331.6855
1345.368, 335.6240
1346.433, 375.3359
1347.497, 349.0894
1348.561, 408.1724
1349.626, 259.1011
1350.690, 379.0273
1351.753, 289.9512
1352.817, 301.8730
1353.881, 337.7930
1354.944, 373.7109
1356.007, 343.2070
1357.071, 232.5415
1358.134, 260.4541
1359.196, 266.3652
1360.259, 183.2749
1361.322, 185.1841
1362.384, 196.0918
1363.447, 188.9980
1364.509, 154.9038
1365.571, 215.8096
1366.633, 313.7148
1367.694, 197.6196
1368.756, 261.7573
1369.817, 229.6631
1370.879, 364.5693
1371.940, 309.4756
1373.001, 317.6714
1374.062, 389.3418
1375.122, 335.4189
1376.183, 528.5845
1377.244, 512.7627
1378.304, 613.7051
1379.364, 491.3652
1380.424, 557.3291
1381.484, 547.3013
1382.544, 556.1348
1383.603, 521.6016
1384.663, 541.0044
1385.722, 466.9434
1386.781, 426.9541
1387.840, 489.2026
1388.899, 503.2324
1389.958, 420.3398
1391.017, 365.0146
1392.075, 339.9805
1393.134, 292.9746
1394.192, 328.9624
1395.250, 389.0698
1396.308, 234.0581
1397.365, 311.0527
1398.423, 372.0547
1399.481, 362.1455
1400.538, 409.1611
1401.595, 334.1841
1402.652, 367.2158
1403.709, 459.2554
1404.766, 404.3042
1405.823, 357.3579
1406.879, 478.4233
1407.936, 296.4644
1408.992, 368.3560
1410.048, 377.1992
1411.104, 376.9932
1412.160, 340.7271
1413.215, 340.4116
1414.271, 386.1035
1415.326, 237.7788
1416.382, 349.4453
1417.437, 329.1079
1418.492, 191.7520
1419.546, 323.3999
1420.601, 366.0308
1421.656, 251.6538
1422.710, 250.2510
1423.764, 217.8184
1424.819, 303.3486
1425.873, 234.8501
1426.926, 325.3286
1427.980, 246.7900
1429.034, 234.2334
1430.087, 476.6577
1431.140, 315.0635
1432.194, 438.4565
1433.247, 510.8408
1434.299, 517.2241
1435.352, 529.6133
1436.405, 630.0146
1437.457, 741.7476
1438.510, 814.1895
1439.562, 922.5859
1440.614, 1040.790
1441.666, 1060.587
1442.717, 1194.378
1443.769, 1267.179
1444.821, 1423.023
1445.872, 1523.965
1446.923, 1576.950
1447.974, 1656.839
1449.025, 1668.467
1450.076, 1757.829
1451.127, 1800.285
1452.177, 1890.822
1453.227, 1913.690
1454.278, 1836.047
1455.328, 1919.717
1456.378, 1850.397
1457.428, 1762.094
1458.477, 1806.801
1459.527, 1716.522
1460.576, 1684.256
1461.625, 1597.002
1462.675, 1546.763
1463.724, 1408.538
1464.772, 1316.327
1465.821, 1242.133
1466.870, 1154.954
1467.918, 1051.789
1468.966, 968.6401
1470.015, 904.0928
1471.063, 829.3345
1472.110, 797.0815
1473.158, 732.7954
1474.206, 696.5010
1475.253, 712.1587
1476.301, 683.8091
1477.348, 627.4688
1478.395, 637.1387
1479.442, 491.8125
1480.488, 483.4985
1481.535, 496.1963
1482.582, 530.9072
1483.628, 455.6309
1484.674, 428.3682
1485.720, 451.1196
1486.766, 336.8843
1487.812, 244.6655
1488.858, 233.4663
1489.903, 170.2925
1490.949, 235.1455
1491.994, 163.0264
1493.039, 204.9380
1494.084, 34.88037
1495.129, 165.8579
1496.173, 87.87305
1497.218, 119.9287
1498.262, 33.02734
1499.307, 28.82568
1500.351, 50.62988
1501.395, 67.34131
1502.439, 19.08789
1503.483, 1.263672
1504.526, 41.33301
1505.570, 83.12109
1506.613, 83.62158
1507.656, 41.83643
1508.699, 19.25830
1509.742, 33.35010
1510.785, 145.9883
1511.827, 87.65381
1512.870, 52.34717
1513.912, 89.06982
1514.955, 73.82178
1515.997, 27.60352
1517.039, 141.4155
1518.080, 110.2578
1519.122, 115.1353
1520.164, 90.05322
1521.205, 178.0176
1522.246, 174.0327
1523.288, 240.0991
1524.329, 109.2217
1525.369, 274.4023
1526.410, 192.6440
1527.451, 288.9487
1528.491, 247.3203
1529.531, 245.7607
1530.572, 315.4399
1531.612, 286.9976
1532.652, 394.0576
1533.691, 216.4717
1534.731, 307.2622
1535.770, 288.0039
1536.810, 189.7642
1537.849, 203.3599
1538.888, 191.4214
1539.927, 136.6362
1540.966, 147.8770
1542.005, 184.7910
1543.043, 174.5723
1544.082, 185.5078
1545.120, 251.2607
1546.158, 145.6953
1547.196, 139.1763
1548.234, 201.5386
1549.272, 136.9375
1550.309, 132.3130
1551.347, 85.95117
1552.384, 104.6484
1553.421, 83.24756
1554.458, 97.76074
1555.495, 172.1812
1556.532, 145.7925
1557.568, 47.18408
1558.605, 94.44775
1559.641, 40.20508
1560.678, 61.70898
1561.714, 2.596191
1562.750, 21.44043
1563.785, 2.542969
1564.821, 0.0000000E+00
##END=



