##NAMES=Diopside
##RRUFFID=R050666
##IDEAL CHEMISTRY=CaMgSi_2_O_6_
##LOCALITY=Franklin, Sussex County, New Jersey, USA
##OWNER=RRUFF
##SOURCE=University of Arizona Mineral Museum
##DESCRIPTION=Brown cleavage fragment with white hardystonite
##STATUS=The identification of this mineral has been confirmed by X-ray diffraction and chemical analysis
##URL=rruff.info/R050666
##MEASURED CHEMISTRY=Ca(Mg_0.66_Mn_0.33_Fe_0.01_)Si_2_O_6_
##PIN_ID=L00536
##ORIENTATION=Laser parallel to c* (0 0 1). Fiducial mark perpendicular to laser is parallel to -a [-1 0 0]
109.5120, 0.0000000E+00
110.7440, 5.284424
111.9760, 2.3925999E-02
113.2080, 101.9517
114.4400, 198.9607
115.6710, 300.6895
116.9030, 197.3079
118.1340, 153.7886
119.3650, 70.11938
120.5960, 5.409668
121.8270, 32.54102
123.0580, 41.49170
124.2880, 142.6687
125.5190, 200.5747
126.7490, 308.4106
127.9790, 474.8291
129.2090, 686.1567
130.4390, 835.7493
131.6680, 885.6929
132.8980, 941.7234
134.1270, 837.9507
135.3560, 676.5471
136.5850, 623.7915
137.8140, 515.3042
139.0430, 452.7361
140.2710, 295.1335
141.5000, 183.5076
142.7280, 10.13281
143.9560, 5.219971
145.1840, 29.42798
146.4120, 29.92822
147.6390, 61.69873
148.8670, 107.0681
150.0940, 210.8191
151.3210, 265.3213
152.5490, 405.3154
153.7750, 437.3254
155.0020, 476.2146
156.2290, 461.7549
157.4550, 463.1750
158.6810, 342.2771
159.9080, 235.3867
161.1340, 178.1606
162.3590, 124.6990
163.5850, 150.8896
164.8110, 148.0249
166.0360, 180.5979
167.2610, 227.8154
168.4860, 238.0806
169.7110, 323.3923
170.9360, 444.7488
172.1610, 535.1465
173.3850, 516.5833
174.6100, 493.0579
175.8340, 424.5686
177.0580, 388.1138
178.2820, 314.6926
179.5050, 282.3040
180.7290, 250.9463
181.9520, 236.6187
183.1760, 143.3572
184.3990, 160.1648
185.6220, 133.0056
186.8450, 50.87427
188.0670, 90.75366
189.2900, 60.61084
190.5120, 71.46558
191.7340, 52.33643
192.9560, 17.22144
194.1780, 35.12012
195.4000, 14.96606
196.6220, 36.96875
197.8430, 38.95752
199.0640, 24.01440
200.2860, 100.0654
201.5070, 136.0889
202.7270, 139.1172
203.9480, 41.15625
205.1690, 5.791992
206.3890, 16.72827
207.6090, 8.652100
208.8290, 32.56494
210.0490, 15.46826
211.2690, 27.63989
212.4890, 85.76001
213.7080, 44.89185
214.9280, 89.03589
216.1470, 75.19189
217.3660, 89.36035
218.5850, 140.5540
219.8030, 87.81860
221.0220, 52.13696
222.2400, 68.53052
223.4590, 94.47046
224.6770, 122.4551
225.8950, 216.9829
227.1120, 243.5217
228.3300, 313.0774
229.5480, 394.6436
230.7650, 422.2114
231.9820, 511.7705
233.1990, 483.3154
234.4160, 386.8611
235.6330, 318.4111
236.8490, 359.9680
238.0660, 335.5312
239.2820, 246.1006
240.4980, 306.6758
241.7140, 253.2578
242.9300, 281.8464
244.1460, 277.4419
245.3610, 308.0437
246.5770, 320.6516
247.7920, 330.2661
249.0070, 323.8867
250.2220, 361.0137
251.4370, 378.1465
252.6510, 419.7856
253.8660, 426.4309
255.0800, 435.0825
256.2940, 424.2615
257.5080, 581.5137
258.7220, 520.2505
259.9360, 705.2524
261.1490, 487.4702
262.3630, 360.3811
263.5760, 310.0015
264.7890, 328.4341
266.0020, 260.4849
267.2150, 262.2393
268.4270, 225.9814
269.6400, 209.8125
270.8520, 197.8616
272.0640, 170.7805
273.2760, 168.3816
274.4880, 203.8809
275.7000, 191.3691
276.9120, 214.4617
278.1230, 214.3833
279.3340, 259.9602
280.5450, 263.5894
281.7560, 312.1516
282.9670, 402.4556
284.1780, 386.0115
285.3880, 481.3567
286.5980, 603.3694
287.8090, 644.9292
289.0190, 674.6201
290.2290, 699.4324
291.4380, 868.4663
292.6480, 943.0435
293.8570, 1125.182
295.0670, 1256.523
296.2760, 1407.156
297.4850, 1681.788
298.6930, 1925.419
299.9020, 2138.052
301.1110, 2518.689
302.3190, 2900.337
303.5270, 3470.984
304.7350, 3992.623
305.9430, 4740.253
307.1510, 5453.889
308.3580, 6244.410
309.5660, 7218.059
310.7730, 7913.717
311.9800, 8910.391
313.1870, 9213.084
314.3940, 9341.787
315.6010, 9111.498
316.8070, 8517.219
318.0130, 7701.949
319.2200, 6786.690
320.4260, 5923.440
321.6310, 5241.199
322.8370, 4443.964
324.0430, 3971.757
325.2480, 3506.842
326.4540, 3226.957
327.6590, 3019.595
328.8640, 2790.307
330.0680, 2692.216
331.2730, 2598.272
332.4780, 2523.859
333.6820, 2595.335
334.8860, 2680.823
336.0900, 2813.741
337.2940, 3037.616
338.4980, 3284.628
339.7010, 3693.166
340.9050, 4140.334
342.1080, 4799.443
343.3110, 5450.176
344.5140, 6079.589
345.7170, 6736.230
346.9200, 6938.115
348.1220, 7228.005
349.3240, 6947.722
350.5270, 6358.125
351.7290, 5835.251
352.9310, 5222.614
354.1320, 4733.168
355.3340, 4091.369
356.5350, 3689.033
357.7370, 3302.949
358.9380, 3085.704
360.1390, 2848.634
361.3400, 2714.534
362.5400, 2610.472
363.7410, 2573.414
364.9410, 2546.359
366.1410, 2681.195
367.3410, 2815.105
368.5410, 3080.060
369.7410, 3638.015
370.9400, 4249.974
372.1400, 5024.936
373.3390, 6032.898
374.5380, 7154.864
375.7370, 8729.832
376.9360, 10358.80
378.1350, 12278.77
379.3330, 13855.75
380.5310, 14878.72
381.7300, 15226.70
382.9280, 14350.68
384.1260, 12922.66
385.3230, 10930.65
386.5210, 8953.636
387.7180, 7258.627
388.9160, 5909.621
390.1130, 4618.615
391.3100, 3837.613
392.5060, 2974.611
393.7030, 2391.613
394.9000, 1935.616
396.0960, 1521.623
397.2920, 1260.631
398.4880, 1067.641
399.6840, 870.6543
400.8800, 671.6509
402.0750, 531.6479
403.2710, 658.6479
404.4660, 524.6484
405.6610, 494.6494
406.8560, 386.6514
408.0510, 342.0996
409.2450, 326.6650
410.4400, 276.6785
411.6340, 271.7024
412.8280, 275.7329
414.0220, 177.7690
415.2160, 163.8088
416.4100, 138.8513
417.6030, 144.8965
418.7970, 150.9441
419.9900, 67.99512
421.1830, 80.04883
422.3760, 17.10547
423.5690, 7.164307
424.7610, 25.22437
425.9540, 14.71289
427.1460, 62.34473
428.3380, 82.59497
429.5300, 27.57422
430.7220, 26.43530
431.9140, 11.55298
433.1050, 10.46118
434.2970, 20.48096
435.4880, 10.48633
436.6790, 37.54541
437.8700, 88.58350
439.0610, 72.62451
440.2510, 140.6682
441.4420, 151.7705
442.6320, 222.9131
443.8220, 268.9751
445.0120, 349.1001
446.2020, 412.1177
447.3910, 466.2830
448.5810, 542.8613
449.7700, 590.9316
450.9600, 633.1313
452.1490, 612.2632
453.3370, 535.6421
454.5260, 479.7349
455.7150, 467.8152
456.9030, 345.0720
458.0910, 271.3235
459.2800, 206.5630
460.4670, 218.7119
461.6550, 196.4998
462.8430, 118.6284
464.0300, 79.76343
465.2180, 54.03076
466.4050, 35.15405
467.5920, 0.3002930
468.7790, 19.86011
469.9650, 44.49634
471.1520, 45.41382
472.3380, 32.35815
473.5250, 3.677979
474.7110, 64.28906
475.8970, 58.29077
477.0820, 28.32617
478.2680, 1.621094
479.4540, 34.43481
480.6390, 22.51172
481.8240, 45.60254
483.0090, 14.71973
484.1940, 3.845459
485.3780, 11.02319
486.5630, 10.10889
487.7470, 8.249756
488.9320, 81.60010
490.1160, 53.44800
491.3000, 29.29419
492.4830, 77.13916
493.6670, 211.9844
494.8500, 216.8320
496.0340, 295.6802
497.2170, 329.5327
498.4000, 462.3909
499.5820, 394.2480
500.7650, 473.1057
501.9480, 554.9688
503.1300, 534.8315
504.3120, 450.7078
505.4940, 480.5852
506.6760, 438.4607
507.8580, 356.3333
509.0390, 377.2046
510.2210, 310.0818
511.4020, 251.9585
512.5830, 319.8550
513.7640, 342.7522
514.9450, 374.6609
516.1250, 410.5771
517.3060, 504.4917
518.4860, 625.4224
519.6660, 753.3521
520.8460, 908.2820
522.0260, 937.2114
523.2060, 1061.151
524.3850, 1157.107
525.5650, 949.0620
526.7440, 948.0176
527.9230, 782.9695
529.1020, 771.9297
530.2810, 658.9146
531.4590, 539.9072
532.6380, 483.9124
533.8160, 432.9138
534.9940, 466.9209
536.1720, 467.9402
537.3500, 453.9802
538.5270, 505.0261
539.7050, 529.0725
540.8820, 592.1245
542.0590, 748.1807
543.2360, 808.2341
544.4130, 1073.283
545.5900, 1277.332
546.7660, 1600.377
547.9430, 2172.416
549.1190, 2645.462
550.2950, 3426.504
551.4710, 4185.540
552.6470, 4897.568
553.8220, 5077.598
554.9980, 4588.619
556.1730, 3878.635
557.3480, 3128.645
558.5230, 2386.649
559.6980, 1989.647
560.8730, 1531.638
562.0470, 1142.623
563.2220, 912.6011
564.3960, 807.5198
565.5700, 550.3894
566.7440, 515.3271
567.9170, 484.5225
569.0910, 371.4668
570.2640, 318.6243
571.4380, 323.1165
572.6110, 216.0234
573.7840, 223.3103
574.9570, 135.3142
576.1290, 148.2698
577.3020, 142.6865
578.4740, 96.02881
579.6460, 120.0750
580.8180, 61.13184
581.9900, 7.855469
583.1620, 34.16211
584.3330, 54.21045
585.5040, 40.46436
586.6760, 98.55054
587.8470, 45.31665
589.0180, 13.67529
590.1880, 102.2876
591.3590, 30.38354
592.5290, 51.31665
593.7000, 9.781982
594.8700, 85.22803
596.0400, 19.69604
597.2090, 30.25195
598.3790, 32.34302
599.5490, 38.68677
600.7180, 61.48999
601.8870, 3.141357
603.0560, 68.01123
604.2250, 66.74707
605.3940, 35.39136
606.5620, 102.1770
607.7300, 87.76953
608.8990, 91.22485
610.0670, 125.7576
611.2350, 149.5488
612.4020, 214.2771
613.5700, 198.7446
614.7370, 246.1338
615.9050, 265.7317
617.0720, 240.5112
618.2390, 306.1819
619.4060, 370.4453
620.5720, 414.6743
621.7390, 427.6191
622.9050, 465.1367
624.0710, 456.5029
625.2370, 580.4414
626.4030, 681.9553
627.5690, 601.5374
628.7340, 713.2087
629.9000, 868.6335
631.0650, 813.0488
632.2300, 922.4097
633.3950, 941.8054
634.5600, 1086.442
635.7240, 1101.818
636.8890, 1318.287
638.0530, 1355.570
639.2170, 1659.957
640.3810, 1869.804
641.5450, 2111.698
642.7080, 2466.383
643.8720, 2721.341
645.0350, 3096.348
646.1980, 3869.764
647.3610, 4596.121
648.5240, 5535.571
649.6870, 6801.645
650.8490, 8336.983
652.0120, 9952.769
653.1740, 12252.72
654.3360, 14689.32
655.4980, 17356.85
656.6600, 20001.31
657.8210, 22083.87
658.9830, 23235.38
660.1440, 23333.32
661.3050, 21937.96
662.4660, 19939.26
663.6270, 17200.94
664.7870, 14747.38
665.9480, 12185.33
667.1080, 10171.57
668.2680, 8256.254
669.4280, 6811.036
670.5880, 5557.760
671.7480, 4694.449
672.9070, 3938.602
674.0670, 3346.770
675.2260, 2804.533
676.3850, 2381.937
677.5440, 2141.580
678.7030, 1813.479
679.8610, 1559.727
681.0200, 1495.503
682.1780, 1290.730
683.3360, 1119.639
684.4940, 1083.699
685.6520, 945.5269
686.8090, 855.3633
687.9670, 760.7839
689.1240, 734.6121
690.2810, 612.4448
691.4380, 596.2405
692.5950, 546.5984
693.7520, 635.3130
694.9080, 554.0112
696.0650, 511.6934
697.2210, 481.3591
698.3770, 454.0088
699.5330, 416.6418
700.6880, 343.2593
701.8440, 344.8599
702.9990, 349.4446
704.1550, 251.0129
705.3100, 256.5659
706.4650, 237.1025
707.6190, 180.6270
708.7740, 233.1350
709.9290, 144.6477
711.0830, 148.1511
712.2370, 126.6382
713.3910, 66.11255
714.5450, 85.56958
715.6980, 81.00977
716.8520, 36.43579
718.0050, 67.84180
719.1580, 63.23022
720.3110, 71.60107
721.4640, 64.89844
722.6170, 55.14038
723.7700, 35.44751
724.9220, 44.67505
726.0740, 2.044189
727.2260, 55.14282
728.3780, 58.86255
729.5300, 38.07495
730.6810, 6.857178
731.8330, 21.25439
732.9840, 21.10059
734.1350, 35.21533
735.2860, 9.674072
736.4370, 30.23584
737.5880, 0.8664550
738.7380, 23.02173
739.8880, 21.98267
741.0390, 41.28735
742.1890, 70.23511
743.3380, 89.16113
744.4880, 51.93945
745.6380, 95.84644
746.7870, 52.73828
747.9360, 31.61646
749.0850, 76.48340
750.2340, 72.34790
751.3830, 86.20996
752.5310, 114.0671
753.6800, 43.91089
754.8280, 96.75684
755.9760, 78.60474
757.1240, 123.4470
758.2720, 146.2764
759.4190, 182.1021
760.5670, 77.92065
761.7140, 83.73853
762.8610, 115.5479
764.0080, 35.34619
765.1550, 122.1301
766.3020, 193.9041
767.4480, 111.6682
768.5950, 128.4192
769.7410, 75.15674
770.8870, 121.8811
772.0330, 21.59204
773.1780, 117.2874
774.3240, 49.96924
775.4690, 1.637451
776.6140, 63.28296
777.7590, 8.915283
778.9040, 9.470215
780.0490, 12.11670
781.1940, 43.31274
782.3380, 3.213379
783.4820, 36.71948
784.6260, 47.21240
785.7700, 21.69238
786.9140, 15.84106
788.0580, 5.596680
789.2010, 69.98315
790.3450, 0.3803710
791.4880, 42.27515
792.6310, 25.97266
793.7730, 8.297363
794.9160, 59.44702
796.0590, 4.758789
797.2010, 3.051270
798.3430, 1.119629
799.4850, 41.72632
800.6270, 64.61133
801.7690, 2.453125
802.9100, 6.497070
804.0520, 9.533203
805.1930, 35.44775
806.3340, 101.4631
807.4750, 37.54614
808.6160, 53.66333
809.7560, 7.177246
810.8970, 30.99341
812.0370, 57.19312
813.1770, 89.43579
814.3170, 35.73779
815.4570, 14.07007
816.5960, 36.42139
817.7360, 29.80273
818.8750, 5.209717
820.0140, 20.37012
821.1530, 21.05859
822.2920, 48.49268
823.4310, 21.74048
824.5690, 45.42822
825.7070, 13.07568
826.8460, 6.571533
827.9840, 10.06006
829.1220, 15.45947
830.2590, 21.00732
831.3970, 96.46753
832.5340, 36.92065
833.6710, 105.3674
834.8080, 155.8081
835.9450, 176.2422
837.0820, 294.6704
838.2190, 341.0925
839.3550, 547.5090
840.4910, 660.9197
841.6270, 904.3247
842.7630, 1066.724
843.8990, 1349.119
845.0350, 1598.509
846.1700, 1896.893
847.3060, 2042.273
848.4410, 1978.647
849.5760, 1895.017
850.7100, 1639.205
851.8450, 1472.471
852.9800, 1195.715
854.1140, 1003.615
855.2480, 815.7983
856.3820, 764.9612
857.5160, 581.1567
858.6500, 607.3311
859.7830, 485.4636
860.9170, 514.3796
862.0500, 399.4517
863.1830, 382.8335
864.3160, 375.9624
865.4480, 357.1182
866.5810, 371.1304
867.7130, 371.2947
868.8460, 336.9155
869.9780, 310.5439
871.1100, 360.5325
872.2410, 354.6292
873.3730, 332.5725
874.5050, 313.2520
875.6360, 397.0415
876.7670, 342.8127
877.8980, 311.9319
879.0290, 399.1748
880.1590, 357.5000
881.2900, 401.6724
882.4200, 362.0120
883.5500, 403.1938
884.6800, 344.2644
885.8100, 339.5530
886.9400, 451.8279
888.0690, 402.1646
889.1990, 375.5085
890.3280, 409.6755
891.4570, 392.9971
892.5860, 422.3423
893.7140, 433.6912
894.8430, 440.0525
895.9710, 483.4382
897.1000, 428.8071
898.2280, 512.2000
899.3560, 490.5955
900.4830, 425.8037
901.6110, 521.2031
902.7380, 591.6050
903.8660, 482.0168
904.9930, 590.4307
906.1200, 650.8394
907.2460, 592.2620
908.3730, 607.4404
909.5000, 627.8718
910.6260, 477.2065
911.7520, 589.7407
912.8780, 508.1648
914.0040, 402.1365
915.1290, 519.0645
916.2550, 493.1941
917.3800, 426.0601
918.5050, 433.8838
919.6300, 367.2932
920.7550, 391.7661
921.8800, 396.1409
923.0040, 384.8867
924.1290, 331.9880
925.2530, 355.4004
926.3770, 314.2610
927.5010, 266.4746
928.6250, 255.7422
929.7480, 235.0847
930.8720, 178.3149
931.9950, 194.6008
933.1180, 174.4568
934.2410, 163.6333
935.3640, 120.1692
936.4860, 126.4482
937.6090, 114.1460
938.7310, 145.5811
939.8530, 108.1689
940.9750, 132.3069
942.0970, 112.3413
943.2180, 128.4292
944.3400, 160.5481
945.4610, 216.1975
946.5820, 210.8376
947.7030, 249.5334
948.8240, 271.9666
949.9450, 278.4890
951.0650, 312.4209
952.1860, 299.0088
953.3060, 337.0630
954.4260, 317.6633
955.5460, 485.5879
956.6650, 386.3594
957.7850, 482.3604
958.9040, 441.3481
960.0230, 474.7529
961.1420, 538.7466
962.2610, 554.7344
963.3800, 509.7551
964.4990, 557.2100
965.6170, 569.3062
966.7350, 554.4150
967.8530, 572.5366
968.9710, 620.6716
970.0890, 615.8191
971.2070, 758.9800
972.3240, 813.1562
973.4410, 673.3455
974.5580, 815.5476
975.6750, 847.7632
976.7920, 890.9917
977.9090, 998.2336
979.0250, 984.4885
980.1410, 1027.757
981.2580, 1048.039
982.3740, 1119.630
983.4890, 1176.893
984.6050, 1312.998
985.7200, 1346.349
986.8360, 1485.713
987.9510, 1625.092
989.0660, 1704.486
990.1810, 1912.900
991.2950, 2125.328
992.4100, 2501.770
993.5240, 2688.226
994.6390, 3048.698
995.7530, 3605.184
996.8660, 4237.686
997.9800, 4968.210
999.0940, 5743.750
1000.207, 7175.305
1001.320, 8645.874
1002.433, 10923.47
1003.546, 13427.08
1004.659, 17352.71
1005.772, 22349.35
1006.884, 28791.02
1007.996, 36615.69
1009.108, 45395.40
1010.220, 53918.12
1011.332, 59576.85
1012.444, 60208.61
1013.555, 56049.36
1014.666, 47751.15
1015.777, 37795.95
1016.888, 29320.75
1017.999, 22373.57
1019.110, 16861.41
1020.220, 13042.26
1021.331, 10340.12
1022.441, 8372.999
1023.551, 7125.891
1024.661, 6299.798
1025.770, 5575.718
1026.880, 5078.653
1027.989, 4903.996
1029.098, 4757.091
1030.207, 4801.195
1031.316, 4672.743
1032.425, 4865.812
1033.533, 5060.826
1034.642, 5416.854
1035.750, 5805.894
1036.858, 6324.604
1037.966, 6770.671
1039.073, 7133.750
1040.181, 7302.414
1041.288, 6915.016
1042.396, 6335.135
1043.503, 5493.669
1044.610, 4682.592
1045.716, 3862.752
1046.823, 3345.226
1047.929, 2690.379
1049.036, 2256.586
1050.142, 1926.184
1051.248, 1774.606
1052.353, 1578.870
1053.459, 1415.727
1054.564, 1349.015
1055.670, 1230.467
1056.775, 1131.419
1057.880, 1052.058
1058.985, 972.0466
1060.089, 893.4268
1061.194, 859.8315
1062.298, 810.2583
1063.402, 752.6968
1064.506, 692.1365
1065.610, 593.6426
1066.713, 621.8586
1067.817, 646.4451
1068.920, 587.2551
1070.023, 536.7607
1071.126, 553.3916
1072.229, 594.0435
1073.332, 518.6521
1074.435, 489.3054
1075.537, 552.9851
1076.639, 533.6719
1077.741, 524.4741
1078.843, 528.2993
1079.945, 569.4573
1081.046, 476.7817
1082.148, 467.8306
1083.249, 415.6477
1084.350, 489.5315
1085.451, 487.3638
1086.551, 575.2935
1087.652, 408.4270
1088.752, 444.9253
1089.853, 447.8623
1090.953, 459.8542
1092.053, 467.2271
1093.152, 422.6863
1094.252, 468.1147
1095.351, 426.0356
1096.451, 426.9883
1097.550, 418.2402
1098.649, 364.1819
1099.748, 385.1760
1100.846, 438.2451
1101.945, 405.2427
1103.043, 336.2065
1104.141, 466.8091
1105.239, 377.7825
1106.337, 364.7610
1107.434, 360.7979
1108.532, 409.7859
1109.629, 355.7876
1110.726, 334.8127
1111.823, 398.8501
1112.920, 452.9148
1114.017, 411.7395
1115.113, 469.2825
1116.210, 529.2998
1117.306, 583.3208
1118.402, 677.3818
1119.498, 761.4097
1120.593, 806.4404
1121.689, 805.6089
1122.784, 843.6458
1123.879, 785.6860
1124.974, 706.7288
1126.069, 602.7742
1127.164, 534.8220
1128.259, 463.9763
1129.353, 422.0913
1130.447, 441.2800
1131.541, 381.3403
1132.635, 375.5532
1133.729, 335.5015
1134.822, 337.5669
1135.916, 307.6558
1137.009, 282.7236
1138.102, 274.7927
1139.195, 184.8628
1140.288, 244.9338
1141.380, 183.0056
1142.473, 294.0779
1143.565, 242.1506
1144.657, 185.2385
1145.749, 219.3120
1146.841, 192.3860
1147.932, 204.4597
1149.024, 159.5332
1150.115, 130.6064
1151.206, 116.1477
1152.297, 56.75146
1153.388, 71.93994
1154.479, 45.01123
1155.569, 29.08179
1156.659, 53.15137
1157.750, 9.219482
1158.839, 49.64673
1159.929, 92.60303
1161.019, 5.605713
1162.108, 16.61182
1163.198, 2.625977
1164.287, 12.35718
1165.376, 17.34692
1166.465, 11.33447
1167.553, 32.68018
1168.642, 19.28735
1169.730, 35.25269
1170.818, 12.78442
1171.906, 10.83032
1172.994, 9.115723
1174.082, 7.941406
1175.170, 78.00610
1176.257, 17.88452
1177.344, 53.22681
1178.431, 31.37109
1179.518, 52.46338
1180.605, 52.70581
1181.691, 48.90820
1182.778, 52.85718
1183.864, 38.38135
1184.950, 28.35254
1186.036, 1.961426
1187.122, 17.73755
1188.207, 4.489258
1189.292, 3.977051
1190.378, 40.88770
1191.463, 33.56567
1192.548, 56.23853
1193.632, 80.90771
1194.717, 23.42822
1195.801, 23.78809
1196.886, 82.17188
1197.970, 39.61108
1199.054, 5.917236
1200.137, 36.56421
1201.221, 6.077393
1202.305, 23.39258
1203.388, 36.85571
1204.471, 32.31250
1205.554, 35.96289
1206.637, 40.20483
1207.719, 19.64062
1208.802, 19.93140
1209.884, 24.52979
1210.966, 5.843018
1212.048, 84.79785
1213.130, 45.50000
1214.212, 17.20996
1215.293, 124.0544
1216.374, 32.31616
1217.456, 19.43042
1218.536, 7.802490
1219.617, 40.02637
1220.698, 29.24194
1221.778, 2.448730
1222.859, 46.63770
1223.939, 12.81812
1225.019, 77.98584
1226.099, 53.14526
1227.178, 20.29565
1228.258, 71.43408
1229.337, 50.56567
1230.417, 34.68799
1231.496, 53.80029
1232.574, 87.90332
1233.653, 14.00586
1234.732, 74.08545
1235.810, 92.15601
1236.888, 54.21802
1237.966, 78.26978
1239.044, 66.31274
1240.122, 62.34644
1241.199, 61.37061
1242.277, 56.38501
1243.354, 13.38989
1244.431, 15.62231
1245.508, 128.3350
1246.585, 106.2827
1247.661, 65.22095
1248.738, 143.1497
1249.814, 102.0686
1250.890, 8.977783
1251.966, 113.9075
1253.042, 119.7866
1254.117, 181.6567
1255.193, 146.5166
1256.268, 109.3667
1257.343, 56.03247
1258.418, 66.57788
1259.493, 50.48169
1260.567, 83.48828
1261.642, 77.28564
1262.716, 79.41992
1263.790, 119.8496
1264.864, 78.61646
1265.938, 156.3733
1267.011, 106.1196
1268.085, 127.8560
1269.158, 140.5823
1270.231, 94.29810
1271.304, 124.0037
1272.377, 212.6987
1273.450, 84.38330
1274.522, 158.1233
1275.594, 118.7866
1276.666, 149.4390
1277.738, 191.0806
1278.810, 155.7117
1279.882, 97.33203
1280.953, 166.9417
1282.025, 63.57739
1283.096, 123.2195
1284.167, 138.7957
1285.238, 168.3611
1286.308, 177.1716
1287.379, 77.45947
1288.449, 173.6072
1289.519, 120.0068
1290.589, 119.3997
1291.659, 140.3516
1292.729, 111.7886
1293.798, 120.2329
1294.868, 112.7175
1295.937, 138.1917
1297.006, 140.9631
1298.075, 147.5566
1299.143, 172.8943
1300.212, 159.8606
1301.280, 183.7847
1302.348, 187.1960
1303.416, 204.1948
1304.484, 186.2310
1305.552, 195.4763
1306.620, 151.5474
1307.687, 152.9431
1308.754, 144.2930
1309.821, 207.3047
1310.888, 155.4609
1311.955, 222.7808
1313.021, 211.5088
1314.088, 209.5938
1315.154, 196.9451
1316.220, 193.8394
1317.286, 195.5222
1318.352, 158.1943
1319.417, 198.4458
1320.483, 185.6873
1321.548, 166.1604
1322.613, 177.5518
1323.678, 204.6206
1324.743, 183.7971
1325.807, 151.2703
1326.872, 198.3977
1327.936, 101.3645
1329.000, 154.5901
1330.064, 138.6941
1331.128, 248.7837
1332.191, 172.9185
1333.255, 145.0227
1334.318, 187.1311
1335.381, 122.2463
1336.444, 178.2644
1337.507, 130.2615
1338.569, 172.9377
1339.632, 88.46582
1340.694, 119.2961
1341.756, 99.36987
1342.818, 128.5405
1343.880, 96.82373
1344.941, 145.8130
1346.003, 151.5715
1347.064, 162.1577
1348.125, 167.2986
1349.186, 151.2373
1350.247, 164.4304
1351.308, 51.42383
1352.368, 116.1587
1353.428, 113.2288
1354.489, 216.2180
1355.549, 95.91162
1356.608, 153.2622
1357.668, 147.2146
1358.727, 110.0918
1359.787, 177.0408
1360.846, 48.02441
1361.905, 173.5237
1362.964, 123.4968
1364.022, 94.46460
1365.081, 123.3743
1366.139, 132.3594
1367.197, 100.3037
1368.255, 128.2231
1369.313, 133.1316
1370.371, 104.1243
1371.428, 177.2446
1372.486, 86.89746
1373.543, 213.8091
1374.600, 61.76538
1375.657, 63.70654
1376.713, 155.6143
1377.770, 103.5083
1378.826, 36.26123
1379.882, 79.14453
1380.938, 76.09668
1381.994, 80.97119
1383.050, 86.05762
1384.106, 7.289551
1385.161, 77.46973
1386.216, 65.30273
1387.271, 69.02344
1388.326, 128.8711
1389.381, 66.69385
1390.435, 74.52051
1391.490, 121.3584
1392.544, 76.26514
1393.598, 65.09668
1394.652, 135.9795
1395.705, 143.8057
1396.759, 95.62744
1397.812, 116.4336
1398.866, 119.2036
1399.919, 52.96826
1400.972, 28.71338
1402.024, 120.4663
1403.077, 108.2158
1404.129, 52.95752
1405.181, 77.69531
1406.233, 59.42822
1407.285, 72.15674
1408.337, 34.88135
1409.389, 30.48535
1410.440, 64.20117
1411.491, 119.9097
1412.542, 127.6133
1413.593, 151.3120
1414.644, 141.4692
1415.695, 91.25146
1416.745, 98.97168
1417.795, 52.00732
1418.845, 79.39600
1419.895, 25.89111
1420.945, 120.8091
1421.995, 45.50391
1423.044, 109.1924
1424.093, 97.88428
1425.142, 47.57373
1426.191, 19.26025
1427.240, 98.94629
1428.289, 62.63330
1429.337, 94.31787
1430.385, 55.00244
1431.433, 1.706055
1432.481, 71.32910
1433.529, 103.9580
1434.577, 114.5542
1435.624, 32.13965
1436.672, 108.7285
1437.719, 53.33105
1438.766, 84.90723
1439.812, 71.47754
1440.859, 128.0850
1441.905, 82.82031
1442.952, 46.34961
1443.998, 43.86768
1445.044, 138.3750
1446.090, 135.8462
1447.135, 3.280273
1448.181, 125.6802
1449.226, 110.0532
1450.271, 74.84277
1451.316, 115.6963
1452.361, 36.57275
1453.405, 25.46631
1454.450, 54.35449
1455.494, 151.2368
1456.538, 97.12354
1457.582, 210.0410
1458.626, 108.0146
1459.670, 95.99805
1460.713, 96.97412
1461.757, 94.94434
1462.800, 110.9160
1463.843, 89.89209
1464.886, 82.15527
1465.928, 54.83984
1466.971, 42.81006
1468.013, 11.76953
1469.055, 14.29102
1470.097, 45.71240
1471.139, 26.31885
1472.181, 13.35107
1473.222, 13.61963
1474.263, 132.6191
1475.305, 14.61768
1476.346, 126.6167
1477.386, 7.576660
1478.427, 33.58887
1479.468, 127.5122
1480.508, 50.51562
1481.548, 0.5224610
1482.588, 49.53125
1483.628, 44.54199
1484.668, 50.55371
1485.707, 66.56787
1486.747, 14.58398
1487.786, 63.50928
1488.825, 108.5337
1489.864, 86.56348
1490.902, 39.59814
1491.941, 70.49951
1492.979, 46.54688
1494.017, 79.60059
1495.055, 21.62842
1496.093, 67.65967
1497.131, 5.517090
1498.168, 59.50635
1499.206, 33.50195
1500.243, 27.32324
1501.280, 43.32959
1502.317, 53.34229
1503.354, 80.85156
1504.390, 138.8735
1505.426, 28.81885
1506.463, 54.86133
1507.499, 72.91553
1508.535, 121.9810
1509.570, 61.06055
1510.606, 38.67871
1511.641, 91.78760
1512.676, 145.9072
1513.711, 125.8491
1514.746, 55.97656
1515.781, 57.10938
1516.816, 27.24463
1517.850, 147.3823
1518.884, 37.52295
1519.918, 197.6665
1520.952, 127.4409
1521.986, 193.6709
1523.019, 112.0400
1524.053, 45.59131
1525.086, 124.1338
1526.119, 70.33301
1527.152, 139.2271
1528.185, 53.15869
1529.217, 54.01074
1530.250, 147.4028
1531.282, 106.2197
1532.314, 186.9395
1533.346, 193.8037
1534.377, 80.13037
1535.409, 172.0405
1536.440, 173.6611
1537.472, 62.13379
1538.503, 31.12158
1539.534, 26.33984
1540.564, 73.03711
1541.595, 7.703125
1542.625, 0.8012700
1543.656, 81.80225
1544.686, 70.36328
1545.716, 92.44971
1546.745, 101.6328
1547.775, 96.06787
1548.804, 109.5625
1549.834, 114.9648
1550.863, 113.4824
1551.892, 142.3315
1552.920, 137.1865
1553.949, 171.0498
1554.977, 140.2217
1556.006, 143.6196
1557.034, 68.80762
1558.062, 75.27783
1559.089, 74.15283
1560.117, 91.79346
1561.144, 22.09766
1562.172, 97.89941
1563.199, 107.0293
1564.226, 6.242676
1565.252, 1.266113
1566.279, 43.90039
1567.305, 16.58936
1568.332, 60.48535
1569.358, 3.058594
1570.384, 10.21045
1571.409, 128.2051
1572.435, 0.0000000E+00
##END=



