##NAMES=Diopside
##RRUFFID=R040097
##IDEAL CHEMISTRY=CaMgSi_2_O_6_
##LOCALITY=Fassathal, Tyrol
##OWNER=RRUFF
##SOURCE=University of Arizona Mineral Museum
##DESCRIPTION=Green prismatic crystals
##STATUS=The identification of this mineral has been confirmed by X-ray diffraction and chemical analysis
##URL=rruff.info/R040097
##MEASURED CHEMISTRY=Ca_1.00_(Mg_0.83_Al_0.10_Fe_0.09_Ca_0.02_Ti_0.02_)(Si_0.88_Al_0.12_)_2_O_6_
##PIN_ID=M00269
##ORIENTATION=Laser parallel to b* (0 1 0). Fiducial mark perpendicular to laser is parallel to -c [0 0 -1]
126.063, 0.000
127.452, 51.840
128.840, 221.904
130.228, 193.487
131.615, 513.829
133.003, 496.538
134.390, 767.428
135.777, 1125.837
137.164, 1360.211
138.550, 1567.773
139.937, 1597.591
141.323, 1669.274
142.709, 1641.592
144.094, 1468.174
145.480, 1396.131
146.865, 1164.714
148.250, 788.362
149.635, 837.814
151.019, 577.838
152.403, 358.409
153.788, 379.496
155.171, 191.072
156.555, 213.109
157.939, 175.580
159.322, 71.432
160.705, 84.580
162.088, 184.150
163.470, 97.502
164.853, 83.166
166.235, 145.732
167.617, 59.219
168.998, 293.107
170.380, 22.631
171.761, 171.977
173.142, 86.902
174.523, 22.129
175.904, 197.639
177.284, 23.412
178.664, 179.436
180.044, 125.689
181.424, 292.164
182.803, 138.846
184.183, 375.727
185.562, 442.793
186.940, 240.039
188.319, 277.447
189.698, 115.014
191.076, 27.270
192.454, 110.592
193.831, 8.590
195.209, 116.723
196.586, 115.018
197.963, 73.369
199.340, 103.289
200.717, 71.914
202.093, 119.283
203.470, 29.854
204.846, 109.438
206.221, 120.900
207.597, 38.873
208.972, 78.734
210.347, 158.617
211.722, 38.557
213.097, 38.512
214.472, 228.502
215.846, 138.555
217.220, 198.672
218.594, 28.830
219.967, 279.049
221.341, 159.334
222.714, 289.658
224.087, 170.027
225.460, 340.445
226.832, 470.916
228.204, 281.410
229.577, 411.926
230.948, 292.475
232.320, 323.061
233.692, 253.691
235.063, 84.359
236.434, 195.068
237.805, 205.820
239.175, 126.611
240.545, 197.445
241.916, 348.307
243.286, 219.207
244.655, 280.105
246.025, 241.041
247.394, 251.969
248.763, 362.912
250.132, 523.871
251.501, 344.867
252.869, 475.902
254.237, 346.969
255.605, 428.072
256.973, 389.207
258.340, 260.377
259.708, 391.576
261.075, 162.807
262.442, 204.068
263.808, 325.359
265.175, 66.684
266.541, 208.041
267.907, 139.436
269.273, 130.861
270.639, 27.674
272.004, 135.094
273.369, 216.629
274.734, 28.283
276.099, 240.947
277.463, 17.096
278.828, 165.910
280.192, 73.076
281.556, 221.408
282.919, 153.057
284.283, 104.832
285.646, 196.670
287.009, 258.578
288.372, 314.398
289.734, 316.762
291.097, 444.785
292.459, 465.121
293.821, 470.922
295.183, 570.441
296.544, 480.582
297.905, 490.969
299.266, 582.049
300.627, 462.799
301.988, 623.812
303.348, 664.816
304.709, 739.510
306.069, 828.541
307.428, 852.041
308.788, 983.430
310.147, 1004.799
311.507, 1126.232
312.865, 1201.678
314.224, 1272.094
315.583, 1343.686
316.941, 1505.330
318.299, 1547.027
319.657, 1778.771
321.015, 1970.562
322.372, 1852.398
323.729, 1994.982
325.086, 2026.883
326.443, 2148.754
327.800, 2170.664
329.156, 2050.078
330.512, 2131.928
331.868, 1903.818
333.224, 1875.742
334.579, 1947.082
335.935, 1629.072
337.290, 1801.096
338.645, 1703.148
339.999, 1515.230
341.354, 1407.340
342.708, 1469.477
344.062, 1251.635
345.416, 1333.820
346.769, 1416.025
348.123, 1388.254
349.476, 1370.502
350.829, 1482.768
352.182, 1415.053
353.534, 1437.355
354.887, 1419.066
356.239, 1471.404
357.591, 1303.756
358.942, 1346.119
360.294, 1265.842
361.645, 1057.332
362.996, 1149.730
364.347, 1072.139
365.698, 1020.838
367.048, 1083.266
368.398, 945.703
369.748, 984.365
371.098, 786.812
372.448, 849.268
373.797, 891.727
375.146, 794.191
376.495, 916.664
377.844, 879.139
379.192, 991.617
380.540, 864.100
381.889, 1096.588
383.236, 1069.082
384.584, 1091.582
385.932, 1344.086
387.279, 1466.619
388.626, 1679.133
389.973, 1871.646
391.319, 1674.178
392.666, 1836.717
394.012, 1689.254
395.358, 1821.799
396.704, 1564.342
398.049, 1776.955
399.394, 1089.574
400.740, 652.537
402.084, 835.188
403.429, 567.836
404.774, 521.023
406.118, 543.758
407.462, 226.924
408.806, 119.641
410.150, 92.367
411.493, 46.154
412.836, 38.896
414.179, 17.916
415.522, 184.973
416.865, 77.740
418.207, 174.809
419.549, 17.799
420.891, 12.047
422.233, 54.920
423.575, 11.381
424.916, 77.307
426.257, 135.990
427.598, 120.584
428.939, 33.035
430.279, 94.131
431.619, 49.689
432.959, 106.527
434.299, 166.010
435.639, 105.164
436.978, 90.418
438.318, 62.479
439.657, 156.436
440.996, 253.611
442.334, 66.797
443.673, 171.820
445.011, 100.377
446.349, 52.244
447.687, 281.150
449.024, 13.627
450.361, 326.541
451.699, 171.756
453.036, 215.193
454.372, 106.721
455.709, 55.928
457.045, 239.293
458.381, 234.262
459.717, 17.148
461.053, 330.969
462.388, 33.863
463.724, 267.098
465.059, 38.766
466.394, 224.402
467.728, 387.189
469.063, 149.445
470.397, 412.326
471.731, 134.750
473.065, 23.139
474.398, 289.846
475.732, 201.891
477.065, 373.922
478.398, 145.930
479.731, 317.916
481.063, 369.883
482.396, 181.828
483.728, 23.758
485.060, 565.656
486.391, 257.588
487.723, 299.496
489.054, 381.375
490.385, 293.248
491.716, 315.092
493.047, 351.236
494.377, 359.660
495.708, 440.486
497.038, 472.236
498.368, 553.955
499.697, 645.660
501.027, 637.334
502.356, 748.979
503.685, 760.598
505.014, 1102.184
506.342, 1083.740
507.671, 875.266
508.999, 1106.758
510.327, 858.219
511.655, 759.646
512.982, 951.039
514.310, 562.400
515.637, 773.732
516.964, 555.029
518.291, 586.289
519.617, 557.516
520.944, 688.721
522.270, 569.895
523.596, 491.035
524.921, 712.143
526.247, 703.232
527.572, 454.289
528.897, 735.307
530.222, 716.307
531.547, 677.266
532.871, 768.188
534.196, 379.898
535.520, 780.742
536.844, 571.574
538.167, 832.363
539.491, 563.512
540.814, 524.486
542.137, 635.451
543.460, 417.418
544.783, 448.781
546.105, 260.262
547.427, 421.145
548.749, 552.229
550.071, 476.312
551.393, 408.490
552.714, 418.834
554.035, 401.137
555.356, 421.396
556.677, 352.426
557.998, 579.998
559.318, 230.912
560.638, 409.531
561.958, 489.557
563.278, 222.836
564.597, 333.863
565.917, 236.006
567.236, 408.652
568.555, 349.389
569.874, 126.311
571.192, 577.141
572.511, 258.039
573.829, 346.619
575.147, 396.275
576.464, 28.305
577.782, 368.273
579.099, 128.395
580.416, 475.180
581.733, 215.051
583.050, 155.873
584.366, 318.359
585.683, 288.631
586.999, 234.512
588.315, 424.412
589.630, 179.373
590.946, 120.021
592.261, 36.643
593.576, 52.480
594.891, 64.332
596.206, 66.430
597.520, 142.459
598.834, 11.535
600.148, 280.471
601.462, 68.645
602.776, 12.545
604.089, 6.316
605.402, 200.621
606.715, 420.189
608.028, 307.533
609.341, 57.367
610.653, 184.943
611.965, 7.271
613.277, 354.934
614.589, 182.271
615.901, 60.340
617.212, 300.787
618.523, 127.410
619.834, 297.564
621.145, 214.871
622.456, 102.539
623.766, 217.068
625.076, 303.836
626.386, 433.434
627.696, 280.104
629.006, 386.838
630.315, 475.154
631.624, 238.750
632.933, 575.896
634.242, 684.143
635.551, 560.592
636.859, 718.029
638.167, 514.160
639.475, 981.193
640.783, 739.879
642.090, 1045.098
643.398, 1084.410
644.705, 980.928
646.012, 1326.969
647.318, 1353.916
648.625, 1529.537
649.931, 1516.371
651.237, 1781.979
652.543, 2068.281
653.849, 2284.650
655.155, 2629.947
656.460, 3057.646
657.765, 3273.014
659.070, 4298.111
660.375, 4324.328
661.679, 5429.295
662.984, 5624.193
664.288, 6109.027
665.592, 6534.098
666.895, 6358.799
668.199, 5983.430
669.502, 5207.996
670.805, 4762.494
672.108, 4146.926
673.411, 3561.291
674.713, 2965.588
676.016, 2619.816
677.318, 2273.980
678.620, 2068.076
679.921, 1673.924
681.223, 1627.885
682.524, 1422.742
683.825, 1147.336
685.126, 1201.090
686.427, 934.863
687.727, 908.482
689.028, 1092.033
690.328, 325.643
691.628, 879.049
692.927, 567.822
694.227, 541.088
695.526, 435.230
696.825, 469.586
698.124, 462.637
699.423, 216.920
700.721, 349.820
702.020, 312.645
703.318, 445.363
704.616, 388.037
705.913, 40.633
707.211, 163.133
708.508, 535.547
709.805, 137.887
711.102, 700.145
712.399, 187.668
713.695, 264.301
714.992, 346.191
716.288, 52.336
717.584, 619.336
718.879, 128.613
720.175, 272.324
721.470, 113.633
722.765, 74.430
724.060, 305.586
725.355, 32.969
726.649, 256.938
727.944, 227.938
729.238, 81.145
730.532, 499.617
731.825, 279.812
733.119, 387.199
734.412, 337.301
735.705, 43.227
736.998, 366.805
738.291, 75.934
739.584, 44.277
740.876, 225.059
742.168, 36.656
743.460, 305.949
744.752, 225.492
746.043, 155.504
747.334, 393.301
748.626, 75.305
749.916, 266.969
751.207, 323.664
752.498, 383.082
753.788, 321.438
755.078, 327.980
756.368, 495.148
757.658, 321.559
758.947, 292.098
760.237, 446.000
761.526, 133.805
762.815, 502.668
764.104, 90.770
765.392, 556.488
766.680, 433.934
767.969, 76.684
769.257, 544.738
770.544, 302.129
771.832, 17.719
773.119, 735.496
774.406, 22.082
775.693, 379.531
776.980, 306.539
778.267, 182.562
779.553, 490.066
780.839, 27.254
782.125, 474.902
783.411, 442.109
784.697, 109.426
785.982, 557.582
787.267, 294.094
788.552, 91.465
789.837, 428.773
791.122, 176.016
792.406, 684.008
793.690, 241.117
794.974, 28.168
796.258, 655.145
797.542, 157.930
798.825, 299.973
800.108, 396.723
801.391, 163.430
802.674, 700.070
803.957, 156.660
805.239, 433.176
806.522, 249.633
807.804, 216.027
809.085, 692.359
810.367, 28.645
811.649, 404.828
812.930, 610.953
814.211, 167.020
815.492, 813.020
816.772, 518.965
818.053, 884.859
819.333, 370.699
820.613, 466.480
821.893, 862.207
823.173, 457.887
824.452, 633.508
825.732, 819.090
827.011, 434.613
828.290, 870.090
829.568, 505.512
830.847, 430.883
832.125, 636.395
833.403, 61.664
834.681, 716.871
835.959, 191.945
837.236, 236.965
838.514, 421.930
839.791, 396.832
841.068, 531.621
842.345, 456.359
843.621, 381.051
844.898, 574.801
846.174, 50.672
847.450, 513.789
848.726, 178.207
850.001, 112.180
851.277, 756.234
852.552, 100.223
853.827, 813.117
855.102, 566.527
856.376, 539.727
857.651, 1063.441
858.925, 816.867
860.199, 987.203
861.473, 759.363
862.746, 403.266
864.020, 1235.109
865.293, 508.922
866.566, 625.602
867.839, 898.199
869.112, 361.098
870.384, 806.203
871.656, 239.828
872.928, 450.113
874.200, 452.559
875.472, 363.812
876.744, 404.477
878.015, 236.965
879.286, 393.191
880.557, 285.418
881.828, 177.496
883.098, 250.680
884.369, 643.840
885.639, 64.555
886.909, 567.234
888.178, 109.688
889.448, 275.344
890.717, 537.898
891.987, 8.484
893.256, 364.133
894.524, 213.926
895.793, 145.668
897.061, 277.852
898.330, 20.301
899.598, 321.012
900.865, 153.578
902.133, 54.141
903.401, 586.312
904.668, 171.250
905.935, 111.453
907.202, 233.926
908.468, 55.926
909.735, 669.215
911.001, 138.168
912.267, 394.352
913.533, 297.605
914.799, 189.379
916.064, 362.996
917.330, 263.664
918.595, 237.863
919.860, 230.738
921.124, 301.617
922.389, 204.707
923.653, 376.918
924.918, 188.203
926.182, 481.246
927.445, 219.672
928.709, 722.633
929.972, 305.477
931.236, 76.543
932.499, 538.492
933.761, 521.602
935.024, 153.207
936.286, 455.645
937.549, 65.426
938.811, 424.492
940.073, 406.812
941.334, 378.754
942.596, 340.465
943.857, 1.539
945.118, 481.848
946.379, 554.648
947.640, 266.242
948.900, 1089.141
950.161, 18.379
951.421, 584.402
952.681, 627.129
953.940, 419.805
955.200, 752.422
956.459, 392.730
957.719, 404.008
958.978, 845.457
960.236, 197.707
961.495, 1139.852
962.753, 225.020
964.012, 625.914
965.270, 406.359
966.527, 316.633
967.785, 848.621
969.043, 170.582
970.300, 452.555
971.557, 834.500
972.814, 326.523
974.071, 308.633
975.327, 650.160
976.583, 372.484
977.840, 874.828
979.095, 446.668
980.351, 638.020
981.607, 1340.219
982.862, 91.609
984.117, 1393.348
985.372, 764.449
986.627, 566.922
987.882, 1498.965
989.136, 619.180
990.390, 1309.938
991.644, 1595.980
992.898, 1097.547
994.152, 2238.520
995.405, 1786.777
996.659, 2668.516
997.912, 2840.629
999.165, 2842.664
1000.417, 4074.512
1001.670, 4296.219
1002.922, 4568.223
1004.174, 5160.301
1005.426, 4871.133
1006.678, 5192.629
1007.930, 5693.363
1009.181, 4905.680
1010.432, 5258.000
1011.683, 4028.512
1012.934, 3910.867
1014.185, 3460.645
1015.435, 2262.926
1016.685, 1995.191
1017.935, 2017.504
1019.185, 1279.852
1020.435, 1612.281
1021.684, 1094.852
1022.934, 1447.504
1024.183, 1650.188
1025.432, 1032.898
1026.680, 935.645
1027.929, 1068.414
1029.177, 671.223
1030.425, 1293.465
1031.673, 586.367
1032.921, 1169.898
1034.169, 753.582
1035.416, 747.883
1036.663, 1022.566
1037.911, 967.645
1039.157, 802.910
1040.404, 1388.406
1041.650, 764.141
1042.897, 1260.195
1044.143, 1096.543
1045.389, 683.266
1046.634, 1520.438
1047.880, 727.992
1049.125, 935.980
1050.371, 1114.430
1051.615, 843.410
1052.860, 702.980
1054.105, 553.242
1055.349, 814.285
1056.593, 1126.133
1057.837, 131.191
1059.081, 1012.391
1060.325, 707.008
1061.568, 392.777
1062.812, 989.855
1064.055, 568.418
1065.298, 858.688
1066.540, 570.922
1067.783, 124.926
1069.025, 708.930
1070.267, 617.707
1071.509, 256.293
1072.751, 668.676
1073.993, 1.938
1075.234, 654.273
1076.475, 0.000
##END=



