##NAMES=Diopside
##RRUFFID=R060171
##IDEAL CHEMISTRY=CaMgSi_2_O_6_
##LOCALITY=Jeffrey mine, Asbestos, Quebec, Canada
##OWNER=RRUFF
##SOURCE=Guy Ouellet
##DESCRIPTION=Yellowish-brown tabular crystals associated with vesuvianite, R060170
##STATUS=The identification of this mineral has been confirmed by X-ray diffraction and chemical analysis
##URL=rruff.info/R060171
##MEASURED CHEMISTRY=Ca_1.00_(Mg_0.98_Mn_0.02_)_Î£=1_Si_2.00_O_6_
##PIN_ID=L01396
##ORIENTATION=Laser parallel to -a* (-1 0 0). Fiducial mark perpendicular to laser is parallel to b [0 1 0]
129.2090, 0.0000000E+00
130.4390, 0.6835940
131.6680, 167.4512
132.8980, 43.58203
134.1270, 4.009766
135.3560, 277.3242
136.5850, 233.1504
137.8140, 486.5137
139.0430, 523.7441
140.2710, 575.3652
141.5000, 490.9980
142.7280, 493.3555
143.9560, 395.2129
145.1840, 270.3828
146.4120, 150.7188
147.6390, 94.09961
148.8670, 72.41602
150.0940, 77.57617
151.3210, 103.0957
152.5490, 179.1152
153.7750, 180.3672
155.0020, 162.2012
156.2290, 133.5254
157.4550, 154.4531
158.6810, 125.7949
159.9080, 125.5762
161.1340, 108.7656
162.3590, 185.3418
163.5850, 79.28125
164.8110, 325.5625
166.0360, 245.1758
167.2610, 182.0898
168.4860, 92.27539
169.7110, 212.7188
170.9360, 237.4004
172.1610, 269.3105
173.3850, 416.4355
174.6100, 228.7695
175.8340, 177.3027
177.0580, 271.0254
178.2820, 493.9375
179.5050, 714.0234
180.7290, 554.2832
181.9520, 416.7090
183.1760, 272.2969
184.3990, 208.0410
185.6220, 230.9414
186.8450, 427.9863
188.0670, 222.1797
189.2900, 371.5078
190.5120, 280.9746
191.7340, 406.5723
192.9560, 337.3008
194.1780, 313.1562
195.4000, 239.1309
196.6220, 296.2266
197.8430, 331.4355
199.0640, 285.7578
200.2860, 189.2012
201.5070, 383.7930
202.7270, 250.4551
203.9480, 316.0918
205.1690, 369.7305
206.3890, 344.3535
207.6090, 272.0586
208.8290, 355.7676
210.0490, 319.5391
211.2690, 237.3809
212.4890, 44.27930
213.7080, 63.22852
214.9280, 236.2793
216.1470, 365.3809
217.3660, 183.5391
218.5850, 307.7695
219.8030, 195.0723
221.0220, 272.4297
222.2400, 342.8867
223.4590, 317.4199
224.6770, 444.0078
225.8950, 408.6543
227.1120, 552.3555
228.3300, 480.1133
229.5480, 487.9297
230.7650, 577.8027
231.9820, 637.7734
233.1990, 493.7969
234.4160, 697.8750
235.6330, 333.0371
236.8490, 354.2559
238.0660, 238.5234
239.2820, 425.8457
240.4980, 323.2422
241.7140, 286.6992
242.9300, 290.2168
244.1460, 441.7852
245.3610, 203.4004
246.5770, 325.0645
247.7920, 196.7773
249.0070, 354.5371
250.2220, 360.3438
251.4370, 257.2305
252.6510, 491.1621
253.8660, 489.1387
255.0800, 294.1582
256.2940, 404.2227
257.5080, 318.3301
258.7220, 280.4805
259.9360, 248.6738
261.1490, 206.9102
262.3630, 266.1855
263.5760, 193.5039
264.7890, 37.86133
266.0020, 181.2754
267.2150, 196.7695
268.4270, 45.30469
269.6400, 82.90430
270.8520, 337.1348
272.0640, 89.60547
273.2760, 191.3301
274.4880, 66.12891
275.7000, 212.1191
276.9120, 143.3613
278.1230, 335.9746
279.3340, 146.8613
280.5450, 174.9551
281.7560, 83.27734
282.9670, 101.7676
284.1780, 194.4062
285.3880, 200.1855
286.5980, 297.0879
287.8090, 209.1074
289.0190, 180.2539
290.2290, 243.3398
291.4380, 338.6855
292.6480, 281.0957
293.8570, 174.6172
295.0670, 377.2246
296.2760, 300.9121
297.4850, 205.6738
298.6930, 475.9961
299.9020, 409.8965
301.1110, 545.8691
302.3190, 469.9062
303.5270, 522.0137
304.7350, 388.1797
305.9430, 505.4043
307.1510, 737.9355
308.3580, 576.2656
309.5660, 789.6465
310.7730, 533.0781
311.9800, 866.5566
313.1870, 937.0938
314.3940, 1329.664
315.6010, 1517.568
316.8070, 1947.230
318.0130, 2144.934
319.2200, 2657.682
320.4260, 3137.469
321.6310, 3271.314
322.8370, 3338.197
324.0430, 2847.119
325.2480, 2610.076
326.4540, 1866.070
327.6590, 1447.100
328.8640, 1336.166
330.0680, 1113.266
331.2730, 693.6445
332.4780, 734.7871
333.6820, 439.9863
334.8860, 383.2168
336.0900, 234.4785
337.2940, 412.7715
338.4980, 298.0938
339.7010, 300.9805
340.9050, 344.3594
342.1080, 320.7676
343.3110, 253.2031
344.5140, 307.6660
345.7170, 174.1543
346.9200, 295.6680
348.1220, 467.2090
349.3240, 385.9453
350.5270, 315.5371
351.7290, 341.1641
352.9310, 585.7676
354.1320, 565.8965
355.3340, 554.5898
356.5350, 500.3066
357.7370, 411.0488
358.9380, 326.8145
360.1390, 268.6035
361.3400, 321.4062
362.5400, 368.2520
363.7410, 440.1113
364.9410, 440.4062
366.1410, 471.9883
367.3410, 415.8242
368.5410, 489.7715
369.7410, 423.7422
370.9400, 431.8379
372.1400, 268.8477
373.3390, 212.8789
374.5380, 307.9316
375.7370, 512.0020
376.9360, 576.0918
378.1350, 739.2031
379.3330, 908.3340
380.5310, 1099.480
381.7300, 1477.645
382.9280, 1723.830
384.1260, 2092.031
385.3230, 2492.254
386.5210, 3042.488
387.7180, 2970.744
388.9160, 3090.016
390.1130, 2787.307
391.3100, 2468.611
392.5060, 1788.934
393.7030, 1197.271
394.9000, 1099.625
396.0960, 888.9980
397.2920, 443.3828
398.4880, 726.7812
399.6840, 326.1992
400.8800, 177.0430
402.0750, 374.4688
403.2710, 394.9277
404.4660, 294.3984
405.6610, 360.8848
406.8560, 299.6562
408.0510, 67.16992
409.2450, 29.76367
410.4400, 211.7715
411.6340, 63.85938
412.8280, 185.1133
414.0220, 253.8086
415.2160, 91.38281
416.4100, 85.10938
417.6030, 102.6992
418.7970, 145.3008
419.9900, 142.8594
421.1830, 106.5859
422.3760, 189.8359
423.5690, 116.0723
424.7610, 163.2871
425.9540, 76.03906
427.1460, 211.8105
428.3380, 104.6035
429.5300, 58.41406
430.7220, 36.24219
431.9140, 162.3242
433.1050, 76.40039
434.2970, 388.4590
435.4880, 31.66211
436.6790, 292.2266
437.8700, 60.25000
439.0610, 175.1660
440.2510, 119.0957
441.4420, 86.95898
442.6320, 191.9688
443.8220, 95.65039
445.0120, 31.60938
446.2020, 165.2148
447.3910, 62.20117
448.5810, 90.19922
449.7700, 55.78516
450.9600, 52.23438
452.1490, 38.26758
453.3370, 28.31250
454.5260, 77.40430
455.7150, 69.49609
456.9030, 126.5898
458.0910, 31.31641
459.2800, 284.2441
460.4670, 9.693359
461.6550, 121.8105
462.8430, 20.93945
464.0300, 173.9570
465.2180, 8.105469
466.4050, 192.2617
467.5920, 84.42383
468.7790, 139.5938
469.9650, 186.7754
471.1520, 200.9629
472.3380, 255.1543
473.5250, 0.6464840
474.7110, 59.40820
475.8970, 54.78516
477.0820, 110.2949
478.2680, 225.5039
479.4540, 39.72266
480.6390, 229.9492
481.8240, 47.81836
483.0090, 131.4004
484.1940, 126.6270
485.3780, 17.85742
486.5630, 216.0938
487.7470, 38.33398
488.9320, 271.5820
490.1160, 63.83594
491.3000, 36.90625
492.4830, 137.3340
493.6670, 13.58008
494.8500, 11.15625
496.0340, 8.5937999E-02
497.2170, 91.32812
498.4000, 75.57617
499.5820, 172.8281
500.7650, 215.0820
501.9480, 45.34570
503.1300, 63.60938
504.3120, 99.87500
505.4940, 195.1406
506.6760, 447.4141
507.8580, 379.6895
509.0390, 175.9629
510.2210, 350.2402
511.4020, 198.5215
512.5830, 47.19727
513.7640, 208.0566
514.9450, 113.3125
516.1250, 199.5703
517.3060, 333.8281
518.4860, 173.1074
519.6660, 147.3906
520.8460, 106.6719
522.0260, 319.9531
523.2060, 400.2383
524.3850, 342.5234
525.5650, 414.8086
526.7440, 453.1152
527.9230, 289.4453
529.1020, 344.7793
530.2810, 376.1406
531.4590, 228.5000
532.6380, 349.8613
533.8160, 65.21875
534.9940, 307.5762
536.1720, 195.9316
537.3500, 238.2832
538.5270, 215.6348
539.7050, 299.9844
540.8820, 67.33203
542.0590, 42.32422
543.2360, 34.01367
544.4130, 223.2695
545.5900, 62.55273
546.7660, 79.83203
547.9430, 37.89062
549.1190, 145.3516
550.2950, 15.58984
551.4710, 344.4316
552.6470, 10.34180
553.8220, 18.60352
554.9980, 1.800781
556.1730, 338.3770
557.3480, 51.44141
558.5230, 130.7031
559.6980, 249.8730
560.8730, 199.0938
562.0470, 223.3008
563.2220, 55.54688
564.3960, 70.37109
565.5700, 2.312500
566.7440, 131.7266
567.9170, 51.77734
569.0910, 167.8457
570.2640, 149.1016
571.4380, 333.1406
572.6110, 30.56445
573.7840, 25.39453
574.9570, 119.9473
576.1290, 106.5684
577.3020, 199.5156
578.4740, 4.425781
579.6460, 64.31836
580.8180, 57.60938
581.9900, 234.3262
583.1620, 107.6914
584.3330, 7.205078
585.5040, 58.03320
586.6760, 21.02344
587.8470, 55.65234
589.0180, 89.22656
590.1880, 107.5977
591.3590, 140.8379
592.5290, 175.5742
593.7000, 57.72852
594.8700, 59.49219
596.0400, 98.32812
597.2090, 85.00586
598.3790, 154.0234
599.5490, 25.17969
600.7180, 30.19727
601.8870, 188.7246
603.0560, 120.0156
604.2250, 35.86133
605.3940, 68.17578
606.5620, 82.76172
607.7300, 204.3145
608.8990, 66.96680
610.0670, 443.9648
611.2350, 238.6875
612.4020, 109.3281
613.5700, 425.8047
614.7370, 61.43945
615.9050, 145.0938
617.0720, 38.00195
618.2390, 138.7969
619.4060, 260.7559
620.5720, 161.6777
621.7390, 258.2129
622.9050, 231.1523
624.0710, 281.7480
625.2370, 164.0918
626.4030, 140.4219
627.5690, 172.9902
628.7340, 178.4492
629.9000, 272.4531
631.0650, 346.9609
632.2300, 474.0312
633.3950, 211.2559
634.5600, 94.40039
635.7240, 234.6387
636.8890, 199.0391
638.0530, 166.9043
639.2170, 230.8281
640.3810, 234.0664
641.5450, 241.8340
642.7080, 294.5254
643.8720, 380.9590
645.0350, 323.4043
646.1980, 368.9336
647.3610, 273.7656
648.5240, 339.7324
649.6870, 456.6133
650.8490, 615.2168
652.0120, 561.1191
653.1740, 631.7246
654.3360, 658.8965
655.4980, 832.1270
656.6600, 1000.631
657.8210, 1294.836
658.9830, 1601.367
660.1440, 1912.309
661.3050, 2114.934
662.4660, 2421.658
663.6270, 2407.926
664.7870, 2700.406
665.9480, 2729.244
667.1080, 2563.637
668.2680, 1980.934
669.4280, 1890.713
670.5880, 1526.047
671.7480, 1108.271
672.9070, 1121.266
674.0670, 884.6348
675.2260, 752.4629
676.3850, 847.1523
677.5440, 591.3574
678.7030, 398.4062
679.8610, 417.1250
681.0200, 312.9980
682.1780, 360.5625
683.3360, 369.7656
684.4940, 314.3965
685.6520, 283.1172
686.8090, 264.8672
687.9670, 231.9102
689.1240, 254.0391
690.2810, 148.2109
691.4380, 222.7344
692.5950, 77.77930
693.7520, 378.7090
694.9080, 101.4844
696.0650, 305.8105
697.2210, 250.2754
698.3770, 255.7930
699.5330, 191.5918
700.6880, 195.1152
701.8440, 264.3867
702.9990, 189.0703
704.1550, 225.8887
705.3100, 231.5293
706.4650, 200.4004
707.6190, 195.8555
708.7740, 150.2617
709.9290, 202.2656
711.0830, 140.2676
712.2370, 284.6699
713.3910, 104.8672
714.5450, 57.44727
715.6980, 422.9863
716.8520, 425.4980
718.0050, 314.0391
719.1580, 267.4863
720.3110, 157.9004
721.4640, 326.2812
722.6170, 163.0605
723.7700, 125.1641
724.9220, 194.4980
726.0740, 43.45898
727.2260, 226.7617
728.3780, 14.04102
729.5300, 31.84180
730.6810, 295.7520
731.8330, 128.9316
732.9840, 100.1855
734.1350, 204.0371
735.2860, 413.1934
736.4370, 157.1797
737.5880, 62.54688
738.7380, 152.6953
739.8880, 50.86914
741.0390, 82.32617
742.1890, 129.1816
743.3380, 136.6367
744.4880, 242.6387
745.6380, 324.1426
746.7870, 223.3926
747.9360, 139.2559
749.0850, 201.9961
750.2340, 219.5078
751.3830, 262.9258
752.5310, 20.63672
753.6800, 35.41602
754.8280, 18.08594
755.9760, 172.8242
757.1240, 130.5098
758.2720, 138.0527
759.4190, 109.1797
760.5670, 138.5449
761.7140, 39.18359
762.8610, 322.0449
764.0080, 372.7383
765.1550, 278.6543
766.3020, 28.65039
767.4480, 106.4727
768.5950, 221.8164
769.7410, 401.6445
770.8870, 292.2676
772.0330, 72.21875
773.1780, 282.9668
774.3240, 122.0898
775.4690, 118.9062
776.6140, 101.3984
777.7590, 261.6309
778.9040, 18.25000
780.0490, 373.5215
781.1940, 302.2676
782.3380, 197.8418
783.4820, 174.5430
784.6260, 98.16602
785.7700, 436.0664
786.9140, 85.38281
788.0580, 141.3516
789.2010, 342.3418
790.3450, 110.0508
791.4880, 234.6270
792.6310, 233.9238
793.7730, 131.8965
794.9160, 47.63281
796.0590, 157.0430
797.2010, 295.1680
798.3430, 128.8828
799.4850, 101.7793
800.6270, 207.3359
801.7690, 152.5488
802.9100, 43.52539
804.0520, 52.68945
805.1930, 3.617188
806.3340, 59.60156
807.4750, 163.2598
808.6160, 183.8438
809.7560, 238.8652
810.8970, 147.5020
812.0370, 271.2891
813.1770, 299.4199
814.3170, 171.5039
815.4570, 203.8125
816.5960, 278.7695
817.7360, 236.0137
818.8750, 205.6250
820.0140, 151.4824
821.1530, 74.49609
822.2920, 250.7637
823.4310, 238.6855
824.5690, 279.5371
825.7070, 194.5020
826.8460, 229.7637
827.9840, 269.5156
829.1220, 183.2988
830.2590, 302.8906
831.3970, 163.2852
832.5340, 12.03125
833.6710, 221.9160
834.8080, 79.69141
835.9450, 166.1191
837.0820, 358.1172
838.2190, 149.0469
839.3550, 279.1270
840.4910, 4.275391
841.6270, 295.9277
842.7630, 425.9238
843.8990, 296.2266
845.0350, 337.9004
846.1700, 299.4961
847.3060, 294.3965
848.4410, 446.6855
849.5760, 496.3262
850.7100, 610.7812
851.8450, 636.8965
852.9800, 385.0762
854.1140, 336.8809
855.2480, 448.0605
856.3820, 423.8789
857.5160, 609.1133
858.6500, 81.89062
859.7830, 261.0527
860.9170, 135.0527
862.0500, 303.2539
863.1830, 363.6562
864.3160, 361.9023
865.4480, 405.4414
866.5810, 259.0586
867.7130, 351.1250
868.8460, 173.6992
869.9780, 87.58203
871.1100, 307.3164
872.2410, 344.1133
873.3730, 243.5156
874.5050, 176.4531
875.6360, 411.7305
876.7670, 235.4297
877.8980, 42.71094
879.0290, 205.2188
880.1590, 275.1445
881.2900, 146.4570
882.4200, 198.7227
883.5500, 281.8359
884.6800, 297.5273
885.8100, 352.4609
886.9400, 361.3945
888.0690, 81.41406
889.1990, 247.9492
890.3280, 272.6484
891.4570, 39.99609
892.5860, 256.3711
893.7140, 261.4922
894.8430, 54.42578
895.9710, 292.7461
897.1000, 219.6172
898.2280, 393.7461
899.3560, 185.2070
900.4830, 363.2539
901.6110, 333.6680
902.7380, 124.3711
903.8660, 227.7031
904.9930, 341.1484
906.1200, 145.1641
907.2460, 296.1875
908.3730, 330.1055
909.5000, 234.8047
910.6260, 91.75391
911.7520, 363.8516
912.8780, 431.7891
914.0040, 311.0938
915.1290, 141.8828
916.2550, 257.1719
917.3800, 288.4727
918.5050, 246.1953
919.6300, 400.5000
920.7550, 270.1211
921.8800, 97.82812
923.0040, 376.7578
924.1290, 360.5781
925.2530, 48.21094
926.3770, 203.0938
927.5010, 258.9766
928.6250, 108.3438
929.7480, 156.2266
930.8720, 123.6484
931.9950, 67.11328
933.1180, 107.6523
934.2410, 270.8125
935.3640, 27.86328
936.4860, 170.1680
937.6090, 225.9453
938.7310, 221.9219
939.8530, 138.8516
940.9750, 373.1953
942.0970, 382.5820
943.2180, 197.4336
944.3400, 14.40625
945.4610, 5.750000
946.5820, 115.7422
947.7030, 258.2305
948.8240, 76.21875
949.9450, 203.2969
951.0650, 83.41016
952.1860, 200.3438
953.3060, 166.4102
954.4260, 209.8906
955.5460, 232.8750
956.6650, 157.6211
957.7850, 227.4023
958.9040, 231.0547
960.0230, 194.3945
961.1420, 334.8867
962.2610, 473.2578
963.3800, 54.57812
964.4990, 131.7188
965.6170, 281.1172
966.7350, 118.0391
967.8530, 142.2266
968.9710, 250.4609
970.0890, 125.2188
971.2070, 88.81250
972.3240, 90.96484
973.4410, 250.2773
974.5580, 208.4180
975.6750, 331.1055
976.7920, 236.8867
977.9090, 384.1172
979.0250, 292.4961
980.1410, 261.9023
981.2580, 72.58984
982.3740, 295.1133
983.4890, 88.07812
984.6050, 435.4883
985.7200, 448.2969
986.8360, 342.0898
987.9510, 180.7031
989.0660, 323.1172
990.1810, 396.8789
991.2950, 219.6562
992.4100, 378.4727
993.5240, 606.0469
994.6390, 442.0156
995.7530, 521.5703
996.8660, 667.6836
997.9800, 572.2422
999.0940, 825.7891
1000.207, 733.1562
1001.320, 817.3750
1002.433, 1288.066
1003.546, 1731.699
1004.659, 2026.305
1005.772, 2553.027
1006.884, 3282.160
1007.996, 4775.102
1009.108, 5471.039
1010.220, 6494.312
1011.332, 7320.008
1012.444, 7359.348
1013.555, 6475.332
1014.666, 5315.648
1015.777, 4351.988
1016.888, 3251.266
1017.999, 2492.160
1019.110, 1732.461
1020.220, 1434.344
1021.331, 1232.785
1022.441, 1023.418
1023.551, 897.8086
1024.661, 824.1445
1025.770, 519.2305
1026.880, 531.2539
1027.989, 748.7617
1029.098, 388.2383
1030.207, 492.1797
1031.316, 569.7383
1032.425, 437.8086
1033.533, 281.3789
1034.642, 420.6094
1035.750, 578.7344
1036.858, 516.5273
1037.966, 304.1992
1039.073, 210.9805
1040.181, 428.5859
1041.288, 448.4141
1042.396, 564.2617
1043.503, 496.2383
1044.610, 407.9727
1045.716, 409.7422
1046.823, 510.2617
1047.929, 438.0195
1049.036, 477.3438
1050.142, 441.7266
1051.248, 514.2539
1052.353, 281.5625
1053.459, 349.6523
1054.564, 274.3555
1055.670, 469.1641
1056.775, 286.0039
1057.880, 238.0234
1058.985, 197.4375
1060.089, 302.8750
1061.194, 165.4648
1062.298, 266.2461
1063.402, 444.4023
1064.506, 195.2109
1065.610, 292.4375
1066.713, 458.9492
1067.817, 171.1602
1068.920, 439.5781
1070.023, 245.2148
1071.126, 324.0078
1072.229, 178.0625
1073.332, 316.4141
1074.435, 167.0156
1075.537, 150.4492
1076.639, 106.0977
1077.741, 117.9336
1078.843, 82.40234
1079.945, 247.2266
1081.046, 43.42188
1082.148, 201.8203
1083.249, 7.292969
1084.350, 299.8008
1085.451, 206.3672
1086.551, 1.875000
1087.652, 30.95703
1088.752, 142.4805
1089.853, 203.6602
1090.953, 202.0195
1092.053, 295.3203
1093.152, 153.3984
1094.252, 195.9883
1095.351, 228.8945
1096.451, 61.23047
1097.550, 197.1992
1098.649, 30.76172
1099.748, 196.3320
1100.846, 328.5469
1101.945, 52.14844
1103.043, 141.1641
1104.141, 175.8125
1105.239, 409.4023
1106.337, 77.76953
1107.434, 115.5586
1108.532, 118.1328
1109.629, 301.2344
1110.726, 96.10547
1111.823, 47.82812
1112.920, 75.99219
1114.017, 79.59375
1115.113, 260.4102
1116.210, 128.0664
1117.306, 53.33203
1118.402, 238.5703
1119.498, 53.30859
1120.593, 15.69531
1121.689, 181.7773
1122.784, 158.4922
1123.879, 126.4023
1124.974, 69.91016
1126.069, 23.35547
1127.164, 11.07812
1128.259, 26.66797
1129.353, 0.2382810
1130.447, 55.60156
1131.541, 94.89453
1132.635, 224.1211
1133.729, 181.2891
1134.822, 236.3945
1135.916, 123.4414
1137.009, 329.4336
1138.102, 237.3672
1139.195, 125.7578
1140.288, 364.9688
1141.380, 21.64844
1142.473, 17.26172
1143.565, 445.8047
1144.657, 11.69141
1145.749, 14.26562
1146.841, 309.0781
1147.932, 102.6250
1149.024, 258.5469
1150.115, 164.3359
1151.206, 312.6211
1152.297, 142.5234
1153.388, 18.37500
1154.479, 18.16797
1155.569, 19.89844
1156.659, 7.078125
1157.750, 302.1758
1158.839, 138.7344
1159.929, 12.24609
1161.019, 335.3750
1162.108, 303.0742
1163.198, 68.54688
1164.287, 178.5859
1165.376, 29.97656
1166.465, 147.9609
1167.553, 10.92969
1168.642, 109.1172
1169.730, 174.4141
1170.818, 341.2773
1171.906, 70.01562
1172.994, 78.78516
1174.082, 169.5977
1175.170, 29.36328
1176.257, 66.83203
1177.344, 154.2656
1178.431, 270.8906
1179.518, 125.3594
1180.605, 318.8945
1181.691, 181.3086
1182.778, 2.238281
1183.864, 114.4219
1184.950, 54.32422
1186.036, 42.86719
1187.122, 85.14453
1188.207, 5.664063
1189.292, 258.9453
1190.378, 296.0234
1191.463, 357.5195
1192.548, 363.3164
1193.632, 241.6836
1194.717, 204.7461
1195.801, 340.7656
1196.886, 197.1680
1197.970, 220.1406
1199.054, 338.9805
1200.137, 153.8945
1201.221, 315.9961
1202.305, 67.39844
1203.388, 230.1680
1204.471, 20.50781
1205.554, 117.8555
1206.637, 254.6172
1207.719, 42.75781
1208.802, 271.0000
1209.884, 275.9023
1210.966, 185.7188
1212.048, 190.0391
1213.130, 106.6172
1214.212, 107.1992
1215.293, 16.85156
1216.374, 24.88672
1217.456, 14.85547
1218.536, 127.0938
1219.617, 70.29297
1220.698, 227.7305
1221.778, 275.1445
1222.859, 139.9336
1223.939, 357.1094
1225.019, 246.4453
1226.099, 247.9023
1227.178, 529.0586
1228.258, 35.35938
1229.337, 77.44531
1230.417, 160.7148
1231.496, 169.5273
1232.574, 424.7773
1233.653, 392.7852
1234.732, 178.9297
1235.810, 221.9375
1236.888, 55.44531
1237.966, 319.3984
1239.044, 169.2383
1240.122, 375.8438
1241.199, 11.11328
1242.277, 165.9766
1243.354, 191.5273
1244.431, 277.1172
1245.508, 256.5117
1246.585, 305.3555
1247.661, 292.9258
1248.738, 316.0039
1249.814, 218.3750
1250.890, 440.6758
1251.966, 352.7109
1253.042, 310.6484
1254.117, 431.4531
1255.193, 263.9922
1256.268, 198.9453
1257.343, 73.69531
1258.418, 307.5000
1259.493, 276.0273
1260.567, 434.4688
1261.642, 436.1250
1262.716, 315.3242
1263.790, 187.3398
1264.864, 241.5938
1265.938, 270.3711
1267.011, 361.9844
1268.085, 542.2422
1269.158, 479.4609
1270.231, 305.7812
1271.304, 427.8359
1272.377, 270.7461
1273.450, 198.3164
1274.522, 243.0859
1275.594, 125.3047
1276.666, 309.4180
1277.738, 36.17969
1278.810, 147.5898
1279.882, 139.5859
1280.953, 269.2578
1282.025, 202.2148
1283.096, 415.5625
1284.167, 322.9453
1285.238, 402.4023
1286.308, 442.4922
1287.379, 191.1719
1288.449, 381.1875
1289.519, 236.5742
1290.589, 27.86328
1291.659, 421.6992
1292.729, 231.4102
1293.798, 175.6484
1294.868, 352.9180
1295.937, 261.0938
1297.006, 353.6641
1298.075, 353.7109
1299.143, 101.0508
1300.212, 470.6758
1301.280, 413.6211
1302.348, 86.63672
1303.416, 63.04688
1304.484, 241.8984
1305.552, 240.9258
1306.620, 182.3438
1307.687, 268.0352
1308.754, 307.3828
1309.821, 371.0977
1310.888, 249.7305
1311.955, 329.3398
1313.021, 193.7461
1314.088, 583.9414
1315.154, 473.1172
1316.220, 641.5078
1317.286, 443.5859
1318.352, 446.4375
1319.417, 658.3164
1320.483, 591.2227
1321.548, 713.1523
1322.613, 722.0938
1323.678, 446.0391
1324.743, 675.9961
1325.807, 616.9609
1326.872, 749.9414
1327.936, 506.9297
1329.000, 714.9336
1330.064, 644.9453
1331.128, 596.7695
1332.191, 831.8086
1333.255, 810.5352
1334.318, 707.2148
1335.381, 767.3008
1336.444, 696.0469
1337.507, 852.1758
1338.569, 732.3164
1339.632, 650.4766
1340.694, 897.6797
1341.756, 566.9023
1342.818, 722.1562
1343.880, 384.5391
1344.941, 564.5469
1346.003, 637.5703
1347.064, 723.9258
1348.125, 774.2656
1349.186, 448.6680
1350.247, 1002.086
1351.308, 504.5273
1352.368, 742.9844
1353.428, 972.4688
1354.489, 699.9766
1355.549, 879.3750
1356.608, 739.0625
1357.668, 795.6875
1358.727, 596.3398
1359.787, 427.0156
1360.846, 821.7148
1361.905, 548.4453
1362.964, 715.1953
1364.022, 746.9648
1365.081, 487.0898
1366.139, 785.9180
1367.197, 331.7695
1368.255, 644.6484
1369.313, 627.4102
1370.371, 506.4062
1371.428, 712.4336
1372.486, 694.4766
1373.543, 750.5430
1374.600, 667.6445
1375.657, 683.7734
1376.713, 704.9336
1377.770, 672.1211
1378.826, 600.3516
1379.882, 329.6133
1380.938, 403.9023
1381.994, 577.2266
1383.050, 244.5781
1384.106, 586.9805
1385.161, 435.4219
1386.216, 451.9141
1387.271, 392.4492
1388.326, 546.0117
1389.381, 173.6094
1390.435, 500.2344
1391.490, 324.8906
1392.544, 471.5742
1393.598, 502.0273
1394.652, 480.0508
1395.705, 473.8359
1396.759, 329.6953
1397.812, 206.5859
1398.866, 598.5156
1399.919, 54.48438
1400.972, 420.4922
1402.024, 371.5430
1403.077, 206.6445
1404.129, 102.7812
1405.181, 101.9883
1406.233, 198.2344
1407.285, 18.42969
1408.337, 269.9375
1409.389, 512.3477
1410.440, 306.8047
1411.491, 561.3047
1412.542, 197.8438
1413.593, 359.4531
1414.644, 351.0898
1415.695, 187.7656
1416.745, 78.49219
1417.795, 225.9844
1418.845, 21.79297
1419.895, 121.3242
1420.945, 407.5977
1421.995, 233.5781
1423.044, 283.6406
1424.093, 271.7305
1425.142, 292.8789
1426.191, 228.8203
1427.240, 191.3203
1428.289, 117.0625
1429.337, 110.0000
1430.385, 159.4258
1431.433, 252.9141
1432.481, 255.4609
1433.529, 367.5312
1434.577, 433.0195
1435.624, 237.2031
1436.672, 512.0195
1437.719, 508.9141
1438.766, 351.8906
1439.812, 551.7344
1440.859, 558.8828
1441.905, 182.4727
1442.952, 239.1562
1443.998, 393.5273
1445.044, 309.8125
1446.090, 573.5078
1447.135, 302.8750
1448.181, 424.0078
1449.226, 131.3164
1450.271, 361.7930
1451.316, 427.3125
1452.361, 363.8828
1453.405, 174.4961
1454.450, 445.1602
1455.494, 291.9453
1456.538, 18.22656
1457.582, 33.66016
1458.626, 430.5859
1459.670, 254.5703
1460.713, 231.6172
1461.757, 164.7148
1462.800, 73.86328
1463.843, 129.5156
1464.886, 283.3164
1465.928, 258.6250
1466.971, 158.9844
1468.013, 283.3945
1469.055, 264.8594
1470.097, 399.3906
1471.139, 260.9883
1472.181, 395.6328
1473.222, 296.3438
1474.263, 303.1016
1475.305, 180.9258
1476.346, 234.9414
1477.386, 377.7266
1478.427, 351.7070
1479.468, 385.7539
1480.508, 488.8477
1481.548, 452.0078
1482.588, 474.4336
1483.628, 228.4805
1484.668, 415.8047
1485.707, 394.1875
1486.747, 309.6289
1487.786, 594.1211
1488.825, 399.6758
1489.864, 362.2812
1490.902, 341.7578
1491.941, 452.4727
1492.979, 263.2383
1494.017, 268.0625
1495.055, 292.9375
1496.093, 148.8633
1497.131, 347.6367
1498.168, 603.6250
1499.206, 687.6562
1500.243, 499.7461
1501.280, 222.8750
1502.317, 267.0469
1503.354, 152.2578
1504.390, 424.5000
1505.426, 257.7734
1506.463, 568.0859
1507.499, 266.3750
1508.535, 365.6797
1509.570, 599.0000
1510.606, 497.3008
1511.641, 367.6641
1512.676, 347.1289
1513.711, 384.6875
1514.746, 317.6367
1515.781, 237.8164
1516.816, 366.6523
1517.850, 273.5859
1518.884, 461.6133
1519.918, 407.7383
1520.952, 404.9648
1521.986, 516.2852
1523.019, 450.4414
1524.053, 463.4570
1525.086, 400.8711
1526.119, 380.5977
1527.152, 311.4375
1528.185, 204.3828
1529.217, 220.4336
1530.250, 182.3516
1531.282, 427.8828
1532.314, 180.2734
1533.346, 54.78125
1534.377, 22.96094
1535.409, 306.2344
1536.440, 244.2188
1537.472, 2.652344
1538.503, 353.6250
1539.534, 244.0586
1540.564, 49.66016
1541.595, 129.4453
1542.625, 155.4297
1543.656, 42.62500
1544.686, 73.95703
1545.716, 91.93359
1546.745, 19.60156
1547.775, 165.7578
1548.804, 197.1680
1549.834, 212.8672
1550.863, 128.8594
1551.892, 273.1719
1552.920, 127.8203
1553.949, 251.8320
1554.977, 392.2422
1556.006, 413.9375
1557.034, 12.21094
1558.062, 165.9844
1559.089, 84.29688
1560.117, 285.9219
1561.144, 243.4414
1562.172, 201.6602
1563.199, 23.33594
1564.226, 431.5391
1565.252, 136.2422
1566.279, 147.6953
1567.305, 530.6992
1568.332, 201.1406
1569.358, 0.2343750
1570.384, 139.3516
1571.409, 68.67188
1572.435, 0.0000000E+00
##END=



