##NAMES=Diopside
##RRUFFID=R050666
##IDEAL CHEMISTRY=CaMgSi_2_O_6_
##LOCALITY=Franklin, Sussex County, New Jersey, USA
##OWNER=RRUFF
##SOURCE=University of Arizona Mineral Museum
##DESCRIPTION=Brown cleavage fragment with white hardystonite
##STATUS=The identification of this mineral has been confirmed by X-ray diffraction and chemical analysis
##URL=rruff.info/R050666
##MEASURED CHEMISTRY=Ca(Mg_0.66_Mn_0.33_Fe_0.01_)Si_2_O_6_
##PIN_ID=L00536
##ORIENTATION=Laser parallel to c* (0 0 1). Fiducial mark perpendicular to laser is parallel to -a [-1 0 0]
109.5120, 0.0000000E+00
110.7440, 4.4434000E-02
111.9760, 7.686035
113.2080, 95.47070
114.4400, 189.9973
115.6710, 206.1421
116.9030, 70.10864
118.1340, 129.6191
119.3650, 5.614746
120.5960, 269.9788
121.8270, 138.1094
123.0580, 147.8538
124.2880, 246.2598
125.5190, 263.9983
126.7490, 546.6624
127.9790, 745.9282
129.2090, 1048.110
130.4390, 1223.013
131.6680, 1402.739
132.8980, 1441.523
134.1270, 1351.075
135.3560, 1127.825
136.5850, 951.8086
137.8140, 821.9514
139.0430, 643.1885
140.2710, 452.3696
141.5000, 245.3484
142.7280, 102.5510
143.9560, 55.26318
145.1840, 59.28003
146.4120, 19.33813
147.6390, 59.42090
148.8670, 3.365479
150.0940, 73.31689
151.3210, 184.1907
152.5490, 167.7751
153.7750, 157.2498
155.0020, 114.9202
156.2290, 64.35132
157.4550, 75.77832
158.6810, 53.89209
159.9080, 18.95508
161.1340, 49.35156
162.3590, 6.523682
163.5850, 81.44092
164.8110, 107.5002
166.0360, 65.82227
167.2610, 64.71875
168.4860, 33.27075
169.7110, 158.9421
170.9360, 140.6401
172.1610, 247.3621
173.3850, 175.1057
174.6100, 125.8677
175.8340, 114.6462
177.0580, 97.81470
178.2820, 98.24976
179.5050, 116.0730
180.7290, 103.9097
181.9520, 111.7595
183.1760, 91.65112
184.3990, 111.5955
185.6220, 76.57153
186.8450, 103.5771
188.0670, 62.59644
189.2900, 10.36768
190.5120, 2.692383
191.7340, 0.2253420
192.9560, 33.87646
194.1780, 49.99390
195.4000, 37.13110
196.6220, 25.28735
197.8430, 55.49146
199.0640, 93.71631
200.2860, 177.9458
201.5070, 113.1895
202.7270, 149.4644
203.9480, 78.73315
205.1690, 53.00513
206.3890, 16.72339
207.6090, 12.54346
208.8290, 32.78564
210.0490, 14.01904
211.2690, 7.751953
212.4890, 6.468994
213.7080, 15.68799
214.9280, 3.907959
216.1470, 55.86719
217.3660, 2.638184
218.5850, 45.59082
219.8030, 40.15210
221.0220, 9.849854
222.2400, 26.49268
223.4590, 36.86011
224.6770, 32.23145
225.8950, 31.63403
227.1120, 66.06299
228.3300, 127.5076
229.5480, 124.9609
230.7650, 195.4094
231.9820, 230.8394
233.1990, 194.2607
234.4160, 190.6689
235.6330, 140.0684
236.8490, 134.4268
238.0660, 113.7676
239.2820, 144.0872
240.4980, 144.4021
241.7140, 136.7136
242.9300, 222.0247
244.1460, 209.3362
245.3610, 170.6479
246.5770, 216.9602
247.7920, 205.5132
249.0070, 238.5864
250.2220, 243.9001
251.4370, 309.2144
252.6510, 351.5286
253.8660, 337.8435
255.0800, 317.1597
256.2940, 399.1431
257.5080, 546.0571
258.7220, 481.7759
259.9360, 679.9736
261.1490, 434.1528
262.3630, 327.3027
263.5760, 296.0190
264.7890, 339.9729
266.0020, 345.6819
267.2150, 295.7266
268.4270, 394.6606
269.6400, 365.6118
270.8520, 341.5728
272.0640, 352.5083
273.2760, 371.4019
274.4880, 364.2473
275.7000, 354.0383
276.9120, 355.8076
278.1230, 396.5637
279.3340, 389.2983
280.5450, 406.5891
281.7560, 387.2693
282.9670, 447.0845
284.1780, 440.5586
285.3880, 464.2427
286.5980, 480.0439
287.8090, 596.7485
289.0190, 581.2510
290.2290, 708.4614
291.4380, 738.9141
292.6480, 798.8967
293.8570, 900.0071
295.0670, 1029.699
296.2760, 1265.917
297.4850, 1421.397
298.6930, 1698.870
299.9020, 1960.334
301.1110, 2265.708
302.3190, 2549.875
303.5270, 2940.092
304.7350, 3370.193
305.9430, 3706.861
307.1510, 4287.929
308.3580, 4755.758
309.5660, 5255.886
310.7730, 5660.081
311.9800, 5928.094
313.1870, 6166.106
314.3940, 6142.996
315.6010, 5738.327
316.8070, 5090.663
318.0130, 4603.003
319.2200, 3943.345
320.4260, 3431.737
321.6310, 2795.554
322.8370, 2459.887
324.0430, 2190.199
325.2480, 1926.511
326.4540, 1732.780
327.6590, 1534.524
328.8640, 1477.756
330.0680, 1394.104
331.2730, 1327.304
332.4780, 1427.664
333.6820, 1539.089
334.8860, 1548.472
336.0900, 1700.158
337.2940, 1840.111
338.4980, 2138.812
339.7010, 2380.842
340.9050, 2740.282
342.1080, 3122.567
343.3110, 3544.903
344.5140, 3931.358
345.7170, 4175.846
346.9200, 4295.226
348.1220, 4373.606
349.3240, 4259.871
350.5270, 4129.033
351.7290, 3715.188
352.9310, 3390.187
354.1320, 3163.273
355.3340, 2837.285
356.5350, 2576.953
357.7370, 2363.940
358.9380, 2035.969
360.1390, 1956.954
361.3400, 1831.770
362.5400, 1747.677
363.7410, 1836.846
364.9410, 1800.688
366.1410, 1913.330
367.3410, 1972.428
368.5410, 2229.572
369.7410, 2535.700
370.9400, 2947.826
372.1400, 3459.099
373.3390, 4127.479
374.5380, 4822.858
375.7370, 5881.236
376.9360, 6580.615
378.1350, 7809.994
379.3330, 8725.370
380.5310, 9359.750
381.7300, 9356.128
382.9280, 8765.508
384.1260, 7745.884
385.3230, 6489.263
386.5210, 5449.645
387.7180, 4357.023
388.9160, 3390.404
390.1130, 2770.785
391.3100, 2167.167
392.5060, 1734.549
393.7030, 1308.933
394.9000, 1039.316
396.0960, 789.7004
397.2920, 643.0859
398.4880, 614.4712
399.6840, 477.8574
400.8800, 486.2290
402.0750, 317.5994
403.2710, 307.9683
404.4660, 269.3345
405.6610, 273.6978
406.8560, 254.0583
408.0510, 213.4182
409.2450, 242.7756
410.4400, 202.1367
411.6340, 177.4954
412.8280, 170.8521
414.0220, 131.2065
415.2160, 112.5586
416.4100, 107.9089
417.6030, 98.62622
418.7970, 66.60376
419.9900, 100.9492
421.1830, 104.2927
422.3760, 92.87207
423.5690, 7.024170
424.7610, 38.30981
425.9540, 1.642334
427.1460, 29.02808
428.3380, 16.71655
429.5300, 0.5837400
430.7220, 11.88062
431.9140, 15.17554
433.1050, 36.46948
434.2970, 19.23608
435.4880, 44.04712
436.6790, 45.66821
437.8700, 35.59155
439.0610, 42.85425
440.2510, 89.11768
441.4420, 55.37988
442.6320, 115.6421
443.8220, 143.9041
445.0120, 217.1663
446.2020, 229.4380
447.3910, 237.7112
448.5810, 250.9900
449.7700, 294.2773
450.9600, 305.5664
452.1490, 251.8582
453.3370, 226.1545
454.5260, 183.5063
455.7150, 211.8325
456.9030, 157.1584
458.0910, 194.4678
459.2800, 119.7766
460.4670, 69.09326
461.6550, 83.40942
462.8430, 24.73022
464.0300, 5.948975
465.2180, 14.36646
466.4050, 21.68091
467.5920, 89.99536
468.7790, 70.98340
469.9650, 37.37476
471.1520, 54.91870
472.3380, 30.78735
473.5250, 62.51147
474.7110, 15.27051
475.8970, 19.04004
477.0820, 31.82153
478.2680, 27.61743
479.4540, 7.571533
480.6390, 8.293701
481.8240, 45.05566
483.0090, 2.897705
484.1940, 34.74390
485.3780, 17.60913
486.5630, 5.516846
487.7470, 32.35815
488.9320, 72.74756
490.1160, 68.85254
491.3000, 75.95703
492.4830, 103.0603
493.6670, 112.3257
494.8500, 122.2937
496.0340, 161.4136
497.2170, 202.5332
498.4000, 245.6643
499.5820, 206.7971
500.7650, 236.9302
501.9480, 221.0662
503.1300, 268.2026
504.3120, 230.3625
505.4940, 188.5237
506.6760, 171.7009
507.8580, 142.8979
509.0390, 114.1113
510.2210, 185.3271
511.4020, 173.5430
512.5830, 129.7622
513.7640, 204.9829
514.9450, 182.2161
516.1250, 261.4512
517.3060, 226.6890
518.4860, 274.9304
519.6660, 303.1887
520.8460, 336.4722
522.0260, 377.7588
523.2060, 396.0435
524.3850, 410.2610
525.5650, 410.6531
526.7440, 403.9602
527.9230, 351.2759
529.1020, 308.6030
530.2810, 261.9417
531.4590, 203.2781
532.6380, 233.6252
533.8160, 266.9844
534.9940, 207.3425
536.1720, 169.7146
537.3500, 224.0850
538.5270, 262.4546
539.7050, 265.8215
540.8820, 324.1860
542.0590, 403.5474
543.2360, 405.9060
544.4130, 556.2615
545.5900, 665.6143
546.7660, 820.9663
547.9430, 1100.315
549.1190, 1302.661
550.2950, 1590.004
551.4710, 1820.344
552.6470, 1928.680
553.8220, 1911.013
554.9980, 1807.343
556.1730, 1638.670
557.3480, 1374.992
558.5230, 1138.312
559.6980, 843.6284
560.8730, 783.9407
562.0470, 623.2498
563.2220, 453.5552
564.3960, 406.8569
565.5700, 275.5742
566.7440, 327.8374
567.9170, 300.9351
569.0910, 225.3506
570.2640, 230.5286
571.4380, 199.5786
572.6110, 179.7156
573.7840, 169.8184
574.9570, 136.0967
576.1290, 131.0986
577.3020, 106.3577
578.4740, 69.69141
579.6460, 71.90845
580.8180, 113.1528
581.9900, 69.39795
583.1620, 145.6392
584.3330, 51.00171
585.5040, 76.30688
586.6760, 83.64600
587.8470, 77.98779
589.0180, 46.26245
590.1880, 41.71484
591.3590, 67.10571
592.5290, 44.45703
593.7000, 54.56470
594.8700, 26.77148
596.0400, 35.15649
597.2090, 35.65747
598.3790, 45.06714
599.5490, 53.24390
600.7180, 62.12402
601.8870, 87.34814
603.0560, 119.5532
604.2250, 123.5928
605.3940, 175.4988
606.5620, 159.6277
607.7300, 184.8135
608.8990, 242.0989
610.0670, 227.3350
611.2350, 304.1562
612.4020, 241.4609
613.5700, 285.6643
614.7370, 313.7517
615.9050, 345.8530
617.0720, 352.6577
618.2390, 428.7107
619.4060, 484.9788
620.5720, 549.0039
621.7390, 569.4463
622.9050, 640.5967
624.0710, 667.2810
625.2370, 724.1821
626.4030, 755.6460
627.5690, 879.6814
628.7340, 913.8186
629.9000, 1049.965
631.0650, 1122.071
632.2300, 1199.098
633.3950, 1268.711
634.5600, 1422.851
635.7240, 1544.979
636.8890, 1658.983
638.0530, 1787.485
639.2170, 2100.479
640.3810, 2384.467
641.5450, 2618.996
642.7080, 3040.020
643.8720, 3496.222
645.0350, 4238.281
646.1980, 4928.100
647.3610, 5891.343
648.5240, 7306.649
649.6870, 8791.190
650.8490, 10582.21
652.0120, 12963.99
653.1740, 15721.28
654.3360, 18997.32
655.4980, 22370.92
656.6600, 25600.82
657.8210, 28219.84
658.9830, 29310.08
660.1440, 29303.20
661.3050, 27499.18
662.4660, 24502.13
663.6270, 21112.94
664.7870, 17534.31
665.9480, 14827.00
667.1080, 12117.20
668.2680, 9999.231
669.4280, 8122.017
670.5880, 6674.888
671.7480, 5559.759
672.9070, 4603.707
674.0670, 3861.680
675.2260, 3428.283
676.3850, 2977.123
677.5440, 2541.142
678.7030, 2237.931
679.8610, 1904.643
681.0200, 1689.344
682.1780, 1543.035
683.3360, 1400.716
684.4940, 1207.386
685.6520, 1145.468
686.8090, 1089.128
687.9670, 901.7676
689.1240, 934.3960
690.2810, 809.0142
691.4380, 738.6221
692.5950, 682.2192
693.7520, 635.8059
694.9080, 589.6562
696.0650, 558.0571
697.2210, 521.5037
698.3770, 500.0486
699.5330, 477.5833
700.6880, 437.3025
701.8440, 364.6211
702.9990, 345.1240
704.1550, 272.6167
705.3100, 240.1018
706.4650, 253.5769
707.6190, 217.0422
708.7740, 155.5059
709.9290, 260.9641
711.0830, 142.4136
712.2370, 138.8533
713.3910, 146.2827
714.5450, 110.7024
715.6980, 109.2092
716.8520, 106.5217
718.0050, 77.92896
719.1580, 114.3259
720.3110, 99.71216
721.4640, 122.0886
722.6170, 41.45459
723.7700, 53.80908
724.9220, 13.84717
726.0740, 42.46729
727.2260, 2.770264
728.3780, 25.05347
729.5300, 28.32373
730.6810, 34.58179
731.8330, 4.829102
732.9840, 66.05713
734.1350, 2.220459
735.2860, 44.39551
736.4370, 10.56104
737.5880, 66.73169
738.7380, 9.107666
739.8880, 52.02783
741.0390, 1.152344
742.1890, 26.25708
743.3380, 44.35059
744.4880, 40.43628
745.6380, 32.51172
746.7870, 26.57642
747.9360, 36.63013
749.0850, 29.67310
750.2340, 21.71582
751.3830, 32.74683
752.5310, 70.77637
753.6800, 45.81372
754.8280, 61.84619
755.9760, 45.87451
757.1240, 55.90259
758.2720, 37.92920
759.4190, 49.94629
760.5670, 78.95679
761.7140, 83.97095
762.8610, 29.97754
764.0080, 4.984131
765.1550, 23.98096
766.3020, 15.96802
767.4480, 27.95312
768.5950, 35.92822
769.7410, 65.89380
770.8870, 28.14990
772.0330, 22.77466
773.1780, 23.68896
774.3240, 90.59399
775.4690, 27.51025
776.6140, 75.35449
777.7590, 53.21094
778.9040, 3.058838
780.0490, 36.89233
781.1940, 24.28271
782.3380, 24.51392
783.4820, 50.69873
784.6260, 25.95288
785.7700, 43.23560
786.9140, 0.4443360
788.0580, 23.10962
789.2010, 4.233643
790.3450, 3.406982
791.4880, 40.96460
792.6310, 2.371338
793.7730, 7.792725
794.9160, 10.23120
796.0590, 61.68823
797.2010, 92.19067
798.3430, 10.75366
799.4850, 12.66504
800.6270, 72.92383
801.7690, 2.562744
802.9100, 8.214111
804.0520, 32.74951
805.1930, 46.44482
806.3340, 43.17456
807.4750, 10.06299
808.6160, 45.70679
809.7560, 47.51001
810.8970, 0.3476560
812.0370, 59.19385
813.1770, 1.920166
814.3170, 2.972900
815.4570, 5.124512
816.5960, 29.02026
817.7360, 24.94849
818.8750, 49.38379
820.0140, 19.46021
821.1530, 25.53125
822.2920, 8.402100
823.4310, 10.65454
824.5690, 58.70654
825.7070, 27.75415
826.8460, 68.79712
827.9840, 132.8362
829.1220, 101.8706
830.2590, 158.9009
831.3970, 186.9272
832.5340, 110.9500
833.6710, 201.9685
834.8080, 280.9834
835.9450, 412.9951
837.0820, 476.0029
838.2190, 660.0076
839.3550, 819.0088
840.4910, 1068.006
841.6270, 1474.001
842.7630, 1933.994
843.8990, 2299.982
845.0350, 2758.969
846.1700, 3207.952
847.3060, 3382.933
848.4410, 3315.911
849.5760, 2895.887
850.7100, 2488.860
851.8450, 2082.832
852.9800, 1677.801
854.1140, 1446.768
855.2480, 1127.732
856.3820, 913.6953
857.5160, 796.6567
858.6500, 669.6160
859.7830, 570.4482
860.9170, 522.3320
862.0500, 430.1770
863.1830, 404.0134
864.3160, 362.7905
865.4480, 308.6270
866.5810, 331.3982
867.7130, 298.2041
868.8460, 318.2485
869.9780, 307.1882
871.1100, 247.1016
872.2410, 235.9539
873.3730, 293.3013
874.5050, 208.2505
875.6360, 278.4912
876.7670, 269.3835
877.8980, 202.2896
879.0290, 248.0786
880.1590, 178.9468
881.2900, 195.8010
882.4200, 190.6252
883.5500, 203.4277
884.6800, 217.2759
885.8100, 249.0977
886.9400, 170.8682
888.0690, 205.7102
889.1990, 180.6719
890.3280, 258.5762
891.4570, 185.5413
892.5860, 158.4529
893.7140, 141.4104
894.8430, 216.2966
895.9710, 218.2368
897.1000, 190.2114
898.2280, 226.1882
899.3560, 205.0674
900.4830, 241.4587
901.6110, 246.3213
902.7380, 262.1150
903.8660, 294.0029
904.9930, 333.9424
906.1200, 250.9590
907.2460, 292.3862
908.3730, 269.2896
909.5000, 304.2019
910.6260, 290.2410
911.7520, 268.7971
912.8780, 261.8813
914.0040, 285.9871
915.1290, 192.5498
916.2550, 257.6167
917.3800, 211.5029
918.5050, 266.5488
919.6300, 279.8320
920.7550, 203.6926
921.8800, 254.4946
923.0040, 177.0601
924.1290, 212.1523
925.2530, 151.4741
926.3770, 178.2996
927.5010, 140.3767
928.6250, 189.9038
929.7480, 199.1162
930.8720, 165.2007
931.9950, 85.08130
933.1180, 91.07544
934.2410, 63.21045
935.3640, 43.38574
936.4860, 45.70361
937.6090, 21.47754
938.7310, 15.07056
939.8530, 71.86768
940.9750, 47.98315
942.0970, 37.33813
943.2180, 89.61328
944.3400, 91.89624
945.4610, 136.1038
946.5820, 135.2947
947.7030, 77.87231
948.8240, 135.2354
949.9450, 75.42310
951.0650, 146.8396
952.1860, 211.3337
953.3060, 203.8420
954.4260, 219.3638
955.5460, 278.8955
956.6650, 308.4368
957.7850, 307.5662
958.9040, 263.1169
960.0230, 286.6890
961.1420, 317.2712
962.2610, 320.8638
963.3800, 332.4666
964.4990, 379.0806
965.6170, 408.7051
966.7350, 496.3430
967.8530, 425.9915
968.9710, 412.6504
970.0890, 457.3206
971.2070, 524.0012
972.3240, 582.6924
973.4410, 528.3940
974.5580, 621.1062
975.6750, 667.8284
976.7920, 737.5618
977.9090, 830.3066
979.0250, 765.0620
980.1410, 843.8286
981.2580, 917.6108
982.3740, 989.4036
983.4890, 1040.207
984.6050, 1149.021
985.7200, 1153.846
986.8360, 1306.683
987.9510, 1418.530
989.0660, 1606.389
990.1810, 1709.259
991.2950, 1875.140
992.4100, 2210.032
993.5240, 2505.936
994.6390, 2811.851
995.7530, 3207.777
996.8660, 3806.724
997.9800, 4505.681
999.0940, 5497.656
1000.207, 6648.641
1001.320, 8107.640
1002.433, 10160.65
1003.546, 12603.67
1004.659, 16240.71
1005.772, 20930.76
1006.884, 27237.83
1007.996, 34981.91
1009.108, 42928.99
1010.220, 51312.10
1011.332, 56198.22
1012.444, 56872.36
1013.555, 52071.50
1014.666, 43462.66
1015.777, 34773.84
1016.888, 26619.01
1017.999, 20204.21
1019.110, 15327.41
1020.220, 11833.63
1021.331, 9532.861
1022.441, 7822.102
1023.551, 6606.354
1024.661, 5820.619
1025.770, 5302.896
1026.880, 5027.183
1027.989, 4728.482
1029.098, 4733.792
1030.207, 4723.112
1031.316, 4808.446
1032.425, 5057.904
1033.533, 5326.259
1034.642, 6005.628
1035.750, 6646.007
1036.858, 7493.399
1037.966, 8263.782
1039.073, 8773.195
1040.181, 11787.62
1041.288, 9907.800
1042.396, 11377.26
1043.503, 7202.128
1044.610, 5303.293
1045.716, 4490.762
1046.823, 3763.511
1047.929, 3068.028
1049.036, 2560.670
1050.142, 2183.240
1051.248, 1954.778
1052.353, 1766.346
1053.459, 1449.778
1054.564, 1385.447
1055.670, 1298.084
1056.775, 1144.663
1057.880, 1102.321
1058.985, 969.3613
1060.089, 919.6963
1061.194, 957.0193
1062.298, 771.7349
1063.402, 763.4636
1064.506, 745.2061
1065.610, 673.0149
1066.713, 543.8191
1067.817, 568.2847
1068.920, 516.0366
1070.023, 523.7922
1071.126, 547.7114
1072.229, 531.9277
1073.332, 525.3928
1074.435, 484.3091
1075.537, 502.5842
1076.639, 509.5339
1077.741, 481.6729
1078.843, 501.8081
1079.945, 459.8762
1081.046, 479.3396
1082.148, 439.1611
1083.249, 472.4104
1084.350, 470.4456
1085.451, 430.4006
1086.551, 413.1592
1087.652, 423.2734
1088.752, 391.3291
1089.853, 363.4800
1090.953, 404.6140
1092.053, 424.6870
1093.152, 457.7986
1094.252, 450.9075
1095.351, 408.0383
1096.451, 382.3054
1097.550, 355.4678
1098.649, 351.2261
1099.748, 441.4236
1100.846, 407.6123
1101.945, 452.7944
1103.043, 375.9690
1104.141, 381.0889
1105.239, 377.2124
1106.337, 329.3403
1107.434, 372.4709
1108.532, 405.6514
1109.629, 381.9595
1110.726, 415.1155
1111.823, 438.4028
1112.920, 334.5034
1114.017, 368.6802
1115.113, 446.8335
1116.210, 567.9893
1117.306, 502.1479
1118.402, 625.4192
1119.498, 682.5833
1120.593, 647.4717
1121.689, 666.9812
1122.784, 619.3911
1123.879, 581.5645
1124.974, 575.8101
1126.069, 531.9875
1127.164, 507.1665
1128.259, 359.3474
1129.353, 385.5303
1130.447, 366.7146
1131.541, 324.9004
1132.635, 365.0874
1133.729, 379.2759
1134.822, 218.4651
1135.916, 183.6558
1137.009, 280.8472
1138.102, 256.0396
1139.195, 301.2327
1140.288, 210.4265
1141.380, 194.6211
1142.473, 246.8162
1143.565, 173.0112
1144.657, 155.2068
1145.749, 131.4023
1146.841, 108.5984
1147.932, 182.0107
1149.024, 156.2065
1150.115, 106.4138
1151.206, 61.71411
1152.297, 4.908691
1153.388, 26.10303
1154.479, 9.922852
1155.569, 16.52930
1156.659, 23.13696
1157.750, 45.33447
1158.839, 20.53076
1159.929, 25.72632
1161.019, 31.92041
1162.108, 4.113281
1163.198, 39.69507
1164.287, 49.47632
1165.376, 43.64600
1166.465, 3.813965
1167.553, 18.97974
1168.642, 50.85547
1169.730, 24.28125
1170.818, 24.41577
1171.906, 13.45142
1172.994, 80.67188
1174.082, 23.20703
1175.170, 59.09644
1176.257, 79.01782
1177.344, 66.98413
1178.431, 41.01147
1179.518, 1.004150
1180.605, 5.991943
1181.691, 61.02368
1182.778, 19.92285
1183.864, 10.13403
1184.950, 13.20215
1186.036, 22.71631
1187.122, 10.36914
1188.207, 32.53247
1189.292, 16.56958
1190.378, 20.68848
1191.463, 3.826660
1192.548, 55.02417
1193.632, 33.87061
1194.717, 52.89062
1195.801, 17.55054
1196.886, 64.38281
1197.970, 49.78955
1199.054, 21.99878
1200.137, 21.22998
1201.221, 18.51587
1202.305, 2.256348
1203.388, 0.9868160
1204.471, 41.70581
1205.554, 10.58105
1206.637, 20.88599
1207.719, 10.78564
1208.802, 22.55151
1209.884, 52.91357
1210.966, 80.31714
1212.048, 6.223389
1213.130, 11.75708
1214.212, 57.28174
1215.293, 1.200195
1216.374, 2.302979
1217.456, 27.79248
1218.536, 71.27515
1219.617, 22.75122
1220.698, 29.22046
1221.778, 49.68335
1222.859, 38.14014
1223.939, 40.58691
1225.019, 37.10059
1226.099, 18.47168
1227.178, 32.89966
1228.258, 6.320313
1229.337, 27.72778
1230.417, 31.47363
1231.496, 34.51855
1232.574, 37.90283
1233.653, 54.27905
1234.732, 54.53345
1235.810, 68.01050
1236.888, 55.36670
1237.966, 43.71533
1239.044, 24.05615
1240.122, 52.38818
1241.199, 26.71313
1242.277, 4.029053
1243.354, 51.32861
1244.431, 58.62085
1245.508, 76.90552
1246.585, 68.18237
1247.661, 33.45996
1248.738, 73.72974
1249.814, 144.9924
1250.890, 22.24756
1251.966, 78.49194
1253.042, 106.7288
1254.117, 45.95703
1255.193, 89.17725
1256.268, 93.38940
1257.343, 117.5933
1258.418, 130.7893
1259.493, 102.9771
1260.567, 78.15649
1261.642, 178.3276
1262.716, 170.4912
1263.790, 113.6462
1264.864, 153.7932
1265.938, 73.93213
1267.011, 112.0625
1268.085, 129.1860
1269.158, 158.3010
1270.231, 147.4080
1271.304, 98.50684
1272.377, 100.5967
1273.450, 113.6787
1274.522, 78.75195
1275.594, 186.8652
1276.666, 33.92310
1277.738, 131.9705
1278.810, 70.01416
1279.882, 48.04907
1280.953, 145.0747
1282.025, 144.0913
1283.096, 208.2336
1284.167, 65.26929
1285.238, 26.26074
1286.308, 120.5413
1287.379, 152.5110
1288.449, 78.47217
1289.519, 126.4248
1290.589, 154.4185
1291.659, 94.43945
1292.729, 100.2791
1293.798, 116.1960
1294.868, 141.1050
1295.937, 151.0049
1297.006, 95.08789
1298.075, 117.0103
1299.143, 99.88354
1300.212, 124.8926
1301.280, 159.0293
1302.348, 142.9937
1303.416, 151.4380
1304.484, 113.4343
1305.552, 129.4958
1306.620, 132.3767
1307.687, 140.2314
1308.754, 99.91626
1309.821, 151.6743
1310.888, 133.5051
1311.955, 183.2810
1313.021, 233.3027
1314.088, 244.1052
1315.154, 190.8574
1316.220, 213.6716
1317.286, 276.4087
1318.352, 205.7693
1319.417, 293.8386
1320.483, 257.9333
1321.548, 204.6382
1322.613, 255.3342
1323.678, 252.0203
1324.743, 219.6602
1325.807, 268.3323
1326.872, 210.3501
1327.936, 246.0833
1329.000, 197.8359
1330.064, 245.4287
1331.128, 255.5991
1332.191, 153.6636
1333.255, 159.2935
1334.318, 120.5789
1335.381, 184.1914
1336.444, 174.6301
1337.507, 163.0874
1338.569, 116.6150
1339.632, 168.3994
1340.694, 144.4995
1341.756, 177.8687
1342.818, 108.4531
1343.880, 171.1182
1344.941, 162.0374
1346.003, 147.5444
1347.064, 158.1479
1348.125, 146.7473
1349.186, 97.45483
1350.247, 219.1956
1351.308, 142.9209
1352.368, 175.5032
1353.428, 141.0964
1354.489, 169.4790
1355.549, 141.9446
1356.608, 118.8140
1357.668, 100.2444
1358.727, 104.7910
1359.787, 129.2366
1360.846, 122.6897
1361.905, 144.1975
1362.964, 124.7791
1364.022, 148.6208
1365.081, 118.0339
1366.139, 167.4795
1367.197, 145.7964
1368.255, 115.4558
1369.313, 133.7832
1370.371, 121.2971
1371.428, 130.8438
1372.486, 122.3030
1373.543, 157.7583
1374.600, 54.17871
1375.657, 153.6362
1376.713, 143.3701
1377.770, 94.82178
1378.826, 153.9360
1379.882, 136.3486
1380.938, 80.75757
1381.994, 118.1160
1383.050, 154.5168
1384.106, 152.9143
1385.161, 90.30908
1386.216, 136.7002
1387.271, 122.0889
1388.326, 96.47437
1389.381, 132.8572
1390.435, 114.2371
1391.490, 100.6145
1392.544, 97.98926
1393.598, 64.36133
1394.652, 116.0137
1395.705, 111.3706
1396.759, 79.78638
1397.812, 105.6897
1398.866, 57.48584
1399.919, 81.82788
1400.972, 96.16309
1402.024, 29.82031
1403.077, 81.14722
1404.129, 65.25513
1405.181, 69.69214
1406.233, 99.99756
1407.285, 167.2029
1408.337, 88.51001
1409.389, 9.835449
1410.440, 33.13354
1411.491, 65.45996
1412.542, 18.69214
1413.593, 78.55566
1414.644, 91.89844
1415.695, 62.13940
1416.745, 29.37671
1417.795, 20.62305
1418.845, 33.85327
1419.895, 76.08936
1420.945, 131.4736
1421.995, 64.70239
1423.044, 1.921875
1424.093, 36.13525
1425.142, 75.35791
1426.191, 7.569580
1427.240, 36.77612
1428.289, 12.95410
1429.337, 17.87451
1430.385, 9.261475
1431.433, 0.1406250
1432.481, 3.353760
1433.529, 28.84155
1434.577, 80.15332
1435.624, 43.33057
1436.672, 35.18091
1437.719, 120.5493
1438.766, 19.76733
1439.812, 17.93677
1440.859, 59.10522
1441.905, 75.26880
1442.952, 105.5503
1443.998, 124.0603
1445.044, 84.10645
1446.090, 125.1255
1447.135, 110.9927
1448.181, 52.80737
1449.226, 51.39697
1450.271, 163.7446
1451.316, 93.10156
1452.361, 104.4944
1453.405, 118.8928
1454.450, 96.29443
1455.494, 72.71313
1456.538, 80.14844
1457.582, 76.65405
1458.626, 56.18042
1459.670, 122.7104
1460.713, 59.25024
1461.757, 80.78760
1462.800, 60.32031
1463.843, 43.84888
1464.886, 73.37549
1465.928, 13.09448
1466.971, 90.43872
1468.013, 107.9714
1469.055, 118.5029
1470.097, 31.03027
1471.139, 93.55811
1472.181, 36.08569
1473.222, 14.62427
1474.263, 3.162354
1475.305, 6.679443
1476.346, 4.193359
1477.386, 30.71118
1478.427, 23.23022
1479.468, 41.10107
1480.508, 59.27124
1481.548, 50.79370
1482.588, 56.31787
1483.628, 21.84375
1484.668, 49.36987
1485.707, 107.8958
1486.747, 171.4243
1487.786, 29.95557
1488.825, 2.416992
1489.864, 84.94580
1490.902, 102.4722
1491.941, 70.79907
1492.979, 10.27515
1494.017, 68.78369
1495.055, 176.3037
1496.093, 22.61035
1497.131, 85.08911
1498.168, 80.62158
1499.206, 27.19507
1500.243, 21.10254
1501.280, 1.416260
1502.317, 41.71631
1503.354, 108.3108
1504.390, 96.72607
1505.426, 58.18506
1506.463, 43.52124
1507.499, 71.84644
1508.535, 51.36133
1509.570, 64.26953
1510.606, 93.41260
1511.641, 86.96875
1512.676, 73.53662
1513.711, 101.1074
1514.746, 65.68213
1515.781, 63.25928
1516.816, 88.83496
1517.850, 111.4097
1518.884, 4.982910
1519.918, 74.37158
1520.952, 37.89844
1521.986, 69.28613
1523.019, 111.7124
1524.053, 74.36035
1525.086, 143.8271
1526.119, 2.867188
1527.152, 80.25244
1528.185, 162.6895
1529.217, 11.18213
1530.250, 57.23145
1531.282, 145.6426
1532.314, 58.01270
1533.346, 50.78271
1534.377, 108.1743
1535.409, 40.19971
1536.440, 76.93652
1537.472, 158.6831
1538.503, 28.81445
1539.534, 80.03809
1540.564, 109.1577
1541.595, 50.34131
1542.625, 69.49561
1543.656, 88.61572
1544.686, 20.69531
1545.716, 121.7310
1546.745, 96.43799
1547.775, 116.1196
1548.804, 149.0581
1549.834, 85.27783
1550.863, 99.11230
1551.892, 144.3848
1552.920, 164.8130
1553.949, 156.0103
1554.977, 144.9492
1556.006, 117.8149
1557.034, 52.26074
1558.062, 22.48828
1559.089, 78.33838
1560.117, 3.675293
1561.144, 15.20166
1562.172, 40.02441
1563.199, 150.3369
1564.226, 62.64990
1565.252, 85.00244
1566.279, 25.16309
1567.305, 0.4858400
1568.332, 150.3677
1569.358, 131.5601
1570.384, 114.2954
1571.409, 2.057129
1572.435, 0.0000000E+00
##END=



