##NAMES=Diopside
##RRUFFID=R040009
##IDEAL CHEMISTRY=CaMgSi_2_O_6_
##LOCALITY=Otter Lake, Quebec, Canada
##OWNER=RRUFF
##SOURCE=University of Arizona Mineral Museum
##DESCRIPTION=Green square prismatic crystal associated with pale orange calcite
##STATUS=The identification of this mineral has been confirmed by X-ray diffraction and chemical analysis
##URL=rruff.info/R040009
##MEASURED CHEMISTRY=(Ca_0.97_Fe_0.02_Na_0.01_)_Σ=1_(Mg_0.97_Fe_0.02_Al_0.01_)_Σ=1_Si_2.00_O_6_; trace amounts of Mn and Ti
##PIN_ID=L00436
##ORIENTATION=Laser parallel to -b [0 -1 0]. Fiducial mark perpendicular to laser is parallel to -c* (0 0 -1)
107.300, 0.000
108.691, 47.172
110.082, 91.726
111.473, 16.271
112.864, 94.958
114.254, 189.440
115.644, 424.242
117.034, 594.022
118.424, 514.827
119.813, 428.988
121.203, 450.978
122.592, 480.366
123.981, 579.807
125.369, 685.017
126.758, 815.765
128.146, 1169.889
129.534, 1570.341
130.922, 2341.979
132.309, 3147.654
133.696, 4277.243
135.083, 5239.645
136.470, 6570.772
137.857, 7445.547
139.243, 8157.913
140.630, 8381.808
142.016, 7637.184
143.401, 6233.002
144.787, 4827.223
146.172, 3386.812
147.557, 2465.784
148.942, 1639.838
150.327, 1140.555
151.711, 822.566
153.096, 549.847
154.480, 539.304
155.863, 429.931
157.247, 334.718
158.630, 285.655
160.013, 312.731
161.396, 143.940
162.779, 279.274
164.161, 241.725
165.544, 192.288
166.926, 146.956
168.308, 250.724
169.689, 219.586
171.070, 101.538
172.452, 345.575
173.833, 298.692
175.213, 428.885
176.594, 423.151
177.974, 535.485
179.354, 658.883
180.734, 650.344
182.114, 671.300
183.493, 619.437
184.872, 597.064
186.251, 437.748
187.630, 392.446
189.008, 326.884
190.387, 219.537
191.765, 260.785
193.143, 278.860
194.520, 304.262
195.898, 215.074
197.275, 254.777
198.652, 206.916
200.029, 142.297
201.405, 241.742
202.782, 154.222
204.158, 172.729
205.534, 131.250
206.909, 153.788
208.285, 108.340
209.660, 72.916
211.035, 96.511
212.410, 75.129
213.784, 155.772
215.159, 135.818
216.533, 147.115
217.907, 146.810
219.281, 131.520
220.654, 146.249
222.027, 170.344
223.400, 156.750
224.773, 273.522
226.146, 237.309
227.518, 353.109
228.891, 455.924
230.263, 575.750
231.634, 751.588
233.006, 834.435
234.377, 883.290
235.748, 825.152
237.119, 761.021
238.490, 542.897
239.860, 501.779
241.231, 309.667
242.601, 334.560
243.970, 270.459
245.340, 236.363
246.709, 395.271
248.079, 467.182
249.448, 740.098
250.816, 868.018
252.185, 1038.940
253.553, 1322.865
254.921, 1253.792
256.289, 1358.722
257.657, 1028.653
259.024, 860.585
260.391, 552.520
261.758, 403.454
263.125, 211.388
264.492, 156.673
265.858, 50.605
267.224, 47.667
268.590, 27.795
269.956, 226.446
271.321, 32.672
272.687, 43.671
274.052, 33.800
275.416, 125.909
276.781, 35.636
278.146, 30.227
279.510, 41.675
280.874, 1.348
282.237, 5.536
283.601, 79.208
284.964, 101.729
286.327, 51.396
287.690, 152.575
289.053, 82.250
290.416, 73.690
291.778, 209.213
293.140, 208.748
294.502, 381.358
295.863, 228.300
297.225, 360.531
298.586, 352.927
299.947, 439.720
301.308, 563.703
302.668, 643.137
304.029, 653.598
305.389, 926.483
306.749, 1045.356
308.108, 1262.594
309.468, 1678.895
310.827, 1752.037
312.186, 2075.176
313.545, 2328.389
314.903, 2695.736
316.262, 3210.199
317.620, 3719.467
318.978, 4584.895
320.336, 5653.086
321.693, 6634.337
323.051, 7478.440
324.408, 7964.553
325.765, 7725.674
327.121, 7239.807
328.478, 6112.947
329.834, 4976.096
331.190, 4105.577
332.546, 3224.738
333.902, 2505.906
335.257, 2182.080
336.612, 1730.259
337.967, 1659.443
339.322, 1429.631
340.677, 1243.823
342.031, 1255.020
343.385, 1098.218
344.739, 1169.420
346.093, 1048.624
347.446, 1040.830
348.799, 1096.038
350.153, 1196.247
351.505, 1300.210
352.858, 1519.562
354.210, 1633.663
355.563, 1933.721
356.915, 2194.768
358.267, 2342.805
359.618, 2506.844
360.969, 2556.868
362.321, 2307.891
363.672, 2213.911
365.022, 1887.928
366.373, 1708.941
367.723, 1437.952
369.073, 1315.957
370.423, 1253.959
371.773, 1161.957
373.122, 1107.042
374.471, 995.938
375.821, 1078.921
377.169, 1021.899
378.518, 1139.872
379.866, 1192.839
381.215, 1442.801
382.563, 1820.757
383.910, 2230.706
385.258, 2773.648
386.605, 3583.585
387.952, 4352.516
389.299, 4622.477
390.646, 5103.392
391.992, 4982.300
393.339, 4438.202
394.685, 3660.095
396.031, 2929.980
397.376, 2350.954
398.722, 1663.823
400.067, 1271.685
401.412, 976.537
402.757, 705.381
404.101, 614.216
405.446, 412.042
406.790, 417.858
408.134, 226.751
409.478, 270.629
410.821, 161.420
412.165, 227.204
413.508, 84.977
414.851, 253.744
416.193, 136.501
417.536, 53.297
418.878, 32.246
420.220, 74.979
421.562, 98.705
422.904, 66.163
424.245, 21.422
425.586, 30.123
426.927, 25.187
428.268, 4.519
429.609, 11.346
430.949, 14.484
432.289, 7.800
433.629, 51.233
434.969, 46.622
436.309, 25.223
437.648, 32.529
438.987, 63.746
440.326, 27.158
441.665, 51.244
443.003, 34.784
444.342, 119.298
445.680, 78.894
447.018, 41.517
448.355, 6.640
449.693, 159.287
451.030, 90.033
452.367, 57.825
453.704, 78.365
455.041, 8.445
456.377, 30.753
457.713, 21.942
459.049, 19.119
460.385, 94.297
461.721, 61.468
463.056, 108.670
464.391, 65.882
465.726, 118.096
467.061, 171.299
468.395, 53.496
469.730, 47.706
471.064, 93.918
472.398, 103.121
473.731, 92.313
475.065, 66.499
476.398, 44.687
477.731, 96.857
479.064, 64.021
480.397, 125.172
481.729, 116.308
483.062, 180.451
484.394, 176.866
485.725, 168.698
487.057, 179.805
488.389, 186.899
489.720, 191.980
491.051, 91.049
492.382, 192.104
493.712, 273.144
495.043, 356.182
496.373, 252.204
497.703, 417.210
499.032, 460.199
500.362, 730.174
501.691, 893.131
503.020, 1358.070
504.349, 1646.993
505.678, 2225.897
507.007, 2789.785
508.335, 3149.655
509.663, 2944.504
510.991, 2654.333
512.319, 2140.142
513.646, 1628.927
514.973, 1301.690
516.300, 949.432
517.627, 834.152
518.954, 655.851
520.280, 476.524
521.607, 558.177
522.933, 449.807
524.259, 455.414
525.584, 453.997
526.910, 516.557
528.235, 574.092
529.560, 573.603
530.885, 495.089
532.209, 483.550
533.534, 460.986
534.858, 516.398
536.182, 445.784
537.506, 334.145
538.829, 444.479
540.152, 377.790
541.476, 308.073
542.799, 405.330
544.121, 308.561
545.444, 278.764
546.766, 373.942
548.088, 241.094
549.410, 324.217
550.732, 323.313
552.053, 305.383
553.375, 338.425
554.696, 338.075
556.017, 237.426
557.337, 378.383
558.658, 416.312
559.978, 460.214
561.298, 351.087
562.618, 420.931
563.938, 308.747
565.257, 382.532
566.576, 253.290
567.895, 256.019
569.214, 440.104
570.533, 357.434
571.851, 302.080
573.170, 294.401
574.488, 378.377
575.805, 273.390
577.123, 236.603
578.440, 371.488
579.758, 324.985
581.075, 385.390
582.391, 223.572
583.708, 349.460
585.024, 309.479
586.341, 299.677
587.657, 250.974
588.972, 304.771
590.288, 420.019
591.603, 424.514
592.918, 470.097
594.233, 540.516
595.548, 383.582
596.863, 573.137
598.177, 309.637
599.491, 341.792
600.805, 552.246
602.119, 413.079
603.432, 392.371
604.746, 492.067
606.059, 655.734
607.372, 539.263
608.685, 477.732
609.997, 683.519
611.309, 539.249
612.621, 610.275
613.933, 516.257
615.245, 688.520
616.557, 756.146
617.868, 779.786
619.179, 737.917
620.490, 801.137
621.801, 755.430
623.111, 1023.501
624.421, 949.245
625.731, 1117.572
627.041, 1006.769
628.351, 1247.321
629.660, 1030.470
630.970, 1031.128
632.279, 1452.570
633.588, 1419.151
634.896, 1428.107
636.205, 1409.614
637.513, 1489.801
638.821, 1616.069
640.129, 1708.429
641.437, 1831.052
642.744, 2075.829
644.051, 2087.566
645.358, 2282.151
646.665, 2437.342
647.972, 2798.641
649.278, 3024.842
650.584, 3445.595
651.890, 3894.447
653.196, 4672.877
654.502, 5431.200
655.807, 6617.950
657.113, 7850.547
658.418, 9810.803
659.722, 12687.115
661.027, 15904.354
662.331, 19842.500
663.636, 24330.824
664.940, 28192.832
666.244, 29918.461
667.547, 30652.986
668.851, 27956.523
670.154, 24662.447
671.457, 20242.326
672.760, 16295.543
674.062, 13398.764
675.365, 10372.631
676.667, 8393.332
677.969, 6729.990
679.271, 5723.979
680.572, 4594.702
681.874, 4055.329
683.175, 3613.804
684.476, 3165.233
685.777, 2781.617
687.077, 2506.957
688.378, 2208.250
689.678, 2110.498
690.978, 1891.701
692.278, 1693.857
693.577, 1439.970
694.877, 1600.035
696.176, 1281.057
697.475, 1323.032
698.774, 1106.962
700.072, 1178.846
701.371, 1124.686
702.669, 1021.478
703.967, 872.225
705.265, 964.888
706.562, 1006.544
707.860, 971.154
709.157, 771.719
710.454, 852.238
711.751, 663.712
713.047, 830.043
714.344, 649.426
715.640, 639.761
716.936, 485.053
718.232, 489.298
719.527, 570.497
720.823, 455.649
722.118, 441.758
723.413, 473.735
724.708, 336.671
726.002, 271.639
727.297, 428.555
728.591, 260.426
729.885, 336.244
731.179, 321.013
732.472, 249.687
733.766, 273.147
735.059, 183.767
736.352, 199.332
737.645, 231.843
738.937, 136.015
740.230, 162.422
741.522, 116.775
742.814, 148.088
744.106, 71.182
745.397, 169.396
746.689, 90.571
747.980, 19.693
749.271, 46.771
750.562, 37.190
751.853, 32.756
753.143, 124.345
754.433, 70.559
755.723, 16.883
757.013, 135.267
758.303, 132.222
759.592, 84.309
760.881, 15.927
762.170, 74.606
763.459, 15.610
764.748, 53.187
766.036, 101.052
767.325, 5.980
768.613, 106.055
769.901, 18.795
771.188, 54.584
772.476, 33.683
773.763, 48.967
775.050, 132.441
776.337, 51.989
777.624, 20.631
778.910, 107.647
780.196, 16.869
781.482, 74.927
782.768, 34.393
784.054, 7.586
785.339, 55.504
786.625, 1.635
787.910, 38.710
789.195, 129.071
790.479, 6.262
791.764, 100.339
793.048, 66.996
794.332, 54.349
795.616, 68.372
796.900, 164.731
798.183, 8.135
799.467, 20.391
800.750, 82.590
802.033, 45.738
803.316, 10.228
804.598, 155.270
805.880, 38.736
807.163, 211.185
808.445, 226.056
809.726, 112.883
811.008, 138.660
812.289, 209.389
813.570, 185.071
814.851, 191.708
816.132, 203.297
817.413, 147.842
818.693, 214.340
819.973, 292.789
821.253, 307.200
822.533, 292.567
823.813, 437.891
825.092, 493.173
826.371, 336.418
827.650, 323.623
828.929, 396.788
830.208, 507.916
831.486, 454.007
832.764, 334.059
834.042, 386.069
835.320, 398.040
836.598, 462.977
837.875, 569.874
839.152, 584.751
840.429, 603.587
841.706, 696.418
842.983, 603.213
844.259, 648.971
845.536, 957.695
846.812, 894.386
848.088, 1068.055
849.363, 1254.688
850.639, 1656.283
851.914, 2034.841
853.189, 2424.377
854.464, 2802.882
855.739, 3036.351
857.013, 3067.791
858.288, 2605.198
859.562, 2252.576
860.836, 1931.920
862.110, 1690.339
863.383, 1387.501
864.656, 1361.741
865.930, 1197.951
867.203, 1098.128
868.475, 966.271
869.748, 935.751
871.020, 937.454
872.292, 913.493
873.564, 855.495
874.836, 845.464
876.108, 866.423
877.379, 684.350
878.650, 899.854
879.922, 967.051
881.192, 780.889
882.463, 699.996
883.733, 850.386
885.004, 766.688
886.274, 818.655
887.544, 768.683
888.813, 826.301
890.083, 754.947
891.352, 799.693
892.621, 830.012
893.890, 638.402
895.159, 816.564
896.427, 656.819
897.695, 628.705
898.964, 755.987
900.232, 727.907
901.499, 742.050
902.767, 646.599
904.034, 725.468
905.301, 553.804
906.568, 879.170
907.835, 1221.943
909.102, 1190.068
910.368, 1341.746
911.634, 550.560
912.900, 787.473
914.166, 584.661
915.432, 702.154
916.697, 536.028
917.962, 470.838
919.227, 588.631
920.492, 549.118
921.757, 428.808
923.021, 515.646
924.285, 509.814
925.550, 546.105
926.813, 454.250
928.077, 515.013
929.341, 487.250
930.604, 477.025
931.867, 557.269
933.130, 311.773
934.393, 202.823
935.655, 551.403
936.918, 333.410
938.180, 511.900
939.442, 282.694
940.703, 294.088
941.965, 507.116
943.226, 393.827
944.488, 283.779
945.749, 271.687
947.009, 232.132
948.270, 344.029
949.530, 284.404
950.791, 312.934
952.051, 403.072
953.311, 317.192
954.570, 212.352
955.830, 367.291
957.089, 349.144
958.348, 412.271
959.607, 427.839
960.866, 433.441
962.124, 459.964
963.383, 432.179
964.641, 468.484
965.899, 434.768
967.156, 421.731
968.414, 403.212
969.671, 418.055
970.928, 503.819
972.185, 396.932
973.442, 695.038
974.699, 571.913
975.955, 655.358
977.211, 562.728
978.468, 674.761
979.723, 776.854
980.979, 735.111
982.234, 763.920
983.490, 1091.972
984.745, 832.846
986.000, 1106.472
987.254, 1163.380
988.509, 1165.684
989.763, 1396.584
991.017, 1331.450
992.271, 1559.834
993.525, 1764.700
994.779, 1970.241
996.032, 2518.234
997.285, 2533.921
998.538, 3238.510
999.791, 3417.985
1001.044, 4467.809
1002.296, 4841.689
1003.548, 6157.042
1004.800, 7561.396
1006.052, 9692.133
1007.304, 12701.081
1008.555, 16897.600
1009.807, 22604.930
1011.058, 29381.404
1012.309, 36144.594
1013.559, 39602.199
1014.810, 37870.898
1016.060, 32138.773
1017.310, 25690.668
1018.560, 19486.193
1019.810, 14349.018
1021.060, 10924.867
1022.309, 8280.507
1023.558, 6421.848
1024.807, 5356.849
1026.056, 4361.391
1027.305, 3942.336
1028.553, 3404.722
1029.801, 3295.408
1031.049, 3003.017
1032.297, 2593.472
1033.545, 2546.035
1034.793, 2476.662
1036.040, 2516.438
1037.287, 2657.119
1038.534, 2830.736
1039.781, 3030.793
1041.027, 3361.734
1042.274, 3519.510
1043.520, 4186.240
1044.766, 4831.605
1046.012, 5452.141
1047.257, 5778.537
1048.503, 5721.926
1049.748, 5642.141
1050.993, 4883.135
1052.238, 4281.227
1053.483, 3417.943
1054.727, 2641.381
1055.971, 2177.676
1057.216, 1929.564
1058.459, 1545.471
1059.703, 1344.260
1060.947, 1164.828
1062.190, 1039.348
1063.433, 997.109
1064.676, 829.230
1065.919, 691.633
1067.162, 568.107
1068.404, 788.963
1069.646, 584.391
1070.888, 375.750
1072.130, 597.346
1073.372, 450.625
1074.613, 359.428
1075.855, 418.225
1077.096, 440.219
1078.337, 339.977
1079.578, 544.672
1080.818, 488.137
1082.059, 238.912
1083.299, 282.117
1084.539, 284.898
1085.779, 307.605
1087.018, 301.236
1088.258, 251.182
1089.497, 269.107
1090.736, 226.545
1091.975, 204.383
1093.213, 204.219
1094.452, 175.059
1095.690, 150.035
1096.928, 43.266
1098.166, 140.955
1099.404, 144.541
1100.642, 256.891
1101.879, 100.043
1103.116, 287.020
1104.353, 28.359
1105.590, 216.760
1106.827, 24.516
1108.063, 328.484
1109.299, 89.574
1110.536, 113.727
1111.771, 198.352
1113.007, 126.822
1114.243, 100.873
1115.478, 178.252
1116.713, 59.207
1117.948, 149.059
1119.183, 226.857
1120.418, 5.279
1121.652, 223.533
1122.886, 257.115
1124.120, 248.037
1125.354, 259.135
1126.588, 3.109
1127.821, 205.994
1129.055, 0.033
1130.288, 123.344
1131.521, 295.863
1132.753, 240.170
1133.986, 104.150
1135.218, 40.449
1136.450, 201.938
1137.682, 60.129
1138.914, 288.887
1140.146, 115.557
1141.377, 30.922
1142.609, 99.740
1143.840, 2.203
1145.071, 60.172
1146.301, 52.201
1147.532, 90.154
1148.762, 236.242
1149.992, 213.055
1151.222, 48.715
1152.452, 12.141
1153.682, 223.445
1154.911, 25.199
1156.140, 29.539
1157.369, 13.932
1158.598, 25.793
1159.827, 60.812
1161.055, 191.814
1162.284, 1.725
1163.512, 6.914
1164.740, 90.092
1165.967, 0.252
1167.195, 81.775
1168.422, 64.078
1169.650, 102.611
1170.877, 160.467
1172.103, 27.186
1173.330, 85.387
1174.557, 24.047
1175.783, 102.166
1177.009, 44.422
1178.235, 70.215
1179.461, 20.309
1180.686, 47.199
1181.912, 35.797
1183.137, 121.568
1184.362, 195.566
1185.587, 21.213
1186.811, 82.240
1188.036, 93.129
1189.260, 11.314
1190.484, 117.188
1191.708, 192.230
1192.932, 138.344
1194.155, 6.807
1195.378, 10.051
1196.602, 17.381
1197.825, 209.732
1199.047, 20.029
1200.270, 250.178
1201.492, 9.645
1202.715, 327.328
1203.937, 160.594
1205.159, 167.184
1206.380, 183.211
1207.602, 230.715
1208.823, 219.406
1210.044, 161.107
1211.265, 85.979
1212.486, 230.328
1213.707, 196.271
1214.927, 104.676
1216.147, 186.295
1217.367, 36.412
1218.587, 121.742
1219.807, 180.568
1221.027, 80.152
1222.246, 74.701
1223.465, 44.570
1224.684, 12.475
1225.903, 248.742
1227.121, 88.955
1228.340, 45.443
1229.558, 304.986
1230.776, 288.752
1231.994, 164.990
1233.212, 67.637
1234.429, 231.082
1235.646, 284.316
1236.864, 159.754
1238.081, 298.688
1239.297, 94.230
1240.514, 230.289
1241.730, 268.439
1242.947, 182.688
1244.163, 228.045
1245.378, 207.355
1246.594, 263.863
1247.810, 289.408
1249.025, 112.742
1250.240, 343.869
1251.455, 160.676
1252.670, 109.717
1253.885, 208.898
1255.099, 166.039
1256.313, 143.549
1257.527, 77.002
1258.741, 81.393
1259.955, 312.943
1261.168, 72.793
1262.382, 284.172
1263.595, 282.023
1264.808, 277.746
1266.021, 236.277
1267.233, 219.160
1268.446, 260.242
1269.658, 391.566
1270.870, 135.990
1272.082, 329.736
1273.294, 322.328
1274.505, 276.369
1275.716, 67.918
1276.928, 324.486
1278.139, 148.418
1279.349, 397.336
1280.560, 316.537
1281.770, 240.125
1282.981, 342.586
1284.191, 283.221
1285.401, 363.176
1286.610, 329.648
1287.820, 217.939
1289.029, 270.432
1290.239, 52.027
1291.448, 405.842
1292.656, 430.299
1293.865, 223.309
1295.073, 258.643
1296.282, 366.246
1297.490, 3.174
1298.698, 202.400
1299.906, 224.654
1301.113, 333.465
1302.320, 347.467
1303.528, 263.414
1304.735, 177.967
1305.942, 162.553
1307.148, 220.469
1308.355, 339.650
1309.561, 109.805
1310.767, 420.746
1311.973, 226.686
1313.179, 382.076
1314.384, 221.094
1315.590, 585.012
1316.795, 152.938
1318.000, 373.947
1319.205, 60.139
1320.410, 353.883
1321.614, 121.479
1322.819, 0.512
1324.023, 273.336
1325.227, 139.027
1326.431, 403.295
1327.634, 268.434
1328.838, 3.646
1330.041, 156.922
1331.244, 229.180
1332.447, 461.525
1333.650, 106.689
1334.852, 227.846
1336.055, 123.643
1337.257, 239.520
1338.459, 261.945
1339.661, 213.213
1340.862, 295.211
1342.064, 246.727
1343.265, 89.947
1344.466, 210.426
1345.667, 173.996
1346.868, 173.596
1348.068, 335.074
1349.269, 132.736
1350.469, 85.516
1351.669, 310.812
1352.869, 178.133
1354.069, 60.273
1355.268, 286.920
1356.468, 21.895
1357.667, 422.596
1358.866, 279.932
1360.065, 194.316
1361.263, 281.115
1362.462, 51.582
1363.660, 277.281
1364.858, 301.141
1366.056, 70.531
1367.254, 155.473
1368.451, 162.135
1369.649, 334.258
1370.846, 212.596
1372.043, 349.389
1373.240, 44.492
1374.436, 108.602
1375.633, 154.885
1376.829, 265.570
1378.025, 267.836
1379.221, 139.107
1380.417, 165.143
1381.613, 74.549
1382.808, 228.094
1384.003, 305.008
1385.199, 214.412
1386.393, 150.434
1387.588, 194.043
1388.783, 259.863
1389.977, 175.707
1391.171, 239.643
1392.365, 134.469
1393.559, 112.438
1394.753, 304.734
1395.946, 153.295
1397.140, 196.631
1398.333, 56.684
1399.526, 241.570
1400.719, 235.766
1401.911, 301.271
1403.104, 147.990
1404.296, 235.990
1405.488, 153.791
1406.680, 345.205
1407.872, 32.873
1409.063, 265.396
1410.255, 362.406
1411.446, 58.520
1412.637, 198.535
1413.828, 6.078
1415.018, 240.211
1416.209, 214.277
1417.399, 28.102
1418.589, 143.369
1419.779, 445.035
1420.969, 85.674
1422.159, 387.051
1423.348, 164.615
1424.537, 417.613
1425.726, 322.740
1426.915, 193.992
1428.104, 334.553
1429.293, 368.504
1430.481, 243.469
1431.669, 217.469
1432.857, 284.541
1434.045, 221.936
1435.233, 105.332
1436.420, 145.736
1437.608, 153.496
1438.795, 253.002
1439.982, 192.195
1441.169, 298.398
1442.355, 442.443
1443.542, 420.418
1444.728, 478.070
1445.914, 409.832
1447.100, 433.969
1448.286, 403.094
1449.472, 487.855
1450.657, 215.691
1451.842, 859.430
1453.027, 341.000
1454.212, 565.438
1455.397, 637.797
1456.581, 355.914
1457.766, 531.336
1458.950, 841.785
1460.134, 420.664
1461.318, 502.207
1462.501, 137.172
1463.685, 256.484
1464.868, 609.215
1466.051, 243.109
1467.234, 808.707
1468.417, 207.043
1469.600, 320.176
1470.782, 471.934
1471.965, 735.320
1473.147, 133.809
1474.329, 566.512
1475.510, 398.871
1476.692, 129.199
1477.873, 311.508
1479.055, 385.328
1480.236, 180.973
1481.416, 576.102
1482.597, 385.410
1483.778, 364.578
1484.958, 392.535
1486.138, 155.957
1487.318, 195.082
1488.498, 135.258
1489.678, 331.719
1490.857, 199.047
1492.037, 7.473
1493.216, 250.949
1494.395, 260.508
1495.574, 104.613
1496.752, 162.910
1497.931, 1.637
1499.109, 0.000
##END=



