##NAMES=Diopside
##RRUFFID=R070123
##IDEAL CHEMISTRY=CaMgSi_2_O_6_
##LOCALITY=Yates mine, Otter Lake, Huddersfield Township, Pontiac County, Québec, Canada
##OWNER=RRUFF
##SOURCE=Michael Scott
##DESCRIPTION=Black prismatic crystals associated with orange calcite
##STATUS=The identification of this mineral has been confirmed by X-ray diffraction and chemical analysis
##URL=rruff.info/R070123
##MEASURED CHEMISTRY=(Ca_0.95_Na_0.04_Mn_0.01_)_Σ=1_(Mg_0.63_Fe_0.33_Al_0.04_)_Σ=1_Si_2.00_O_6_
##PIN_ID=M01382
##ORIENTATION=Laser parallel to (1 0 -1). Fiducial mark perpendicular to laser is parallel to b [0 1 0]
106.9000, 0.0000000E+00
108.1390, 57.96204
109.3780, 139.9633
110.6170, 196.7484
111.8550, 254.6600
113.0940, 263.9232
114.3320, 330.4437
115.5700, 281.2766
116.8080, 247.7295
118.0460, 169.0231
119.2830, 53.97241
120.5210, 17.62292
121.7580, 9.789185
122.9950, 19.44739
124.2320, 60.06140
125.4690, 47.03027
126.7050, 80.98950
127.9410, 62.18372
129.1780, 119.9645
130.4140, 109.1832
131.6490, 173.4521
132.8850, 228.9734
134.1200, 219.7319
135.3560, 261.7146
136.5910, 260.9093
137.8260, 289.3058
139.0610, 211.8945
140.2950, 209.6672
141.5290, 134.6158
142.7640, 28.73401
143.9980, 42.01477
145.2320, 13.44873
146.4650, 13.97498
147.6990, 1.267456
148.9320, 7.439819
150.1650, 41.50171
151.3980, 47.55151
152.6310, 11.70557
153.8640, 14.03760
155.0960, 86.32178
156.3280, 60.78235
157.5600, 95.34082
158.7920, 157.9941
160.0240, 190.7397
161.2560, 175.5754
162.4870, 244.4988
163.7180, 274.5085
164.9490, 312.6027
166.1800, 276.7795
167.4110, 298.0378
168.6410, 335.3763
169.8720, 367.7932
171.1020, 399.2876
172.3320, 408.8583
173.5620, 449.5039
174.7910, 553.2234
176.0210, 601.0154
177.2500, 624.8792
178.4790, 694.8137
179.7080, 728.4059
180.9370, 697.8806
182.1650, 805.9713
183.3940, 805.0870
184.6220, 818.2236
185.8500, 953.3757
187.0780, 998.5471
188.3050, 1005.696
189.5330, 1046.858
190.7600, 1052.049
191.9870, 992.2701
193.2140, 949.5222
194.4410, 920.8068
195.6680, 798.1277
196.8940, 703.4871
198.1200, 633.8966
199.3470, 622.3792
200.5720, 572.9167
201.7980, 578.5270
203.0240, 454.2085
204.2490, 275.9365
205.4740, 233.7003
206.6990, 169.4994
207.9240, 147.3345
209.1490, 61.20667
210.3740, 91.11658
211.5980, 54.06482
212.8220, 32.05212
214.0460, 45.07935
215.2700, 32.14673
216.4930, 49.25464
217.7170, 46.40308
218.9400, 80.59167
220.1630, 27.82031
221.3860, 120.0887
222.6090, 122.3969
223.8320, 114.7445
225.0540, 219.1320
226.2760, 285.5586
227.4980, 313.0242
228.7200, 384.5287
229.9420, 435.0715
231.1630, 570.6528
232.3850, 512.2717
233.6060, 626.9287
234.8270, 484.6232
236.0480, 475.3550
237.2690, 405.1238
238.4890, 365.9292
239.7090, 296.7715
240.9290, 314.6497
242.1490, 319.5637
243.3690, 263.5134
244.5890, 310.4988
245.8080, 311.5190
247.0270, 298.5740
248.2470, 328.6636
249.4650, 352.7875
250.6840, 381.9451
251.9030, 365.1365
253.1210, 406.3612
254.3390, 345.5967
255.5570, 358.8501
256.7750, 419.0776
257.9930, 351.2518
259.2100, 361.3896
260.4280, 340.5286
261.6450, 321.3976
262.8620, 271.3330
264.0790, 224.3330
265.2950, 223.3936
266.5120, 182.5120
267.7280, 108.5223
268.9440, 174.2820
270.1600, 166.5474
271.3760, 92.87805
272.5920, 190.2577
273.8070, 173.6763
275.0220, 143.1378
276.2370, 128.6447
277.4520, 140.1901
278.6670, 186.7784
279.8820, 227.4094
281.0960, 202.0817
282.3100, 191.7941
283.5240, 211.8254
284.7380, 284.6157
285.9520, 282.6238
287.1650, 377.3284
288.3780, 389.2291
289.5920, 411.4417
290.8050, 504.0825
292.0170, 612.9817
293.2300, 688.1921
294.4430, 769.1965
295.6550, 815.0585
296.8670, 912.1096
298.0790, 1000.496
299.2910, 1075.817
300.5020, 1226.169
301.7140, 1334.429
302.9250, 1515.730
304.1360, 1715.068
305.3470, 1805.442
306.5580, 2104.856
307.7680, 2311.308
308.9780, 2545.797
310.1890, 2906.330
311.3990, 3232.902
312.6090, 3629.510
313.8180, 3951.159
315.0280, 4341.852
316.2370, 4810.580
317.4460, 5178.359
318.6550, 5550.176
319.8640, 5666.023
321.0730, 5670.906
322.2810, 5642.827
323.4890, 5394.777
324.6980, 4943.755
325.9060, 4410.757
327.1130, 3995.783
328.3210, 3571.831
329.5280, 3261.903
330.7360, 2778.998
331.9430, 2516.116
333.1500, 2294.256
334.3560, 2064.421
335.5630, 1958.608
336.7690, 1729.818
337.9760, 1687.051
339.1820, 1685.307
340.3870, 1569.586
341.5930, 1566.887
342.7990, 1581.211
344.0040, 1668.557
345.2090, 1717.926
346.4140, 1915.315
347.6190, 1999.727
348.8240, 2167.159
350.0280, 2316.612
351.2330, 2359.085
352.4370, 2503.579
353.6410, 2446.094
354.8440, 2417.628
356.0480, 2304.184
357.2520, 2155.758
358.4550, 1899.353
359.6580, 1753.967
360.8610, 1566.600
362.0640, 1516.253
363.2660, 1501.924
364.4690, 1478.615
365.6710, 1500.324
366.8730, 1512.051
368.0750, 1596.797
369.2770, 1712.561
370.4780, 1857.343
371.6800, 2131.142
372.8810, 2308.960
374.0820, 2627.794
375.2830, 3059.646
376.4830, 3487.515
377.6840, 4041.402
378.8840, 4544.304
380.0840, 5145.224
381.2840, 5814.159
382.4840, 6318.112
383.6840, 7039.080
384.8830, 7460.066
386.0830, 7696.068
387.2820, 7809.083
388.4810, 7544.116
389.6800, 7199.164
390.8780, 6394.227
392.0770, 5624.306
393.2750, 4874.400
394.4730, 4040.509
395.6710, 3307.633
396.8690, 2675.771
398.0660, 2165.923
399.2640, 1782.095
400.4610, 1357.286
401.6580, 1142.497
402.8550, 903.7269
404.0520, 713.9762
405.2490, 611.2451
406.4450, 528.5349
407.6410, 392.8448
408.8370, 337.1748
410.0330, 309.5244
411.2290, 177.8936
412.4240, 257.2911
413.6200, 210.7140
414.8150, 199.1555
416.0100, 132.6152
417.2050, 114.0933
418.4000, 69.58899
419.5940, 60.10229
420.7880, 44.63318
421.9830, 8.787109
423.1770, 56.74512
424.3700, 79.72083
425.5640, 79.03906
426.7580, 16.17041
427.9510, 10.72620
429.1440, 11.28845
430.3370, 35.29443
431.5300, 8.820801
432.7220, 72.55334
433.9150, 29.50806
435.1070, 36.11743
436.2990, 19.98755
437.4910, 53.07324
438.6830, 70.95349
439.8750, 36.04553
441.0660, 44.34521
442.2570, 7.642578
443.4480, 15.83496
444.6390, 37.56042
445.8300, 120.2788
447.0210, 158.5481
448.2110, 175.0276
449.4010, 255.3287
450.5910, 306.1891
451.7810, 314.4302
452.9710, 426.7642
454.1610, 459.6365
455.3500, 496.5653
456.5390, 521.8088
457.7280, 579.5505
458.9170, 473.9359
460.1060, 514.6567
461.2940, 431.4957
462.4830, 408.6660
463.6710, 328.7509
464.8590, 293.3833
466.0470, 271.2224
467.2350, 201.3928
468.4220, 160.4191
469.6090, 184.4668
470.7970, 119.5322
471.9840, 69.61560
473.1700, 95.71338
474.3570, 53.82764
475.5440, 79.94995
476.7300, 56.08435
477.9160, 92.22876
479.1020, 47.39185
480.2880, 52.55994
481.4740, 78.73389
482.6590, 5.916870
483.8440, 81.10413
485.0300, 62.29651
486.2140, 35.49316
487.3990, 96.69458
488.5840, 44.89978
489.7680, 122.1086
490.9530, 135.3212
492.1370, 149.5371
493.3210, 190.7563
494.5040, 263.9785
495.6880, 288.2036
496.8720, 355.4314
498.0550, 515.6616
499.2380, 532.8945
500.4210, 647.1294
501.6040, 746.3663
502.7860, 835.6052
503.9690, 939.8459
505.1510, 959.4871
506.3330, 1034.332
507.5150, 976.5762
508.6970, 977.8223
509.8780, 966.0691
511.0600, 941.3167
512.2410, 907.5679
513.4220, 882.8198
514.6030, 837.2527
515.7840, 810.3308
516.9640, 733.5929
518.1440, 733.8672
519.3250, 664.1536
520.5050, 661.4465
521.6850, 681.7507
522.8640, 795.0603
524.0440, 743.3715
525.2230, 811.6871
526.4020, 803.0060
527.5820, 838.3296
528.7600, 772.6536
529.9390, 780.9849
531.1180, 697.3196
532.2960, 647.6556
533.4740, 617.9998
534.6520, 608.3413
535.8300, 552.6838
537.0080, 540.0237
538.1850, 522.3606
539.3630, 537.6980
540.5400, 573.0322
541.7170, 548.3632
542.8940, 589.6906
544.0700, 682.0142
545.2470, 702.3341
546.4230, 833.6499
547.5990, 993.9614
548.7750, 1074.269
549.9510, 1308.571
551.1270, 1531.869
552.3020, 1769.162
553.4780, 2083.449
554.6530, 2395.732
555.8280, 2700.009
557.0030, 2785.280
558.1770, 2736.546
559.3520, 2606.807
560.5260, 2261.062
561.7000, 1855.312
562.8740, 1455.556
564.0480, 1155.792
565.2220, 978.0223
566.3950, 835.2455
567.5680, 649.4619
568.7420, 594.3918
569.9150, 504.5941
571.0870, 425.6086
572.2600, 369.9553
573.4320, 322.1344
574.6050, 300.0287
575.7770, 254.5211
576.9490, 215.7812
578.1210, 208.5256
579.2920, 157.1384
580.4640, 105.0007
581.6350, 56.20435
582.8060, 72.09570
583.9770, 33.07446
585.1480, 11.90295
586.3190, 22.98999
587.4890, 0.8773190
588.6590, 3.517456
589.8290, 15.84314
590.9990, 8.030029
592.1690, 13.45129
593.3390, 30.10608
594.5080, 22.16492
595.6770, 6.375244
596.8470, 26.56030
598.0160, 33.74097
599.1840, 11.55078
600.3530, 63.19714
601.5210, 15.62671
602.6900, 13.05847
603.8580, 1.623901
605.0260, 25.18018
606.1930, 27.18726
607.3610, 20.20520
608.5280, 67.49231
609.6960, 93.31018
610.8630, 79.18652
612.0300, 140.1893
613.1970, 122.3785
614.3630, 115.0729
615.5300, 168.8510
616.6960, 178.5505
617.8620, 202.8303
619.0280, 169.1111
620.1940, 198.4109
621.3590, 220.8209
622.5250, 300.9376
623.6900, 283.1935
624.8550, 331.5503
626.0200, 370.7766
627.1850, 429.0624
628.3490, 446.2585
629.5140, 509.4395
630.6780, 549.6052
631.8420, 570.7557
633.0060, 611.8909
634.1700, 666.0107
635.3330, 720.1152
636.4970, 821.2043
637.6600, 905.2775
638.8230, 1005.335
639.9860, 1044.377
641.1490, 1148.404
642.3110, 1261.414
643.4740, 1361.409
644.6360, 1534.388
645.7980, 1766.351
646.9600, 1994.298
648.1220, 2218.229
649.2840, 2559.144
650.4450, 2949.044
651.6060, 3543.487
652.7670, 4219.354
653.9280, 4969.205
655.0890, 6024.393
656.2500, 7303.848
657.4100, 8492.329
658.5700, 9947.935
659.7300, 11505.14
660.8900, 13239.49
662.0500, 14726.49
663.2100, 15985.67
664.3690, 16833.47
665.5280, 16861.04
666.6880, 15934.94
667.8460, 14554.95
669.0050, 12618.47
670.1640, 10739.15
671.3220, 9010.414
672.4810, 7378.198
673.6390, 6067.754
674.7970, 4940.922
675.9540, 4114.442
677.1120, 3441.944
678.2690, 2888.109
679.4270, 2453.575
680.5840, 2078.022
681.7410, 1785.451
682.8980, 1551.862
684.0540, 1425.255
685.2110, 1184.629
686.3670, 1111.985
687.5230, 945.3228
688.6790, 873.6426
689.8350, 822.9441
690.9900, 713.2275
692.1460, 678.4927
693.3010, 608.7399
694.4560, 511.9689
695.6110, 529.1798
696.7660, 469.6389
697.9210, 472.8419
699.0750, 437.0647
700.2290, 451.2882
701.3840, 409.5488
702.5370, 347.6516
703.6910, 429.7367
704.8450, 319.8037
705.9980, 344.0068
707.1520, 351.0382
708.3050, 263.1075
709.4580, 251.1051
710.6110, 251.0859
711.7630, 179.0530
712.9160, 253.0026
714.0680, 241.9448
715.2200, 179.8728
716.3720, 210.7875
717.5240, 171.6869
718.6760, 128.5759
719.8270, 171.4579
720.9780, 127.3270
722.1300, 138.1844
723.2810, 100.9326
724.4310, 101.9841
725.5820, 93.91687
726.7330, 72.19006
727.8830, 54.24744
729.0330, 45.47607
730.1830, 71.13708
731.3330, 41.41174
732.4830, 76.58508
733.6320, 32.21497
734.7810, 28.77930
735.9310, 25.01953
737.0800, 40.75159
738.2290, 9.166992
739.3770, 16.43811
740.5260, 49.15430
741.6740, 15.59045
742.8220, 3.267212
743.9700, 20.50586
745.1180, 3.0762000E-02
746.2660, 12.22302
747.4130, 30.45007
748.5610, 16.16541
749.7080, 18.91504
750.8550, 6.700073
752.0020, 15.51379
753.1490, 18.63977
754.2950, 1.222900
755.4420, 4.889771
756.5880, 28.01831
757.7340, 38.03577
758.8800, 25.07849
760.0250, 4.108276
761.1710, 75.11853
762.3160, 22.11804
763.4620, 36.10510
764.6070, 22.08167
765.7520, 37.04663
766.8960, 54.00122
768.0410, 58.94543
769.1850, 68.87976
770.3300, 37.80420
771.4740, 42.71887
772.6180, 39.62415
773.7610, 69.51978
774.9050, 44.40625
776.0480, 49.28357
777.1920, 28.15186
778.3350, 30.01147
779.4780, 15.86243
780.6200, 40.70496
781.7630, 40.53918
782.9060, 39.36536
784.0480, 19.18359
785.1900, 46.99414
786.3320, 16.79712
787.4740, 15.59290
788.6150, 7.618408
789.7570, 33.15662
790.8980, 25.92505
792.0390, 22.31311
793.1800, 11.57092
794.3210, 44.84204
795.4620, 47.77954
796.6020, 26.47668
797.7420, 45.82898
798.8830, 25.21082
800.0230, 12.61023
801.1620, 24.02039
802.3020, 21.44653
803.4420, 27.78284
804.5810, 12.34375
805.7200, 39.80957
806.8590, 27.29712
807.9980, 20.79956
809.1370, 47.31299
810.2750, 4.149414
811.4140, 21.39172
812.5520, 3.057373
813.6900, 26.50293
814.8280, 24.05432
815.9650, 29.37854
817.1030, 36.80884
818.2400, 29.23682
819.3780, 11.66260
820.5150, 55.08630
821.6520, 73.50830
822.7880, 56.92834
823.9250, 55.34705
825.0610, 54.76453
826.1980, 51.18079
827.3340, 20.59631
828.4700, 89.01099
829.6050, 25.42517
830.7410, 38.83899
831.8760, 19.25256
833.0120, 16.33398
834.1470, 1.923218
835.2820, 5.512573
836.4160, 7.102417
837.5510, 10.69287
838.6860, 35.71594
839.8200, 19.12585
840.9540, 40.53699
842.0880, 12.05042
843.2220, 8.361816
844.3550, 5.223877
845.4890, 35.19128
846.6220, 68.60864
847.7550, 89.02820
848.8880, 108.4504
850.0210, 128.8754
851.1540, 195.3029
852.2860, 212.7334
853.4190, 251.1670
854.5510, 235.6039
855.6830, 256.3971
856.8150, 316.4879
857.9460, 275.9353
859.0780, 290.3866
860.2090, 318.7930
861.3410, 300.2275
862.4720, 285.6387
863.6020, 344.7909
864.7330, 286.6160
865.8640, 295.2864
866.9940, 303.5822
868.1240, 314.2859
869.2540, 310.7788
870.3840, 318.7642
871.5140, 323.5139
872.6440, 323.5565
873.7730, 350.7281
874.9020, 350.7209
876.0320, 395.4674
877.1600, 382.0824
878.2890, 413.0551
879.4180, 388.8878
880.5460, 448.7765
881.6750, 497.0071
882.8030, 450.9591
883.9310, 505.3763
885.0590, 555.7313
886.1860, 501.9562
887.3140, 566.9911
888.4410, 607.5171
889.5680, 536.9558
890.6950, 562.4697
891.8220, 569.3997
892.9490, 532.3256
894.0750, 608.2316
895.2020, 653.0245
896.3280, 635.1086
897.4540, 637.0515
898.5800, 641.8986
899.7050, 622.8740
900.8310, 632.7900
901.9560, 628.7999
903.0820, 673.8220
904.2070, 686.8564
905.3320, 607.9067
906.4560, 647.9761
907.5810, 630.0608
908.7050, 617.1643
909.8300, 642.2861
910.9540, 624.4265
912.0780, 634.5896
913.2010, 627.7717
914.3250, 609.2749
915.4480, 604.1831
916.5720, 577.4229
917.6950, 543.6848
918.8180, 539.9756
919.9410, 522.2911
921.0630, 465.6309
922.1860, 448.9922
923.3080, 403.3729
924.4300, 400.6166
925.5520, 419.6453
926.6740, 405.0942
927.7960, 386.2101
928.9170, 386.0586
930.0390, 343.8782
931.1600, 308.5854
932.2810, 322.6973
933.4020, 280.6691
934.5230, 314.0040
935.6430, 251.1593
936.7640, 282.7024
937.8840, 264.4722
939.0040, 227.9293
940.1240, 257.2683
941.2440, 210.1111
942.3630, 232.7916
943.4830, 221.8931
944.6020, 239.4810
945.7210, 273.2957
946.8400, 298.4991
947.9590, 303.3494
949.0770, 343.2214
950.1960, 386.4323
951.3140, 398.3459
952.4320, 492.2842
953.5500, 534.2407
954.6680, 519.2188
955.7860, 558.2153
956.9030, 644.2323
958.0210, 633.2703
959.1380, 648.3264
960.2550, 703.4104
961.3720, 722.1296
962.4890, 770.7886
963.6050, 818.7789
964.7220, 856.9429
965.8380, 929.1252
966.9540, 954.3276
968.0700, 972.2822
969.1860, 1047.494
970.3010, 1023.687
971.4170, 1119.882
972.5320, 1158.043
973.6470, 1206.363
974.7620, 1260.701
975.8770, 1283.062
976.9910, 1353.289
978.1060, 1460.688
979.2200, 1492.054
980.3340, 1538.493
981.4480, 1677.952
982.5620, 1683.430
983.6760, 1709.927
984.7890, 1848.443
985.9030, 1910.979
987.0160, 2020.534
988.1290, 2066.108
989.2420, 2261.702
990.3550, 2461.314
991.4670, 2711.947
992.5800, 2953.600
993.6920, 3203.271
994.8040, 3632.962
995.9160, 4109.672
997.0280, 4602.401
998.1390, 5314.149
999.2510, 6081.922
1000.362, 7021.716
1001.473, 8338.529
1002.584, 10005.37
1003.695, 11930.22
1004.805, 14461.10
1005.916, 17545.00
1007.026, 20766.93
1008.136, 24775.87
1009.246, 28615.84
1010.356, 32011.85
1011.466, 34568.87
1012.576, 36036.93
1013.685, 34441.01
1014.794, 31567.12
1015.903, 27216.26
1017.012, 22548.42
1018.121, 17976.61
1019.229, 14370.82
1020.338, 11514.07
1021.446, 9478.339
1022.554, 7792.640
1023.662, 6699.960
1024.770, 5867.303
1025.878, 5179.667
1026.985, 4679.531
1028.092, 4226.043
1029.200, 3917.594
1030.307, 3819.219
1031.413, 3630.482
1032.520, 3538.005
1033.627, 3476.222
1034.733, 3387.165
1035.839, 3469.698
1036.945, 3451.257
1038.051, 3562.373
1039.157, 3604.348
1040.262, 3659.415
1041.368, 3680.308
1042.473, 3691.965
1043.578, 3551.726
1044.683, 3427.532
1045.788, 3299.374
1046.893, 2926.094
1047.997, 2748.896
1049.101, 2412.059
1050.205, 2153.638
1051.309, 1937.705
1052.413, 1740.008
1053.517, 1619.911
1054.621, 1461.359
1055.724, 1340.735
1056.827, 1247.703
1057.930, 1160.550
1059.033, 1057.060
1060.136, 1040.311
1061.238, 936.1797
1062.341, 845.0786
1063.443, 847.6298
1064.545, 761.9268
1065.647, 722.7250
1066.749, 660.0183
1067.850, 621.5544
1068.952, 569.9702
1070.053, 576.3151
1071.154, 546.5303
1072.255, 546.5818
1073.356, 524.7249
1074.457, 472.4323
1075.557, 482.3885
1076.658, 459.4009
1077.758, 439.7673
1078.858, 435.9415
1079.958, 438.0927
1081.057, 393.0964
1082.157, 448.5725
1083.256, 421.6340
1084.356, 447.2565
1085.455, 401.5238
1086.554, 430.4213
1087.653, 353.6715
1088.751, 407.3950
1089.850, 384.1260
1090.948, 377.3610
1092.046, 389.7849
1093.144, 326.1638
1094.242, 340.5087
1095.340, 353.3630
1096.437, 366.0703
1097.534, 412.3455
1098.632, 377.9171
1099.729, 343.2559
1100.826, 372.5508
1101.922, 361.9263
1103.019, 342.6310
1104.115, 308.5209
1105.212, 299.8401
1106.308, 338.2278
1107.404, 341.3521
1108.499, 349.6860
1109.595, 306.1388
1110.691, 301.7844
1111.786, 321.2684
1112.881, 335.7759
1113.976, 362.1434
1115.071, 282.5588
1116.166, 338.9594
1117.260, 324.5388
1118.355, 293.9110
1119.449, 369.3241
1120.543, 349.7028
1121.637, 356.0845
1122.731, 354.0173
1123.824, 292.4045
1124.918, 347.7947
1126.011, 319.1873
1127.104, 329.5820
1128.197, 345.9789
1129.290, 355.3779
1130.382, 291.7789
1131.475, 320.1814
1132.567, 278.5857
1133.659, 261.9915
1134.751, 314.3984
1135.843, 248.8063
1136.935, 296.2155
1138.027, 246.6252
1139.118, 232.0359
1140.209, 209.4467
1141.300, 176.8580
1142.391, 196.2694
1143.482, 156.6808
1144.573, 143.0919
1145.663, 146.5026
1146.754, 127.9126
1147.844, 117.3219
1148.934, 85.73035
1150.024, 92.13757
1151.113, 80.54346
1152.203, 40.94788
1153.292, 25.35046
1154.381, 14.75134
1155.470, 11.15039
1156.559, 2.598999
1157.648, 16.05859
1158.737, 4.671753
1159.825, 5.289063
1160.913, 6.910767
1162.001, 38.53784
1163.089, 1.184570
1164.177, 18.83533
1165.265, 30.49670
1166.352, 32.82483
1167.440, 1.172852
1168.527, 13.51331
1169.614, 27.20923
1170.701, 10.92224
1171.788, 24.06042
1172.874, 19.37939
1173.961, 20.13184
1175.047, 35.89941
1176.133, 19.66675
1177.219, 1.525513
1178.305, 17.28821
1179.390, 38.11731
1180.476, 27.97351
1181.561, 50.85168
1182.646, 37.87549
1183.731, 30.70557
1184.816, 22.69666
1185.901, 12.65332
1186.985, 21.65491
1188.070, 42.67761
1189.154, 4.732788
1190.238, 15.80115
1191.322, 23.11157
1192.406, 11.01770
1193.489, 34.08289
1194.573, 13.21326
1195.656, 36.36243
1196.739, 11.54358
1197.822, 1.260864
1198.905, 4.052490
1199.988, 26.16785
1201.070, 23.41626
1202.153, 34.30920
1203.235, 14.97314
1204.317, 50.72168
1205.399, 16.59155
1206.481, 0.9291990
1207.562, 12.71619
1208.644, 23.35095
1209.725, 33.97717
1210.806, 1.594849
1211.887, 13.19604
1212.968, 1.785645
1214.049, 6.641724
1215.129, 24.90930
1216.209, 6.450562
1217.290, 30.97656
1218.370, 11.49329
1219.450, 11.99634
1220.529, 43.48547
1221.609, 16.03442
1222.688, 26.41748
1223.768, 29.85889
1224.847, 12.29016
1225.926, 16.70667
1227.005, 50.10986
1228.083, 22.50378
1229.162, 37.88550
1230.240, 72.25708
1231.318, 36.61902
1232.396, 20.97083
1233.474, 16.30884
1234.552, 58.63196
1235.629, 40.94531
1236.707, 12.24817
1237.784, 79.53394
1238.861, 37.80969
1239.938, 28.07458
1241.015, 37.32666
1242.092, 36.56775
1243.168, 57.79724
1244.244, 48.01636
1245.321, 53.22510
1246.397, 35.42334
1247.473, 74.60938
1248.548, 54.78503
1249.624, 117.9498
1250.699, 66.10461
1251.775, 24.24854
1252.850, 72.37720
1253.925, 84.49548
1254.999, 112.6035
1256.074, 94.70081
1257.148, 95.78735
1258.223, 98.86304
1259.297, 70.92810
1260.371, 102.9823
1261.445, 133.0258
1262.519, 87.05847
1263.592, 113.0803
1264.666, 84.09106
1265.739, 107.0912
1266.812, 133.0802
1267.885, 137.0582
1268.958, 143.9167
1270.030, 138.5621
1271.103, 127.9277
1272.175, 119.8622
1273.247, 88.78564
1274.319, 92.69849
1275.391, 102.6003
1276.463, 128.4998
1277.535, 107.3793
1278.606, 82.24792
1279.677, 99.10535
1280.748, 147.9517
1281.819, 130.0039
1282.890, 113.6227
1283.961, 133.4354
1285.031, 109.2373
1286.102, 101.0706
1287.172, 95.38318
1288.242, 109.0510
1289.312, 109.6873
1290.381, 108.2629
1291.451, 104.5833
1292.520, 110.8983
1293.590, 86.89966
1294.659, 86.18127
1295.728, 73.40857
1296.797, 86.56311
1297.865, 83.68726
1298.934, 85.99866
1300.002, 127.1825
1301.070, 77.54492
1302.138, 98.31189
1303.206, 106.8169
1304.274, 69.28064
1305.341, 122.7325
1306.409, 99.29321
1307.476, 109.7747
1308.543, 109.8994
1309.610, 121.6143
1310.677, 87.84595
1311.744, 102.8455
1312.810, 62.27783
1313.877, 116.2877
1314.943, 107.7976
1316.009, 104.6342
1317.075, 83.12732
1318.140, 105.9412
1319.206, 128.0188
1320.272, 111.4877
1321.337, 74.93359
1322.402, 83.74243
1323.467, 63.99036
1324.532, 96.57837
1325.596, 102.8007
1326.661, 105.6750
1327.725, 106.6758
1328.790, 108.3876
1329.854, 122.0963
1330.918, 112.4858
1331.981, 128.1636
1333.045, 135.5387
1334.108, 123.0477
1335.172, 96.50708
1336.235, 154.6246
1337.298, 81.95972
1338.361, 111.3007
1339.423, 111.7909
1340.486, 83.84424
1341.548, 114.2845
1342.611, 107.1658
1343.673, 130.4041
1344.735, 93.01392
1345.796, 98.27258
1346.858, 99.08313
1347.919, 91.87854
1348.981, 86.16980
1350.042, 87.29395
1351.103, 66.46350
1352.164, 86.63550
1353.225, 89.34717
1354.285, 78.21021
1355.346, 87.50916
1356.406, 100.4584
1357.466, 70.64111
1358.526, 82.86975
1359.586, 79.42407
1360.645, 63.86951
1361.705, 80.50598
1362.764, 65.75073
1363.823, 64.89050
1364.882, 77.33752
1365.941, 91.53137
1367.000, 97.64502
1368.059, 83.52820
1369.117, 87.70251
1370.175, 84.71265
1371.233, 93.88428
1372.291, 90.09741
1373.349, 86.25354
1374.407, 106.2001
1375.464, 74.35315
1376.522, 43.48010
1377.579, 50.66492
1378.636, 78.80432
1379.693, 70.39844
1380.750, 78.60352
1381.806, 82.73218
1382.863, 67.86963
1383.919, 71.97925
1384.975, 41.08533
1386.031, 67.18689
1387.087, 77.28528
1388.143, 60.38049
1389.199, 84.47229
1390.254, 119.5610
1391.309, 79.64661
1392.364, 78.72925
1393.419, 38.82373
1394.474, 53.90027
1395.529, 96.05505
1396.583, 56.12549
1397.638, 61.19226
1398.692, 28.25586
1399.746, 54.31702
1400.800, 96.49390
1401.853, 54.54956
1402.907, 24.60229
1403.960, 39.66785
1405.014, 80.71387
1406.067, 52.75793
1407.120, 39.79773
1408.173, 51.83569
1409.225, 22.87085
1410.278, 30.90405
1411.330, 28.93811
1412.383, 15.03760
1413.435, 54.06482
1414.487, 59.09351
1415.538, 29.12219
1416.590, 51.97522
1417.641, 44.06787
1418.693, 24.13550
1419.744, 49.16980
1420.795, 42.20447
1421.846, 22.24536
1422.897, 48.27356
1423.947, 53.37927
1424.998, 14.46362
1426.048, 35.51868
1427.098, 63.57080
1428.148, 2.373413
1429.198, 23.64832
1430.247, 47.67078
1431.297, 18.67529
1432.346, 38.77747
1433.396, 38.79504
1434.445, 59.80420
1435.494, 48.27466
1436.542, 34.38440
1437.591, 26.40625
1438.639, 16.26575
1439.688, 2.148926
1440.736, 7.348145
1441.784, 47.88867
1442.832, 17.93677
1443.880, 48.98267
1444.927, 43.05005
1445.975, 27.14258
1447.022, 41.23755
1448.069, 71.35938
1449.116, 3.507202
1450.163, 56.63782
1451.209, 21.20276
1452.256, 38.95312
1453.302, 43.11487
1454.348, 26.29065
1455.394, 1.525757
1456.440, 23.66125
1457.486, 21.85303
1458.532, 32.06445
1459.577, 58.27844
1460.623, 46.49756
1461.668, 33.71814
1462.713, 15.93787
1463.758, 23.16443
1464.802, 23.39331
1465.847, 13.63049
1466.891, 29.87012
1467.936, 44.11279
1468.980, 34.35645
1470.024, 50.60205
1471.067, 38.03955
1472.111, 16.09790
1473.155, 18.35364
1474.198, 17.61072
1475.241, 14.86963
1476.284, 14.43713
1477.327, 31.39539
1478.370, 10.66260
1479.413, 9.933105
1480.455, 9.206665
1481.497, 33.48352
1482.540, 33.76465
1483.582, 44.34778
1484.624, 15.32434
1485.665, 48.61829
1486.707, 39.91797
1487.748, 14.20459
1488.790, 50.44580
1489.831, 12.76245
1490.872, 65.07996
1491.912, 14.39209
1492.953, 56.71631
1493.994, 0.9687500
1495.034, 31.29602
1496.074, 39.63928
1497.114, 1.687500
1498.154, 17.00464
1499.194, 24.36694
1500.234, 58.73523
1501.273, 21.10791
1502.313, 15.13550
1503.352, 41.40088
1504.391, 23.76758
1505.430, 8.183228
1506.468, 53.60864
1507.507, 22.67371
1508.545, 41.62036
1509.584, 55.01746
1510.622, 28.13391
1511.660, 25.53760
1512.698, 34.94690
1513.735, 29.30444
1514.773, 66.72339
1515.810, 56.06287
1516.848, 58.49072
1517.885, 22.92407
1518.922, 37.25879
1519.958, 7.568726
1520.995, 69.92310
1522.032, 56.07971
1523.068, 38.36182
1524.104, 29.81018
1525.140, 4.167114
1526.176, 38.50427
1527.212, 36.81775
1528.248, 26.14697
1529.283, 37.14648
1530.318, 45.59961
1531.353, 44.56299
1532.389, 50.01428
1533.423, 54.24438
1534.458, 34.67969
1535.493, 31.82446
1536.527, 16.27271
1537.561, 50.83984
1538.596, 40.42065
1539.630, 38.01172
1540.663, 10.38525
1541.697, 21.14795
1542.731, 29.30432
1543.764, 74.94287
1544.797, 73.83484
1545.830, 58.47559
1546.863, 36.04358
1547.896, 25.76489
1548.929, 32.61768
1549.961, 42.32715
1550.994, 52.52185
1552.026, 87.36877
1553.058, 79.13306
1554.090, 75.61121
1555.121, 90.33716
1556.153, 22.47156
1557.185, 40.45886
1558.216, 54.42236
1559.247, 0.5400390
1560.278, 20.60144
1561.309, 40.63855
1562.340, 12.87097
1563.370, 0.0000000E+00
##END=



