##NAMES=Diopside
##RRUFFID=R060171
##IDEAL CHEMISTRY=CaMgSi_2_O_6_
##LOCALITY=Jeffrey mine, Asbestos, Quebec, Canada
##OWNER=RRUFF
##SOURCE=Guy Ouellet
##DESCRIPTION=Yellowish-brown tabular crystals associated with vesuvianite, R060170
##STATUS=The identification of this mineral has been confirmed by X-ray diffraction and chemical analysis
##URL=rruff.info/R060171
##MEASURED CHEMISTRY=Ca_1.00_(Mg_0.98_Mn_0.02_)_Î£=1_Si_2.00_O_6_
##PIN_ID=L01396
##ORIENTATION=Laser parallel to -a* (-1 0 0). Fiducial mark perpendicular to laser is parallel to b [0 1 0]
129.2090, 0.0000000E+00
130.4390, 92.61328
131.6680, 181.7305
132.8980, 419.1094
134.1270, 740.2012
135.3560, 1118.148
136.5850, 1495.412
137.8140, 2270.850
139.0430, 2922.781
140.2710, 3134.955
141.5000, 2437.391
142.7280, 1710.754
143.9560, 1071.605
145.1840, 826.2324
146.4120, 382.3887
147.6390, 380.6504
148.8670, 254.1113
150.0940, 299.6641
151.3210, 170.0488
152.5490, 53.62500
153.7750, 12.14062
155.0020, 9.835938
156.2290, 2.492188
157.4550, 70.22461
158.6810, 12.35742
159.9080, 25.94531
161.1340, 29.02930
162.3590, 50.67969
163.5850, 21.72852
164.8110, 136.4688
166.0360, 194.0762
167.2610, 124.0566
168.4860, 87.45508
169.7110, 55.23828
170.9360, 120.3164
172.1610, 86.67188
173.3850, 110.2871
174.6100, 61.14844
175.8340, 76.28906
177.0580, 173.5703
178.2820, 113.1113
179.5050, 276.8613
180.7290, 360.8145
181.9520, 416.9668
183.1760, 227.3105
184.3990, 165.8398
185.6220, 153.5488
186.8450, 253.4355
188.0670, 76.49023
189.2900, 211.7090
190.5120, 273.0918
191.7340, 195.6309
192.9560, 261.3242
194.1780, 18.83203
195.4000, 153.1602
196.6220, 13.70508
197.8430, 270.5723
199.0640, 93.98438
200.2860, 293.5332
201.5070, 257.2246
202.7270, 189.0176
203.9480, 183.7949
205.1690, 253.6914
206.3890, 162.6777
207.6090, 179.6094
208.8290, 26.66016
210.0490, 34.73047
211.2690, 24.32031
212.4890, 29.63477
213.7080, 82.25977
214.9280, 75.55273
216.1470, 175.9043
217.3660, 79.34180
218.5850, 63.82812
219.8030, 233.3730
221.0220, 395.9824
222.2400, 17.66406
223.4590, 262.4160
224.6770, 127.2441
225.8950, 144.1445
227.1120, 209.1191
228.3300, 468.1641
229.5480, 179.3008
230.7650, 583.5410
231.9820, 204.8672
233.1990, 204.2949
234.4160, 303.7910
235.6330, 214.3555
236.8490, 266.9863
238.0660, 77.68750
239.2820, 106.4590
240.4980, 335.2988
241.7140, 113.2051
242.9300, 332.1758
244.1460, 337.2148
245.3610, 142.3203
246.5770, 216.4883
247.7920, 361.7246
249.0070, 255.0234
250.2220, 276.3848
251.4370, 306.8086
252.6510, 426.3145
253.8660, 385.8789
255.0800, 473.5059
256.2940, 260.1914
257.5080, 180.9492
258.7220, 118.7793
259.9360, 443.6699
261.1490, 242.6152
262.3630, 221.6211
263.5760, 304.6816
264.7890, 197.8008
266.0020, 230.9863
267.2150, 107.2363
268.4270, 10.53906
269.6400, 257.9004
270.8520, 270.3125
272.0640, 98.78125
273.2760, 147.6855
274.4880, 77.27539
275.7000, 333.2402
276.9120, 66.99805
278.1230, 111.2324
279.3340, 355.7656
280.5450, 285.1426
281.7560, 270.1934
282.9670, 263.1992
284.1780, 73.25586
285.3880, 263.2305
286.5980, 0.1562500
287.8090, 307.5527
289.0190, 289.3770
290.2290, 120.2090
291.4380, 273.0918
292.6480, 415.0762
293.8570, 236.1680
295.0670, 268.3652
296.2760, 155.6582
297.4850, 324.0586
298.6930, 283.5488
299.9020, 326.6895
301.1110, 383.3516
302.3190, 66.08594
303.5270, 336.3457
304.7350, 394.8828
305.9430, 509.1016
307.1510, 153.3105
308.3580, 228.4062
309.5660, 392.9688
310.7730, 466.1973
311.9800, 610.4902
313.1870, 677.8438
314.3940, 1021.258
315.6010, 997.7285
316.8070, 1500.256
318.0130, 1409.838
319.2200, 1865.506
320.4260, 2144.229
321.6310, 2518.004
322.8370, 2626.828
324.0430, 2405.705
325.2480, 2117.633
326.4540, 1653.609
327.6590, 1340.648
328.8640, 1009.041
330.0680, 819.1699
331.2730, 519.7422
332.4780, 704.9688
333.6820, 608.2422
334.8860, 487.9453
336.0900, 581.3047
337.2940, 315.7031
338.4980, 547.1465
339.7010, 432.3242
340.9050, 186.8477
342.1080, 340.2207
343.3110, 152.8848
344.5140, 335.5215
345.7170, 410.1973
346.9200, 139.9121
348.1220, 249.6621
349.3240, 278.4492
350.5270, 149.2734
351.7290, 478.1328
352.9310, 426.0137
354.1320, 265.9277
355.3340, 258.8789
356.5350, 359.8672
357.7370, 494.8906
358.9380, 381.9492
360.1390, 258.0449
361.3400, 401.1758
362.5400, 367.3379
363.7410, 488.5391
364.9410, 314.7734
366.1410, 338.0430
367.3410, 279.3477
368.5410, 235.6855
369.7410, 378.0566
370.9400, 276.4629
372.1400, 290.8984
373.3390, 590.6621
374.5380, 214.1660
375.7370, 231.7031
376.9360, 444.2695
378.1350, 497.8691
379.3330, 464.5000
380.5310, 586.1621
381.7300, 643.7051
382.9280, 750.5762
384.1260, 933.3789
385.3230, 1142.164
386.5210, 1493.979
387.7180, 1594.822
388.9160, 1650.695
390.1130, 1681.596
391.3100, 1308.529
392.5060, 963.4883
393.7030, 954.4785
394.9000, 737.4961
396.0960, 439.5410
397.2920, 511.6133
398.4880, 372.7168
399.6840, 269.8418
400.8800, 384.6895
402.0750, 330.8711
403.2710, 290.0781
404.4660, 158.3125
405.6610, 200.5723
406.8560, 44.85938
408.0510, 38.17188
409.2450, 99.50781
410.4400, 163.8711
411.6340, 87.25781
412.8280, 67.66992
414.0220, 127.1035
415.2160, 38.43359
416.4100, 89.18750
417.6030, 175.6816
418.7970, 278.2852
419.9900, 147.8496
421.1830, 350.4551
422.3760, 72.90039
423.5690, 148.2461
424.7610, 114.3887
425.9540, 20.94141
427.1460, 4.244141
428.3380, 279.7285
429.5300, 129.4883
430.7220, 90.26758
431.9140, 200.0938
433.1050, 100.6582
434.2970, 90.54883
435.4880, 198.0762
436.6790, 135.0312
437.8700, 27.02148
439.0610, 244.0391
440.2510, 219.4922
441.4420, 20.59570
442.6320, 265.7285
443.8220, 159.6172
445.0120, 58.80664
446.2020, 84.95703
447.3910, 100.2793
448.5810, 52.54297
449.7700, 202.8379
450.9600, 30.16992
452.1490, 127.5273
453.3370, 237.6055
454.5260, 50.01758
455.7150, 247.8887
456.9030, 15.34961
458.0910, 46.83789
459.2800, 113.5801
460.4670, 103.1504
461.6550, 91.90039
462.8430, 72.97461
464.0300, 204.6191
465.2180, 73.28516
466.4050, 192.9746
467.5920, 262.1250
468.7790, 19.86328
469.9650, 170.8926
471.1520, 42.32422
472.3380, 402.4609
473.5250, 43.73047
474.7110, 229.8906
475.8970, 121.7168
477.0820, 42.43750
478.2680, 113.4141
479.4540, 199.2852
480.6390, 238.1738
481.8240, 115.0820
483.0090, 142.0117
484.1940, 322.9609
485.3780, 14.92969
486.5630, 323.9180
487.7470, 141.9258
488.9320, 219.9766
490.1160, 113.0469
491.3000, 221.1367
492.4830, 154.2441
493.6670, 183.3730
494.8500, 322.5234
496.0340, 186.6895
497.2170, 81.89453
498.4000, 201.1191
499.5820, 163.3594
500.7650, 171.6250
501.9480, 63.91211
503.1300, 148.2129
504.3120, 37.53320
505.4940, 375.8672
506.6760, 259.2188
507.8580, 242.5859
509.0390, 276.9707
510.2210, 193.3730
511.4020, 85.79102
512.5830, 214.2441
513.7640, 33.72656
514.9450, 11.77539
516.1250, 90.72656
517.3060, 64.24023
518.4860, 110.7715
519.6660, 95.31641
520.8460, 104.8770
522.0260, 208.4727
523.2060, 167.0898
524.3850, 109.7363
525.5650, 24.60547
526.7440, 140.0508
527.9230, 206.7207
529.1020, 378.4023
530.2810, 218.0996
531.4590, 188.8281
532.6380, 118.5684
533.8160, 80.32031
534.9940, 293.0840
536.1720, 216.8652
537.3500, 254.9141
538.5270, 284.4746
539.7050, 217.2969
540.8820, 66.12891
542.0590, 14.02539
543.2360, 145.8145
544.4130, 166.6641
545.5900, 215.5254
546.7660, 407.3945
547.9430, 63.27539
549.1190, 214.1621
550.2950, 167.0605
551.4710, 317.9707
552.6470, 187.8887
553.8220, 71.81836
554.9980, 151.7559
556.1730, 70.70703
557.3480, 40.70312
558.5230, 338.2441
559.6980, 35.20117
560.8730, 174.1699
562.0470, 86.14648
563.2220, 113.1328
564.3960, 73.17188
565.5700, 54.81055
566.7440, 196.6367
567.9170, 101.8672
569.0910, 14.70312
570.2640, 142.7324
571.4380, 294.7676
572.6110, 55.80664
573.7840, 53.15039
574.9570, 54.86328
576.1290, 32.35938
577.3020, 132.7480
578.4740, 306.7480
579.6460, 304.7539
580.8180, 46.24023
581.9900, 244.1016
583.1620, 49.08594
584.3330, 8.179688
585.5040, 67.16016
586.6760, 47.08984
587.8470, 161.2383
589.0180, 64.22461
590.1880, 160.2129
591.3590, 263.1934
592.5290, 298.1836
593.7000, 11.82617
594.8700, 281.1465
596.0400, 18.12891
597.2090, 196.1055
598.3790, 208.9590
599.5490, 33.96289
600.7180, 148.0645
601.8870, 107.8105
603.0560, 21.58398
604.2250, 184.4922
605.3940, 116.3984
606.5620, 194.3086
607.7300, 22.88281
608.8990, 149.8555
610.0670, 36.43164
611.2350, 94.43750
612.4020, 352.9277
613.5700, 74.80078
614.7370, 11.73047
615.9050, 88.37109
617.0720, 112.2461
618.2390, 159.8789
619.4060, 189.1191
620.5720, 223.6152
621.7390, 225.4746
622.9050, 288.5664
624.0710, 329.5430
625.2370, 259.5684
626.4030, 252.6738
627.5690, 140.6797
628.7340, 219.5410
629.9000, 274.8633
631.0650, 337.2305
632.2300, 266.0586
633.3950, 356.8750
634.5600, 210.7988
635.7240, 146.9082
636.8890, 370.1270
638.0530, 233.2891
639.2170, 414.0742
640.3810, 344.5156
641.5450, 496.7344
642.7080, 351.4902
643.8720, 487.6250
645.0350, 469.7266
646.1980, 372.6895
647.3610, 520.7305
648.5240, 768.9082
649.6870, 823.0273
650.8490, 635.8125
652.0120, 918.9258
653.1740, 1183.363
654.3360, 1335.066
655.4980, 1821.840
656.6600, 2138.504
657.8210, 2431.775
658.9830, 3082.004
660.1440, 3769.639
661.3050, 4523.750
662.4660, 5142.631
663.6270, 5445.596
664.7870, 5575.061
665.9480, 5531.756
667.1080, 5124.016
668.2680, 4863.650
669.4280, 4062.133
670.5880, 3342.961
671.7480, 2704.229
672.9070, 2213.758
674.0670, 1794.270
675.2260, 1511.314
676.3850, 1316.582
677.5440, 1203.896
678.7030, 963.5566
679.8610, 676.9375
681.0200, 667.0664
682.1780, 454.7891
683.3360, 463.4336
684.4940, 433.0977
685.6520, 308.6172
686.8090, 416.5117
687.9670, 385.0469
689.1240, 258.6055
690.2810, 150.1992
691.4380, 182.0703
692.5950, 134.9844
693.7520, 227.9297
694.9080, 188.9141
696.0650, 189.0742
697.2210, 195.3594
698.3770, 258.6914
699.5330, 152.6836
700.6880, 306.6680
701.8440, 209.5469
702.9990, 108.0898
704.1550, 113.1523
705.3100, 152.6758
706.4650, 164.7188
707.6190, 359.7383
708.7740, 259.3906
709.9290, 147.3633
711.0830, 369.3086
712.2370, 192.2344
713.3910, 331.4258
714.5450, 36.30078
715.6980, 79.54297
716.8520, 470.3633
718.0050, 228.1562
719.1580, 154.9219
720.3110, 70.75000
721.4640, 259.9062
722.6170, 91.53906
723.7700, 321.9570
724.9220, 15.69922
726.0740, 132.8633
727.2260, 244.3711
728.3780, 192.8516
729.5300, 0.3046880
730.6810, 151.9023
731.8330, 287.2734
732.9840, 163.6719
734.1350, 421.6016
735.2860, 147.8008
736.4370, 37.96875
737.5880, 79.41016
738.7380, 120.5000
739.8880, 117.7734
741.0390, 8.859375
742.1890, 304.7227
743.3380, 232.2734
744.4880, 276.4375
745.6380, 48.33203
746.7870, 142.4570
747.9360, 41.08984
749.0850, 262.5742
750.2340, 32.87500
751.3830, 164.2695
752.5310, 274.3438
753.6800, 122.2812
754.8280, 204.9258
755.9760, 28.90625
757.1240, 240.7148
758.2720, 327.7461
759.4190, 215.5000
760.5670, 133.1953
761.7140, 162.0664
762.8610, 151.7891
764.0080, 119.0430
765.1550, 160.7266
766.3020, 63.08203
767.4480, 86.71484
768.5950, 81.71484
769.7410, 228.4688
770.8870, 46.91406
772.0330, 187.6445
773.1780, 143.1680
774.3240, 52.50000
775.4690, 131.3203
776.6140, 248.5430
777.7590, 8.375000
778.9040, 118.1055
780.0490, 430.1680
781.1940, 137.4258
782.3380, 145.5000
783.4820, 177.6562
784.6260, 159.0312
785.7700, 125.9688
786.9140, 138.4023
788.0580, 51.54688
789.2010, 35.72266
790.3450, 8.886719
791.4880, 59.16797
792.6310, 150.7461
793.7730, 351.3711
794.9160, 114.1445
796.0590, 122.4883
797.2010, 281.8203
798.3430, 48.81250
799.4850, 7.957031
800.6270, 12.41406
801.7690, 226.4375
802.9100, 80.72266
804.0520, 172.2500
805.1930, 270.3203
806.3340, 92.90234
807.4750, 27.00391
808.6160, 116.8906
809.7560, 282.1641
810.8970, 324.1406
812.0370, 49.51562
813.1770, 35.77734
814.3170, 112.8711
815.4570, 329.1641
816.5960, 268.1406
817.7360, 139.4258
818.8750, 306.6445
820.0140, 251.7422
821.1530, 242.5391
822.2920, 275.7539
823.4310, 182.3789
824.5690, 266.7656
825.7070, 259.1250
826.8460, 249.3008
827.9840, 187.8008
829.1220, 157.0430
830.2590, 155.2344
831.3970, 142.7891
832.5340, 115.2852
833.6710, 85.06641
834.8080, 94.98047
835.9450, 123.6211
837.0820, 133.2422
838.2190, 152.2617
839.3550, 226.3750
840.4910, 440.3750
841.6270, 234.2344
842.7630, 513.8945
843.8990, 526.0195
845.0350, 603.9453
846.1700, 431.5938
847.3060, 546.2227
848.4410, 525.5703
849.5760, 586.9766
850.7100, 683.4258
851.8450, 732.5000
852.9800, 890.6562
854.1140, 904.0820
855.2480, 708.3672
856.3820, 524.1328
857.5160, 505.7891
858.6500, 423.9492
859.7830, 232.9727
860.9170, 180.5742
862.0500, 353.2266
863.1830, 476.6836
864.3160, 403.4805
865.4480, 513.2305
866.5810, 319.4023
867.7130, 545.0703
868.8460, 190.6797
869.9780, 66.23828
871.1100, 286.7305
872.2410, 153.1641
873.3730, 274.6641
874.5050, 375.0039
875.6360, 323.2422
876.7670, 110.4258
877.8980, 296.2383
879.0290, 235.4688
880.1590, 108.6367
881.2900, 516.7344
882.4200, 208.0977
883.5500, 186.9961
884.6800, 147.0977
885.8100, 249.9805
886.9400, 219.8594
888.0690, 95.59766
889.1990, 87.73047
890.3280, 141.5898
891.4570, 293.0703
892.5860, 114.3320
893.7140, 266.9922
894.8430, 325.2852
895.9710, 333.4922
897.1000, 281.4102
898.2280, 107.3672
899.3560, 174.2148
900.4830, 104.5547
901.6110, 174.4102
902.7380, 242.4805
903.8660, 185.9219
904.9930, 70.66016
906.1200, 302.9766
907.2460, 66.75781
908.3730, 266.0664
909.5000, 104.1484
910.6260, 465.4492
911.7520, 296.5703
912.8780, 321.9922
914.0040, 210.8633
915.1290, 300.8438
916.2550, 247.5195
917.3800, 281.3438
918.5050, 252.1367
919.6300, 190.7539
920.7550, 275.0781
921.8800, 412.9531
923.0040, 219.9141
924.1290, 307.8281
925.2530, 4.351563
926.3770, 191.9336
927.5010, 293.7461
928.6250, 96.47656
929.7480, 231.4414
930.8720, 320.8203
931.9950, 17.82031
933.1180, 99.66406
934.2410, 72.40625
935.3640, 193.7109
936.4860, 358.9375
937.6090, 72.44531
938.7310, 180.8086
939.8530, 5.640625
940.9750, 146.3594
942.0970, 251.2383
943.2180, 275.5586
944.3400, 438.8711
945.4610, 234.4180
946.5820, 60.50391
947.7030, 140.7188
948.8240, 165.1562
949.9450, 121.6602
951.0650, 170.9727
952.1860, 16.37109
953.3060, 328.5312
954.4260, 22.78516
955.5460, 169.1055
956.6650, 295.9375
957.7850, 187.5312
958.9040, 66.18359
960.0230, 63.66016
961.1420, 84.31250
962.2610, 176.1484
963.3800, 230.1914
964.4990, 156.0273
965.6170, 203.1562
966.7350, 138.1562
967.8530, 9.593750
968.9710, 51.04688
970.0890, 174.0273
971.2070, 308.6289
972.3240, 438.8633
973.4410, 162.5703
974.5580, 179.1797
975.6750, 461.0547
976.7920, 79.26953
977.9090, 357.8672
979.0250, 154.7031
980.1410, 459.0625
981.2580, 199.1133
982.3740, 255.4766
983.4890, 226.9609
984.6050, 208.6328
985.7200, 131.3828
986.8360, 75.57031
987.9510, 418.2500
989.0660, 439.0156
990.1810, 308.7031
991.2950, 241.4883
992.4100, 192.2500
993.5240, 185.3516
994.6390, 298.4023
995.7530, 286.3789
996.8660, 305.9023
997.9800, 450.3477
999.0940, 495.3359
1000.207, 350.8984
1001.320, 694.5352
1002.433, 769.4727
1003.546, 843.0742
1004.659, 1405.438
1005.772, 1381.160
1006.884, 1741.789
1007.996, 2504.281
1009.108, 3121.301
1010.220, 3503.531
1011.332, 3770.305
1012.444, 3868.172
1013.555, 3738.695
1014.666, 3497.484
1015.777, 2988.562
1016.888, 2200.652
1017.999, 1634.770
1019.110, 1368.062
1020.220, 1108.848
1021.331, 676.8398
1022.441, 824.5039
1023.551, 676.9648
1024.661, 612.7891
1025.770, 581.0195
1026.880, 414.3320
1027.989, 247.3398
1029.098, 635.5898
1030.207, 556.9297
1031.316, 492.0742
1032.425, 489.3516
1033.533, 317.3984
1034.642, 456.8164
1035.750, 420.5859
1036.858, 444.6484
1037.966, 147.2070
1039.073, 317.0430
1040.181, 427.5586
1041.288, 257.9727
1042.396, 533.5352
1043.503, 390.3477
1044.610, 429.9023
1045.716, 430.4570
1046.823, 388.4414
1047.929, 402.3086
1049.036, 416.9688
1050.142, 333.5781
1051.248, 419.8086
1052.353, 235.5039
1053.459, 268.4023
1054.564, 321.6445
1055.670, 126.6602
1056.775, 369.4062
1057.880, 365.4570
1058.985, 531.2148
1060.089, 348.5938
1061.194, 251.4375
1062.298, 278.9805
1063.402, 516.9102
1064.506, 323.2344
1065.610, 529.3594
1066.713, 322.6836
1067.817, 301.4688
1068.920, 477.4766
1070.023, 181.3477
1071.126, 95.23828
1072.229, 245.3320
1073.332, 346.1367
1074.435, 321.4141
1075.537, 351.7539
1076.639, 225.8516
1077.741, 320.6602
1078.843, 423.6250
1079.945, 523.0234
1081.046, 334.9336
1082.148, 284.3359
1083.249, 274.3633
1084.350, 434.5781
1085.451, 337.8711
1086.551, 225.0039
1087.652, 367.9688
1088.752, 215.6680
1089.853, 285.2695
1090.953, 165.7969
1092.053, 261.3242
1093.152, 12.92578
1094.252, 229.4023
1095.351, 3.281250
1096.451, 216.2578
1097.550, 361.2305
1098.649, 145.3086
1099.748, 422.9922
1100.846, 123.6289
1101.945, 71.94531
1103.043, 127.4492
1104.141, 171.7578
1105.239, 298.1758
1106.337, 150.5430
1107.434, 23.89453
1108.532, 534.2070
1109.629, 66.35938
1110.726, 350.8984
1111.823, 204.4766
1112.920, 258.2031
1114.017, 162.7930
1115.113, 350.5352
1116.210, 285.3672
1117.306, 15.69531
1118.402, 356.4727
1119.498, 216.6523
1120.593, 488.5078
1121.689, 448.9805
1122.784, 143.5742
1123.879, 359.4141
1124.974, 345.9492
1126.069, 265.3594
1127.164, 106.1445
1128.259, 118.7930
1129.353, 121.4297
1130.447, 18.42578
1131.541, 28.38672
1132.635, 10.58984
1133.729, 38.94141
1134.822, 80.69531
1135.916, 24.37500
1137.009, 91.98047
1138.102, 144.5156
1139.195, 180.0039
1140.288, 182.6367
1141.380, 63.30078
1142.473, 319.9180
1143.565, 237.8750
1144.657, 156.3047
1145.749, 381.3633
1146.841, 128.3281
1147.932, 163.1758
1149.024, 32.92188
1150.115, 37.37109
1151.206, 230.2969
1152.297, 404.4570
1153.388, 265.9453
1154.479, 454.3242
1155.569, 285.6914
1156.659, 323.3789
1157.750, 318.9141
1158.839, 109.5742
1159.929, 297.0586
1161.019, 85.35156
1162.108, 74.17188
1163.198, 223.6719
1164.287, 456.5977
1165.376, 147.1016
1166.465, 152.6562
1167.553, 145.2695
1168.642, 190.5195
1169.730, 156.6367
1170.818, 280.8945
1171.906, 210.2148
1172.994, 196.6406
1174.082, 154.8164
1175.170, 306.1562
1176.257, 51.92188
1177.344, 393.5195
1178.431, 22.52734
1179.518, 597.0234
1180.605, 292.7500
1181.691, 159.4023
1182.778, 240.4453
1183.864, 545.9219
1184.950, 322.2617
1186.036, 72.22656
1187.122, 391.7500
1188.207, 306.4219
1189.292, 314.9336
1190.378, 326.0430
1191.463, 279.7227
1192.548, 443.0352
1193.632, 157.4531
1194.717, 132.9219
1195.801, 156.8203
1196.886, 308.1406
1197.970, 388.9805
1199.054, 67.17578
1200.137, 204.5547
1201.221, 305.1445
1202.305, 167.5664
1203.388, 545.3281
1204.471, 249.0117
1205.554, 571.3125
1206.637, 178.0508
1207.719, 239.9961
1208.802, 206.9609
1209.884, 222.1484
1210.966, 84.92969
1212.048, 289.5664
1213.130, 238.1914
1214.212, 447.2812
1215.293, 71.30078
1216.374, 93.98047
1217.456, 125.8984
1218.536, 10.45703
1219.617, 110.5156
1220.698, 13.72266
1221.778, 21.94531
1222.859, 8.050781
1223.939, 36.01562
1225.019, 252.6367
1226.099, 128.9570
1227.178, 375.8008
1228.258, 343.7930
1229.337, 398.3047
1230.417, 96.07812
1231.496, 392.0781
1232.574, 271.1523
1233.653, 38.73828
1234.732, 231.9062
1235.810, 59.99609
1236.888, 0.6054690
1237.966, 244.3398
1239.044, 532.3125
1240.122, 144.8672
1241.199, 483.8906
1242.277, 166.3008
1243.354, 196.4180
1244.431, 280.8281
1245.508, 2.195313
1246.585, 116.5000
1247.661, 275.8086
1248.738, 339.3438
1249.814, 129.0508
1250.890, 166.0117
1251.966, 158.7578
1253.042, 207.5742
1254.117, 139.8438
1255.193, 229.7930
1256.268, 430.0977
1257.343, 219.4453
1258.418, 135.7031
1259.493, 299.7891
1260.567, 76.02734
1261.642, 308.8203
1262.716, 200.2891
1263.790, 417.9336
1264.864, 266.1484
1265.938, 329.2500
1267.011, 75.07031
1268.085, 258.5000
1269.158, 309.4062
1270.231, 37.40234
1271.304, 130.3281
1272.377, 1.382813
1273.450, 0.0000000E+00
##END=



