##NAMES=Diopside
##RRUFFID=R050666
##IDEAL CHEMISTRY=CaMgSi_2_O_6_
##LOCALITY=Franklin, Sussex County, New Jersey, USA
##OWNER=RRUFF
##SOURCE=University of Arizona Mineral Museum
##DESCRIPTION=Brown cleavage fragment with white hardystonite
##STATUS=The identification of this mineral has been confirmed by X-ray diffraction and chemical analysis
##URL=rruff.info/R050666
##MEASURED CHEMISTRY=Ca(Mg_0.66_Mn_0.33_Fe_0.01_)Si_2_O_6_
##PIN_ID=L01400
##ORIENTATION=Laser parallel to -a* (-1 0 0). Fiducial mark perpendicular to laser is parallel to -b [0 -1 0]
129.2090, 0.0000000E+00
130.4390, 237.8359
131.6680, 566.5566
132.8980, 760.5156
134.1270, 504.3770
135.3560, 583.2031
136.5850, 438.7637
137.8140, 402.7930
139.0430, 229.8164
140.2710, 146.6211
141.5000, 524.0586
142.7280, 163.0430
143.9560, 450.2773
145.1840, 25.36328
146.4120, 198.6367
147.6390, 83.15625
148.8670, 152.0020
150.0940, 135.0879
151.3210, 158.1348
152.5490, 156.0684
153.7750, 335.8184
155.0020, 289.3281
156.2290, 39.55273
157.4550, 29.44336
158.6810, 173.9648
159.9080, 46.90820
161.1340, 303.7852
162.3590, 75.97461
163.5850, 82.21094
164.8110, 253.0508
166.0360, 121.8008
167.2610, 104.9961
168.4860, 273.6309
169.7110, 7.652344
170.9360, 215.0527
172.1610, 361.8086
173.3850, 527.9102
174.6100, 466.3359
175.8340, 658.0625
177.0580, 599.0801
178.2820, 325.3828
179.5050, 266.9609
180.7290, 279.8145
181.9520, 247.9375
183.1760, 220.3320
184.3990, 234.9883
185.6220, 263.9043
186.8450, 337.0723
188.0670, 145.4883
189.2900, 380.1504
190.5120, 431.0586
191.7340, 295.2031
192.9560, 418.5820
194.1780, 402.1953
195.4000, 407.0391
196.6220, 537.1133
197.8430, 322.4102
199.0640, 182.9336
200.2860, 685.6797
201.5070, 560.6445
202.7270, 487.7852
203.9480, 443.9805
205.1690, 400.4609
206.3890, 379.2852
207.6090, 373.0586
208.8290, 326.6211
210.0490, 301.2812
211.2690, 197.0703
212.4890, 236.8867
213.7080, 127.0078
214.9280, 284.1172
216.1470, 375.3320
217.3660, 394.6484
218.5850, 131.0312
219.8030, 380.4414
221.0220, 186.9336
222.2400, 413.4844
223.4590, 304.1562
224.6770, 502.9531
225.8950, 257.8750
227.1120, 508.9297
228.3300, 546.1172
229.5480, 648.4297
230.7650, 649.5352
231.9820, 658.5742
233.1990, 561.5508
234.4160, 545.5938
235.6330, 532.7734
236.8490, 314.0898
238.0660, 502.5352
239.2820, 483.1094
240.4980, 162.8164
241.7140, 644.6523
242.9300, 385.6172
244.1460, 176.7109
245.3610, 241.9336
246.5770, 245.2930
247.7920, 186.9922
249.0070, 97.39844
250.2220, 230.1484
251.4370, 316.0234
252.6510, 461.0391
253.8660, 453.6992
255.0800, 302.4570
256.2940, 461.8633
257.5080, 414.3984
258.7220, 488.1211
259.9360, 443.1211
261.1490, 433.8047
262.3630, 326.8711
263.5760, 244.0664
264.7890, 230.3984
266.0020, 343.8633
267.2150, 542.4570
268.4270, 406.1758
269.6400, 183.0312
270.8520, 75.01953
272.0640, 584.1367
273.2760, 80.38672
274.4880, 383.7695
275.7000, 333.3203
276.9120, 358.4102
278.1230, 603.8398
279.3340, 429.5273
280.5450, 652.4141
281.7560, 224.4688
282.9670, 276.6797
284.1780, 673.0000
285.3880, 317.0859
286.5980, 548.1992
287.8090, 568.8242
289.0190, 470.5742
290.2290, 449.4375
291.4380, 610.3125
292.6480, 594.7305
293.8570, 839.5938
295.0670, 644.4531
296.2760, 844.4062
297.4850, 845.5703
298.6930, 1166.879
299.9020, 1065.332
301.1110, 1348.930
302.3190, 1235.656
303.5270, 1464.512
304.7350, 1654.512
305.9430, 1957.766
307.1510, 2197.023
308.3580, 2602.391
309.5660, 2784.715
310.7730, 3271.352
311.9800, 3734.160
313.1870, 4216.191
314.3940, 4389.254
315.6010, 4481.438
316.8070, 4487.738
318.0130, 4001.145
319.2200, 3826.684
320.4260, 3694.324
321.6310, 2960.082
322.8370, 2762.953
324.0430, 2838.934
325.2480, 2149.023
326.4540, 2257.242
327.6590, 1593.566
328.8640, 1649.000
330.0680, 1801.777
331.2730, 1641.422
332.4780, 1532.969
333.6820, 1695.820
334.8860, 1636.770
336.0900, 1767.293
337.2940, 1502.449
338.4980, 1622.703
339.7010, 1598.062
340.9050, 1686.961
342.1080, 1646.516
343.3110, 1804.168
344.5140, 2302.918
345.7170, 2469.773
346.9200, 2596.719
348.1220, 2795.754
349.3240, 2619.891
350.5270, 2432.121
351.7290, 2122.449
352.9310, 2016.875
354.1320, 1968.391
355.3340, 2104.008
356.5350, 1839.723
357.7370, 1423.535
358.9380, 1727.438
360.1390, 1300.441
361.3400, 1458.539
362.5400, 1557.734
363.7410, 1392.023
364.9410, 1449.414
366.1410, 1441.898
367.3410, 1481.484
368.5410, 1687.164
369.7410, 1821.941
370.9400, 2118.816
372.1400, 2577.785
373.3390, 2953.953
374.5380, 3384.016
375.7370, 3960.273
376.9360, 4682.633
378.1350, 5217.078
379.3330, 6490.621
380.5310, 7195.262
381.7300, 7845.992
382.9280, 7559.824
384.1260, 7335.746
385.3230, 6586.766
386.5210, 5335.875
387.7180, 4399.086
388.9160, 3637.383
390.1130, 2949.773
391.3100, 2474.258
392.5060, 1657.840
393.7030, 1697.512
394.9000, 1087.277
396.0960, 1235.137
397.2920, 864.0859
398.4880, 849.1289
399.6840, 738.2656
400.8800, 641.4961
402.0750, 534.8164
403.2710, 554.2266
404.4660, 658.7305
405.6610, 587.3242
406.8560, 611.4922
408.0510, 311.7930
409.2450, 461.6602
410.4400, 622.6250
411.6340, 339.6797
412.8280, 347.8203
414.0220, 193.0586
415.2160, 156.9219
416.4100, 241.7969
417.6030, 178.3047
418.7970, 183.8984
419.9900, 262.6055
421.1830, 414.4219
422.3760, 139.3555
423.5690, 474.3906
424.7610, 376.5352
425.9540, 93.78516
427.1460, 471.1445
428.3380, 45.39062
429.5300, 41.82422
430.7220, 163.8438
431.9140, 24.61719
433.1050, 49.52344
434.2970, 173.5117
435.4880, 175.3984
436.6790, 282.7617
437.8700, 130.9180
439.0610, 55.70703
440.2510, 209.7695
441.4420, 231.3516
442.6320, 424.0391
443.8220, 321.8359
445.0120, 220.7383
446.2020, 323.7461
447.3910, 210.8594
448.5810, 196.0781
449.7700, 358.7812
450.9600, 266.2266
452.1490, 311.7969
453.3370, 351.4844
454.5260, 63.03516
455.7150, 405.9297
456.9030, 449.8711
458.0910, 246.0156
459.2800, 224.2617
460.4670, 29.61328
461.6550, 6.863281
462.8430, 252.4180
464.0300, 228.1055
465.2180, 161.5508
466.4050, 164.4492
467.5920, 140.4883
468.7790, 396.5352
469.9650, 150.7812
471.1520, 151.1367
472.3380, 217.4141
473.5250, 183.0781
474.7110, 130.3242
475.8970, 135.3359
477.0820, 98.10156
478.2680, 173.0352
479.4540, 125.8789
480.6390, 215.8945
481.8240, 228.0156
483.0090, 59.76562
484.1940, 69.53906
485.3780, 10.94531
486.5630, 110.4648
487.7470, 3.082031
488.9320, 132.8008
490.1160, 19.62109
491.3000, 352.5352
492.4830, 400.5508
493.6670, 376.6680
494.8500, 209.8945
496.0340, 555.2109
497.2170, 372.6328
498.4000, 351.1562
499.5820, 551.7773
500.7650, 596.5625
501.9480, 776.4453
503.1300, 545.4219
504.3120, 557.5273
505.4940, 725.7266
506.6760, 389.0586
507.8580, 523.4922
509.0390, 768.0234
510.2210, 451.2812
511.4020, 429.3750
512.5830, 253.1992
513.7640, 139.1211
514.9450, 375.1406
516.1250, 539.2578
517.3060, 520.5117
518.4860, 412.8594
519.6660, 669.3086
520.8460, 451.8555
522.0260, 543.4961
523.2060, 690.2383
524.3850, 789.1250
525.5650, 843.1094
526.7440, 818.1875
527.9230, 875.3633
529.1020, 792.3438
530.2810, 529.9961
531.4590, 550.4570
532.6380, 429.0156
533.8160, 156.6719
534.9940, 465.4219
536.1720, 390.2773
537.3500, 212.2305
538.5270, 216.2812
539.7050, 160.4297
540.8820, 454.6719
542.0590, 285.0078
543.2360, 385.4727
544.4130, 539.0781
545.5900, 370.7734
546.7660, 688.5977
547.9430, 578.5195
549.1190, 752.5312
550.2950, 972.6406
551.4710, 1085.852
552.6470, 1129.164
553.8220, 1410.570
554.9980, 1528.070
556.1730, 1411.660
557.3480, 1057.344
558.5230, 1038.137
559.6980, 647.0234
560.8730, 823.9961
562.0470, 525.0703
563.2220, 471.2305
564.3960, 348.4844
565.5700, 469.8320
566.7440, 326.2695
567.9170, 329.7930
569.0910, 230.4102
570.2640, 307.4492
571.4380, 398.6445
572.6110, 312.5391
573.7840, 8.511719
574.9570, 74.57812
576.1290, 161.7305
577.3020, 438.2695
578.4740, 21.40234
579.6460, 140.0117
580.8180, 172.5781
581.9900, 213.1641
583.1620, 209.8398
584.3330, 184.4023
585.5040, 32.44922
586.6760, 102.3906
587.8470, 38.41406
589.0180, 24.52734
590.1880, 3.277344
591.3590, 29.01562
592.5290, 127.4062
593.7000, 116.8828
594.8700, 301.5547
596.0400, 93.97656
597.2090, 92.41016
598.3790, 65.51172
599.5490, 158.2617
600.7180, 135.0977
601.8870, 38.98828
603.0560, 35.99609
604.2250, 179.6289
605.3940, 5.222656
606.5620, 88.00000
607.7300, 103.0547
608.8990, 103.5547
610.0670, 284.8672
611.2350, 96.30078
612.4020, 29.88672
613.5700, 230.3125
614.7370, 144.1836
615.9050, 201.2070
617.0720, 171.1094
618.2390, 111.0977
619.4060, 147.6953
620.5720, 80.30078
621.7390, 75.15625
622.9050, 196.8320
624.0710, 58.77344
625.2370, 159.2383
626.4030, 208.6094
627.5690, 458.2305
628.7340, 602.9180
629.9000, 719.6914
631.0650, 349.5469
632.2300, 368.4766
633.3950, 585.4883
634.5600, 335.4375
635.7240, 479.5977
636.8890, 738.8320
638.0530, 483.1406
639.2170, 602.7109
640.3810, 672.4102
641.5450, 784.9414
642.7080, 684.5586
643.8720, 897.4961
645.0350, 1153.254
646.1980, 1139.832
647.3610, 1654.914
648.5240, 1687.891
649.6870, 2040.934
650.8490, 2432.059
652.0120, 2986.246
653.1740, 3705.602
654.3360, 4399.953
655.4980, 5343.594
656.6600, 5656.406
657.8210, 6625.953
658.9830, 7366.562
660.1440, 7325.609
661.3050, 7694.363
662.4660, 7041.484
663.6270, 6350.297
664.7870, 5450.254
665.9480, 4641.277
667.1080, 3949.586
668.2680, 3268.043
669.4280, 2704.191
670.5880, 2303.496
671.7480, 1850.023
672.9070, 1847.477
674.0670, 1159.383
675.2260, 1546.586
676.3850, 1079.414
677.5440, 1017.816
678.7030, 1058.598
679.8610, 508.4609
681.0200, 757.3789
682.1780, 470.1445
683.3360, 652.5352
684.4940, 635.8906
685.6520, 583.5977
686.8090, 415.1445
687.9670, 443.4336
689.1240, 467.7969
690.2810, 466.6719
691.4380, 422.2070
692.5950, 537.7422
693.7520, 262.3398
694.9080, 464.0000
696.0650, 401.7148
697.2210, 377.4844
698.3770, 466.3203
699.5330, 237.9336
700.6880, 424.8828
701.8440, 481.8945
702.9990, 232.9609
704.1550, 495.0859
705.3100, 568.2656
706.4650, 209.5000
707.6190, 554.7969
708.7740, 332.1484
709.9290, 316.5586
711.0830, 491.0273
712.2370, 393.5547
713.3910, 455.1250
714.5450, 284.7422
715.6980, 399.4375
716.8520, 350.2070
718.0050, 154.1406
719.1580, 218.0195
720.3110, 251.9531
721.4640, 352.9453
722.6170, 108.9922
723.7700, 262.0938
724.9220, 265.2461
726.0740, 105.4570
727.2260, 280.7148
728.3780, 259.0273
729.5300, 124.9258
730.6810, 264.2422
731.8330, 284.7109
732.9840, 123.2344
734.1350, 413.0547
735.2860, 305.6758
736.4370, 13.39062
737.5880, 134.3086
738.7380, 135.0586
739.8880, 341.8633
741.0390, 149.9219
742.1890, 110.1680
743.3380, 184.7148
744.4880, 168.0078
745.6380, 113.0039
746.7870, 134.9570
747.9360, 235.0625
749.0850, 11.12500
750.2340, 248.2148
751.3830, 108.3594
752.5310, 82.58594
753.6800, 308.8633
754.8280, 377.2031
755.9760, 154.5977
757.1240, 157.0352
758.2720, 63.55078
759.4190, 169.1094
760.5670, 421.0820
761.7140, 247.7383
762.8610, 268.4492
764.0080, 2.707031
765.1550, 181.0781
766.3020, 360.9102
767.4480, 268.7891
768.5950, 317.7148
769.7410, 250.6914
770.8870, 166.7148
772.0330, 18.78516
773.1780, 266.8867
774.3240, 251.0352
775.4690, 114.2344
776.6140, 89.47266
777.7590, 228.2383
778.9040, 123.9648
780.0490, 135.2188
781.1940, 44.48438
782.3380, 241.8125
783.4820, 71.83984
784.6260, 41.49219
785.7700, 164.8594
786.9140, 152.2734
788.0580, 231.7305
789.2010, 242.2383
790.3450, 102.7891
791.4880, 114.3828
792.6310, 88.01953
793.7730, 119.2969
794.9160, 302.3477
796.0590, 202.0430
797.2010, 78.77734
798.3430, 248.5547
799.4850, 83.37891
800.6270, 148.7617
801.7690, 148.0547
802.9100, 174.9141
804.0520, 89.81641
805.1930, 175.8320
806.3340, 93.03906
807.4750, 142.0703
808.6160, 103.1445
809.7560, 167.2578
810.8970, 83.41797
812.0370, 30.61328
813.1770, 97.84375
814.3170, 28.10938
815.4570, 178.4062
816.5960, 196.1953
817.7360, 295.5742
818.8750, 107.0000
820.0140, 117.6094
821.1530, 95.74219
822.2920, 84.87109
823.4310, 90.50000
824.5690, 321.9023
825.7070, 277.3516
826.8460, 11.15625
827.9840, 49.34375
829.1220, 239.8828
830.2590, 292.4570
831.3970, 293.0781
832.5340, 162.7383
833.6710, 4.558594
834.8080, 385.1562
835.9450, 61.91797
837.0820, 198.7148
838.2190, 334.5508
839.3550, 204.4258
840.4910, 350.3438
841.6270, 336.3086
842.7630, 410.3164
843.8990, 491.3594
845.0350, 468.4453
846.1700, 735.5781
847.3060, 705.7461
848.4410, 927.9570
849.5760, 715.2109
850.7100, 659.5039
851.8450, 625.8359
852.9800, 391.2148
854.1140, 371.6289
855.2480, 218.0898
856.3820, 313.5898
857.5160, 325.1328
858.6500, 182.7227
859.7830, 431.3438
860.9170, 506.0078
862.0500, 389.7148
863.1830, 203.4609
864.3160, 324.2461
865.4480, 4.074219
866.5810, 33.07812
867.7130, 204.7773
868.8460, 224.6719
869.9780, 236.6133
871.1100, 305.6484
872.2410, 84.72656
873.3730, 170.6016
874.5050, 286.7773
875.6360, 423.9844
876.7670, 260.2422
877.8980, 358.5469
879.0290, 121.3281
880.1590, 154.7109
881.2900, 425.1406
882.4200, 316.8633
883.5500, 316.3789
884.6800, 254.9609
885.8100, 324.6562
886.9400, 246.3203
888.0690, 327.0273
889.1990, 245.6484
890.3280, 233.4336
891.4570, 335.2656
892.5860, 140.1367
893.7140, 244.0508
894.8430, 298.5391
895.9710, 34.56250
897.1000, 159.6211
898.2280, 179.7188
899.3560, 60.86719
900.4830, 417.2227
901.6110, 271.4414
902.7380, 286.7148
903.8660, 378.0273
904.9930, 313.3828
906.1200, 386.7734
907.2460, 385.7891
908.3730, 353.8438
909.5000, 382.4023
910.6260, 332.8867
911.7520, 317.8281
912.8780, 245.1797
914.0040, 246.6875
915.1290, 191.4648
916.2550, 170.2812
917.3800, 100.8945
918.5050, 125.2617
919.6300, 401.0273
920.7550, 200.8594
921.8800, 239.9062
923.0040, 351.9961
924.1290, 120.1289
925.2530, 311.3008
926.3770, 85.42578
927.5010, 268.6680
928.6250, 147.7305
929.7480, 334.7344
930.8720, 81.11719
931.9950, 397.5508
933.1180, 195.6562
934.2410, 283.1719
935.3640, 112.4531
936.4860, 190.1602
937.6090, 96.83203
938.7310, 127.5469
939.8530, 251.0898
940.9750, 81.10938
942.0970, 178.5039
943.2180, 76.63281
944.3400, 21.10547
945.4610, 253.0273
946.5820, 260.6016
947.7030, 62.98828
948.8240, 306.8555
949.9450, 201.3086
951.0650, 88.50391
952.1860, 156.6914
953.3060, 191.9297
954.4260, 172.4297
955.5460, 69.41016
956.6650, 171.5312
957.7850, 379.4102
958.9040, 394.5625
960.0230, 454.4922
961.1420, 431.3359
962.2610, 416.7344
963.3800, 291.3047
964.4990, 172.9844
965.6170, 146.7031
966.7350, 387.4688
967.8530, 243.2812
968.9710, 371.1406
970.0890, 78.03906
971.2070, 308.2500
972.3240, 205.2383
973.4410, 112.2695
974.5580, 197.3438
975.6750, 390.2812
976.7920, 124.4414
977.9090, 530.6484
979.0250, 681.9023
980.1410, 462.1953
981.2580, 503.5391
982.3740, 484.9180
983.4890, 648.3477
984.6050, 698.8242
985.7200, 520.3359
986.8360, 459.9219
987.9510, 574.5508
989.0660, 556.2422
990.1810, 1024.938
991.2950, 844.6914
992.4100, 963.4961
993.5240, 1337.340
994.6390, 1121.227
995.7530, 1244.152
996.8660, 1444.129
997.9800, 1717.148
999.0940, 2133.211
1000.207, 2194.410
1001.320, 2839.668
1002.433, 3356.871
1003.546, 4284.113
1004.659, 5219.398
1005.772, 6900.691
1006.884, 8689.930
1007.996, 11153.36
1009.108, 13622.84
1010.220, 16695.35
1011.332, 19358.94
1012.444, 21141.59
1013.555, 21331.34
1014.666, 19637.12
1015.777, 16777.97
1016.888, 13597.94
1017.999, 10631.95
1019.110, 8464.684
1020.220, 6377.148
1021.331, 4836.543
1022.441, 3607.754
1023.551, 2948.008
1024.661, 2606.301
1025.770, 2195.645
1026.880, 2241.023
1027.989, 2235.445
1029.098, 1863.543
1030.207, 1864.168
1031.316, 1819.230
1032.425, 1552.852
1033.533, 1984.398
1034.642, 1863.078
1035.750, 1950.488
1036.858, 2246.246
1037.966, 2344.039
1039.073, 2208.875
1040.181, 2156.750
1041.288, 2058.012
1042.396, 1989.848
1043.503, 1920.547
1044.610, 1658.582
1045.716, 1372.652
1046.823, 1230.867
1047.929, 888.3594
1049.036, 823.6055
1050.142, 844.8867
1051.248, 759.5859
1052.353, 618.9648
1053.459, 653.5039
1054.564, 451.0156
1055.670, 684.5586
1056.775, 502.1445
1057.880, 664.7656
1058.985, 525.4219
1060.089, 433.1172
1061.194, 737.8477
1062.298, 522.6172
1063.402, 488.4570
1064.506, 284.3320
1065.610, 450.2383
1066.713, 732.1875
1067.817, 411.9609
1068.920, 172.1953
1070.023, 340.2930
1071.126, 161.4453
1072.229, 148.3398
1073.332, 354.8047
1074.435, 100.5625
1075.537, 424.8281
1076.639, 452.1289
1077.741, 181.4609
1078.843, 589.8242
1079.945, 265.2266
1081.046, 326.7578
1082.148, 518.6211
1083.249, 389.1289
1084.350, 399.2227
1085.451, 336.7969
1086.551, 216.4062
1087.652, 379.1797
1088.752, 244.9219
1089.853, 200.6992
1090.953, 127.5430
1092.053, 203.4141
1093.152, 146.4102
1094.252, 308.4297
1095.351, 451.4062
1096.451, 273.4219
1097.550, 359.4609
1098.649, 301.5312
1099.748, 553.6289
1100.846, 281.7539
1101.945, 505.9258
1103.043, 352.1250
1104.141, 188.4883
1105.239, 320.7461
1106.337, 227.0391
1107.434, 44.64453
1108.532, 188.6992
1109.629, 294.0625
1110.726, 17.41797
1111.823, 200.8398
1112.920, 327.2852
1114.017, 372.7578
1115.113, 393.5430
1116.210, 462.0703
1117.306, 627.6250
1118.402, 901.4844
1119.498, 1127.086
1120.593, 1100.719
1121.689, 1364.375
1122.784, 1001.055
1123.879, 961.7578
1124.974, 723.4844
1126.069, 836.2344
1127.164, 503.0117
1128.259, 272.4922
1129.353, 327.7188
1130.447, 279.6914
1131.541, 241.5703
1132.635, 304.8359
1133.729, 90.81641
1134.822, 249.0781
1135.916, 274.2695
1137.009, 193.2969
1138.102, 75.33984
1139.195, 35.41406
1140.288, 219.5000
1141.380, 125.6172
1142.473, 536.9609
1143.565, 73.03906
1144.657, 312.2070
1145.749, 31.59766
1146.841, 231.0859
1147.932, 186.5469
1149.024, 188.0000
1150.115, 1.324219
1151.206, 164.5703
1152.297, 124.8711
1153.388, 104.1055
1154.479, 171.9141
1155.569, 45.87891
1156.659, 181.6094
1157.750, 416.9961
1158.839, 367.3711
1159.929, 99.10938
1161.019, 210.2695
1162.108, 123.6680
1163.198, 17.92578
1164.287, 64.91406
1165.376, 209.3438
1166.465, 8.218750
1167.553, 152.2305
1168.642, 158.6914
1169.730, 190.1641
1170.818, 123.6523
1171.906, 71.76953
1172.994, 80.29688
1174.082, 42.71484
1175.170, 121.5703
1176.257, 106.0117
1177.344, 47.46484
1178.431, 27.92969
1179.518, 103.4102
1180.605, 142.8984
1181.691, 50.59375
1182.778, 360.8867
1183.864, 56.37891
1184.950, 220.4141
1186.036, 93.92578
1187.122, 437.6914
1188.207, 204.9727
1189.292, 123.5117
1190.378, 406.0508
1191.463, 92.59766
1192.548, 317.1523
1193.632, 214.7148
1194.717, 294.3359
1195.801, 151.0000
1196.886, 131.7383
1197.970, 83.65625
1199.054, 5.085938
1200.137, 217.4688
1201.221, 102.1016
1202.305, 255.6680
1203.388, 212.2422
1204.471, 5.820313
1205.554, 287.5469
1206.637, 328.1367
1207.719, 216.8477
1208.802, 274.4609
1209.884, 196.0781
1210.966, 98.69922
1212.048, 173.6719
1213.130, 322.0078
1214.212, 151.7109
1215.293, 568.2617
1216.374, 183.8203
1217.456, 105.3789
1218.536, 203.9414
1219.617, 234.5039
1220.698, 251.0664
1221.778, 182.6289
1222.859, 113.1953
1223.939, 114.7617
1225.019, 270.3242
1226.099, 405.8906
1227.178, 480.6680
1228.258, 233.2344
1229.337, 355.9375
1230.417, 274.5000
1231.496, 190.0664
1232.574, 225.7578
1233.653, 118.5898
1234.732, 224.1719
1235.810, 290.7539
1236.888, 357.3320
1237.966, 286.1562
1239.044, 235.7461
1240.122, 21.33203
1241.199, 388.1250
1242.277, 396.8828
1243.354, 366.4609
1244.431, 96.03516
1245.508, 263.6094
1246.585, 302.1836
1247.661, 74.60156
1248.738, 315.9141
1249.814, 184.4297
1250.890, 279.9570
1251.966, 289.4766
1253.042, 251.9961
1254.117, 412.5117
1255.193, 266.0195
1256.268, 291.5273
1257.343, 59.02734
1258.418, 93.39062
1259.493, 147.4141
1260.567, 201.8965
1261.642, 3.158203
1262.716, 174.0801
1263.790, 111.5137
1264.864, 136.7695
1265.938, 344.1895
1267.011, 277.8848
1268.085, 384.2930
1269.158, 656.6895
1270.231, 215.0801
1271.304, 83.53516
1272.377, 78.22070
1273.450, 41.02930
1274.522, 247.2598
1275.594, 70.51953
1276.666, 100.3574
1277.738, 139.1094
1278.810, 20.26172
1279.882, 37.23047
1280.953, 266.7734
1282.025, 52.55273
1283.096, 177.5273
1284.167, 391.4961
1285.238, 24.87500
1286.308, 214.8535
1287.379, 145.7891
1288.449, 59.71484
1289.519, 305.9902
1290.589, 240.8848
1291.659, 260.7715
1292.729, 105.6152
1293.798, 369.4746
1294.868, 434.3262
1295.937, 326.4727
1297.006, 226.3047
1298.075, 306.8809
1299.143, 353.6914
1300.212, 180.5977
1301.280, 372.0312
1302.348, 215.9297
1303.416, 337.9863
1304.484, 233.7383
1305.552, 344.5098
1306.620, 257.2520
1307.687, 257.0684
1308.754, 314.7734
1309.821, 500.4902
1310.888, 427.8223
1311.955, 296.4961
1313.021, 55.93359
1314.088, 353.6660
1315.154, 133.2539
1316.220, 59.82227
1317.286, 317.3730
1318.352, 477.9102
1319.417, 394.4336
1320.483, 331.0254
1321.548, 234.5156
1322.613, 182.5430
1323.678, 174.3574
1324.743, 157.8945
1325.807, 217.4414
1326.872, 191.2832
1327.936, 216.3984
1329.000, 174.6875
1330.064, 294.3242
1331.128, 251.0723
1332.191, 371.4531
1333.255, 160.0117
1334.318, 275.3750
1335.381, 169.7246
1336.444, 324.1758
1337.507, 268.5215
1338.569, 336.8457
1339.632, 193.0664
1340.694, 147.9785
1341.756, 144.2695
1342.818, 217.3008
1343.880, 270.5645
1344.941, 375.9473
1346.003, 359.0938
1347.064, 373.3262
1348.125, 237.5469
1349.186, 321.7578
1350.247, 410.1582
1351.308, 209.2539
1352.368, 422.3398
1353.428, 423.5020
1354.489, 135.6582
1355.549, 303.7910
1356.608, 152.9062
1357.668, 238.0020
1358.727, 410.0820
1359.787, 162.8730
1360.846, 25.92969
1361.905, 217.2734
1362.964, 420.5430
1364.022, 279.5586
1365.081, 178.7266
1366.139, 352.6992
1367.197, 422.6484
1368.255, 137.6191
1369.313, 145.5449
1370.371, 326.4570
1371.428, 255.4102
1372.486, 404.1367
1373.543, 257.0195
1374.600, 76.92188
1375.657, 193.6602
1376.713, 293.5000
1377.770, 419.4434
1378.826, 254.2539
1379.882, 473.0430
1380.938, 267.8125
1381.994, 367.6602
1383.050, 479.5547
1384.106, 244.2930
1385.161, 60.33984
1386.216, 86.65234
1387.271, 50.23438
1388.326, 92.88477
1389.381, 66.17383
1390.435, 279.7715
1391.490, 64.09180
1392.544, 483.6348
1393.598, 115.2168
1394.652, 335.7852
1395.705, 379.5664
1396.759, 224.1055
1397.812, 384.6328
1398.866, 426.9277
1399.919, 224.5098
1400.972, 238.0000
1402.024, 255.8887
1403.077, 274.8809
1404.129, 81.09961
1405.181, 24.27539
1406.233, 16.63672
1407.285, 340.1016
1408.337, 3.601563
1409.389, 349.7656
1410.440, 358.9492
1411.491, 74.15625
1412.542, 140.7109
1413.593, 166.5762
1414.644, 234.4375
1415.695, 244.6562
1416.745, 239.1582
1417.795, 244.9961
1418.845, 210.8223
1419.895, 206.4238
1420.945, 225.4297
1421.995, 213.4160
1423.044, 247.5098
1424.093, 46.45508
1425.142, 194.3789
1426.191, 118.2676
1427.240, 228.0527
1428.289, 293.9121
1429.337, 268.7695
1430.385, 261.8945
1431.433, 134.6992
1432.481, 19.42969
1433.529, 4.792969
1434.577, 155.8066
1435.624, 27.13867
1436.672, 157.7090
1437.719, 380.2656
1438.766, 462.0410
1439.812, 431.4570
1440.859, 374.4336
1441.905, 299.6484
1442.952, 251.2422
1443.998, 195.0898
1445.044, 177.0195
1446.090, 115.0000
1447.135, 192.8906
1448.181, 206.5391
1449.226, 203.7227
1450.271, 182.0859
1451.316, 42.34570
1452.361, 228.1699
1453.405, 435.7422
1454.450, 256.1543
1455.494, 96.58984
1456.538, 85.10547
1457.582, 167.5996
1458.626, 194.8379
1459.670, 189.3965
1460.713, 340.9355
1461.757, 117.4570
1462.800, 132.9590
1463.843, 207.4414
1464.886, 180.6738
1465.928, 291.9629
1466.971, 207.3887
1468.013, 46.15820
1469.055, 152.4805
1470.097, 117.7070
1471.139, 154.9570
1472.181, 293.7051
1473.222, 220.9102
1474.263, 184.0781
1475.305, 109.4336
1476.346, 161.5820
1477.386, 219.6914
1478.427, 230.7812
1479.468, 186.8457
1480.508, 225.0078
1481.548, 349.0215
1482.588, 247.9395
1483.628, 279.7656
1484.668, 50.68555
1485.707, 174.2285
1486.747, 81.16992
1487.786, 104.2285
1488.825, 175.3105
1489.864, 25.64453
1490.902, 444.5234
1491.941, 336.0137
1492.979, 384.5371
1494.017, 258.6289
1495.055, 217.7734
1496.093, 8.080078
1497.131, 16.54492
1498.168, 211.2129
1499.206, 22.07617
1500.243, 113.0039
1501.280, 170.1133
1502.317, 39.77734
1503.354, 210.3008
1504.390, 167.9062
1505.426, 315.0723
1506.463, 134.0723
1507.499, 122.1738
1508.535, 364.2949
1509.570, 409.4395
1510.606, 457.4395
1511.641, 366.6543
1512.676, 352.4805
1513.711, 348.5371
1514.746, 309.0156
1515.781, 195.2363
1516.816, 124.1934
1517.850, 253.8730
1518.884, 433.7363
1519.918, 106.6016
1520.952, 225.6660
1521.986, 477.1641
1523.019, 189.9395
1524.053, 291.6934
1525.086, 289.9141
1526.119, 84.61523
1527.152, 366.3125
1528.185, 307.0703
1529.217, 423.5781
1530.250, 123.7773
1531.282, 372.4414
1532.314, 249.2637
1533.346, 386.5195
1534.377, 154.7285
1535.409, 455.4863
1536.440, 5.208984
1537.472, 32.83008
1538.503, 375.6953
1539.534, 338.8145
1540.564, 252.9453
1541.595, 139.7734
1542.625, 276.4316
1543.656, 356.1992
1544.686, 286.8203
1545.716, 295.6387
1546.745, 0.1875000
1547.775, 498.8359
1548.804, 154.6133
1549.834, 428.9590
1550.863, 284.0508
1551.892, 332.6934
1552.920, 385.0527
1553.949, 56.33398
1554.977, 103.1367
1556.006, 238.2852
1557.034, 131.4336
1558.062, 249.3438
1559.089, 12.04688
1560.117, 168.5547
1561.144, 363.6992
1562.172, 39.56250
1563.199, 165.9277
1564.226, 98.90039
1565.252, 73.22852
1566.279, 1.730469
1567.305, 13.31055
1568.332, 62.58594
1569.358, 43.56836
1570.384, 1.583984
1571.409, 1.291016
1572.435, 0.0000000E+00
##END=



