##NAMES=Diopside
##RRUFFID=R060171
##IDEAL CHEMISTRY=CaMgSi_2_O_6_
##LOCALITY=Jeffrey mine, Asbestos, Quebec, Canada
##OWNER=RRUFF
##SOURCE=Guy Ouellet
##DESCRIPTION=Yellowish-brown tabular crystals associated with vesuvianite, R060170
##STATUS=The identification of this mineral has been confirmed by X-ray diffraction and chemical analysis
##URL=rruff.info/R060171
##MEASURED CHEMISTRY=Ca_1.00_(Mg_0.98_Mn_0.02_)_Î£=1_Si_2.00_O_6_
##PIN_ID=M00055
##ORIENTATION=Laser parallel to c* (0 0 1). Fiducial mark perpendicular to laser is parallel to a [1 0 0]
123.0580, 0.0000000E+00
124.2880, 0.2880860
125.5190, 55.62891
126.7490, 67.75586
127.9790, 41.89258
129.2090, 5.412598
130.4390, 135.2812
131.6680, 140.5762
132.8980, 116.1914
134.1270, 105.9160
135.3560, 103.5913
136.5850, 144.0869
137.8140, 209.2969
139.0430, 236.1362
140.2710, 214.5356
141.5000, 251.4370
142.7280, 251.7988
143.9560, 187.5762
145.1840, 92.73975
146.4120, 178.2534
147.6390, 114.0791
148.8670, 104.1899
150.0940, 1.563965
151.3210, 124.1831
152.5490, 123.0312
153.7750, 69.09473
155.0020, 148.3594
156.2290, 177.8154
157.4550, 51.45117
158.6810, 254.2568
159.9080, 201.2563
161.1340, 333.4126
162.3590, 466.7349
163.5850, 545.1758
164.8110, 540.7319
166.0360, 387.3970
167.2610, 316.4922
168.4860, 272.3584
169.7110, 193.8521
170.9360, 148.3901
172.1610, 124.5459
173.3850, 193.7896
174.6100, 200.1172
175.8340, 220.5259
177.0580, 144.0122
178.2820, 274.5771
179.5050, 395.2192
180.7290, 499.9375
181.9520, 440.7319
183.1760, 399.6001
184.3990, 302.5396
185.6220, 257.5469
186.8450, 336.6201
188.0670, 365.7563
189.2900, 451.9541
190.5120, 566.2109
191.7340, 728.5244
192.9560, 923.8945
194.1780, 964.3169
195.4000, 906.6797
196.6220, 655.1777
197.8430, 531.9956
199.0640, 500.4707
200.2860, 392.9634
201.5070, 244.4624
202.7270, 194.9692
203.9480, 175.5527
205.1690, 42.19336
206.3890, 67.85254
207.6090, 31.53564
208.8290, 77.25098
210.0490, 44.03906
211.2690, 11.12646
212.4890, 102.7622
213.7080, 54.70459
214.9280, 55.69678
216.1470, 82.70996
217.3660, 57.74512
218.5850, 1.802246
219.8030, 244.8823
221.0220, 239.9849
222.2400, 269.1099
223.4590, 495.2578
224.6770, 537.4292
225.8950, 667.6230
227.1120, 899.8398
228.3300, 1182.080
229.5480, 1231.354
230.7650, 1232.677
231.9820, 1224.079
233.1990, 1087.520
234.4160, 898.9795
235.6330, 634.4873
236.8490, 520.0464
238.0660, 358.6455
239.2820, 278.3223
240.4980, 212.0161
241.7140, 145.7271
242.9300, 234.4551
244.1460, 147.1992
245.3610, 102.9585
246.5770, 224.7349
247.7920, 248.5264
249.0070, 353.3350
250.2220, 490.1582
251.4370, 600.9990
252.6510, 714.8545
253.8660, 646.7261
255.0800, 572.6118
256.2940, 565.5137
257.5080, 528.4307
258.7220, 513.3633
259.9360, 201.3101
261.1490, 206.2725
262.3630, 17.24854
263.5760, 81.24023
264.7890, 101.2461
266.0020, 113.2671
267.2150, 27.69873
268.4270, 29.34766
269.6400, 11.17139
270.8520, 100.0010
272.0640, 14.47119
273.2760, 3.153809
274.4880, 84.87988
275.7000, 10.60449
276.9120, 31.49805
278.1230, 86.46973
279.3340, 1.494629
280.5450, 81.60156
281.7560, 4.215820
282.9670, 36.42334
284.1780, 18.80908
285.3880, 5.115234
286.5980, 38.46533
287.8090, 30.88330
289.0190, 95.28955
290.2290, 79.92529
291.4380, 102.4326
292.6480, 173.9741
293.8570, 257.8589
295.0670, 334.4844
296.2760, 423.4604
297.4850, 605.1279
298.6930, 754.8247
299.9020, 1030.548
301.1110, 1176.895
302.3190, 1254.670
303.5270, 1375.471
304.7350, 1414.188
305.9430, 1526.037
307.1510, 1662.910
308.3580, 1993.804
309.5660, 2102.720
310.7730, 2199.660
311.9800, 2279.621
313.1870, 2337.601
314.3940, 2527.600
315.6010, 2717.615
316.8070, 3387.652
318.0130, 3940.706
319.2200, 4824.779
320.4260, 5942.867
321.6310, 6657.974
322.8370, 6640.095
324.0430, 6279.236
325.2480, 5476.391
326.4540, 4571.562
327.6590, 3547.749
328.8640, 2708.950
330.0680, 2073.167
331.2730, 1449.398
332.4780, 1140.644
333.6820, 949.8315
334.8860, 673.1045
336.0900, 629.0474
337.2940, 541.0195
338.4980, 505.6201
339.7010, 422.5806
340.9050, 378.9136
342.1080, 466.3931
343.3110, 508.7490
344.5140, 487.1172
345.7170, 617.8550
346.9200, 876.2422
348.1220, 986.5000
349.3240, 1283.894
350.5270, 1681.317
351.7290, 2093.752
352.9310, 2733.646
354.1320, 3339.104
355.3340, 3358.572
356.5350, 3209.197
357.7370, 2925.686
358.9380, 2486.185
360.1390, 1987.692
361.3400, 1645.211
362.5400, 1269.740
363.7410, 1053.277
364.9410, 914.8247
366.1410, 757.3818
367.3410, 735.9482
368.5410, 547.5244
369.7410, 611.1104
370.9400, 553.7051
372.1400, 612.3086
373.3390, 657.9214
374.5380, 679.5435
375.7370, 759.1748
376.9360, 811.8140
378.1350, 950.4619
379.3330, 1426.118
380.5310, 1690.782
381.7300, 2164.454
382.9280, 2628.133
384.1260, 3450.820
385.3230, 4494.515
386.5210, 5523.216
387.7180, 6286.925
388.9160, 6805.642
390.1130, 6817.365
391.3100, 6479.097
392.5060, 5964.833
393.7030, 5068.579
394.9000, 4269.331
396.0960, 3284.090
397.2920, 2609.856
398.4880, 2015.628
399.6840, 1529.407
400.8800, 1051.193
402.0750, 884.9858
403.2710, 781.7856
404.4660, 547.5913
405.6610, 461.4033
406.8560, 435.2227
408.0510, 349.0474
409.2450, 264.8789
410.4400, 248.7173
411.6340, 116.1191
412.8280, 170.9697
414.0220, 184.8325
415.2160, 231.7114
416.4100, 138.4326
417.6030, 84.33740
418.7970, 95.25586
419.9900, 94.18652
421.1830, 90.58984
422.3760, 76.54346
423.5690, 101.4946
424.7610, 45.52979
425.9540, 11.43506
427.1460, 93.59033
428.3380, 31.35059
429.5300, 119.3018
430.7220, 12.26221
431.9140, 137.2319
433.1050, 3.210938
434.2970, 26.19727
435.4880, 61.19238
436.6790, 20.80371
437.8700, 14.80273
439.0610, 58.80322
440.2510, 71.17529
441.4420, 16.16211
442.6320, 39.15723
443.8220, 80.83887
445.0120, 68.13232
446.2020, 120.1113
447.3910, 30.77100
448.5810, 60.20654
449.7700, 143.3696
450.9600, 84.36133
452.1490, 167.6436
453.3370, 247.4233
454.5260, 231.4385
455.7150, 232.4624
456.9030, 275.5010
458.0910, 386.5459
459.2800, 441.6001
460.4670, 577.6616
461.6550, 643.7295
462.8430, 683.8037
464.0300, 662.8843
465.2180, 565.9854
466.4050, 407.0928
467.5920, 355.2061
468.7790, 324.3315
469.9650, 250.4624
471.1520, 240.5996
472.3380, 230.7427
473.5250, 79.89111
474.7110, 56.04541
475.8970, 7.794434
477.0820, 79.36279
478.2680, 21.47461
479.4540, 2.321289
480.6390, 51.16992
481.8240, 39.04248
483.0090, 42.06982
484.1940, 11.18896
485.3780, 51.32031
486.5630, 91.45947
487.7470, 33.39307
488.9320, 32.73779
490.1160, 5.125977
491.3000, 61.99316
492.4830, 82.10938
493.6670, 32.21777
494.8500, 86.66992
496.0340, 30.40088
497.2170, 26.49756
498.4000, 8.598633
499.5820, 60.71729
500.7650, 61.84082
501.9480, 117.9683
503.1300, 219.1006
504.3120, 182.2495
505.4940, 323.4023
506.6760, 143.5596
507.8580, 275.7212
509.0390, 354.8867
510.2210, 307.0649
511.4020, 348.2607
512.5830, 396.4668
513.7640, 237.6782
514.9450, 283.9023
516.1250, 243.1299
517.3060, 229.3613
518.4860, 234.5967
519.6660, 105.8354
520.8460, 246.0869
522.0260, 195.3418
523.2060, 157.6006
524.3850, 328.8633
525.5650, 263.1416
526.7440, 319.4404
527.9230, 405.7437
529.1020, 412.0508
530.2810, 252.3647
531.4590, 276.6841
532.6380, 220.0068
533.8160, 289.3330
534.9940, 240.6626
536.1720, 253.9971
537.3500, 214.3335
538.5270, 199.1787
539.7050, 90.02295
540.8820, 140.3721
542.0590, 156.7241
543.2360, 80.08008
544.4130, 292.4390
545.5900, 238.8110
546.7660, 322.1855
547.9430, 301.5732
549.1190, 560.9634
550.2950, 769.3569
551.4710, 900.7529
552.6470, 1189.151
553.8220, 1654.555
554.9980, 2126.959
556.1730, 2499.374
557.3480, 2762.790
558.5230, 2821.209
559.6980, 2413.656
560.8730, 2047.106
562.0470, 1682.558
563.2220, 1303.014
564.3960, 1092.472
565.5700, 792.9238
566.7440, 467.9346
567.9170, 392.3975
569.0910, 283.7349
570.2640, 236.2021
571.4380, 275.6709
572.6110, 103.1416
573.7840, 172.6138
574.9570, 167.9219
576.1290, 140.3975
577.3020, 195.8740
578.4740, 61.04297
579.6460, 96.50488
580.8180, 50.64795
581.9900, 43.13037
583.1620, 93.61475
584.3330, 74.10107
585.5040, 119.9922
586.6760, 84.48145
587.8470, 6.005371
589.0180, 63.60449
590.1880, 3.096191
591.3590, 29.58691
592.5290, 71.07910
593.7000, 13.42773
594.8700, 46.27588
596.0400, 55.21680
597.2090, 152.2007
598.3790, 89.75293
599.5490, 112.7109
600.7180, 162.2012
601.8870, 134.8057
603.0560, 150.5327
604.2250, 114.6763
605.3940, 163.4438
606.5620, 93.93701
607.7300, 148.4312
608.8990, 127.0962
610.0670, 227.5942
611.2350, 104.0918
612.4020, 146.5898
613.5700, 190.0874
614.7370, 132.5854
615.9050, 147.0835
617.0720, 75.65283
618.2390, 175.1504
619.4060, 177.0308
620.5720, 191.8159
621.7390, 298.0249
622.9050, 246.2651
624.0710, 365.2842
625.2370, 449.4097
626.4030, 409.5654
627.5690, 505.5713
628.7340, 477.7061
629.9000, 449.2129
631.0650, 428.8525
632.2300, 472.3691
633.3950, 623.8735
634.5600, 549.3813
635.7240, 648.5337
636.8890, 646.9146
638.0530, 750.4229
639.2170, 847.1543
640.3810, 780.6650
641.5450, 1025.175
642.7080, 1116.768
643.8720, 1374.804
645.0350, 1394.311
646.1980, 1578.817
647.3610, 1812.322
648.5240, 2036.826
649.6870, 2399.239
650.8490, 2886.596
652.0120, 3443.702
653.1740, 4137.201
654.3360, 5149.692
655.4980, 6116.188
656.6600, 7495.681
657.8210, 9479.172
658.9830, 11950.66
660.1440, 14507.93
661.3050, 17631.42
662.4660, 20389.94
663.6270, 22481.42
664.7870, 23243.73
665.9480, 22736.12
667.1080, 20718.76
668.2680, 17738.23
669.4280, 15057.58
670.5880, 12215.43
671.7480, 9801.911
672.9070, 7803.439
674.0670, 6204.912
675.2260, 4878.608
676.3850, 4170.073
677.5440, 3302.066
678.7030, 2678.526
679.8610, 2344.981
681.0200, 1978.550
682.1780, 1697.997
683.3360, 1465.441
684.4940, 1303.325
685.6520, 1248.762
686.8090, 1126.494
687.9670, 915.9570
689.1240, 815.3818
690.2810, 597.8018
691.4380, 683.2173
692.5950, 522.6289
693.7520, 433.0361
694.9080, 518.6558
696.0650, 510.0537
697.2210, 475.4521
698.3770, 339.0342
699.5330, 412.4180
700.6880, 352.8159
701.8440, 262.1899
702.9990, 315.5591
704.1550, 305.9224
705.3100, 233.2817
706.4650, 287.6460
707.6190, 307.0054
708.7740, 179.3813
709.9290, 298.7524
711.0830, 272.1182
712.2370, 229.4785
713.3910, 108.8335
714.5450, 153.1841
715.6980, 181.5298
716.8520, 146.8691
718.0050, 254.2090
719.1580, 166.5488
720.3110, 72.89746
721.4640, 50.24072
722.6170, 91.57812
723.7700, 101.9097
724.9220, 143.2559
726.0740, 27.59619
727.2260, 84.79980
728.3780, 44.13623
729.5300, 129.2896
730.6810, 70.61475
731.8330, 111.9341
732.9840, 17.19238
734.1350, 8.498047
735.2860, 10.20752
736.4370, 26.06787
737.5880, 8.335938
738.7380, 126.5938
739.8880, 102.8462
741.0390, 158.2612
742.1890, 100.5005
743.3380, 38.26514
744.4880, 132.9336
745.6380, 66.12646
746.7870, 4.687500
747.9360, 104.2441
749.0850, 40.40723
750.2340, 53.56445
751.3830, 52.71582
752.5310, 101.9170
753.6800, 115.5830
754.8280, 135.8467
755.9760, 147.3174
757.1240, 152.4414
758.2720, 108.5664
759.4190, 60.68848
760.5670, 12.81836
761.7140, 7.949219
762.8610, 13.73242
764.0080, 4.331055
765.1550, 8.416992
766.3020, 43.60059
767.4480, 39.55371
768.5950, 156.8574
769.7410, 66.59473
770.8870, 63.76660
772.0330, 126.6025
773.1780, 31.66895
774.3240, 62.00391
775.4690, 99.03027
776.6140, 39.30762
777.7590, 100.6855
778.9040, 87.67188
780.0490, 33.65137
781.1940, 24.37598
782.3380, 85.56738
783.4820, 159.5029
784.6260, 58.43359
785.7700, 64.35645
786.9140, 14.63086
788.0580, 29.73828
789.2010, 9.875977
790.3450, 69.99609
791.4880, 16.16895
792.6310, 70.64062
793.7730, 53.44336
794.9160, 129.2949
796.0590, 105.5010
797.2010, 13.13281
798.3430, 71.62891
799.4850, 42.38281
800.6270, 59.12988
801.7690, 30.12988
802.9100, 47.41895
804.0520, 27.48828
805.1930, 107.1484
806.3340, 0.8037110
807.4750, 13.72949
808.6160, 136.1758
809.7560, 43.79785
810.8970, 61.41406
812.0370, 25.02344
813.1770, 157.6230
814.3170, 10.21680
815.4570, 175.7988
816.5960, 68.37402
817.7360, 33.94336
818.8750, 98.50488
820.0140, 99.05957
821.1530, 23.39258
822.2920, 92.12695
823.4310, 21.35840
824.5690, 48.12891
825.7070, 111.6104
826.8460, 70.08398
827.9840, 95.55273
829.1220, 129.0146
830.2590, 119.4707
831.3970, 5.080078
832.5340, 158.3516
833.6710, 54.77832
834.8080, 84.80176
835.9450, 203.5586
837.0820, 50.91406
838.2190, 93.26270
839.3550, 162.6045
840.4910, 123.9414
841.6270, 211.2734
842.7630, 311.5986
843.8990, 214.9170
845.0350, 329.2305
846.1700, 421.5371
847.3060, 646.8379
848.4410, 678.1338
849.5760, 954.4229
850.7100, 1350.708
851.8450, 1473.985
852.9800, 1551.257
854.1140, 1437.523
855.2480, 1185.784
856.3820, 1018.040
857.5160, 802.2910
858.6500, 720.5342
859.7830, 433.7734
860.9170, 423.0059
862.0500, 358.2334
863.1830, 365.4219
864.3160, 246.6377
865.4480, 158.8496
866.5810, 198.0557
867.7130, 169.2578
868.8460, 112.4541
869.9780, 202.4316
871.1100, 244.1670
872.2410, 60.85742
873.3730, 132.9727
874.5050, 124.6777
875.6360, 73.84863
876.7670, 12.01270
877.8980, 72.17188
879.0290, 117.3262
880.1590, 86.20020
881.2900, 158.3428
882.4200, 44.48340
883.5500, 8.551758
884.6800, 84.57227
885.8100, 83.69238
886.9400, 150.8076
888.0690, 24.91797
889.1990, 129.0244
890.3280, 80.12695
891.4570, 92.22559
892.5860, 98.32129
893.7140, 81.41113
894.8430, 98.49902
895.9710, 56.58203
897.1000, 39.28027
898.2280, 27.84570
899.3560, 3.591797
900.4830, 104.5840
901.6110, 6.150391
902.7380, 6.218750
903.8660, 71.27441
904.9930, 11.66504
906.1200, 18.58984
907.2460, 13.52930
908.3730, 41.52832
909.5000, 3.510742
910.6260, 49.66602
911.7520, 14.28223
912.8780, 109.2930
914.0040, 108.3320
915.1290, 54.37012
916.2550, 161.3262
917.3800, 85.85059
918.5050, 96.89941
919.6300, 28.95312
920.7550, 45.71094
921.8800, 0.9335940
923.0040, 45.20996
924.1290, 69.40723
925.2530, 2.849609
926.3770, 41.89844
927.5010, 108.9482
928.6250, 203.9922
929.7480, 0.9638670
930.8720, 135.0771
931.9950, 84.11621
933.1180, 117.3691
934.2410, 53.40723
935.3640, 130.4033
936.4860, 183.4385
937.6090, 35.63672
938.7310, 12.24414
939.8530, 37.62109
940.9750, 57.65137
942.0970, 14.19922
943.2180, 78.56250
944.3400, 8.431641
945.4610, 103.3730
946.5820, 79.36719
947.7030, 145.1318
948.8240, 149.1240
949.9450, 65.58594
951.0650, 190.5791
952.1860, 104.5830
953.3060, 158.4844
954.4260, 103.5029
955.5460, 225.5254
956.6650, 215.0781
957.7850, 94.12891
958.9040, 252.8545
960.0230, 223.8428
961.1420, 208.8672
962.2610, 268.9033
963.3800, 249.9395
964.4990, 302.9746
965.6170, 359.0098
966.7350, 418.8301
967.8530, 403.8682
968.9710, 331.9023
970.0890, 305.7490
971.2070, 305.7881
972.3240, 304.8115
973.4410, 358.8525
974.5580, 277.8945
975.6750, 455.9385
976.7920, 393.9824
977.9090, 431.0273
979.0250, 367.0742
980.1410, 560.1211
981.2580, 484.1689
982.3740, 614.2188
983.4890, 666.2832
984.6050, 720.3477
985.7200, 774.4189
986.8360, 916.4912
987.9510, 1044.566
989.0660, 974.6406
990.1810, 1083.717
991.2950, 1263.795
992.4100, 1290.875
993.5240, 1434.955
994.6390, 1680.036
995.7530, 1937.119
996.8660, 2195.203
997.9800, 2709.289
999.0940, 3026.379
1000.207, 3652.469
1001.320, 4745.561
1002.433, 5930.699
1003.546, 7592.793
1004.659, 9826.890
1005.772, 13384.99
1006.884, 18102.10
1007.996, 24218.22
1009.108, 31689.37
1010.220, 39719.49
1011.332, 45266.45
1012.444, 46639.56
1013.555, 42886.69
1014.666, 36699.83
1015.777, 29281.08
1016.888, 22121.24
1017.999, 16385.79
1019.110, 12107.97
1020.220, 8906.143
1021.331, 6884.316
1022.441, 5417.601
1023.551, 4430.778
1024.661, 3601.959
1025.770, 3168.222
1026.880, 2803.405
1027.989, 2719.592
1029.098, 2430.807
1030.207, 2207.007
1031.316, 2121.062
1032.425, 2126.237
1033.533, 2127.480
1034.642, 2172.702
1035.750, 2034.820
1036.858, 2220.940
1037.966, 2464.171
1039.073, 2790.148
1040.181, 3286.291
1041.288, 3932.828
1042.396, 4720.074
1043.503, 5728.086
1044.610, 6931.806
1045.716, 8045.451
1046.823, 8603.747
1047.929, 8347.599
1049.036, 7443.705
1050.142, 6480.195
1051.248, 5183.523
1052.353, 3947.886
1053.459, 3199.367
1054.564, 2471.699
1055.670, 1995.453
1056.775, 1504.795
1057.880, 1340.150
1058.985, 1149.481
1060.089, 1024.845
1061.194, 882.0215
1062.298, 682.9043
1063.402, 652.3604
1064.506, 510.7354
1065.610, 421.3184
1066.713, 516.0000
1067.817, 485.3877
1068.920, 538.7793
1070.023, 408.1670
1071.126, 327.5674
1072.229, 236.8994
1073.332, 390.4717
1074.435, 443.0264
1075.537, 297.1660
1076.639, 181.3193
1077.741, 190.9463
1078.843, 140.3750
1079.945, 283.8057
1081.046, 297.3857
1082.148, 324.8184
1083.249, 149.3564
1084.350, 227.6602
1085.451, 209.4795
1086.551, 191.9170
1087.652, 182.4404
1088.752, 179.0078
1089.853, 214.4561
1090.953, 55.18164
1092.053, 186.6494
1093.152, 94.10742
1094.252, 181.9990
1095.351, 143.4570
1096.451, 220.9150
1097.550, 238.3740
1098.649, 202.0088
1099.748, 211.3066
1100.846, 176.0303
1101.945, 169.7529
1103.043, 108.2402
1104.141, 131.7275
1105.239, 113.9043
1106.337, 172.7002
1107.434, 61.18555
1108.532, 43.66992
1109.629, 36.15430
1110.726, 144.7246
1111.823, 62.20898
1112.920, 95.69141
1114.017, 53.17383
1115.113, 171.7227
1116.210, 225.2031
1117.306, 81.79492
1118.402, 196.2725
1119.498, 266.8662
1120.593, 212.3418
1121.689, 184.8750
1122.784, 205.9189
1123.879, 119.8770
1124.974, 193.3467
1126.069, 183.8154
1127.164, 154.2822
1128.259, 116.7520
1129.353, 88.22070
1130.447, 164.9531
1131.541, 180.4180
1132.635, 183.0508
1133.729, 15.34180
1134.822, 186.7998
1135.916, 74.25684
1137.009, 49.71191
1138.102, 145.9473
1139.195, 177.3984
1140.288, 21.84766
1141.380, 78.29395
1142.473, 77.73828
1143.565, 107.1797
1144.657, 129.6201
1145.749, 37.35645
1146.841, 8.031250
1147.932, 90.47559
1149.024, 2.916016
1150.115, 61.34473
1151.206, 74.77148
1152.297, 43.19629
1153.388, 1.696289
1154.479, 126.1367
1155.569, 81.57520
1156.659, 23.00977
1157.750, 168.4463
1158.839, 132.8779
1159.929, 37.48047
1161.019, 103.8184
1162.108, 45.75977
1163.198, 73.66992
1164.287, 10.05859
1165.376, 101.5010
1166.465, 86.88184
1167.553, 232.2598
1168.642, 56.77246
1169.730, 84.85547
1170.818, 175.4688
1171.906, 31.03516
1172.994, 193.2881
1174.082, 68.41406
1175.170, 19.28711
1176.257, 189.9941
1177.344, 178.2734
1178.431, 4.450195
1179.518, 6.884766
1180.605, 44.58398
1181.691, 119.8213
1182.778, 25.95996
1183.864, 11.76562
1184.950, 86.61621
1186.036, 1.208984
1187.122, 174.9551
1188.207, 88.11328
1189.292, 139.2656
1190.378, 95.41309
1191.463, 18.57031
1192.548, 41.72168
1193.632, 35.86523
1194.717, 127.0020
1195.801, 20.13379
1196.886, 6.258789
1197.970, 98.37500
1199.054, 69.48340
1200.137, 128.5869
1201.221, 155.6836
1202.305, 35.78125
1203.388, 35.86426
1204.471, 40.94141
1205.554, 79.00977
1206.637, 2.075195
1207.719, 27.14453
1208.802, 84.20703
1209.884, 168.2627
1210.966, 40.31152
1212.048, 141.3516
1213.130, 52.38770
1214.212, 33.58398
1215.293, 41.58887
1216.374, 157.3916
1217.456, 4.634766
1218.536, 48.32129
1219.617, 206.2705
1220.698, 18.21191
1221.778, 78.14355
1222.859, 137.0674
1223.939, 25.01465
1225.019, 102.8740
1226.099, 109.7549
1227.178, 140.6270
1228.258, 40.49414
1229.337, 55.35254
1230.417, 26.20215
1231.496, 114.0430
1232.574, 137.8760
1233.653, 137.7012
1234.732, 148.5205
1235.810, 137.3203
1236.888, 96.13184
1237.966, 99.92676
1239.044, 93.59375
1240.122, 66.76660
1241.199, 125.6719
1242.277, 126.4336
1243.354, 144.1875
1244.431, 32.06641
1245.508, 201.6445
1246.585, 0.6523440
1247.661, 110.0312
1248.738, 61.78320
1249.814, 114.4502
1250.890, 76.10938
1251.966, 127.7578
1253.042, 77.40039
1254.117, 95.19141
1255.193, 222.8252
1256.268, 105.4404
1257.343, 154.9502
1258.418, 160.5488
1259.493, 32.14160
1260.567, 269.8096
1261.642, 302.3838
1262.716, 155.9482
1263.790, 250.5020
1264.864, 130.0498
1265.938, 160.5879
1267.011, 8.321289
1268.085, 176.8350
1269.158, 158.3643
1270.231, 212.8252
1271.304, 214.3105
1272.377, 142.7881
1273.450, 257.2568
1274.522, 31.93945
1275.594, 40.38574
1276.666, 43.28516
1277.738, 95.10742
1278.810, 276.3418
1279.882, 180.1143
1280.953, 228.4785
1282.025, 79.83301
1283.096, 183.7471
1284.167, 148.0820
1285.238, 211.4082
1286.308, 119.9912
1287.379, 172.2979
1288.449, 64.59473
1289.519, 5.958008
1290.589, 143.3018
1291.659, 95.69922
1292.729, 192.9385
1293.798, 91.00879
1294.868, 122.2295
1295.937, 144.4385
1297.006, 71.91309
1298.075, 181.1035
1299.143, 115.9287
1300.212, 59.09961
1301.280, 11.66211
1302.348, 8.529297
1303.416, 183.5781
1304.484, 197.3066
1305.552, 182.3945
1306.620, 164.9629
1307.687, 32.52051
1308.754, 66.71777
1309.821, 69.56445
1310.888, 97.34863
1311.955, 276.3193
1313.021, 44.33008
1314.088, 132.3164
1315.154, 228.7783
1316.220, 160.8896
1317.286, 131.8516
1318.352, 149.8057
1319.417, 234.6133
1320.483, 200.3477
1321.548, 232.1689
1322.613, 229.4580
1323.678, 295.1016
1324.743, 199.8955
1325.807, 278.5518
1326.872, 261.4424
1327.936, 152.3232
1329.000, 313.2012
1330.064, 94.07129
1331.128, 205.7832
1332.191, 358.4854
1333.255, 174.2002
1334.318, 140.4639
1335.381, 210.7539
1336.444, 186.3838
1337.507, 348.2041
1338.569, 282.1953
1339.632, 291.8516
1340.694, 225.8604
1341.756, 247.5508
1342.818, 161.4658
1343.880, 141.9766
1344.941, 139.4160
1346.003, 142.2070
1347.064, 119.8330
1348.125, 277.5811
1349.186, 278.0439
1350.247, 278.7686
1351.308, 210.4951
1352.368, 214.7422
1353.428, 131.4951
1354.489, 186.1953
1355.549, 174.8896
1356.608, 177.5195
1357.668, 173.1553
1358.727, 155.5898
1359.787, 274.2549
1360.846, 193.9141
1361.905, 141.5664
1362.964, 304.2119
1364.022, 143.8506
1365.081, 227.4824
1366.139, 187.1064
1367.197, 28.68652
1368.255, 57.17383
1369.313, 174.7305
1370.371, 248.2793
1371.428, 167.8203
1372.486, 340.2900
1373.543, 130.8203
1374.600, 229.2305
1375.657, 66.75195
1376.713, 208.1426
1377.770, 94.64355
1378.826, 245.0752
1379.882, 200.5615
1380.938, 128.9775
1381.994, 43.44531
1383.050, 183.9053
1384.106, 0.3613280
1385.161, 183.7744
1386.216, 175.8662
1387.271, 62.99902
1388.326, 170.3916
1389.381, 82.77734
1390.435, 72.15820
1391.490, 87.53320
1392.544, 204.8975
1393.598, 33.25488
1394.652, 170.8232
1395.705, 75.16602
1396.759, 193.5010
1397.812, 95.78125
1398.866, 87.05273
1399.919, 150.3672
1400.972, 26.62500
1402.024, 145.5771
1403.077, 184.5811
1404.129, 148.8047
1405.181, 83.01855
1406.233, 6.238281
1407.285, 91.44922
1408.337, 122.7139
1409.389, 80.16895
1410.440, 76.99902
1411.491, 147.1592
1412.542, 10.68848
1413.593, 106.4531
1414.644, 187.5879
1415.695, 26.54297
1416.745, 223.7520
1417.795, 79.86719
1418.845, 74.94336
1419.895, 149.0469
1420.945, 85.08887
1421.995, 95.18164
1423.044, 10.26855
1424.093, 69.21191
1425.142, 53.28809
1426.191, 121.3828
1427.240, 32.30273
1428.289, 147.3848
1429.337, 128.6562
1430.385, 45.74805
1431.433, 226.8438
1432.481, 1.060547
1433.529, 63.02930
1434.577, 202.8262
1435.624, 116.7988
1436.672, 7.188477
1437.719, 87.92871
1438.766, 18.05957
1439.812, 69.15234
1440.859, 131.3037
1441.905, 23.46680
1442.952, 204.7129
1443.998, 217.9043
1445.044, 56.90234
1446.090, 165.2949
1447.135, 61.50098
1448.181, 68.32910
1449.226, 5.998047
1450.271, 34.74707
1451.316, 43.80957
1452.361, 115.2031
1453.405, 186.5820
1454.450, 216.9600
1455.494, 195.4990
1456.538, 80.69238
1457.582, 86.04688
1458.626, 76.39355
1459.670, 2.249023
1460.713, 109.0986
1461.757, 132.4443
1462.800, 90.78516
1463.843, 12.12891
1464.886, 292.4775
1465.928, 6.819336
1466.971, 131.1553
1468.013, 76.48535
1469.055, 72.19141
1470.097, 185.1221
1471.139, 26.09961
1472.181, 199.2334
1473.222, 104.5244
1474.263, 204.8438
1475.305, 115.0742
1476.346, 56.39648
1477.386, 146.7158
1478.427, 132.8086
1479.468, 169.9258
1480.508, 221.2109
1481.548, 23.37598
1482.588, 34.59180
1483.628, 90.86523
1484.668, 289.8545
1485.707, 143.0928
1486.747, 205.3662
1487.786, 71.31445
1488.825, 115.5869
1489.864, 207.9102
1490.902, 179.6387
1491.941, 71.23438
1492.979, 60.44434
1494.017, 89.55078
1495.055, 43.03320
1496.093, 169.6426
1497.131, 59.85352
1498.168, 59.06836
1499.206, 126.8281
1500.243, 38.94043
1501.280, 141.9238
1502.317, 221.0732
1503.354, 216.4854
1504.390, 257.4580
1505.426, 206.6973
1506.463, 234.6963
1507.499, 137.0049
1508.535, 84.04199
1509.570, 155.8428
1510.606, 14.97461
1511.641, 148.7373
1512.676, 109.5996
1513.711, 141.7461
1514.746, 86.88086
1515.781, 170.0078
1516.816, 94.19531
1517.850, 180.2822
1518.884, 92.95020
1519.918, 100.5166
1520.952, 74.54785
1521.986, 39.43066
1523.019, 89.49707
1524.053, 8.239258
1525.086, 82.95605
1526.119, 45.64551
1527.152, 34.98633
1528.185, 56.47363
1529.217, 42.09766
1530.250, 108.6895
1531.282, 182.2549
1532.314, 1.785156
1533.346, 108.5117
1534.377, 46.27246
1535.409, 170.0098
1536.440, 115.7207
1537.472, 151.3887
1538.503, 60.06152
1539.534, 177.7314
1540.564, 17.38867
1541.595, 97.13281
1542.625, 88.20898
1543.656, 134.9463
1544.686, 72.64941
1545.716, 68.35645
1546.745, 81.05273
1547.775, 82.96582
1548.804, 86.67578
1549.834, 77.09277
1550.863, 110.3408
1551.892, 111.6553
1552.920, 154.6562
1553.949, 170.2871
1554.977, 74.56543
1556.006, 190.1367
1557.034, 240.8096
1558.062, 199.9736
1559.089, 94.83496
1560.117, 135.1816
1561.144, 51.75684
1562.172, 92.57129
1563.199, 3.324219
1564.226, 63.14551
1565.252, 164.0518
1566.279, 17.48535
1567.305, 194.5459
1568.332, 192.3447
1569.358, 239.1094
1570.384, 165.9697
1571.409, 0.4648440
1572.435, 0.0000000E+00
##END=



