##NAMES=Diopside
##RRUFFID=R050406
##IDEAL CHEMISTRY=CaMgSi_2_O_6_
##LOCALITY=unknown
##OWNER=RRUFF
##SOURCE=University of Arizona Mineral Museum
##DESCRIPTION=Brownish gray massive
##STATUS=The identification of this mineral has been confirmed by X-ray diffraction and chemical analysis
##URL=rruff.info/R050406
##MEASURED CHEMISTRY=(Ca_0.95_Na_0.05_)(Mg_0.75_Fe^2+^_0.18_Fe^3+^_0.05_Al_0.01_Ti_0.01_Mn^2+^_0.01_)(Si_0.98_Al_0.02_)_2_O_6_
##PIN_ID=M00100
##ORIENTATION=Laser parallel to (1 0 1). Fiducial mark perpendicular to laser is parallel to -b [0 -1 0]
94.71400, 0.0000000E+00
95.94800, 213.1865
97.18200, 3.541016
98.41600, 114.3943
99.64900, 189.5969
100.8830, 170.3279
102.1160, 97.35669
103.3490, 166.9990
104.5820, 417.6123
105.8150, 738.6221
107.0470, 1275.642
108.2800, 1050.266
109.5120, 1583.794
110.7440, 744.1035
111.9760, 591.8647
113.2080, 605.4810
114.4400, 749.8936
115.6710, 732.0444
116.9030, 511.8892
118.1340, 364.4312
119.3650, 265.6255
120.5960, 326.4146
121.8270, 370.7515
123.0580, 378.5957
124.2880, 346.3008
125.5190, 326.9307
126.7490, 311.9785
127.9790, 388.0068
129.2090, 462.4512
130.4390, 569.2905
131.6680, 596.5054
132.8980, 650.0679
134.1270, 798.9468
135.3560, 906.1196
136.5850, 817.5679
137.8140, 819.3340
139.0430, 635.5425
140.2710, 467.3867
141.5000, 305.5122
142.7280, 177.8027
143.9560, 122.2544
145.1840, 125.8672
146.4120, 125.6436
147.6390, 76.58301
148.8670, 89.68164
150.0940, 101.9375
151.3210, 35.34814
152.5490, 103.9121
153.7750, 41.37109
155.0020, 16.49658
156.2290, 4.514160
157.4550, 101.3193
158.6810, 17.00586
159.9080, 13.45361
161.1340, 22.05811
162.3590, 106.8057
163.5850, 72.69482
164.8110, 157.7251
166.0360, 124.8950
167.2610, 221.2026
168.4860, 245.6133
169.7110, 407.0107
170.9360, 508.4131
172.1610, 633.8403
173.3850, 729.3042
174.6100, 1080.814
175.8340, 1266.377
177.0580, 1348.998
178.2820, 1288.684
179.5050, 896.2021
180.7290, 749.9019
181.9520, 592.3359
183.1760, 381.1138
184.3990, 387.8584
185.6220, 264.3325
186.8450, 266.1846
188.0670, 219.1226
189.2900, 272.1465
190.5120, 205.2593
191.7340, 152.4595
192.9560, 260.7549
194.1780, 270.1514
195.4000, 259.6895
196.6220, 247.3784
197.8430, 283.1665
199.0640, 287.0483
200.2860, 339.9839
201.5070, 335.0298
202.7270, 324.1069
203.9480, 309.2974
205.1690, 246.5747
206.3890, 281.2300
207.6090, 209.3965
208.8290, 315.9424
210.0490, 335.5801
211.2690, 333.3096
212.4890, 351.1299
213.7080, 436.0400
214.9280, 546.0376
216.1470, 507.1226
217.3660, 654.2959
218.5850, 647.5552
219.8030, 741.9014
221.0220, 796.3325
222.2400, 963.8491
223.4590, 1083.450
224.6770, 1171.135
225.8950, 1377.903
227.1120, 1491.755
228.3300, 1544.689
229.5480, 1455.704
230.7650, 1261.801
231.9820, 1103.978
233.1990, 973.2344
234.4160, 705.5708
235.6330, 615.9858
236.8490, 510.4780
238.0660, 500.0479
239.2820, 506.6943
240.4980, 407.4170
241.7140, 487.4624
242.9300, 527.2163
244.1460, 531.6768
245.3610, 524.0234
246.5770, 564.6089
247.7920, 612.4082
249.0070, 641.4014
250.2220, 554.5703
251.4370, 529.9023
252.6510, 495.3857
253.8660, 499.0112
255.0800, 491.7720
256.2940, 273.6592
257.5080, 533.6641
258.7220, 594.7812
259.9360, 422.0054
261.1490, 251.3340
262.3630, 14.76318
263.5760, 24.70947
264.7890, 55.90967
266.0020, 51.37842
267.2150, 35.58301
268.4270, 40.70410
269.6400, 80.74463
270.8520, 66.72803
272.0640, 95.63721
273.2760, 90.53271
274.4880, 68.35840
275.7000, 114.1138
276.9120, 72.19238
278.1230, 161.5742
279.3340, 89.02881
280.5450, 135.5557
281.7560, 126.1528
282.9670, 232.8198
284.1780, 260.3569
285.3880, 344.3564
286.5980, 376.2212
287.8090, 492.1489
289.0190, 561.1377
290.2290, 738.1357
291.4380, 832.2461
292.6480, 987.1943
293.8570, 1262.867
295.0670, 1388.504
296.2760, 1508.685
297.4850, 1777.906
298.6930, 2075.779
299.9020, 2319.601
301.1110, 2739.204
302.3190, 3141.834
303.5270, 3659.063
304.7350, 4120.615
305.9430, 4829.428
307.1510, 5628.298
308.3580, 6551.227
309.5660, 7245.244
310.7730, 8862.348
311.9800, 10090.53
313.1870, 11761.80
314.3940, 13675.13
315.6010, 15873.57
316.8070, 17498.08
318.0130, 19110.69
319.2200, 20165.39
320.4260, 20159.16
321.6310, 19665.00
322.8370, 18645.95
324.0430, 16806.96
325.2480, 15038.05
326.4540, 13539.18
327.6590, 11908.34
328.8640, 10374.54
330.0680, 9357.753
331.2730, 8123.979
332.4780, 7201.261
333.6820, 6287.593
334.8860, 5713.977
336.0900, 5167.413
337.2940, 4686.897
338.4980, 4272.833
339.7010, 3913.011
340.9050, 3631.638
342.1080, 3447.312
343.3110, 3327.032
344.5140, 3175.799
345.7170, 3144.611
346.9200, 3040.468
348.1220, 3104.371
349.3240, 3155.317
350.5270, 3140.311
351.7290, 3090.346
352.9310, 3178.424
354.1320, 3053.546
355.3340, 3090.711
356.5350, 3042.918
357.7370, 2993.167
358.9380, 3026.459
360.1390, 3134.792
361.3400, 3090.166
362.5400, 3175.581
363.7410, 3392.035
364.9410, 3511.529
366.1410, 3763.062
367.3410, 3916.637
368.5410, 4330.248
369.7410, 4758.899
370.9400, 5254.585
372.1400, 5906.312
373.3390, 6764.075
374.5380, 8019.875
375.7370, 9402.713
376.9360, 11097.59
378.1350, 12857.49
379.3330, 15067.44
380.5310, 17847.42
381.7300, 20509.43
382.9280, 23132.48
384.1260, 25826.56
385.3230, 27200.68
386.5210, 27147.85
387.7180, 26053.07
388.9160, 23548.34
390.1130, 20575.66
391.3100, 17309.04
392.5060, 14158.46
393.7030, 11766.92
394.9000, 9676.435
396.0960, 7750.991
397.2920, 6234.594
398.4880, 5176.239
399.6840, 4185.927
400.8800, 3411.658
402.0750, 2907.432
403.2710, 2494.246
404.4660, 2035.103
405.6610, 1799.999
406.8560, 1575.936
408.0510, 1463.465
409.2450, 1246.480
410.4400, 1179.419
411.6340, 1115.805
412.8280, 1017.099
414.0220, 913.2690
415.2160, 972.9019
416.4100, 784.6440
417.6030, 668.5928
418.7970, 691.2852
419.9900, 543.4575
421.1830, 636.9019
422.3760, 412.3237
423.5690, 278.7803
424.7610, 242.2715
425.9540, 249.7974
427.1460, 198.3569
428.3380, 167.9639
429.5300, 217.5776
430.7220, 60.23730
431.9140, 64.93018
433.1050, 34.34473
434.2970, 47.40186
435.4880, 28.81934
436.6790, 75.01758
437.8700, 72.20752
439.0610, 84.38672
440.2510, 57.56006
441.4420, 15.71875
442.6320, 11.28760
443.8220, 34.93701
445.0120, 89.73145
446.2020, 5.692383
447.3910, 7.848633
448.5810, 110.3652
449.7700, 141.2583
450.9600, 85.37256
452.1490, 185.2656
453.3370, 142.3804
454.5260, 224.6006
455.7150, 148.3594
456.9030, 252.6807
458.0910, 350.9512
459.2800, 303.5776
460.4670, 274.0342
461.6550, 178.3755
462.8430, 341.1245
464.0300, 293.0552
465.2180, 369.1245
466.4050, 262.6763
467.5920, 298.4639
468.7790, 223.1821
469.9650, 269.1318
471.1520, 305.1401
472.3380, 263.2432
473.5250, 230.9194
474.7110, 283.3525
475.8970, 271.6909
477.0820, 271.7627
478.2680, 345.9741
479.4540, 303.7485
480.6390, 290.5342
481.8240, 278.3330
483.0090, 366.1646
484.1940, 292.0093
485.3780, 393.8745
486.5630, 320.7583
487.7470, 400.6533
488.9320, 386.5586
490.1160, 286.4736
491.3000, 340.3979
492.4830, 389.3350
493.6670, 328.2832
494.8500, 360.2422
496.0340, 346.2095
497.2170, 363.1846
498.4000, 335.1680
499.5820, 413.1582
500.7650, 383.1553
501.9480, 442.1602
503.1300, 426.1709
504.3120, 536.1870
505.4940, 608.2109
506.6760, 618.2393
507.8580, 689.2729
509.0390, 706.3105
510.2210, 863.3525
511.4020, 1047.398
512.5830, 983.4478
513.7640, 1155.501
514.9450, 1319.558
516.1250, 1340.616
517.3060, 1583.677
518.4860, 1954.739
519.6660, 2026.805
520.8460, 2273.870
522.0260, 2397.937
523.2060, 2656.004
524.3850, 2926.077
525.5650, 2897.148
526.7440, 2908.248
527.9230, 2748.347
529.1020, 2635.461
530.2810, 2315.577
531.4590, 2014.694
532.6380, 1758.810
533.8160, 1693.945
534.9940, 1565.080
536.1720, 1351.211
537.3500, 1310.353
538.5270, 1184.494
539.7050, 1194.641
540.8820, 1202.783
542.0590, 1100.920
543.2360, 1097.053
544.4130, 1054.180
545.5900, 1010.308
546.7660, 1018.430
547.9430, 1055.544
549.1190, 960.6553
550.2950, 1084.766
551.4710, 1068.870
552.6470, 1136.971
553.8220, 1153.066
554.9980, 1215.157
556.1730, 1242.250
557.3480, 1148.342
558.5230, 1133.445
559.6980, 1051.556
560.8730, 1022.667
562.0470, 1015.788
563.2220, 946.8994
564.3960, 890.9995
565.5700, 721.0903
566.7440, 830.1738
567.9170, 785.2456
569.0910, 697.3042
570.2640, 756.3506
571.4380, 754.3833
572.6110, 692.4023
573.7840, 578.4077
574.9570, 642.4512
576.1290, 656.4282
577.3020, 422.6870
578.4740, 460.1914
579.6460, 326.0215
580.8180, 350.3833
581.9900, 233.0503
583.1620, 233.3628
584.3330, 188.2319
585.5040, 62.87012
586.6760, 107.3623
587.8470, 4.173340
589.0180, 43.28467
590.1880, 66.77734
591.3590, 61.48389
592.5290, 82.46680
593.7000, 66.68066
594.8700, 22.94336
596.0400, 106.9888
597.2090, 13.85352
598.3790, 96.20020
599.5490, 68.66943
600.7180, 64.81152
601.8870, 109.0239
603.0560, 18.98047
604.2250, 4.779297
605.3940, 101.6792
606.5620, 28.56396
607.7300, 1.802734
608.8990, 78.64648
610.0670, 75.33545
611.2350, 120.7656
612.4020, 120.5576
613.5700, 169.7358
614.7370, 111.4629
615.9050, 118.7539
617.0720, 137.7305
618.2390, 130.9585
619.4060, 193.1802
620.5720, 256.3511
621.7390, 200.4990
622.9050, 291.1289
624.0710, 335.7837
625.2370, 304.4795
626.4030, 411.3418
627.5690, 474.3491
628.7340, 385.3286
629.9000, 460.3540
631.0650, 617.2769
632.2300, 646.7881
633.3950, 740.0229
634.5600, 693.2349
635.7240, 831.0435
636.8890, 856.8354
638.0530, 954.6934
639.2170, 997.4136
640.3810, 1115.642
641.5450, 1228.900
642.7080, 1384.538
643.8720, 1559.140
645.0350, 1740.873
646.1980, 2012.414
647.3610, 2261.927
648.5240, 2695.408
649.6870, 3047.858
650.8490, 3574.280
652.0120, 4309.670
653.1740, 5139.051
654.3360, 6228.380
655.4980, 7669.679
656.6600, 9244.943
657.8210, 11076.18
658.9830, 13519.39
660.1440, 15381.56
661.3050, 17659.70
662.4660, 19073.82
663.6270, 19915.75
664.7870, 19658.79
665.9480, 18322.74
667.1080, 16106.73
668.2680, 13868.23
669.4280, 11808.97
670.5880, 9772.860
671.7480, 8311.198
672.9070, 6871.854
674.0670, 5915.819
675.2260, 4866.579
676.3850, 4075.499
677.5440, 3599.623
678.7030, 3152.484
679.8610, 2610.110
681.0200, 2272.705
682.1780, 2141.265
683.3360, 1870.961
684.4940, 1650.684
685.6520, 1517.224
686.8090, 1379.650
687.9670, 1202.465
689.1240, 1211.001
690.2810, 1136.328
691.4380, 986.6206
692.5950, 906.8799
693.7520, 736.1060
694.9080, 713.5806
696.0650, 859.9858
697.2210, 699.9590
698.3770, 628.7568
699.5330, 694.2725
700.6880, 606.8384
701.8440, 581.8813
702.9990, 457.9126
704.1550, 452.8994
705.3100, 416.1704
706.4650, 423.0239
707.6190, 382.8438
708.7740, 377.6299
709.9290, 355.9829
711.0830, 320.1006
712.2370, 308.7852
713.3910, 316.4360
714.5450, 288.6670
715.6980, 207.6484
716.8520, 228.2070
718.0050, 189.7432
719.1580, 186.2554
720.3110, 163.7437
721.4640, 103.2026
722.6170, 256.6138
723.7700, 146.9932
724.9220, 154.5977
726.0740, 253.9028
727.2260, 171.0195
728.3780, 39.77051
729.5300, 225.1235
730.6810, 109.2500
731.8330, 167.5869
732.9840, 64.82422
734.1350, 28.68262
735.2860, 121.1099
736.4370, 38.96582
737.5880, 69.85498
738.7380, 86.37500
739.8880, 19.05469
741.0390, 103.8306
742.1890, 42.19092
743.3380, 80.35547
744.4880, 28.37207
745.6380, 17.10742
746.7870, 27.76904
747.9360, 42.82520
749.0850, 29.50830
750.2340, 25.55566
751.3830, 24.26123
752.5310, 16.50977
753.6800, 3.971191
754.8280, 8.490723
755.9760, 85.29395
757.1240, 70.92969
758.2720, 79.99414
759.4190, 72.03760
760.5670, 41.93994
761.7140, 27.02051
762.8610, 1.955078
764.0080, 2.146973
765.1550, 96.71289
766.3020, 80.55371
767.4480, 44.37451
768.5950, 104.1748
769.7410, 13.95654
770.8870, 19.71240
772.0330, 17.70752
773.1780, 70.15527
774.3240, 41.84717
775.4690, 25.52148
776.6140, 111.1768
777.7590, 26.81494
778.9040, 22.43604
780.0490, 32.03857
781.1940, 82.62500
782.3380, 9.195313
783.4820, 46.74756
784.6260, 32.28418
785.7700, 38.80518
786.9140, 118.3120
788.0580, 85.80420
789.2010, 152.2817
790.3450, 6.745605
791.4880, 31.19434
792.6310, 45.63037
793.7730, 82.05273
794.9160, 68.46289
796.0590, 55.85986
797.2010, 21.24463
798.3430, 46.61768
799.4850, 28.97900
800.6270, 20.67041
801.7690, 4.658691
802.9100, 105.0229
804.0520, 37.23242
805.1930, 69.52246
806.3340, 25.32031
807.4750, 8.863281
808.6160, 17.96240
809.7560, 94.80322
810.8970, 7.695313
812.0370, 20.40088
813.1770, 72.51025
814.3170, 18.45947
815.4570, 58.42041
816.5960, 56.59033
817.7360, 50.59375
818.8750, 14.59131
820.0140, 9.416992
821.1530, 44.43408
822.2920, 4.468750
823.4310, 19.49023
824.5690, 21.55566
825.7070, 45.61084
826.8460, 65.31787
827.9840, 31.24268
829.1220, 31.16406
830.2590, 37.08203
831.3970, 13.00342
832.5340, 20.09326
833.6710, 67.18994
834.8080, 64.54102
835.9450, 26.44043
837.0820, 61.58057
838.2190, 3.737305
839.3550, 5.895996
840.4910, 26.05615
841.6270, 49.22119
842.7630, 63.60352
843.8990, 36.42871
845.0350, 65.25439
846.1700, 198.0811
847.3060, 89.90918
848.4410, 212.7388
849.5760, 284.5703
850.7100, 360.4043
851.8450, 447.2412
852.9800, 353.0049
854.1140, 505.8472
855.2480, 559.4458
856.3820, 433.0156
857.5160, 500.2861
858.6500, 445.3037
859.7830, 512.1660
860.9170, 441.2168
862.0500, 462.4297
863.1830, 540.3125
864.3160, 451.8687
865.4480, 529.0264
866.5810, 587.9531
867.7130, 498.5215
868.8460, 590.3115
869.9780, 490.0898
871.1100, 636.6250
872.2410, 614.2144
873.3730, 596.6748
874.5050, 644.4971
875.6360, 660.9438
876.7670, 654.4155
877.8980, 706.5728
879.0290, 737.5376
880.1590, 783.5723
881.2900, 809.5352
882.4200, 766.2100
883.5500, 803.3770
884.6800, 874.6826
885.8100, 813.9141
886.9400, 814.4678
888.0690, 867.1787
889.1990, 797.3950
890.3280, 816.0332
891.4570, 803.9717
892.5860, 845.6479
893.7140, 759.3174
894.8430, 764.0332
895.9710, 760.7617
897.1000, 717.9990
898.2280, 780.2266
899.3560, 684.4336
900.4830, 711.4658
901.6110, 755.3545
902.7380, 684.2637
903.8660, 533.1191
904.9930, 572.0747
906.1200, 523.4521
907.2460, 672.0967
908.3730, 548.7949
909.5000, 462.8882
910.6260, 490.9893
911.7520, 363.0342
912.8780, 533.2080
914.0040, 514.3452
915.1290, 481.4951
916.2550, 443.7754
917.3800, 455.0830
918.5050, 489.2690
919.6300, 512.6377
920.7550, 472.0356
921.8800, 475.4624
923.0040, 376.9116
924.1290, 519.3843
925.2530, 493.8794
926.3770, 408.3794
927.5010, 482.9277
928.6250, 465.5239
929.7480, 439.1436
930.8720, 367.8032
931.9950, 385.4897
933.1180, 352.2036
934.2410, 338.9595
935.3640, 317.7466
936.4860, 335.7295
937.6090, 306.5811
938.7310, 319.5273
939.8530, 311.0264
940.9750, 299.8193
942.0970, 323.9712
943.2180, 316.9629
944.3400, 379.5083
945.4610, 293.7402
946.5820, 354.6724
947.7030, 387.8057
948.8240, 534.7725
949.9450, 557.5537
951.0650, 511.5933
952.1860, 600.8770
953.3060, 774.1982
954.4260, 675.5552
955.5460, 921.7715
956.6650, 786.9556
957.7850, 889.3247
958.9040, 858.8018
960.0230, 1024.890
961.1420, 1011.252
962.2610, 1043.820
963.3800, 1176.417
964.4990, 1214.056
965.6170, 1306.584
966.7350, 1396.961
967.8530, 1467.622
968.9710, 1514.541
970.0890, 1569.631
971.2070, 1642.246
972.3240, 1707.322
973.4410, 1789.149
974.5580, 1846.992
975.6750, 1930.522
976.7920, 1971.470
977.9090, 2021.480
979.0250, 2311.521
980.1410, 2411.594
981.2580, 2483.698
982.3740, 2684.836
983.4890, 2824.007
984.6050, 3090.213
985.7200, 3134.450
986.8360, 3483.719
987.9510, 3618.019
989.0660, 4015.349
990.1810, 4457.714
991.2950, 4903.110
992.4100, 5375.545
993.5240, 6068.021
994.6390, 6942.528
995.7530, 7725.071
996.8660, 9051.647
997.9800, 10154.26
999.0940, 12000.90
1000.207, 13858.60
1001.320, 16262.32
1002.433, 18945.08
1003.546, 22654.87
1004.659, 27278.71
1005.772, 32633.59
1006.884, 38947.51
1007.996, 45328.46
1009.108, 51419.45
1010.220, 56267.47
1011.332, 58038.54
1012.444, 56189.64
1013.555, 51283.79
1014.666, 44166.95
1015.777, 36417.15
1016.888, 29496.40
1017.999, 23907.70
1019.110, 19136.05
1020.220, 15689.45
1021.331, 13021.90
1022.441, 10577.39
1023.551, 9141.922
1024.661, 8001.489
1025.770, 7092.098
1026.880, 6464.736
1027.989, 5682.183
1029.098, 5319.878
1030.207, 5016.602
1031.316, 4754.069
1032.425, 4583.675
1033.533, 4547.513
1034.642, 4333.894
1035.750, 4122.991
1036.858, 4208.104
1037.966, 4177.375
1039.073, 4169.501
1040.181, 4172.515
1041.288, 4084.614
1042.396, 4194.684
1043.503, 3982.778
1044.610, 3850.975
1045.716, 3603.122
1046.823, 3522.293
1047.929, 3282.389
1049.036, 3089.589
1050.142, 3042.832
1051.248, 2829.040
1052.353, 2593.330
1053.459, 2493.823
1054.564, 2393.443
1055.670, 2139.799
1056.775, 2194.178
1057.880, 2133.577
1058.985, 2074.388
1060.089, 1990.479
1061.194, 1907.403
1062.298, 1880.887
1063.402, 1756.902
1064.506, 1584.869
1065.610, 1576.739
1066.713, 1550.687
1067.817, 1553.965
1068.920, 1357.265
1070.023, 1335.893
1071.126, 1285.538
1072.229, 1273.499
1073.332, 1157.293
1074.435, 1095.036
1075.537, 1136.801
1076.639, 1044.625
1077.741, 1066.101
1078.843, 946.5693
1079.945, 1003.441
1081.046, 963.3169
1082.148, 964.6401
1083.249, 965.5649
1084.350, 941.9282
1085.451, 941.2368
1086.551, 895.5825
1087.652, 828.5815
1088.752, 762.5957
1089.853, 790.8633
1090.953, 779.9121
1092.053, 821.6445
1093.152, 801.2017
1094.252, 789.6768
1095.351, 766.0547
1096.451, 749.8457
1097.550, 720.9810
1098.649, 709.1299
1099.748, 671.4468
1100.846, 704.5688
1101.945, 706.7646
1103.043, 675.9795
1104.141, 766.2080
1105.239, 619.4551
1106.337, 641.7139
1107.434, 579.9834
1108.532, 665.2651
1109.629, 652.6411
1110.726, 777.9478
1111.823, 676.3901
1112.920, 625.7832
1114.017, 671.0142
1115.113, 667.6611
1116.210, 729.8906
1117.306, 866.2520
1118.402, 882.6216
1119.498, 958.9990
1120.593, 900.3843
1121.689, 1066.923
1122.784, 1072.382
1123.879, 995.6816
1124.974, 1053.460
1126.069, 958.8862
1127.164, 965.3203
1128.259, 768.7588
1129.353, 696.1201
1130.447, 666.5698
1131.541, 704.0254
1132.635, 620.4863
1133.729, 657.9517
1134.822, 470.4219
1135.916, 592.8965
1137.009, 435.3750
1138.102, 514.8574
1139.195, 476.3428
1140.288, 425.1450
1141.380, 327.6943
1142.473, 322.2437
1143.565, 284.9526
1144.657, 323.4526
1145.749, 387.9551
1146.841, 225.5205
1147.932, 303.0264
1149.024, 135.5327
1150.115, 177.0410
1151.206, 175.4321
1152.297, 97.94043
1153.388, 160.4497
1154.479, 62.99023
1155.569, 16.49756
1156.659, 92.03223
1157.750, 39.49316
1158.839, 25.00293
1159.929, 76.49170
1161.019, 6.984375
1162.108, 109.4209
1163.198, 125.9829
1164.287, 20.79639
1165.376, 54.83105
1166.465, 5.465332
1167.553, 4.790527
1168.642, 30.45654
1169.730, 77.10010
1170.818, 4.175293
1171.906, 153.4556
1172.994, 22.73193
1174.082, 25.10254
1175.170, 71.12891
1176.257, 39.05469
1177.344, 66.18652
1178.431, 33.68652
1179.518, 145.5835
1180.605, 11.43555
1181.691, 63.55127
1182.778, 19.42041
1183.864, 17.61426
1184.950, 18.66748
1186.036, 34.25977
1187.122, 11.17969
1188.207, 77.09326
1189.292, 0.0000000E+00
1190.378, 4.105957
1191.463, 80.22656
1192.548, 76.59766
1193.632, 47.58594
1194.717, 2.192871
1195.801, 4.957520
1196.886, 43.29053
1197.970, 31.57812
1199.054, 30.89844
1200.137, 33.75342
1201.221, 121.3960
1202.305, 11.02979
1203.388, 18.34912
1204.471, 49.24170
1205.554, 26.82373
1206.637, 15.60449
1207.719, 9.061035
1208.802, 39.54443
1209.884, 25.92920
1210.966, 81.39160
1212.048, 66.15625
1213.130, 60.23779
1214.212, 36.37939
1215.293, 12.04053
1216.374, 0.9882810
1217.456, 95.27197
1218.536, 57.54395
1219.617, 4.803711
1220.698, 76.04053
1221.778, 17.26465
1222.859, 41.47021
1223.939, 68.66260
1225.019, 37.84326
1226.099, 14.98975
1227.178, 102.1401
1228.258, 139.2583
1229.337, 39.36328
1230.417, 1.546387
1231.496, 64.51318
1232.574, 111.5596
1233.653, 61.59229
1234.732, 123.6128
1235.810, 80.61914
1236.888, 113.6123
1237.966, 121.5918
1239.044, 53.55762
1240.122, 77.50879
1241.199, 51.88086
1242.277, 58.36719
1243.354, 25.27393
1244.431, 45.15771
1245.508, 27.02393
1246.585, 156.8677
1247.661, 117.6973
1248.738, 144.5127
1249.814, 106.3135
1250.890, 59.09961
1251.966, 68.86914
1253.042, 30.62305
1254.117, 49.35498
1255.193, 116.4565
1256.268, 99.15381
1257.343, 122.8359
1258.418, 33.50342
1259.493, 104.1470
1260.567, 151.7754
1261.642, 141.3882
1262.716, 271.9858
1263.790, 136.5674
1264.864, 133.1333
1265.938, 106.6846
1267.011, 142.2192
1268.085, 114.4204
1269.158, 62.24268
1270.231, 86.72754
1271.304, 88.37109
1272.377, 70.82275
1273.450, 120.2568
1274.522, 167.7656
1275.594, 90.16797
1276.666, 198.5537
1277.738, 183.9233
1278.810, 164.2808
1279.882, 43.62256
1280.953, 187.9399
1282.025, 132.2407
1283.096, 102.5264
1284.167, 164.7959
1285.238, 105.0483
1286.308, 43.28467
1287.379, 241.4961
1288.449, 172.9136
1289.519, 158.0933
1290.589, 91.26318
1291.659, 170.7212
1292.729, 56.05469
1293.798, 105.1743
1294.868, 30.77148
1295.937, 58.65967
1297.006, 104.5391
1298.075, 92.27295
1299.143, 112.1650
1300.212, 76.18164
1301.280, 112.2217
1302.348, 58.26221
1303.416, 35.23291
1304.484, 77.11035
1305.552, 138.0469
1306.620, 126.9697
1307.687, 125.9780
1308.754, 224.8916
1309.821, 188.7729
1310.888, 139.6987
1311.955, 196.5532
1313.021, 124.2139
1314.088, 113.7559
1315.154, 126.6045
1316.220, 79.41113
1317.286, 140.3125
1318.352, 92.82861
1319.417, 106.9497
1320.483, 158.2466
1321.548, 175.9893
1322.613, 174.6982
1323.678, 137.9707
1324.743, 160.3481
1325.807, 172.6543
1326.872, 185.6372
1327.936, 187.9141
1329.000, 177.5684
1330.064, 246.2100
1331.128, 150.5693
1332.191, 151.1021
1333.255, 121.7104
1334.318, 248.3037
1335.381, 246.8442
1336.444, 211.7432
1337.507, 64.67725
1338.569, 200.2158
1339.632, 172.7573
1340.694, 128.8716
1341.756, 182.3926
1342.818, 55.28076
1343.880, 6.349609
1344.941, 200.7778
1346.003, 196.2573
1347.064, 169.7275
1348.125, 133.9556
1349.186, 165.4082
1350.247, 208.1812
1351.308, 163.5942
1352.368, 222.0200
1353.428, 188.5845
1354.489, 155.1641
1355.549, 133.5557
1356.608, 120.9385
1357.668, 82.22656
1358.727, 187.6460
1359.787, 99.00537
1360.846, 226.4258
1361.905, 221.7676
1362.964, 254.1006
1364.022, 130.4268
1365.081, 170.7451
1366.139, 142.1484
1367.197, 39.37354
1368.255, 84.66943
1369.313, 184.8330
1370.371, 152.0479
1371.428, 139.4272
1372.486, 164.3916
1373.543, 46.77686
1374.600, 69.12646
1375.657, 75.37451
1376.713, 108.6157
1377.770, 156.8506
1378.826, 155.9341
1379.882, 45.09912
1380.938, 86.42285
1381.994, 23.72900
1383.050, 120.4707
1384.106, 108.6631
1385.161, 198.8496
1386.216, 155.1118
1387.271, 142.2832
1388.326, 98.45068
1389.381, 86.57471
1390.435, 108.7456
1391.490, 79.88574
1392.544, 104.0215
1393.598, 146.1523
1394.652, 150.2793
1395.705, 150.4019
1396.759, 125.2065
1397.812, 0.7363280
1398.866, 160.3193
1399.919, 112.2144
1400.972, 10.31641
1402.024, 170.4561
1403.077, 180.4893
1404.129, 122.5796
1405.181, 112.4937
1406.233, 138.5776
1407.285, 67.77588
1408.337, 175.8535
1409.389, 82.92773
1410.440, 70.05176
1411.491, 110.1221
1412.542, 154.1621
1413.593, 118.2729
1414.644, 142.3369
1415.695, 107.4033
1416.745, 119.0562
1417.795, 155.0161
1418.845, 127.2124
1419.895, 131.5576
1420.945, 128.1543
1421.995, 120.3467
1423.044, 84.14551
1424.093, 117.2812
1425.142, 49.38477
1426.191, 68.54785
1427.240, 4.592773
1428.289, 14.77637
1429.337, 63.77588
1430.385, 116.3711
1431.433, 96.52832
1432.481, 46.73584
1433.529, 76.88916
1434.577, 115.0396
1435.624, 189.2266
1436.672, 92.41016
1437.719, 52.60596
1438.766, 104.7983
1439.812, 102.9922
1440.859, 21.16650
1441.905, 88.35742
1442.952, 2.687012
1443.998, 0.2280270
1445.044, 172.2847
1446.090, 99.42480
1447.135, 36.22559
1448.181, 14.31934
1449.226, 96.81348
1450.271, 78.95605
1451.316, 121.1343
1452.361, 84.30811
1453.405, 28.51562
1454.450, 62.66162
1455.494, 82.85693
1456.538, 192.0864
1457.582, 50.33301
1458.626, 117.6147
1459.670, 69.14355
1460.713, 79.45996
1461.757, 52.78369
1462.800, 59.11035
1463.843, 97.43457
1464.886, 32.78125
1465.928, 30.12500
1466.971, 51.48828
1468.013, 79.84766
1469.055, 90.20605
1470.097, 137.5610
1471.139, 37.91504
1472.181, 93.27002
1473.222, 53.63770
1474.263, 75.01758
1475.305, 35.39697
1476.346, 35.98975
1477.386, 98.16650
1478.427, 68.73242
1479.468, 3.114746
1480.508, 107.5107
1481.548, 47.90869
1482.588, 12.31104
1483.628, 71.71631
1484.668, 85.12646
1485.707, 12.29541
1486.747, 193.7192
1487.786, 103.0176
1488.825, 38.45312
1489.864, 81.88379
1490.902, 8.333008
1491.941, 68.78955
1492.979, 112.2544
1494.017, 35.74121
1495.055, 82.22607
1496.093, 71.70996
1497.131, 126.2046
1498.168, 46.72412
1499.206, 10.25439
1500.243, 39.33594
1501.280, 35.08154
1502.317, 58.64746
1503.354, 54.22168
1504.390, 42.80566
1505.426, 101.3994
1506.463, 85.00244
1507.499, 81.93359
1508.535, 142.6968
1509.570, 48.29980
1510.606, 103.9380
1511.641, 87.56738
1512.676, 88.20850
1513.711, 115.0957
1514.746, 104.7134
1515.781, 190.3413
1516.816, 52.99414
1517.850, 165.6567
1518.884, 54.32715
1519.918, 44.00781
1520.952, 48.69629
1521.986, 93.39404
1523.019, 122.1021
1524.053, 97.81934
1525.086, 190.5474
1526.119, 32.04883
1527.152, 107.8389
1528.185, 99.44922
1529.217, 13.93994
1530.250, 56.88965
1531.282, 78.73584
1532.314, 113.3105
1533.346, 72.17920
1534.377, 28.06299
1535.409, 156.9634
1536.440, 116.5522
1537.472, 200.4800
1538.503, 66.42236
1539.534, 190.3789
1540.564, 21.63867
1541.595, 227.3872
1542.625, 29.45215
1543.656, 15.64551
1544.686, 69.87158
1545.716, 116.1328
1546.745, 153.4316
1547.775, 90.77051
1548.804, 131.1528
1549.834, 187.3594
1550.863, 180.0259
1551.892, 248.3301
1552.920, 208.6821
1553.949, 205.5049
1554.977, 259.9189
1556.006, 193.3726
1557.034, 122.7935
1558.062, 214.7324
1559.089, 122.9492
1560.117, 142.9443
1561.144, 98.64600
1562.172, 86.48633
1563.199, 151.9512
1564.226, 5.130371
1565.252, 88.25537
1566.279, 34.83740
1567.305, 15.64014
1568.332, 66.50830
1569.358, 10.66162
1570.384, 37.69287
1571.409, 0.0000000E+00
##END=



