##NAMES=Diopside
##RRUFFID=R040097
##IDEAL CHEMISTRY=CaMgSi_2_O_6_
##LOCALITY=Fassathal, Tyrol
##OWNER=RRUFF
##SOURCE=University of Arizona Mineral Museum
##DESCRIPTION=Green prismatic crystals
##STATUS=The identification of this mineral has been confirmed by X-ray diffraction and chemical analysis
##URL=rruff.info/R040097
##MEASURED CHEMISTRY=Ca_1.00_(Mg_0.83_Al_0.10_Fe_0.09_Ca_0.02_Ti_0.02_)(Si_0.88_Al_0.12_)_2_O_6_
##PIN_ID=L00421
##ORIENTATION=Laser parallel to [1 0 1]. Fiducial mark perpendicular to laser is parallel to -b* (0 -1 0)
123.138, 0.000
124.522, 1.953
125.905, 121.850
127.288, 165.281
128.671, 174.814
130.053, 299.014
131.436, 195.366
132.818, 363.299
134.200, 447.527
135.582, 731.352
136.963, 1014.327
138.345, 1266.806
139.726, 1909.005
141.107, 1931.066
142.488, 2497.342
143.868, 2545.669
145.248, 2269.391
146.629, 1979.199
148.008, 1459.449
149.388, 1320.088
150.768, 801.074
152.147, 722.375
153.526, 473.964
154.905, 335.817
156.284, 377.914
157.662, 90.241
159.040, 32.784
160.418, 4.413
161.796, 0.696
163.174, 76.034
164.551, 18.954
165.929, 75.459
167.306, 40.063
168.683, 244.482
170.059, 329.094
171.436, 463.777
172.812, 358.530
174.188, 333.354
175.564, 408.249
176.939, 33.212
178.315, 188.245
179.690, 73.350
181.065, 348.525
182.440, 423.774
183.814, 529.096
185.188, 894.492
186.563, 719.960
187.937, 755.501
189.310, 451.115
190.684, 416.800
192.057, 272.558
193.430, 218.387
194.803, 344.287
196.176, 281.125
197.549, 307.676
198.921, 408.255
200.293, 353.800
201.665, 353.818
203.037, 5.591
204.408, 232.021
205.779, 12.067
207.150, 223.891
208.521, 59.896
209.892, 25.956
211.262, 152.074
212.633, 158.254
214.003, 234.494
215.373, 150.794
216.742, 427.152
218.112, 323.566
219.481, 470.037
220.850, 736.566
222.219, 723.152
223.588, 1179.796
224.956, 1206.490
226.324, 1643.183
227.692, 1799.913
229.060, 2186.689
230.428, 2413.525
231.795, 2250.420
233.162, 2317.373
234.529, 1834.384
235.896, 1481.451
237.263, 1138.577
238.629, 655.759
239.995, 612.995
241.361, 400.286
242.727, 437.631
244.093, 335.029
245.458, 412.477
246.823, 429.969
248.188, 297.505
249.553, 545.089
250.917, 382.721
252.282, 710.401
253.646, 618.129
255.010, 665.903
256.374, 703.724
257.737, 641.588
259.101, 709.498
260.464, 527.454
261.827, 435.455
263.189, 373.500
264.552, 221.589
265.914, 209.720
267.276, 22.104
268.638, 176.114
270.000, 15.621
271.362, 42.687
272.723, 38.962
274.084, 160.562
275.445, 27.882
276.806, 133.629
278.166, 75.088
279.526, 3.509
280.887, 97.056
282.246, 261.702
283.606, 19.461
284.966, 349.495
286.325, 158.635
287.684, 336.442
289.043, 284.071
290.402, 331.855
291.760, 459.781
293.118, 337.844
294.477, 775.994
295.834, 684.217
297.192, 962.575
298.550, 1400.971
299.907, 1129.448
301.264, 1737.970
302.621, 1526.535
303.978, 2045.172
305.334, 1993.854
306.690, 1982.560
308.046, 2271.156
309.402, 2149.746
310.758, 2618.395
312.113, 2677.094
313.469, 3205.846
314.824, 3834.646
316.179, 4203.496
317.533, 5052.391
318.888, 5411.332
320.242, 6630.317
321.596, 7229.346
322.950, 7978.416
324.304, 8987.190
325.657, 8816.163
327.010, 9631.596
328.363, 8559.841
329.716, 8139.076
331.069, 7466.474
332.421, 6465.773
333.774, 5855.105
335.126, 4824.472
336.478, 4633.867
337.829, 3753.299
339.181, 3412.757
340.532, 3402.248
341.883, 2611.770
343.234, 2921.320
344.585, 2560.902
345.935, 2510.514
347.285, 2600.154
348.635, 2509.822
349.985, 2799.518
351.335, 2969.242
352.684, 3198.994
354.034, 3528.772
355.383, 3638.578
356.731, 3918.409
358.080, 3728.267
359.429, 4158.144
360.777, 3658.044
362.125, 3497.903
363.473, 3527.746
364.820, 3257.596
366.168, 3647.344
367.515, 3177.213
368.862, 3456.435
370.209, 3346.355
371.556, 3366.300
372.902, 3326.269
374.249, 2836.261
375.595, 3226.279
376.940, 2876.318
378.286, 3136.383
379.632, 3316.469
380.977, 3396.574
382.322, 4206.705
383.667, 4246.855
385.012, 5397.027
386.356, 6327.221
387.700, 7337.434
389.044, 8887.668
390.388, 9777.920
391.732, 11108.195
393.075, 11548.486
394.419, 11888.800
395.762, 11259.130
397.105, 9769.479
398.447, 8959.848
399.790, 6800.238
401.132, 5620.653
402.474, 4361.087
403.816, 3401.535
405.158, 2692.042
406.499, 1732.564
407.841, 1843.137
409.182, 1363.729
410.523, 1004.339
411.864, 974.983
413.204, 545.644
414.544, 616.355
415.884, 247.084
417.224, 397.828
418.564, 638.630
419.904, 99.444
421.243, 620.752
422.582, 191.647
423.921, 392.791
425.260, 273.731
426.598, 184.686
427.937, 305.710
429.275, 76.382
430.613, 259.771
431.951, 200.748
433.288, 112.357
434.625, 176.649
435.963, 47.336
437.300, 355.731
438.636, 104.444
439.973, 70.282
441.309, 142.985
442.646, 41.865
443.981, 265.145
445.317, 77.031
446.653, 149.403
447.988, 112.001
449.323, 36.232
450.658, 376.943
451.993, 39.211
453.328, 347.782
454.662, 159.875
455.996, 191.363
457.331, 368.922
458.664, 290.677
459.998, 332.546
461.331, 294.537
462.665, 416.030
463.998, 353.825
465.330, 295.482
466.663, 637.360
467.996, 250.809
469.328, 492.344
470.660, 374.581
471.992, 286.149
473.323, 447.728
474.655, 239.290
475.986, 390.872
477.317, 122.449
478.648, 194.024
479.979, 435.598
481.309, 147.166
482.640, 418.739
483.970, 300.309
485.300, 261.873
486.629, 533.451
487.959, 75.039
489.288, 466.626
490.617, 348.205
491.946, 219.785
493.275, 321.357
494.603, 302.920
495.932, 464.477
497.260, 106.023
498.588, 517.561
499.916, 339.088
501.243, 380.605
502.571, 542.115
503.898, 273.611
505.225, 705.098
506.552, 586.572
507.878, 608.034
509.205, 929.483
510.531, 680.920
511.857, 1132.343
513.183, 923.753
514.508, 1105.147
515.834, 1296.529
517.159, 967.896
518.484, 1359.248
519.809, 1180.584
521.133, 1221.905
522.458, 1133.211
523.782, 1044.502
525.106, 1345.774
526.430, 1027.033
527.754, 1188.276
529.077, 1199.504
530.400, 1180.716
531.723, 1471.910
533.046, 1003.085
534.369, 1314.244
535.692, 1295.383
537.014, 816.506
538.336, 1197.607
539.658, 778.689
540.980, 919.752
542.301, 830.795
543.623, 721.814
544.944, 822.816
546.265, 483.799
547.585, 854.756
548.906, 615.693
550.226, 746.609
551.547, 717.502
552.867, 578.373
554.186, 919.221
555.506, 630.045
556.825, 691.523
558.145, 792.301
559.464, 845.201
560.783, 816.086
562.101, 696.789
563.420, 896.676
564.738, 637.381
566.056, 445.979
567.374, 1017.465
568.692, 369.074
570.009, 543.660
571.326, 614.629
572.643, 393.516
573.960, 704.848
575.277, 286.002
576.594, 496.480
577.910, 577.033
579.226, 129.426
580.542, 470.799
581.858, 183.395
583.173, 446.148
584.489, 306.867
585.804, 301.010
587.119, 446.717
588.434, 16.986
589.748, 238.924
591.063, 149.865
592.377, 9.334
593.691, 99.119
595.005, 131.760
596.318, 35.977
597.632, 44.035
598.945, 61.676
600.258, 187.223
601.571, 283.242
602.884, 116.250
604.196, 103.668
605.508, 86.314
606.821, 226.273
608.132, 115.270
609.444, 136.410
610.756, 34.742
612.067, 184.201
613.378, 335.527
614.689, 175.822
616.000, 289.955
617.311, 81.045
618.621, 237.562
619.931, 476.445
621.241, 15.357
622.551, 324.547
623.861, 272.617
625.170, 80.920
626.479, 507.100
627.788, 204.998
629.097, 680.842
630.406, 378.643
631.714, 676.551
633.023, 538.709
634.331, 496.369
635.639, 804.475
636.946, 572.684
638.254, 690.205
639.561, 939.939
640.868, 707.365
642.175, 1214.744
643.482, 976.168
644.789, 1353.449
646.095, 1311.029
647.401, 1348.217
648.707, 1825.355
650.013, 1852.545
651.319, 2059.586
652.624, 2627.070
653.929, 2834.016
655.234, 3580.914
656.539, 3767.883
657.844, 4644.682
659.148, 5731.951
660.453, 6348.650
661.757, 8345.303
663.061, 9101.906
664.364, 11198.457
665.668, 12594.963
666.971, 12881.418
668.274, 13457.820
669.577, 12354.180
670.880, 11270.488
672.183, 9686.746
673.485, 8262.953
674.787, 7069.113
676.089, 5715.223
677.391, 4921.283
678.693, 4177.295
679.994, 3433.256
681.296, 3219.168
682.597, 2375.031
683.898, 2290.844
685.198, 1926.609
686.499, 1562.324
687.799, 1737.988
689.099, 1023.674
690.399, 1619.240
691.699, 1064.760
692.998, 830.227
694.298, 1285.646
695.597, 631.018
696.896, 986.334
698.195, 711.605
699.493, 576.828
700.792, 912.002
702.090, 517.125
703.388, 642.201
704.686, 837.227
705.984, 602.205
707.281, 927.133
708.578, 712.012
709.876, 636.846
711.172, 711.627
712.469, 246.363
713.766, 411.045
715.062, 75.678
716.358, 370.242
717.654, 554.758
718.950, 60.775
720.246, 393.564
721.541, 42.143
722.836, 192.031
724.131, 156.152
725.426, 20.217
726.721, 294.197
728.015, 51.875
729.310, 192.008
730.604, 225.764
731.898, 80.533
733.191, 353.039
734.485, 113.436
735.778, 139.510
737.071, 52.828
738.364, 45.854
739.657, 269.037
740.950, 147.828
742.242, 14.857
743.535, 348.016
744.827, 58.529
746.118, 161.170
747.410, 183.379
748.702, 67.951
749.993, 473.828
751.284, 65.562
752.575, 294.768
753.866, 39.521
755.156, 38.723
756.447, 482.936
757.737, 116.939
759.027, 136.756
760.316, 117.666
761.606, 108.312
762.896, 409.752
764.185, 170.242
765.474, 410.584
766.763, 245.076
768.051, 13.984
769.340, 517.516
770.628, 97.088
771.916, 134.053
773.204, 185.043
774.492, 105.875
775.780, 287.174
777.067, 17.863
778.354, 243.197
779.641, 174.004
780.928, 126.793
782.215, 384.252
783.501, 125.434
784.787, 235.480
786.073, 196.355
787.359, 72.791
788.645, 467.990
789.930, 108.746
791.216, 69.467
792.501, 530.152
793.786, 39.191
795.071, 321.418
796.355, 421.998
797.640, 77.449
798.924, 443.037
800.208, 123.496
801.492, 433.926
802.775, 214.328
804.059, 174.707
805.342, 465.059
806.625, 75.387
807.908, 565.688
809.191, 445.965
810.474, 156.219
811.756, 626.447
813.038, 56.654
814.320, 776.834
815.602, 556.990
816.884, 327.123
818.165, 967.236
819.446, 397.324
820.727, 657.402
822.008, 1027.457
823.289, 657.488
824.569, 1097.502
825.850, 697.496
827.130, 917.471
828.410, 767.424
829.690, 757.355
830.969, 857.273
832.249, 737.170
833.528, 767.049
834.807, 726.914
836.086, 466.762
837.364, 936.594
838.643, 376.412
839.921, 526.215
841.199, 736.004
842.477, 105.781
843.755, 505.539
845.033, 745.285
846.310, 445.014
847.587, 844.734
848.864, 454.438
850.141, 954.125
851.418, 873.820
852.694, 903.502
853.971, 1253.170
855.247, 1062.848
856.523, 1512.512
857.798, 1302.172
859.074, 1351.818
860.349, 1531.453
861.624, 1251.111
862.899, 1260.758
864.174, 1330.398
865.449, 900.033
866.723, 1118.979
867.998, 988.629
869.272, 756.121
870.545, 1075.598
871.819, 715.299
873.093, 1015.785
874.366, 845.420
875.639, 517.178
876.912, 796.012
878.185, 444.727
879.458, 400.434
880.730, 859.725
882.002, 11.121
883.274, 590.043
884.546, 709.104
885.818, 308.820
887.090, 688.420
888.361, 146.172
889.632, 824.908
890.903, 332.387
892.174, 109.744
893.444, 769.104
894.715, 155.000
895.985, 589.361
897.255, 319.129
898.525, 107.189
899.795, 586.215
901.064, 165.342
902.334, 476.799
903.603, 476.812
904.872, 148.895
906.140, 888.707
907.409, 192.734
908.677, 336.895
909.946, 667.047
911.214, 132.889
912.482, 676.568
913.749, 246.045
915.017, 405.502
916.284, 565.869
917.551, 303.512
918.818, 723.953
920.085, 454.232
921.352, 552.092
922.618, 792.596
923.884, 385.869
925.150, 595.883
926.416, 626.211
927.682, 196.225
928.947, 836.893
930.213, 265.789
931.478, 416.484
932.743, 636.910
934.008, 489.414
935.272, 600.164
936.537, 602.930
937.801, 293.701
939.065, 974.336
940.329, 330.680
941.593, 301.486
942.856, 831.816
944.119, 112.000
945.383, 1132.838
946.646, 511.430
947.908, 452.297
949.171, 763.176
950.433, 219.975
951.696, 950.877
952.958, 371.453
954.220, 552.387
955.481, 1004.021
956.743, 494.887
958.004, 1055.859
959.265, 867.336
960.526, 738.334
961.787, 1119.850
963.048, 790.758
964.308, 1051.801
965.569, 1403.230
966.829, 864.299
968.089, 1495.781
969.348, 976.869
970.608, 1037.979
971.867, 1571.455
973.126, 992.586
974.385, 1303.729
975.644, 1825.328
976.903, 1166.502
978.161, 1588.393
979.420, 1409.717
980.678, 1630.928
981.936, 1843.172
983.193, 1564.408
984.451, 1975.658
985.708, 1598.789
986.966, 1930.139
988.223, 2061.793
989.479, 2304.664
990.736, 2616.135
991.993, 2799.176
993.249, 2560.902
994.505, 3812.340
995.761, 3475.242
997.017, 4296.777
998.272, 5269.176
999.528, 5570.801
1000.783, 7162.480
1002.038, 7949.008
1003.293, 9130.701
1004.548, 11223.090
1005.802, 12489.611
1007.057, 15061.395
1008.311, 17534.736
1009.565, 18817.086
1010.818, 21778.902
1012.072, 20928.703
1013.326, 21540.531
1014.579, 19653.574
1015.832, 15746.799
1017.085, 13498.744
1018.338, 10149.055
1019.590, 7801.145
1020.842, 6963.143
1022.095, 4544.141
1023.347, 4676.152
1024.599, 3818.762
1025.850, 2962.672
1027.102, 3494.832
1028.353, 2604.377
1029.604, 2437.945
1030.855, 2730.148
1032.106, 1786.240
1033.356, 2678.594
1034.607, 2091.715
1035.857, 2025.609
1037.107, 2707.914
1038.357, 2245.033
1039.607, 2137.541
1040.856, 2489.910
1042.106, 1949.441
1043.355, 2981.834
1044.604, 2104.227
1045.852, 2351.141
1047.101, 2723.609
1048.350, 1638.062
1049.598, 2390.867
1050.846, 1813.484
1052.094, 1653.148
1053.342, 1925.646
1054.589, 1110.232
1055.837, 1603.361
1057.084, 1975.879
1058.331, 650.414
1059.578, 1693.986
1060.824, 1226.543
1062.071, 833.945
1063.317, 1476.533
1064.563, 779.123
1065.809, 1108.531
1067.055, 911.092
1068.301, 605.900
1069.546, 1248.602
1070.791, 651.180
1072.036, 435.516
1073.281, 1138.086
1074.526, 580.672
1075.771, 1074.246
1077.015, 806.824
1078.259, 310.969
1079.503, 1203.510
1080.747, 536.041
1081.991, 599.309
1083.234, 901.805
1084.478, 324.713
1085.721, 817.229
1086.964, 779.760
1088.206, 283.619
1089.449, 1126.166
1090.691, 308.711
1091.934, 691.748
1093.176, 844.273
1094.418, 326.777
1095.659, 880.941
1096.901, 533.426
1098.142, 527.119
1099.384, 739.561
1100.625, 321.998
1101.865, 376.617
1103.106, 939.004
1104.347, 51.369
1105.587, 1155.801
1106.827, 588.105
1108.067, 0.672
1109.307, 1243.705
1110.546, 115.926
1111.786, 620.941
1113.025, 503.113
1114.264, 35.254
1115.503, 1018.068
1116.742, 160.143
1117.980, 292.592
1119.219, 926.383
1120.457, 51.637
1121.695, 420.641
1122.933, 712.535
1124.171, 174.395
1125.408, 719.352
1126.645, 121.148
1127.883, 262.904
1129.120, 595.916
1130.356, 57.598
1131.593, 670.947
1132.829, 373.047
1134.066, 25.395
1135.302, 984.750
1136.538, 266.215
1137.773, 1.730
1139.009, 760.660
1140.244, 1.992
1141.480, 314.791
1142.715, 387.586
1143.950, 48.775
1145.184, 751.984
1146.419, 184.941
1147.653, 375.979
1148.887, 732.912
1150.121, 66.137
1151.355, 1094.723
1152.589, 267.764
1153.822, 61.475
1155.056, 1174.141
1156.289, 84.836
1157.522, 325.398
1158.755, 917.920
1159.987, 101.361
1161.220, 629.500
1162.452, 216.693
1163.684, 176.914
1164.916, 683.232
1166.148, 93.857
1167.379, 476.113
1168.611, 759.877
1169.842, 259.285
1171.073, 920.389
1172.304, 414.072
1173.534, 136.375
1174.765, 1094.600
1175.995, 63.283
1177.225, 215.914
1178.455, 816.180
1179.685, 163.229
1180.915, 515.652
1182.144, 357.623
1183.374, 176.369
1184.603, 1015.035
1185.832, 12.346
1187.060, 546.143
1188.289, 764.891
1189.518, 205.533
1190.746, 722.607
1191.974, 592.115
1193.202, 159.432
1194.430, 1108.373
1195.657, 127.197
1196.884, 524.844
1198.112, 572.467
1199.339, 38.375
1200.566, 878.988
1201.792, 118.197
1203.019, 475.881
1204.245, 1133.002
1205.471, 154.557
1206.697, 391.506
1207.923, 1078.375
1209.149, 32.754
1210.374, 1043.904
1211.600, 641.209
1212.825, 21.416
1214.050, 1274.959
1215.275, 133.439
1216.499, 629.807
1217.724, 1135.930
1218.948, 244.930
1220.172, 1030.879
1221.396, 736.764
1222.620, 437.539
1223.843, 1083.213
1225.067, 298.826
1226.290, 784.771
1227.513, 1210.268
1228.736, 507.170
1229.959, 1182.543
1231.181, 597.861
1232.404, 718.025
1233.626, 1513.219
1234.848, 380.381
1236.070, 997.668
1237.291, 952.662
1238.513, 602.031
1239.734, 1147.361
1240.955, 1032.156
1242.177, 331.115
1243.397, 1315.760
1244.618, 440.340
1245.838, 766.293
1247.059, 1460.730
1248.279, 215.086
1249.499, 1090.002
1250.719, 1114.211
1251.938, 247.918
1253.158, 1061.875
1254.377, 685.766
1255.596, 571.033
1256.815, 1564.646
1258.034, 157.676
1259.253, 1054.111
1260.471, 1257.334
1261.689, 599.576
1262.907, 1343.213
1264.125, 675.705
1265.343, 350.285
1266.561, 1602.902
1267.778, 693.045
1268.995, 816.898
1270.212, 1259.195
1271.429, 140.881
1272.646, 1256.400
1273.862, 957.625
1275.079, 479.336
1276.295, 1321.848
1277.511, 382.479
1278.727, 675.000
1279.943, 1216.443
1281.158, 164.068
1282.373, 1568.758
1283.589, 649.566
1284.804, 200.918
1286.019, 1722.760
1287.233, 441.947
1288.448, 432.344
1289.662, 1363.121
1290.876, 312.180
1292.090, 363.648
1293.304, 1173.039
1294.518, 276.887
1295.731, 1165.270
1296.944, 820.250
1298.158, 279.988
1299.371, 1021.281
1300.583, 103.977
1301.796, 795.387
1303.008, 885.371
1304.221, 333.824
1305.433, 752.770
1306.645, 683.562
1307.856, 137.781
1309.068, 1451.547
1310.280, 38.625
1311.491, 206.895
1312.702, 1348.137
1313.913, 106.047
1315.124, 573.941
1316.334, 822.715
1317.545, 99.605
1318.755, 1447.422
1319.965, 413.039
1321.175, 190.316
1322.385, 1250.246
1323.594, 515.938
1324.804, 422.902
1326.013, 1156.945
1327.222, 133.520
1328.431, 1129.273
1329.639, 974.148
1330.848, 70.547
1332.056, 1112.039
1333.265, 698.059
1334.473, 484.074
1335.680, 1393.297
1336.888, 419.070
1338.096, 654.746
1339.303, 1095.883
1340.510, 491.328
1341.717, 1184.660
1342.924, 739.766
1344.131, 354.500
1345.337, 1472.070
1346.544, 287.426
1347.750, 629.852
1348.956, 1483.754
1350.162, 28.047
1351.367, 870.223
1352.573, 1293.863
1353.778, 247.785
1354.983, 1394.230
1356.188, 570.895
1357.393, 534.473
1358.598, 1801.090
1359.802, 217.184
1361.007, 698.207
1362.211, 1171.238
1363.415, 125.324
1364.619, 1295.746
1365.822, 1382.184
1367.026, 13.281
1368.229, 1797.625
1369.432, 825.695
1370.635, 645.242
1371.838, 943.906
1373.041, 392.789
1374.243, 1220.535
1375.446, 869.438
1376.648, 17.664
1377.850, 1064.488
1379.052, 261.613
1380.253, 100.074
1381.455, 1365.688
1382.656, 31.406
1383.857, 638.996
1385.058, 1695.895
1386.259, 40.309
1387.459, 1476.984
1388.660, 1383.875
1389.860, 409.016
1391.060, 1735.719
1392.260, 1208.949
1393.460, 605.773
1394.660, 2060.902
1395.859, 694.750
1397.059, 997.887
1398.258, 1753.191
1399.457, 162.316
1400.655, 1403.930
1401.854, 1526.660
1403.052, 109.488
1404.251, 2079.996
1405.449, 781.680
1406.647, 515.816
1407.845, 2129.938
1409.042, 250.855
1410.240, 760.223
1411.437, 1885.035
1412.634, 304.426
1413.831, 990.676
1415.028, 1393.047
1416.224, 6.383
1417.421, 1752.305
1418.617, 891.027
1419.813, 438.941
1421.009, 2231.641
1422.205, 387.832
1423.401, 1127.793
1424.596, 1358.008
1425.791, 229.812
1426.986, 1580.543
1428.181, 1100.094
1429.376, 39.223
1430.571, 1710.746
1431.765, 794.961
1432.960, 553.324
1434.154, 1894.145
1435.348, 344.613
1436.541, 822.191
1437.735, 1668.391
1438.929, 110.188
1440.122, 1541.996
1441.315, 1292.711
1442.508, 90.906
1443.701, 1811.828
1444.893, 931.910
1446.086, 60.840
1447.278, 2230.273
1448.470, 558.078
1449.662, 576.812
1450.854, 2031.453
1452.046, 99.137
1453.237, 1364.930
1454.428, 1431.500
1455.619, 202.344
1456.810, 1489.641
1458.001, 1408.988
1459.192, 145.266
1460.382, 2337.246
1461.573, 845.035
1462.763, 778.594
1463.953, 1766.109
1465.143, 503.836
1466.332, 1238.961
1467.522, 1823.227
1468.711, 274.926
1469.900, 1971.727
1471.089, 1418.168
1472.278, 623.492
1473.467, 2215.195
1474.655, 1150.836
1475.843, 877.367
1477.032, 2382.570
1478.220, 416.988
1479.407, 1601.781
1480.595, 2146.891
1481.783, 512.688
1482.970, 1917.523
1484.157, 1254.699
1485.344, 383.926
1486.531, 1735.848
1487.718, 1227.605
1488.904, 328.172
1490.090, 2141.809
1491.277, 472.082
1492.463, 902.039
1493.648, 2011.566
1494.834, 357.207
1496.020, 1326.434
1497.205, 1964.668
1498.390, 9.590
1499.575, 2223.266
1500.760, 936.906
1501.945, 28.391
1503.129, 2231.160
1504.314, 554.531
1505.498, 220.246
1506.682, 2021.848
1507.866, 3.027
1509.049, 517.156
1510.233, 0.000
##END=



