##NAMES=Diopside
##RRUFFID=R060276
##IDEAL CHEMISTRY=CaMgSi_2_O_6_
##LOCALITY=Inagli, Yakutia, Siberia, Russia
##OWNER=RRUFF
##SOURCE=Herb Obodda
##DESCRIPTION=Transparent green cleavage fragment
##STATUS=The identification of this mineral has been confirmed by X-ray diffraction and chemical analysis
##URL=rruff.info/R060276
##MEASURED CHEMISTRY=(Ca_0.97_Na_0.03_)_Σ=1_(Mg_0.96_Fe_0.03_Cr_0.01_)_Σ=1_(Si_1.98_Al_0.02_)_Σ=2_O_6_
##PIN_ID=L01321
##ORIENTATION=Laser parallel to (1 0 1). Fiducial mark perpendicular to laser is parallel to -b [0 -1 0]
109.5120, 0.0000000E+00
110.7440, 43.79956
111.9760, 1.427490
113.2080, 42.59717
114.4400, 62.23633
115.6710, 97.19556
116.9030, 67.68335
118.1340, 41.29688
119.3650, 91.75781
120.5960, 64.87817
121.8270, 102.3896
123.0580, 161.3699
124.2880, 59.72974
125.5190, 52.38062
126.7490, 105.2646
127.9790, 86.34351
129.2090, 229.5908
130.4390, 304.9912
131.6680, 273.5359
132.8980, 230.4756
134.1270, 349.6638
135.3560, 398.7478
136.5850, 376.7615
137.8140, 481.7280
139.0430, 451.6653
140.2710, 440.5889
141.5000, 498.5112
142.7280, 414.4419
143.9560, 382.3896
145.1840, 281.3616
146.4120, 222.3638
147.6390, 133.3989
148.8670, 50.46582
150.0940, 111.5896
151.3210, 63.77881
152.5490, 137.0527
153.7750, 14.35498
155.0020, 35.31274
156.2290, 77.55835
157.4550, 64.65479
158.6810, 84.74658
159.9080, 33.51001
161.1340, 139.2620
162.3590, 82.08813
163.5850, 136.9873
164.8110, 186.9585
166.0360, 171.0000
167.2610, 252.1111
168.4860, 230.2910
169.7110, 367.5391
170.9360, 474.8530
172.1610, 623.2290
173.3850, 736.6660
174.6100, 742.1646
175.8340, 867.7231
177.0580, 1124.342
178.2820, 1244.021
179.5050, 1190.760
180.7290, 1198.558
181.9520, 1331.415
183.1760, 1626.332
184.3990, 1748.263
185.6220, 1469.205
186.8450, 1030.171
188.0670, 703.1658
189.2900, 364.7322
190.5120, 184.9565
191.7340, 68.15161
192.9560, 114.7263
194.1780, 104.7905
195.4000, 71.93921
196.6220, 58.11938
197.8430, 41.50854
199.0640, 29.58447
200.2860, 6.869873
201.5070, 2.097656
202.7270, 12.62695
203.9480, 19.04541
205.1690, 32.59790
206.3890, 62.12939
207.6090, 70.83325
208.8290, 49.07275
210.0490, 42.47437
211.2690, 17.15723
212.4890, 25.39404
213.7080, 87.52515
214.9280, 61.26343
216.1470, 127.0386
217.3660, 126.8506
218.5850, 166.7004
219.8030, 325.5879
221.0220, 362.5132
222.2400, 548.4761
223.4590, 716.4763
224.6770, 859.5139
225.8950, 870.5894
227.1120, 965.7012
228.3300, 1108.851
229.5480, 1216.032
230.7650, 1300.234
231.9820, 1317.426
233.1990, 1387.613
234.4160, 1388.830
235.6330, 1277.085
236.8490, 1177.379
238.0660, 972.7107
239.2820, 727.0806
240.4980, 657.4875
241.7140, 616.9324
242.9300, 543.4146
244.1460, 508.9333
245.3610, 708.4893
246.5770, 742.0818
247.7920, 843.7107
249.0070, 959.3752
250.2220, 971.0767
251.4370, 983.8135
252.6510, 1003.586
253.8660, 1085.394
255.0800, 1265.236
256.2940, 1268.381
257.5080, 1235.816
258.7220, 1224.706
259.9360, 852.4480
261.1490, 548.3989
262.3630, 297.4656
263.5760, 202.5918
264.7890, 141.7583
266.0020, 106.9888
267.2150, 15.73364
268.4270, 56.58350
269.6400, 16.93921
270.8520, 6.667969
272.0640, 76.76001
273.2760, 4.777588
274.4880, 34.28198
275.7000, 49.24316
276.9120, 25.19922
278.1230, 81.38721
279.3340, 1.968262
280.5450, 79.57861
281.7560, 78.21338
282.9670, 52.87354
284.1780, 116.5596
285.3880, 102.2710
286.5980, 237.0093
287.8090, 228.7729
289.0190, 239.5625
290.2290, 401.3789
291.4380, 395.2207
292.6480, 474.0879
293.8570, 608.9819
295.0670, 745.3628
296.2760, 876.3076
297.4850, 1045.279
298.6930, 1127.837
299.9020, 1404.358
301.1110, 1614.063
302.3190, 1832.126
303.5270, 2236.801
304.7350, 2714.837
305.9430, 3200.854
307.1510, 3801.906
308.3580, 4270.537
309.5660, 5199.675
310.7730, 6324.861
311.9800, 7803.078
313.1870, 9613.322
314.3940, 11484.63
315.6010, 13288.97
316.8070, 15176.36
318.0130, 16757.80
319.2200, 18356.43
320.4260, 20169.78
321.6310, 21219.31
322.8370, 22568.86
324.0430, 23796.45
325.2480, 24207.10
326.4540, 23744.76
327.6590, 21817.45
328.8640, 18730.16
330.0680, 15626.89
331.2730, 12516.66
332.4780, 10150.45
333.6820, 8215.259
334.8860, 6595.094
336.0900, 5512.948
337.2940, 4645.827
338.4980, 4072.722
339.7010, 3512.637
340.9050, 3083.574
342.1080, 2963.535
343.3110, 2631.520
344.5140, 2556.526
345.7170, 2299.557
346.9200, 2217.588
348.1220, 2051.200
349.3240, 2145.610
350.5270, 2132.524
351.7290, 2078.175
352.9310, 1984.466
354.1320, 1928.800
355.3340, 2015.446
356.5350, 1971.679
357.7370, 2021.933
358.9380, 1962.209
360.1390, 1949.507
361.3400, 1961.826
362.5400, 1916.167
363.7410, 1940.529
364.9410, 1948.912
366.1410, 2013.316
367.3410, 2129.720
368.5410, 2302.187
369.7410, 2458.653
370.9400, 2672.140
372.1400, 2923.646
373.3390, 3357.173
374.5380, 3782.720
375.7370, 4488.288
376.9360, 5524.875
378.1350, 6748.481
379.3330, 8450.107
380.5310, 10603.76
381.7300, 12673.42
382.9280, 14965.11
384.1260, 17051.81
385.3230, 19029.54
386.5210, 21330.28
387.7180, 22864.04
388.9160, 24273.83
390.1130, 25578.63
391.3100, 26424.45
392.5060, 25988.29
393.7030, 23719.14
394.9000, 20540.02
396.0960, 16619.91
397.2920, 12914.82
398.4880, 9695.751
399.6840, 7391.699
400.8800, 5726.664
402.0750, 4376.652
403.2710, 3589.668
404.4660, 2715.707
405.6610, 2180.768
406.8560, 1957.850
408.0510, 1590.954
409.2450, 1328.079
410.4400, 1053.226
411.6340, 913.0967
412.8280, 896.2842
414.0220, 862.4937
415.2160, 679.6240
416.4100, 638.8740
417.6030, 602.0776
418.7970, 520.5278
419.9900, 539.8374
421.1830, 439.6201
422.3760, 352.9692
423.5690, 354.3359
424.7610, 301.7236
425.9540, 224.1318
427.1460, 225.5591
428.3380, 212.0054
429.5300, 162.2598
430.7220, 176.9551
431.9140, 107.4580
433.1050, 149.9800
434.2970, 163.5205
435.4880, 188.0791
436.6790, 68.65576
437.8700, 26.74951
439.0610, 43.85938
440.2510, 30.51465
441.4420, 23.12354
442.6320, 28.08936
443.8220, 47.58203
445.0120, 37.27637
446.2020, 31.80420
447.3910, 10.63916
448.5810, 17.38428
449.7700, 46.35596
450.9600, 56.47266
452.1490, 78.06396
453.3370, 99.35986
454.5260, 193.6729
455.7150, 99.50879
456.9030, 178.2212
458.0910, 215.5776
459.2800, 171.1841
460.4670, 182.5376
461.6550, 179.4741
462.8430, 254.8140
464.0300, 147.0127
465.2180, 103.0039
466.4050, 66.42578
467.5920, 166.9971
468.7790, 208.0518
469.9650, 124.1240
471.1520, 85.21045
472.3380, 162.4331
473.5250, 149.5781
474.7110, 72.70361
475.8970, 140.8472
477.0820, 87.00293
478.2680, 95.16846
479.4540, 40.35498
480.6390, 23.55127
481.8240, 2.759277
483.0090, 73.97754
484.1940, 102.2085
485.3780, 48.45850
486.5630, 89.71973
487.7470, 80.99121
488.9320, 35.27832
490.1160, 52.57471
491.3000, 45.88232
492.4830, 25.20215
493.6670, 21.42578
494.8500, 21.20801
496.0340, 23.24512
497.2170, 32.65332
498.4000, 39.06006
499.5820, 52.47510
500.7650, 52.89844
501.9480, 73.16895
503.1300, 150.7676
504.3120, 147.2139
505.4940, 104.6655
506.6760, 215.1250
507.8580, 259.5903
509.0390, 239.0693
510.2210, 302.5552
511.4020, 377.0474
512.5830, 492.5459
513.7640, 438.0508
514.9450, 509.5615
516.1250, 589.0771
517.3060, 815.6035
518.4860, 986.1357
519.6660, 1105.673
520.8460, 1253.216
522.0260, 1547.776
523.2060, 1785.344
524.3850, 2070.921
525.5650, 2189.508
526.7440, 2395.107
527.9230, 2569.714
529.1020, 2592.327
530.2810, 2598.573
531.4590, 2498.798
532.6380, 2387.214
533.8160, 2095.868
534.9940, 1869.533
536.1720, 1537.211
537.3500, 1304.904
538.5270, 1018.599
539.7050, 896.2959
540.8820, 731.0117
542.0590, 634.7290
543.2360, 665.4482
544.4130, 560.1768
545.5900, 459.9243
546.7660, 510.6777
547.9430, 420.4331
549.1190, 487.1885
550.2950, 455.9688
551.4710, 496.7500
552.6470, 547.5322
553.8220, 480.3320
554.9980, 547.1323
556.1730, 597.9321
557.3480, 548.7363
558.5230, 585.5571
559.6980, 512.3818
560.8730, 462.2168
562.0470, 581.0518
563.2220, 471.8877
564.3960, 414.7324
565.5700, 450.5752
566.7440, 385.4165
567.9170, 320.2544
569.0910, 231.0903
570.2640, 241.9238
571.4380, 189.9204
572.6110, 133.5806
573.7840, 174.4043
574.9570, 185.2241
576.1290, 225.0503
577.3020, 185.8628
578.4740, 168.6709
579.6460, 84.01318
580.8180, 113.8125
581.9900, 104.0430
583.1620, 21.07568
584.3330, 78.76807
585.5040, 103.6206
586.6760, 19.27783
587.8470, 45.36133
589.0180, 66.36426
590.1880, 3.091797
591.3590, 38.38965
592.5290, 44.65576
593.7000, 55.96533
594.8700, 7.354980
596.0400, 35.27002
597.2090, 124.0762
598.3790, 13.89502
599.5490, 73.07373
600.7180, 100.1943
601.8870, 62.11523
603.0560, 21.06006
604.2250, 2.678711
605.3940, 87.35205
606.5620, 31.32422
607.7300, 49.08057
608.8990, 49.12061
610.0670, 61.72461
611.2350, 100.3071
612.4020, 39.77832
613.5700, 12.07373
614.7370, 83.83398
615.9050, 65.67041
617.0720, 95.96924
618.2390, 142.0972
619.4060, 224.3105
620.5720, 125.4146
621.7390, 197.7734
622.9050, 199.9526
624.0710, 205.6621
625.2370, 250.6084
626.4030, 202.0459
627.5690, 288.3687
628.7340, 399.5615
629.9000, 282.5386
631.0650, 499.5034
632.2300, 424.5654
633.3950, 504.5039
634.5600, 458.4771
635.7240, 536.3896
636.8890, 553.3267
638.0530, 703.5132
639.2170, 715.5190
640.3810, 792.5654
641.5450, 810.4688
642.7080, 980.3667
643.8720, 1113.183
645.0350, 1183.983
646.1980, 1420.771
647.3610, 1552.543
648.5240, 1875.750
649.6870, 2113.646
650.8490, 2504.521
652.0120, 2970.235
653.1740, 3608.056
654.3360, 4369.841
655.4980, 5546.509
656.6600, 6568.245
657.8210, 8111.015
658.9830, 9742.759
660.1440, 11523.53
661.3050, 12949.87
662.4660, 14489.08
663.6270, 15674.62
664.7870, 16807.48
665.9480, 17570.43
667.1080, 17630.18
668.2680, 17089.97
669.4280, 15689.52
670.5880, 13922.40
671.7480, 11586.27
672.9070, 9163.568
674.0670, 7462.824
675.2260, 5864.603
676.3850, 4866.654
677.5440, 4022.006
678.7030, 3252.412
679.8610, 2709.480
681.0200, 2324.788
682.1780, 1995.065
683.3360, 1726.020
684.4940, 1497.326
685.6520, 1265.525
686.8090, 1138.911
687.9670, 1055.216
689.1240, 891.6523
690.2810, 811.1299
691.4380, 794.3120
692.5950, 657.0972
693.7520, 660.3257
694.9080, 557.4766
696.0650, 485.4253
697.2210, 508.2373
698.3770, 564.2021
699.5330, 460.8364
700.6880, 546.0225
701.8440, 412.9790
702.9990, 380.1167
704.1550, 398.1699
705.3100, 321.0425
706.4650, 401.8926
707.6190, 324.7222
708.7740, 248.5298
709.9290, 286.3164
711.0830, 285.0815
712.2370, 258.8252
713.3910, 205.5469
714.5450, 144.2476
715.6980, 214.9258
716.8520, 149.5830
718.0050, 242.2188
719.1580, 202.8350
720.3110, 152.4302
721.4640, 103.0059
722.6170, 91.42822
723.7700, 129.9570
724.9220, 68.46436
726.0740, 104.7383
727.2260, 167.4805
728.3780, 66.91602
729.5300, 154.1177
730.6810, 72.11475
731.8330, 120.7324
732.9840, 124.5854
734.1350, 114.4165
735.2860, 105.7197
736.4370, 60.14111
737.5880, 55.91016
738.7380, 55.42188
739.8880, 40.82178
741.0390, 42.32471
742.1890, 1.059570
743.3380, 50.91895
744.4880, 25.97803
745.6380, 101.5957
746.7870, 46.94336
747.9360, 11.00732
749.0850, 40.92676
750.2340, 45.82373
751.3830, 61.57568
752.5310, 29.39795
753.6800, 3.230469
754.8280, 51.02979
755.9760, 86.80908
757.1240, 4.429688
758.2720, 86.29395
759.4190, 41.00049
760.5670, 61.68555
761.7140, 23.35303
762.8610, 3.003906
764.0080, 31.60449
765.1550, 36.19141
766.3020, 7.757813
767.4480, 124.2959
768.5950, 187.8174
769.7410, 62.32178
770.8870, 151.8086
772.0330, 76.27783
773.1780, 93.73096
774.3240, 77.16699
775.4690, 30.58691
776.6140, 53.16406
777.7590, 39.33496
778.9040, 69.73730
780.0490, 67.08691
781.1940, 88.42041
782.3380, 137.7383
783.4820, 97.04102
784.6260, 102.3286
785.7700, 4.398926
786.9140, 42.84473
788.0580, 43.07275
789.2010, 92.28418
790.3450, 47.48096
791.4880, 51.66260
792.6310, 91.82861
793.7730, 2.020020
794.9160, 42.10693
796.0590, 43.21826
797.2010, 33.31396
798.3430, 30.60498
799.4850, 2.437988
800.6270, 3.540039
801.7690, 9.541992
802.9100, 11.56934
804.0520, 9.218750
805.1930, 7.296387
806.3340, 7.799805
807.4750, 2.080566
808.6160, 14.63232
809.7560, 38.22070
810.8970, 22.42285
812.0370, 31.65479
813.1770, 36.92090
814.3170, 74.77734
815.4570, 39.46338
816.5960, 55.86279
817.7360, 51.76611
818.8750, 113.3838
820.0140, 25.01025
821.1530, 63.43115
822.2920, 14.89941
823.4310, 4.611328
824.5690, 18.11035
825.7070, 85.40332
826.8460, 4.972656
827.9840, 29.44336
829.1220, 62.15088
830.2590, 6.212891
831.3970, 18.56543
832.5340, 20.09326
833.6710, 66.77002
834.8080, 22.49072
835.9450, 34.22998
837.0820, 3.994141
838.2190, 27.23145
839.3550, 45.55225
840.4910, 1.365234
841.6270, 79.81152
842.7630, 71.98047
843.8990, 169.1406
845.0350, 38.29346
846.1700, 175.4385
847.3060, 222.5757
848.4410, 182.7061
849.5760, 313.8286
850.7100, 292.9448
851.8450, 410.0435
852.9800, 375.1465
854.1140, 487.2417
855.2480, 467.3306
856.3820, 471.4131
857.5160, 501.4897
858.6500, 449.3179
859.7830, 503.9727
860.9170, 479.9570
862.0500, 457.1270
863.1830, 408.9678
864.3160, 340.0293
865.4480, 409.2607
866.5810, 405.3179
867.7130, 325.7803
868.8460, 349.7959
869.9780, 393.8604
871.1100, 445.8916
872.2410, 401.8828
873.3730, 374.5078
874.5050, 305.0586
875.6360, 291.7256
876.7670, 415.9199
877.8980, 495.4673
879.0290, 502.3271
880.1590, 527.0142
881.2900, 502.5889
882.4200, 464.4238
883.5500, 432.6147
884.6800, 422.5688
885.8100, 394.1802
886.9400, 416.0684
888.0690, 427.1191
889.1990, 436.6899
890.3280, 470.1724
891.4570, 440.1836
892.5860, 506.3555
893.7140, 533.4326
894.8430, 412.6133
895.9710, 379.5288
897.1000, 512.6123
898.2280, 389.1558
899.3560, 372.4526
900.4830, 380.2461
901.6110, 408.1533
902.7380, 441.1836
903.8660, 310.4482
904.9930, 349.7153
906.1200, 265.8965
907.2460, 335.1919
908.3730, 316.4434
909.5000, 223.7446
910.6260, 219.0264
911.7520, 286.0806
912.8780, 270.3057
914.0040, 232.4985
915.1290, 183.8477
916.2550, 170.2065
917.3800, 300.6367
918.5050, 147.0703
919.6300, 312.5103
920.7550, 212.9751
921.8800, 211.0098
923.0040, 154.3477
924.1290, 158.6978
925.2530, 213.1934
926.3770, 216.5742
927.5010, 137.9819
928.6250, 208.4966
929.7480, 178.9331
930.8720, 182.3374
931.9950, 218.7554
933.1180, 134.1460
934.2410, 160.9570
935.3640, 168.8823
936.4860, 234.4712
937.6090, 82.72314
938.7310, 167.9014
939.8530, 73.27051
940.9750, 201.5835
942.0970, 41.12646
943.2180, 96.33105
944.3400, 139.5371
945.4610, 119.3232
946.5820, 184.1455
947.7030, 210.4336
948.8240, 214.9072
949.9450, 290.1982
951.0650, 245.8643
952.1860, 242.8555
953.3060, 265.5986
954.4260, 243.3638
955.5460, 305.4409
956.6650, 323.1606
957.7850, 372.9883
958.9040, 402.6191
960.0230, 348.3228
961.1420, 616.8823
962.2610, 447.4019
963.3800, 445.2070
964.4990, 607.3984
965.6170, 547.1499
966.7350, 565.9727
967.8530, 649.0107
968.9710, 710.1758
970.0890, 672.1772
971.2070, 774.4995
972.3240, 809.2588
973.4410, 875.2363
974.5580, 874.0220
975.6750, 920.8818
976.7920, 1155.911
977.9090, 1189.949
979.0250, 1244.998
980.1410, 1344.057
981.2580, 1373.125
982.3740, 1509.205
983.4890, 1643.294
984.6050, 1848.394
985.7200, 1790.505
986.8360, 2053.627
987.9510, 2264.758
989.0660, 2428.899
990.1810, 2732.053
991.2950, 3039.214
992.4100, 3406.387
993.5240, 3828.570
994.6390, 4476.770
995.7530, 5011.977
996.8660, 5855.203
997.9800, 6960.439
999.0940, 8280.688
1000.207, 9825.947
1001.320, 11940.22
1002.433, 14180.50
1003.546, 17697.79
1004.659, 22154.10
1005.772, 27470.42
1006.884, 33583.75
1007.996, 39962.08
1009.108, 45653.43
1010.220, 51106.78
1011.332, 54878.17
1012.444, 56657.58
1013.555, 56634.99
1014.666, 53378.42
1015.777, 47385.86
1016.888, 39753.31
1017.999, 31442.79
1019.110, 24074.29
1020.220, 18312.79
1021.331, 14170.31
1022.441, 11113.84
1023.551, 8944.391
1024.661, 7341.219
1025.770, 6085.033
1026.880, 5285.221
1027.989, 4649.884
1029.098, 3967.521
1030.207, 3641.417
1031.316, 3357.146
1032.425, 3103.778
1033.533, 2903.331
1034.642, 2736.404
1035.750, 2618.945
1036.858, 2547.302
1037.966, 2500.325
1039.073, 2575.476
1040.181, 2511.515
1041.288, 2552.609
1042.396, 2630.563
1043.503, 2580.948
1044.610, 2575.368
1045.716, 2445.573
1046.823, 2605.680
1047.929, 2580.207
1049.036, 2417.346
1050.142, 2219.362
1051.248, 2016.365
1052.353, 1939.809
1053.459, 1675.469
1054.564, 1610.916
1055.670, 1473.218
1056.775, 1354.343
1057.880, 1343.545
1058.985, 1241.552
1060.089, 1174.920
1061.194, 1166.990
1062.298, 1035.079
1063.402, 1087.826
1064.506, 1034.023
1065.610, 999.1924
1066.713, 872.5244
1067.817, 854.8574
1068.920, 830.0396
1070.023, 668.2197
1071.126, 792.2632
1072.229, 714.8066
1073.332, 754.9922
1074.435, 608.4312
1075.537, 584.6001
1076.639, 533.3018
1077.741, 548.4297
1078.843, 612.7812
1079.945, 558.9492
1081.046, 550.4248
1082.148, 466.3521
1083.249, 486.8486
1084.350, 449.9932
1085.451, 428.3843
1086.551, 492.9619
1087.652, 432.5825
1088.752, 394.4917
1089.853, 469.3423
1090.953, 386.8403
1092.053, 325.3677
1093.152, 366.5811
1094.252, 426.1836
1095.351, 339.5654
1096.451, 350.8115
1097.550, 291.3008
1098.649, 304.5571
1099.748, 236.2778
1100.846, 373.6484
1101.945, 339.1470
1103.043, 360.3501
1104.141, 365.6807
1105.239, 224.9048
1106.337, 313.0771
1107.434, 281.2808
1108.532, 281.4253
1109.629, 357.5542
1110.726, 280.6592
1111.823, 270.6396
1112.920, 174.7725
1114.017, 275.0400
1115.113, 262.1489
1116.210, 358.3760
1117.306, 269.6294
1118.402, 327.6826
1119.498, 475.8452
1120.593, 415.6738
1121.689, 369.1660
1122.784, 464.9766
1123.879, 426.1567
1124.974, 345.1831
1126.069, 294.7988
1127.164, 344.7798
1128.259, 329.2915
1129.353, 296.3809
1130.447, 294.4868
1131.541, 337.6152
1132.635, 275.7261
1133.729, 296.4468
1134.822, 391.4521
1135.916, 361.7812
1137.009, 324.8345
1138.102, 273.5732
1139.195, 289.4912
1140.288, 208.1167
1141.380, 304.8604
1142.473, 331.4639
1143.565, 186.0464
1144.657, 238.9150
1145.749, 198.8618
1146.841, 195.6470
1147.932, 118.3555
1149.024, 154.1123
1150.115, 220.6953
1151.206, 191.5938
1152.297, 270.3599
1153.388, 197.2393
1154.479, 91.99658
1155.569, 31.24268
1156.659, 38.80225
1157.750, 6.832031
1158.839, 18.27930
1159.929, 94.52930
1161.019, 36.18262
1162.108, 79.95996
1163.198, 119.5586
1164.287, 70.30859
1165.376, 34.02490
1166.465, 10.25000
1167.553, 104.6387
1168.642, 50.77148
1169.730, 84.83984
1170.818, 40.01953
1171.906, 30.40820
1172.994, 66.46387
1174.082, 52.69189
1175.170, 116.2490
1176.257, 16.68945
1177.344, 62.05469
1178.431, 84.00049
1179.518, 45.33740
1180.605, 72.84717
1181.691, 78.95508
1182.778, 1.191406
1183.864, 67.00098
1184.950, 47.04004
1186.036, 18.42285
1187.122, 63.36719
1188.207, 46.83154
1189.292, 95.25391
1190.378, 12.31738
1191.463, 84.93262
1192.548, 82.46973
1193.632, 31.03369
1194.717, 61.61475
1195.801, 4.757324
1196.886, 33.86719
1197.970, 38.62598
1199.054, 77.11523
1200.137, 80.47266
1201.221, 31.47119
1202.305, 12.90527
1203.388, 88.14697
1204.471, 29.37549
1205.554, 96.86328
1206.637, 7.196289
1207.719, 45.27197
1208.802, 61.46973
1209.884, 108.5376
1210.966, 96.74561
1212.048, 9.059082
1213.130, 38.09570
1214.212, 122.7109
1215.293, 68.63232
1216.374, 32.36963
1217.456, 28.02930
1218.536, 13.41016
1219.617, 18.97949
1220.698, 52.30518
1221.778, 45.72998
1222.859, 121.4131
1223.939, 13.11133
1225.019, 87.48438
1226.099, 119.9307
1227.178, 25.92578
1228.258, 11.19141
1229.337, 60.89355
1230.417, 94.17041
1231.496, 66.98682
1232.574, 137.7388
1233.653, 108.8633
1234.732, 134.1372
1235.810, 146.0864
1236.888, 140.4321
1237.966, 154.2363
1239.044, 156.7896
1240.122, 161.6006
1241.199, 190.4385
1242.277, 153.2549
1243.354, 119.7744
1244.431, 156.5527
1245.508, 127.1074
1246.585, 119.7666
1247.661, 166.3750
1248.738, 139.1885
1249.814, 221.9219
1250.890, 63.60742
1251.966, 229.2666
1253.042, 129.7510
1254.117, 165.1943
1255.193, 47.54590
1256.268, 172.7559
1257.343, 58.85156
1258.418, 143.4854
1259.493, 138.2939
1260.567, 131.9668
1261.642, 134.5742
1262.716, 225.7070
1263.790, 155.7412
1264.864, 77.77148
1265.938, 139.4805
1267.011, 212.5322
1268.085, 167.5654
1269.158, 314.5264
1270.231, 204.4385
1271.304, 235.2744
1272.377, 257.7705
1273.450, 166.4092
1274.522, 144.8623
1275.594, 180.1514
1276.666, 195.4395
1277.738, 180.7217
1278.810, 219.2588
1279.882, 140.7666
1280.953, 169.1250
1282.025, 31.82715
1283.096, 164.9922
1284.167, 67.98730
1285.238, 205.6309
1286.308, 292.7988
1287.379, 198.4688
1288.449, 130.3438
1289.519, 164.5498
1290.589, 130.5791
1291.659, 172.1670
1292.729, 131.9434
1293.798, 147.7266
1294.868, 111.6016
1295.937, 145.0977
1297.006, 168.9355
1298.075, 169.3467
1299.143, 63.77832
1300.212, 146.0381
1301.280, 230.6396
1302.348, 65.83301
1303.416, 117.6328
1304.484, 211.9980
1305.552, 131.6357
1306.620, 169.1094
1307.687, 269.0010
1308.754, 101.9590
1309.821, 129.6084
1310.888, 100.0117
1311.955, 195.0244
1313.021, 138.6064
1314.088, 242.4873
1315.154, 120.4209
1316.220, 256.5283
1317.286, 205.7227
1318.352, 93.72070
1319.417, 180.5176
1320.483, 192.6621
1321.548, 195.6494
1322.613, 145.4014
1323.678, 143.1846
1324.743, 134.0303
1325.807, 94.94922
1326.872, 153.8574
1327.936, 178.6748
1329.000, 243.3037
1330.064, 151.0303
1331.128, 175.1309
1332.191, 170.5762
1333.255, 101.0732
1334.318, 224.6387
1335.381, 216.7578
1336.444, 241.3711
1337.507, 155.5703
1338.569, 231.9980
1339.632, 182.2207
1340.694, 116.8154
1341.756, 216.7578
1342.818, 136.7773
1343.880, 172.4873
1344.941, 182.1621
1346.003, 314.5576
1347.064, 168.6289
1348.125, 237.2139
1349.186, 194.6328
1350.247, 124.2705
1351.308, 167.1025
1352.368, 124.5596
1353.428, 152.8926
1354.489, 216.5449
1355.549, 204.9434
1356.608, 244.3877
1357.668, 181.2539
1358.727, 231.6064
1359.787, 256.6992
1360.846, 140.4111
1361.905, 95.86621
1362.964, 152.1035
1364.022, 132.4951
1365.081, 123.2236
1366.139, 233.3164
1367.197, 162.7139
1368.255, 148.5215
1369.313, 144.7266
1370.371, 206.7344
1371.428, 135.4756
1372.486, 179.6230
1373.543, 145.2412
1374.600, 148.3457
1375.657, 90.02148
1376.713, 99.13770
1377.770, 101.7295
1378.826, 97.45020
1379.882, 130.4199
1380.938, 129.5166
1381.994, 141.8301
1383.050, 164.3809
1384.106, 181.4961
1385.161, 64.08105
1386.216, 40.97266
1387.271, 48.86426
1388.326, 51.48047
1389.381, 119.1406
1390.435, 132.1523
1391.490, 122.7744
1392.544, 188.0713
1393.598, 95.55078
1394.652, 89.39941
1395.705, 95.88965
1396.759, 97.56055
1397.812, 105.0352
1398.866, 175.7578
1399.919, 131.2871
1400.972, 164.5098
1402.024, 192.7197
1403.077, 181.8145
1404.129, 171.8242
1405.181, 99.91602
1406.233, 96.00684
1407.285, 119.7129
1408.337, 56.47461
1409.389, 140.0430
1410.440, 167.7617
1411.491, 25.03711
1412.542, 65.69727
1413.593, 75.72070
1414.644, 134.2559
1415.695, 30.43652
1416.745, 114.7031
1417.795, 5.046875
1418.845, 126.1309
1419.895, 79.08887
1420.945, 63.05859
1421.995, 26.86719
1423.044, 139.9590
1424.093, 85.92285
1425.142, 1.188477
1426.191, 86.56055
1427.240, 64.70117
1428.289, 101.2979
1429.337, 83.43457
1430.385, 21.88379
1431.433, 16.72754
1432.481, 34.82812
1433.529, 37.73047
1434.577, 66.57812
1435.624, 102.1738
1436.672, 34.75391
1437.719, 169.2188
1438.766, 208.5957
1439.812, 24.60840
1440.859, 189.0146
1441.905, 24.84668
1442.952, 14.13184
1443.998, 17.94043
1445.044, 158.6572
1446.090, 134.2588
1447.135, 154.8008
1448.181, 63.19238
1449.226, 153.1611
1450.271, 136.1748
1451.316, 76.99219
1452.361, 5.468750
1453.405, 115.5176
1454.450, 153.2637
1455.494, 154.6943
1456.538, 177.9453
1457.582, 173.2705
1458.626, 91.21289
1459.670, 130.9365
1460.713, 102.1504
1461.757, 113.2363
1462.800, 151.8828
1463.843, 133.3350
1464.886, 102.0947
1465.928, 137.2354
1466.971, 36.73145
1468.013, 34.08008
1469.055, 276.1865
1470.097, 166.2588
1471.139, 248.9707
1472.181, 337.0908
1473.222, 98.39941
1474.263, 218.5586
1475.305, 143.1973
1476.346, 24.56934
1477.386, 23.01465
1478.427, 42.61523
1479.468, 168.6172
1480.508, 162.7998
1481.548, 192.8848
1482.588, 227.1650
1483.628, 167.7363
1484.668, 191.5283
1485.707, 103.3057
1486.747, 124.5420
1487.786, 190.8203
1488.825, 155.5400
1489.864, 76.59180
1490.902, 236.2510
1491.941, 130.5596
1492.979, 60.43164
1494.017, 185.2812
1495.055, 182.9512
1496.093, 196.5518
1497.131, 124.7949
1498.168, 239.5479
1499.206, 84.88379
1500.243, 268.5645
1501.280, 223.1230
1502.317, 145.5557
1503.354, 193.4727
1504.390, 105.8057
1505.426, 204.4570
1506.463, 144.9902
1507.499, 198.5410
1508.535, 205.6328
1509.570, 145.1445
1510.606, 158.7549
1511.641, 261.5840
1512.676, 190.3896
1513.711, 246.7559
1514.746, 155.1113
1515.781, 201.7109
1516.816, 235.9980
1517.850, 217.0381
1518.884, 128.5625
1519.918, 174.4717
1520.952, 217.4609
1521.986, 114.1670
1523.019, 176.1992
1524.053, 213.8818
1525.086, 127.7354
1526.119, 88.45117
1527.152, 162.6504
1528.185, 241.5566
1529.217, 306.7588
1530.250, 217.1934
1531.282, 337.7891
1532.314, 162.1875
1533.346, 165.8428
1534.377, 100.0156
1535.409, 69.46191
1536.440, 142.1221
1537.472, 60.63086
1538.503, 112.4600
1539.534, 137.0322
1540.564, 136.5869
1541.595, 69.28320
1542.625, 165.1152
1543.656, 142.9248
1544.686, 184.5127
1545.716, 100.0215
1546.745, 50.83301
1547.775, 250.8281
1548.804, 9.740234
1549.834, 4.599609
1550.863, 215.8975
1551.892, 162.3389
1552.920, 125.8105
1553.949, 268.7939
1554.977, 248.0059
1556.006, 260.8613
1557.034, 157.5576
1558.062, 186.7539
1559.089, 91.28027
1560.117, 4.630859
1561.144, 133.6797
1562.172, 50.02344
1563.199, 231.5381
1564.226, 195.4307
1565.252, 181.5811
1566.279, 121.3154
1567.305, 166.0068
1568.332, 1.000000
1569.358, 152.4248
1570.384, 116.9258
1571.409, 4.894531
1572.435, 0.0000000E+00
##END=



