##NAMES=Diopside
##RRUFFID=R060171
##IDEAL CHEMISTRY=CaMgSi_2_O_6_
##LOCALITY=Jeffrey mine, Asbestos, Quebec, Canada
##OWNER=RRUFF
##SOURCE=Guy Ouellet
##DESCRIPTION=Yellowish-brown tabular crystals associated with vesuvianite, R060170
##STATUS=The identification of this mineral has been confirmed by X-ray diffraction and chemical analysis
##URL=rruff.info/R060171
##MEASURED CHEMISTRY=Ca_1.00_(Mg_0.98_Mn_0.02_)_Î£=1_Si_2.00_O_6_
##PIN_ID=L01396
##ORIENTATION=Laser parallel to -a* (-1 0 0). Fiducial mark perpendicular to laser is parallel to b [0 1 0]
129.2090, 0.0000000E+00
130.4390, 267.1934
131.6680, 86.63086
132.8980, 11.77930
134.1270, 222.9238
135.3560, 196.3535
136.5850, 281.9648
137.8140, 353.7148
139.0430, 396.5137
140.2710, 458.8320
141.5000, 459.2188
142.7280, 438.6816
143.9560, 303.9531
145.1840, 185.8145
146.4120, 148.0938
147.6390, 241.6445
148.8670, 81.34180
150.0940, 272.0703
151.3210, 173.7363
152.5490, 353.2578
153.7750, 351.5586
155.0020, 114.5801
156.2290, 214.2676
157.4550, 341.5742
158.6810, 227.4570
159.9080, 361.8867
161.1340, 341.8262
162.3590, 378.2480
163.5850, 352.9746
164.8110, 489.4355
166.0360, 305.1523
167.2610, 255.2461
168.4860, 371.6855
169.7110, 325.4434
170.9360, 309.4980
172.1610, 330.8359
173.3850, 359.4473
174.6100, 390.3535
175.8340, 442.6777
177.0580, 521.7793
178.2820, 603.3613
179.5050, 751.1660
180.7290, 932.1855
181.9520, 788.4180
183.1760, 949.8535
184.3990, 535.4902
185.6220, 557.3242
186.8450, 310.3555
188.0670, 242.2891
189.2900, 439.9824
190.5120, 237.5645
191.7340, 320.3203
192.9560, 461.2422
194.1780, 242.3281
195.4000, 382.5742
196.6220, 401.9746
197.8430, 200.5234
199.0640, 166.2207
200.2860, 386.0605
201.5070, 543.0391
202.7270, 290.1152
203.9480, 413.1680
205.1690, 233.2109
206.3890, 125.3047
207.6090, 410.4375
208.8290, 256.6113
210.0490, 232.8281
211.2690, 171.1016
212.4890, 246.4824
213.7080, 296.9355
214.9280, 240.4961
216.1470, 340.1328
217.3660, 416.8379
218.5850, 368.6113
219.8030, 286.4590
221.0220, 302.3750
222.2400, 293.3672
223.4590, 397.4336
224.6770, 365.6523
225.8950, 445.9570
227.1120, 533.3535
228.3300, 709.8203
229.5480, 579.3652
230.7650, 813.9824
231.9820, 657.7090
233.1990, 915.5352
234.4160, 921.4355
235.6330, 661.4082
236.8490, 578.4492
238.0660, 476.6406
239.2820, 403.0078
240.4980, 425.4492
241.7140, 459.0098
242.9300, 89.63086
244.1460, 268.3223
245.3610, 198.0840
246.5770, 565.9082
247.7920, 182.7930
249.0070, 290.7383
250.2220, 676.7461
251.4370, 557.8184
252.6510, 492.9492
253.8660, 386.1387
255.0800, 569.3848
256.2940, 576.6914
257.5080, 429.0527
258.7220, 297.4688
259.9360, 381.9434
261.1490, 212.4727
262.3630, 171.0547
263.5760, 320.6895
264.7890, 333.3789
266.0020, 125.1230
267.2150, 209.9180
268.4270, 128.7656
269.6400, 126.6602
270.8520, 206.6074
272.0640, 115.6133
273.2760, 103.6738
274.4880, 26.78906
275.7000, 358.4922
276.9120, 456.4531
278.1230, 309.5742
279.3340, 396.4238
280.5450, 187.1133
281.7560, 222.0801
282.9670, 285.2422
284.1780, 233.9746
285.3880, 195.5039
286.5980, 129.1934
287.8090, 41.02930
289.0190, 187.0059
290.2290, 184.1113
291.4380, 245.3379
292.6480, 197.6816
293.8570, 197.1172
295.0670, 186.6758
296.2760, 174.1328
297.4850, 429.8867
298.6930, 362.4746
299.9020, 510.6875
301.1110, 408.0117
302.3190, 429.1230
303.5270, 623.3164
304.7350, 728.5859
305.9430, 747.9297
307.1510, 741.3613
308.3580, 989.8633
309.5660, 1207.432
310.7730, 1377.066
311.9800, 1815.779
313.1870, 2361.559
314.3940, 2520.410
315.6010, 3128.320
316.8070, 3569.293
318.0130, 4221.963
319.2200, 5122.836
320.4260, 6117.980
321.6310, 6998.180
322.8370, 7362.686
324.0430, 6887.012
325.2480, 5926.389
326.4540, 4592.816
327.6590, 4081.291
328.8640, 2775.811
330.0680, 2186.383
331.2730, 1522.061
332.4780, 1167.721
333.6820, 1151.600
334.8860, 717.3574
336.0900, 644.1582
337.2940, 563.0000
338.4980, 422.8848
339.7010, 439.8066
340.9050, 337.8418
342.1080, 345.7734
343.3110, 253.8145
344.5140, 275.8926
345.7170, 326.2109
346.9200, 221.7402
348.1220, 386.3789
349.3240, 466.6016
350.5270, 287.8594
351.7290, 424.9160
352.9310, 411.2441
354.1320, 414.6055
355.3340, 407.0039
356.5350, 608.4375
357.7370, 678.2715
358.9380, 553.7715
360.1390, 605.3047
361.3400, 537.8711
362.5400, 625.4688
363.7410, 477.0996
364.9410, 493.7637
366.1410, 519.4590
367.3410, 611.1875
368.5410, 592.9473
369.7410, 626.4277
370.9400, 678.2773
372.1400, 668.1289
373.3390, 872.0098
374.5380, 901.9199
375.7370, 962.8594
376.9360, 1151.828
378.1350, 1481.826
379.3330, 1742.850
380.5310, 2223.900
381.7300, 2951.980
382.9280, 3304.086
384.1260, 4124.219
385.3230, 5041.377
386.5210, 6212.561
387.7180, 7079.768
388.9160, 7648.000
390.1130, 7070.258
391.3100, 5984.539
392.5060, 4546.842
393.7030, 3439.172
394.9000, 2526.523
396.0960, 1758.900
397.2920, 1328.297
398.4880, 1141.719
399.6840, 765.1602
400.8800, 786.6250
402.0750, 378.1133
403.2710, 400.6211
404.4660, 453.1504
405.6610, 422.7012
406.8560, 417.2734
408.0510, 415.8633
409.2450, 440.4766
410.4400, 116.1113
411.6340, 73.76367
412.8280, 77.33984
414.0220, 266.0332
415.2160, 238.7441
416.4100, 205.4746
417.6030, 99.22461
418.7970, 56.99219
419.9900, 218.7988
421.1830, 15.64648
422.3760, 43.52734
423.5690, 107.4453
424.7610, 71.20312
425.9540, 87.76367
427.1460, 20.14062
428.3380, 48.88477
429.5300, 139.9414
430.7220, 278.0273
431.9140, 81.13867
433.1050, 198.2812
434.2970, 136.4492
435.4880, 233.6465
436.6790, 89.13281
437.8700, 173.0879
439.0610, 31.66602
440.2510, 142.5977
441.4420, 81.11719
442.6320, 12.82422
443.8220, 13.51953
445.0120, 88.75977
446.2020, 69.10742
447.3910, 73.64453
448.5810, 111.0391
449.7700, 5.369141
450.9600, 133.8164
452.1490, 252.2812
453.3370, 178.3281
454.5260, 101.2969
455.7150, 142.5020
456.9030, 86.85352
458.0910, 80.10547
459.2800, 275.7109
460.4670, 107.6660
461.6550, 46.06641
462.8430, 266.5625
464.0300, 287.1797
465.2180, 29.21680
466.4050, 163.4199
467.5920, 25.07422
468.7790, 206.7852
469.9650, 176.5059
471.1520, 58.24219
472.3380, 157.0059
473.5250, 4.792969
474.7110, 229.5957
475.8970, 106.5879
477.0820, 89.78125
478.2680, 130.5801
479.4540, 185.3906
480.6390, 167.5449
481.8240, 149.3848
483.0090, 140.2363
484.1940, 255.0996
485.3780, 314.9941
486.5630, 40.90234
487.7470, 262.1816
488.9320, 21.37109
490.1160, 22.55664
491.3000, 234.2559
492.4830, 355.0801
493.6670, 88.08398
494.8500, 165.7207
496.0340, 97.53516
497.2170, 27.35742
498.4000, 27.19141
499.5820, 16.96680
500.7650, 130.8750
501.9480, 98.72266
503.1300, 125.5312
504.3120, 196.4512
505.4940, 184.3613
506.6760, 178.3027
507.8580, 294.2715
509.0390, 196.2520
510.2210, 51.24414
511.4020, 2.244141
512.5830, 23.94336
513.7640, 35.01172
514.9450, 173.2754
516.1250, 212.3027
517.3060, 336.3379
518.4860, 479.3789
519.6660, 350.4277
520.8460, 437.4824
522.0260, 523.5547
523.2060, 527.6309
524.3850, 687.2227
525.5650, 861.8008
526.7440, 964.9141
527.9230, 827.0430
529.1020, 945.1758
530.2810, 828.3145
531.4590, 736.4609
532.6380, 679.6074
533.8160, 552.9082
534.9940, 313.9180
536.1720, 355.0820
537.3500, 167.2500
538.5270, 108.4238
539.7050, 244.6055
540.8820, 358.7910
542.0590, 209.9824
543.2360, 151.1777
544.4130, 197.3770
545.5900, 199.5762
546.7660, 260.7773
547.9430, 245.4102
549.1190, 205.1816
550.2950, 221.3848
551.4710, 223.5879
552.6470, 205.7930
553.8220, 6.003906
554.9980, 119.3691
556.1730, 284.6621
557.3480, 97.85156
558.5230, 432.0371
559.6980, 113.2266
560.8730, 132.4141
562.0470, 151.6016
563.2220, 197.7910
564.3960, 254.9746
565.5700, 116.8418
566.7440, 138.2617
567.9170, 14.36914
569.0910, 63.09375
570.2640, 174.1875
571.4380, 247.2793
572.6110, 112.3672
573.7840, 134.4512
574.9570, 176.7012
576.1290, 193.7773
577.3020, 172.2773
578.4740, 180.2988
579.6460, 86.25000
580.8180, 154.5098
581.9900, 80.56055
583.1620, 60.86328
584.3330, 141.6191
585.5040, 20.65430
586.6760, 210.3477
587.8470, 49.01758
589.0180, 92.39648
590.1880, 36.32617
591.3590, 202.7344
592.5290, 160.6699
593.7000, 68.59961
594.8700, 19.26172
596.0400, 7.857422
597.2090, 5.691406
598.3790, 34.58398
599.5490, 94.40430
600.7180, 76.21484
601.8870, 87.37500
603.0560, 1.621094
604.2250, 279.6523
605.3940, 67.59375
606.5620, 228.8691
607.7300, 136.0879
608.8990, 222.7891
610.0670, 182.6699
611.2350, 159.3301
612.4020, 131.9453
613.5700, 139.0879
614.7370, 233.8945
615.9050, 246.5117
617.0720, 8.798828
618.2390, 348.1934
619.4060, 95.75781
620.5720, 49.88477
621.7390, 293.6719
622.9050, 330.7520
624.0710, 203.2676
625.2370, 261.4395
626.4030, 180.1582
627.5690, 283.0547
628.7340, 317.7949
629.9000, 230.1934
631.0650, 400.2715
632.2300, 337.1426
633.3950, 190.5527
634.5600, 266.8457
635.7240, 167.2305
636.8890, 181.5996
638.0530, 272.4316
639.2170, 337.9961
640.3810, 251.3750
641.5450, 391.8809
642.7080, 415.7441
643.8720, 500.7871
645.0350, 409.4629
646.1980, 573.7422
647.3610, 465.7188
648.5240, 379.2812
649.6870, 661.0547
650.8490, 674.2617
652.0120, 798.0938
653.1740, 1237.479
654.3360, 1267.764
655.4980, 1488.361
656.6600, 1664.482
657.8210, 1996.947
658.9830, 2260.066
660.1440, 2901.162
661.3050, 3074.141
662.4660, 3693.176
663.6270, 4106.779
664.7870, 4232.473
665.9480, 4426.455
667.1080, 4082.678
668.2680, 3519.814
669.4280, 2935.717
670.5880, 2300.195
671.7480, 2044.100
672.9070, 1743.197
674.0670, 1317.600
675.2260, 1164.984
676.3850, 783.9941
677.5440, 666.0410
678.7030, 627.8672
679.8610, 703.6582
681.0200, 401.4512
682.1780, 403.0000
683.3360, 402.8652
684.4940, 506.0625
685.6520, 294.7148
686.8090, 489.3398
687.9670, 236.4941
689.1240, 318.0762
690.2810, 479.6270
691.4380, 479.6445
692.5950, 212.3574
693.7520, 102.8027
694.9080, 123.5801
696.0650, 307.4883
697.2210, 169.8926
698.3770, 172.9727
699.5330, 291.7188
700.6880, 357.0898
701.8440, 279.2402
702.9990, 365.7715
704.1550, 194.8320
705.3100, 376.3574
706.4650, 315.6035
707.6190, 405.0410
708.7740, 240.5840
709.9290, 357.5977
711.0830, 226.7285
712.2370, 248.8301
713.3910, 130.2402
714.5450, 281.2754
715.6980, 292.7070
716.8520, 116.2500
718.0050, 211.6035
719.1580, 206.5254
720.3110, 242.4180
721.4640, 307.2773
722.6170, 250.1113
723.7700, 375.2891
724.9220, 410.9590
726.0740, 68.70508
727.2260, 97.24414
728.3780, 6.037109
729.5300, 163.0918
730.6810, 193.3359
731.8330, 389.4434
732.9840, 144.9551
734.1350, 46.24414
735.2860, 52.52148
736.4370, 222.0938
737.5880, 237.3477
738.7380, 206.0879
739.8880, 378.7773
741.0390, 205.5957
742.1890, 80.93555
743.3380, 218.1074
744.4880, 256.4785
745.6380, 75.31055
746.7870, 108.8477
747.9360, 153.1543
749.0850, 284.6836
750.2340, 12.32227
751.3830, 20.30859
752.5310, 31.95703
753.6800, 287.0547
754.8280, 152.7070
755.9760, 112.7891
757.1240, 337.0020
758.2720, 79.84570
759.4190, 158.6055
760.5670, 87.84766
761.7140, 316.8438
762.8610, 40.40234
764.0080, 168.2793
765.1550, 123.5977
766.3020, 111.5664
767.4480, 29.41406
768.5950, 42.79297
769.7410, 124.9082
770.8870, 412.7188
772.0330, 80.88672
773.1780, 298.9121
774.3240, 301.4453
775.4690, 126.0449
776.6140, 188.1680
777.7590, 142.2363
778.9040, 197.5918
780.0490, 110.0977
781.1940, 75.90625
782.3380, 83.62891
783.4820, 61.65234
784.6260, 41.16211
785.7700, 33.78516
786.9140, 123.2246
788.0580, 59.02930
789.2010, 180.2832
790.3450, 202.7500
791.4880, 2.255859
792.6310, 153.3809
793.7730, 328.1758
794.9160, 179.3340
796.0590, 259.7441
797.2010, 61.59570
798.3430, 11.43164
799.4850, 297.7715
800.6270, 132.6543
801.7690, 109.1289
802.9100, 28.74023
804.0520, 16.86328
805.1930, 234.4766
806.3340, 70.97070
807.4750, 145.7578
808.6160, 296.1465
809.7560, 231.8359
810.8970, 31.04297
812.0370, 156.8086
813.1770, 243.0801
814.3170, 51.26172
815.4570, 67.89453
816.5960, 70.16797
817.7360, 67.61133
818.8750, 94.27539
820.0140, 251.1406
821.1530, 172.7773
822.2920, 391.0078
823.4310, 349.7949
824.5690, 169.5957
825.7070, 379.6914
826.8460, 493.4570
827.9840, 185.8457
829.1220, 256.9434
830.2590, 98.82812
831.3970, 231.3340
832.5340, 194.9980
833.6710, 324.1934
834.8080, 143.1387
835.9450, 238.3906
837.0820, 345.6719
838.2190, 130.7012
839.3550, 272.9824
840.4910, 140.5293
841.6270, 168.3809
842.7630, 362.9844
843.8990, 253.2871
845.0350, 244.3926
846.1700, 125.7012
847.3060, 358.8105
848.4410, 404.7578
849.5760, 250.6953
850.7100, 374.5703
851.8450, 232.3965
852.9800, 199.1660
854.1140, 240.6211
855.2480, 510.4043
856.3820, 350.0176
857.5160, 431.6035
858.6500, 423.1348
859.7830, 252.6387
860.9170, 139.0879
862.0500, 501.5195
863.1830, 385.2285
864.3160, 315.1641
865.4480, 66.13867
866.5810, 186.2520
867.7130, 212.4258
868.8460, 368.5391
869.9780, 265.3828
871.1100, 338.0254
872.2410, 435.1055
873.3730, 203.0312
874.5050, 237.9062
875.6360, 242.7227
876.7670, 209.4844
877.8980, 311.1855
879.0290, 349.3301
880.1590, 301.9316
881.2900, 178.5039
882.4200, 167.4805
883.5500, 97.89844
884.6800, 200.0625
885.8100, 320.3867
886.9400, 23.68359
888.0690, 136.3867
889.1990, 257.2852
890.3280, 116.3672
891.4570, 406.1289
892.5860, 40.67969
893.7140, 74.58203
894.8430, 220.8438
895.9710, 176.4062
897.1000, 225.5977
898.2280, 275.2812
899.3560, 270.2773
900.4830, 349.6641
901.6110, 30.80078
902.7380, 217.8086
903.8660, 88.91797
904.9930, 135.1914
906.1200, 198.1094
907.2460, 104.4102
908.3730, 133.0742
909.5000, 242.7617
910.6260, 218.8750
911.7520, 90.46484
912.8780, 326.2422
914.0040, 249.7812
915.1290, 204.4844
916.2550, 372.7812
917.3800, 193.7930
918.5050, 280.6641
919.6300, 117.4805
920.7550, 50.55469
921.8800, 35.05078
923.0040, 49.31641
924.1290, 9.472656
925.2530, 79.71484
926.3770, 70.10938
927.5010, 130.2344
928.6250, 200.0078
929.7480, 104.3477
930.8720, 61.16406
931.9950, 16.40234
933.1180, 121.0234
934.2410, 67.03516
935.3640, 116.1211
936.4860, 29.92578
937.6090, 60.79688
938.7310, 3.285156
939.8530, 9.425781
940.9750, 136.6016
942.0970, 68.97656
943.2180, 17.62109
944.3400, 70.44922
945.4610, 16.65625
946.5820, 260.2227
947.7030, 6.621094
948.8240, 138.8594
949.9450, 52.32812
951.0650, 331.9805
952.1860, 102.6016
953.3060, 152.0820
954.4260, 154.1367
955.5460, 26.52734
956.6650, 292.8945
957.7850, 149.4297
958.9040, 10.78125
960.0230, 291.3789
961.1420, 400.9492
962.2610, 212.5352
963.3800, 1.105469
964.4990, 322.0195
965.6170, 12.61328
966.7350, 329.0469
967.8530, 214.7188
968.9710, 264.7930
970.0890, 151.5117
971.2070, 163.8672
972.3240, 213.2695
973.4410, 446.2656
974.5580, 81.83203
975.6750, 225.3633
976.7920, 74.76953
977.9090, 350.2109
979.0250, 462.2188
980.1410, 326.8594
981.2580, 360.2422
982.3740, 438.3281
983.4890, 377.0352
984.6050, 338.7773
985.7200, 461.1602
986.8360, 558.9688
987.9510, 547.3398
989.0660, 363.9805
990.1810, 559.7109
991.2950, 661.8516
992.4100, 619.3242
993.5240, 829.3750
994.6390, 623.8555
995.7530, 977.9883
996.8660, 735.0039
997.9800, 1249.379
999.0940, 1353.613
1000.207, 1529.562
1001.320, 2019.152
1002.433, 2358.676
1003.546, 3166.523
1004.659, 4135.133
1005.772, 5271.906
1006.884, 6825.168
1007.996, 9068.820
1009.108, 11600.79
1010.220, 13684.47
1011.332, 15512.61
1012.444, 16036.23
1013.555, 14581.20
1014.666, 12433.85
1015.777, 9854.180
1016.888, 7519.137
1017.999, 5670.793
1019.110, 3913.613
1020.220, 2923.172
1021.331, 2026.945
1022.441, 1950.020
1023.551, 1549.473
1024.661, 1356.848
1025.770, 1251.125
1026.880, 1105.750
1027.989, 892.6406
1029.098, 770.3750
1030.207, 822.6641
1031.316, 575.4844
1032.425, 548.5156
1033.533, 742.7891
1034.642, 429.0977
1035.750, 624.5742
1036.858, 867.3594
1037.966, 506.1680
1039.073, 574.4492
1040.181, 561.3164
1041.288, 404.4961
1042.396, 299.9062
1043.503, 591.7070
1044.610, 527.1055
1045.716, 513.6797
1046.823, 819.3711
1047.929, 617.9258
1049.036, 420.0391
1050.142, 523.9688
1051.248, 289.0938
1052.353, 378.3789
1053.459, 369.5859
1054.564, 374.4258
1055.670, 305.8984
1056.775, 444.8789
1057.880, 408.7539
1058.985, 326.5625
1060.089, 162.0117
1061.194, 150.3984
1062.298, 117.5430
1063.402, 132.2617
1064.506, 108.0391
1065.610, 221.9727
1066.713, 137.4375
1067.817, 103.4492
1068.920, 233.2695
1070.023, 452.6367
1071.126, 426.9922
1072.229, 441.6406
1073.332, 424.0195
1074.435, 153.0312
1075.537, 225.7539
1076.639, 177.3008
1077.741, 7.488281
1078.843, 134.3516
1079.945, 157.1289
1081.046, 260.8008
1082.148, 44.93750
1083.249, 536.5078
1084.350, 155.3438
1085.451, 165.1328
1086.551, 302.1367
1087.652, 37.73438
1088.752, 249.2383
1089.853, 330.5039
1090.953, 356.1016
1092.053, 147.5781
1093.152, 30.35547
1094.252, 18.91406
1095.351, 53.34375
1096.451, 67.10938
1097.550, 48.88281
1098.649, 142.3125
1099.748, 271.9766
1100.846, 67.35938
1101.945, 13.62500
1103.043, 70.45703
1104.141, 109.1484
1105.239, 45.97656
1106.337, 41.83203
1107.434, 15.07812
1108.532, 12.83594
1109.629, 12.83984
1110.726, 53.35156
1111.823, 84.42188
1112.920, 247.1758
1114.017, 266.0156
1115.113, 101.9102
1116.210, 233.6992
1117.306, 76.73047
1118.402, 162.9219
1119.498, 516.5195
1120.593, 59.06641
1121.689, 36.41797
1122.784, 48.16406
1123.879, 261.1445
1124.974, 49.60156
1126.069, 137.5547
1127.164, 67.35156
1128.259, 64.62891
1129.353, 199.5547
1130.447, 187.4258
1131.541, 188.2383
1132.635, 179.9961
1133.729, 203.4062
1134.822, 241.3594
1135.916, 198.9609
1137.009, 225.5078
1138.102, 97.00781
1139.195, 83.44922
1140.288, 262.8320
1141.380, 334.1680
1142.473, 158.4531
1143.565, 125.6914
1144.657, 62.87500
1145.749, 323.9961
1146.841, 248.0703
1147.932, 401.1016
1149.024, 353.0898
1150.115, 114.0312
1151.206, 39.92578
1152.297, 46.76172
1153.388, 180.5508
1154.479, 195.2969
1155.569, 314.9922
1156.659, 349.6406
1157.750, 296.2422
1158.839, 377.7227
1159.929, 84.66016
1161.019, 294.7617
1162.108, 189.1445
1163.198, 154.5234
1164.287, 0.3242190
1165.376, 149.8086
1166.465, 164.9023
1167.553, 106.9570
1168.642, 187.9609
1169.730, 209.0742
1170.818, 254.7266
1171.906, 67.49219
1172.994, 329.1289
1174.082, 386.2930
1175.170, 39.06641
1176.257, 116.5000
1177.344, 55.97266
1178.431, 255.4766
1179.518, 53.88672
1180.605, 235.2227
1181.691, 370.5430
1182.778, 47.26172
1183.864, 133.3125
1184.950, 25.71094
1186.036, 33.22266
1187.122, 34.45312
1188.207, 23.05859
1189.292, 100.9219
1190.378, 148.5234
1191.463, 235.4062
1192.548, 92.21484
1193.632, 293.8125
1194.717, 136.4727
1195.801, 213.9375
1196.886, 94.93750
1197.970, 115.5508
1199.054, 353.9102
1200.137, 143.8711
1201.221, 241.5547
1202.305, 256.2266
1203.388, 214.8789
1204.471, 188.5078
1205.554, 75.04297
1206.637, 180.8555
1207.719, 166.4531
1208.802, 86.60547
1209.884, 263.9766
1210.966, 56.42188
1212.048, 334.2734
1213.130, 289.7500
1214.212, 166.1406
1215.293, 402.4844
1216.374, 149.8516
1217.456, 103.7695
1218.536, 161.9688
1219.617, 246.6445
1220.698, 415.6367
1221.778, 349.7109
1222.859, 442.9062
1223.939, 516.3125
1225.019, 144.1562
1226.099, 426.3672
1227.178, 444.0195
1228.258, 109.5586
1229.337, 282.4531
1230.417, 61.98438
1231.496, 349.4961
1232.574, 373.6055
1233.653, 371.2500
1234.732, 282.1211
1235.810, 15.51562
1236.888, 103.8359
1237.966, 140.5508
1239.044, 191.4102
1240.122, 452.8047
1241.199, 357.2422
1242.277, 181.9219
1243.354, 155.2734
1244.431, 351.6914
1245.508, 259.4102
1246.585, 208.6680
1247.661, 140.5508
1248.738, 113.4883
1249.814, 121.6484
1250.890, 144.7070
1251.966, 142.8359
1253.042, 246.5508
1254.117, 204.8594
1255.193, 244.5039
1256.268, 133.2734
1257.343, 298.8398
1258.418, 305.2812
1259.493, 437.2969
1260.567, 543.2578
1261.642, 503.2109
1262.716, 430.1289
1263.790, 364.1406
1264.864, 363.1328
1265.938, 318.3086
1267.011, 385.3867
1268.085, 318.9375
1269.158, 373.4336
1270.231, 449.6758
1271.304, 379.1445
1272.377, 212.9453
1273.450, 202.6133
1274.522, 265.0156
1275.594, 188.2031
1276.666, 330.6289
1277.738, 273.0547
1278.810, 215.4688
1279.882, 462.0820
1280.953, 588.4141
1282.025, 271.7578
1283.096, 223.6562
1284.167, 769.6211
1285.238, 442.9961
1286.308, 530.3750
1287.379, 257.7461
1288.449, 149.1172
1289.519, 255.2891
1290.589, 639.6523
1291.659, 318.6172
1292.729, 427.5078
1293.798, 296.1016
1294.868, 520.8438
1295.937, 241.7344
1297.006, 494.3984
1298.075, 547.3984
1299.143, 401.0938
1300.212, 412.3984
1301.280, 380.9336
1302.348, 477.2969
1303.416, 512.6641
1304.484, 417.2734
1305.552, 700.0742
1306.620, 435.7109
1307.687, 728.1016
1308.754, 835.6758
1309.821, 394.0273
1310.888, 211.4336
1311.955, 215.0312
1313.021, 556.0078
1314.088, 572.8906
1315.154, 835.4805
1316.220, 519.2539
1317.286, 761.4375
1318.352, 693.3789
1319.417, 539.5391
1320.483, 825.0352
1321.548, 554.0039
1322.613, 596.5195
1323.678, 690.6289
1324.743, 795.9648
1325.807, 552.0156
1326.872, 782.1641
1327.936, 708.7148
1329.000, 575.0312
1330.064, 634.2656
1331.128, 865.5977
1332.191, 546.1758
1333.255, 596.7617
1334.318, 596.8633
1335.381, 443.5000
1336.444, 616.0195
1337.507, 726.2500
1338.569, 628.8945
1339.632, 574.0430
1340.694, 342.7148
1341.756, 717.3984
1342.818, 738.0703
1343.880, 805.7773
1344.941, 657.4297
1346.003, 859.9102
1347.064, 931.6797
1348.125, 748.4609
1349.186, 626.2539
1350.247, 365.0586
1351.308, 650.8750
1352.368, 750.7305
1353.428, 672.6094
1354.489, 694.5234
1355.549, 760.4609
1356.608, 811.8477
1357.668, 716.8203
1358.727, 496.5547
1359.787, 366.5625
1360.846, 321.5977
1361.905, 359.6484
1362.964, 593.7188
1364.022, 497.4141
1365.081, 489.5117
1366.139, 499.6602
1367.197, 494.9766
1368.255, 388.0391
1369.313, 531.2617
1370.371, 627.5117
1371.428, 592.7734
1372.486, 492.0508
1373.543, 577.3516
1374.600, 626.6602
1375.657, 9.027344
1376.713, 346.4141
1377.770, 330.8164
1378.826, 783.2383
1379.882, 551.6875
1380.938, 248.1758
1381.994, 534.6875
1383.050, 318.2422
1384.106, 530.8203
1385.161, 479.4375
1386.216, 64.08984
1387.271, 360.7461
1388.326, 429.4102
1389.381, 388.0938
1390.435, 522.7578
1391.490, 297.4453
1392.544, 92.13672
1393.598, 106.8438
1394.652, 239.5703
1395.705, 272.3242
1396.759, 303.0820
1397.812, 326.8984
1398.866, 252.7148
1399.919, 349.5547
1400.972, 136.4219
1402.024, 463.3125
1403.077, 37.22656
1404.129, 275.1602
1405.181, 279.1211
1406.233, 87.09766
1407.285, 2.894531
1408.337, 275.1367
1409.389, 187.1953
1410.440, 248.2852
1411.491, 352.3945
1412.542, 54.53516
1413.593, 169.6953
1414.644, 132.8789
1415.695, 183.0898
1416.745, 273.3555
1417.795, 225.6406
1418.845, 155.9609
1419.895, 291.3555
1420.945, 54.21484
1421.995, 176.2461
1423.044, 278.7422
1424.093, 139.2656
1425.142, 363.8281
1426.191, 410.2656
1427.240, 509.9531
1428.289, 479.0352
1429.337, 505.4414
1430.385, 501.8438
1431.433, 462.5742
1432.481, 428.4766
1433.529, 379.4336
1434.577, 284.4375
1435.624, 314.4844
1436.672, 307.7695
1437.719, 511.9609
1438.766, 375.1211
1439.812, 350.2031
1440.859, 372.3203
1441.905, 15.03906
1442.952, 194.5859
1443.998, 350.8555
1445.044, 227.0547
1446.090, 547.2109
1447.135, 283.5312
1448.181, 304.4844
1449.226, 50.92578
1450.271, 79.53125
1451.316, 518.8906
1452.361, 134.3477
1453.405, 442.7930
1454.450, 156.2734
1455.494, 141.2266
1456.538, 434.3086
1457.582, 225.8867
1458.626, 84.50391
1459.670, 410.1445
1460.713, 7.171875
1461.757, 265.5469
1462.800, 285.3008
1463.843, 398.0938
1464.886, 328.9219
1465.928, 471.8125
1466.971, 45.76953
1468.013, 235.7617
1469.055, 240.7969
1470.097, 403.8672
1471.139, 258.9844
1472.181, 256.1289
1473.222, 59.31641
1474.263, 211.5391
1475.305, 545.8008
1476.346, 207.1016
1477.386, 234.4414
1478.427, 79.82031
1479.468, 429.2344
1480.508, 152.6875
1481.548, 450.1758
1482.588, 397.7031
1483.628, 67.26953
1484.668, 183.8789
1485.707, 342.5195
1486.747, 499.2070
1487.786, 476.1133
1488.825, 568.6992
1489.864, 391.5078
1490.902, 263.3203
1491.941, 172.2148
1492.979, 489.1445
1494.017, 340.1211
1495.055, 346.1367
1496.093, 157.1914
1497.131, 502.2930
1498.168, 399.9141
1499.206, 342.0703
1500.243, 300.2578
1501.280, 377.4766
1502.317, 403.6953
1503.354, 454.9336
1504.390, 341.2148
1505.426, 633.5156
1506.463, 463.8438
1507.499, 507.8594
1508.535, 227.2617
1509.570, 463.6016
1510.606, 450.9688
1511.641, 432.5430
1512.676, 419.3203
1513.711, 280.7969
1514.746, 546.9648
1515.781, 211.3984
1516.816, 230.4414
1517.850, 377.7539
1518.884, 180.2773
1519.918, 267.8477
1520.952, 231.4805
1521.986, 220.1602
1523.019, 292.8945
1524.053, 382.6836
1525.086, 391.5156
1526.119, 449.4062
1527.152, 180.3438
1528.185, 178.3320
1529.217, 342.3750
1530.250, 405.4648
1531.282, 508.6055
1532.314, 332.7930
1533.346, 324.0234
1534.377, 254.3086
1535.409, 95.63672
1536.440, 140.0547
1537.472, 560.5234
1538.503, 373.0391
1539.534, 252.6016
1540.564, 358.2148
1541.595, 241.8984
1542.625, 167.6758
1543.656, 248.6836
1544.686, 316.1172
1545.716, 382.4805
1546.745, 270.7227
1547.775, 299.7383
1548.804, 281.9141
1549.834, 9.757813
1550.863, 257.7500
1551.892, 401.4414
1552.920, 30.66406
1553.949, 58.45703
1554.977, 477.8203
1556.006, 288.4648
1557.034, 195.4219
1558.062, 356.7422
1559.089, 347.4414
1560.117, 125.5000
1561.144, 208.9492
1562.172, 345.9492
1563.199, 188.5156
1564.226, 306.2969
1565.252, 85.67188
1566.279, 6.792969
1567.305, 3.570313
1568.332, 414.3164
1569.358, 319.1758
1570.384, 13.61328
1571.409, 109.2930
1572.435, 0.0000000E+00
##END=



