##NAMES=Diopside
##RRUFFID=R050666
##IDEAL CHEMISTRY=CaMgSi_2_O_6_
##LOCALITY=Franklin, Sussex County, New Jersey, USA
##OWNER=RRUFF
##SOURCE=University of Arizona Mineral Museum
##DESCRIPTION=Brown cleavage fragment with white hardystonite
##STATUS=The identification of this mineral has been confirmed by X-ray diffraction and chemical analysis
##URL=rruff.info/R050666
##MEASURED CHEMISTRY=Ca(Mg_0.66_Mn_0.33_Fe_0.01_)Si_2_O_6_
##PIN_ID=L00536
##ORIENTATION=Laser parallel to c* (0 0 1). Fiducial mark perpendicular to laser is parallel to -a [-1 0 0]
109.5120, 0.0000000E+00
110.7440, 94.32056
111.9760, 0.5983890
113.2080, 24.12695
114.4400, 172.3210
115.6710, 154.5156
116.9030, 208.5369
118.1340, 160.7883
119.3650, 54.44861
120.5960, 26.43921
121.8270, 60.92737
123.0580, 87.71545
124.2880, 85.10437
125.5190, 155.5790
126.7490, 199.1205
127.9790, 291.7759
129.2090, 407.0273
130.4390, 560.1682
131.6680, 631.0244
132.8980, 546.0137
134.1270, 495.9768
135.3560, 456.8849
136.5850, 381.0334
137.8140, 322.4304
139.0430, 248.8358
140.2710, 141.3455
141.5000, 64.95459
142.7280, 41.65845
143.9560, 44.54712
145.1840, 23.66638
146.4120, 8.702271
147.6390, 6.343628
148.8670, 46.46680
150.0940, 78.67639
151.3210, 80.00183
152.5490, 135.3862
153.7750, 150.8254
155.0020, 152.3164
156.2290, 164.8557
157.4550, 148.5063
158.6810, 44.12439
159.9080, 107.7937
161.1340, 92.50391
162.3590, 67.25391
163.5850, 157.0431
164.8110, 177.8716
166.0360, 216.7412
167.2610, 323.6541
168.4860, 430.6094
169.7110, 599.6067
170.9360, 903.6443
172.1610, 1157.721
173.3850, 1252.836
174.6100, 1115.989
175.8340, 725.1769
177.0580, 655.4001
178.2820, 447.6572
179.5050, 395.9475
180.7290, 382.2697
181.9520, 239.6239
183.1760, 291.0304
184.3990, 226.4932
185.6220, 265.9747
186.8450, 248.4862
188.0670, 219.0179
189.2900, 235.5726
190.5120, 246.8473
191.7340, 209.5060
192.9560, 178.0911
194.1780, 197.6425
195.4000, 157.2041
196.6220, 191.7766
197.8430, 140.3636
199.0640, 184.9623
200.2860, 205.5759
201.5070, 232.1650
202.7270, 199.7654
203.9480, 96.37378
205.1690, 82.99561
206.3890, 65.63281
207.6090, 51.28369
208.8290, 70.94751
210.0490, 55.62427
211.2690, 101.3176
212.4890, 124.0281
213.7080, 134.7559
214.9280, 98.50122
216.1470, 76.26465
217.3660, 110.0605
218.5850, 78.88989
219.8030, 106.7388
221.0220, 140.6541
222.2400, 182.6304
223.4590, 249.6523
224.6770, 329.6904
225.8950, 392.7507
227.1120, 539.8306
228.3300, 716.9255
229.5480, 796.0352
230.7650, 853.6709
231.9820, 960.2908
233.1990, 840.4368
234.4160, 640.5947
235.6330, 517.7646
236.8490, 444.9463
238.0660, 357.1396
239.2820, 339.3447
240.4980, 304.5615
241.7140, 281.7891
242.9300, 259.0288
244.1460, 273.2791
245.3610, 252.5408
246.5770, 275.8135
247.7920, 235.0964
249.0070, 229.3901
250.2220, 205.6943
251.4370, 172.0090
252.6510, 184.0361
253.8660, 189.6694
255.0800, 221.0146
256.2940, 243.1377
257.5080, 313.2837
258.7220, 236.1177
259.9360, 213.1782
261.1490, 99.94824
262.3630, 91.48999
263.5760, 54.96191
264.7890, 42.40186
266.0020, 61.33398
267.2150, 58.98413
268.4270, 11.88647
269.6400, 15.11523
270.8520, 1.137939
272.0640, 0.1145020
273.2760, 23.76172
274.4880, 4.240967
275.7000, 10.22827
276.9120, 43.22192
278.1230, 62.41748
279.3340, 77.26855
280.5450, 116.3127
281.7560, 134.3723
282.9670, 175.4458
284.1780, 229.5371
285.3880, 247.9451
286.5980, 368.9880
287.8090, 392.7817
289.0190, 456.1646
290.2290, 558.3257
291.4380, 626.1040
292.6480, 810.4536
293.8570, 866.9651
295.0670, 1067.854
296.2760, 1179.855
297.4850, 1427.885
298.6930, 1640.157
299.9020, 1936.442
301.1110, 2343.740
302.3190, 2697.051
303.5270, 3395.377
304.7350, 4033.403
305.9430, 4758.717
307.1510, 5866.993
308.3580, 6955.190
309.5660, 8196.595
310.7730, 9333.010
311.9800, 10650.45
313.1870, 11484.91
314.3940, 11777.38
315.6010, 11364.88
316.8070, 10636.40
318.0130, 9532.925
319.2200, 8591.469
320.4260, 7482.023
321.6310, 6586.586
322.8370, 5626.159
324.0430, 4959.319
325.2480, 4263.968
326.4540, 3923.596
327.6590, 3441.255
328.8640, 3208.203
330.0680, 2929.701
331.2730, 2660.910
332.4780, 2563.814
333.6820, 2477.307
334.8860, 2353.243
336.0900, 2328.973
337.2940, 2383.660
338.4980, 2404.693
339.7010, 2490.647
340.9050, 2671.756
342.1080, 2830.604
343.3110, 3020.464
344.5140, 3126.176
345.7170, 3352.061
346.9200, 3393.801
348.1220, 3383.580
349.3240, 3312.305
350.5270, 3160.037
351.7290, 2962.775
352.9310, 2832.500
354.1320, 2682.467
355.3340, 2481.008
356.5350, 2398.771
357.7370, 2313.539
358.9380, 2143.313
360.1390, 2211.095
361.3400, 2323.880
362.5400, 2343.673
363.7410, 2543.470
364.9410, 2677.272
366.1410, 2918.080
367.3410, 3342.893
368.5410, 3980.710
369.7410, 4680.532
370.9400, 5531.357
372.1400, 6675.188
373.3390, 8149.022
374.5380, 9991.862
375.7370, 12117.70
376.9360, 14400.55
378.1350, 16953.41
379.3330, 19427.26
380.5310, 20740.12
381.7300, 20609.98
382.9280, 18900.85
384.1260, 16274.72
385.3230, 13484.59
386.5210, 10985.47
387.7180, 8666.351
388.9160, 6815.239
390.1130, 5340.128
391.3100, 4250.022
392.5060, 3401.919
393.7030, 2706.821
394.9000, 2170.725
396.0960, 1773.633
397.2920, 1453.545
398.4880, 1145.459
399.6840, 1058.378
400.8800, 925.2883
402.0750, 765.1992
403.2710, 763.1165
404.4660, 675.0381
405.6610, 554.9622
406.8560, 464.8889
408.0510, 409.8489
409.2450, 379.7522
410.4400, 331.6907
411.6340, 306.6360
412.8280, 268.5413
414.0220, 244.1968
415.2160, 201.0864
416.4100, 169.9944
417.6030, 139.4785
418.7970, 124.1692
419.9900, 101.3225
421.1830, 107.3066
422.3760, 92.29565
423.5690, 85.28955
424.7610, 32.28760
425.9540, 21.29028
427.1460, 15.29736
428.3380, 10.69092
429.5300, 4.321289
430.7220, 1.662109
431.9140, 40.64038
433.1050, 41.62866
434.2970, 22.41919
435.4880, 54.55103
436.6790, 5.466309
437.8700, 1.509766
439.0610, 9.519043
440.2510, 87.55225
441.4420, 82.69873
442.6320, 93.83008
443.8220, 121.0503
445.0120, 153.3467
446.2020, 166.9451
447.3910, 216.3877
448.5810, 269.6028
449.7700, 226.5845
450.9600, 299.2766
452.1490, 269.5710
453.3370, 245.5945
454.5260, 220.8623
455.7150, 181.1714
456.9030, 167.5781
458.0910, 138.6890
459.2800, 131.2334
460.4670, 87.67969
461.6550, 32.83740
462.8430, 105.0059
464.0300, 89.17773
465.2180, 37.28198
466.4050, 43.61279
467.5920, 10.46948
468.7790, 17.55249
469.9650, 12.63672
471.1520, 3.280029
472.3380, 63.20020
473.5250, 8.151855
474.7110, 53.11011
475.8970, 13.09668
477.0820, 37.09204
478.2680, 9.891113
479.4540, 20.87280
480.6390, 3.146484
481.8240, 1.170410
483.0090, 4.198486
484.1940, 1.767822
485.3780, 1.721680
486.5630, 26.69238
487.7470, 1.651611
488.9320, 23.60669
490.1160, 16.56030
491.3000, 86.51196
492.4830, 102.4624
493.6670, 112.4109
494.8500, 134.3574
496.0340, 194.3027
497.2170, 264.2473
498.4000, 214.1899
499.5820, 306.1333
500.7650, 307.0754
501.9480, 384.0154
503.1300, 406.9558
504.3120, 402.8943
505.4940, 394.8315
506.6760, 397.7668
507.8580, 366.7043
509.0390, 353.6438
510.2210, 386.5847
511.4020, 506.5288
512.5830, 498.4709
513.7640, 583.4146
514.9450, 634.3655
516.1250, 855.3162
517.3060, 1008.274
518.4860, 1198.228
519.6660, 1425.192
520.8460, 1634.159
522.0260, 1965.132
523.2060, 2021.109
524.3850, 2025.086
525.5650, 1863.068
526.7440, 1631.059
527.9230, 1393.060
529.1020, 1144.072
530.2810, 923.0957
531.4590, 770.1243
532.6380, 660.1587
533.8160, 549.1895
534.9940, 493.2163
536.1720, 410.2437
537.3500, 380.2668
538.5270, 416.2859
539.7050, 362.3003
540.8820, 432.3159
542.0590, 444.3396
543.2360, 557.3672
544.4130, 644.4004
545.5900, 766.4282
546.7660, 924.4512
547.9430, 1146.483
549.1190, 1286.510
550.2950, 1618.533
551.4710, 1966.563
552.6470, 2186.588
553.8220, 2201.608
554.9980, 2033.622
556.1730, 1760.639
557.3480, 1503.649
558.5230, 1235.654
559.6980, 980.6575
560.8730, 821.6545
562.0470, 640.9258
563.2220, 563.6284
564.3960, 412.6052
565.5700, 375.5757
566.7440, 343.5391
567.9170, 248.4954
569.0910, 284.4448
570.2640, 172.0876
571.4380, 140.0229
572.6110, 178.9099
573.7840, 78.10986
574.9570, 52.23975
576.1290, 84.15820
577.3020, 75.57959
578.4740, 74.53589
579.6460, 70.55957
580.8180, 60.50366
581.9900, 34.37427
583.1620, 39.24634
584.3330, 19.27490
585.5040, 13.15771
586.6760, 5.450928
587.8470, 8.251709
589.0180, 26.71997
590.1880, 0.4245610
591.3590, 11.52075
592.5290, 16.22485
593.7000, 0.3276370
594.8700, 19.82788
596.0400, 20.04980
597.2090, 15.42944
598.3790, 63.73560
599.5490, 6.735352
600.7180, 15.02417
601.8870, 0.3056640
603.0560, 55.39429
604.2250, 55.22510
605.3940, 77.78418
606.5620, 107.4609
607.7300, 98.32764
608.8990, 70.09521
610.0670, 111.9844
611.2350, 91.40283
612.4020, 124.6970
613.5700, 179.8369
614.7370, 96.69800
615.9050, 138.9895
617.0720, 159.5625
618.2390, 204.6973
619.4060, 264.0239
620.5720, 292.4980
621.7390, 250.5461
622.9050, 320.6350
624.0710, 291.6792
625.2370, 294.0371
626.4030, 423.2903
627.5690, 467.6091
628.7340, 473.7522
629.9000, 466.0356
631.0650, 584.3975
632.2300, 627.7412
633.3950, 636.0566
634.5600, 729.4019
635.7240, 814.6636
636.8890, 817.2739
638.0530, 904.5146
639.2170, 1053.414
640.3810, 1203.760
641.5450, 1347.085
642.7080, 1567.858
643.8720, 1794.169
645.0350, 2132.637
646.1980, 2577.954
647.3610, 3091.137
648.5240, 3745.321
649.6870, 4580.316
650.8490, 5638.753
652.0120, 6863.126
653.1740, 8295.173
654.3360, 9836.562
655.4980, 11422.26
656.6600, 13005.54
657.8210, 14301.74
658.9830, 14692.85
660.1440, 14837.08
661.3050, 13729.45
662.4660, 12626.96
663.6270, 10896.92
664.7870, 9189.511
665.9480, 7650.625
667.1080, 6473.880
668.2680, 5405.263
669.4280, 4468.645
670.5880, 3716.117
671.7480, 3074.898
672.9070, 2577.942
674.0670, 2167.901
675.2260, 1870.848
676.3850, 1526.838
677.5440, 1430.729
678.7030, 1230.662
679.8610, 1139.766
681.0200, 1029.527
682.1780, 847.2476
683.3360, 751.3091
684.4940, 701.1365
685.6520, 640.8821
686.8090, 633.9080
687.9670, 602.7000
689.1240, 501.6768
690.2810, 469.2292
691.4380, 406.9399
692.5950, 443.7476
693.7520, 440.3953
694.9080, 373.3843
696.0650, 372.0530
697.2210, 345.6350
698.3770, 398.4844
699.5330, 306.0366
700.6880, 241.5732
701.8440, 263.0950
702.9990, 200.6013
704.1550, 228.0928
705.3100, 227.5693
706.4650, 195.0303
707.6190, 134.4763
708.7740, 132.9072
709.9290, 151.3247
711.0830, 137.7268
712.2370, 142.1145
713.3910, 143.4949
714.5450, 105.8362
715.6980, 92.19434
716.8520, 92.54834
718.0050, 62.88696
719.1580, 91.20923
720.3110, 106.5161
721.4640, 103.6987
722.6170, 63.88452
723.7700, 76.96826
724.9220, 40.96387
726.0740, 35.64331
727.2260, 61.46436
728.3780, 86.50098
729.5300, 69.75879
730.6810, 100.2932
731.8330, 23.21411
732.9840, 20.39038
734.1350, 11.30615
735.2860, 2.836914
736.4370, 48.90088
737.5880, 25.92163
738.7380, 42.49365
739.8880, 60.15088
741.0390, 47.08276
742.1890, 27.99072
743.3380, 74.88086
744.4880, 43.82495
745.6380, 55.75464
746.7870, 42.68188
747.9360, 19.59448
749.0850, 81.49097
750.2340, 41.37476
751.3830, 14.24585
752.5310, 88.11572
753.6800, 48.97583
754.8280, 87.83618
755.9760, 76.68799
757.1240, 109.5378
758.2720, 50.37500
759.4190, 68.19897
760.5670, 131.0125
761.7140, 48.81494
762.8610, 34.60669
764.0080, 55.38550
765.1550, 86.15283
766.3020, 115.9080
767.4480, 77.65234
768.5950, 43.38477
769.7410, 59.10498
770.8870, 62.81299
772.0330, 52.50879
773.1780, 77.19263
774.3240, 12.86475
775.4690, 100.5220
776.6140, 4.167969
777.7590, 36.79590
778.9040, 38.41138
780.0490, 5.014893
781.1940, 35.60107
782.3380, 12.15088
783.4820, 27.73608
784.6260, 3.715332
785.7700, 4.187500
786.9140, 1.680176
788.0580, 9.192383
789.2010, 10.27319
790.3450, 3.921631
791.4880, 25.84180
792.6310, 0.5600590
793.7730, 25.05444
794.9160, 21.30103
796.0590, 39.35474
797.2010, 10.04736
798.3430, 28.76099
799.4850, 15.50562
800.6270, 7.273193
801.7690, 18.05957
802.9100, 42.87012
804.0520, 45.71753
805.1930, 48.36353
806.3340, 48.96973
807.4750, 27.48926
808.6160, 32.47925
809.7560, 6.501709
810.8970, 22.47266
812.0370, 13.56519
813.1770, 6.378662
814.3170, 25.31323
815.4570, 11.23926
816.5960, 18.84277
817.7360, 45.94507
818.8750, 30.08057
820.0140, 36.24121
821.1530, 13.57007
822.2920, 28.37378
823.4310, 53.82983
824.5690, 7.930664
825.7070, 5.316406
826.8460, 48.57324
827.9840, 13.13770
829.1220, 2.158203
830.2590, 18.53760
831.3970, 26.77295
832.5340, 3.897217
833.6710, 80.56079
834.8080, 7.781006
835.9450, 78.86792
837.0820, 33.51123
838.2190, 145.1494
839.3550, 145.7820
840.4910, 214.4092
841.6270, 277.0315
842.7630, 318.6492
843.8990, 455.2617
845.0350, 531.8696
846.1700, 606.4729
847.3060, 656.0718
848.4410, 659.6660
849.5760, 575.2563
850.7100, 638.8423
851.8450, 472.4111
852.9800, 397.9204
854.1140, 460.4282
855.2480, 356.8098
856.3820, 360.3074
857.5160, 280.8674
858.6500, 268.4138
859.7830, 233.7920
860.9170, 239.2241
862.0500, 200.3936
863.1830, 204.4648
864.3160, 209.8445
865.4480, 189.4973
866.5810, 189.7488
867.7130, 191.3091
868.8460, 183.1553
869.9780, 224.9336
871.1100, 227.4131
872.2410, 199.1711
873.3730, 240.5615
874.5050, 273.7532
875.6360, 208.1689
876.7670, 234.6619
877.8980, 149.1096
879.0290, 203.4150
880.1590, 239.9819
881.2900, 246.4204
882.4200, 240.9106
883.5500, 276.1589
884.6800, 266.3140
885.8100, 306.1162
886.9400, 268.5540
888.0690, 237.5930
889.1990, 236.1968
890.3280, 228.2224
891.4570, 214.2793
892.5860, 253.8779
893.7140, 278.4839
894.8430, 312.9795
895.9710, 321.5525
897.1000, 252.1619
898.2280, 358.6602
899.3560, 294.1021
900.4830, 316.6357
901.6110, 337.2698
902.7380, 340.9153
903.8660, 278.5723
904.9930, 298.1104
906.1200, 389.7183
907.2460, 342.3467
908.3730, 414.9404
909.5000, 359.6157
910.6260, 330.9343
911.7520, 330.6135
912.8780, 351.6265
914.0040, 362.1836
915.1290, 349.7637
916.2550, 337.8892
917.3800, 300.4771
918.5050, 263.9058
919.6300, 248.4790
920.7550, 239.1829
921.8800, 224.8787
923.0040, 207.7556
924.1290, 233.1831
925.2530, 241.6726
926.3770, 147.4810
927.5010, 201.9370
928.6250, 171.0850
929.7480, 147.6494
930.8720, 159.2837
931.9950, 153.0090
933.1180, 158.6062
934.2410, 123.0691
935.3640, 175.4072
936.4860, 84.30835
937.6090, 133.5803
938.7310, 162.3396
939.8530, 121.9695
940.9750, 72.48267
942.0970, 67.99146
943.2180, 71.89624
944.3400, 80.03271
945.4610, 105.3723
946.5820, 147.2942
947.7030, 167.2231
948.8240, 218.1091
949.9450, 227.0732
951.0650, 220.0349
952.1860, 250.8025
953.3060, 240.9097
954.4260, 254.0515
955.5460, 272.5659
956.6650, 294.8677
957.7850, 328.9648
958.9040, 348.7761
960.0230, 414.8142
961.1420, 380.6621
962.2610, 306.9275
963.3800, 431.0293
964.4990, 404.0276
965.6170, 514.1799
966.7350, 468.9849
967.8530, 462.1047
968.9710, 503.3049
970.0890, 532.2329
971.2070, 587.4521
972.3240, 612.5945
973.4410, 617.9202
974.5580, 675.1682
975.6750, 688.4268
976.7920, 722.6943
977.9090, 782.9719
979.0250, 943.2588
980.1410, 839.5566
981.2580, 901.8652
982.3740, 1099.184
983.4890, 1093.512
984.6050, 1247.850
985.7200, 1234.198
986.8360, 1351.556
987.9510, 1540.924
989.0660, 1619.302
990.1810, 1839.692
991.2950, 2037.091
992.4100, 2330.501
993.5240, 2716.920
994.6390, 3104.350
995.7530, 3467.791
996.8660, 4057.244
997.9800, 4752.708
999.0940, 5729.185
1000.207, 6928.670
1001.320, 8597.167
1002.433, 10696.67
1003.546, 13474.19
1004.659, 17267.73
1005.772, 22214.27
1006.884, 28534.85
1007.996, 36320.43
1009.108, 44380.01
1010.220, 51909.61
1011.332, 56484.23
1012.444, 56250.84
1013.555, 51644.48
1014.666, 42957.11
1015.777, 33855.77
1016.888, 25996.43
1017.999, 19605.11
1019.110, 14938.80
1020.220, 11450.49
1021.331, 8917.197
1022.441, 7289.917
1023.551, 6193.757
1024.661, 5252.496
1025.770, 4671.245
1026.880, 4357.003
1027.989, 3965.100
1029.098, 3745.879
1030.207, 3598.668
1031.316, 3625.466
1032.425, 3501.275
1033.533, 3635.337
1034.642, 3946.662
1035.750, 3970.798
1036.858, 4145.818
1037.966, 4160.675
1039.073, 4324.541
1040.181, 4193.450
1041.288, 4041.250
1042.396, 3571.373
1043.503, 3198.284
1044.610, 2738.198
1045.716, 2338.122
1046.823, 2018.057
1047.929, 1671.426
1049.036, 1528.379
1050.142, 1355.335
1051.248, 1251.735
1052.353, 1096.766
1053.459, 1035.815
1054.564, 917.8213
1055.670, 910.0974
1056.775, 824.1655
1057.880, 751.9700
1058.985, 762.0708
1060.089, 666.1387
1061.194, 622.4421
1062.298, 544.5391
1063.402, 594.6919
1064.506, 500.2983
1065.610, 588.6187
1066.713, 511.6548
1067.817, 486.2822
1068.920, 470.5874
1070.023, 456.0369
1071.126, 451.5498
1072.229, 390.0383
1073.332, 439.3291
1074.435, 396.6768
1075.537, 450.0847
1076.639, 447.5803
1077.741, 406.9058
1078.843, 444.2366
1079.945, 429.8020
1081.046, 320.6016
1082.148, 464.2000
1083.249, 371.9268
1084.350, 402.9902
1085.451, 402.9138
1086.551, 400.3950
1087.652, 344.8245
1088.752, 337.2419
1089.853, 373.6636
1090.953, 386.0896
1092.053, 213.5337
1093.152, 322.9819
1094.252, 301.4358
1095.351, 385.9062
1096.451, 274.3804
1097.550, 308.8594
1098.649, 303.3442
1099.748, 300.8552
1100.846, 317.3594
1101.945, 334.9089
1103.043, 331.4644
1104.141, 263.0674
1105.239, 263.6267
1106.337, 259.8167
1107.434, 271.7483
1108.532, 281.2668
1109.629, 282.7878
1110.726, 303.3118
1111.823, 341.0566
1112.920, 344.7949
1114.017, 331.3262
1115.113, 382.8774
1116.210, 367.4424
1117.306, 396.9800
1118.402, 542.5249
1119.498, 488.1011
1120.593, 571.6443
1121.689, 549.1895
1122.784, 590.7361
1123.879, 617.2844
1124.974, 515.8342
1126.069, 514.3860
1127.164, 439.9387
1128.259, 350.4924
1129.353, 350.0474
1130.447, 377.6035
1131.541, 279.1606
1132.635, 298.7190
1133.729, 278.3081
1134.822, 270.8679
1135.916, 274.4282
1137.009, 244.5522
1138.102, 159.5505
1139.195, 190.1121
1140.288, 168.6743
1141.380, 129.2361
1142.473, 174.8928
1143.565, 206.4546
1144.657, 152.1182
1145.749, 185.6794
1146.841, 123.2410
1147.932, 139.8018
1149.024, 147.3623
1150.115, 138.9221
1151.206, 70.48145
1152.297, 59.04004
1153.388, 34.59741
1154.479, 4.845215
1155.569, 57.72314
1156.659, 23.27710
1157.750, 13.82983
1158.839, 9.618896
1159.929, 16.92725
1161.019, 65.47168
1162.108, 14.01514
1163.198, 33.56348
1164.287, 5.889648
1165.376, 75.34766
1166.465, 39.84692
1167.553, 37.36890
1168.642, 71.09912
1169.730, 23.56494
1170.818, 2.028564
1171.906, 15.51074
1172.994, 20.06152
1174.082, 10.37329
1175.170, 21.80542
1176.257, 49.23560
1177.344, 71.66333
1178.431, 36.91187
1179.518, 55.48853
1180.605, 29.11206
1181.691, 19.70166
1182.778, 8.659912
1183.864, 12.98169
1184.950, 48.36816
1186.036, 0.7150880
1187.122, 15.05493
1188.207, 6.608643
1189.292, 14.71606
1190.378, 39.03735
1191.463, 28.64575
1192.548, 57.64795
1193.632, 19.93701
1194.717, 15.77759
1195.801, 10.51050
1196.886, 37.25879
1197.970, 46.03662
1199.054, 56.26855
1200.137, 58.05737
1201.221, 42.59692
1202.305, 57.52515
1203.388, 53.76880
1204.471, 19.49536
1205.554, 38.52026
1206.637, 7.568115
1207.719, 49.36719
1208.802, 54.29761
1209.884, 10.22217
1210.966, 10.86084
1212.048, 7.335693
1213.130, 9.082031
1214.212, 1.780762
1215.293, 4.630859
1216.374, 21.46924
1217.456, 37.32227
1218.536, 71.12769
1219.617, 76.94800
1220.698, 47.76245
1221.778, 62.57129
1222.859, 47.37354
1223.939, 58.16968
1225.019, 55.85889
1226.099, 53.74365
1227.178, 49.52124
1228.258, 48.10303
1229.337, 44.76001
1230.417, 43.13159
1231.496, 42.56836
1232.574, 38.31348
1233.653, 28.05151
1234.732, 39.78223
1235.810, 62.50562
1236.888, 30.24121
1237.966, 56.95093
1239.044, 134.6538
1240.122, 74.35010
1241.199, 20.04004
1242.277, 20.72119
1243.354, 89.39331
1244.431, 51.09082
1245.508, 48.74951
1246.585, 70.40332
1247.661, 55.33911
1248.738, 48.68970
1249.814, 60.32227
1250.890, 69.94775
1251.966, 65.56567
1253.042, 81.09424
1254.117, 109.7812
1255.193, 81.37817
1256.268, 132.9680
1257.343, 92.55078
1258.418, 115.1262
1259.493, 83.69458
1260.567, 135.2559
1261.642, 97.90186
1262.716, 54.44873
1263.790, 133.9880
1264.864, 146.5205
1265.938, 173.0454
1267.011, 177.8450
1268.085, 83.07373
1269.158, 124.5771
1270.231, 124.0732
1271.304, 41.56323
1272.377, 79.04468
1273.450, 40.51880
1274.522, 163.9878
1275.594, 177.4497
1276.666, 161.9048
1277.738, 74.35254
1278.810, 152.7927
1279.882, 70.22559
1280.953, 90.65112
1282.025, 143.0696
1283.096, 123.5962
1284.167, 63.88940
1285.238, 90.35156
1286.308, 79.74121
1287.379, 113.1243
1288.449, 127.1799
1289.519, 104.5481
1290.589, 146.9294
1291.659, 124.8569
1292.729, 194.1870
1293.798, 105.2839
1294.868, 78.11938
1295.937, 75.14648
1297.006, 128.9526
1298.075, 166.2700
1299.143, 194.6030
1300.212, 119.8733
1301.280, 117.2556
1302.348, 129.3171
1303.416, 92.59253
1304.484, 124.9734
1305.552, 97.24341
1306.620, 104.5066
1307.687, 100.3376
1308.754, 85.98511
1309.821, 53.23853
1310.888, 179.0493
1311.955, 150.2319
1313.021, 149.5471
1314.088, 205.7710
1315.154, 112.7668
1316.220, 206.9409
1317.286, 125.3862
1318.352, 144.5386
1319.417, 192.7290
1320.483, 117.6948
1321.548, 122.8708
1322.613, 218.9998
1323.678, 167.6763
1324.743, 109.6531
1325.807, 127.9219
1326.872, 146.6111
1327.936, 165.6311
1329.000, 138.5137
1330.064, 143.1562
1331.128, 88.22412
1332.191, 123.3071
1333.255, 100.3499
1334.318, 111.3494
1335.381, 99.27222
1336.444, 106.3777
1337.507, 123.4988
1338.569, 93.36890
1339.632, 138.0730
1340.694, 107.9194
1341.756, 110.6389
1342.818, 71.02368
1343.880, 89.55591
1344.941, 110.5454
1346.003, 162.6970
1347.064, 148.6357
1348.125, 150.8618
1349.186, 138.9314
1350.247, 88.99854
1351.308, 87.06274
1352.368, 67.12451
1353.428, 60.00024
1354.489, 62.24121
1355.549, 80.34912
1356.608, 71.39844
1357.668, 117.4292
1358.727, 54.44897
1359.787, 91.46240
1360.846, 67.45410
1361.905, 66.39893
1362.964, 128.3889
1364.022, 21.42578
1365.081, 70.36914
1366.139, 73.44385
1367.197, 99.47461
1368.255, 78.53809
1369.313, 80.34595
1370.371, 65.18921
1371.428, 18.24878
1372.486, 43.86865
1373.543, 27.73926
1374.600, 71.72803
1375.657, 102.7095
1376.713, 119.6599
1377.770, 125.7349
1378.826, 97.63623
1379.882, 124.6123
1380.938, 55.58936
1381.994, 75.55322
1383.050, 160.5156
1384.106, 80.47632
1385.161, 136.4358
1386.216, 75.39380
1387.271, 76.45435
1388.326, 4.410156
1389.381, 31.36450
1390.435, 125.2876
1391.490, 80.24023
1392.544, 102.1919
1393.598, 145.1426
1394.652, 93.21313
1395.705, 69.16187
1396.759, 84.10986
1397.812, 100.2583
1398.866, 105.1094
1399.919, 92.05444
1400.972, 79.57764
1402.024, 77.52197
1403.077, 30.65186
1404.129, 81.59473
1405.181, 85.53687
1406.233, 38.47900
1407.285, 103.4209
1408.337, 109.3618
1409.389, 0.3020020
1410.440, 101.2410
1411.491, 11.28003
1412.542, 122.4094
1413.593, 121.4138
1414.644, 25.34644
1415.695, 69.28174
1416.745, 22.21826
1417.795, 27.84424
1418.845, 18.08691
1419.895, 39.03271
1420.945, 32.96777
1421.995, 28.01611
1423.044, 45.54639
1424.093, 32.41650
1425.142, 23.38110
1426.191, 47.33203
1427.240, 108.2800
1428.289, 38.23438
1429.337, 71.19580
1430.385, 4.159180
1431.433, 80.11523
1432.481, 37.07056
1433.529, 91.02783
1434.577, 9.002197
1435.624, 69.96704
1436.672, 104.8513
1437.719, 48.77051
1438.766, 21.30908
1439.812, 76.20142
1440.859, 23.10864
1441.905, 65.01074
1442.952, 57.90430
1443.998, 105.8010
1445.044, 110.5166
1446.090, 55.21533
1447.135, 63.80469
1448.181, 80.33325
1449.226, 91.76880
1450.271, 45.66650
1451.316, 114.6050
1452.361, 52.60962
1453.405, 122.6787
1454.450, 84.80151
1455.494, 40.95776
1456.538, 29.11963
1457.582, 34.29077
1458.626, 50.48804
1459.670, 65.70361
1460.713, 141.9238
1461.757, 91.14478
1462.800, 29.36719
1463.843, 103.5908
1464.886, 19.81616
1465.928, 87.04248
1466.971, 97.27124
1468.013, 61.50317
1469.055, 51.73828
1470.097, 81.95459
1471.139, 12.19531
1472.181, 32.43994
1473.222, 77.65112
1474.263, 110.9028
1475.305, 101.1553
1476.346, 125.5413
1477.386, 53.67407
1478.427, 121.9407
1479.468, 56.21191
1480.508, 26.48901
1481.548, 60.64648
1482.588, 54.93262
1483.628, 67.22510
1484.668, 70.43970
1485.707, 62.84033
1486.747, 55.13525
1487.786, 50.44873
1488.825, 45.00317
1489.864, 42.64868
1490.902, 33.41553
1491.941, 47.57739
1492.979, 35.87183
1494.017, 54.16748
1495.055, 38.51245
1496.093, 32.40649
1497.131, 80.68652
1498.168, 5.963379
1499.206, 65.93921
1500.243, 102.1838
1501.280, 102.4739
1502.317, 69.58862
1503.354, 39.89111
1504.390, 51.48730
1505.426, 42.79565
1506.463, 47.98682
1507.499, 105.1897
1508.535, 58.46729
1509.570, 105.7556
1510.606, 106.5896
1511.641, 19.39160
1512.676, 115.7368
1513.711, 89.09131
1514.746, 80.45166
1515.781, 152.7876
1516.816, 136.1548
1517.850, 146.8877
1518.884, 19.85303
1519.918, 116.0840
1520.952, 82.45654
1521.986, 11.83252
1523.019, 56.91797
1524.053, 75.29150
1525.086, 6.333496
1526.119, 84.04248
1527.152, 16.27490
1528.185, 117.6519
1529.217, 107.0288
1530.250, 155.4043
1531.282, 92.77881
1532.314, 128.0210
1533.346, 60.28369
1534.377, 86.56152
1535.409, 29.83984
1536.440, 19.58887
1537.472, 40.10303
1538.503, 70.58594
1539.534, 178.1362
1540.564, 79.77637
1541.595, 84.43604
1542.625, 124.6909
1543.656, 59.36816
1544.686, 127.0615
1545.716, 42.77295
1546.745, 12.05811
1547.775, 70.69678
1548.804, 68.42334
1549.834, 99.56055
1550.863, 124.1328
1551.892, 194.7056
1552.920, 108.2900
1553.949, 253.8975
1554.977, 173.4512
1556.006, 167.5430
1557.034, 84.11523
1558.062, 77.67139
1559.089, 228.0811
1560.117, 169.6338
1561.144, 144.8677
1562.172, 68.20361
1563.199, 8.702637
1564.226, 75.11572
1565.252, 85.61328
1566.279, 104.4219
1567.305, 77.06689
1568.332, 63.21729
1569.358, 24.11963
1570.384, 50.31396
1571.409, 3.616211
1572.435, 0.0000000E+00
##END=



