##NAMES=Diopside
##RRUFFID=R060276
##IDEAL CHEMISTRY=CaMgSi_2_O_6_
##LOCALITY=Inagli, Yakutia, Siberia, Russia
##OWNER=RRUFF
##SOURCE=Herb Obodda
##DESCRIPTION=Transparent green cleavage fragment
##STATUS=The identification of this mineral has been confirmed by X-ray diffraction and chemical analysis
##URL=rruff.info/R060276
##MEASURED CHEMISTRY=(Ca_0.97_Na_0.03_)_Σ=1_(Mg_0.96_Fe_0.03_Cr_0.01_)_Σ=1_(Si_1.98_Al_0.02_)_Σ=2_O_6_
##PIN_ID=L01339
##ORIENTATION=Laser parallel to -b* (0 -1 0). Fiducial mark perpendicular to laser is parallel to c [0 0 1]
109.5120, 0.0000000E+00
110.7440, 4.199219
111.9760, 92.92188
113.2080, 18.71045
114.4400, 11.16357
115.6710, 118.4731
116.9030, 105.4014
118.1340, 280.7734
119.3650, 248.9785
120.5960, 100.5537
121.8270, 194.1445
123.0580, 57.47266
124.2880, 208.3154
125.5190, 332.4922
126.7490, 227.8525
127.9790, 367.2715
129.2090, 524.6426
130.4390, 613.8672
131.6680, 657.8672
132.8980, 891.5732
134.1270, 1122.928
135.3560, 1280.882
136.5850, 1607.392
137.8140, 1684.414
139.0430, 2040.916
140.2710, 2165.863
141.5000, 2201.228
142.7280, 2212.981
143.9560, 1974.100
145.1840, 1641.562
146.4120, 1393.344
147.6390, 1166.420
148.8670, 843.7617
150.0940, 656.3506
151.3210, 531.1465
152.5490, 492.2402
153.7750, 394.5254
155.0020, 360.0303
156.2290, 354.7471
157.4550, 253.6670
158.6810, 216.7852
159.9080, 244.0947
161.1340, 329.5859
162.3590, 183.2490
163.5850, 320.0752
164.8110, 174.0566
166.0360, 244.1855
167.2610, 352.4580
168.4860, 278.8672
169.7110, 262.4072
170.9360, 434.0713
172.1610, 483.8555
173.3850, 420.7549
174.6100, 574.7637
175.8340, 598.4482
177.0580, 881.0928
178.2820, 762.4033
179.5050, 932.8076
180.7290, 1042.302
181.9520, 904.8828
183.1760, 758.5186
184.3990, 761.1191
185.6220, 503.7021
186.8450, 498.2852
188.0670, 466.9258
189.2900, 342.6016
190.5120, 444.3750
191.7340, 512.3027
192.9560, 412.2988
194.1780, 341.3809
195.4000, 471.5273
196.6220, 447.8037
197.8430, 336.2178
199.0640, 293.7695
200.2860, 265.3926
201.5070, 275.0547
202.7270, 186.7451
203.9480, 102.5303
205.1690, 124.4316
206.3890, 237.4336
207.6090, 58.51074
208.8290, 204.6621
210.0490, 96.83789
211.2690, 87.03711
212.4890, 170.2607
213.7080, 191.5078
214.9280, 208.7803
216.1470, 163.0762
217.3660, 116.3984
218.5850, 150.7510
219.8030, 180.1318
221.0220, 206.5479
222.2400, 402.0068
223.4590, 485.5068
224.6770, 537.0400
225.8950, 653.5947
227.1120, 725.1709
228.3300, 979.7754
229.5480, 1000.400
230.7650, 1207.046
231.9820, 1273.712
233.1990, 1238.398
234.4160, 1358.102
235.6330, 958.8232
236.8490, 921.5645
238.0660, 754.3213
239.2820, 665.0977
240.4980, 673.8916
241.7140, 762.7021
242.9300, 683.5293
244.1460, 619.3721
245.3610, 975.2285
246.5770, 1012.100
247.7920, 1174.987
249.0070, 1468.890
250.2220, 1794.804
251.4370, 2084.732
252.6510, 2248.674
253.8660, 2387.629
255.0800, 2164.594
256.2940, 1972.834
257.5080, 1786.287
258.7220, 1438.444
259.9360, 1050.842
261.1490, 628.1816
262.3630, 443.9658
263.5760, 354.9785
264.7890, 212.5186
266.0020, 240.8379
267.2150, 166.1738
268.4270, 38.61914
269.6400, 118.1641
270.8520, 126.2764
272.0640, 31.32520
273.2760, 97.31445
274.4880, 60.53223
275.7000, 45.48730
276.9120, 61.13086
278.1230, 57.89746
279.3340, 152.3633
280.5450, 107.1982
281.7560, 165.5449
282.9670, 220.0049
284.1780, 22.06738
285.3880, 85.32715
286.5980, 5.725586
287.8090, 225.0449
289.0190, 247.4688
290.2290, 224.2207
291.4380, 294.2734
292.6480, 237.9141
293.8570, 340.5889
295.0670, 235.2959
296.2760, 315.0361
297.4850, 270.4668
298.6930, 563.2646
299.9020, 412.8555
301.1110, 560.7061
302.3190, 713.1670
303.5270, 592.0693
304.7350, 807.9951
305.9430, 1045.854
307.1510, 1186.824
308.3580, 1444.814
309.5660, 1749.825
310.7730, 1940.854
311.9800, 2440.901
313.1870, 2854.968
314.3940, 3591.062
315.6010, 4231.191
316.8070, 5061.340
318.0130, 6030.512
319.2200, 7106.711
320.4260, 8058.923
321.6310, 9054.148
322.8370, 9527.387
324.0430, 9319.635
325.2480, 8827.898
326.4540, 7962.854
327.6590, 6763.141
328.8640, 5693.438
330.0680, 4685.128
331.2730, 3854.411
332.4780, 3323.746
333.6820, 2557.236
334.8860, 2105.873
336.0900, 1905.240
337.2940, 1570.467
338.4980, 1299.851
339.7010, 1133.243
340.9050, 997.4053
342.1080, 1082.053
343.3110, 906.4678
344.5140, 973.4268
345.7170, 994.8545
346.9200, 919.2861
348.1220, 850.7256
349.3240, 776.1680
350.5270, 958.6152
351.7290, 967.0674
352.9310, 867.5225
354.1320, 1057.980
355.3340, 906.4424
356.5350, 958.9072
357.7370, 1134.375
358.9380, 1074.846
360.1390, 959.3184
361.3400, 1065.794
362.5400, 903.2725
363.7410, 832.7529
364.9410, 745.2344
366.1410, 717.7188
367.3410, 619.2041
368.5410, 596.6904
369.7410, 557.1768
370.9400, 492.6650
372.1400, 412.1533
373.3390, 531.6416
374.5380, 538.1318
375.7370, 469.6211
376.9360, 537.1104
378.1350, 491.6006
379.3330, 482.0898
380.5310, 565.5801
381.7300, 547.0693
382.9280, 620.5586
384.1260, 812.0459
385.3230, 829.5322
386.5210, 819.0186
387.7180, 1152.505
388.9160, 1308.988
390.1130, 1297.471
391.3100, 1239.951
392.5060, 1199.433
393.7030, 1201.910
394.9000, 1009.385
396.0960, 985.8594
397.2920, 795.3320
398.4880, 649.8018
399.6840, 523.2686
400.8800, 389.7480
402.0750, 279.2402
403.2710, 262.7451
404.4660, 81.25879
405.6610, 131.7832
406.8560, 2.313477
408.0510, 27.14844
409.2450, 38.62012
410.4400, 140.8936
411.6340, 65.41406
412.8280, 31.93945
414.0220, 155.5332
415.2160, 21.08301
416.4100, 69.64453
417.6030, 0.2392580
418.7970, 217.1631
419.9900, 58.43359
421.1830, 64.93945
422.3760, 29.31348
423.5690, 72.31152
424.7610, 62.97949
425.9540, 7.317383
427.1460, 71.38867
428.3380, 73.13867
429.5300, 42.11035
430.7220, 55.50098
431.9140, 5.607422
433.1050, 9.524414
434.2970, 3.651367
435.4880, 74.77246
436.6790, 72.88965
437.8700, 196.0049
439.0610, 100.2344
440.2510, 143.6562
441.4420, 121.3662
442.6320, 48.61426
443.8220, 185.3672
445.0120, 108.3877
446.2020, 77.52441
447.3910, 221.4307
448.5810, 48.43652
449.7700, 129.4268
450.9600, 40.52441
452.1490, 106.4453
453.3370, 82.31055
454.5260, 58.33398
455.7150, 87.84473
456.9030, 113.7256
458.0910, 123.0166
459.2800, 42.39648
460.4670, 84.67383
461.6550, 100.1943
462.8430, 187.4883
464.0300, 198.3057
465.2180, 119.1172
466.4050, 189.9229
467.5920, 103.1172
468.7790, 16.91211
469.9650, 153.7471
471.1520, 73.55664
472.3380, 26.38574
473.5250, 13.35254
474.7110, 115.1787
475.8970, 6.001953
477.0820, 32.79883
478.2680, 65.58789
479.4540, 18.37012
480.6390, 215.1416
481.8240, 118.9082
483.0090, 63.66699
484.1940, 213.4170
485.3780, 217.1816
486.5630, 29.93848
487.7470, 249.7051
488.9320, 132.4648
490.1160, 351.2188
491.3000, 154.9629
492.4830, 460.7031
493.6670, 283.4395
494.8500, 432.1689
496.0340, 559.9199
497.2170, 797.6631
498.4000, 1127.397
499.5820, 1228.122
500.7650, 1621.846
501.9480, 2095.559
503.1300, 2593.271
504.3120, 3308.975
505.4940, 3860.667
506.6760, 3952.349
507.8580, 3874.020
509.0390, 3548.680
510.2210, 3152.326
511.4020, 2489.979
512.5830, 2023.620
513.7640, 1606.252
514.9450, 1286.875
516.1250, 1033.485
517.3060, 841.0840
518.4860, 655.6758
519.6660, 661.2568
520.8460, 554.4131
522.0260, 521.4180
523.2060, 505.9814
524.3850, 543.5371
525.5650, 523.0820
526.7440, 485.6143
527.9230, 520.1348
529.1020, 491.6426
530.2810, 555.1377
531.4590, 442.6201
532.6380, 487.0918
533.8160, 468.5508
534.9940, 473.9971
536.1720, 428.4326
537.3500, 434.7998
538.5270, 410.3047
539.7050, 404.7314
540.8820, 342.1455
542.0590, 276.5488
543.2360, 334.9395
544.4130, 185.3184
545.5900, 234.6836
546.7660, 166.0352
547.9430, 238.3770
549.1190, 246.9062
550.2950, 301.5020
551.4710, 295.7031
552.6470, 346.9941
553.8220, 353.2734
554.9980, 418.5371
556.1730, 436.3262
557.3480, 512.2539
558.5230, 359.3105
559.6980, 587.2031
560.8730, 579.4316
562.0470, 395.0254
563.2220, 493.2266
564.3960, 233.4141
565.5700, 270.9609
566.7440, 194.0332
567.9170, 256.0332
569.0910, 301.4629
570.2640, 160.7305
571.4380, 323.8945
572.6110, 150.1621
573.7840, 204.3555
574.9570, 202.2441
576.1290, 393.8555
577.3020, 237.9004
578.4740, 289.9336
579.6460, 78.95117
580.8180, 147.9531
581.9900, 101.2812
583.1620, 208.2578
584.3330, 174.0156
585.5040, 37.40430
586.6760, 111.3828
587.8470, 133.3008
589.0180, 39.21094
590.1880, 249.2617
591.3590, 41.48828
592.5290, 83.51367
593.7000, 110.5762
594.8700, 58.41406
596.0400, 94.23828
597.2090, 23.47656
598.3790, 51.70508
599.5490, 18.38086
600.7180, 19.61523
601.8870, 13.64844
603.0560, 81.01367
604.2250, 141.6309
605.3940, 258.5566
606.5620, 150.6309
607.7300, 27.68359
608.8990, 148.6328
610.0670, 101.0176
611.2350, 192.3418
612.4020, 246.6289
613.5700, 10.98438
614.7370, 208.3691
615.9050, 349.1133
617.0720, 164.6855
618.2390, 214.8281
619.4060, 345.4746
620.5720, 356.6641
621.7390, 406.6055
622.9050, 418.3242
624.0710, 429.0566
625.2370, 461.5488
626.4030, 430.2930
627.5690, 534.2598
628.7340, 512.9199
629.9000, 545.6953
631.0650, 680.3984
632.2300, 854.0586
633.3950, 873.2754
634.5600, 988.2559
635.7240, 1035.750
636.8890, 1147.543
638.0530, 1231.818
639.2170, 1298.564
640.3810, 1317.348
641.5450, 1437.555
642.7080, 1620.215
643.8720, 1672.271
645.0350, 2059.324
646.1980, 2216.438
647.3610, 2519.432
648.5240, 2867.404
649.6870, 3340.363
650.8490, 3978.621
652.0120, 4565.721
653.1740, 5263.283
654.3360, 6704.719
655.4980, 8187.586
656.6600, 10077.02
657.8210, 11960.95
658.9830, 14815.26
660.1440, 17695.95
661.3050, 20801.00
662.4660, 23853.99
663.6270, 26785.72
664.7870, 28267.45
665.9480, 28511.44
667.1080, 27200.13
668.2680, 24563.79
669.4280, 21515.44
670.5880, 17975.07
671.7480, 14924.10
672.9070, 11886.69
674.0670, 9567.672
675.2260, 7839.533
676.3850, 6332.469
677.5440, 5296.578
678.7030, 4369.887
679.8610, 3731.656
681.0200, 3257.627
682.1780, 2782.535
683.3360, 2308.145
684.4940, 1979.574
685.6520, 1701.543
686.8090, 1727.213
687.9670, 1529.203
689.1240, 1385.064
690.2810, 1236.844
691.4380, 1070.219
692.5950, 1011.873
693.7520, 1009.633
694.9080, 996.4004
696.0650, 815.0801
697.2210, 728.9375
698.3770, 823.8750
699.5330, 521.3789
700.6880, 532.8145
701.8440, 547.3145
702.9990, 707.7520
704.1550, 451.3281
705.3100, 659.6738
706.4650, 566.8750
707.6190, 473.0254
708.7740, 627.7793
709.9290, 539.0352
711.0830, 392.3242
712.2370, 517.4668
713.3910, 531.9141
714.5450, 332.0195
715.6980, 446.1035
716.8520, 386.1680
718.0050, 338.2109
719.1580, 216.1133
720.3110, 220.1113
721.4640, 321.1289
722.6170, 190.1289
723.7700, 315.1230
724.9220, 54.82812
726.0740, 243.8047
727.2260, 238.7598
728.3780, 170.7891
729.5300, 18.28320
730.6810, 149.3750
731.8330, 137.1797
732.9840, 225.0117
734.1350, 192.6602
735.2860, 74.43555
736.4370, 346.5332
737.5880, 94.83008
738.7380, 110.0117
739.8880, 108.2656
741.0390, 171.8711
742.1890, 191.4316
743.3380, 102.0625
744.4880, 63.66992
745.6380, 65.25195
746.7870, 85.45898
747.9360, 42.00781
749.0850, 30.56641
750.2340, 78.14258
751.3830, 53.79688
752.5310, 26.35742
753.6800, 109.6152
754.8280, 7.146484
755.9760, 196.0586
757.1240, 121.2422
758.2720, 2.406250
759.4190, 26.53711
760.5670, 156.6426
761.7140, 84.72461
762.8610, 54.21289
764.0080, 73.78125
765.1550, 71.24609
766.3020, 85.65625
767.4480, 53.53516
768.5950, 66.39062
769.7410, 4.220703
770.8870, 15.01953
772.0330, 25.23047
773.1780, 90.30664
774.3240, 36.46484
775.4690, 142.2090
776.6140, 86.82422
777.7590, 5.580078
778.9040, 144.9766
780.0490, 16.48633
781.1940, 171.1602
782.3380, 166.6367
783.4820, 147.0957
784.6260, 227.5332
785.7700, 280.9531
786.9140, 259.3809
788.0580, 29.23633
789.2010, 128.0977
790.3450, 27.41211
791.4880, 39.70312
792.6310, 188.9707
793.7730, 195.2188
794.9160, 27.19727
796.0590, 53.40625
797.2010, 38.41016
798.3430, 105.7227
799.4850, 115.8848
800.6270, 7.980469
801.7690, 272.0449
802.9100, 100.1230
804.0520, 189.1504
805.1930, 170.1582
806.3340, 171.2578
807.4750, 182.1914
808.6160, 64.18555
809.7560, 172.1211
810.8970, 64.12500
812.0370, 89.32031
813.1770, 33.12500
814.3170, 19.24219
815.4570, 13.66211
816.5960, 105.2637
817.7360, 52.00977
818.8750, 61.73047
820.0140, 127.4316
821.1530, 179.1172
822.2920, 31.78320
823.4310, 96.42773
824.5690, 23.05078
825.7070, 39.65234
826.8460, 55.23242
827.9840, 148.7930
829.1220, 76.33789
830.2590, 45.86133
831.3970, 20.63672
832.5340, 62.82812
833.6710, 21.27344
834.8080, 10.69531
835.9450, 33.90430
837.0820, 105.4531
838.2190, 87.78906
839.3550, 97.11133
840.4910, 58.41406
841.6270, 112.6973
842.7630, 145.9648
843.8990, 172.2168
845.0350, 12.45117
846.1700, 125.6680
847.3060, 114.8652
848.4410, 339.0488
849.5760, 70.21484
850.7100, 247.3594
851.8450, 220.4922
852.9800, 250.6035
854.1140, 311.7031
855.2480, 373.7871
856.3820, 365.8555
857.5160, 404.8105
858.6500, 388.9473
859.7830, 405.9707
860.9170, 329.9766
862.0500, 280.3477
863.1830, 429.3242
864.3160, 61.28711
865.4480, 170.1660
866.5810, 356.7559
867.7130, 260.5176
868.8460, 383.2109
869.9780, 329.1035
871.1100, 175.9824
872.2410, 221.3691
873.3730, 243.2305
874.5050, 132.7305
875.6360, 574.2793
876.7670, 192.8281
877.8980, 564.6445
879.0290, 339.4805
880.1590, 497.9785
881.2900, 271.3008
882.4200, 114.6309
883.5500, 317.0293
884.6800, 162.2910
885.8100, 266.2617
886.9400, 292.2422
888.0690, 317.7461
889.1990, 378.6113
890.3280, 289.0469
891.4570, 347.4863
892.5860, 288.1914
893.7140, 271.6484
894.8430, 271.3828
895.9710, 239.1797
897.1000, 229.0977
898.2280, 210.4160
899.3560, 160.1270
900.4830, 135.2578
901.6110, 246.7773
902.7380, 239.1172
903.8660, 480.3125
904.9930, 249.5566
906.1200, 172.8203
907.2460, 234.4961
908.3730, 41.38672
909.5000, 46.74805
910.6260, 47.00391
911.7520, 133.3555
912.8780, 98.68359
914.0040, 175.4258
915.1290, 248.9844
916.2550, 31.05859
917.3800, 187.7188
918.5050, 70.35742
919.6300, 97.91211
920.7550, 97.56641
921.8800, 28.78711
923.0040, 87.84375
924.1290, 217.1562
925.2530, 193.6016
926.3770, 276.5625
927.5010, 118.6230
928.6250, 78.23242
929.7480, 85.16406
930.8720, 78.72852
931.9950, 105.7949
933.1180, 156.4668
934.2410, 41.74609
935.3640, 52.06445
936.4860, 167.6133
937.6090, 44.14453
938.7310, 64.39453
939.8530, 160.9238
940.9750, 24.45703
942.0970, 229.9844
943.2180, 177.5098
944.3400, 54.60938
945.4610, 28.12305
946.5820, 5.779297
947.7030, 70.58594
948.8240, 58.72070
949.9450, 60.77148
951.0650, 54.93164
952.1860, 50.22070
953.3060, 44.14648
954.4260, 217.1152
955.5460, 206.3555
956.6650, 40.75586
957.7850, 328.5898
958.9040, 269.7109
960.0230, 291.4961
961.1420, 511.3848
962.2610, 141.3379
963.3800, 341.6934
964.4990, 415.7324
965.6170, 340.8242
966.7350, 210.7051
967.8530, 396.6855
968.9710, 309.4902
970.0890, 292.2227
971.2070, 571.5723
972.3240, 469.8281
973.4410, 234.2070
974.5580, 546.3535
975.6750, 349.4199
976.7920, 434.9219
977.9090, 640.2715
979.0250, 521.1230
980.1410, 572.9395
981.2580, 554.2070
982.3740, 771.4492
983.4890, 671.8125
984.6050, 908.8477
985.7200, 1105.209
986.8360, 1203.566
987.9510, 1172.926
989.0660, 1050.482
990.1810, 1436.865
991.2950, 1604.242
992.4100, 1699.617
993.5240, 2095.990
994.6390, 2071.365
995.7530, 2586.742
996.8660, 2965.115
997.9800, 3170.488
999.0940, 3851.014
1000.207, 4448.783
1001.320, 5784.227
1002.433, 6959.602
1003.546, 8590.975
1004.659, 10941.35
1005.772, 13580.72
1006.884, 16802.08
1007.996, 20523.44
1009.108, 24366.81
1010.220, 28169.19
1011.332, 30620.56
1012.444, 31053.33
1013.555, 29257.69
1014.666, 25845.05
1015.777, 21546.16
1016.888, 17223.48
1017.999, 13343.83
1019.110, 10196.21
1020.220, 7896.941
1021.331, 6258.355
1022.441, 5209.895
1023.551, 4197.871
1024.661, 3585.322
1025.770, 3048.910
1026.880, 2715.793
1027.989, 2623.248
1029.098, 2172.707
1030.207, 2006.678
1031.316, 1880.283
1032.425, 1656.758
1033.533, 1768.969
1034.642, 1619.580
1035.750, 1508.070
1036.858, 1668.561
1037.966, 1379.553
1039.073, 1586.078
1040.181, 1714.951
1041.288, 1444.070
1042.396, 1524.023
1043.503, 1876.197
1044.610, 1667.301
1045.716, 1715.322
1046.823, 1570.035
1047.929, 1649.719
1049.036, 1325.693
1050.142, 1563.318
1051.248, 991.0000
1052.353, 1036.045
1053.459, 982.7129
1054.564, 921.4375
1055.670, 756.8477
1056.775, 612.1680
1057.880, 732.2695
1058.985, 798.6562
1060.089, 590.2988
1061.194, 577.2520
1062.298, 521.1094
1063.402, 665.2148
1064.506, 265.2227
1065.610, 392.8379
1066.713, 359.4668
1067.817, 608.0352
1068.920, 529.6445
1070.023, 318.8223
1071.126, 87.11719
1072.229, 563.2070
1073.332, 348.4902
1074.435, 381.4551
1075.537, 517.3711
1076.639, 526.6152
1077.741, 342.5605
1078.843, 355.1992
1079.945, 315.7617
1081.046, 169.0156
1082.148, 232.9473
1083.249, 71.38086
1084.350, 499.5488
1085.451, 669.6680
1086.551, 548.1934
1087.652, 424.0156
1088.752, 291.0605
1089.853, 595.6094
1090.953, 243.5918
1092.053, 392.1641
1093.152, 255.1230
1094.252, 102.7246
1095.351, 90.19141
1096.451, 208.6484
1097.550, 51.09766
1098.649, 201.7090
1099.748, 194.7793
1100.846, 174.5586
1101.945, 96.21094
1103.043, 51.17383
1104.141, 84.80664
1105.239, 38.13281
1106.337, 136.7832
1107.434, 85.17383
1108.532, 36.55078
1109.629, 185.9160
1110.726, 0.5742190
1111.823, 96.76562
1112.920, 188.0977
1114.017, 104.8105
1115.113, 324.1230
1116.210, 264.4219
1117.306, 486.3730
1118.402, 484.1680
1119.498, 135.6387
1120.593, 68.07227
1121.689, 340.0332
1122.784, 439.2617
1123.879, 320.4766
1124.974, 231.6797
1126.069, 502.4004
1127.164, 245.7129
1128.259, 318.8770
1129.353, 248.0293
1130.447, 14.16797
1131.541, 33.29102
1132.635, 115.3965
1133.729, 255.4902
1134.822, 161.5684
1135.916, 214.6328
1137.009, 215.1758
1138.102, 209.7227
1139.195, 185.9980
1140.288, 165.0078
1141.380, 135.1426
1142.473, 183.1230
1143.565, 40.09180
1144.657, 226.0430
1145.749, 363.9785
1146.841, 41.09961
1147.932, 150.7832
1149.024, 180.1504
1150.115, 190.4688
1151.206, 63.77539
1152.297, 155.5938
1153.388, 128.6113
1154.479, 25.98242
1155.569, 252.3281
1156.659, 122.0801
1157.750, 52.37109
1158.839, 219.0859
1159.929, 260.7871
1161.019, 34.46875
1162.108, 200.8691
1163.198, 153.7715
1164.287, 193.7129
1165.376, 126.0703
1166.465, 181.4434
1167.553, 345.2480
1168.642, 42.75586
1169.730, 258.9590
1170.818, 105.5059
1171.906, 64.66602
1172.994, 17.61328
1174.082, 51.44531
1175.170, 57.32617
1176.257, 29.54297
1177.344, 195.0410
1178.431, 293.5547
1179.518, 133.7324
1180.605, 14.74805
1181.691, 320.8730
1182.778, 8.833984
1183.864, 300.7637
1184.950, 191.6719
1186.036, 33.56055
1187.122, 47.42773
1188.207, 101.2656
1189.292, 41.08203
1190.378, 219.8672
1191.463, 134.6348
1192.548, 156.9414
1193.632, 156.6973
1194.717, 119.4121
1195.801, 215.0977
1196.886, 320.7637
1197.970, 335.4082
1199.054, 390.1094
1200.137, 78.72852
1201.221, 6.324219
1202.305, 96.88281
1203.388, 7.414063
1204.471, 97.90820
1205.554, 134.3770
1206.637, 55.82031
1207.719, 124.6348
1208.802, 175.6270
1209.884, 141.9941
1210.966, 123.3359
1212.048, 113.6660
1213.130, 218.9785
1214.212, 108.2305
1215.293, 80.51367
1216.374, 228.7695
1217.456, 149.0039
1218.536, 94.20898
1219.617, 211.3887
1220.698, 18.45312
1221.778, 27.65430
1222.859, 109.7266
1223.939, 193.7676
1225.019, 255.7930
1226.099, 238.7773
1227.178, 256.7539
1228.258, 184.5273
1229.337, 75.45703
1230.417, 14.64062
1231.496, 172.2031
1232.574, 17.01172
1233.653, 274.5898
1234.732, 146.2773
1235.810, 217.7422
1236.888, 297.4570
1237.966, 399.0664
1239.044, 374.4453
1240.122, 192.0898
1241.199, 346.3633
1242.277, 394.9141
1243.354, 135.4844
1244.431, 371.5117
1245.508, 256.0352
1246.585, 72.53906
1247.661, 107.0117
1248.738, 181.4531
1249.814, 30.87500
1250.890, 49.91797
1251.966, 612.3906
1253.042, 248.6836
1254.117, 436.9492
1255.193, 21.19141
1256.268, 199.3984
1257.343, 251.5820
1258.418, 470.7422
1259.493, 255.8789
1260.567, 315.5117
1261.642, 289.1992
1262.716, 417.2266
1263.790, 434.2930
1264.864, 409.3398
1265.938, 292.3555
1267.011, 358.3555
1268.085, 172.3281
1269.158, 395.2812
1270.231, 35.20703
1271.304, 527.0898
1272.377, 274.4102
1273.450, 262.8398
1274.522, 262.6680
1275.594, 334.4727
1276.666, 457.6406
1277.738, 112.4023
1278.810, 120.1328
1279.882, 119.8359
1280.953, 238.1719
1282.025, 9.050781
1283.096, 92.46094
1284.167, 93.51953
1285.238, 361.0703
1286.308, 98.47266
1287.379, 499.5469
1288.449, 285.0273
1289.519, 273.4883
1290.589, 352.4180
1291.659, 193.6797
1292.729, 236.0547
1293.798, 113.6914
1294.868, 237.9023
1295.937, 100.2344
1297.006, 15.53906
1298.075, 110.6836
1299.143, 116.5000
1300.212, 110.7305
1301.280, 94.74609
1302.348, 30.20312
1303.416, 31.50781
1304.484, 242.8750
1305.552, 140.6406
1306.620, 88.08594
1307.687, 162.8203
1308.754, 205.2383
1309.821, 161.8477
1310.888, 304.5234
1311.955, 266.3281
1313.021, 262.5078
1314.088, 285.0156
1315.154, 267.1875
1316.220, 297.1055
1317.286, 431.2305
1318.352, 312.0547
1319.417, 297.5977
1320.483, 54.80469
1321.548, 180.0781
1322.613, 266.3398
1323.678, 232.4219
1324.743, 547.8711
1325.807, 332.3008
1326.872, 176.0039
1327.936, 412.3984
1329.000, 259.4648
1330.064, 556.1055
1331.128, 259.0078
1332.191, 371.6406
1333.255, 424.4570
1334.318, 423.4062
1335.381, 193.0078
1336.444, 410.8750
1337.507, 357.9453
1338.569, 476.8555
1339.632, 480.6680
1340.694, 417.4258
1341.756, 473.5977
1342.818, 339.2930
1343.880, 652.8516
1344.941, 432.9805
1346.003, 722.7930
1347.064, 428.3594
1348.125, 515.3906
1349.186, 329.9727
1350.247, 303.9375
1351.308, 401.4922
1352.368, 289.3867
1353.428, 346.3867
1354.489, 389.3750
1355.549, 534.3516
1356.608, 483.2812
1357.668, 486.1289
1358.727, 274.1836
1359.787, 365.8750
1360.846, 362.3281
1361.905, 285.2188
1362.964, 357.7500
1364.022, 194.5664
1365.081, 526.4180
1366.139, 405.2500
1367.197, 347.0742
1368.255, 128.7266
1369.313, 262.5195
1370.371, 480.3047
1371.428, 38.67969
1372.486, 654.4336
1373.543, 156.1758
1374.600, 453.2422
1375.657, 367.4453
1376.713, 430.9453
1377.770, 149.4609
1378.826, 190.4258
1379.882, 235.1055
1380.938, 237.7773
1381.994, 450.4336
1383.050, 540.5508
1384.106, 524.0547
1385.161, 228.6875
1386.216, 272.3086
1387.271, 414.9219
1388.326, 342.5352
1389.381, 466.2539
1390.435, 209.8047
1391.490, 316.3516
1392.544, 377.8906
1393.598, 169.4180
1394.652, 256.9414
1395.705, 203.2031
1396.759, 149.7109
1397.812, 205.0703
1398.866, 31.56250
1399.919, 146.0508
1400.972, 318.5312
1402.024, 467.0039
1403.077, 101.4766
1404.129, 200.9453
1405.181, 164.9180
1406.233, 196.9141
1407.285, 300.9023
1408.337, 104.3594
1409.389, 250.5977
1410.440, 406.4609
1411.491, 171.3320
1412.542, 319.7734
1413.593, 328.6602
1414.644, 314.1016
1415.695, 381.0117
1416.745, 453.9805
1417.795, 390.4180
1418.845, 349.4805
1419.895, 287.8828
1420.945, 267.1406
1421.995, 255.3945
1423.044, 228.3984
1424.093, 265.6758
1425.142, 236.6016
1426.191, 447.8047
1427.240, 264.3711
1428.289, 297.3594
1429.337, 271.9922
1430.385, 79.73828
1431.433, 232.2305
1432.481, 126.2344
1433.529, 104.2930
1434.577, 527.7109
1435.624, 248.2031
1436.672, 411.5703
1437.719, 203.0742
1438.766, 462.5820
1439.812, 139.5938
1440.859, 0.1210940
1441.905, 340.8320
1442.952, 441.3867
1443.998, 266.9609
1445.044, 362.6523
1446.090, 326.1836
1447.135, 404.1797
1448.181, 248.7344
1449.226, 265.0703
1450.271, 93.56641
1451.316, 134.6250
1452.361, 79.61328
1453.405, 219.8125
1454.450, 16.23438
1455.494, 83.65234
1456.538, 63.06250
1457.582, 103.4648
1458.626, 209.8555
1459.670, 282.2383
1460.713, 136.6133
1461.757, 392.9805
1462.800, 149.3711
1463.843, 292.7617
1464.886, 147.1367
1465.928, 293.5039
1466.971, 411.8750
1468.013, 126.2656
1469.055, 126.6602
1470.097, 220.0391
1471.139, 114.4141
1472.181, 385.6172
1473.222, 91.34766
1474.263, 190.6875
1475.305, 172.0273
1476.346, 416.3438
1477.386, 235.7461
1478.427, 349.1406
1479.468, 214.5508
1480.508, 283.9453
1481.548, 31.33984
1482.588, 167.6719
1483.628, 403.9961
1484.668, 249.3086
1485.707, 38.62109
1486.747, 285.2969
1487.786, 287.6016
1488.825, 232.6836
1489.864, 423.9805
1490.902, 329.2773
1491.941, 533.4102
1492.979, 96.75000
1494.017, 382.0898
1495.055, 442.4336
1496.093, 83.76562
1497.131, 376.0977
1498.168, 303.4141
1499.206, 450.7422
1500.243, 470.2617
1501.280, 452.9883
1502.317, 316.6523
1503.354, 204.5430
1504.390, 171.5195
1505.426, 423.5117
1506.463, 487.5117
1507.499, 258.8555
1508.535, 463.8555
1509.570, 314.8672
1510.606, 484.8867
1511.641, 144.9102
1512.676, 393.9648
1513.711, 97.87891
1514.746, 211.5156
1515.781, 324.3438
1516.816, 390.2969
1517.850, 145.2656
1518.884, 257.2500
1519.918, 381.2578
1520.952, 174.2852
1521.986, 262.3281
1523.019, 295.4023
1524.053, 309.5156
1525.086, 59.65234
1526.119, 137.8203
1527.152, 326.0117
1528.185, 527.8672
1529.217, 273.1211
1530.250, 347.1328
1531.282, 72.47266
1532.314, 145.8594
1533.346, 150.3008
1534.377, 336.7852
1535.409, 534.3359
1536.440, 217.9336
1537.472, 136.5859
1538.503, 431.2812
1539.534, 134.0078
1540.564, 469.7812
1541.595, 312.6016
1542.625, 10.53516
1543.656, 192.9023
1544.686, 376.4336
1545.716, 58.99609
1546.745, 375.5820
1547.775, 211.1953
1548.804, 6.167969
1549.834, 205.4922
1550.863, 322.1797
1551.892, 237.8945
1552.920, 144.6250
1553.949, 135.3516
1554.977, 68.06250
1556.006, 83.73828
1557.034, 327.3633
1558.062, 48.33984
1559.089, 208.0078
1560.117, 302.7812
1561.144, 207.9453
1562.172, 177.6406
1563.199, 4.562500
1564.226, 298.3633
1565.252, 45.46484
1566.279, 110.3320
1567.305, 149.9297
1568.332, 63.52344
1569.358, 160.5664
1570.384, 105.6289
1571.409, 0.5234380
1572.435, 0.0000000E+00
##END=



