##NAMES=Diopside
##RRUFFID=R070123
##IDEAL CHEMISTRY=CaMgSi_2_O_6_
##LOCALITY=Yates mine, Otter Lake, Huddersfield Township, Pontiac County, Québec, Canada
##OWNER=RRUFF
##SOURCE=Michael Scott
##DESCRIPTION=Black prismatic crystals associated with orange calcite
##STATUS=The identification of this mineral has been confirmed by X-ray diffraction and chemical analysis
##URL=rruff.info/R070123
##MEASURED CHEMISTRY=(Ca_0.95_Na_0.04_Mn_0.01_)_Σ=1_(Mg_0.63_Fe_0.33_Al_0.04_)_Σ=1_Si_2.00_O_6_
##PIN_ID=M01164
##ORIENTATION=Laser parallel to c* (0 0 1). Fiducial mark perpendicular to laser is parallel to a [1 0 0]
117.2950, 0.0000000E+00
118.5340, 88.65234
119.7720, 60.58508
121.0100, 54.37939
122.2470, 1.969238
123.4850, 68.51233
124.7220, 46.53601
125.9590, 89.97583
127.1960, 91.27563
128.4330, 120.0581
129.6700, 184.3934
130.9060, 186.4086
132.1430, 301.7969
133.3790, 283.3074
134.6150, 294.8757
135.8500, 248.0845
137.0860, 299.8855
138.3210, 250.2329
139.5560, 306.0842
140.7910, 204.4032
142.0260, 170.1584
143.2610, 2.322632
144.4950, 14.12915
145.7290, 18.78149
146.9630, 7.965332
148.1970, 33.38623
149.4310, 22.49719
150.6640, 5.687988
151.8980, 47.15674
153.1310, 61.89734
154.3640, 38.89905
155.5970, 102.1447
156.8290, 104.6133
158.0620, 170.2892
159.2940, 212.6602
160.5260, 219.2125
161.7580, 305.4447
162.9890, 354.8530
164.2210, 383.4358
165.4520, 373.1859
166.6830, 338.0968
167.9140, 307.1635
169.1450, 327.3811
170.3760, 364.7456
171.6060, 424.2537
172.8360, 492.9023
174.0660, 536.6880
175.2960, 571.6085
176.5260, 670.6609
177.7550, 626.8424
178.9840, 662.1510
180.2130, 639.5842
181.4420, 590.1403
182.6710, 521.8169
183.9000, 455.6113
185.1280, 471.5225
186.3560, 439.5483
187.5840, 472.6870
188.8120, 439.9365
190.0400, 441.2950
191.2670, 400.7426
192.4950, 419.2074
193.7220, 417.6755
194.9490, 389.1575
196.1750, 368.6677
197.4020, 355.8701
198.6280, 312.7917
199.8540, 316.4115
201.0800, 329.0737
202.3060, 299.3804
203.5320, 262.9795
204.7570, 217.4348
205.9830, 160.4135
207.2080, 88.47693
208.4330, 52.68665
209.6570, 111.9729
210.8820, 136.3113
212.1060, 184.7009
213.3310, 177.1437
214.5550, 220.6415
215.7780, 237.1959
217.0020, 255.8088
218.2260, 296.4821
219.4490, 361.2167
220.6720, 443.0142
221.8950, 485.8749
223.1180, 545.7997
224.3400, 618.4353
225.5630, 697.3940
226.7850, 770.9570
228.0070, 865.1360
229.2290, 971.3781
230.4500, 1022.682
231.6720, 1074.049
232.8930, 987.4769
234.1140, 984.9663
235.3350, 945.5166
236.5560, 824.1274
237.7770, 766.7983
238.9970, 698.5287
240.2170, 634.3184
241.4370, 576.1665
242.6570, 581.0730
243.8770, 594.0371
245.0960, 603.0586
246.3160, 575.1367
247.5350, 680.2710
248.7540, 593.4613
249.9730, 615.7065
251.1910, 608.0068
252.4100, 563.3611
253.6280, 555.7693
254.8460, 538.2306
256.0640, 532.7446
257.2810, 497.3108
258.4990, 493.9290
259.7160, 462.9529
260.9330, 422.5505
262.1500, 389.0873
263.3670, 357.9067
264.5840, 282.7922
265.8000, 298.3046
267.0170, 238.4355
268.2330, 237.7957
269.4490, 177.2821
270.6640, 168.9315
271.8800, 123.6849
273.0950, 142.5312
274.3100, 130.4692
275.5260, 166.4967
276.7400, 258.6113
277.9550, 240.7959
279.1690, 285.0575
280.3840, 263.3510
281.5980, 286.7262
282.8120, 369.1809
284.0260, 403.5229
285.2390, 519.3169
286.4530, 560.2827
287.6660, 639.0293
288.8790, 743.7646
290.0920, 860.0300
291.3040, 1018.198
292.5170, 1148.844
293.7290, 1287.567
294.9410, 1469.544
296.1530, 1547.839
297.3650, 1765.460
298.5770, 1947.104
299.7880, 2208.003
301.0000, 2372.408
302.2110, 2723.920
303.4220, 2941.427
304.6320, 3299.002
305.8430, 3765.634
307.0530, 4225.328
308.2630, 4857.092
309.4730, 5537.926
310.6830, 6360.826
311.8930, 7205.798
313.1030, 8180.843
314.3120, 9045.960
315.5210, 10184.16
316.7300, 11130.42
317.9390, 11871.75
319.1470, 12543.15
320.3560, 12837.61
321.5640, 12872.14
322.7720, 12383.73
323.9800, 12006.38
325.1880, 10955.07
326.3950, 9795.808
327.6030, 8935.594
328.8100, 7956.422
330.0170, 6987.289
331.2240, 6359.199
332.4300, 5643.145
333.6370, 5207.127
334.8430, 4727.146
336.0490, 4359.198
337.2550, 4131.284
338.4610, 3918.405
339.6660, 3805.560
340.8720, 3616.747
342.0770, 3741.970
343.2820, 3863.226
344.4870, 3835.516
345.6920, 4002.840
346.8960, 4164.197
348.1010, 4476.587
349.3050, 4761.007
350.5090, 4940.463
351.7130, 5239.951
352.9160, 5374.468
354.1200, 5368.017
355.3230, 5144.597
356.5260, 4930.206
357.7290, 4709.844
358.9320, 4427.514
360.1350, 4092.212
361.3370, 3906.940
362.5390, 3764.697
363.7410, 3591.482
364.9430, 3691.296
366.1450, 3637.137
367.3470, 3730.006
368.5480, 4046.903
369.7490, 4273.826
370.9500, 4688.777
372.1510, 5105.754
373.3520, 5819.757
374.5520, 6732.786
375.7530, 7610.840
376.9530, 8827.920
378.1530, 10223.03
379.3520, 11476.15
380.5520, 13225.31
381.7510, 14594.49
382.9510, 16297.69
384.1500, 17590.92
385.3490, 18649.17
386.5480, 19163.44
387.7460, 18530.73
388.9440, 17597.06
390.1430, 16165.40
391.3410, 14287.76
392.5390, 12106.14
393.7360, 10055.55
394.9340, 8302.981
396.1310, 6743.242
397.3280, 5335.903
398.5250, 4312.394
399.7220, 3475.907
400.9190, 2852.441
402.1150, 2350.993
403.3120, 1956.565
404.5080, 1608.157
405.7040, 1344.768
406.8990, 1128.397
408.0950, 1047.046
409.2900, 930.7219
410.4860, 815.4270
411.6810, 686.1633
412.8760, 642.9297
414.0700, 604.7295
415.2650, 531.5579
416.4590, 412.4139
417.6540, 408.2976
418.8480, 335.2081
420.0420, 303.1454
421.2350, 246.1086
422.4290, 189.0978
423.6220, 191.1119
424.8150, 80.15149
426.0080, 50.21558
427.2010, 86.30383
428.3940, 22.41614
429.5860, 17.44824
430.7790, 6.706909
431.9710, 70.11523
433.1630, 54.93311
434.3540, 58.74219
435.5460, 61.54309
436.7370, 90.33826
437.9290, 30.13733
439.1200, 83.91907
440.3110, 125.7019
441.5010, 78.50403
442.6920, 26.30859
443.8820, 4.174805
445.0730, 2.550781
446.2630, 86.78833
447.4530, 25.46362
448.6420, 76.85999
449.8320, 104.0688
451.0210, 241.4121
452.2100, 179.2750
453.3990, 321.9507
454.5880, 262.2579
455.7770, 318.5168
456.9660, 371.0615
458.1540, 429.4303
459.3420, 365.3788
460.5300, 343.0323
461.7180, 332.3662
462.9050, 326.3252
464.0930, 281.4060
465.2800, 313.3870
466.4670, 247.6761
467.6540, 228.7484
468.8410, 241.0530
470.0280, 174.6830
471.2140, 181.0023
472.4000, 249.3323
473.5870, 183.1206
474.7720, 147.9944
475.9580, 229.6941
477.1440, 151.4370
478.3290, 142.1400
479.5140, 125.8475
480.6990, 129.5596
481.8840, 129.6329
483.0690, 127.9963
484.2540, 154.7236
485.4380, 154.4545
486.6220, 189.1881
487.8060, 168.9247
488.9900, 170.6639
490.1740, 184.4054
491.3570, 183.5479
492.5410, 190.7391
493.7240, 199.6409
494.9070, 205.3889
496.0900, 202.1381
497.2720, 218.8879
498.4550, 267.6382
499.6370, 291.3888
500.8190, 300.1393
502.0010, 314.8895
503.1830, 364.6393
504.3650, 452.3883
505.5460, 486.1364
506.7280, 561.8829
507.9090, 599.6282
509.0900, 582.3717
510.2710, 674.1133
511.4510, 743.8525
512.6320, 769.5894
513.8120, 890.3235
514.9920, 921.0547
516.1720, 1035.785
517.3520, 1115.512
518.5310, 1225.978
519.7110, 1317.961
520.8900, 1492.693
522.0690, 1635.431
523.2480, 1806.173
524.4270, 1903.925
525.6050, 1942.682
526.7840, 1980.450
527.9620, 2101.224
529.1400, 1973.003
530.3180, 1890.778
531.4960, 1662.563
532.6730, 1587.353
533.8510, 1374.153
535.0280, 1204.949
536.2050, 1163.750
537.3820, 1037.548
538.5590, 1019.341
539.7350, 978.1289
540.9120, 997.9109
542.0880, 990.6846
543.2640, 936.4500
544.4400, 1054.207
545.6150, 1056.956
546.7910, 1146.695
547.9660, 1235.425
549.1410, 1394.145
550.3170, 1556.856
551.4910, 1622.557
552.6660, 2001.246
553.8410, 2213.927
555.0150, 2442.598
556.1890, 2591.258
557.3630, 2612.909
558.5370, 2531.550
559.7110, 2394.181
560.8840, 2207.806
562.0570, 1805.421
563.2310, 1529.028
564.4040, 1223.625
565.5760, 1122.212
566.7490, 989.7847
567.9220, 797.3445
569.0940, 724.8903
570.2660, 650.4219
571.4380, 590.6504
572.6100, 483.1532
573.7820, 426.7200
574.9530, 453.8077
576.1240, 356.7427
577.2960, 315.5464
578.4670, 292.1978
579.6370, 231.9746
580.8080, 213.8296
581.9790, 128.8312
583.1490, 115.8490
584.3190, 54.73547
585.4890, 68.25708
586.6590, 66.91602
587.8280, 11.53491
588.9980, 10.70447
590.1670, 1.974731
591.3360, 34.88831
592.5050, 42.16125
593.6740, 22.21472
594.8430, 47.17163
596.0110, 61.36206
597.1790, 48.81848
598.3480, 76.91846
599.5160, 53.46167
600.6830, 31.44751
601.8510, 41.23438
603.0180, 34.30920
604.1860, 35.23694
605.3530, 32.04443
606.5200, 4.083862
607.6870, 42.49426
608.8530, 39.80298
610.0200, 32.10327
611.1860, 75.31018
612.3520, 76.82678
613.5180, 63.10583
614.6840, 106.6877
615.8500, 123.6826
617.0150, 119.6449
618.1800, 177.5839
619.3450, 208.5002
620.5100, 180.3943
621.6750, 233.2693
622.8400, 310.1182
624.0040, 295.5493
625.1690, 380.3523
626.3330, 359.1322
627.4970, 348.8889
628.6610, 481.6226
629.8240, 476.2188
630.9880, 570.0199
632.1510, 580.6833
633.3140, 661.3232
634.4770, 717.9397
635.6400, 748.5325
636.8020, 908.1014
637.9650, 872.6467
639.1270, 943.1682
640.2890, 1056.666
641.4510, 1203.139
642.6130, 1356.588
643.7750, 1363.014
644.9360, 1675.415
646.0980, 1799.792
647.2590, 2140.145
648.4200, 2392.473
649.5810, 2736.778
650.7410, 3318.057
651.9020, 3757.313
653.0620, 4525.543
654.2220, 5583.751
655.3820, 6640.315
656.5420, 7960.473
657.7020, 9493.607
658.8610, 11225.83
660.0200, 12977.95
661.1800, 14822.40
662.3390, 16509.32
663.4970, 17935.28
664.6560, 18615.56
665.8150, 18349.14
666.9730, 17707.48
668.1310, 16131.73
669.2890, 14071.88
670.4470, 12090.19
671.6050, 10118.53
672.7620, 8397.846
673.9200, 6855.360
675.0770, 5663.424
676.2340, 4755.147
677.3910, 4025.274
678.5470, 3385.395
679.7040, 2948.375
680.8600, 2551.986
682.0160, 2209.571
683.1720, 1968.199
684.3280, 1731.729
685.4840, 1563.232
686.6390, 1429.708
687.7950, 1292.158
688.9500, 1138.580
690.1050, 1052.975
691.2600, 957.3433
692.4150, 892.8125
693.5690, 811.2366
694.7240, 737.6331
695.8780, 719.1888
697.0320, 652.7927
698.1860, 640.4708
699.3400, 568.6056
700.4930, 554.3025
701.6470, 492.5408
702.8000, 502.0077
703.9530, 507.6313
705.1060, 439.6857
706.2590, 405.7068
707.4110, 362.7014
708.5640, 355.6696
709.7160, 383.6116
710.8680, 331.5289
712.0200, 327.4722
713.1720, 292.2941
714.3230, 276.1487
715.4750, 223.9847
716.6260, 197.8025
717.7770, 200.6072
718.9280, 179.3896
720.0790, 189.1581
721.2300, 187.9204
722.3800, 155.6685
723.5300, 142.1190
724.6810, 124.7709
725.8300, 135.3489
726.9800, 89.58276
728.1300, 143.0839
729.2790, 87.76440
730.4290, 97.29907
731.5780, 79.30347
732.7270, 69.48315
733.8760, 71.01819
735.0240, 39.58972
736.1730, 51.85889
737.3210, 58.29053
738.4700, 11.12976
739.6180, 23.24451
740.7650, 24.66248
741.9130, 16.43921
743.0610, 6.923096
744.2080, 9.792114
745.3550, 14.18176
746.5020, 32.22803
747.6490, 49.10181
748.7960, 1.904541
749.9430, 8.379883
751.0890, 21.36377
752.2350, 4.409668
753.3810, 51.07971
754.5270, 53.91296
755.6730, 50.69238
756.8190, 89.50098
757.9640, 71.29407
759.1090, 44.07178
760.2540, 60.83423
761.3990, 16.58154
762.5440, 101.3075
763.6890, 91.01917
764.8330, 81.71631
765.9780, 78.39941
767.1220, 55.06873
768.2660, 72.72424
769.4100, 89.36633
770.5530, 78.99512
771.6970, 64.61108
772.8400, 71.21436
773.9830, 65.21497
775.1260, 58.77136
776.2690, 68.94983
777.4120, 47.50439
778.5540, 49.04736
779.6970, 44.57910
780.8390, 59.09973
781.9810, 58.60938
783.1230, 57.29834
784.2650, 63.59705
785.4060, 63.07532
786.5480, 52.54395
787.6890, 78.00281
788.8300, 50.45215
789.9710, 39.89233
791.1120, 34.32373
792.2520, 3.253784
793.3930, 34.15466
794.5330, 13.55505
795.6730, 18.05273
796.8130, 33.67993
797.9530, 40.25305
799.0930, 33.01819
800.2320, 50.72742
801.3710, 41.47058
802.5110, 63.24182
803.6500, 45.05212
804.7880, 44.89124
805.9270, 6.758301
807.0660, 64.63440
808.2040, 50.54724
809.3420, 67.48865
810.4800, 20.46680
811.6180, 50.45752
812.7560, 27.47461
813.8930, 14.50574
815.0310, 15.54590
816.1680, 12.59460
817.3050, 6.349365
818.4420, 5.510010
819.5790, 2.772095
820.7150, 21.16211
821.8520, 27.09399
822.9880, 43.02393
824.1240, 39.58911
825.2600, 39.87903
826.3960, 20.80457
827.5320, 12.72925
828.6670, 7.346802
829.8020, 6.425049
830.9380, 6.505249
832.0730, 15.58679
833.2080, 18.85864
834.3420, 22.76001
835.4770, 37.85266
836.6110, 25.95361
837.7450, 43.05896
838.8790, 20.17371
840.0130, 27.29065
841.1470, 2.588745
842.2810, 10.46997
843.4140, 45.35388
844.5470, 100.2406
845.6800, 140.5176
846.8130, 198.0238
847.9460, 264.9207
849.0790, 345.8213
850.2110, 430.7258
851.3440, 549.6349
852.4760, 662.5481
853.6080, 771.4661
854.7400, 846.3889
855.8710, 847.3169
857.0030, 823.2500
858.1340, 809.1885
859.2650, 791.0479
860.3960, 756.8080
861.5270, 657.3667
862.6580, 699.0796
863.7890, 639.0764
864.9190, 605.9722
866.0490, 614.0795
867.1790, 643.5139
868.3090, 625.1970
869.4390, 592.7507
870.5690, 635.0042
871.6980, 617.4841
872.8270, 641.5720
873.9570, 667.0591
875.0860, 677.9509
876.2140, 715.8789
877.3430, 748.4281
878.4720, 788.2595
879.6000, 819.8398
880.7280, 859.6193
881.8560, 878.7551
882.9840, 910.1445
884.1120, 924.5258
885.2390, 986.9824
886.3670, 980.1174
887.4940, 967.4780
888.6210, 1023.522
889.7480, 1053.144
890.8750, 1030.789
892.0020, 1036.449
893.1280, 1010.123
894.2540, 1047.817
895.3810, 1024.521
896.5070, 986.2488
897.6320, 1056.394
898.7580, 1010.160
899.8840, 930.9426
901.0090, 1035.745
902.1340, 1002.578
903.2590, 984.4305
904.3840, 952.3033
905.5090, 927.2032
906.6340, 904.1284
907.7580, 885.2310
908.8820, 876.0548
910.0060, 848.0615
911.1300, 844.0985
912.2540, 811.1624
913.3780, 788.6016
914.5010, 768.2490
915.6250, 736.4998
916.7480, 714.6584
917.8710, 695.8423
918.9940, 660.0551
920.1160, 638.2937
921.2390, 616.0621
922.3610, 624.8547
923.4840, 582.1755
924.6060, 561.5181
925.7280, 561.8875
926.8490, 517.2823
927.9710, 588.3179
929.0930, 529.7654
930.2140, 546.2454
931.3350, 498.6388
932.4560, 539.1337
933.5770, 464.3013
934.6980, 457.0070
935.8180, 444.6893
936.9380, 391.0388
938.0590, 346.1050
939.1790, 379.4001
940.2990, 357.7900
941.4180, 360.2809
942.5380, 381.6025
943.6570, 324.8984
944.7770, 343.2207
945.8960, 346.3448
947.0150, 366.9187
948.1340, 416.8337
949.2520, 510.3401
950.3710, 481.8521
951.4890, 584.5066
952.6070, 623.5266
953.7260, 694.5741
954.8430, 722.5791
955.9610, 799.6797
957.0790, 910.8101
958.1960, 910.9657
959.3130, 930.1511
960.4310, 1029.362
961.5480, 1065.598
962.6640, 1082.860
963.7810, 1154.023
964.8970, 1181.235
966.0140, 1286.476
967.1300, 1272.559
968.2460, 1352.595
969.3620, 1404.556
970.4780, 1433.059
971.5930, 1518.999
972.7090, 1536.396
973.8240, 1602.562
974.9390, 1691.570
976.0540, 1787.146
977.1690, 1868.754
978.2830, 1966.388
979.3980, 2032.046
980.5120, 2140.731
981.6260, 2270.440
982.7400, 2325.174
983.8540, 2445.934
984.9680, 2508.719
986.0820, 2725.529
987.1950, 2877.364
988.3080, 2975.223
989.4210, 3228.109
990.5340, 3527.019
991.6470, 3770.954
992.7600, 4265.917
993.8720, 4655.902
994.9850, 5347.914
996.0970, 5957.953
997.2090, 6879.019
998.3210, 7805.113
999.4320, 9021.233
1000.544, 10558.38
1001.655, 12569.56
1002.767, 15103.76
1003.878, 18254.48
1004.989, 21957.26
1006.100, 26282.56
1007.210, 31176.88
1008.321, 36870.23
1009.431, 42302.62
1010.541, 47442.03
1011.651, 50094.49
1012.761, 51016.96
1013.871, 49087.47
1014.980, 44493.02
1016.090, 37735.59
1017.199, 31472.21
1018.308, 24853.84
1019.417, 19690.52
1020.526, 15852.21
1021.635, 12752.95
1022.743, 10683.72
1023.852, 9006.506
1024.960, 7760.315
1026.068, 6817.148
1027.176, 6317.958
1028.283, 5633.834
1029.391, 5221.593
1030.498, 4967.317
1031.606, 4726.260
1032.713, 4626.274
1033.820, 4548.293
1034.927, 4515.385
1036.033, 4442.305
1037.140, 4435.022
1038.246, 4435.524
1039.353, 4526.475
1040.459, 4514.001
1041.564, 4577.986
1042.670, 4409.729
1043.776, 4305.805
1044.881, 4083.144
1045.987, 3837.621
1047.092, 3614.870
1048.197, 3306.820
1049.302, 3027.166
1050.406, 2805.882
1051.511, 2474.605
1052.615, 2347.636
1053.720, 2148.003
1054.824, 1914.391
1055.928, 1808.552
1057.031, 1655.356
1058.135, 1589.502
1059.238, 1533.296
1060.342, 1444.677
1061.445, 1341.278
1062.548, 1266.660
1063.651, 1184.312
1064.754, 1180.751
1065.856, 1103.732
1066.959, 1027.126
1068.061, 912.3132
1069.163, 920.7297
1070.265, 877.2485
1071.367, 848.4446
1072.469, 814.7756
1073.570, 772.6631
1074.671, 719.2646
1075.773, 679.2629
1076.874, 696.8743
1077.975, 629.4819
1079.075, 664.2472
1080.176, 628.6516
1081.276, 618.7034
1082.377, 626.1082
1083.477, 621.8820
1084.577, 582.9475
1085.677, 567.5586
1086.777, 548.6858
1087.876, 530.5908
1088.975, 536.8032
1090.075, 531.9984
1091.174, 561.1785
1092.273, 483.4377
1093.372, 467.5483
1094.470, 453.9550
1095.569, 514.7996
1096.667, 466.3269
1097.765, 465.1299
1098.863, 452.8566
1099.961, 410.7880
1101.059, 437.8672
1102.157, 438.0774
1103.254, 475.4988
1104.351, 489.5706
1105.449, 461.6182
1106.546, 453.7378
1107.642, 414.8256
1108.739, 402.9541
1109.836, 447.1292
1110.932, 435.3035
1112.028, 460.5669
1113.124, 485.6580
1114.220, 442.7534
1115.316, 433.8533
1116.412, 432.9932
1117.507, 450.1017
1118.603, 453.2139
1119.698, 429.3743
1120.793, 474.5273
1121.888, 475.7441
1122.983, 451.8705
1124.077, 448.9998
1125.172, 471.1315
1126.266, 446.2662
1127.360, 508.4047
1128.454, 449.5439
1129.548, 437.6941
1130.642, 474.8641
1131.735, 446.0087
1132.829, 423.2148
1133.922, 411.3619
1135.015, 370.5101
1136.108, 399.6592
1137.201, 349.8086
1138.294, 326.9585
1139.386, 350.1085
1140.478, 273.2583
1141.571, 299.4080
1142.663, 267.5571
1143.755, 220.7501
1144.846, 170.8975
1145.938, 147.6755
1147.030, 125.1884
1148.121, 95.33142
1149.212, 111.4725
1150.303, 89.61169
1151.394, 103.7981
1152.485, 60.98389
1153.575, 22.11536
1154.666, 4.291016
1155.756, 39.41626
1156.846, 17.60168
1157.936, 29.27991
1159.026, 3.824951
1160.116, 26.02112
1161.205, 41.93311
1162.295, 10.13379
1163.384, 1.803833
1164.473, 26.74707
1165.562, 58.70581
1166.651, 22.69727
1167.739, 17.70325
1168.828, 45.72180
1169.916, 35.76819
1171.005, 27.83783
1172.093, 49.92700
1173.181, 44.97931
1174.268, 49.13007
1175.356, 36.30951
1176.443, 21.51831
1177.531, 32.74628
1178.618, 10.99963
1179.705, 16.26770
1180.792, 22.49542
1181.879, 34.80316
1182.965, 24.13965
1184.052, 28.49982
1185.138, 27.88647
1186.224, 23.29346
1187.310, 0.7313840
1188.396, 21.18262
1189.482, 14.65845
1190.567, 7.155884
1191.653, 25.67139
1192.738, 37.21515
1193.823, 8.793823
1194.908, 20.39264
1195.993, 28.01648
1197.077, 17.67163
1198.162, 29.35315
1199.246, 16.06763
1200.331, 0.8087770
1201.415, 10.56879
1202.499, 4.311035
1203.582, 0.8447880
1204.666, 18.02380
1205.750, 3.809753
1206.833, 3.333923
1207.916, 4.458252
1208.999, 2.564026
1210.082, 10.64917
1211.165, 22.71710
1212.248, 12.77118
1213.330, 5.808105
1214.412, 26.82452
1215.495, 10.82709
1216.577, 1.810852
1217.658, 53.77100
1218.740, 1.718933
1219.822, 27.64282
1220.903, 3.551636
1221.985, 27.43646
1223.066, 36.30573
1224.147, 24.16077
1225.228, 12.99884
1226.308, 0.8161010
1227.389, 15.60724
1228.469, 18.37787
1229.550, 14.12872
1230.630, 51.85797
1231.710, 41.57355
1232.790, 32.27399
1233.869, 62.95770
1234.949, 90.62769
1236.028, 58.28412
1237.108, 68.92651
1238.187, 61.55505
1239.266, 56.16931
1240.344, 57.76892
1241.423, 50.35382
1242.502, 98.92676
1243.580, 114.4858
1244.658, 95.03082
1245.736, 73.56177
1246.814, 100.0783
1247.892, 96.58075
1248.970, 74.06909
1250.047, 77.54279
1251.125, 66.00183
1252.202, 117.4456
1253.279, 103.8750
1254.356, 101.2899
1255.433, 114.6903
1256.509, 90.07617
1257.586, 103.4475
1258.662, 89.80426
1259.738, 86.25195
1260.814, 97.47314
1261.890, 79.78528
1262.966, 105.0822
1264.042, 103.3650
1265.117, 96.63293
1266.193, 108.8860
1267.268, 129.1241
1268.343, 126.3474
1269.418, 100.5557
1270.492, 121.7491
1271.567, 143.9274
1272.642, 90.09070
1273.716, 109.2386
1274.790, 111.3717
1275.864, 128.4896
1276.938, 116.5925
1278.012, 109.6802
1279.085, 106.7527
1280.159, 92.80994
1281.232, 92.85168
1282.305, 136.8777
1283.378, 94.89734
1284.451, 114.9214
1285.524, 91.90149
1286.597, 129.8658
1287.669, 145.8583
1288.741, 94.79224
1289.813, 119.8821
1290.885, 125.0109
1291.957, 112.9298
1293.029, 132.7548
1294.101, 109.5780
1295.172, 105.3361
1296.243, 122.2715
1297.315, 117.4162
1298.386, 106.7806
1299.456, 116.7015
1300.527, 143.0527
1301.598, 78.95111
1302.668, 121.0938
1303.738, 90.09485
1304.809, 143.6537
1305.879, 129.0784
1306.948, 122.7895
1308.018, 89.75146
1309.088, 71.32397
1310.157, 113.4452
1311.226, 93.73517
1312.296, 105.6360
1313.365, 130.2050
1314.433, 75.75427
1315.502, 108.5540
1316.571, 85.69525
1317.639, 106.5018
1318.707, 120.6592
1319.776, 102.2336
1320.844, 99.61499
1321.911, 80.19751
1322.979, 77.55383
1324.047, 97.52686
1325.114, 68.54120
1326.181, 111.1926
1327.249, 100.0205
1328.316, 119.6353
1329.382, 106.1615
1330.449, 106.0428
1331.516, 91.78931
1332.582, 97.34979
1333.648, 121.6044
1334.715, 121.7193
1335.781, 111.2349
1336.846, 137.9415
1337.912, 81.32727
1338.978, 120.0864
1340.043, 110.2053
1341.108, 138.9751
1342.174, 139.3799
1343.239, 89.49640
1344.303, 71.10248
1345.368, 142.1595
1346.433, 123.4431
1347.497, 151.4609
1348.561, 89.45288
1349.626, 122.4604
1350.690, 91.38928
1351.753, 71.46716
1352.817, 127.2667
1353.881, 65.61084
1354.944, 93.44812
1356.007, 106.8349
1357.071, 106.2985
1358.134, 118.5588
1359.196, 119.7184
1360.259, 124.0953
1361.322, 114.5372
1362.384, 116.6662
1363.447, 98.82361
1364.509, 63.93079
1365.571, 115.0507
1366.633, 57.12830
1367.694, 62.15778
1368.756, 108.1866
1369.817, 70.95746
1370.879, 78.07422
1371.940, 89.17694
1373.001, 114.2742
1374.062, 71.32739
1375.122, 68.40948
1376.183, 57.54016
1377.244, 90.56592
1378.304, 109.5967
1379.364, 111.5612
1380.424, 96.61395
1381.484, 71.66095
1382.544, 94.70227
1383.603, 77.73376
1384.663, 60.79559
1385.722, 75.81635
1386.781, 81.82294
1387.840, 71.80542
1388.899, 66.82422
1389.958, 70.76190
1391.017, 40.92096
1392.075, 93.90942
1393.134, 85.89301
1394.192, 81.87207
1395.250, 52.88715
1396.308, 81.85712
1397.365, 63.83301
1398.423, 97.79218
1399.481, 62.74738
1400.538, 46.68005
1401.595, 89.66980
1402.652, 68.61761
1403.709, 56.56543
1404.766, 87.50037
1405.823, 57.41907
1406.879, 38.33392
1407.936, 42.21765
1408.992, 42.07471
1410.048, 25.97815
1411.104, 20.88660
1412.160, 49.78333
1413.215, 48.61273
1414.271, 41.50275
1415.326, 27.44165
1416.382, 18.28497
1417.437, 18.29352
1418.492, 18.23065
1419.546, 26.04907
1420.601, 29.93542
1421.656, 44.83270
1422.710, 50.73743
1423.764, 46.63800
1424.819, 32.55194
1425.873, 25.46313
1426.926, 32.37958
1427.980, 72.30151
1429.034, 63.16382
1430.087, 2.898987
1431.140, 44.04608
1432.194, 49.00220
1433.247, 8.963013
1434.299, 46.93219
1435.352, 29.33588
1436.405, 32.25671
1437.457, 34.34839
1438.510, 48.33984
1439.562, 40.17572
1440.614, 34.86188
1441.666, 15.73718
1442.717, 29.62646
1443.769, 18.52875
1444.821, 25.45636
1445.872, 42.40405
1446.923, 13.37921
1447.974, 22.38623
1449.025, 8.409485
1450.076, 9.556824
1451.127, 16.48114
1452.177, 7.530212
1453.227, 37.58868
1454.278, 35.64893
1455.328, 21.71625
1456.378, 13.79236
1457.428, 38.87598
1458.477, 0.9707640
1459.527, 4.071899
1460.576, 27.17920
1461.625, 27.30688
1462.675, 4.550781
1463.724, 39.59558
1464.772, 18.74481
1465.821, 43.89258
1466.870, 41.03943
1467.918, 36.18701
1468.966, 37.25336
1470.015, 7.465637
1471.063, 19.60413
1472.110, 14.74207
1473.158, 4.881348
1474.206, 41.02155
1475.253, 19.16235
1476.301, 24.30383
1477.348, 40.44708
1478.395, 10.59253
1479.442, 54.73846
1480.488, 5.113281
1481.535, 44.03748
1482.582, 59.19122
1483.628, 38.34875
1484.674, 3.509888
1485.720, 19.67542
1486.766, 0.8458860
1487.812, 24.02289
1488.858, 33.14526
1489.903, 9.334778
1490.949, 33.53156
1491.994, 42.62769
1493.039, 14.78503
1494.084, 26.00165
1495.129, 16.77393
1496.173, 12.45850
1497.218, 17.69910
1498.262, 13.60925
1499.307, 28.86151
1500.351, 16.02002
1501.395, 1.278992
1502.439, 23.54376
1503.483, 19.82092
1504.526, 27.07343
1505.570, 43.36652
1506.613, 27.63190
1507.656, 37.86401
1508.699, 42.22247
1509.742, 5.445313
1510.785, 28.76843
1511.827, 25.06763
1512.870, 44.12457
1513.912, 11.46161
1514.955, 19.38611
1515.997, 4.275146
1517.039, 64.06879
1518.080, 42.32941
1519.122, 51.67633
1520.164, 5.917358
1521.205, 36.28259
1522.246, 13.60364
1523.288, 19.46552
1524.329, 28.83978
1525.369, 10.07959
1526.410, 6.285522
1527.451, 15.67529
1528.491, 15.00372
1529.531, 33.41089
1530.572, 26.85510
1531.612, 31.15710
1532.652, 10.48938
1533.691, 15.62054
1534.731, 36.95892
1535.770, 3.296753
1536.810, 50.63428
1537.849, 42.84247
1538.888, 23.21228
1539.927, 6.521179
1540.966, 15.06873
1542.005, 15.42169
1543.043, 0.5453490
1544.082, 21.81915
1545.120, 31.16754
1546.158, 17.06110
1547.196, 18.27478
1548.234, 39.65771
1549.272, 17.96362
1550.309, 63.43597
1551.347, 36.43964
1552.384, 60.91534
1553.421, 28.83179
1554.458, 113.2536
1555.495, 97.70447
1556.532, 92.98181
1557.568, 67.29138
1558.605, 28.78912
1559.641, 1.656250
1560.678, 41.17236
1561.714, 13.19775
1562.750, 5.923401
1563.785, 15.67377
1564.821, 0.0000000E+00
##END=



