##NAMES=Diopside
##RRUFFID=R040097
##IDEAL CHEMISTRY=CaMgSi_2_O_6_
##LOCALITY=Fassathal, Tyrol
##OWNER=RRUFF
##SOURCE=University of Arizona Mineral Museum
##DESCRIPTION=Green prismatic crystals
##STATUS=The identification of this mineral has been confirmed by X-ray diffraction and chemical analysis
##URL=rruff.info/R040097
##MEASURED CHEMISTRY=Ca_1.00_(Mg_0.83_Al_0.10_Fe_0.09_Ca_0.02_Ti_0.02_)(Si_0.88_Al_0.12_)_2_O_6_
##PIN_ID=M00314
##ORIENTATION=Laser parallel to c [0 0 1]. Fiducial mark perpendicular to laser is parallel to b* (0 1 0)
105.212, 0.000
106.604, 157.197
107.995, 121.045
109.387, 196.294
110.777, 7.116
112.168, 103.828
113.559, 155.794
114.949, 258.059
116.339, 276.819
117.729, 331.605
119.119, 266.497
120.508, 324.059
121.897, 247.172
123.286, 276.414
124.675, 347.999
126.063, 323.661
127.452, 346.884
128.840, 403.728
130.228, 371.116
131.615, 429.973
133.003, 506.857
134.390, 502.222
135.777, 647.373
137.164, 762.895
138.550, 920.758
139.937, 1073.936
141.323, 1034.403
142.709, 941.145
144.094, 683.143
145.480, 621.310
146.865, 596.877
148.250, 365.348
149.635, 308.665
151.019, 224.488
152.403, 180.329
153.788, 98.195
155.171, 69.094
156.555, 77.031
157.939, 82.015
159.322, 15.949
160.705, 35.143
162.088, 95.707
163.470, 13.507
164.853, 29.784
166.235, 33.131
167.617, 100.701
168.998, 116.224
170.380, 147.604
171.761, 184.243
173.142, 143.959
174.523, 160.753
175.904, 178.624
177.284, 265.572
178.664, 396.598
180.044, 719.703
181.424, 1269.885
182.803, 1615.146
184.183, 2100.487
185.562, 1875.905
186.940, 1451.403
188.319, 878.084
189.698, 500.448
191.076, 489.589
192.454, 414.104
193.831, 458.074
195.209, 398.528
196.586, 408.072
197.963, 303.962
199.340, 246.928
200.717, 174.973
202.093, 204.098
203.470, 175.305
204.846, 114.594
206.221, 186.962
207.597, 241.413
208.972, 294.944
210.347, 249.558
211.722, 349.250
213.097, 320.021
214.472, 393.871
215.846, 612.793
217.220, 648.753
218.594, 744.790
219.967, 920.902
221.341, 1157.090
222.714, 1273.352
224.087, 1669.687
225.460, 1986.094
226.832, 2342.572
228.204, 2389.121
229.577, 2355.740
230.948, 2112.426
232.320, 1939.176
233.692, 1595.987
235.063, 1212.860
236.434, 959.792
237.805, 726.785
239.175, 663.837
240.545, 700.947
241.916, 638.116
243.286, 625.343
244.655, 612.625
246.025, 646.386
247.394, 647.360
248.763, 794.811
250.132, 932.316
251.501, 1089.876
252.869, 1187.488
254.237, 1185.153
255.605, 1182.103
256.973, 980.643
258.340, 1038.466
259.708, 796.344
261.075, 714.273
262.442, 562.256
263.808, 360.292
265.175, 308.379
266.541, 286.521
267.907, 284.724
269.273, 73.008
270.639, 30.646
272.004, 55.639
273.369, 213.163
274.734, 101.819
276.099, 155.093
277.463, 59.394
278.828, 82.471
280.192, 194.406
281.556, 78.218
282.919, 120.865
284.283, 16.569
285.646, 154.168
287.009, 211.861
288.372, 339.645
289.734, 397.534
291.097, 555.510
292.459, 613.573
293.821, 691.729
295.183, 809.981
296.544, 935.015
297.905, 1166.721
299.266, 1275.127
300.627, 1463.596
301.988, 1712.133
303.348, 2040.729
304.709, 2249.379
306.069, 2568.086
307.428, 3106.847
308.788, 3515.658
310.147, 4374.520
311.507, 5073.430
312.865, 6092.383
314.224, 6981.375
315.583, 7970.408
316.941, 9039.477
318.299, 10088.581
319.657, 11647.725
321.015, 13296.903
322.372, 14006.118
323.729, 15345.094
325.086, 15724.381
326.443, 15480.684
327.800, 14140.043
329.156, 12959.438
330.512, 11298.866
331.868, 9448.328
333.224, 8407.825
334.579, 6977.354
335.935, 6066.916
337.290, 5146.514
338.645, 4556.141
339.999, 4185.800
341.354, 3595.492
342.708, 3365.214
344.062, 2824.967
345.416, 2694.748
346.769, 2454.560
348.123, 2434.400
349.476, 2394.270
350.829, 2350.017
352.182, 2394.086
353.534, 2423.967
354.887, 2493.812
356.239, 2613.654
357.591, 2343.456
358.942, 2353.261
360.294, 2023.097
361.645, 2102.961
362.996, 2112.857
364.347, 2062.781
365.698, 2082.735
367.048, 2002.718
368.398, 2042.728
369.748, 2342.766
371.098, 2442.830
372.448, 2822.922
373.797, 2853.041
375.146, 3273.185
376.495, 3613.353
377.844, 4313.547
379.192, 5013.764
380.540, 5784.007
381.889, 7184.272
383.236, 8254.561
384.584, 10094.873
385.932, 12245.205
387.279, 14895.562
388.626, 17375.938
389.973, 19726.336
391.319, 22126.756
392.666, 22567.199
394.012, 21557.656
395.358, 20168.135
396.704, 16898.633
398.049, 14109.157
399.394, 11209.697
400.740, 9080.287
402.084, 7060.900
403.429, 5241.557
404.774, 4442.233
406.118, 3292.936
407.462, 2753.700
408.806, 2164.488
410.150, 1875.315
411.493, 1496.168
412.836, 1197.039
414.179, 1217.980
415.522, 798.946
416.865, 879.934
418.207, 940.973
419.549, 572.031
420.891, 783.119
422.233, 604.239
423.575, 775.388
424.916, 506.850
426.257, 528.709
427.598, 650.454
428.939, 402.052
430.279, 478.645
431.619, 340.114
432.959, 383.232
434.299, 446.526
435.639, 260.967
436.978, 314.217
438.318, 387.623
439.657, 312.295
440.996, 349.954
442.334, 255.604
443.673, 392.370
445.011, 161.463
446.349, 272.212
447.687, 347.525
449.024, 262.034
450.361, 341.226
451.699, 195.914
453.036, 301.656
454.372, 229.329
455.709, 478.407
457.045, 467.012
458.381, 459.269
459.717, 526.935
461.053, 459.342
462.388, 463.289
463.724, 545.386
465.059, 567.282
466.394, 554.659
467.728, 451.733
469.063, 493.450
470.397, 415.105
471.731, 336.756
473.065, 488.398
474.398, 370.034
475.732, 471.664
477.065, 213.284
478.398, 354.896
479.731, 306.500
481.063, 238.096
482.396, 309.682
483.728, 211.256
485.060, 302.822
486.391, 424.378
487.723, 335.937
489.054, 297.483
490.385, 249.018
491.716, 350.540
493.047, 242.051
494.377, 413.547
495.708, 425.031
497.038, 336.501
498.368, 327.957
499.697, 279.398
501.027, 250.824
502.356, 402.235
503.685, 143.632
505.014, 545.011
506.342, 336.374
507.671, 427.723
508.999, 399.052
510.327, 470.363
511.655, 671.659
512.982, 662.936
514.310, 614.193
515.637, 855.435
516.964, 686.657
518.291, 927.860
519.617, 959.046
520.944, 940.213
522.270, 1111.359
523.596, 1382.486
524.921, 1473.593
526.247, 1464.679
527.572, 1765.744
528.897, 1656.789
530.222, 1657.812
531.547, 1698.813
532.871, 1529.792
534.196, 1498.719
535.520, 1361.683
536.844, 1312.592
538.167, 1143.479
539.491, 1094.342
540.814, 955.182
542.137, 905.996
543.460, 886.786
544.783, 837.550
546.105, 878.289
547.427, 849.002
548.749, 829.688
550.071, 960.350
551.393, 920.983
552.714, 922.190
554.035, 1052.771
555.356, 913.322
556.677, 1164.552
557.998, 1305.691
559.318, 1033.359
560.638, 1204.441
561.958, 870.880
563.278, 872.834
564.597, 1024.647
565.917, 595.857
567.236, 717.880
568.555, 522.875
569.874, 705.718
571.192, 536.768
572.511, 610.352
573.829, 572.497
575.147, 494.448
576.464, 403.475
577.782, 454.840
579.099, 358.962
580.416, 482.835
581.733, 277.087
583.050, 179.256
584.366, 90.112
585.683, 138.716
586.999, 179.265
588.315, 25.063
589.630, 240.569
590.946, 30.563
592.261, 50.263
593.576, 144.185
594.891, 159.528
596.206, 31.754
597.520, 312.277
598.834, 52.362
600.148, 92.921
601.462, 193.849
602.776, 116.029
604.089, 225.182
605.402, 23.308
606.715, 41.790
608.028, 40.079
609.341, 38.322
610.653, 16.264
611.965, 14.768
613.277, 37.011
614.589, 29.367
615.901, 188.167
617.212, 14.351
618.523, 153.029
619.834, 60.451
621.145, 227.708
622.456, 274.913
623.766, 162.069
625.076, 229.171
626.386, 316.469
627.696, 353.470
629.006, 400.470
630.315, 357.373
631.624, 494.331
632.933, 531.139
634.242, 547.896
635.551, 684.604
636.859, 761.265
638.167, 887.876
639.475, 804.438
640.783, 930.951
642.090, 1147.416
643.398, 1113.831
644.705, 1470.196
646.012, 1616.514
647.318, 1692.780
648.625, 1918.999
649.931, 2185.167
651.237, 2921.287
652.543, 2897.357
653.849, 3483.377
655.155, 4289.350
656.460, 4735.272
657.765, 5811.146
659.070, 6726.969
660.375, 8262.742
661.679, 9868.468
662.984, 11544.145
664.288, 13929.769
665.592, 14405.345
666.895, 14950.873
668.199, 14546.351
669.502, 12691.779
670.805, 11327.156
672.108, 9182.489
673.411, 7817.770
674.713, 6563.002
676.016, 5258.185
677.318, 4503.318
678.620, 3818.401
679.921, 3183.438
681.223, 2858.424
682.524, 2563.360
683.825, 2148.250
685.126, 1813.088
686.427, 1707.879
687.727, 1512.621
689.028, 1167.314
690.328, 1301.959
691.628, 956.557
692.927, 1011.104
694.227, 985.604
695.526, 690.058
696.825, 744.462
698.124, 588.820
699.423, 603.130
700.721, 597.394
702.020, 391.609
703.318, 565.778
704.616, 389.902
705.913, 733.977
707.211, 388.008
708.508, 171.990
709.805, 325.923
711.102, 329.809
712.399, 143.649
713.695, 157.438
714.992, 58.822
716.288, 154.808
717.584, 41.613
718.879, 41.866
720.175, 45.287
721.470, 121.351
722.765, 31.874
724.060, 24.963
725.355, 8.113
726.649, 91.120
727.944, 165.924
729.238, 16.873
730.532, 19.607
731.825, 97.720
733.119, 34.833
734.412, 22.671
735.705, 20.255
736.998, 27.916
738.291, 155.659
739.584, 46.200
740.876, 102.372
742.168, 79.100
743.460, 59.316
744.752, 62.787
746.043, 158.808
747.334, 131.838
748.626, 42.157
749.916, 81.296
751.207, 114.482
752.498, 159.988
753.788, 3.220
755.078, 49.810
756.368, 100.228
757.658, 25.749
758.947, 94.368
760.237, 96.278
761.526, 73.599
762.815, 231.697
764.104, 35.087
765.392, 192.953
766.680, 30.263
767.969, 184.560
769.257, 107.950
770.544, 211.788
771.832, 101.946
773.119, 86.667
774.406, 56.621
775.693, 355.006
776.980, 75.217
778.267, 245.600
779.553, 165.483
780.839, 5.623
782.125, 196.100
783.411, 46.610
784.697, 147.098
785.982, 27.562
787.267, 228.007
788.552, 198.430
789.837, 248.832
791.122, 329.215
792.406, 319.576
793.690, 299.918
794.974, 360.240
796.258, 270.544
797.542, 360.828
798.825, 241.095
800.108, 191.342
801.391, 301.573
802.674, 301.786
803.957, 421.982
805.239, 302.160
806.522, 192.324
807.804, 412.471
809.085, 222.602
810.367, 512.717
811.649, 522.817
812.930, 512.902
814.211, 582.973
815.492, 573.029
816.772, 723.073
818.053, 853.102
819.333, 623.117
820.613, 953.121
821.893, 883.112
823.173, 913.090
824.452, 1013.055
825.732, 933.009
827.011, 1052.951
828.290, 912.884
829.568, 912.804
830.847, 852.715
832.125, 812.616
833.403, 782.509
834.681, 802.393
835.959, 722.269
837.236, 756.396
838.514, 611.995
839.791, 721.869
841.068, 711.734
842.345, 551.621
843.621, 681.504
844.898, 421.380
846.174, 541.288
847.450, 511.191
848.726, 471.089
850.001, 631.033
851.277, 440.973
852.552, 760.925
853.827, 930.907
855.102, 520.888
856.376, 970.881
857.651, 810.873
858.925, 690.860
860.199, 850.889
861.473, 660.916
862.746, 900.344
864.020, 620.423
865.293, 890.500
866.566, 869.940
867.839, 669.445
869.112, 682.396
870.384, 721.924
871.656, 606.065
872.928, 824.691
874.200, 443.453
875.472, 682.788
876.744, 721.301
878.015, 496.814
879.286, 634.453
880.557, 403.869
881.828, 520.722
883.098, 588.986
884.369, 387.466
885.639, 448.847
886.909, 447.867
888.178, 414.104
889.448, 420.565
890.717, 376.632
891.987, 584.756
893.256, 344.165
894.524, 285.799
895.793, 475.455
897.061, 169.959
898.330, 444.453
899.598, 334.559
900.865, 144.930
902.133, 441.037
903.401, 274.791
904.668, 196.980
905.935, 237.430
907.202, 147.320
908.468, 347.627
909.735, 318.262
911.001, 237.998
912.267, 388.807
913.533, 99.811
914.799, 450.775
916.064, 632.051
917.330, 392.998
918.595, 474.363
919.860, 174.654
921.124, 386.104
922.389, 257.605
923.653, 339.160
924.918, 550.736
926.182, 362.355
927.445, 343.910
928.709, 525.588
929.972, 167.285
931.236, 689.010
932.499, 400.754
933.761, 482.273
935.024, 664.062
936.286, 525.822
937.549, 597.648
938.811, 469.393
940.073, 581.258
941.334, 723.148
942.596, 505.059
943.857, 816.988
945.118, 928.941
946.379, 650.910
947.640, 1062.908
948.900, 814.926
950.161, 876.963
951.421, 1099.025
952.681, 771.104
953.940, 1093.205
955.200, 1335.326
956.459, 977.467
957.719, 1259.850
958.978, 1202.037
960.236, 1564.246
961.495, 1566.479
962.753, 1548.730
964.012, 1861.004
965.270, 1513.301
966.527, 1875.814
967.785, 1978.152
969.043, 1890.510
970.300, 2332.887
971.557, 2035.285
972.814, 2287.705
974.071, 2500.143
975.327, 2262.609
976.583, 2555.094
977.840, 2747.602
979.095, 2670.131
980.351, 3082.822
981.607, 2825.395
982.862, 3157.984
984.117, 3591.029
985.372, 3563.662
986.627, 4066.748
987.882, 4139.422
989.136, 4592.297
990.390, 5299.898
991.644, 5392.635
992.898, 6631.676
994.152, 6835.178
995.405, 8147.980
996.659, 9969.699
997.912, 10682.932
999.165, 12985.799
1000.417, 14990.918
1001.670, 17143.826
1002.922, 21110.555
1004.174, 23621.525
1005.426, 27244.809
1006.678, 32121.646
1007.930, 34265.137
1009.181, 39128.219
1010.432, 39770.926
1011.683, 38814.637
1012.934, 35448.559
1014.185, 29434.025
1015.435, 23627.156
1016.685, 18366.709
1017.935, 14501.496
1019.185, 11184.637
1020.435, 8632.660
1021.684, 7396.223
1022.934, 6415.756
1024.183, 5334.535
1025.432, 5357.908
1026.680, 4375.557
1027.929, 4229.855
1029.177, 4273.846
1030.425, 3680.031
1031.673, 3733.898
1032.921, 3738.467
1034.169, 3373.623
1035.416, 3488.572
1036.663, 3533.875
1037.911, 3358.457
1039.157, 3733.066
1040.404, 3260.098
1041.650, 3874.352
1042.897, 3799.609
1044.143, 3533.723
1045.389, 3687.885
1046.634, 3512.648
1047.880, 3337.326
1049.125, 3222.420
1050.371, 2657.945
1051.615, 2472.234
1052.860, 2358.188
1054.105, 2033.023
1055.349, 2237.426
1056.593, 1492.750
1057.837, 1457.672
1059.081, 1602.311
1060.325, 1137.658
1061.568, 1282.113
1062.812, 957.613
1064.055, 1062.994
1065.298, 1187.439
1066.540, 812.754
1067.783, 858.080
1069.025, 802.574
1070.267, 497.709
1071.509, 832.473
1072.751, 737.539
1073.993, 642.357
1075.234, 836.756
1076.475, 432.465
1077.716, 767.010
1078.957, 391.371
1080.198, 377.053
1081.438, 711.393
1082.679, 406.498
1083.919, 551.062
1085.159, 615.359
1086.398, 230.057
1087.638, 564.551
1088.877, 528.805
1090.116, 424.102
1091.355, 468.857
1092.594, 393.061
1093.833, 648.240
1095.071, 382.412
1096.309, 268.273
1097.547, 502.621
1098.785, 247.225
1100.023, 231.996
1101.260, 256.068
1102.498, 170.676
1103.735, 335.539
1104.972, 319.547
1106.208, 14.869
1107.445, 529.480
1108.681, 153.422
1109.918, 279.199
1111.154, 513.094
1112.389, 217.705
1113.625, 492.400
1114.860, 46.217
1116.096, 331.162
1117.331, 445.059
1118.566, 259.039
1119.800, 493.438
1121.035, 307.666
1122.269, 391.324
1123.503, 617.469
1124.737, 191.076
1125.971, 236.152
1127.205, 389.951
1128.438, 103.541
1129.671, 288.691
1130.904, 272.148
1132.137, 45.725
1133.370, 410.867
1134.602, 54.771
1135.834, 268.545
1137.066, 122.521
1138.298, 94.223
1139.530, 331.740
1140.762, 114.256
1141.993, 8.789
1143.224, 354.088
1144.455, 151.303
1145.686, 101.961
1146.917, 267.305
1148.147, 199.930
1149.377, 295.016
1150.607, 61.268
1151.837, 128.594
1153.067, 148.641
1154.296, 57.932
1155.526, 115.291
1156.755, 220.035
1157.984, 146.973
1159.213, 86.682
1160.441, 41.000
1161.670, 185.863
1162.898, 279.072
1164.126, 247.758
1165.354, 54.232
1166.581, 88.426
1167.809, 58.941
1169.036, 194.602
1170.263, 78.262
1171.490, 64.572
1172.717, 413.855
1173.943, 39.713
1175.170, 103.750
1176.396, 225.188
1177.622, 2.363
1178.848, 270.180
1180.073, 142.691
1181.299, 135.730
1182.524, 66.758
1183.749, 33.826
1184.974, 184.752
1186.199, 205.578
1187.423, 7.049
1188.648, 307.766
1189.872, 114.896
1191.096, 414.904
1192.320, 467.410
1193.543, 259.529
1194.767, 289.895
1195.990, 200.781
1197.213, 101.863
1198.436, 502.072
1199.659, 67.342
1200.881, 307.375
1202.104, 607.807
1203.326, 211.369
1204.548, 311.420
1205.770, 381.527
1206.991, 228.953
1208.213, 497.982
1209.434, 198.490
1210.655, 228.418
1211.876, 527.223
1213.096, 247.648
1214.317, 246.625
1215.537, 445.658
1216.757, 295.832
1217.977, 384.648
1219.197, 314.629
1220.417, 373.230
1221.636, 611.598
1222.855, 160.652
1224.074, 438.703
1225.293, 616.682
1226.512, 165.537
1227.731, 613.357
1228.949, 301.244
1230.167, 429.523
1231.385, 587.117
1232.603, 396.105
1233.820, 443.570
1235.038, 590.955
1236.255, 249.137
1237.472, 376.375
1238.689, 543.535
1239.906, 272.055
1241.122, 739.055
1242.338, 146.199
1243.555, 463.184
1244.771, 399.922
1245.986, 356.736
1247.202, 643.699
1248.417, 390.248
1249.633, 327.215
1250.848, 623.627
1252.063, 210.510
1253.277, 376.572
1254.492, 712.783
1255.706, 149.398
1256.920, 595.473
1258.134, 361.475
1259.348, 337.645
1260.562, 613.498
1261.775, 269.088
1262.988, 515.861
1264.201, 491.502
1265.414, 387.145
1266.627, 422.641
1267.839, 668.045
1269.052, 124.039
1270.264, 659.916
1271.476, 215.082
1272.688, 500.611
1273.899, 545.590
1275.111, 200.344
1276.322, 615.432
1277.533, 530.148
1278.744, 194.344
1279.955, 439.904
1281.165, 463.896
1282.376, 409.137
1283.586, 623.234
1284.796, 122.334
1286.006, 366.168
1287.215, 573.598
1288.425, 146.441
1289.634, 210.100
1290.843, 464.748
1292.052, 127.551
1293.261, 701.166
1294.469, 131.947
1295.678, 284.865
1296.886, 513.836
1298.094, 38.494
1299.302, 292.428
1300.509, 321.020
1301.717, 112.898
1302.924, 355.219
1304.131, 187.725
1305.338, 119.152
1306.545, 263.400
1307.752, 72.941
1308.958, 204.744
1310.164, 420.047
1311.370, 80.814
1312.576, 241.623
1313.782, 108.273
1314.987, 0.689
1316.193, 85.318
1317.398, 28.967
1318.603, 2.086
1319.807, 79.252
1321.012, 240.719
1322.216, 159.568
1323.421, 137.590
1324.625, 102.145
1325.829, 287.406
1327.032, 106.287
1328.236, 24.697
1329.439, 363.922
1330.642, 86.822
1331.845, 202.342
1333.048, 359.014
1334.251, 191.598
1335.453, 576.742
1336.656, 66.139
1337.858, 85.445
1339.060, 364.074
1340.261, 222.736
1341.463, 170.926
1342.664, 348.607
1343.866, 12.502
1345.067, 354.643
1346.267, 242.875
1347.468, 11.488
1348.669, 299.057
1349.869, 266.955
1351.069, 54.941
1352.269, 502.379
1353.469, 150.500
1354.668, 237.492
1355.868, 564.521
1357.067, 132.404
1358.266, 409.340
1359.465, 376.375
1360.664, 133.973
1361.862, 390.852
1363.061, 138.025
1364.259, 404.820
1365.457, 441.781
1366.655, 259.088
1367.852, 755.008
1369.050, 492.020
1370.247, 249.139
1371.444, 564.865
1372.641, 442.506
1373.838, 328.676
1375.035, 755.314
1376.231, 156.480
1377.427, 502.865
1378.623, 589.400
1379.819, 267.820
1381.015, 503.406
1382.211, 709.482
1383.406, 156.607
1384.601, 741.299
1385.796, 417.018
1386.991, 429.938
1388.185, 793.287
1389.380, 432.740
1390.574, 382.688
1391.768, 652.232
1392.962, 350.457
1394.156, 658.658
1395.350, 337.893
1396.543, 476.885
1397.736, 565.283
1398.929, 353.930
1400.122, 612.859
1401.315, 749.484
1402.507, 406.783
1403.700, 543.953
1404.892, 472.758
1406.084, 208.992
1407.276, 816.400
1408.467, 441.766
1409.659, 459.283
1410.850, 763.051
1412.041, 297.900
1413.232, 303.400
1414.423, 840.070
1415.614, 341.002
1416.804, 624.793
1417.994, 619.785
1419.184, 383.287
1420.374, 675.375
1421.564, 479.320
1422.753, 202.807
1423.943, 789.566
1425.132, 200.168
1426.321, 356.246
1427.510, 738.693
1428.698, 457.900
1429.887, 382.539
1431.075, 403.307
1432.263, 327.080
1433.451, 288.395
1434.639, 487.209
1435.827, 220.439
1437.014, 633.041
1438.201, 328.871
1439.388, 375.975
1440.575, 848.402
1441.762, 10.117
1442.949, 460.699
1444.135, 552.584
1445.321, 285.855
1446.507, 556.834
1447.693, 727.814
1448.879, 29.889
1450.064, 954.193
1451.250, 316.473
1452.435, 338.986
1453.620, 740.027
1454.805, 413.578
1455.989, 305.352
1457.174, 815.863
1458.358, 68.594
1459.542, 701.404
1460.726, 353.352
1461.910, 185.037
1463.093, 796.367
1464.277, 538.570
1465.460, 289.502
1466.643, 950.693
1467.826, 472.180
1469.009, 550.969
1470.191, 1111.760
1471.373, 300.967
1472.556, 1079.967
1473.738, 519.227
1474.919, 558.746
1476.101, 598.844
1477.283, 876.117
1478.464, 393.422
1479.645, 794.213
1480.826, 435.418
1482.007, 605.670
1483.187, 915.883
1484.368, 257.561
1485.548, 929.521
1486.728, 646.203
1487.908, 227.914
1489.088, 950.020
1490.268, 530.963
1491.447, 462.633
1492.626, 704.262
1493.805, 475.855
1494.984, 523.393
1496.163, 862.965
1497.341, 254.205
1498.520, 425.418
1499.698, 926.652
1500.876, 167.977
1502.054, 479.467
1503.232, 691.102
1504.409, 273.051
1505.586, 915.156
1506.763, 397.396
1507.940, 409.689
1509.117, 692.197
1510.294, 305.168
1511.470, 378.623
1512.647, 742.410
1513.823, 76.770
1514.999, 911.543
1516.174, 554.842
1517.350, 39.496
1518.526, 616.777
1519.701, 603.811
1520.876, 21.703
1522.051, 998.898
1523.226, 406.889
1524.400, 20.861
1525.574, 648.850
1526.749, 28.867
1527.923, 107.533
1529.097, 0.000
##END=



