##NAMES=Diopside
##RRUFFID=R060276
##IDEAL CHEMISTRY=CaMgSi_2_O_6_
##LOCALITY=Inagli, Yakutia, Siberia, Russia
##OWNER=RRUFF
##SOURCE=Herb Obodda
##DESCRIPTION=Transparent green cleavage fragment
##STATUS=The identification of this mineral has been confirmed by X-ray diffraction and chemical analysis
##URL=rruff.info/R060276
##MEASURED CHEMISTRY=(Ca_0.97_Na_0.03_)_Σ=1_(Mg_0.96_Fe_0.03_Cr_0.01_)_Σ=1_(Si_1.98_Al_0.02_)_Σ=2_O_6_
##PIN_ID=L01321
##ORIENTATION=Laser parallel to (1 0 1). Fiducial mark perpendicular to laser is parallel to -b [0 -1 0]
109.5120, 0.0000000E+00
110.7440, 0.1611330
111.9760, 8.232178
113.2080, 4.515869
114.4400, 162.4478
115.6710, 185.9761
116.9030, 229.3142
118.1340, 118.6689
119.3650, 87.90674
120.5960, 0.1145020
121.8270, 19.44214
123.0580, 11.03467
124.2880, 164.1440
125.5190, 134.7393
126.7490, 117.7180
127.9790, 399.0088
129.2090, 541.5601
130.4390, 743.3704
131.6680, 899.4636
132.8980, 1125.792
134.1270, 1293.277
135.3560, 1548.545
136.5850, 1779.743
137.8140, 1813.888
139.0430, 1979.991
140.2710, 2254.065
141.5000, 2383.119
142.7280, 2425.160
143.9560, 2217.196
145.1840, 1761.234
146.4120, 1138.278
147.6390, 631.3340
148.8670, 534.4028
150.0940, 300.7195
151.3210, 325.5842
152.5490, 198.5574
153.7750, 210.4751
155.0020, 260.3467
156.2290, 267.1794
157.4550, 401.9248
158.6810, 500.3877
159.9080, 628.2922
161.1340, 710.2764
162.3590, 833.2896
163.5850, 931.3333
164.8110, 941.4087
166.0360, 892.5161
167.2610, 890.6575
168.4860, 805.5410
169.7110, 726.3628
170.9360, 607.2876
172.1610, 505.5642
173.3850, 374.8740
174.6100, 235.2173
175.8340, 283.5942
177.0580, 423.0063
178.2820, 473.4531
179.5050, 476.9360
180.7290, 526.4546
181.9520, 617.0098
183.1760, 821.6199
184.3990, 853.2700
185.6220, 751.9268
186.8450, 682.6001
188.0670, 530.2842
189.2900, 375.0200
190.5120, 427.0073
191.7340, 385.5447
192.9560, 385.1392
194.1780, 464.1313
195.4000, 415.4790
196.6220, 458.8638
197.8430, 440.2852
199.0640, 339.7432
200.2860, 240.2373
201.5070, 120.7676
202.7270, 107.3337
203.9480, 10.93555
205.1690, 44.40356
206.3890, 58.66626
207.6090, 62.86816
208.8290, 29.03296
210.0490, 25.80054
211.2690, 127.7256
212.4890, 210.6489
213.7080, 271.8154
214.9280, 417.0793
216.1470, 514.6033
217.3660, 735.6506
218.5850, 1056.730
219.8030, 1429.842
221.0220, 1804.985
222.2400, 2218.160
223.4590, 2668.366
224.6770, 3105.601
225.8950, 3588.864
227.1120, 3872.156
228.3300, 3940.477
229.5480, 3924.830
230.7650, 4079.200
231.9820, 3921.539
233.1990, 3553.884
234.4160, 2978.258
235.6330, 2356.662
236.8490, 1720.097
238.0660, 1369.562
239.2820, 939.0562
240.4980, 772.5801
241.7140, 663.1338
242.9300, 555.7170
244.1460, 543.3298
245.3610, 415.9722
246.5770, 538.6428
247.7920, 570.3428
249.0070, 586.0720
250.2220, 561.8298
251.4370, 688.6162
252.6510, 643.4314
253.8660, 618.2747
255.0800, 706.1462
256.2940, 688.3691
257.5080, 797.0339
258.7220, 859.2766
259.9360, 656.2100
261.1490, 289.9211
262.3630, 113.3491
263.5760, 101.7871
264.7890, 37.09912
266.0020, 41.37207
267.2150, 30.97827
268.4270, 34.67432
269.6400, 75.20435
270.8520, 63.50537
272.0640, 11.21802
273.2760, 131.0249
274.4880, 17.26294
275.7000, 42.47266
276.9120, 45.65991
278.1230, 0.8266600
279.3340, 6.033447
280.5450, 21.91602
281.7560, 116.8171
282.9670, 172.7373
284.1780, 152.6765
285.3880, 294.6348
286.5980, 377.6130
287.8090, 469.6108
289.0190, 729.6284
290.2290, 855.6655
291.4380, 933.7222
292.6480, 1159.799
293.8570, 1461.895
295.0670, 1792.011
296.2760, 2168.145
297.4850, 2557.302
298.6930, 2975.486
299.9020, 3110.796
301.1110, 3310.374
302.3190, 3626.677
303.5270, 3776.450
304.7350, 3996.419
305.9430, 3930.581
307.1510, 3975.856
308.3580, 3977.023
309.5660, 4335.219
310.7730, 4709.454
311.9800, 5488.725
313.1870, 6350.026
314.3940, 7497.362
315.6010, 8651.728
316.8070, 9648.126
318.0130, 10791.56
319.2200, 11850.03
320.4260, 13166.53
321.6310, 14096.04
322.8370, 14866.59
324.0430, 15723.17
325.2480, 15945.76
326.4540, 15461.38
327.6590, 14115.01
328.8640, 12522.67
330.0680, 10326.34
331.2730, 8526.036
332.4780, 7032.748
333.6820, 5902.480
334.8860, 4912.222
336.0900, 4141.935
337.2940, 3781.618
338.4980, 3549.304
339.7010, 3352.995
340.9050, 3173.708
342.1080, 3427.440
343.3110, 3598.192
344.5140, 3770.966
345.7170, 4344.756
346.9200, 4953.569
348.1220, 5799.907
349.3240, 6569.758
350.5270, 7414.003
351.7290, 8323.466
352.9310, 9109.861
354.1320, 9746.112
355.3340, 9979.055
356.5350, 10375.02
357.7370, 10247.00
358.9380, 10085.00
360.1390, 9654.021
361.3400, 8781.056
362.5400, 7963.111
363.7410, 7145.181
364.9410, 6586.270
366.1410, 5838.377
367.3410, 5486.502
368.5410, 5004.643
369.7410, 4835.799
370.9400, 4526.974
372.1400, 4208.166
373.3390, 4071.374
374.5380, 4070.598
375.7370, 4374.842
376.9360, 4916.100
378.1350, 5542.375
379.3330, 6730.667
380.5310, 8021.975
381.7300, 9688.300
382.9280, 11228.64
384.1260, 13079.00
385.3230, 14898.38
386.5210, 16612.77
387.7180, 18161.18
388.9160, 19541.60
390.1130, 20448.04
391.3100, 20958.49
392.5060, 20806.96
393.7030, 19445.45
394.9000, 16869.95
396.0960, 13818.47
397.2920, 10966.01
398.4880, 8593.559
399.6840, 6497.124
400.8800, 5135.695
402.0750, 3970.284
403.2710, 3164.892
404.4660, 2464.521
405.6610, 1964.165
406.8560, 1646.828
408.0510, 1319.509
409.2450, 1055.208
410.4400, 957.9268
411.6340, 789.5337
412.8280, 647.2988
414.0220, 633.9062
415.2160, 545.1235
416.4100, 503.9414
417.6030, 387.5073
418.7970, 348.8032
419.9900, 397.0859
421.1830, 288.2427
422.3760, 341.0879
423.5690, 239.0024
424.7610, 202.9336
425.9540, 255.8799
427.1460, 137.8413
428.3380, 124.8188
429.5300, 132.8115
430.7220, 59.81934
431.9140, 54.84229
433.1050, 38.87988
434.2970, 10.93262
435.4880, 22.99951
436.6790, 54.08105
437.8700, 34.33447
439.0610, 25.30225
440.2510, 2.412109
441.4420, 37.44971
442.6320, 40.28906
443.8220, 46.53320
445.0120, 63.01172
446.2020, 24.86816
447.3910, 32.71533
448.5810, 2.426758
449.7700, 8.220215
450.9600, 118.0479
452.1490, 99.17773
453.3370, 201.8330
454.5260, 121.7100
455.7150, 306.2295
456.9030, 336.7759
458.0910, 471.0801
459.2800, 515.0127
460.4670, 592.6128
461.6550, 631.9434
462.8430, 636.0747
464.0300, 624.5386
465.2180, 621.8877
466.4050, 624.5503
467.5920, 618.0986
468.7790, 539.6060
469.9650, 364.3804
471.1520, 352.9141
472.3380, 280.0508
473.5250, 170.8525
474.7110, 236.4531
475.8970, 47.07324
477.0820, 159.7031
478.2680, 105.3442
479.4540, 109.9956
480.6390, 97.66406
481.8240, 100.3447
483.0090, 90.03760
484.1940, 75.73877
485.3780, 63.44824
486.5630, 38.16553
487.7470, 24.71875
488.9320, 47.62305
490.1160, 13.63867
491.3000, 53.10156
492.4830, 34.84912
493.6670, 167.6143
494.8500, 48.59668
496.0340, 65.19434
497.2170, 18.99756
498.4000, 120.8066
499.5820, 74.62109
500.7650, 53.44238
501.9480, 146.2695
503.1300, 146.1030
504.3120, 157.9414
505.4940, 214.7852
506.6760, 231.6382
507.8580, 202.4956
509.0390, 227.3589
510.2210, 322.2261
511.4020, 397.0977
512.5830, 366.9741
513.7640, 323.8545
514.9450, 367.7451
516.1250, 427.6475
517.3060, 432.5659
518.4860, 620.5029
519.6660, 709.4575
520.8460, 703.4219
522.0260, 889.3989
523.2060, 988.3936
524.3850, 1125.404
525.5650, 1303.417
526.7440, 1426.441
527.9230, 1499.485
529.1020, 1588.537
530.2810, 1624.618
531.4590, 1564.701
532.6380, 1578.800
533.8160, 1514.927
534.9940, 1290.055
536.1720, 1149.206
537.3500, 1101.385
538.5270, 981.5723
539.7050, 909.7729
540.8820, 900.9727
542.0590, 878.1973
543.2360, 913.3164
544.4130, 927.6558
545.5900, 1076.896
546.7660, 1159.144
547.9430, 1351.390
549.1190, 1708.634
550.2950, 1968.875
551.4710, 2380.112
552.6470, 2993.345
553.8220, 3189.581
554.9980, 3637.813
556.1730, 3949.053
557.3480, 4176.301
558.5230, 4082.546
559.6980, 4014.814
560.8730, 3840.080
562.0470, 3471.346
563.2220, 2832.613
564.3960, 2243.875
565.5700, 1734.129
566.7440, 1337.377
567.9170, 1016.764
569.0910, 920.8491
570.2640, 646.0742
571.4380, 543.2910
572.6110, 553.4995
573.7840, 413.6992
574.9570, 405.8901
576.1290, 372.0728
577.3020, 258.2461
578.4740, 285.4102
579.6460, 248.5645
580.8180, 189.8350
581.9900, 174.9644
583.1620, 192.3135
584.3330, 117.3467
585.5040, 183.4355
586.6760, 125.7427
587.8470, 83.70068
589.0180, 13.20410
590.1880, 27.77197
591.3590, 22.47461
592.5290, 19.56836
593.7000, 59.08154
594.8700, 46.02100
596.0400, 23.48389
597.2090, 37.65527
598.3790, 16.36719
599.5490, 41.63672
600.7180, 35.58008
601.8870, 46.42578
603.0560, 4.772461
604.2250, 3.601563
605.3940, 11.82324
606.5620, 15.52197
607.7300, 48.24268
608.8990, 64.78711
610.0670, 33.05127
611.2350, 97.96240
612.4020, 23.41602
613.5700, 39.79053
614.7370, 129.9028
615.9050, 150.6699
617.0720, 175.5898
618.2390, 153.7729
619.4060, 190.6201
620.5720, 251.1108
621.7390, 197.3281
622.9050, 304.6289
624.0710, 283.2236
625.2370, 399.7266
626.4030, 435.1919
627.5690, 569.5854
628.7340, 575.9912
629.9000, 566.1865
631.0650, 600.0737
632.2300, 760.3560
633.3950, 699.7124
634.5600, 854.2607
635.7240, 896.1738
636.8890, 973.2305
638.0530, 1044.353
639.2170, 1086.390
640.3810, 1347.933
641.5450, 1346.117
642.7080, 1493.554
643.8720, 1678.714
645.0350, 2047.797
646.1980, 2247.808
647.3610, 2692.967
648.5240, 2951.203
649.6870, 3566.270
650.8490, 4137.284
652.0120, 5141.536
653.1740, 6131.700
654.3360, 7449.773
655.4980, 9035.682
656.6600, 11010.31
657.8210, 13742.66
658.9830, 16342.69
660.1440, 18811.03
661.3050, 21814.16
662.4660, 24391.15
663.6270, 26713.05
664.7870, 28411.98
665.9480, 29763.52
667.1080, 29788.49
668.2680, 28985.49
669.4280, 26547.50
670.5880, 22802.20
671.7480, 19316.36
672.9070, 15686.09
674.0670, 12516.87
675.2260, 10097.40
676.3850, 8132.438
677.5440, 6653.517
678.7030, 5461.042
679.8610, 4513.431
681.0200, 3757.479
682.1780, 3287.129
683.3360, 2779.556
684.4940, 2439.241
685.6520, 2228.818
686.8090, 1971.845
687.9670, 1715.064
689.1240, 1478.929
690.2810, 1434.995
691.4380, 1302.962
692.5950, 1202.978
693.7520, 1070.686
694.9080, 973.3687
696.0650, 986.1572
697.2210, 839.5654
698.3770, 771.1416
699.5330, 832.6758
700.6880, 751.1777
701.8440, 724.6465
702.9990, 660.0815
704.1550, 641.4839
705.3100, 552.8530
706.4650, 619.1890
707.6190, 517.4912
708.7740, 520.7603
709.9290, 523.9961
711.0830, 392.1982
712.2370, 376.3677
713.3910, 388.5034
714.5450, 310.6055
715.6980, 295.6748
716.8520, 324.7100
718.0050, 277.7119
719.1580, 189.6807
720.3110, 277.6147
721.4640, 161.5156
722.6170, 208.3862
723.7700, 132.2285
724.9220, 147.0405
726.0740, 110.8262
727.2260, 151.5771
728.3780, 26.16797
729.5300, 107.8096
730.6810, 153.3662
731.8330, 100.0400
732.9840, 180.1665
734.1350, 39.05078
735.2860, 14.73682
736.4370, 4.410156
737.5880, 56.76562
738.7380, 39.46680
739.8880, 32.47363
741.0390, 10.27734
742.1890, 36.01758
743.3380, 43.18701
744.4880, 0.3276370
745.6380, 30.12109
746.7870, 21.99756
747.9360, 50.13232
749.0850, 22.45312
750.2340, 38.76611
751.3830, 36.36816
752.5310, 19.18896
753.6800, 1.416016
754.8280, 54.96826
755.9760, 37.48682
757.1240, 55.96680
758.2720, 2.412598
759.4190, 30.80811
760.5670, 26.16602
761.7140, 89.48438
762.8610, 105.7710
764.0080, 109.0259
765.1550, 120.2500
766.3020, 111.4429
767.4480, 155.6055
768.5950, 102.7388
769.7410, 122.8447
770.8870, 98.92041
772.0330, 46.96729
773.1780, 237.9810
774.3240, 151.9775
775.4690, 129.9468
776.6140, 143.8872
777.7590, 29.79980
778.9040, 95.67969
780.0490, 32.53125
781.1940, 88.35156
782.3380, 100.1426
783.4820, 4.905273
784.6260, 68.63037
785.7700, 43.32617
786.9140, 76.99268
788.0580, 82.63086
789.2010, 22.24121
790.3450, 32.82178
791.4880, 3.626465
792.6310, 17.99902
793.7730, 30.64746
794.9160, 43.23291
796.0590, 39.12646
797.2010, 13.57324
798.3430, 27.31250
799.4850, 42.09863
800.6270, 41.94043
801.7690, 14.16406
802.9100, 22.75830
804.0520, 62.72412
805.1930, 16.75244
806.3340, 97.81982
807.4750, 30.03223
808.6160, 55.14062
809.7560, 97.36914
810.8970, 0.6767580
812.0370, 81.01123
813.1770, 106.4136
814.3170, 28.89746
815.4570, 53.41992
816.5960, 32.00537
817.7360, 96.59180
818.8750, 7.260742
820.0140, 41.95703
821.1530, 31.69531
822.2920, 47.47021
823.4310, 61.71094
824.5690, 5.872070
825.7070, 81.01221
826.8460, 23.13281
827.9840, 37.23340
829.1220, 15.31494
830.2590, 79.37549
831.3970, 75.41895
832.5340, 40.44531
833.6710, 20.54639
834.8080, 71.43701
835.9450, 72.40381
837.0820, 173.3545
838.2190, 101.2896
839.3550, 323.2085
840.4910, 319.1128
841.6270, 447.0010
842.7630, 580.8750
843.8990, 696.7339
845.0350, 931.5776
846.1700, 1154.407
847.3060, 1464.224
848.4410, 1865.026
849.5760, 2313.814
850.7100, 2734.589
851.8450, 3035.352
852.9800, 3317.101
854.1140, 3624.837
855.2480, 3789.561
856.3820, 3781.147
857.5160, 3626.846
858.6500, 3270.291
859.7830, 2866.920
860.9170, 2526.222
862.0500, 2243.864
863.1830, 1955.760
864.3160, 1737.110
865.4480, 1519.177
866.5810, 1379.923
867.7130, 1262.666
868.8460, 1204.776
869.9780, 1120.272
871.1100, 1107.254
872.2410, 1140.507
873.3730, 1074.073
874.5050, 981.7617
875.6360, 1037.088
876.7670, 971.2793
877.8980, 993.3877
879.0290, 1113.840
880.1590, 1059.520
881.2900, 1068.442
882.4200, 1081.870
883.5500, 1102.497
884.6800, 1057.552
885.8100, 998.5977
886.9400, 981.2500
888.0690, 978.9570
889.1990, 970.9048
890.3280, 1013.175
891.4570, 1144.274
892.5860, 937.0894
893.7140, 959.2217
894.8430, 1003.691
895.9710, 867.4141
897.1000, 952.0356
898.2280, 921.3423
899.3560, 945.7383
900.4830, 898.1567
901.6110, 896.6279
902.7380, 958.0933
903.8660, 877.7759
904.9930, 882.2646
906.1200, 787.8726
907.2460, 812.3877
908.3730, 890.7100
909.5000, 826.5127
910.6260, 691.2905
911.7520, 778.0093
912.8780, 722.7983
914.0040, 784.0688
915.1290, 751.6909
916.2550, 759.0444
917.3800, 693.6636
918.5050, 740.3501
919.6300, 613.0928
920.7550, 620.6675
921.8800, 605.1479
923.0040, 568.7856
924.1290, 655.4741
925.2530, 665.9282
926.3770, 524.4727
927.5010, 629.0928
928.6250, 394.8862
929.7480, 518.9551
930.8720, 441.2954
931.9950, 409.9634
933.1180, 363.3057
934.2410, 354.8574
935.3640, 259.5391
936.4860, 302.2993
937.6090, 258.7114
938.7310, 299.1064
939.8530, 222.7563
940.9750, 258.3672
942.0970, 240.9619
943.2180, 135.8560
944.3400, 184.2817
945.4610, 116.1245
946.5820, 270.9043
947.7030, 162.9229
948.8240, 269.4189
949.9450, 226.8569
951.0650, 363.8369
952.1860, 410.9355
953.3060, 505.3613
954.4260, 580.1655
955.5460, 543.1763
956.6650, 538.9229
957.7850, 642.7607
958.9040, 616.1313
960.0230, 732.3047
961.1420, 639.8149
962.2610, 803.1245
963.3800, 816.5171
964.4990, 827.8418
965.6170, 921.4585
966.7350, 921.0835
967.8530, 943.5830
968.9710, 960.4453
970.0890, 1001.121
971.2070, 1097.820
972.3240, 1172.533
973.4410, 1216.260
974.5580, 1258.001
975.6750, 1365.758
976.7920, 1499.528
977.9090, 1509.313
979.0250, 1524.114
980.1410, 1675.929
981.2580, 1779.758
982.3740, 1951.604
983.4890, 2004.056
984.6050, 2026.339
985.7200, 2148.228
986.8360, 2170.130
987.9510, 2312.045
989.0660, 2495.292
990.1810, 2725.921
991.2950, 3003.881
992.4100, 3305.857
993.5240, 3736.848
994.6390, 4114.854
995.7530, 4838.875
996.8660, 5382.914
997.9800, 6395.967
999.0940, 7603.038
1000.207, 8910.132
1001.320, 10768.24
1002.433, 12978.37
1003.546, 16278.50
1004.659, 20071.66
1005.772, 25041.83
1006.884, 31003.04
1007.996, 36976.28
1009.108, 42994.53
1010.220, 48354.81
1011.332, 52133.10
1012.444, 54514.41
1013.555, 54173.76
1014.666, 51570.11
1015.777, 46021.50
1016.888, 38212.88
1017.999, 30450.31
1019.110, 23641.78
1020.220, 18203.27
1021.331, 14068.79
1022.441, 11189.33
1023.551, 9532.916
1024.661, 7767.732
1025.770, 6643.629
1026.880, 5770.746
1027.989, 4974.656
1029.098, 4655.618
1030.207, 4229.812
1031.316, 3896.777
1032.425, 3989.356
1033.533, 4014.218
1034.642, 3877.449
1035.750, 3947.203
1036.858, 3964.396
1037.966, 4188.292
1039.073, 4480.945
1040.181, 4939.368
1041.288, 5463.243
1042.396, 5972.730
1043.503, 6432.098
1044.610, 6753.227
1045.716, 6822.218
1046.823, 7198.543
1047.929, 6808.445
1049.036, 6692.987
1050.142, 6164.155
1051.248, 5467.345
1052.353, 4793.753
1053.459, 4097.242
1054.564, 3547.720
1055.670, 2960.666
1056.775, 2580.566
1057.880, 2256.351
1058.985, 1999.817
1060.089, 1778.066
1061.194, 1572.153
1062.298, 1472.806
1063.402, 1352.024
1064.506, 1236.340
1065.610, 1324.120
1066.713, 1162.251
1067.817, 1101.807
1068.920, 1151.753
1070.023, 989.1953
1071.126, 948.7930
1072.229, 925.6221
1073.332, 856.0137
1074.435, 793.5054
1075.537, 774.2471
1076.639, 712.1680
1077.741, 734.4570
1078.843, 645.9194
1079.945, 641.0552
1081.046, 672.8076
1082.148, 689.0820
1083.249, 648.3066
1084.350, 646.2832
1085.451, 613.5005
1086.551, 545.5029
1087.652, 554.2388
1088.752, 482.6904
1089.853, 466.7681
1090.953, 624.6450
1092.053, 647.4287
1093.152, 598.2744
1094.252, 483.1685
1095.351, 472.1782
1096.451, 437.9683
1097.550, 431.1187
1098.649, 537.0669
1099.748, 405.4258
1100.846, 448.2559
1101.945, 470.8413
1103.043, 339.3921
1104.141, 407.0483
1105.239, 384.5952
1106.337, 424.2021
1107.434, 329.8545
1108.532, 351.2432
1109.629, 491.9829
1110.726, 356.7109
1111.823, 285.1694
1112.920, 421.6562
1114.017, 423.4341
1115.113, 389.1699
1116.210, 402.5571
1117.306, 457.9014
1118.402, 597.0269
1119.498, 557.1006
1120.593, 528.8013
1121.689, 588.1440
1122.784, 554.5532
1123.879, 650.1694
1124.974, 727.1426
1126.069, 545.7378
1127.164, 560.1841
1128.259, 430.4243
1129.353, 349.6997
1130.447, 390.2227
1131.541, 432.1743
1132.635, 478.0225
1133.729, 436.6821
1134.822, 435.5195
1135.916, 324.5112
1137.009, 413.4883
1138.102, 352.6094
1139.195, 432.6558
1140.288, 394.2793
1141.380, 389.5625
1142.473, 343.0249
1143.565, 354.1133
1144.657, 265.9780
1145.749, 220.0229
1146.841, 302.4634
1147.932, 297.2437
1149.024, 226.4663
1150.115, 311.4038
1151.206, 208.9263
1152.297, 134.3418
1153.388, 138.8267
1154.479, 127.1416
1155.569, 79.58887
1156.659, 65.91846
1157.750, 20.46631
1158.839, 74.80469
1159.929, 70.19775
1161.019, 20.66211
1162.108, 82.26074
1163.198, 63.18311
1164.287, 14.56592
1165.376, 34.91064
1166.465, 94.08252
1167.553, 99.83691
1168.642, 78.06201
1169.730, 104.8975
1170.818, 12.50732
1171.906, 58.39990
1172.994, 6.508789
1174.082, 39.05029
1175.170, 91.07227
1176.257, 7.226563
1177.344, 12.29199
1178.431, 36.45459
1179.518, 18.10498
1180.605, 22.67773
1181.691, 22.01367
1182.778, 63.28320
1183.864, 49.04980
1184.950, 14.54053
1186.036, 11.36670
1187.122, 44.25635
1188.207, 57.45850
1189.292, 74.22803
1190.378, 12.02832
1191.463, 76.40967
1192.548, 51.60986
1193.632, 11.79395
1194.717, 44.16943
1195.801, 34.62402
1196.886, 39.36621
1197.970, 87.89746
1199.054, 18.61328
1200.137, 125.6948
1201.221, 27.36475
1202.305, 38.91113
1203.388, 22.27295
1204.471, 7.174805
1205.554, 76.64453
1206.637, 53.71875
1207.719, 94.86279
1208.802, 14.94775
1209.884, 2.718750
1210.966, 95.90137
1212.048, 24.43164
1213.130, 4.009277
1214.212, 56.21484
1215.293, 30.36328
1216.374, 56.45459
1217.456, 120.5361
1218.536, 12.16797
1219.617, 52.09717
1220.698, 94.47070
1221.778, 15.73389
1222.859, 101.2842
1223.939, 32.52979
1225.019, 64.17432
1226.099, 113.2334
1227.178, 48.41357
1228.258, 74.12695
1229.337, 214.3252
1230.417, 101.2905
1231.496, 159.5537
1232.574, 166.8389
1233.653, 140.5244
1234.732, 164.9639
1235.810, 149.3501
1236.888, 136.6182
1237.966, 197.5166
1239.044, 111.8662
1240.122, 113.0103
1241.199, 175.6357
1242.277, 168.9009
1243.354, 97.19580
1244.431, 105.3491
1245.508, 186.3018
1246.585, 194.0078
1247.661, 244.2100
1248.738, 254.2749
1249.814, 102.0986
1250.890, 184.6533
1251.966, 166.7563
1253.042, 114.0146
1254.117, 264.3184
1255.193, 113.1147
1256.268, 145.3164
1257.343, 192.3779
1258.418, 180.8042
1259.493, 118.3149
1260.567, 251.3428
1261.642, 272.3560
1262.716, 349.8701
1263.790, 267.8750
1264.864, 230.9448
1265.938, 64.23047
1267.011, 195.7305
1268.085, 209.7788
1269.158, 306.9111
1270.231, 156.6821
1271.304, 338.7632
1272.377, 183.6172
1273.450, 232.3838
1274.522, 185.0547
1275.594, 324.5957
1276.666, 239.6309
1277.738, 129.2783
1278.810, 193.3652
1279.882, 86.62988
1280.953, 307.6143
1282.025, 285.3721
1283.096, 321.0410
1284.167, 292.8516
1285.238, 307.5762
1286.308, 257.8760
1287.379, 301.0840
1288.449, 286.1836
1289.519, 263.0566
1290.589, 224.8730
1291.659, 228.1777
1292.729, 198.1074
1293.798, 226.3428
1294.868, 334.3535
1295.937, 252.7383
1297.006, 341.5078
1298.075, 284.8848
1299.143, 323.0352
1300.212, 208.6211
1301.280, 233.1221
1302.348, 312.8018
1303.416, 224.1504
1304.484, 205.5811
1305.552, 174.5615
1306.620, 185.9385
1307.687, 239.2744
1308.754, 95.26855
1309.821, 194.4805
1310.888, 267.3223
1311.955, 146.5723
1313.021, 202.8721
1314.088, 288.8506
1315.154, 270.5234
1316.220, 326.0000
1317.286, 286.9102
1318.352, 321.5479
1319.417, 347.2256
1320.483, 239.4873
1321.548, 214.1377
1322.613, 244.5947
1323.678, 241.8779
1324.743, 290.3340
1325.807, 267.3838
1326.872, 203.7383
1327.936, 228.7969
1329.000, 327.1016
1330.064, 205.8535
1331.128, 387.6494
1332.191, 217.9014
1333.255, 269.7012
1334.318, 331.6074
1335.381, 288.6846
1336.444, 156.6299
1337.507, 217.8975
1338.569, 103.2383
1339.632, 246.8379
1340.694, 222.2041
1341.756, 294.6123
1342.818, 372.0527
1343.880, 391.1309
1344.941, 285.3818
1346.003, 221.7930
1347.064, 208.3184
1348.125, 169.1885
1349.186, 329.0215
1350.247, 219.0850
1351.308, 166.1406
1352.368, 256.1494
1353.428, 157.8906
1354.489, 115.4902
1355.549, 212.9707
1356.608, 83.87402
1357.668, 126.8291
1358.727, 184.9189
1359.787, 126.7354
1360.846, 149.2402
1361.905, 199.4775
1362.964, 198.7539
1364.022, 213.1875
1365.081, 321.9893
1366.139, 166.5537
1367.197, 201.5225
1368.255, 78.21094
1369.313, 16.36816
1370.371, 123.1309
1371.428, 143.5430
1372.486, 180.2139
1373.543, 225.3193
1374.600, 93.77148
1375.657, 112.7148
1376.713, 156.3730
1377.770, 205.5576
1378.826, 72.83105
1379.882, 246.8945
1380.938, 223.9121
1381.994, 92.23145
1383.050, 219.0469
1384.106, 42.71680
1385.161, 134.7588
1386.216, 99.45801
1387.271, 198.7998
1388.326, 187.7148
1389.381, 69.56445
1390.435, 160.8730
1391.490, 7.436523
1392.544, 11.99609
1393.598, 233.7217
1394.652, 87.56445
1395.705, 68.69727
1396.759, 123.3896
1397.812, 59.15820
1398.866, 78.56543
1399.919, 81.09375
1400.972, 84.47363
1402.024, 99.57227
1403.077, 30.75977
1404.129, 63.69824
1405.181, 17.85254
1406.233, 101.2490
1407.285, 149.9277
1408.337, 188.7021
1409.389, 26.23633
1410.440, 139.2979
1411.491, 70.92188
1412.542, 92.39258
1413.593, 120.4307
1414.644, 22.41797
1415.695, 31.55273
1416.745, 15.35449
1417.795, 81.93262
1418.845, 2.548828
1419.895, 19.38281
1420.945, 9.468750
1421.995, 70.23926
1423.044, 2.709961
1424.093, 39.42676
1425.142, 96.87012
1426.191, 56.44824
1427.240, 169.4736
1428.289, 27.56348
1429.337, 69.18555
1430.385, 80.81445
1431.433, 27.60547
1432.481, 47.20117
1433.529, 12.92871
1434.577, 51.81934
1435.624, 17.20703
1436.672, 116.1191
1437.719, 21.91504
1438.766, 144.0898
1439.812, 15.23926
1440.859, 195.8037
1441.905, 15.07129
1442.952, 8.431641
1443.998, 127.5449
1445.044, 134.7383
1446.090, 126.6445
1447.135, 8.065430
1448.181, 55.20020
1449.226, 57.28418
1450.271, 115.7148
1451.316, 117.8877
1452.361, 16.28711
1453.405, 141.5518
1454.450, 193.6875
1455.494, 57.24805
1456.538, 199.8311
1457.582, 20.25293
1458.626, 3.633789
1459.670, 168.7676
1460.713, 167.7236
1461.757, 149.0596
1462.800, 119.9893
1463.843, 167.4893
1464.886, 188.2480
1465.928, 112.0439
1466.971, 101.8271
1468.013, 142.3535
1469.055, 157.4111
1470.097, 159.9199
1471.139, 171.3779
1472.181, 197.5918
1473.222, 191.2520
1474.263, 239.2227
1475.305, 187.7979
1476.346, 160.1406
1477.386, 144.1182
1478.427, 165.0439
1479.468, 240.3613
1480.508, 161.7041
1481.548, 92.83984
1482.588, 204.9316
1483.628, 56.30176
1484.668, 141.8174
1485.707, 207.4082
1486.747, 317.5049
1487.786, 272.5254
1488.825, 266.5400
1489.864, 207.5029
1490.902, 141.1797
1491.941, 181.1143
1492.979, 341.7490
1494.017, 150.8672
1495.055, 298.7939
1496.093, 23.29883
1497.131, 16.10547
1498.168, 79.22266
1499.206, 26.23242
1500.243, 138.1113
1501.280, 231.9541
1502.317, 142.7529
1503.354, 185.3203
1504.390, 273.3535
1505.426, 17.59570
1506.463, 222.4434
1507.499, 139.6133
1508.535, 243.2988
1509.570, 126.3945
1510.606, 177.4971
1511.641, 185.9268
1512.676, 161.5547
1513.711, 205.6172
1514.746, 93.80469
1515.781, 250.0391
1516.816, 177.2207
1517.850, 90.50586
1518.884, 32.30859
1519.918, 200.0381
1520.952, 116.0176
1521.986, 285.4941
1523.019, 174.3066
1524.053, 99.58008
1525.086, 202.8379
1526.119, 53.46484
1527.152, 148.8701
1528.185, 103.9512
1529.217, 203.6016
1530.250, 148.1104
1531.282, 209.7432
1532.314, 136.9736
1533.346, 251.8711
1534.377, 51.48730
1535.409, 53.00098
1536.440, 191.5186
1537.472, 175.7217
1538.503, 259.6953
1539.534, 275.4258
1540.564, 233.4141
1541.595, 132.1504
1542.625, 194.6426
1543.656, 3.777344
1544.686, 10.39648
1545.716, 180.3389
1546.745, 104.1572
1547.775, 197.9092
1548.804, 165.1084
1549.834, 238.9287
1550.863, 245.2119
1551.892, 166.1035
1552.920, 231.3359
1553.949, 206.9004
1554.977, 120.9570
1556.006, 250.4834
1557.034, 48.28418
1558.062, 253.8320
1559.089, 4.254883
1560.117, 190.5742
1561.144, 45.98340
1562.172, 53.18652
1563.199, 295.9121
1564.226, 3.557617
1565.252, 106.6943
1566.279, 192.3887
1567.305, 300.4443
1568.332, 69.32324
1569.358, 73.70215
1570.384, 31.11719
1571.409, 46.02930
1572.435, 0.0000000E+00
##END=



