##NAMES=Diopside
##RRUFFID=R060276
##IDEAL CHEMISTRY=CaMgSi_2_O_6_
##LOCALITY=Inagli, Yakutia, Siberia, Russia
##OWNER=RRUFF
##SOURCE=Herb Obodda
##DESCRIPTION=Transparent green cleavage fragment
##STATUS=The identification of this mineral has been confirmed by X-ray diffraction and chemical analysis
##URL=rruff.info/R060276
##MEASURED CHEMISTRY=(Ca_0.97_Na_0.03_)_Σ=1_(Mg_0.96_Fe_0.03_Cr_0.01_)_Σ=1_(Si_1.98_Al_0.02_)_Σ=2_O_6_
##PIN_ID=L01812
##ORIENTATION=Laser parallel to -c* (0 0 -1). Fiducial mark perpendicular to laser is parallel to -a [-1 0 0]
109.5120, 0.0000000E+00
110.7440, 68.72778
111.9760, 1.122314
113.2080, 93.01709
114.4400, 199.2356
115.6710, 291.7441
116.9030, 188.9172
118.1340, 102.1995
119.3650, 6.221436
120.5960, 22.11597
121.8270, 10.84375
123.0580, 30.89771
124.2880, 38.23315
125.5190, 81.06616
126.7490, 145.3237
127.9790, 271.9492
129.2090, 560.8984
130.4390, 772.1799
131.6680, 950.8252
132.8980, 1122.779
134.1270, 1406.311
135.3560, 1752.331
136.5850, 2039.472
137.8140, 2140.727
139.0430, 2198.087
140.2710, 1863.545
141.5000, 1636.096
142.7280, 1345.736
143.9560, 1031.461
145.1840, 813.2676
146.4120, 558.1548
147.6390, 326.1187
148.8670, 213.1536
150.0940, 106.5400
151.3210, 129.6152
152.5490, 108.8499
153.7750, 83.05493
155.0020, 164.2368
156.2290, 249.4038
157.4550, 301.7593
158.6810, 360.1470
159.9080, 447.2122
161.1340, 669.1191
162.3590, 895.0496
163.5850, 946.0049
164.8110, 1061.987
166.0360, 955.9971
167.2610, 720.0369
168.4860, 624.1074
169.7110, 567.2100
170.9360, 480.3445
172.1610, 377.5107
173.3850, 289.7097
174.6100, 246.9419
175.8340, 260.2083
177.0580, 403.5093
178.2820, 497.8457
179.5050, 538.2180
180.7290, 528.6262
181.9520, 596.0710
183.1760, 567.5662
184.3990, 637.0913
185.6220, 622.6208
186.8450, 525.1572
188.0670, 540.6880
189.2900, 541.0620
190.5120, 607.7710
191.7340, 719.2534
192.9560, 850.6165
194.1780, 857.3608
195.4000, 868.4524
196.6220, 792.5798
197.8430, 704.7439
199.0640, 619.9446
200.2860, 545.1841
201.5070, 369.4717
202.7270, 229.8230
203.9480, 60.26050
205.1690, 22.24731
206.3890, 38.71094
207.6090, 31.88232
208.8290, 1.493164
210.0490, 18.83716
211.2690, 72.85034
212.4890, 133.5706
213.7080, 231.3235
214.9280, 328.1104
216.1470, 516.9316
217.3660, 747.4338
218.5850, 989.6768
219.8030, 1345.601
221.0220, 1723.559
222.2400, 2107.551
223.4590, 2545.575
224.6770, 3106.632
225.8950, 3595.719
227.1120, 4073.836
228.3300, 4118.981
229.5480, 3957.159
230.7650, 3670.361
231.9820, 3410.572
233.1990, 2894.809
234.4160, 2343.073
235.6330, 1872.367
236.8490, 1437.692
238.0660, 1053.049
239.2820, 828.4360
240.4980, 614.8538
241.7140, 636.3027
242.9300, 549.7820
244.1460, 519.2915
245.3610, 451.8311
246.5770, 539.4009
247.7920, 615.0010
249.0070, 546.6309
250.2220, 757.2908
251.4370, 770.9805
252.6510, 736.7000
253.8660, 732.4490
255.0800, 775.2278
256.2940, 752.8232
257.5080, 765.3674
258.7220, 734.7773
259.9360, 516.9817
261.1490, 262.2053
262.3630, 83.28076
263.5760, 81.36304
264.7890, 28.28711
266.0020, 27.12866
267.2150, 8.709473
268.4270, 79.09766
269.6400, 23.11743
270.8520, 69.03223
272.0640, 105.7068
273.2760, 84.27441
274.4880, 66.81763
275.7000, 55.11133
276.9120, 28.67725
278.1230, 2.716309
279.3340, 34.28979
280.5450, 65.89478
281.7560, 129.5276
282.9670, 158.1887
284.1780, 293.8772
285.3880, 208.5930
286.5980, 398.3354
287.8090, 434.1042
289.0190, 626.8989
290.2290, 748.9399
291.4380, 970.8420
292.6480, 1224.594
293.8570, 1532.489
295.0670, 1811.329
296.2760, 2078.521
297.4850, 2510.108
298.6930, 2997.642
299.9020, 3262.641
301.1110, 3511.703
302.3190, 3615.015
303.5270, 3723.018
304.7350, 3719.080
305.9430, 3870.124
307.1510, 4053.189
308.3580, 4271.285
309.5660, 4495.413
310.7730, 4917.562
311.9800, 5635.750
313.1870, 6388.979
314.3940, 7254.232
315.6010, 8470.521
316.8070, 9382.844
318.0130, 10761.19
319.2200, 12114.59
320.4260, 13355.02
321.6310, 14317.47
322.8370, 14860.95
324.0430, 14863.45
325.2480, 14381.97
326.4540, 13175.51
327.6590, 11909.07
328.8640, 10442.65
330.0680, 8774.254
331.2730, 7028.875
332.4780, 5969.517
333.6820, 5063.178
334.8860, 4326.833
336.0900, 3794.480
337.2940, 3401.086
338.4980, 3127.676
339.7010, 3042.281
340.9050, 3079.907
342.1080, 3091.556
343.3110, 3309.227
344.5140, 3743.920
345.7170, 4230.634
346.9200, 4884.370
348.1220, 5571.398
349.3240, 6335.906
350.5270, 7264.648
351.7290, 8249.670
352.9310, 9352.160
354.1320, 10029.82
355.3340, 10371.82
356.5350, 10310.72
357.7370, 10036.64
358.9380, 9725.580
360.1390, 8803.539
361.3400, 8096.519
362.5400, 7204.515
363.7410, 6530.534
364.9410, 5864.571
366.1410, 5536.625
367.3410, 5048.698
368.5410, 4517.792
369.7410, 4305.903
370.9400, 3891.032
372.1400, 3938.180
373.3390, 3834.346
374.5380, 3962.530
375.7370, 4170.731
376.9360, 4800.953
378.1350, 5507.191
379.3330, 6649.447
380.5310, 7988.721
381.7300, 9603.013
382.9280, 11318.32
384.1260, 12953.65
385.3230, 15119.00
386.5210, 17177.36
387.7180, 18896.74
388.9160, 19817.13
390.1130, 20064.54
391.3100, 19412.98
392.5060, 18018.43
393.7030, 16258.89
394.9000, 14263.38
396.0960, 11880.87
397.2920, 9607.389
398.4880, 7383.921
399.6840, 5801.470
400.8800, 4686.029
402.0750, 3677.606
403.2710, 2941.206
404.4660, 2301.824
405.6610, 1821.463
406.8560, 1488.122
408.0510, 1246.800
409.2450, 1022.499
410.4400, 888.2234
411.6340, 780.9692
412.8280, 567.5271
414.0220, 613.5525
415.2160, 529.6304
416.4100, 406.9270
417.6030, 408.3230
418.7970, 308.5684
419.9900, 324.3745
421.1830, 304.3110
422.3760, 193.2280
423.5690, 165.1660
424.7610, 231.1216
425.9540, 167.0947
427.1460, 96.08447
428.3380, 146.0918
429.5300, 132.1162
430.7220, 78.15723
431.9140, 82.21484
433.1050, 10.71094
434.2970, 2.623047
435.4880, 31.52051
436.6790, 18.58984
437.8700, 79.28418
439.0610, 41.16846
440.2510, 50.04980
441.4420, 21.93066
442.6320, 5.198730
443.8220, 1.653809
445.0120, 41.48047
446.2020, 33.28760
447.3910, 7.1777001E-02
448.5810, 18.50977
449.7700, 87.78271
450.9600, 93.10791
452.1490, 171.1045
453.3370, 234.4478
454.5260, 338.7451
455.7150, 351.9683
456.9030, 416.0498
458.0910, 440.3105
459.2800, 677.4712
460.4670, 606.3350
461.6550, 869.1963
462.8430, 818.4951
464.0300, 824.6685
465.2180, 821.4473
466.4050, 689.0815
467.5920, 683.2485
468.7790, 638.9019
469.9650, 557.8525
471.1520, 445.5640
472.3380, 342.2896
473.5250, 362.0952
474.7110, 230.8447
475.8970, 179.6089
477.0820, 58.38428
478.2680, 125.1816
479.4540, 160.9927
480.6390, 203.8145
481.8240, 126.6553
483.0090, 80.51611
484.1940, 105.3857
485.3780, 98.26465
486.5630, 98.15186
487.7470, 96.48047
488.9320, 107.9507
490.1160, 58.86182
491.3000, 79.78027
492.4830, 21.70605
493.6670, 39.64355
494.8500, 15.40381
496.0340, 85.54785
497.2170, 59.50732
498.4000, 42.47754
499.5820, 43.45361
500.7650, 66.43652
501.9480, 114.4253
503.1300, 190.4194
504.3120, 283.4199
505.4940, 276.4248
506.6760, 285.4453
507.8580, 285.4712
509.0390, 337.5073
510.2210, 473.5483
511.4020, 352.5938
512.5830, 492.6436
513.7640, 419.6982
514.9450, 522.7578
516.1250, 484.8247
517.3060, 591.8989
518.4860, 592.9922
519.6660, 708.0928
520.8460, 764.2056
522.0260, 873.3267
523.2060, 949.4780
524.3850, 1083.648
525.5650, 1227.843
526.7440, 1327.042
527.9230, 1391.242
529.1020, 1456.710
530.2810, 1465.885
531.4590, 1484.924
532.6380, 1425.173
533.8160, 1349.452
534.9940, 1274.756
536.1720, 1034.077
537.3500, 975.4150
538.5270, 963.7549
539.7050, 993.0947
540.8820, 847.4331
542.0590, 895.7700
543.2360, 910.1094
544.4130, 1071.447
545.5900, 1082.783
546.7660, 1203.121
547.9430, 1399.458
549.1190, 1753.793
550.2950, 2015.125
551.4710, 2407.460
552.6470, 2978.796
553.8220, 3304.127
554.9980, 3903.475
556.1730, 4272.821
557.3480, 4605.178
558.5230, 4578.554
559.6980, 4333.942
560.8730, 3883.337
562.0470, 3350.737
563.2220, 2744.135
564.3960, 2317.528
565.5700, 1723.916
566.7440, 1441.297
567.9170, 1031.672
569.0910, 935.0396
570.2640, 800.4014
571.4380, 579.7559
572.6110, 595.1025
573.7840, 540.4419
574.9570, 404.5532
576.1290, 425.8208
577.3020, 309.2554
578.4740, 292.5630
579.6460, 228.9414
580.8180, 188.9810
581.9900, 196.6382
583.1620, 75.51611
584.3330, 112.4878
585.5040, 111.2407
586.6760, 63.17285
587.8470, 103.3892
589.0180, 4.992676
590.1880, 52.15771
591.3590, 22.25439
592.5290, 30.71387
593.7000, 28.92090
594.8700, 49.86670
596.0400, 63.83545
597.2090, 4.178223
598.3790, 29.23730
599.5490, 41.83643
600.7180, 16.55566
601.8870, 82.60645
603.0560, 40.74854
604.2250, 12.58105
605.3940, 29.87354
606.5620, 52.43799
607.7300, 22.07422
608.8990, 102.4775
610.0670, 35.38770
611.2350, 81.52783
612.4020, 116.2275
613.5700, 68.25195
614.7370, 115.5425
615.9050, 162.2417
617.0720, 166.3188
618.2390, 224.8052
619.4060, 197.4790
620.5720, 262.2251
621.7390, 362.0991
622.9050, 325.9385
624.0710, 288.5566
625.2370, 376.0801
626.4030, 432.6343
627.5690, 521.0269
628.7340, 551.4917
629.9000, 653.9238
631.0650, 802.2544
632.2300, 793.5645
633.3950, 909.8530
634.5600, 947.1201
635.7240, 1070.715
636.8890, 1027.939
638.0530, 1249.217
639.2170, 1323.397
640.3810, 1493.792
641.5450, 1682.929
642.7080, 1806.227
643.8720, 2100.396
645.0350, 2345.489
646.1980, 2639.791
647.3610, 3021.962
648.5240, 3523.181
649.6870, 4077.227
650.8490, 4893.179
652.0120, 6022.343
653.1740, 7150.541
654.3360, 8748.772
655.4980, 10822.22
656.6600, 13226.93
657.8210, 16308.27
658.9830, 19647.98
660.1440, 22808.63
661.3050, 26276.54
662.4660, 29248.67
663.6270, 31496.24
664.7870, 32899.07
665.9480, 32819.04
667.1080, 30845.79
668.2680, 28407.42
669.4280, 25179.21
670.5880, 21563.38
671.7480, 18114.94
672.9070, 14763.29
674.0670, 11707.47
675.2260, 9539.632
676.3850, 7592.807
677.5440, 6426.659
678.7030, 5296.035
679.8610, 4361.417
681.0200, 3777.680
682.1780, 3111.542
683.3360, 2700.784
684.4940, 2471.012
685.6520, 2155.908
686.8090, 1848.246
687.9670, 1627.563
689.1240, 1536.618
690.2810, 1286.750
691.4380, 1271.468
692.5950, 1146.435
693.7520, 1062.353
694.9080, 982.2549
696.0650, 1019.159
697.2210, 806.4683
698.3770, 793.3188
699.5330, 804.0977
700.6880, 692.8447
701.8440, 609.5610
702.9990, 655.2456
704.1550, 663.8989
705.3100, 491.5215
706.4650, 629.1123
707.6190, 486.6719
708.7740, 488.1997
709.9290, 450.6963
711.0830, 406.1616
712.2370, 369.5957
713.3910, 423.9980
714.5450, 269.3706
715.6980, 293.7129
716.8520, 305.0273
718.0050, 220.3110
719.1580, 232.5762
720.3110, 270.8159
721.4640, 160.0322
722.6170, 86.21875
723.7700, 24.36719
724.9220, 1.993652
726.0740, 2.016113
727.2260, 6.470703
728.3780, 14.04688
729.5300, 52.90234
730.6810, 11.31787
731.8330, 90.75537
732.9840, 58.46240
734.1350, 60.19385
735.2860, 3.978027
736.4370, 6.126953
737.5880, 5.444336
738.7380, 8.305664
739.8880, 18.32373
741.0390, 12.31738
742.1890, 0.8476560
743.3380, 15.46240
744.4880, 12.45996
745.6380, 54.43506
746.7870, 3.906738
747.9360, 3.104980
749.0850, 65.20850
750.2340, 27.66992
751.3830, 60.51123
752.5310, 40.25244
753.6800, 23.02734
754.8280, 47.76465
755.9760, 12.53076
757.1240, 19.12012
758.2720, 87.73340
759.4190, 5.683105
760.5670, 6.148926
761.7140, 100.3369
762.8610, 116.7949
764.0080, 103.2246
765.1550, 161.6270
766.3020, 112.0029
767.4480, 113.3525
768.5950, 182.6743
769.7410, 168.9702
770.8870, 256.2407
772.0330, 163.4858
773.1780, 181.7061
774.3240, 232.9043
775.4690, 104.0776
776.6140, 171.2251
777.7590, 62.34814
778.9040, 172.4448
780.0490, 71.51758
781.1940, 95.56445
782.3380, 106.5869
783.4820, 19.41504
784.6260, 73.53906
785.7700, 4.531738
786.9140, 89.36279
788.0580, 122.2339
789.2010, 46.08203
790.3450, 30.90723
791.4880, 15.70703
792.6310, 0.4824220
793.7730, 4.946289
794.9160, 48.05518
796.0590, 7.392090
797.2010, 23.76025
798.3430, 13.16699
799.4850, 97.60693
800.6270, 58.12256
801.7690, 79.69287
802.9100, 2.671387
804.0520, 42.01270
805.1930, 64.66602
806.3340, 16.59961
807.4750, 76.15527
808.6160, 19.96973
809.7560, 113.8145
810.8970, 96.69531
812.0370, 65.98047
813.1770, 67.76904
814.3170, 9.862793
815.4570, 44.02100
816.5960, 32.88721
817.7360, 60.51514
818.8750, 16.43018
820.0140, 38.38037
821.1530, 32.17480
822.2920, 22.04688
823.4310, 2.291992
824.5690, 3.554199
825.7070, 65.16650
826.8460, 34.12744
827.9840, 24.44678
829.1220, 27.21289
830.2590, 33.14209
831.3970, 44.48047
832.5340, 13.08936
833.6710, 47.31445
834.8080, 6.255371
835.9450, 94.81152
837.0820, 167.3555
838.2190, 178.8877
839.3550, 403.4087
840.4910, 293.9185
841.6270, 487.4170
842.7630, 505.9048
843.8990, 684.3818
845.0350, 1019.848
846.1700, 1327.305
847.3060, 1697.752
848.4410, 2183.189
849.5760, 2572.618
850.7100, 2872.037
851.8450, 3179.447
852.9800, 3323.927
854.1140, 3586.242
855.2480, 3443.627
856.3820, 3259.005
857.5160, 3132.375
858.6500, 2716.579
859.7830, 2321.229
860.9170, 2077.034
862.0500, 1849.415
863.1830, 1643.809
864.3160, 1344.737
865.4480, 1258.110
866.5810, 1070.043
867.7130, 1073.000
868.8460, 1070.833
869.9780, 1121.074
871.1100, 1014.463
872.2410, 922.8320
873.3730, 888.6113
874.5050, 939.5459
875.6360, 980.4570
876.7670, 864.9048
877.8980, 967.2896
879.0290, 853.1709
880.1590, 851.0703
881.2900, 879.6812
882.4200, 1000.205
883.5500, 885.9438
884.6800, 905.1616
885.8100, 861.1323
886.9400, 924.5283
888.0690, 862.5854
889.1990, 856.3604
890.3280, 781.7119
891.4570, 963.6704
892.5860, 890.2056
893.7140, 950.5386
894.8430, 877.7842
895.9710, 941.8901
897.1000, 815.0146
898.2280, 942.3472
899.3560, 922.7622
900.4830, 843.1328
901.6110, 791.6523
902.7380, 825.0879
903.8660, 847.5493
904.9930, 844.1104
906.1200, 786.6846
907.2460, 707.2793
908.3730, 722.8853
909.5000, 648.5010
910.6260, 745.1460
911.7520, 731.7251
912.8780, 714.4150
914.0040, 706.8774
915.1290, 665.5879
916.2550, 662.5474
917.3800, 620.7988
918.5050, 639.5464
919.6300, 614.1152
920.7550, 601.8276
921.8800, 604.4951
923.0040, 472.3423
924.1290, 532.2852
925.2530, 495.0034
926.3770, 534.6929
927.5010, 449.3418
928.6250, 444.7949
929.7480, 407.9741
930.8720, 349.5142
931.9950, 404.6895
933.1180, 403.9282
934.2410, 418.9023
935.3640, 297.6758
936.4860, 378.0195
937.6090, 229.0835
938.7310, 292.0068
939.8530, 207.1382
940.9750, 231.3911
942.0970, 184.4961
943.2180, 172.2109
944.3400, 201.5317
945.4610, 224.0444
946.5820, 249.7173
947.7030, 282.4033
948.8240, 285.0703
949.9450, 280.0488
951.0650, 416.4956
952.1860, 328.9233
953.3060, 494.4644
954.4260, 427.3945
955.5460, 506.9395
956.6650, 459.4854
957.7850, 673.3662
958.9040, 692.7969
960.0230, 791.2363
961.1420, 710.9404
962.2610, 806.5625
963.3800, 950.5947
964.4990, 858.3730
965.6170, 915.2012
966.7350, 859.0376
967.8530, 1035.867
968.9710, 1070.280
970.0890, 1122.144
971.2070, 1141.071
972.3240, 1204.020
973.4410, 1210.987
974.5580, 1332.977
975.6750, 1439.986
976.7920, 1556.016
977.9090, 1503.065
979.0250, 1672.137
980.1410, 1661.230
981.2580, 1747.345
982.3740, 1861.481
983.4890, 2052.648
984.6050, 2137.837
985.7200, 2264.047
986.8360, 2313.279
987.9510, 2561.531
989.0660, 2684.806
990.1810, 2953.101
991.2950, 3279.417
992.4100, 3608.763
993.5240, 4071.130
994.6390, 4559.523
995.7530, 5185.944
996.8660, 6044.407
997.9800, 7133.908
999.0940, 8385.446
1000.207, 9978.017
1001.320, 12179.62
1002.433, 14679.25
1003.546, 18156.91
1004.659, 22860.60
1005.772, 27963.31
1006.884, 34338.04
1007.996, 41228.84
1009.108, 47595.64
1010.220, 52914.48
1011.332, 56590.36
1012.444, 56991.26
1013.555, 55140.19
1014.666, 50107.16
1015.777, 43076.16
1016.888, 35779.21
1017.999, 28281.28
1019.110, 22052.38
1020.220, 17024.54
1021.331, 13581.71
1022.441, 10865.91
1023.551, 9098.126
1024.661, 7771.369
1025.770, 6703.630
1026.880, 5912.925
1027.989, 5406.307
1029.098, 5008.709
1030.207, 4632.238
1031.316, 4424.654
1032.425, 4391.464
1033.533, 4215.021
1034.642, 4454.861
1035.750, 4575.727
1036.858, 4733.735
1037.966, 5090.721
1039.073, 5627.451
1040.181, 6218.958
1041.288, 6640.277
1042.396, 7334.147
1043.503, 7895.693
1044.610, 8435.622
1045.716, 8365.354
1046.823, 8554.369
1047.929, 8262.332
1049.036, 7641.463
1050.142, 6833.750
1051.248, 5948.399
1052.353, 5109.818
1053.459, 4463.979
1054.564, 3837.086
1055.670, 3410.168
1056.775, 2894.437
1057.880, 2461.426
1058.985, 2269.267
1060.089, 1982.822
1061.194, 1826.052
1062.298, 1562.326
1063.402, 1557.573
1064.506, 1460.104
1065.610, 1374.450
1066.713, 1200.925
1067.817, 1193.836
1068.920, 1023.694
1070.023, 1069.837
1071.126, 999.1050
1072.229, 831.1143
1073.332, 893.5635
1074.435, 798.9927
1075.537, 707.4805
1076.639, 721.0366
1077.741, 667.5781
1078.843, 545.5259
1079.945, 560.1865
1081.046, 565.9502
1082.148, 645.7642
1083.249, 565.5259
1084.350, 517.1289
1085.451, 588.4458
1086.551, 533.0571
1087.652, 537.3716
1088.752, 565.6333
1089.853, 489.5957
1090.953, 468.2617
1092.053, 423.8770
1093.152, 531.9678
1094.252, 493.9209
1095.351, 436.0830
1096.451, 377.6938
1097.550, 359.5933
1098.649, 404.0771
1099.748, 360.8408
1100.846, 383.5083
1101.945, 482.6494
1103.043, 569.6567
1104.141, 394.2715
1105.239, 502.7485
1106.337, 437.5273
1107.434, 349.1260
1108.532, 417.7041
1109.629, 364.0518
1110.726, 339.5786
1111.823, 413.8638
1112.920, 318.3730
1114.017, 427.9814
1115.113, 500.0122
1116.210, 536.7969
1117.306, 536.3428
1118.402, 694.0381
1119.498, 614.5977
1120.593, 527.2891
1121.689, 617.9570
1122.784, 682.4150
1123.879, 629.8062
1124.974, 674.3682
1126.069, 644.1313
1127.164, 473.3535
1128.259, 535.8599
1129.353, 515.4473
1130.447, 360.9248
1131.541, 524.4404
1132.635, 369.9009
1133.729, 525.2495
1134.822, 439.6021
1135.916, 403.8525
1137.009, 391.0532
1138.102, 383.3940
1139.195, 428.6538
1140.288, 267.7407
1141.380, 279.9175
1142.473, 356.3853
1143.565, 214.6157
1144.657, 335.9277
1145.749, 300.7227
1146.841, 280.7822
1147.932, 210.1992
1149.024, 189.2612
1150.115, 165.6445
1151.206, 212.6064
1152.297, 194.6694
1153.388, 149.9756
1154.479, 61.18115
1155.569, 96.11523
1156.659, 77.78418
1157.750, 85.03760
1158.839, 53.08984
1159.929, 55.49414
1161.019, 34.68945
1162.108, 71.50049
1163.198, 1.904297
1164.287, 51.54883
1165.376, 0.1567380
1166.465, 4.3945000E-02
1167.553, 29.49951
1168.642, 45.35059
1169.730, 21.34131
1170.818, 50.85693
1171.906, 9.368164
1172.994, 30.93213
1174.082, 79.12305
1175.170, 30.02148
1176.257, 95.34863
1177.344, 22.28125
1178.431, 42.69531
1179.518, 8.593750
1180.605, 82.81738
1181.691, 23.54883
1182.778, 146.0786
1183.864, 92.78564
1184.950, 42.95166
1186.036, 57.22119
1187.122, 43.17627
1188.207, 91.29102
1189.292, 50.06055
1190.378, 3.792969
1191.463, 117.8184
1192.548, 43.41992
1193.632, 54.87842
1194.717, 39.49707
1195.801, 67.37402
1196.886, 20.68262
1197.970, 90.14160
1199.054, 56.06299
1200.137, 122.9810
1201.221, 101.9175
1202.305, 23.29883
1203.388, 2.422852
1204.471, 75.78906
1205.554, 67.05713
1206.637, 58.99756
1207.719, 66.52100
1208.802, 20.00684
1209.884, 56.45117
1210.966, 5.017578
1212.048, 39.38135
1213.130, 48.70703
1214.212, 89.00586
1215.293, 18.60205
1216.374, 91.81104
1217.456, 20.98047
1218.536, 180.1025
1219.617, 23.81250
1220.698, 88.28613
1221.778, 102.2817
1222.859, 7.788574
1223.939, 12.07520
1225.019, 8.883301
1226.099, 21.63281
1227.178, 6.671387
1228.258, 36.82764
1229.337, 20.64453
1230.417, 104.1665
1231.496, 42.92773
1232.574, 52.35742
1233.653, 121.1426
1234.732, 154.5928
1235.810, 83.42871
1236.888, 126.8955
1237.966, 132.1147
1239.044, 187.5728
1240.122, 144.6836
1241.199, 45.14648
1242.277, 149.7637
1243.354, 126.2046
1244.431, 4.674316
1245.508, 88.04004
1246.585, 140.9946
1247.661, 105.2080
1248.738, 137.2153
1249.814, 104.9004
1250.890, 109.5376
1251.966, 160.1836
1253.042, 20.86914
1254.117, 140.4766
1255.193, 112.0879
1256.268, 198.8965
1257.343, 150.8638
1258.418, 130.5479
1259.493, 154.9590
1260.567, 144.4419
1261.642, 155.7686
1262.716, 181.3594
1263.790, 178.8779
1264.864, 201.1577
1265.938, 210.7773
1267.011, 175.0425
1268.085, 191.8716
1269.158, 231.0635
1270.231, 206.9453
1271.304, 134.9688
1272.377, 189.0898
1273.450, 166.7832
1274.522, 90.09668
1275.594, 222.2012
1276.666, 133.9795
1277.738, 215.4873
1278.810, 135.3086
1279.882, 233.0688
1280.953, 208.3208
1282.025, 147.3916
1283.096, 168.0283
1284.167, 229.7515
1285.238, 351.3345
1286.308, 145.5991
1287.379, 189.5312
1288.449, 279.4922
1289.519, 206.5073
1290.589, 233.4766
1291.659, 280.4746
1292.729, 246.1094
1293.798, 321.0400
1294.868, 228.6724
1295.937, 292.5151
1297.006, 221.5283
1298.075, 276.5386
1299.143, 259.0747
1300.212, 85.85938
1301.280, 281.9385
1302.348, 131.0957
1303.416, 293.7607
1304.484, 170.4810
1305.552, 146.6875
1306.620, 69.50293
1307.687, 101.9214
1308.754, 138.0845
1309.821, 193.6973
1310.888, 134.0889
1311.955, 147.5459
1313.021, 234.6978
1314.088, 243.3564
1315.154, 148.9111
1316.220, 284.3271
1317.286, 220.0469
1318.352, 153.0215
1319.417, 254.8672
1320.483, 278.0786
1321.548, 204.1367
1322.613, 162.3286
1323.678, 290.2114
1324.743, 271.3154
1325.807, 226.2935
1326.872, 221.4229
1327.936, 207.9785
1329.000, 226.4595
1330.064, 261.3892
1331.128, 307.0688
1332.191, 224.4404
1333.255, 184.0742
1334.318, 152.8428
1335.381, 265.1641
1336.444, 297.9849
1337.507, 258.3994
1338.569, 216.8770
1339.632, 303.2114
1340.694, 387.2100
1341.756, 350.6836
1342.818, 175.5986
1343.880, 263.9517
1344.941, 269.0674
1346.003, 270.5503
1347.064, 272.1333
1348.125, 232.5439
1349.186, 247.7090
1350.247, 403.4648
1351.308, 341.7798
1352.368, 340.2437
1353.428, 292.3765
1354.489, 264.8330
1355.549, 134.5693
1356.608, 159.4199
1357.668, 179.4678
1358.727, 177.6816
1359.787, 252.2744
1360.846, 148.0342
1361.905, 217.0537
1362.964, 114.4736
1364.022, 191.3848
1365.081, 239.5967
1366.139, 171.4443
1367.197, 248.4688
1368.255, 148.2598
1369.313, 98.24609
1370.371, 128.9590
1371.428, 110.7217
1372.486, 116.8105
1373.543, 203.4131
1374.600, 129.8691
1375.657, 167.1133
1376.713, 232.6670
1377.770, 231.8252
1378.826, 45.93945
1379.882, 196.4922
1380.938, 27.24219
1381.994, 184.7598
1383.050, 125.6641
1384.106, 85.28223
1385.161, 131.1660
1386.216, 183.8867
1387.271, 212.6318
1388.326, 159.2520
1389.381, 78.86523
1390.435, 107.6221
1391.490, 152.2256
1392.544, 238.8662
1393.598, 196.5195
1394.652, 222.2178
1395.705, 122.4336
1396.759, 183.8730
1397.812, 137.1572
1398.866, 100.1875
1399.919, 189.5566
1400.972, 59.49707
1402.024, 76.94531
1403.077, 128.0117
1404.129, 178.6572
1405.181, 90.78418
1406.233, 91.32520
1407.285, 2.486328
1408.337, 46.20605
1409.389, 85.61230
1410.440, 68.05176
1411.491, 77.93750
1412.542, 130.7676
1413.593, 195.9365
1414.644, 159.5820
1415.695, 132.8516
1416.745, 106.1006
1417.795, 119.4053
1418.845, 102.8545
1419.895, 83.53320
1420.945, 80.62793
1421.995, 48.69727
1423.044, 24.98340
1424.093, 23.90039
1425.142, 11.09766
1426.191, 76.77441
1427.240, 57.69531
1428.289, 112.7227
1429.337, 68.99805
1430.385, 181.9785
1431.433, 101.3926
1432.481, 116.7021
1433.529, 92.15234
1434.577, 11.04395
1435.624, 6.164063
1436.672, 48.50586
1437.719, 28.43945
1438.766, 4.101563
1439.812, 65.33301
1440.859, 76.78125
1441.905, 63.82031
1442.952, 55.34668
1443.998, 39.63672
1445.044, 87.56348
1446.090, 12.10352
1447.135, 6.273438
1448.181, 29.62598
1449.226, 58.27930
1450.271, 30.90332
1451.316, 46.58301
1452.361, 113.0713
1453.405, 46.83105
1454.450, 28.19434
1455.494, 68.49219
1456.538, 189.1299
1457.582, 138.5381
1458.626, 76.04004
1459.670, 46.11328
1460.713, 41.49316
1461.757, 32.76855
1462.800, 32.06348
1463.843, 14.62793
1464.886, 53.66797
1465.928, 7.998047
1466.971, 33.39844
1468.013, 149.3418
1469.055, 102.7295
1470.097, 79.56348
1471.139, 62.27246
1472.181, 51.08203
1473.222, 132.8037
1474.263, 42.93457
1475.305, 112.8975
1476.346, 176.7070
1477.386, 178.9258
1478.427, 180.8311
1479.468, 134.2646
1480.508, 157.0801
1481.548, 118.1807
1482.588, 162.1104
1483.628, 134.2148
1484.668, 160.4980
1485.707, 140.7812
1486.747, 214.2676
1487.786, 85.28027
1488.825, 122.1064
1489.864, 81.38477
1490.902, 164.7734
1491.941, 206.7090
1492.979, 158.8594
1494.017, 168.3457
1495.055, 250.6035
1496.093, 105.4053
1497.131, 220.9150
1498.168, 74.72656
1499.206, 226.8242
1500.243, 178.3281
1501.280, 93.40918
1502.317, 143.1523
1503.354, 184.7422
1504.390, 75.38184
1505.426, 175.1504
1506.463, 172.4980
1507.499, 32.25195
1508.535, 157.6504
1509.570, 177.0039
1510.606, 167.9141
1511.641, 218.1201
1512.676, 195.6582
1513.711, 204.0762
1514.746, 89.88281
1515.781, 155.3506
1516.816, 165.6992
1517.850, 45.88281
1518.884, 189.3564
1519.918, 86.93066
1520.952, 210.5361
1521.986, 147.3701
1523.019, 55.01562
1524.053, 18.10938
1525.086, 137.4688
1526.119, 63.36328
1527.152, 82.77246
1528.185, 71.92188
1529.217, 24.08691
1530.250, 133.1855
1531.282, 13.99512
1532.314, 65.07324
1533.346, 282.0117
1534.377, 92.77539
1535.409, 7.709961
1536.440, 146.0771
1537.472, 131.6328
1538.503, 89.69531
1539.534, 134.6289
1540.564, 70.63086
1541.595, 137.4971
1542.625, 174.4844
1543.656, 13.65918
1544.686, 127.2891
1545.716, 79.29199
1546.745, 171.5547
1547.775, 175.2324
1548.804, 21.95508
1549.834, 9.744141
1550.863, 75.71680
1551.892, 117.9775
1552.920, 116.5498
1553.949, 135.4473
1554.977, 137.6309
1556.006, 122.8623
1557.034, 223.3076
1558.062, 84.24316
1559.089, 191.1660
1560.117, 186.0469
1561.144, 37.47656
1562.172, 7.390625
1563.199, 32.90723
1564.226, 67.57422
1565.252, 134.2539
1566.279, 105.8672
1567.305, 175.4121
1568.332, 223.8115
1569.358, 120.8008
1570.384, 100.7266
1571.409, 24.00977
1572.435, 0.0000000E+00
##END=



