##NAMES=Dolomite
##RRUFFID=R050241
##IDEAL CHEMISTRY=CaMg(CO_3_)_2_
##LOCALITY=Eugui quarries, Navarre, Spain
##OWNER=RRUFF
##SOURCE=Marcus Origlieri
##DESCRIPTION=Light gray colored tabular crystals
##STATUS=The identification of this mineral has been confirmed by X-ray diffraction and chemical analysis
##URL=rruff.info/R050241
##MEASURED CHEMISTRY=(Ca_0.96_Mg_0.04_)_Σ=1_(Mg_0.98_Fe^2+^_0.02_)_Σ=1_(CO_3_)_2_ ; CO_2_ estimated by difference
##PIN_ID=L00518
##ORIENTATION=Laser parallel to -a* (-1 0 0). Fiducial mark perpendicular to laser is parallel to c [0 0 1]
100.8830, 0.0000000E+00
102.1160, 103.9839
103.3490, 41.82129
104.5820, 3.248047
105.8150, 114.9883
107.0470, 120.4280
108.2800, 217.2422
109.5120, 124.4036
110.7440, 79.66821
111.9760, 19.14600
113.2080, 54.82251
114.4400, 129.4619
115.6710, 164.6843
116.9030, 74.41943
118.1340, 85.60742
119.3650, 31.20264
120.5960, 52.16553
121.8270, 107.4590
123.0580, 119.0525
124.2880, 124.9180
125.5190, 144.0300
126.7490, 171.3667
127.9790, 79.91016
129.2090, 81.64453
130.4390, 77.56177
131.6680, 123.6497
132.8980, 104.8899
134.1270, 113.2729
135.3560, 107.7998
136.5850, 201.4612
137.8140, 203.2798
139.0430, 203.2063
140.2710, 218.2310
141.5000, 190.3459
142.7280, 223.5684
143.9560, 162.8911
145.1840, 268.2874
146.4120, 187.7537
147.6390, 224.2883
148.8670, 188.8882
150.0940, 281.5505
151.3210, 396.2734
152.5490, 322.0552
153.7750, 343.8923
155.0020, 302.7844
156.2290, 391.7314
157.4550, 453.7319
158.6810, 569.7842
159.9080, 654.1338
161.1340, 766.2788
162.3590, 1007.471
163.5850, 1391.708
164.8110, 1959.990
166.0360, 2563.315
167.2610, 3624.682
168.4860, 4104.090
169.7110, 4521.968
170.9360, 4702.448
172.1610, 5286.966
173.3850, 5716.574
174.6100, 6576.190
175.8340, 8207.788
177.0580, 10419.39
178.2820, 12097.99
179.5050, 11831.60
180.7290, 9650.212
181.9520, 6985.847
183.1760, 4735.521
184.3990, 3176.599
185.6220, 2139.292
186.8450, 1556.003
188.0670, 1217.732
189.2900, 815.4800
190.5120, 822.2578
191.7340, 599.0645
192.9560, 551.8940
194.1780, 333.7505
195.4000, 452.6289
196.6220, 278.5269
197.8430, 454.4434
199.0640, 344.3794
200.2860, 246.3345
201.5070, 358.3081
202.7270, 235.3008
203.9480, 191.3110
205.1690, 217.3398
206.3890, 106.3926
207.6090, 133.4688
208.8290, 151.6094
210.0490, 89.76709
211.2690, 51.94971
212.4890, 154.1572
213.7080, 76.37939
214.9280, 121.6167
216.1470, 74.86768
217.3660, 44.13330
218.5850, 9.587402
219.8030, 43.70557
221.0220, 29.01465
222.2400, 61.33936
223.4590, 44.67725
224.6770, 33.02930
225.8950, 18.40137
227.1120, 29.80225
228.3300, 24.22168
229.5480, 12.15967
230.7650, 21.49609
231.9820, 23.16309
233.1990, 26.02295
234.4160, 42.50488
235.6330, 42.00928
236.8490, 53.02246
238.0660, 14.94727
239.2820, 45.58838
240.4980, 56.14990
241.7140, 38.74854
242.9300, 86.35400
244.1460, 87.00146
245.3610, 26.37744
246.5770, 99.24023
247.7920, 0.3037110
249.0070, 50.27539
250.2220, 119.9331
251.4370, 93.63965
252.6510, 93.40039
253.8660, 103.4604
255.0800, 64.26465
256.2940, 74.12451
257.5080, 98.03516
258.7220, 173.2271
259.9360, 94.22803
261.1490, 135.0776
262.3630, 93.15771
263.5760, 149.8525
264.7890, 78.00684
266.0020, 56.19141
267.2150, 34.59521
268.4270, 65.30908
269.6400, 89.57129
270.8520, 88.87207
272.0640, 215.1968
273.2760, 216.5518
274.4880, 213.9302
275.7000, 266.3281
276.9120, 245.7456
278.1230, 287.1953
279.3340, 332.4419
280.5450, 397.8384
281.7560, 456.0483
282.9670, 611.5645
284.1780, 730.5298
285.3880, 912.0747
286.5980, 1135.087
287.8090, 1515.659
289.0190, 1832.245
290.2290, 2310.843
291.4380, 2846.453
292.6480, 3256.075
293.8570, 3708.710
295.0670, 4133.355
296.2760, 4606.012
297.4850, 5034.679
298.6930, 5849.356
299.9020, 6578.044
301.1110, 7250.744
302.3190, 7434.452
303.5270, 7148.168
304.7350, 6325.896
305.9430, 5086.629
307.1510, 3926.370
308.3580, 2929.120
309.5660, 2322.878
310.7730, 1900.571
311.9800, 1454.345
313.1870, 1199.125
314.3940, 987.9185
315.6010, 853.7891
316.8070, 746.5874
318.0130, 628.3936
319.2200, 598.2007
320.4260, 520.6602
321.6310, 398.4795
322.8370, 408.3042
324.0430, 354.1426
325.2480, 287.9790
326.4540, 429.8213
327.6590, 255.6704
328.8640, 351.5283
330.0680, 331.3843
331.2730, 413.2461
332.4780, 490.1123
333.6820, 372.9839
334.8860, 558.8599
336.0900, 558.7432
337.2940, 632.6318
338.4980, 845.5244
339.7010, 882.8320
340.9050, 871.7334
342.1080, 859.6377
343.3110, 764.5464
344.5140, 568.4590
345.7170, 467.3755
346.9200, 322.6162
348.1220, 233.5469
349.3240, 102.4487
350.5270, 51.39258
351.7290, 177.4624
352.9310, 203.9116
354.1320, 195.8516
355.3340, 132.7939
356.5350, 139.0601
357.7370, 94.37646
358.9380, 96.63672
360.1390, 48.58887
361.3400, 36.53125
362.5400, 67.48877
363.7410, 50.62061
364.9410, 76.32910
366.1410, 80.26904
367.3410, 110.3271
368.5410, 144.6211
369.7410, 138.2051
370.9400, 115.0771
372.1400, 77.63721
373.3390, 60.60547
374.5380, 26.57471
375.7370, 70.54443
376.9360, 42.59277
378.1350, 23.23633
379.3330, 78.48535
380.5310, 4.457031
381.7300, 90.47949
382.9280, 52.24805
384.1260, 0.7807620
385.3230, 14.20117
386.5210, 35.82764
387.7180, 10.57715
388.9160, 63.38623
390.1130, 37.82715
391.3100, 55.78076
392.5060, 89.73145
393.7030, 45.69385
394.9000, 22.66064
396.0960, 62.62988
397.2920, 8.396973
398.4880, 38.57617
399.6840, 2.556152
400.8800, 84.53955
402.0750, 58.60156
403.2710, 63.81689
404.4660, 18.19092
405.6610, 1.314453
406.8560, 31.71875
408.0510, 9.258789
409.2450, 12.23779
410.4400, 31.37012
411.6340, 14.44580
412.8280, 21.52881
414.0220, 92.03125
415.2160, 38.00684
416.4100, 85.49902
417.6030, 3.555664
418.7970, 103.5303
419.9900, 84.50488
421.1830, 96.81348
422.3760, 23.21436
423.5690, 39.74414
424.7610, 21.70166
425.9540, 58.65820
427.1460, 5.386719
428.3380, 41.56152
429.5300, 5.490723
430.7220, 48.45020
431.9140, 134.5908
433.1050, 48.72314
434.2970, 54.65771
435.4880, 13.59082
436.6790, 93.64746
437.8700, 44.67773
439.0610, 17.76953
440.2510, 117.6924
441.4420, 72.73682
442.6320, 30.96094
443.8220, 77.87695
445.0120, 84.89209
446.2020, 69.89844
447.3910, 57.80469
448.5810, 136.7090
449.7700, 15.60938
450.9600, 99.50635
452.1490, 137.5801
453.3370, 9.385254
454.5260, 64.49316
455.7150, 67.36816
456.9030, 57.76123
458.0910, 7.071777
459.2800, 87.90039
460.4670, 91.10742
461.6550, 63.92773
462.8430, 19.13281
464.0300, 119.6650
465.2180, 126.4585
466.4050, 16.24805
467.5920, 115.0332
468.7790, 43.18213
469.9650, 31.12793
471.1520, 104.6021
472.3380, 71.36963
473.5250, 108.1323
474.7110, 52.89648
475.8970, 128.6504
477.0820, 70.39844
478.2680, 75.82227
479.4540, 30.56201
480.6390, 57.29639
481.8240, 4.025391
483.0090, 62.74658
484.1940, 37.46240
485.3780, 64.18213
486.5630, 138.0894
487.7470, 76.79883
488.9320, 7.502441
490.1160, 33.38184
491.3000, 3.891602
492.4830, 4.341309
493.6670, 14.66406
494.8500, 4.370605
496.0340, 57.01562
497.2170, 64.65479
498.4000, 98.35645
499.5820, 81.22852
500.7650, 55.85303
501.9480, 55.47559
503.1300, 2.530273
504.3120, 113.0869
505.4940, 143.6978
506.6760, 51.30664
507.8580, 67.90869
509.0390, 3.490723
510.2210, 12.09814
511.4020, 21.67725
512.5830, 50.24951
513.7640, 69.81543
514.9450, 88.39648
516.1250, 115.9614
517.3060, 74.51904
518.4860, 34.16504
519.6660, 43.29102
520.8460, 4.994629
522.0260, 113.7222
523.2060, 43.20312
524.3850, 119.6772
525.5650, 101.1455
526.7440, 54.78418
527.9230, 58.24121
529.1020, 5.260742
530.2810, 78.78418
531.4590, 121.3076
532.6380, 163.7300
533.8160, 76.14453
534.9940, 90.59766
536.1720, 123.0068
537.3500, 186.4326
538.5270, 141.1714
539.7050, 111.8994
540.8820, 73.26562
542.0590, 63.64014
543.2360, 46.00684
544.4130, 23.36621
545.5900, 116.7163
546.7660, 20.25146
547.9430, 19.41553
549.1190, 73.92334
550.2950, 75.46191
551.4710, 29.76562
552.6470, 71.07617
553.8220, 143.7285
554.9980, 40.95752
556.1730, 117.3198
557.3480, 18.40186
558.5230, 11.85107
559.6980, 158.0908
560.8730, 74.32324
562.0470, 37.45312
563.2220, 92.73633
564.3960, 120.5176
565.5700, 107.6919
566.7440, 73.85840
567.9170, 119.0171
569.0910, 193.7334
570.2640, 117.8770
571.4380, 186.5591
572.6110, 27.68701
573.7840, 28.80615
574.9570, 96.91602
576.1290, 125.0166
577.3020, 44.10986
578.4740, 50.19287
579.6460, 35.53711
580.8180, 88.33203
581.9900, 46.38770
583.1620, 21.43408
584.3330, 93.46973
585.5040, 52.49756
586.6760, 54.51611
587.8470, 113.5254
589.0180, 85.52637
590.1880, 115.5186
591.3590, 105.5024
592.5290, 36.47803
593.7000, 45.44287
594.8700, 132.4707
596.0400, 102.4170
597.2090, 174.3555
598.3790, 154.2783
599.5490, 166.1206
600.7180, 15.03223
601.8870, 126.9326
603.0560, 48.82324
604.2250, 92.05908
605.3940, 105.9321
606.5620, 79.79688
607.7300, 150.6450
608.8990, 15.49219
610.0670, 38.32715
611.2350, 2.152832
612.4020, 88.96338
613.5700, 153.7656
614.7370, 78.55908
615.9050, 82.34375
617.0720, 116.1196
618.2390, 2.944824
619.4060, 86.72803
620.5720, 135.4722
621.7390, 108.2319
622.9050, 85.73682
624.0710, 166.5068
625.2370, 108.2988
626.4030, 37.99951
627.5690, 139.6899
628.7340, 164.3711
629.9000, 40.72217
631.0650, 28.38525
632.2300, 156.0630
633.3950, 182.0098
634.5600, 71.50879
635.7240, 163.8911
636.8890, 124.5073
638.0530, 68.16895
639.2170, 29.36865
640.3810, 126.1616
641.5450, 194.4263
642.7080, 20.57764
643.8720, 148.3018
645.0350, 143.0259
646.1980, 179.1782
647.3610, 200.0483
648.5240, 143.1294
649.6870, 164.7295
650.8490, 190.9067
652.0120, 120.3145
653.1740, 162.8071
654.3360, 89.61377
655.4980, 170.5430
656.6600, 169.0107
657.8210, 70.46875
658.9830, 229.8389
660.1440, 85.61279
661.3050, 120.8555
662.4660, 103.3354
663.6270, 165.7358
664.7870, 163.1890
665.9480, 39.59229
667.1080, 152.4780
668.2680, 4.010254
669.4280, 132.1011
670.5880, 66.83154
671.7480, 152.1885
672.9070, 150.5366
674.0670, 82.38525
675.2260, 237.1392
676.3850, 86.80322
677.5440, 94.13184
678.7030, 97.49902
679.8610, 3.189453
681.0200, 132.1030
682.1780, 158.3867
683.3360, 164.7910
684.4940, 102.8311
685.6520, 97.42578
686.8090, 134.6582
687.9670, 3.894043
689.1240, 37.70508
690.2810, 244.7773
691.4380, 211.3608
692.5950, 219.8848
693.7520, 149.3125
694.9080, 177.4189
696.0650, 180.6646
697.2210, 224.7627
698.3770, 189.4395
699.5330, 287.5825
700.6880, 179.7163
701.8440, 236.9180
702.9990, 259.1729
704.1550, 211.3618
705.3100, 315.7324
706.4650, 246.8276
707.6190, 259.0312
708.7740, 279.3657
709.9290, 373.5098
711.0830, 399.7549
712.2370, 373.6221
713.3910, 482.6929
714.5450, 476.7402
715.6980, 570.7783
716.8520, 760.6802
718.0050, 927.5967
719.1580, 953.4390
720.3110, 1083.437
721.4640, 1215.301
722.6170, 1413.043
723.7700, 1464.031
724.9220, 1535.049
726.0740, 1514.005
727.2260, 1456.947
728.3780, 1454.891
729.5300, 1210.822
730.6810, 1053.797
731.8330, 765.5273
732.9840, 598.2837
734.1350, 500.1836
735.2860, 396.0684
736.4370, 300.9424
737.5880, 256.8232
738.7380, 251.6948
739.8880, 278.1743
741.0390, 222.0273
742.1890, 142.7471
743.3380, 217.5869
744.4880, 174.4199
745.6380, 112.2432
746.7870, 161.0562
747.9360, 126.4907
749.0850, 106.1143
750.2340, 131.1948
751.3830, 164.0947
752.5310, 115.8574
753.6800, 138.6035
754.8280, 121.5195
755.9760, 83.20117
757.1240, 89.24170
758.2720, 111.9531
759.4190, 90.65723
760.5670, 51.34814
761.7140, 84.22021
762.8610, 21.89941
764.0080, 138.7422
765.1550, 114.1802
766.3020, 159.8018
767.4480, 124.4131
768.5950, 94.83105
769.7410, 97.42383
770.8870, 24.01074
772.0330, 154.8379
773.1780, 32.35449
774.3240, 171.0664
775.4690, 83.61670
776.6140, 2.335449
777.7590, 47.61719
778.9040, 0.1289060
780.0490, 46.00049
781.1940, 60.09180
782.3380, 54.85889
783.4820, 1.944336
784.6260, 228.3960
785.7700, 3.192871
786.9140, 7.800781
788.0580, 158.7598
789.2010, 90.23438
790.3450, 116.7246
791.4880, 25.79395
792.6310, 9.512695
793.7730, 133.6543
794.9160, 156.9492
796.0590, 114.1387
797.2010, 178.3447
798.3430, 78.60547
799.4850, 85.97559
800.6270, 92.39355
801.7690, 89.67871
802.9100, 125.9238
804.0520, 8.015625
805.1930, 63.31738
806.3340, 237.8867
807.4750, 19.09180
808.6160, 108.1875
809.7560, 150.5361
810.8970, 12.12695
812.0370, 17.32617
813.1770, 26.46191
814.3170, 133.7871
815.4570, 89.90039
816.5960, 180.2627
817.7360, 134.3711
818.8750, 153.6816
820.0140, 50.75391
821.1530, 107.0215
822.2920, 23.28418
823.4310, 38.40137
824.5690, 47.56934
825.7070, 12.07324
826.8460, 0.5410160
827.9840, 43.18750
829.1220, 40.01562
830.2590, 42.89258
831.3970, 10.80273
832.5340, 20.29883
833.6710, 84.57129
834.8080, 106.5059
835.9450, 176.4160
837.0820, 197.4629
838.2190, 12.50684
839.3550, 65.44043
840.4910, 80.27344
841.6270, 34.29785
842.7630, 120.1094
843.8990, 68.93262
845.0350, 35.72363
846.1700, 82.93457
847.3060, 56.70312
848.4410, 146.2949
849.5760, 50.04199
850.7100, 104.7803
851.8450, 229.5986
852.9800, 107.3164
854.1140, 211.0947
855.2480, 160.7959
856.3820, 157.5469
857.5160, 150.2275
858.6500, 80.89941
859.7830, 92.56250
860.9170, 58.32227
862.0500, 71.96582
863.1830, 179.8545
864.3160, 98.37402
865.4480, 148.9883
866.5810, 85.59375
867.7130, 139.1875
868.8460, 145.7744
869.9780, 96.47559
871.1100, 125.0420
872.2410, 120.6006
873.3730, 120.2109
874.5050, 218.7500
875.6360, 258.6289
876.7670, 186.1504
877.8980, 141.6631
879.0290, 139.1660
880.1590, 170.5078
881.2900, 156.9922
882.4200, 480.4668
883.5500, 377.9316
884.6800, 318.3896
885.8100, 225.8408
886.9400, 64.28613
888.0690, 96.71973
889.1990, 141.1455
890.3280, 240.5596
891.4570, 63.96680
892.5860, 145.3057
893.7140, 166.6650
894.8430, 92.04590
895.9710, 101.3926
897.1000, 46.56738
898.2280, 41.86719
899.3560, 258.1279
900.4830, 160.4609
901.6110, 228.7871
902.7380, 126.1025
903.8660, 153.4160
904.9930, 27.71289
906.1200, 98.00781
907.2460, 28.97656
908.3730, 92.25293
909.5000, 51.25195
910.6260, 126.5098
911.7520, 27.70508
912.8780, 230.3438
914.0040, 101.3721
915.1290, 5.916992
916.2550, 214.5576
917.3800, 8.618164
918.5050, 1.351563
919.6300, 74.23730
920.7550, 84.42871
921.8800, 150.7188
923.0040, 35.71387
924.1290, 53.88086
925.2530, 9.987305
926.3770, 47.15430
927.5010, 91.96387
928.6250, 6.367188
929.7480, 82.74316
930.8720, 120.8457
931.9950, 24.05762
933.1180, 201.0420
934.2410, 52.05078
935.3640, 11.90820
936.4860, 67.13867
937.6090, 113.1680
938.7310, 57.23047
939.8530, 53.79004
940.9750, 180.6963
942.0970, 76.74609
943.2180, 119.4277
944.3400, 32.46777
945.4610, 32.49805
946.5820, 63.98828
947.7030, 86.59375
948.8240, 16.24805
949.9450, 78.22168
951.0650, 7.141602
952.1860, 131.1006
953.3060, 14.05762
954.4260, 75.00684
955.5460, 18.75391
956.6650, 17.40527
957.7850, 48.77344
958.9040, 33.97363
960.0230, 72.68066
961.1420, 90.02246
962.2610, 50.08887
963.3800, 7.473633
964.4990, 170.0537
965.6170, 54.71680
966.7350, 214.1592
967.8530, 94.97461
968.9710, 39.79980
970.0890, 43.67480
971.2070, 8.544922
972.3240, 6.293945
973.4410, 18.14746
974.5580, 57.55664
975.6750, 5.321289
976.7920, 127.8867
977.9090, 47.71191
979.0250, 107.4150
980.1410, 40.02539
981.2580, 152.6982
982.3740, 30.69141
983.4890, 107.0723
984.6050, 119.6240
985.7200, 29.37891
986.8360, 60.12793
987.9510, 33.87305
989.0660, 124.6123
990.1810, 35.34766
991.2950, 160.0781
992.4100, 206.8037
993.5240, 202.4541
994.6390, 23.15137
995.7530, 192.7012
996.8660, 22.69434
997.9800, 33.00098
999.0940, 128.6680
1000.207, 174.3359
1001.320, 169.9463
1002.433, 184.6064
1003.546, 16.26367
1004.659, 177.9082
1005.772, 145.5547
1006.884, 30.19824
1007.996, 249.8379
1009.108, 5.526367
1010.220, 232.1016
1011.332, 114.7266
1012.444, 174.3467
1013.555, 17.03418
1014.666, 208.5713
1015.777, 230.1758
1016.888, 231.7744
1017.999, 212.6514
1019.110, 200.7441
1020.220, 186.8350
1021.331, 170.2930
1022.441, 160.4062
1023.551, 163.4570
1024.661, 152.6855
1025.770, 148.9033
1026.880, 176.0557
1027.989, 165.6260
1029.098, 161.1875
1030.207, 201.7510
1031.316, 170.1221
1032.425, 207.4717
1033.533, 158.0410
1034.642, 133.6064
1035.750, 138.1709
1036.858, 95.46289
1037.966, 116.5312
1039.073, 60.60449
1040.181, 140.1611
1041.288, 173.4736
1042.396, 174.0332
1043.503, 164.4521
1044.610, 231.0391
1045.716, 207.3730
1046.823, 245.0332
1047.929, 298.2314
1049.036, 285.4395
1050.142, 307.4600
1051.248, 268.3135
1052.353, 331.1182
1053.459, 345.6816
1054.564, 410.2734
1055.670, 414.1650
1056.775, 455.3789
1057.880, 435.8740
1058.985, 411.3408
1060.089, 443.8057
1061.194, 631.4102
1062.298, 660.1777
1063.402, 823.7803
1064.506, 678.3799
1065.610, 809.4883
1066.713, 935.0850
1067.817, 1074.394
1068.920, 1138.834
1070.023, 1440.486
1071.126, 1536.074
1072.229, 1802.075
1073.332, 1925.584
1074.435, 2149.172
1075.537, 2200.758
1076.639, 2579.606
1077.741, 2504.023
1078.843, 2849.491
1079.945, 3083.557
1081.046, 3160.166
1082.148, 3375.525
1083.249, 3560.106
1084.350, 3982.427
1085.451, 4355.207
1086.551, 4890.557
1087.652, 5763.551
1088.752, 6676.992
1089.853, 8441.353
1090.953, 10895.85
1092.053, 14605.28
1093.152, 19003.85
1094.252, 24232.42
1095.351, 29391.94
1096.451, 35605.31
1097.550, 42534.91
1098.649, 49390.50
1099.748, 51764.11
1100.846, 46023.75
1101.945, 34977.28
1103.043, 23777.84
1104.141, 15372.25
1105.239, 10237.65
1106.337, 7009.158
1107.434, 4943.758
1108.532, 3789.150
1109.629, 3000.902
1110.726, 2175.474
1111.823, 1855.068
1112.920, 1608.229
1114.017, 1350.821
1115.113, 1162.678
1116.210, 1063.169
1117.306, 864.9248
1118.402, 836.4229
1119.498, 739.0098
1120.593, 736.5273
1121.689, 582.1113
1122.784, 560.6348
1123.879, 486.2178
1124.974, 341.9580
1126.069, 281.5391
1127.164, 327.2139
1128.259, 369.7930
1129.353, 372.1172
1130.447, 269.8008
1131.541, 264.3789
1132.635, 240.9570
1133.729, 152.5352
1134.822, 234.1660
1135.916, 214.6338
1137.009, 166.2266
1138.102, 166.8174
1139.195, 182.2910
1140.288, 173.0020
1141.380, 252.2588
1142.473, 206.8662
1143.565, 248.4717
1144.657, 130.0762
1145.749, 74.83301
1146.841, 113.4502
1147.932, 249.0664
1149.024, 5.318359
1150.115, 103.2939
1151.206, 190.9043
1152.297, 157.5146
1153.388, 151.1240
1154.479, 169.2227
1155.569, 156.9062
1156.659, 135.1309
1157.750, 172.8408
1158.839, 110.4463
1159.929, 126.0508
1161.019, 158.7441
1162.108, 82.52344
1163.198, 168.3662
1164.287, 160.3613
1165.376, 166.0771
1166.465, 84.87207
1167.553, 20.45605
1168.642, 80.13965
1169.730, 33.95898
1170.818, 75.97461
1171.906, 91.95410
1172.994, 87.33984
1174.082, 100.4336
1175.170, 90.87500
1176.257, 76.45117
1177.344, 27.02734
1178.431, 26.39941
1179.518, 111.1562
1180.605, 44.89746
1181.691, 210.4492
1182.778, 29.94629
1183.864, 211.5898
1184.950, 62.41113
1186.036, 40.17383
1187.122, 30.70215
1188.207, 105.4932
1189.292, 85.01660
1190.378, 51.54199
1191.463, 85.06543
1192.548, 86.67383
1193.632, 74.19434
1194.717, 63.91992
1195.801, 101.5400
1196.886, 142.9258
1197.970, 27.61133
1199.054, 133.8867
1200.137, 28.33203
1201.221, 124.8311
1202.305, 21.93555
1203.388, 149.4873
1204.471, 154.9092
1205.554, 94.32812
1206.637, 0.2578130
1207.719, 114.1523
1208.802, 39.55957
1209.884, 27.03711
1210.966, 46.36621
1212.048, 174.7666
1213.130, 143.1641
1214.212, 64.55859
1215.293, 4.116211
1216.374, 116.5342
1217.456, 36.07910
1218.536, 35.28320
1219.617, 166.6982
1220.698, 116.6133
1221.778, 139.9668
1222.859, 161.3184
1223.939, 151.6670
1225.019, 118.0127
1226.099, 115.5762
1227.178, 65.69824
1228.258, 69.03711
1229.337, 77.37305
1230.417, 45.70508
1231.496, 74.03320
1232.574, 86.35742
1233.653, 128.6787
1234.732, 70.99609
1235.810, 148.3389
1236.888, 94.65625
1237.966, 143.9678
1239.044, 19.27637
1240.122, 134.5791
1241.199, 100.8770
1242.277, 71.32031
1243.354, 163.8027
1244.431, 136.1143
1245.508, 257.4287
1246.585, 17.83008
1247.661, 116.4336
1248.738, 88.73242
1249.814, 296.0732
1250.890, 261.3652
1251.966, 211.8057
1253.042, 236.2871
1254.117, 21.56543
1255.193, 153.8389
1256.268, 11.14160
1257.343, 121.4043
1258.418, 191.3398
1259.493, 247.8037
1260.567, 106.0684
1261.642, 152.4668
1262.716, 93.14844
1263.790, 56.49609
1264.864, 189.7520
1265.938, 147.0049
1267.011, 192.2529
1268.085, 214.9346
1269.158, 62.24902
1270.231, 101.8154
1271.304, 91.28418
1272.377, 162.5078
1273.450, 231.8174
1274.522, 153.1279
1275.594, 117.9258
1276.666, 192.1367
1277.738, 187.5098
1278.810, 117.4277
1279.882, 120.8252
1280.953, 187.1729
1282.025, 100.3564
1283.096, 86.53223
1284.167, 31.70410
1285.238, 124.8672
1286.308, 52.49805
1287.379, 171.6484
1288.449, 137.9033
1289.519, 56.04199
1290.589, 35.55273
1291.659, 20.67871
1292.729, 8.481445
1293.798, 51.09863
1294.868, 32.19824
1295.937, 61.29199
1297.006, 76.37891
1298.075, 22.45801
1299.143, 7.517578
1300.212, 6.403320
1301.280, 49.64062
1302.348, 40.32422
1303.416, 48.17188
1304.484, 80.78906
1305.552, 159.7422
1306.620, 151.6123
1307.687, 137.9355
1308.754, 34.87109
1309.821, 84.79199
1310.888, 66.71191
1311.955, 177.7627
1313.021, 14.66895
1314.088, 22.56641
1315.154, 204.4258
1316.220, 7.760742
1317.286, 227.1035
1318.352, 85.95996
1319.417, 205.8135
1320.483, 57.66016
1321.548, 138.4990
1322.613, 29.33008
1323.678, 73.15625
1324.743, 187.5361
1325.807, 157.3525
1326.872, 59.35156
1327.936, 155.1553
1329.000, 58.86523
1330.064, 3.339844
1331.128, 159.9697
1332.191, 96.03320
1333.255, 127.8135
1334.318, 140.5889
1335.381, 132.0947
1336.444, 134.8594
1337.507, 213.5684
1338.569, 149.5000
1339.632, 83.22852
1340.694, 237.0713
1341.756, 138.8174
1342.818, 31.55859
1343.880, 64.33301
1344.941, 126.0654
1346.003, 188.3750
1347.064, 56.02148
1348.125, 1.258789
1349.186, 137.4492
1350.247, 190.2197
1351.308, 131.2275
1352.368, 217.1123
1353.428, 190.2051
1354.489, 72.76855
1355.549, 180.6377
1356.608, 92.39746
1357.668, 88.23438
1358.727, 121.8291
1359.787, 147.4336
1360.846, 208.0283
1361.905, 81.61816
1362.964, 64.18066
1364.022, 70.73535
1365.081, 75.28320
1366.139, 80.82520
1367.197, 108.2051
1368.255, 251.7324
1369.313, 35.25391
1370.371, 34.17383
1371.428, 244.6777
1372.486, 300.1758
1373.543, 52.66895
1374.600, 12.03418
1375.657, 118.5137
1376.713, 63.98535
1377.770, 107.5391
1378.826, 38.00195
1379.882, 27.51855
1380.938, 140.9697
1381.994, 122.3848
1383.050, 66.82520
1384.106, 161.0576
1385.161, 0.5117190
1386.216, 25.99316
1387.271, 104.4092
1388.326, 46.67773
1389.381, 7.083984
1390.435, 53.51660
1391.490, 176.8203
1392.544, 169.1875
1393.598, 119.5518
1394.652, 59.09082
1395.705, 59.24121
1396.759, 12.53223
1397.812, 22.84961
1398.866, 126.1602
1399.919, 55.46387
1400.972, 53.75684
1402.024, 45.09375
1403.077, 187.1650
1404.129, 37.41504
1405.181, 179.6602
1406.233, 28.90234
1407.285, 39.13867
1408.337, 120.3701
1409.389, 97.59863
1410.440, 133.7754
1411.491, 250.7607
1412.542, 5.926758
1413.593, 145.9824
1414.644, 51.13477
1415.695, 79.27832
1416.745, 10.32715
1417.795, 92.28027
1418.845, 30.11426
1419.895, 191.0205
1420.945, 133.9648
1421.995, 165.8203
1423.044, 122.7910
1424.093, 145.9004
1425.142, 112.6982
1426.191, 71.31445
1427.240, 186.0840
1428.289, 141.9453
1429.337, 35.55664
1430.385, 82.66211
1431.433, 271.6191
1432.481, 143.5674
1433.529, 234.5078
1434.577, 210.4414
1435.624, 275.1826
1436.672, 357.0986
1437.719, 532.9531
1438.766, 751.8643
1439.812, 708.4814
1440.859, 906.1523
1441.905, 894.0547
1442.952, 1063.691
1443.998, 1058.600
1445.044, 871.0830
1446.090, 697.0137
1447.135, 608.6836
1448.181, 389.2861
1449.226, 334.4648
1450.271, 295.9248
1451.316, 510.3389
1452.361, 362.9219
1453.405, 299.3838
1454.450, 408.8369
1455.494, 185.2871
1456.538, 220.7402
1457.582, 11.19531
1458.626, 113.4629
1459.670, 175.8721
1460.713, 188.2656
1461.757, 291.0898
1462.800, 141.5283
1463.843, 90.95508
1464.886, 155.3730
1465.928, 44.78418
1466.971, 226.1885
1468.013, 127.5889
1469.055, 17.94824
1470.097, 139.3379
1471.139, 147.7266
1472.181, 249.6992
1473.222, 150.0391
1474.263, 103.8828
1475.305, 53.15527
1476.346, 12.83105
1477.386, 25.98926
1478.427, 28.60449
1479.468, 42.00684
1480.508, 25.85254
1481.548, 47.76367
1482.588, 21.12793
1483.628, 95.29590
1484.668, 176.0723
1485.707, 251.3330
1486.747, 285.4561
1487.786, 257.9199
1488.825, 310.6406
1489.864, 250.2939
1490.902, 204.9951
1491.941, 203.9316
1492.979, 195.1240
1494.017, 75.86426
1495.055, 49.83789
1496.093, 80.73828
1497.131, 137.6270
1498.168, 105.5117
1499.206, 42.39355
1500.243, 195.2520
1501.280, 211.9121
1502.317, 32.91504
1503.354, 97.91797
1504.390, 38.91992
1505.426, 288.9258
1506.463, 22.93555
1507.499, 115.9502
1508.535, 363.9893
1509.570, 87.02051
1510.606, 34.05762
1511.641, 288.0889
1512.676, 39.88574
1513.711, 210.1309
1514.746, 168.1289
1515.781, 199.4941
1516.816, 178.4453
1517.850, 169.3887
1518.884, 262.3105
1519.918, 249.9863
1520.952, 240.2051
1521.986, 172.1113
1523.019, 181.9307
1524.053, 238.5664
1525.086, 206.0420
1526.119, 6.979492
1527.152, 218.9688
1528.185, 62.24219
1529.217, 215.2002
1530.250, 129.2295
1531.282, 119.3379
1532.314, 209.4609
1533.346, 276.6143
1534.377, 121.6436
1535.409, 186.5322
1536.440, 64.25586
1537.472, 212.8301
1538.503, 57.46387
1539.534, 59.81250
1540.564, 193.6162
1541.595, 193.0586
1542.625, 128.8213
1543.656, 0.8945310
1544.686, 153.3516
1545.716, 63.53711
1546.745, 110.6777
1547.775, 18.75977
1548.804, 56.80859
1549.834, 23.04883
1550.863, 139.8320
1551.892, 216.4746
1552.920, 185.9434
1553.949, 245.8594
1554.977, 110.6621
1556.006, 36.34766
1557.034, 62.88477
1558.062, 37.10547
1559.089, 43.19336
1560.117, 149.4336
1561.144, 97.11914
1562.172, 151.5508
1563.199, 213.1230
1564.226, 134.8457
1565.252, 48.95312
1566.279, 101.5918
1567.305, 91.92383
1568.332, 1.970703
1569.358, 110.3027
1570.384, 111.0156
1571.409, 0.0000000E+00
##END=



