##NAMES=Dolomite
##RRUFFID=R050370
##IDEAL CHEMISTRY=CaMg(CO_3_)_2_
##LOCALITY=Morro Velho mine, Nova Lima, Minas Gerais, Brazil
##OWNER=RRUFF
##SOURCE=Eugene Schlepp
##DESCRIPTION=Colorless bladed crystals associated with pyrrhotite and albite
##STATUS=The identification of this mineral has been confirmed by X-ray diffraction and chemical analysis
##URL=rruff.info/R050370
##MEASURED CHEMISTRY=(Ca_0.84_Fe_0.16_)_Σ=1_(Mg_0.98_Mn_0.02_)_Σ=1_(CO_3_)_2_ ; CO_2_ estimated by difference
##PIN_ID=L01076
##ORIENTATION=Laser parallel to a* (1 0 0). Fiducial mark perpendicular to laser is parallel to c [0 0 1]
118.1340, 0.0000000E+00
119.3650, 2.6489001E-02
120.5960, 6.503296
121.8270, 24.98584
123.0580, 30.09644
124.2880, 3.859009
125.5190, 37.93457
126.7490, 93.33228
127.9790, 24.21765
129.2090, 19.50208
130.4390, 57.15918
131.6680, 42.13062
132.8980, 72.36853
134.1270, 38.83044
135.3560, 65.47791
136.5850, 62.28320
137.8140, 89.22363
139.0430, 107.2816
140.2710, 123.4653
141.5000, 138.0144
142.7280, 125.6184
143.9560, 116.2740
145.1840, 184.0022
146.4120, 208.8113
147.6390, 186.6748
148.8670, 240.5676
150.0940, 230.4816
151.3210, 304.4203
152.5490, 261.3845
153.7750, 318.3730
155.0020, 393.3844
156.2290, 438.4167
157.4550, 511.4678
158.6810, 632.5378
159.9080, 686.6274
161.1340, 890.7367
162.3590, 1060.578
163.5850, 1175.571
164.8110, 1432.596
166.0360, 1525.648
167.2610, 1742.233
168.4860, 1943.323
169.7110, 2035.437
170.9360, 2094.573
172.1610, 2127.263
173.3850, 2035.246
174.6100, 1843.986
175.8340, 1719.439
177.0580, 1440.954
178.2820, 1161.149
179.5050, 910.3611
180.7290, 719.6002
181.9520, 596.8657
183.1760, 391.1769
184.3990, 343.5214
185.6220, 276.8739
186.8450, 222.2341
188.0670, 241.6018
189.2900, 163.9768
190.5120, 157.3586
191.7340, 118.7455
192.9560, 85.12781
194.1780, 87.50818
195.4000, 59.88586
196.6220, 89.27661
197.8430, 62.69617
199.0640, 83.11829
200.2860, 84.56006
201.5070, 66.03418
202.7270, 78.51147
203.9480, 53.99194
205.1690, 8.496826
206.3890, 45.04138
207.6090, 48.58203
208.8290, 34.87354
210.0490, 48.68042
211.2690, 23.25916
212.4890, 23.84167
213.7080, 99.42761
214.9280, 6.984741
216.1470, 9.614624
217.3660, 35.21851
218.5850, 65.82556
219.8030, 50.43445
221.0220, 21.04517
222.2400, 29.65698
223.4590, 18.26990
224.6770, 31.88391
225.8950, 16.50098
227.1120, 2.884521
228.3300, 45.73303
229.5480, 4.648071
230.7650, 3.971924
231.9820, 25.59302
233.1990, 4.784668
234.4160, 5.160889
235.6330, 0.5383300
236.8490, 36.07715
238.0660, 25.68604
239.2820, 59.29651
240.4980, 30.90649
241.7140, 35.51819
242.9300, 45.33728
244.1460, 70.94788
245.3610, 55.55005
246.5770, 12.33704
247.7920, 50.78979
249.0070, 41.14722
250.2220, 91.72253
251.4370, 83.29968
252.6510, 50.87866
253.8660, 67.45959
255.0800, 53.04236
256.2940, 47.62659
257.5080, 87.21240
258.7220, 142.7997
259.9360, 140.3882
261.1490, 181.9781
262.3630, 144.5697
263.5760, 190.1624
264.7890, 191.6077
266.0020, 199.8257
267.2150, 217.1807
268.4270, 263.5471
269.6400, 235.9462
270.8520, 312.2146
272.0640, 326.6653
273.2760, 368.1372
274.4880, 349.0234
275.7000, 462.4467
276.9120, 531.9686
278.1230, 550.5039
279.3340, 554.0515
280.5450, 621.6152
281.7560, 711.1833
282.9670, 769.6899
284.1780, 890.2758
285.3880, 937.8694
286.5980, 972.4700
287.8090, 1025.076
289.0190, 1046.361
290.2290, 1057.183
291.4380, 1082.804
292.6480, 1062.103
293.8570, 1055.732
295.0670, 971.3647
296.2760, 921.0007
297.4850, 813.6401
298.6930, 810.4216
299.9020, 721.2280
301.1110, 573.2354
302.3190, 555.3118
303.5270, 456.9663
304.7350, 404.7188
305.9430, 387.3782
307.1510, 281.1144
308.3580, 273.7753
309.5660, 215.4172
310.7730, 191.0620
311.9800, 202.3876
313.1870, 145.1667
314.3940, 152.8165
315.6010, 190.7462
316.8070, 123.4006
318.0130, 136.0500
319.2200, 128.7008
320.4260, 144.4338
321.6310, 157.0857
322.8370, 181.7379
324.0430, 148.3920
325.2480, 156.0477
326.4540, 195.7053
327.6590, 244.3644
328.8640, 247.0249
330.0680, 226.6868
331.2730, 247.3495
332.4780, 254.0134
333.6820, 264.6786
334.8860, 295.3447
336.0900, 254.0118
337.2940, 260.6801
338.4980, 263.3494
339.7010, 291.0197
340.9050, 263.6910
342.1080, 221.3634
343.3110, 204.0366
344.5140, 192.7107
345.7170, 186.3857
346.9200, 175.0614
348.1220, 101.7375
349.3240, 94.41467
350.5270, 65.87488
351.7290, 107.5527
352.9310, 44.23132
354.1320, 58.38452
355.3340, 51.06372
356.5350, 40.74304
357.7370, 72.42249
358.9380, 60.10205
360.1390, 50.61011
361.3400, 48.30261
362.5400, 68.99512
363.7410, 33.68774
364.9410, 38.38037
366.1410, 14.92688
367.3410, 3.761475
368.5410, 49.44971
369.7410, 15.13794
370.9400, 5.255005
372.1400, 4.113403
373.3390, 9.058716
374.5380, 10.79358
375.7370, 6.831665
376.9360, 9.488037
378.1350, 14.07825
379.3330, 15.21692
380.5310, 8.298706
381.7300, 40.97620
382.9280, 34.65369
384.1260, 38.33130
385.3230, 39.00928
386.5210, 45.14612
387.7180, 41.35974
388.9160, 62.03247
390.1130, 56.85718
391.3100, 52.57080
392.5060, 47.03809
393.7030, 38.70032
394.9000, 34.89685
396.0960, 30.27869
397.2920, 27.68872
398.4880, 24.35242
399.6840, 27.01636
400.8800, 26.44995
402.0750, 21.03674
403.2710, 24.01086
404.4660, 15.67639
405.6610, 30.34216
406.8560, 42.00830
408.0510, 50.67480
409.2450, 42.34241
410.4400, 44.29639
411.6340, 41.68384
412.8280, 38.35669
414.0220, 7.031006
415.2160, 15.70715
416.4100, 24.38440
417.6030, 19.93726
418.7970, 12.27026
419.9900, 27.38916
421.1830, 21.04944
422.3760, 11.71045
423.5690, 13.62781
424.7610, 20.02551
425.9540, 28.32068
427.1460, 38.31714
428.3380, 34.95520
429.5300, 39.59375
430.7220, 25.23279
431.9140, 11.87219
433.1050, 27.48804
434.2970, 17.13586
435.4880, 24.24011
436.6790, 18.36975
437.8700, 48.97998
439.0610, 31.59045
440.2510, 71.20129
441.4420, 0.8122560
442.6320, 0.4217530
443.8220, 2.970337
445.0120, 20.36560
446.2020, 16.22668
447.3910, 1.560181
448.5810, 25.41089
449.7700, 2.002441
450.9600, 58.59338
452.1490, 60.18469
453.3370, 31.77600
454.5260, 8.632324
455.7150, 0.6722410
456.9030, 7.537720
458.0910, 1.877808
459.2800, 18.70435
460.4670, 15.28650
461.6550, 16.23999
462.8430, 1.452026
464.0300, 18.03381
465.2180, 18.61609
466.4050, 25.19849
467.5920, 63.78125
468.7790, 8.364258
469.9650, 52.94739
471.1520, 49.53076
472.3380, 38.11450
473.5250, 10.69824
474.7110, 25.28247
475.8970, 28.86682
477.0820, 43.45154
478.2680, 25.03638
479.4540, 45.62195
480.6390, 14.20789
481.8240, 21.79407
483.0090, 35.38086
484.1940, 52.96790
485.3780, 40.56091
486.5630, 62.15430
487.7470, 36.74792
488.9320, 48.34192
490.1160, 72.93591
491.3000, 63.57263
492.4830, 28.16736
493.6670, 57.76855
494.8500, 91.36511
496.0340, 42.96191
497.2170, 15.56567
498.4000, 60.16980
499.5820, 61.77429
500.7650, 43.37891
501.9480, 40.98401
503.1300, 46.49731
504.3120, 62.10876
505.4940, 47.72034
506.6760, 34.33630
507.8580, 64.95239
509.0390, 40.53467
510.2210, 40.14502
511.4020, 20.76160
512.5830, 83.37866
513.7640, 42.99878
514.9450, 74.24182
516.1250, 113.1929
517.3060, 41.04541
518.4860, 84.66760
519.6660, 24.59290
520.8460, 77.21619
522.0260, 68.84045
523.2060, 104.4652
524.3850, 109.5073
525.5650, 70.71777
526.7440, 114.3459
527.9230, 85.97424
529.1020, 84.60693
530.2810, 42.23987
531.4590, 140.8732
532.6380, 59.51501
533.8160, 45.44617
534.9940, 90.08850
536.1720, 33.73145
537.3500, 72.38074
538.5270, 68.03040
539.7050, 56.69275
540.8820, 103.3553
542.0590, 97.01843
543.2360, 80.68188
544.4130, 47.34570
545.5900, 114.0101
546.7660, 52.67493
547.9430, 93.34021
549.1190, 102.0057
550.2950, 59.67175
551.4710, 83.33826
552.6470, 131.0049
553.8220, 127.6720
554.9980, 66.33960
556.1730, 129.0074
557.3480, 89.67566
558.5230, 66.34424
559.6980, 128.6174
560.8730, 109.3752
562.0470, 48.05334
563.2220, 119.7321
564.3960, 87.41101
565.5700, 130.0852
566.7440, 39.76697
567.9170, 52.52002
569.0910, 107.2030
570.2640, 45.88660
571.4380, 51.57080
572.6110, 83.25562
573.7840, 75.94092
574.9570, 46.74829
576.1290, 87.43506
577.3020, 92.44800
578.4740, 61.13623
579.6460, 83.82507
580.8180, 96.51489
581.9900, 91.20532
583.1620, 73.75781
584.3330, 61.28894
585.5040, 63.62317
586.6760, 82.89209
587.8470, 68.58923
589.0180, 46.19189
590.1880, 69.89075
591.3590, 30.51782
592.5290, 86.22009
593.7000, 87.92322
594.8700, 83.62720
596.0400, 49.65405
597.2090, 55.22815
598.3790, 29.93506
599.5490, 28.36499
600.7180, 83.07361
601.8870, 80.78320
603.0560, 89.49365
604.2250, 102.5295
605.3940, 64.83594
606.5620, 89.54919
607.7300, 61.26355
608.8990, 23.97876
610.0670, 36.69482
611.2350, 5.411987
612.4020, 52.12988
613.5700, 46.84875
614.7370, 46.57007
615.9050, 61.95361
617.0720, 69.01794
618.2390, 56.74329
619.4060, 62.56238
620.5720, 38.28931
621.7390, 127.0192
622.9050, 14.83337
624.0710, 3.564941
625.2370, 8.619873
626.4030, 87.36499
627.5690, 36.10327
628.7340, 24.84229
629.9000, 11.58228
631.0650, 3.011719
632.2300, 52.07251
633.3950, 0.1378170
634.5600, 43.61584
635.7240, 65.37012
636.8890, 72.12512
638.0530, 77.88086
639.2170, 59.63855
640.3810, 89.39709
641.5450, 47.15686
642.7080, 51.08252
643.8720, 42.81213
645.0350, 50.55005
646.1980, 6.222778
647.3610, 57.96167
648.5240, 81.70117
649.6870, 25.44580
650.8490, 86.19104
652.0120, 65.93677
653.1740, 31.77429
654.3360, 45.52087
655.4980, 75.26978
656.6600, 10.02222
657.8210, 48.77856
658.9830, 37.53528
660.1440, 56.29565
661.3050, 37.05640
662.4660, 48.81763
663.6270, 71.57922
664.7870, 78.78308
665.9480, 52.58899
667.1080, 121.3517
668.2680, 78.98132
669.4280, 96.74475
670.5880, 58.50842
671.7480, 71.13098
672.9070, 6.104736
674.0670, 59.65662
675.2260, 118.4182
676.3850, 110.5527
677.5440, 71.31445
678.7030, 85.92847
679.8610, 88.69263
681.0200, 133.4568
682.1780, 135.2211
683.3360, 48.98535
684.4940, 123.7770
685.6520, 68.54102
686.8090, 70.30505
687.9670, 139.0687
689.1240, 127.8373
690.2810, 108.6055
691.4380, 150.3737
692.5950, 182.1417
693.7520, 111.9095
694.9080, 136.6819
696.0650, 158.4495
697.2210, 185.2192
698.3770, 182.9891
699.5330, 214.7094
700.6880, 219.8928
701.8440, 243.1780
702.9990, 243.9570
704.1550, 251.7356
705.3100, 282.8877
706.4650, 316.6707
707.6190, 334.4618
708.7740, 415.2526
709.9290, 504.0428
711.0830, 589.8330
712.2370, 719.6226
713.3910, 828.4119
714.5450, 960.0046
715.6980, 1084.005
716.8520, 1269.809
718.0050, 1415.612
719.1580, 1640.414
720.3110, 1699.217
721.4640, 1674.019
722.6170, 1776.821
723.7700, 1717.624
724.9220, 1617.428
726.0740, 1447.828
727.2260, 1265.638
728.3780, 1015.447
729.5300, 901.5522
730.6810, 738.3613
731.8330, 638.1698
732.9840, 447.9778
734.1350, 361.7854
735.2860, 334.5953
736.4370, 249.4054
737.5880, 226.2151
738.7380, 224.0256
739.8880, 157.8357
741.0390, 121.6451
742.1890, 123.4539
743.3380, 92.26270
744.4880, 106.0708
745.6380, 90.87842
746.7870, 102.6855
747.9360, 77.49194
749.0850, 42.29785
750.2340, 43.10315
751.3830, 25.98877
752.5310, 20.03711
753.6800, 28.06763
754.8280, 23.87048
755.9760, 48.67236
757.1240, 3.473755
758.2720, 45.27356
759.4190, 75.45813
760.5670, 4.256470
761.7140, 35.05322
762.8610, 17.15076
764.0080, 8.633057
765.1550, 46.41650
766.3020, 14.19849
767.4480, 57.97961
768.5950, 23.75952
769.7410, 22.49707
770.8870, 9.868896
772.0330, 42.64136
773.1780, 37.41785
774.3240, 41.19336
775.4690, 72.96802
776.6140, 62.00854
777.7590, 35.78125
778.9040, 78.69531
780.0490, 27.46619
781.1940, 13.67114
782.3380, 32.27295
783.4820, 9.968994
784.6260, 45.77979
785.7700, 59.52783
786.9140, 55.27515
788.0580, 13.02148
789.2010, 19.76733
790.3450, 5.512207
791.4880, 25.25537
792.6310, 62.99756
793.7730, 52.73926
794.9160, 58.48022
796.0590, 64.22021
797.2010, 56.78857
798.3430, 46.03394
799.4850, 42.43555
800.6270, 21.17261
801.7690, 2.091309
802.9100, 7.639893
804.0520, 53.36987
805.1930, 8.901123
806.3340, 51.81958
807.4750, 15.53955
808.6160, 24.74146
809.7560, 65.96094
810.8970, 24.37354
812.0370, 85.07446
813.1770, 17.22534
814.3170, 12.46216
815.4570, 40.85083
816.5960, 38.32153
817.7360, 34.98291
818.8750, 18.70166
820.0140, 15.36133
821.1530, 8.020752
822.2920, 25.67871
823.4310, 16.33643
824.5690, 56.99341
825.7070, 12.71484
826.8460, 36.37036
827.9840, 19.02539
829.1220, 57.67969
830.2590, 81.33325
831.3970, 9.986572
832.5340, 67.63867
833.6710, 24.82153
834.8080, 42.47241
835.9450, 9.877197
837.0820, 9.235840
838.2190, 9.396973
839.3550, 25.02881
840.4910, 38.65991
841.6270, 0.7094730
842.7630, 21.02319
843.8990, 13.64917
845.0350, 62.27441
846.1700, 20.89893
847.3060, 38.52295
848.4410, 63.14648
849.5760, 41.76904
850.7100, 55.39136
851.8450, 16.01343
852.9800, 27.63452
854.1140, 13.25464
855.2480, 28.87476
856.3820, 48.49438
857.5160, 83.11304
858.6500, 43.73169
859.7830, 59.34961
860.9170, 72.96704
862.0500, 5.416016
863.1830, 17.19482
864.3160, 22.80518
865.4480, 0.5844730
866.5810, 27.02197
867.7130, 70.62842
868.8460, 26.23413
869.9780, 56.83960
871.1100, 31.44482
872.2410, 102.0498
873.3730, 104.6543
874.5050, 66.25854
875.6360, 60.86255
876.7670, 117.4666
877.8980, 112.0701
879.0290, 100.6736
880.1590, 76.27661
881.2900, 88.87964
882.4200, 59.48242
883.5500, 146.0850
884.6800, 19.68750
885.8100, 22.29028
886.9400, 62.89258
888.0690, 2.505127
889.1990, 0.9060060
890.3280, 21.69043
891.4570, 41.28711
892.5860, 29.88379
893.7140, 20.38745
894.8430, 4.015625
895.9710, 55.57715
897.1000, 59.08691
898.2280, 65.68018
899.3560, 38.95117
900.4830, 15.46729
901.6110, 21.11768
902.7380, 32.70312
903.8660, 15.71118
904.9930, 85.86597
906.1200, 25.55664
907.2460, 11.97095
908.3730, 51.53564
909.5000, 64.10059
910.6260, 15.66602
911.7520, 3.768066
912.8780, 44.79590
914.0040, 1.638916
915.1290, 18.92529
916.2550, 71.48975
917.3800, 3.089111
918.5050, 29.48950
919.6300, 26.13770
920.7550, 11.72095
921.8800, 46.30518
923.0040, 13.89014
924.1290, 18.47607
925.2530, 18.02979
926.3770, 26.56641
927.5010, 26.07837
928.6250, 23.76074
929.7480, 26.36230
930.8720, 24.20068
931.9950, 19.57056
933.1180, 35.17725
934.2410, 27.78516
935.3640, 48.39404
936.4860, 39.00415
937.6090, 44.17358
938.7310, 62.74292
939.8530, 51.88672
940.9750, 12.10522
942.0970, 48.72144
943.2180, 25.33960
944.3400, 29.10107
945.4610, 22.72266
946.5820, 21.57251
947.7030, 28.97681
948.8240, 20.23535
949.9450, 3.868164
951.0650, 14.34937
952.1860, 25.28247
953.3060, 3.083984
954.4260, 16.55103
955.5460, 22.51953
956.6650, 9.798828
957.7850, 20.43945
958.9040, 5.082031
960.0230, 25.27295
961.1420, 51.36426
962.2610, 25.00366
963.3800, 59.64551
964.4990, 99.28906
965.6170, 0.9348140
966.7350, 63.57837
967.8530, 15.77124
968.9710, 28.87622
970.0890, 58.52588
971.2070, 59.23340
972.3240, 39.98730
973.4410, 102.6353
974.5580, 32.29468
975.6750, 27.95679
976.7920, 5.747803
977.9090, 70.91797
979.0250, 12.58667
980.1410, 84.25781
981.2580, 67.93164
982.3740, 65.60815
983.4890, 87.28711
984.6050, 91.96924
985.7200, 37.65381
986.8360, 16.34131
987.9510, 45.03149
989.0660, 34.72485
990.1810, 111.4207
991.2950, 69.11963
992.4100, 24.82153
993.5240, 93.52637
994.6390, 66.23389
995.7530, 44.94482
996.8660, 17.06812
997.9800, 82.78491
999.0940, 3.504639
1000.207, 102.9387
1001.320, 67.67188
1002.433, 72.40796
1003.546, 52.15381
1004.659, 29.90723
1005.772, 129.6636
1006.884, 134.4231
1007.996, 105.1860
1009.108, 99.95215
1010.220, 74.72168
1011.332, 88.49438
1012.444, 82.27026
1013.555, 95.35229
1014.666, 127.8320
1015.777, 126.6187
1016.888, 155.4087
1017.999, 159.2017
1019.110, 139.9985
1020.220, 155.7986
1021.331, 124.6023
1022.441, 190.0840
1023.551, 161.6675
1024.661, 216.4814
1025.770, 190.2991
1026.880, 231.1204
1027.989, 195.9456
1029.098, 221.3887
1030.207, 176.2214
1031.316, 254.0579
1032.425, 236.8982
1033.533, 288.7480
1034.642, 241.6008
1035.750, 279.4578
1036.858, 313.3188
1037.966, 293.1843
1039.073, 326.0530
1040.181, 288.3335
1041.288, 272.2114
1042.396, 309.2512
1043.503, 333.9790
1044.610, 353.8687
1045.716, 414.5037
1046.823, 403.5803
1047.929, 473.3396
1049.036, 476.0864
1050.142, 507.5706
1051.248, 505.3149
1052.353, 554.9673
1053.459, 589.9136
1054.564, 551.8643
1055.670, 583.8188
1056.775, 640.7869
1057.880, 686.0791
1058.985, 710.7490
1060.089, 751.7903
1061.194, 818.9326
1062.298, 893.6335
1063.402, 978.8940
1064.506, 1088.326
1065.610, 1206.317
1066.713, 1319.312
1067.817, 1441.775
1068.920, 1606.313
1070.023, 1716.320
1071.126, 1872.333
1072.229, 2068.349
1073.332, 2268.369
1074.435, 2449.397
1075.537, 2488.429
1076.639, 2752.625
1077.741, 3040.672
1078.843, 3376.724
1079.945, 3835.521
1081.046, 4443.580
1082.148, 5344.649
1083.249, 6514.721
1084.350, 8265.299
1085.451, 10782.39
1086.551, 14024.43
1087.652, 18983.53
1088.752, 25227.63
1089.853, 32310.74
1090.953, 39638.86
1092.053, 46754.98
1093.152, 52012.04
1094.252, 53708.17
1095.351, 52684.30
1096.451, 48114.44
1097.550, 40461.57
1098.649, 31589.72
1099.748, 23197.88
1100.846, 16389.50
1101.945, 11380.66
1103.043, 7848.830
1104.141, 5514.009
1105.239, 4065.195
1106.337, 3154.385
1107.434, 2368.578
1108.532, 1949.776
1109.629, 1608.872
1110.726, 1248.080
1111.823, 1112.291
1112.920, 984.5056
1114.017, 797.7246
1115.113, 757.9524
1116.210, 637.1870
1117.306, 639.4253
1118.402, 550.6675
1119.498, 501.9216
1120.593, 501.1807
1121.689, 391.4431
1122.784, 398.7087
1123.879, 351.9783
1124.974, 314.2520
1126.069, 347.5286
1127.164, 244.8088
1128.259, 219.0925
1129.353, 241.3828
1130.447, 145.6765
1131.541, 147.6084
1132.635, 227.9104
1133.729, 109.2153
1134.822, 136.9697
1135.916, 121.2671
1137.009, 136.5818
1138.102, 135.8997
1139.195, 179.2209
1140.288, 168.9038
1141.380, 120.8723
1142.473, 149.2024
1143.565, 111.5356
1144.657, 58.87207
1145.749, 34.21143
1146.841, 88.67529
1147.932, 70.02051
1149.024, 78.36963
1150.115, 79.72144
1151.206, 85.07617
1152.297, 74.44482
1153.388, 13.81641
1154.479, 106.1926
1155.569, 32.57251
1156.659, 39.95508
1157.750, 60.34058
1158.839, 65.72876
1159.929, 22.11963
1161.019, 31.51514
1162.108, 28.91309
1163.198, 35.31396
1164.287, 51.71704
1165.376, 15.12305
1166.465, 28.53564
1167.553, 22.95093
1168.642, 33.38940
1169.730, 17.81421
1170.818, 13.48486
1171.906, 18.01416
1172.994, 11.36621
1174.082, 18.80103
1175.170, 9.244629
1176.257, 0.3100590
1177.344, 7.251953
1178.431, 68.58838
1179.518, 21.04688
1180.605, 12.07886
1181.691, 27.44800
1182.778, 17.98486
1183.864, 33.46631
1184.950, 19.93701
1186.036, 45.39160
1187.122, 0.1518550
1188.207, 9.693848
1189.292, 17.23755
1190.378, 2.786133
1191.463, 25.25854
1192.548, 30.18506
1193.632, 57.63013
1194.717, 11.78125
1195.801, 27.66260
1196.886, 17.10840
1197.970, 13.55518
1199.054, 28.68579
1200.137, 25.71655
1201.221, 39.98950
1202.305, 28.44214
1203.388, 38.89575
1204.471, 19.35107
1205.554, 79.80737
1206.637, 4.734863
1207.719, 36.72217
1208.802, 82.18018
1209.884, 16.36035
1210.966, 39.09302
1212.048, 23.54785
1213.130, 12.00317
1214.212, 21.45996
1215.293, 21.36157
1216.374, 79.38037
1217.456, 39.84229
1218.536, 67.72314
1219.617, 73.35278
1220.698, 18.81689
1221.778, 32.36841
1222.859, 120.1370
1223.939, 14.60742
1225.019, 61.92920
1226.099, 6.555908
1227.178, 21.02734
1228.258, 15.63501
1229.337, 26.10742
1230.417, 11.61133
1231.496, 15.19727
1232.574, 36.39844
1233.653, 30.87402
1234.732, 42.34985
1235.810, 20.82544
1236.888, 31.30078
1237.966, 14.77637
1239.044, 11.03394
1240.122, 21.97876
1241.199, 9.382080
1242.277, 33.96045
1243.354, 52.43555
1244.431, 43.18628
1245.508, 23.27759
1246.585, 50.75195
1247.661, 14.36475
1248.738, 16.84302
1249.814, 41.48730
1250.890, 64.95996
1251.966, 58.43164
1253.042, 123.9084
1254.117, 28.42749
1255.193, 48.90283
1256.268, 8.377686
1257.343, 42.87842
1258.418, 32.38696
1259.493, 61.85913
1260.567, 22.66943
1261.642, 43.78687
1262.716, 56.24219
1263.790, 19.30322
1264.864, 11.86255
1265.938, 26.56836
1267.011, 37.99829
1268.085, 71.42920
1269.158, 67.35400
1270.231, 76.02954
1271.304, 46.71533
1272.377, 80.14185
1273.450, 58.56714
1274.522, 71.99097
1275.594, 3.413574
1276.666, 41.83374
1277.738, 47.46411
1278.810, 45.88135
1279.882, 91.29736
1280.953, 38.33960
1282.025, 28.75317
1283.096, 47.16602
1284.167, 58.57739
1285.238, 101.9868
1286.308, 49.39478
1287.379, 19.80127
1288.449, 77.20605
1289.519, 57.60938
1290.589, 48.01074
1291.659, 23.41040
1292.729, 29.80811
1293.798, 21.24829
1294.868, 26.59839
1295.937, 24.99097
1297.006, 16.24023
1298.075, 25.98340
1299.143, 5.156250
1300.212, 48.53857
1301.280, 59.91968
1302.348, 93.29810
1303.416, 81.67480
1304.484, 84.00903
1305.552, 44.41284
1306.620, 46.60352
1307.687, 22.97192
1308.754, 29.66260
1309.821, 12.27539
1310.888, 8.925781
1311.955, 55.22925
1313.021, 20.55420
1314.088, 39.87695
1315.154, 85.19702
1316.220, 27.50537
1317.286, 95.49048
1318.352, 82.10083
1319.417, 12.34106
1320.483, 52.48169
1321.548, 31.78784
1322.613, 8.091064
1323.678, 57.94409
1324.743, 43.24121
1325.807, 53.53638
1326.872, 11.83008
1327.936, 76.12207
1329.000, 25.41260
1330.064, 129.7017
1331.128, 48.98950
1332.191, 59.27563
1333.255, 44.56030
1334.318, 62.84351
1335.381, 87.96362
1336.444, 75.24072
1337.507, 76.65332
1338.569, 77.03906
1339.632, 40.30420
1340.694, 64.56689
1341.756, 30.82227
1342.818, 60.07178
1343.880, 48.31958
1344.941, 66.56567
1346.003, 1.808838
1347.064, 9.047363
1348.125, 79.27637
1349.186, 14.50024
1350.247, 4.709717
1351.308, 47.91431
1352.368, 4.883057
1353.428, 10.31299
1354.489, 126.5061
1355.549, 11.69653
1356.608, 57.88354
1357.668, 25.06885
1358.727, 8.748779
1359.787, 2.573730
1360.846, 86.59619
1361.905, 63.76343
1362.964, 70.92822
1364.022, 103.0908
1365.081, 70.24951
1366.139, 56.38940
1367.197, 10.52612
1368.255, 62.65942
1369.313, 15.79004
1370.371, 48.91748
1371.428, 10.95776
1372.486, 0.4311520
1373.543, 50.30762
1374.600, 13.41528
1375.657, 22.47998
1376.713, 11.61328
1377.770, 69.76538
1378.826, 55.85156
1379.882, 60.31226
1380.938, 27.39307
1381.994, 55.47070
1383.050, 46.54565
1384.106, 31.61768
1385.161, 29.68701
1386.216, 47.75317
1387.271, 53.81689
1388.326, 66.24268
1389.381, 115.3008
1390.435, 75.35571
1391.490, 75.96240
1392.544, 39.02637
1393.598, 83.08057
1394.652, 100.6089
1395.705, 57.64966
1396.759, 50.68750
1397.812, 124.7229
1398.866, 98.75537
1399.919, 81.78540
1400.972, 73.81348
1402.024, 49.83887
1403.077, 116.7471
1404.129, 8.768066
1405.181, 58.78589
1406.233, 94.80127
1407.285, 33.18018
1408.337, 67.94946
1409.389, 76.07080
1410.440, 48.06714
1411.491, 57.06079
1412.542, 120.0530
1413.593, 100.0435
1414.644, 97.05615
1415.695, 141.0210
1416.745, 140.0171
1417.795, 118.9868
1418.845, 141.9446
1419.895, 91.90015
1420.945, 198.8535
1421.995, 116.8044
1423.044, 182.7432
1424.093, 183.6587
1425.142, 201.7773
1426.191, 217.4648
1427.240, 261.4819
1428.289, 235.4072
1429.337, 224.3262
1430.385, 299.2385
1431.433, 303.1472
1432.481, 339.0796
1433.529, 395.0974
1434.577, 460.9893
1435.624, 471.4644
1436.672, 547.2847
1437.719, 611.0562
1438.766, 575.9351
1439.812, 665.7917
1440.859, 663.6631
1441.905, 609.5212
1442.952, 570.3743
1443.998, 549.4194
1445.044, 396.2661
1446.090, 455.0337
1447.135, 401.0020
1448.181, 416.7866
1449.226, 304.2161
1450.271, 270.3333
1451.316, 223.3645
1452.361, 183.7324
1453.405, 166.5718
1454.450, 159.6719
1455.494, 182.7690
1456.538, 204.8630
1457.582, 153.9604
1458.626, 134.0537
1459.670, 170.1438
1460.713, 163.7693
1461.757, 155.6626
1462.800, 114.2976
1463.843, 103.3989
1464.886, 126.2742
1465.928, 129.1653
1466.971, 162.8762
1468.013, 162.0476
1469.055, 149.0615
1470.097, 145.2725
1471.139, 134.8438
1472.181, 112.7356
1473.222, 104.1519
1474.263, 108.3557
1475.305, 76.60815
1476.346, 51.31982
1477.386, 111.2358
1478.427, 38.08398
1479.468, 114.9473
1480.508, 78.79370
1481.548, 49.69116
1482.588, 98.59399
1483.628, 88.51611
1484.668, 41.43701
1485.707, 37.35156
1486.747, 37.26196
1487.786, 35.29956
1488.825, 73.07227
1489.864, 57.65845
1490.902, 61.60132
1491.941, 60.43726
1492.979, 39.26709
1494.017, 93.09155
1495.055, 62.91040
1496.093, 75.85205
1497.131, 19.53223
1498.168, 68.33545
1499.206, 68.13379
1500.243, 40.92627
1501.280, 55.71436
1502.317, 13.49756
1503.354, 45.27515
1504.390, 18.95386
1505.426, 35.85034
1506.463, 44.66919
1507.499, 39.48535
1508.535, 33.29834
1509.570, 49.77271
1510.606, 65.91016
1511.641, 85.71509
1512.676, 59.51465
1513.711, 90.30273
1514.746, 31.07812
1515.781, 46.84009
1516.816, 48.58813
1517.850, 26.33350
1518.884, 4.915283
1519.918, 53.83813
1520.952, 80.61670
1521.986, 71.39307
1523.019, 99.16382
1524.053, 32.96826
1525.086, 55.83496
1526.119, 73.70117
1527.152, 26.56567
1528.185, 84.42749
1529.217, 113.2844
1530.250, 57.13623
1531.282, 26.98315
1532.314, 3.884521
1533.346, 4.794922
1534.377, 91.79614
1535.409, 46.63403
1536.440, 39.60059
1537.472, 79.57446
1538.503, 23.33228
1539.534, 69.25415
1540.564, 17.08618
1541.595, 22.91650
1542.625, 28.74536
1543.656, 36.57275
1544.686, 54.40088
1545.716, 90.19604
1546.745, 40.75562
1547.775, 27.49512
1548.804, 1.773926
1549.834, 75.94116
1550.863, 4.599854
1551.892, 54.27173
1552.920, 41.08740
1553.949, 30.85278
1554.977, 67.32202
1556.006, 16.54761
1557.034, 0.9409180
1558.062, 52.46289
1559.089, 70.01440
1560.117, 56.42407
1561.144, 61.33179
1562.172, 38.76025
1563.199, 32.07275
1564.226, 45.44897
1565.252, 63.50928
1566.279, 40.44189
1567.305, 0.7277830
1568.332, 44.21460
1569.358, 51.16846
1570.384, 1.6113000E-02
1571.409, 17.16211
1572.435, 0.0000000E+00
##END=



