##NAMES=Dolomite
##RRUFFID=R050241
##IDEAL CHEMISTRY=CaMg(CO_3_)_2_
##LOCALITY=Eugui quarries, Navarre, Spain
##OWNER=RRUFF
##SOURCE=Marcus Origlieri
##DESCRIPTION=Light gray colored tabular crystals
##STATUS=The identification of this mineral has been confirmed by X-ray diffraction and chemical analysis
##URL=rruff.info/R050241
##MEASURED CHEMISTRY=(Ca_0.96_Mg_0.04_)_Σ=1_(Mg_0.98_Fe^2+^_0.02_)_Σ=1_(CO_3_)_2_ ; CO_2_ estimated by difference
##PIN_ID=L00120
##ORIENTATION=Laser parallel to c* (0 0 1). Fiducial mark perpendicular to laser is parallel to b [0 1 0]
118.1340, 0.0000000E+00
119.3650, 30.19861
120.5960, 29.40771
121.8270, 0.6517330
123.0580, 35.51440
124.2880, 49.97559
125.5190, 1.098022
126.7490, 16.21301
127.9790, 0.8480220
129.2090, 36.75732
130.4390, 69.90002
131.6680, 21.24390
132.8980, 7.767212
134.1270, 60.45142
135.3560, 58.28186
136.5850, 107.2401
137.8140, 86.31201
139.0430, 85.48499
140.2710, 72.74707
141.5000, 87.08911
142.7280, 104.5021
143.9560, 64.97974
145.1840, 70.54114
146.4120, 91.17627
147.6390, 69.85474
148.8670, 69.60657
150.0940, 132.4229
151.3210, 88.29919
152.5490, 134.2050
153.7750, 188.1400
155.0020, 188.1045
156.2290, 221.1044
157.4550, 227.1353
158.6810, 259.1870
159.9080, 282.2581
161.1340, 383.3474
162.3590, 409.4545
163.5850, 598.5782
164.8110, 746.7169
166.0360, 1031.870
167.2610, 1406.038
168.4860, 1720.219
169.7110, 2022.414
170.9360, 2421.621
172.1610, 3078.886
173.3850, 3722.094
174.6100, 4309.314
175.8340, 4364.545
177.0580, 4063.787
178.2820, 3774.807
179.5050, 3434.075
180.7290, 2881.732
181.9520, 2144.567
183.1760, 1582.294
184.3990, 1057.598
185.6220, 674.9492
186.8450, 504.3301
188.0670, 384.7178
189.2900, 329.1118
190.5120, 228.5439
191.7340, 186.0002
192.9560, 161.4535
194.1780, 182.2903
195.4000, 153.7206
196.6220, 115.1482
197.8430, 115.5759
199.0640, 74.00305
200.2860, 85.43042
201.5070, 51.85828
202.7270, 37.76758
203.9480, 39.74268
205.1690, 10.19592
206.3890, 35.64978
207.6090, 36.10425
208.8290, 30.55896
210.0490, 25.01416
211.2690, 2.470093
212.4890, 10.61694
213.7080, 13.39185
214.9280, 28.85632
216.1470, 52.32947
217.3660, 44.44360
218.5850, 35.32471
219.8030, 40.82190
221.0220, 18.31848
222.2400, 22.81458
223.4590, 27.31116
224.6770, 14.19080
225.8950, 45.30835
227.1120, 44.82153
228.3300, 82.33423
229.5480, 69.84717
230.7650, 76.80493
231.9820, 71.44177
233.1990, 65.38525
234.4160, 37.89612
235.6330, 17.40637
236.8490, 12.08313
238.0660, 30.42615
239.2820, 14.25037
240.4980, 5.172852
241.7140, 4.332397
242.9300, 4.777954
244.1460, 9.305908
245.3610, 9.285034
246.5770, 8.050537
247.7920, 13.48401
249.0070, 6.445068
250.2220, 37.08557
251.4370, 22.49915
252.6510, 17.38904
253.8660, 33.04834
255.0800, 28.03015
256.2940, 49.77795
257.5080, 39.87952
258.7220, 88.44653
259.9360, 94.94849
261.1490, 99.09949
262.3630, 68.23389
263.5760, 34.70178
264.7890, 23.24658
266.0020, 34.65820
267.2150, 38.95776
268.4270, 6.000000
269.6400, 75.31299
270.8520, 116.6440
272.0640, 98.88159
273.2760, 116.2842
274.4880, 178.7751
275.7000, 135.2068
276.9120, 116.7239
278.1230, 146.1304
279.3340, 194.5444
280.5450, 263.0530
281.7560, 241.4849
282.9670, 272.9233
284.1780, 362.4932
285.3880, 437.0642
286.5980, 522.0146
287.8090, 718.2192
289.0190, 897.7168
290.2290, 1063.335
291.4380, 1389.907
292.6480, 1629.378
293.8570, 2095.851
295.0670, 2325.365
296.2760, 2735.841
297.4850, 3019.319
298.6930, 3292.798
299.9020, 3251.279
301.1110, 2956.760
302.3190, 2840.241
303.5270, 2300.810
304.7350, 1976.383
305.9430, 1605.001
307.1510, 1203.678
308.3580, 968.2004
309.5660, 816.7578
310.7730, 558.2412
311.9800, 485.8503
313.1870, 403.4067
314.3940, 390.2156
315.6010, 349.6970
316.8070, 286.3037
318.0130, 243.7786
319.2200, 197.2642
320.4260, 193.7371
321.6310, 139.2092
322.8370, 130.6807
324.0430, 137.0986
325.2480, 184.6340
326.4540, 190.1650
327.6590, 204.7896
328.8640, 284.3538
330.0680, 276.8103
331.2730, 331.3950
332.4780, 458.0083
333.6820, 501.6445
334.8860, 569.1602
336.0900, 726.6890
337.2940, 784.1384
338.4980, 870.7197
339.7010, 856.1978
340.9050, 769.8174
342.1080, 719.3318
343.3110, 596.8130
344.5140, 470.2471
345.7170, 364.7148
346.9200, 309.1492
348.1220, 197.5813
349.3240, 122.2263
350.5270, 96.65332
351.7290, 107.1338
352.9310, 98.69238
354.1320, 153.1624
355.3340, 61.57788
356.5350, 42.08789
357.7370, 2.501221
358.9380, 110.9053
360.1390, 83.30835
361.3400, 18.14868
362.5400, 94.24243
363.7410, 74.02563
364.9410, 68.82935
366.1410, 36.25439
367.3410, 35.37402
368.5410, 83.09131
369.7410, 17.08252
370.9400, 32.91602
372.1400, 7.503662
373.3390, 95.98975
374.5380, 38.35254
375.7370, 84.71216
376.9360, 25.26074
378.1350, 1.179443
379.3330, 35.40894
380.5310, 13.01685
381.7300, 27.38745
382.9280, 8.147217
384.1260, 30.69165
385.3230, 48.60938
386.5210, 9.861572
387.7180, 28.29785
388.9160, 27.34619
390.1130, 55.88037
391.3100, 49.17236
392.5060, 20.44312
393.7030, 7.841309
394.9000, 12.23486
396.0960, 86.68262
397.2920, 18.91724
398.4880, 44.26562
399.6840, 33.54102
400.8800, 6.025635
402.0750, 58.18311
403.2710, 16.51099
404.4660, 16.21118
405.6610, 51.15479
406.8560, 34.36572
408.0510, 35.78052
409.2450, 60.98901
410.4400, 74.14673
411.6340, 18.28833
412.8280, 64.21948
414.0220, 105.4189
415.2160, 46.60547
416.4100, 33.98877
417.6030, 7.270996
418.7970, 33.40112
419.9900, 15.63086
421.1830, 52.89673
422.3760, 61.21460
423.5690, 25.97998
424.7610, 69.06323
425.9540, 73.32104
427.1460, 16.47754
428.3380, 17.74536
429.5300, 2.138916
430.7220, 6.091064
431.9140, 38.94385
433.1050, 10.97241
434.2970, 22.99365
435.4880, 67.34546
436.6790, 73.35376
437.8700, 39.42578
439.0610, 65.45410
440.2510, 69.44287
441.4420, 72.69507
442.6320, 82.29077
443.8220, 73.87769
445.0120, 87.84082
446.2020, 29.91650
447.3910, 29.09912
448.5810, 19.17554
449.7700, 5.329590
450.9600, 42.25513
452.1490, 34.25513
453.3370, 79.41260
454.5260, 22.34277
455.7150, 10.59912
456.9030, 14.60083
458.0910, 71.26025
459.2800, 23.27881
460.4670, 70.12451
461.6550, 50.96313
462.8430, 81.91064
464.0300, 68.97388
465.2180, 68.68481
466.4050, 51.10107
467.5920, 54.13135
468.7790, 39.22754
469.9650, 16.25098
471.1520, 30.31421
472.3380, 57.19629
473.5250, 25.07690
474.7110, 17.93481
475.8970, 12.05396
477.0820, 40.68701
478.2680, 39.90186
479.4540, 63.61255
480.6390, 26.49585
481.8240, 50.19800
483.0090, 16.06592
484.1940, 40.85229
485.3780, 49.09937
486.5630, 80.76074
487.7470, 53.83716
488.9320, 65.48535
490.1160, 90.31592
491.3000, 9.986572
492.4830, 96.93091
493.6670, 48.68213
494.8500, 29.60352
496.0340, 50.28467
497.2170, 65.90576
498.4000, 39.78174
499.5820, 113.6101
500.7650, 97.14038
501.9480, 91.70361
503.1300, 29.25903
504.3120, 66.80981
505.4940, 14.65234
506.6760, 15.03345
507.8580, 52.46411
509.0390, 78.26123
510.2210, 42.83594
511.4020, 116.1177
512.5830, 46.35059
513.7640, 15.09033
514.9450, 38.44067
516.1250, 71.86670
517.3060, 78.57275
518.4860, 20.98413
519.6660, 17.40771
520.8460, 9.114258
522.0260, 6.093994
523.2060, 3.375488
524.3850, 35.78906
525.5650, 35.37769
526.7440, 122.5918
527.9230, 58.97314
529.1020, 11.20703
530.2810, 89.61548
531.4590, 5.904541
532.6380, 16.22778
533.8160, 68.68848
534.9940, 35.06079
536.1720, 16.42871
537.3500, 38.62158
538.5270, 71.12231
539.7050, 39.32471
540.8820, 55.60449
542.0590, 16.91724
543.2360, 77.50952
544.4130, 43.76099
545.5900, 41.72900
546.7660, 21.64526
547.9430, 54.86865
549.1190, 5.052490
550.2950, 53.23047
551.4710, 64.42505
552.6470, 79.61084
553.8220, 74.09766
554.9980, 51.85522
556.1730, 54.01587
557.3480, 6.167236
558.5230, 29.26758
559.6980, 64.24487
560.8730, 39.32153
562.0470, 29.31372
563.2220, 82.41553
564.3960, 8.491455
565.5700, 70.50220
566.7440, 26.57056
567.9170, 49.62842
569.0910, 21.55054
570.2640, 56.46826
571.4380, 88.00171
572.6110, 110.2776
573.7840, 81.26367
574.9570, 103.1230
576.1290, 2.2217000E-02
577.3020, 147.0149
578.4740, 53.99805
579.6460, 62.93213
580.8180, 101.8958
581.9900, 6.850098
583.1620, 34.79370
584.3330, 51.72705
585.5040, 79.65137
586.6760, 43.56738
587.8470, 16.38647
589.0180, 40.19092
590.1880, 19.94165
591.3590, 87.62231
592.5290, 53.44751
593.7000, 14.22803
594.8700, 67.07056
596.0400, 34.77686
597.2090, 44.52539
598.3790, 92.01147
599.5490, 32.81445
600.7180, 80.48145
601.8870, 81.26416
603.0560, 45.02539
604.2250, 15.78711
605.3940, 21.53735
606.5620, 5.322754
607.7300, 18.98657
608.8990, 1.696777
610.0670, 17.33130
611.2350, 5.876709
612.4020, 47.52637
613.5700, 46.19263
614.7370, 49.71826
615.9050, 11.20288
617.0720, 70.65088
618.2390, 19.79272
619.4060, 75.90137
620.5720, 31.50244
621.7390, 72.94971
622.9050, 31.59375
624.0710, 49.29248
625.2370, 5.171875
626.4030, 84.32617
627.5690, 18.60767
628.7340, 81.05029
629.9000, 30.70288
631.0650, 67.27710
632.2300, 0.6796880
633.3950, 44.28784
634.5600, 1.953369
635.7240, 57.51025
636.8890, 70.27930
638.0530, 8.244385
639.2170, 17.95117
640.3810, 24.49146
641.5450, 94.14355
642.7080, 97.65161
643.8720, 30.98926
645.0350, 108.4023
646.1980, 53.53491
647.3610, 112.6333
648.5240, 7.114258
649.6870, 58.85449
650.8490, 40.20117
652.0120, 55.16992
653.1740, 90.02026
654.3360, 71.43799
655.4980, 94.81030
656.6600, 9.483887
657.8210, 106.0547
658.9830, 63.27588
660.1440, 143.7537
661.3050, 17.97412
662.4660, 139.5823
663.6270, 60.64111
664.7870, 79.70801
665.9480, 67.20703
667.1080, 71.61182
668.2680, 85.35840
669.4280, 58.57153
670.5880, 85.95654
671.7480, 89.22144
672.9070, 57.22583
674.0670, 58.57007
675.2260, 44.54590
676.3850, 115.2144
677.5440, 40.56860
678.7030, 138.0168
679.8610, 143.1653
681.0200, 73.25000
682.1780, 177.3135
683.3360, 213.4058
684.4940, 76.68359
685.6520, 150.6980
686.8090, 116.7288
687.9670, 163.8889
689.1240, 105.7095
690.2810, 136.6404
691.4380, 151.7966
692.5950, 188.8643
693.7520, 188.9761
694.9080, 193.0017
696.0650, 281.0520
697.2210, 271.8755
698.3770, 212.7864
699.5330, 304.7844
700.6880, 276.8193
701.8440, 373.5286
702.9990, 349.6421
704.1550, 369.7520
705.3100, 446.9695
706.4650, 414.6321
707.6190, 434.5344
708.7740, 561.6868
709.9290, 642.6050
711.0830, 702.8850
712.2370, 784.8416
713.3910, 896.7617
714.5450, 951.5254
715.6980, 1299.297
716.8520, 1582.074
718.0050, 1742.861
719.1580, 2201.547
720.3110, 2508.308
721.4640, 2816.980
722.6170, 3294.708
723.7700, 3468.599
724.9220, 3497.590
726.0740, 3239.239
727.2260, 2894.985
728.3780, 2547.470
729.5300, 2132.962
730.6810, 1646.853
731.8330, 1304.351
732.9840, 982.7024
734.1350, 771.2285
735.2860, 552.7878
736.4370, 506.4958
737.5880, 463.2122
738.7380, 369.7527
739.8880, 286.2512
741.0390, 262.7371
742.1890, 271.0935
743.3380, 255.3127
744.4880, 206.5408
745.6380, 138.6860
746.7870, 185.8733
747.9360, 114.9731
749.0850, 99.12354
750.2340, 85.21118
751.3830, 105.5403
752.5310, 180.8975
753.6800, 177.3877
754.8280, 116.4382
755.9760, 121.9426
757.1240, 63.73950
758.2720, 102.6042
759.4190, 118.7708
760.5670, 79.01196
761.7140, 29.46094
762.8610, 93.22485
764.0080, 136.1345
765.1550, 1.388916
766.3020, 63.31763
767.4480, 69.62183
768.5950, 85.74121
769.7410, 73.14844
770.8870, 72.93066
772.0330, 43.57959
773.1780, 54.02002
774.3240, 25.25220
775.4690, 7.680664
776.6140, 28.34424
777.7590, 88.83374
778.9040, 59.80371
780.0490, 91.91406
781.1940, 95.86475
782.3380, 111.0356
783.4820, 81.26416
784.6260, 81.07178
785.7700, 21.65527
786.9140, 22.98633
788.0580, 14.08447
789.2010, 102.1841
790.3450, 120.6436
791.4880, 35.74463
792.6310, 67.72461
793.7730, 21.88330
794.9160, 43.49658
796.0590, 78.59424
797.2010, 15.39697
798.3430, 62.08838
799.4850, 13.49170
800.6270, 69.57129
801.7690, 123.5132
802.9100, 16.32324
804.0520, 66.99805
805.1930, 46.43262
806.3340, 85.22412
807.4750, 63.78418
808.6160, 29.36719
809.7560, 51.93506
810.8970, 65.49561
812.0370, 139.9292
813.1770, 0.6235350
814.3170, 26.28027
815.4570, 29.44238
816.5960, 70.10645
817.7360, 98.51123
818.8750, 61.92334
820.0140, 104.2056
821.1530, 32.61865
822.2920, 93.03027
823.4310, 68.46973
824.5690, 68.05518
825.7070, 96.28809
826.8460, 118.4839
827.9840, 72.85010
829.1220, 94.14355
830.2590, 87.80225
831.3970, 89.61670
832.5340, 82.70850
833.6710, 86.10645
834.8080, 85.16309
835.9450, 96.49365
837.0820, 59.93604
838.2190, 128.9399
839.3550, 65.67920
840.4910, 87.74756
841.6270, 34.85205
842.7630, 163.2949
843.8990, 90.21387
845.0350, 14.25391
846.1700, 87.19531
847.3060, 19.05811
848.4410, 17.86426
849.5760, 93.78809
850.7100, 132.7769
851.8450, 42.55713
852.9800, 122.2920
854.1140, 100.4272
855.2480, 160.1489
856.3820, 117.1006
857.5160, 70.78271
858.6500, 81.44678
859.7830, 56.37793
860.9170, 51.09912
862.0500, 101.1299
863.1830, 47.77588
864.3160, 158.4141
865.4480, 105.0903
866.5810, 59.66797
867.7130, 137.3032
868.8460, 122.8042
869.9780, 150.2891
871.1100, 86.75635
872.2410, 59.39697
873.3730, 84.02588
874.5050, 84.13721
875.6360, 181.6875
876.7670, 182.3813
877.8980, 137.0474
879.0290, 163.3965
880.1590, 311.7266
881.2900, 361.1099
882.4200, 287.4077
883.5500, 243.6890
884.6800, 214.9546
885.8100, 200.1851
886.9400, 110.3398
888.0690, 98.55762
889.1990, 66.87891
890.3280, 140.0610
891.4570, 79.22949
892.5860, 197.3799
893.7140, 11.35107
894.8430, 109.4609
895.9710, 129.5771
897.1000, 34.67480
898.2280, 9.574219
899.3560, 61.41748
900.4830, 113.4858
901.6110, 85.96680
902.7380, 92.79102
903.8660, 87.62402
904.9930, 51.50684
906.1200, 59.31738
907.2460, 33.10986
908.3730, 42.24072
909.5000, 19.60645
910.6260, 22.23779
911.7520, 70.15283
912.8780, 25.57617
914.0040, 78.23242
915.1290, 93.75098
916.2550, 133.3862
917.3800, 24.02295
918.5050, 53.70264
919.6300, 134.2383
920.7550, 37.76758
921.8800, 107.2588
923.0040, 85.50928
924.1290, 21.55908
925.2530, 1.984375
926.3770, 51.56250
927.5010, 69.78564
928.6250, 29.12500
929.7480, 86.25488
930.8720, 34.45898
931.9950, 85.79150
933.1180, 145.8262
934.2410, 128.0581
935.3640, 21.85107
936.4860, 27.07959
937.6090, 73.49023
938.7310, 88.44385
939.8530, 113.6089
940.9750, 87.23975
942.0970, 80.44824
943.2180, 96.31250
944.3400, 64.49658
945.4610, 81.71484
946.5820, 77.77783
947.7030, 3.047852
948.8240, 44.51758
949.9450, 109.3662
951.0650, 33.21387
952.1860, 91.21387
953.3060, 68.31738
954.4260, 114.2534
955.5460, 76.35107
956.6650, 58.13330
957.7850, 61.15283
958.9040, 22.07520
960.0230, 101.9785
961.1420, 24.01416
962.2610, 62.04883
963.3800, 32.90479
964.4990, 53.16602
965.6170, 55.67822
966.7350, 112.5132
967.8530, 32.30566
968.9710, 142.0957
970.0890, 39.88135
971.2070, 8.697754
972.3240, 152.3433
973.4410, 4.753906
974.5580, 84.88135
975.6750, 72.59521
976.7920, 48.92627
977.9090, 134.8857
979.0250, 74.52637
980.1410, 92.77246
981.2580, 147.3721
982.3740, 50.64160
983.4890, 7.788086
984.6050, 56.78662
985.7200, 102.4927
986.8360, 26.17529
987.9510, 8.456543
989.0660, 102.9805
990.1810, 43.61572
991.2950, 116.1973
992.4100, 148.5811
993.5240, 34.99854
994.6390, 12.70312
995.7530, 1.547363
996.8660, 89.00635
997.9800, 86.22900
999.0940, 72.78564
1000.207, 92.22314
1001.320, 73.45850
1002.433, 104.9805
1003.546, 122.4580
1004.659, 138.9551
1005.772, 55.25830
1006.884, 53.64600
1007.996, 7.089844
1009.108, 63.15479
1010.220, 24.70312
1011.332, 27.11475
1012.444, 98.51025
1013.555, 169.1118
1014.666, 82.48438
1015.777, 106.8457
1016.888, 165.1948
1017.999, 138.5322
1019.110, 113.0122
1020.220, 139.3271
1021.331, 136.5488
1022.441, 68.71094
1023.551, 163.0386
1024.661, 190.6294
1025.770, 113.0620
1026.880, 97.31396
1027.989, 107.0566
1029.098, 93.30273
1030.207, 67.78174
1031.316, 104.7969
1032.425, 140.6768
1033.533, 87.77979
1034.642, 174.0469
1035.750, 98.04053
1036.858, 185.1343
1037.966, 215.3750
1039.073, 195.2485
1040.181, 171.3823
1041.288, 196.1025
1042.396, 235.9009
1043.503, 177.7446
1044.610, 271.7852
1045.716, 186.0435
1046.823, 135.7119
1047.929, 267.9082
1049.036, 246.0811
1050.142, 252.4453
1051.248, 197.0469
1052.353, 255.8389
1053.459, 264.1431
1054.564, 285.8125
1055.670, 285.0210
1056.775, 372.0176
1057.880, 448.9082
1058.985, 427.3892
1060.089, 581.0786
1061.194, 457.0850
1062.298, 714.0513
1063.402, 693.9731
1064.506, 794.9673
1065.610, 858.1431
1066.713, 1060.085
1067.817, 1082.104
1068.920, 1318.633
1070.023, 1537.159
1071.126, 1547.875
1072.229, 1911.851
1073.332, 2129.791
1074.435, 2375.562
1075.537, 2594.880
1076.639, 2672.459
1077.741, 2940.110
1078.843, 3091.043
1079.945, 3225.958
1081.046, 3464.360
1082.148, 3585.116
1083.249, 3909.948
1084.350, 4264.457
1085.451, 4852.197
1086.551, 5427.118
1087.652, 6187.930
1088.752, 7466.687
1089.853, 9342.351
1090.953, 12179.99
1092.053, 16153.54
1093.152, 21970.44
1094.252, 29107.43
1095.351, 37576.10
1096.451, 46029.73
1097.550, 52154.02
1098.649, 52759.51
1099.748, 49228.28
1100.846, 41633.77
1101.945, 32045.63
1103.043, 22328.03
1104.141, 15009.28
1105.239, 10061.12
1106.337, 6752.256
1107.434, 4878.004
1108.532, 3587.877
1109.629, 2762.039
1110.726, 2294.688
1111.823, 1885.267
1112.920, 1442.840
1114.017, 1095.468
1115.113, 1011.884
1116.210, 917.6567
1117.306, 781.0664
1118.402, 646.6597
1119.498, 589.6743
1120.593, 424.0098
1121.689, 469.9287
1122.784, 491.5151
1123.879, 388.1982
1124.974, 410.1260
1126.069, 299.7212
1127.164, 251.1616
1128.259, 299.7354
1129.353, 215.2598
1130.447, 286.0708
1131.541, 229.4580
1132.635, 216.1177
1133.729, 230.4365
1134.822, 256.9800
1135.916, 180.4531
1137.009, 223.9180
1138.102, 37.27979
1139.195, 148.6089
1140.288, 189.3989
1141.380, 58.76514
1142.473, 99.93555
1143.565, 111.0483
1144.657, 36.58594
1145.749, 133.0469
1146.841, 224.6333
1147.932, 104.0303
1149.024, 144.4189
1150.115, 52.18604
1151.206, 131.5542
1152.297, 115.1304
1153.388, 91.66016
1154.479, 15.05566
1155.569, 12.39209
1156.659, 1.7578000E-02
1157.750, 134.2466
1158.839, 68.81299
1159.929, 66.26416
1161.019, 29.38623
1162.108, 42.53564
1163.198, 36.20312
1164.287, 45.01367
1165.376, 55.40674
1166.465, 138.9150
1167.553, 72.12354
1168.642, 29.32373
1169.730, 78.51221
1170.818, 21.69189
1171.906, 110.9624
1172.994, 4.289551
1174.082, 119.6475
1175.170, 5.000488
1176.257, 0.8393550
1177.344, 87.43164
1178.431, 11.56982
1179.518, 30.75098
1180.605, 16.95605
1181.691, 109.0601
1182.778, 75.51270
1183.864, 34.03271
1184.950, 85.02148
1186.036, 27.44336
1187.122, 54.81445
1188.207, 67.46094
1189.292, 38.48584
1190.378, 122.6694
1191.463, 39.85498
1192.548, 6.844727
1193.632, 72.82227
1194.717, 1.820313
1195.801, 7.773926
1196.886, 100.8091
1197.970, 78.91162
1199.054, 95.66309
1200.137, 120.8218
1201.221, 98.72266
1202.305, 49.61279
1203.388, 81.49170
1204.471, 146.3589
1205.554, 23.21729
1206.637, 89.06250
1207.719, 167.8970
1208.802, 55.72217
1209.884, 54.53467
1210.966, 94.33496
1212.048, 56.16309
1213.130, 160.3979
1214.212, 177.3960
1215.293, 148.1553
1216.374, 34.15234
1217.456, 227.8896
1218.536, 77.61621
1219.617, 80.33203
1220.698, 73.96387
1221.778, 66.76465
1222.859, 61.40967
1223.939, 43.08887
1225.019, 71.92725
1226.099, 51.54590
1227.178, 11.43359
1228.258, 111.0430
1229.337, 88.64551
1230.417, 79.23340
1231.496, 43.18652
1232.574, 119.3574
1233.653, 201.1387
1234.732, 61.91211
1235.810, 50.42285
1236.888, 57.29102
1237.966, 13.84570
1239.044, 96.31934
1240.122, 156.9102
1241.199, 92.37500
1242.277, 236.9580
1243.354, 172.2295
1244.431, 103.1611
1245.508, 140.6074
1246.585, 118.1533
1247.661, 152.5605
1248.738, 15.11230
1249.814, 75.49512
1250.890, 28.86816
1251.966, 40.77539
1253.042, 22.45801
1254.117, 22.34570
1255.193, 31.61816
1256.268, 130.8779
1257.343, 43.63867
1258.418, 97.93750
1259.493, 25.17285
1260.567, 157.0020
1261.642, 66.17773
1262.716, 2.659180
1263.790, 99.48340
1264.864, 224.7021
1265.938, 143.1494
1267.011, 91.26855
1268.085, 97.59961
1269.158, 104.6807
1270.231, 94.81055
1271.304, 101.2871
1272.377, 115.1641
1273.450, 83.20117
1274.522, 100.4453
1275.594, 51.45703
1276.666, 140.0918
1277.738, 166.4805
1278.810, 27.45312
1279.882, 123.2559
1280.953, 68.20117
1282.025, 77.38477
1283.096, 78.30273
1284.167, 118.9141
1285.238, 55.71191
1286.308, 0.4570310
1287.379, 56.38574
1288.449, 82.31152
1289.519, 2.239258
1290.589, 145.8955
1291.659, 146.9033
1292.729, 0.6386720
1293.798, 70.93750
1294.868, 49.85840
1295.937, 146.6006
1297.006, 139.7939
1298.075, 130.0010
1299.143, 147.7100
1300.212, 95.11035
1301.280, 79.79102
1302.348, 73.09082
1303.416, 74.28418
1304.484, 170.0186
1305.552, 90.22949
1306.620, 141.6318
1307.687, 107.0840
1308.754, 98.41309
1309.821, 119.6709
1310.888, 34.23535
1311.955, 31.70996
1313.021, 194.9570
1314.088, 28.44238
1315.154, 37.67188
1316.220, 43.00000
1317.286, 117.3242
1318.352, 77.51562
1319.417, 4.056641
1320.483, 209.1025
1321.548, 127.1113
1322.613, 111.3818
1323.678, 147.3379
1324.743, 96.30859
1325.807, 77.64844
1326.872, 157.8926
1327.936, 99.19629
1329.000, 179.5059
1330.064, 126.8008
1331.128, 150.8789
1332.191, 134.0811
1333.255, 156.5420
1334.318, 140.5508
1335.381, 174.7480
1336.444, 201.9824
1337.507, 295.0195
1338.569, 173.0391
1339.632, 110.2422
1340.694, 18.24512
1341.756, 64.42578
1342.818, 167.5938
1343.880, 59.94727
1344.941, 130.8604
1346.003, 267.9619
1347.064, 210.0723
1348.125, 261.5166
1349.186, 96.20020
1350.247, 231.1035
1351.308, 103.9775
1352.368, 64.87598
1353.428, 189.0801
1354.489, 48.12012
1355.549, 214.7354
1356.608, 150.0605
1357.668, 159.9697
1358.727, 168.1826
1359.787, 130.4980
1360.846, 53.42676
1361.905, 52.57910
1362.964, 222.0713
1364.022, 24.71094
1365.081, 96.36328
1366.139, 144.8242
1367.197, 85.38281
1368.255, 134.4082
1369.313, 81.11328
1370.371, 32.87988
1371.428, 141.7529
1372.486, 105.6650
1373.543, 79.49707
1374.600, 110.2139
1375.657, 72.91895
1376.713, 249.2129
1377.770, 112.7666
1378.826, 212.0957
1379.882, 124.4912
1380.938, 2.021484
1381.994, 133.2900
1383.050, 121.9473
1384.106, 51.65137
1385.161, 16.79590
1386.216, 95.67969
1387.271, 18.09180
1388.326, 169.4863
1389.381, 176.9336
1390.435, 110.5479
1391.490, 81.06543
1392.544, 23.60449
1393.598, 99.13281
1394.652, 15.44336
1395.705, 194.9873
1396.759, 52.43750
1397.812, 49.83398
1398.866, 128.2461
1399.919, 179.7080
1400.972, 7.037109
1402.024, 133.4004
1403.077, 66.45215
1404.129, 10.93262
1405.181, 110.2979
1406.233, 193.2646
1407.285, 152.7588
1408.337, 39.87988
1409.389, 135.0312
1410.440, 96.17773
1411.491, 45.48438
1412.542, 39.51758
1413.593, 81.85840
1414.644, 57.87891
1415.695, 55.22852
1416.745, 77.64355
1417.795, 11.10938
1418.845, 176.3574
1419.895, 147.6289
1420.945, 24.70020
1421.995, 197.6445
1423.044, 28.87305
1424.093, 153.1777
1425.142, 85.47754
1426.191, 207.6855
1427.240, 143.7861
1428.289, 211.8184
1429.337, 151.9658
1430.385, 157.9629
1431.433, 287.1484
1432.481, 307.2070
1433.529, 345.3125
1434.577, 588.3945
1435.624, 584.3896
1436.672, 797.7393
1437.719, 1065.476
1438.766, 1524.160
1439.812, 1865.367
1440.859, 2044.021
1441.905, 2288.701
1442.952, 2005.087
1443.998, 1791.207
1445.044, 1318.096
1446.090, 989.8438
1447.135, 886.7285
1448.181, 735.3984
1449.226, 569.2686
1450.271, 528.7227
1451.316, 355.0850
1452.361, 350.5215
1453.405, 261.0283
1454.450, 228.5225
1455.494, 291.0049
1456.538, 252.4746
1457.582, 163.8945
1458.626, 48.60156
1459.670, 76.80566
1460.713, 135.1641
1461.757, 96.55957
1462.800, 160.8994
1463.843, 144.0205
1464.886, 88.09473
1465.928, 116.4766
1466.971, 138.8428
1468.013, 124.9326
1469.055, 48.00098
1470.097, 82.83887
1471.139, 196.7676
1472.181, 59.87012
1473.222, 154.7090
1474.263, 56.73926
1475.305, 12.25586
1476.346, 179.9521
1477.386, 62.17090
1478.427, 15.75098
1479.468, 30.68555
1480.508, 159.4209
1481.548, 10.45605
1482.588, 213.6816
1483.628, 9.326172
1484.668, 4.510742
1485.707, 199.3760
1486.747, 155.2324
1487.786, 209.7588
1488.825, 118.1045
1489.864, 89.56250
1490.902, 129.6045
1491.941, 154.2549
1492.979, 146.9717
1494.017, 149.4141
1495.055, 148.8408
1496.093, 51.02344
1497.131, 31.99707
1498.168, 55.45605
1499.206, 164.9238
1500.243, 118.7686
1501.280, 107.7061
1502.317, 75.63770
1503.354, 128.5625
1504.390, 94.48047
1505.426, 214.3916
1506.463, 176.2998
1507.499, 4.206055
1508.535, 61.14258
1509.570, 114.0977
1510.606, 7.062500
1511.641, 183.0391
1512.676, 159.0127
1513.711, 61.96777
1514.746, 119.9014
1515.781, 73.85449
1516.816, 130.1289
1517.850, 98.00781
1518.884, 107.8691
1519.918, 202.6484
1520.952, 94.47363
1521.986, 170.6885
1523.019, 119.3330
1524.053, 121.9297
1525.086, 74.28613
1526.119, 194.0342
1527.152, 158.2109
1528.185, 209.1113
1529.217, 148.4043
1530.250, 179.2070
1531.282, 45.09277
1532.314, 92.06934
1533.346, 112.0537
1534.377, 204.0586
1535.409, 111.0322
1536.440, 225.7070
1537.472, 85.72852
1538.503, 222.6855
1539.534, 31.29395
1540.564, 168.3594
1541.595, 36.02734
1542.625, 172.6123
1543.656, 224.2012
1544.686, 78.97070
1545.716, 124.8682
1546.745, 139.7617
1547.775, 68.66699
1548.804, 69.59375
1549.834, 168.5518
1550.863, 206.7109
1551.892, 146.0439
1552.920, 58.51074
1553.949, 193.8535
1554.977, 178.2871
1556.006, 232.7646
1557.034, 139.1504
1558.062, 78.02051
1559.089, 190.1650
1560.117, 31.47266
1561.144, 82.87012
1562.172, 148.6699
1563.199, 53.25391
1564.226, 185.0576
1565.252, 97.23828
1566.279, 218.6943
1567.305, 61.17480
1568.332, 2.131836
1569.358, 179.6328
1570.384, 107.6631
1571.409, 21.05859
1572.435, 0.0000000E+00
##END=



