##NAMES=Dolomite
##RRUFFID=R050370
##IDEAL CHEMISTRY=CaMg(CO_3_)_2_
##LOCALITY=Morro Velho mine, Nova Lima, Minas Gerais, Brazil
##OWNER=RRUFF
##SOURCE=Eugene Schlepp
##DESCRIPTION=Colorless bladed crystals associated with pyrrhotite and albite
##STATUS=The identification of this mineral has been confirmed by X-ray diffraction and chemical analysis
##URL=rruff.info/R050370
##MEASURED CHEMISTRY=(Ca_0.84_Fe_0.16_)_Σ=1_(Mg_0.98_Mn_0.02_)_Σ=1_(CO_3_)_2_ ; CO_2_ estimated by difference
##PIN_ID=L00563
##ORIENTATION=Laser parallel to -c* (0 0 -1). Fiducial mark perpendicular to laser is parallel to a [1 0 0]
118.1340, 0.0000000E+00
119.3650, 33.79639
120.5960, 1.573486
121.8270, 20.73022
123.0580, 27.72339
124.2880, 2.720215
125.5190, 34.26099
126.7490, 36.03296
127.9790, 108.8054
129.2090, 46.40234
130.4390, 47.68872
131.6680, 63.57153
132.8980, 125.9856
134.1270, 91.85889
135.3560, 143.1284
136.5850, 131.7432
137.8140, 197.6624
139.0430, 153.8523
140.2710, 166.2834
141.5000, 125.9316
142.7280, 187.7766
143.9560, 183.8716
145.1840, 228.1353
146.4120, 286.6782
147.6390, 280.3486
148.8670, 303.1226
150.0940, 316.0024
151.3210, 390.9822
152.5490, 426.0486
153.7750, 496.1978
155.0020, 578.0381
156.2290, 670.7427
157.4550, 774.1274
158.6810, 909.5803
159.9080, 1057.095
161.1340, 1380.667
162.3590, 1682.294
163.5850, 1937.973
164.8110, 2393.701
166.0360, 2795.476
167.2610, 3233.317
168.4860, 3684.555
169.7110, 4245.426
170.9360, 4640.492
172.1610, 4683.702
173.3850, 4589.396
174.6100, 4186.884
175.8340, 3330.938
177.0580, 2871.963
178.2820, 2171.023
179.5050, 1727.131
180.7290, 1336.263
181.9520, 970.7959
183.1760, 771.9993
184.3990, 694.2354
185.6220, 489.4976
186.8450, 442.7893
188.0670, 453.1218
189.2900, 254.5017
190.5120, 316.9541
191.7340, 216.4683
192.9560, 180.9883
194.1780, 184.5068
195.4000, 113.0315
196.6220, 116.5642
197.8430, 87.10645
199.0640, 130.6514
200.2860, 108.2009
201.5070, 14.75635
202.7270, 111.3184
203.9480, 38.88794
205.1690, 29.46973
206.3890, 25.07422
207.6090, 16.69360
208.8290, 44.32202
210.0490, 46.95898
211.2690, 44.88550
212.4890, 17.25977
213.7080, 34.92798
214.9280, 13.94141
216.1470, 0.7006840
217.3660, 15.99780
218.5850, 12.25757
219.8030, 16.45679
221.0220, 27.22437
222.2400, 4.990723
223.4590, 61.80078
224.6770, 7.400146
225.8950, 11.40576
227.1120, 37.78174
228.3300, 36.03760
229.5480, 2.863525
230.7650, 12.30029
231.9820, 18.56274
233.1990, 2.567139
234.4160, 25.30884
235.6330, 39.19019
236.8490, 30.07739
238.0660, 50.96997
239.2820, 5.008545
240.4980, 8.9111000E-02
241.7140, 4.814453
242.9300, 45.90283
244.1460, 18.62036
245.3610, 9.472900
246.5770, 81.43066
247.7920, 85.34082
249.0070, 80.51978
250.2220, 34.43604
251.4370, 76.35742
252.6510, 75.28320
253.8660, 80.45654
255.0800, 172.3887
256.2940, 120.6633
257.5080, 235.6714
258.7220, 211.7246
259.9360, 261.1323
261.1490, 245.1016
262.3630, 171.4749
263.5760, 217.8496
264.7890, 177.7576
266.0020, 355.8647
267.2150, 271.7808
268.4270, 311.0679
269.6400, 368.6899
270.8520, 369.1035
272.0640, 475.5679
273.2760, 557.1575
274.4880, 552.6819
275.7000, 617.2666
276.9120, 685.8843
278.1230, 789.5315
279.3340, 889.2056
280.5450, 986.6858
281.7560, 1106.627
282.9670, 1211.370
284.1780, 1329.133
285.3880, 1465.678
286.5980, 1694.714
287.8090, 1767.530
289.0190, 1921.360
290.2290, 2063.205
291.4380, 2152.568
292.6480, 2178.629
293.8570, 2203.416
295.0670, 2119.308
296.2760, 2065.211
297.4850, 1944.124
298.6930, 1832.048
299.9020, 1515.979
301.1110, 1349.920
302.3190, 1118.869
303.5270, 943.8257
304.7350, 780.7900
305.9430, 656.7622
307.1510, 517.0034
308.3580, 469.9919
309.5660, 348.1892
310.7730, 370.1909
311.9800, 351.1987
313.1870, 341.4106
314.3940, 190.4233
315.6010, 192.6372
316.8070, 126.6604
318.0130, 173.6875
319.2200, 180.3127
320.4260, 186.3357
321.6310, 191.0264
322.8370, 165.6570
324.0430, 187.9426
325.2480, 169.7349
326.4540, 196.7803
327.6590, 245.8403
328.8640, 218.8921
330.0680, 225.9473
331.2730, 310.0063
332.4780, 278.0693
333.6820, 349.1353
334.8860, 328.2043
336.0900, 405.2761
337.2940, 311.3538
338.4980, 351.4341
339.7010, 297.5166
340.9050, 316.6018
342.1080, 264.2925
343.3110, 205.8030
344.5140, 248.0645
345.7170, 149.1587
346.9200, 147.2556
348.1220, 77.35498
349.3240, 51.45605
350.5270, 56.55957
351.7290, 145.6650
352.9310, 79.77222
354.1320, 176.8813
355.3340, 45.99902
356.5350, 65.11841
357.7370, 0.2395020
358.9380, 65.36182
360.1390, 55.48560
361.3400, 75.60327
362.5400, 78.44482
363.7410, 79.38037
364.9410, 0.4897460
366.1410, 17.64062
367.3410, 11.28369
368.5410, 108.8457
369.7410, 17.87964
370.9400, 72.01123
372.1400, 60.11182
373.3390, 73.62964
374.5380, 11.76489
375.7370, 80.69604
376.9360, 2.166016
378.1350, 40.94482
379.3330, 14.08301
380.5310, 8.221680
381.7300, 17.36157
382.9280, 42.50195
384.1260, 12.64209
385.3230, 43.77881
386.5210, 1.079590
387.7180, 24.06079
388.9160, 79.19775
390.1130, 42.18115
391.3100, 2.680176
392.5060, 27.45728
393.7030, 15.40576
394.9000, 22.72729
396.0960, 34.86084
397.2920, 1.995361
398.4880, 99.12817
399.6840, 21.73804
400.8800, 52.38818
402.0750, 14.48975
403.2710, 38.37256
404.4660, 49.72876
405.6610, 4.174072
406.8560, 39.91040
408.0510, 41.00586
409.2450, 12.05859
410.4400, 91.12817
411.6340, 62.20288
412.8280, 17.71851
414.0220, 25.35205
415.2160, 37.42627
416.4100, 4.503174
417.6030, 12.41797
418.7970, 8.654297
419.9900, 48.72876
421.1830, 12.80566
422.3760, 52.88452
423.5690, 56.96558
424.7610, 41.04858
425.9540, 11.13281
427.1460, 18.81274
428.3380, 25.30640
429.5300, 14.39551
430.7220, 33.48608
431.9140, 28.57788
433.1050, 63.67114
434.2970, 3.234619
435.4880, 2.856201
436.6790, 10.05420
437.8700, 25.02856
439.0610, 89.11206
440.2510, 36.19653
441.4420, 58.28198
442.6320, 33.36841
443.8220, 31.37451
445.0120, 65.54321
446.2020, 40.63184
447.3910, 50.72119
448.5810, 64.81128
449.7700, 1.901611
450.9600, 82.54956
452.1490, 3.638428
453.3370, 102.7258
454.5260, 103.8140
455.7150, 3.902344
456.9030, 68.98901
458.0910, 4.076172
459.2800, 43.16162
460.4670, 48.24756
461.6550, 20.66602
462.8430, 25.40674
464.0300, 4.520264
465.2180, 20.45288
466.4050, 52.60059
467.5920, 118.6543
468.7790, 54.70850
469.9650, 11.76318
471.1520, 43.81738
472.3380, 73.87231
473.5250, 16.92749
474.7110, 58.98291
475.8970, 109.0391
477.0820, 87.09497
478.2680, 72.15186
479.4540, 77.92407
480.6390, 81.98169
481.8240, 32.03931
483.0090, 44.09717
484.1940, 2.842041
485.3780, 16.78687
486.5630, 5.863525
487.7470, 63.30054
488.9320, 46.34375
490.1160, 81.38696
491.3000, 86.43066
492.4830, 35.47437
493.6670, 88.51831
494.8500, 58.56250
496.0340, 63.60693
497.2170, 43.11719
498.4000, 122.1624
499.5820, 147.2080
500.7650, 134.1365
501.9480, 74.18188
503.1300, 102.2275
504.3120, 125.2732
505.4940, 91.32056
506.6760, 113.3789
507.8580, 49.28931
509.0390, 144.3550
510.2210, 78.72192
511.4020, 171.7881
512.5830, 110.8547
513.7640, 128.9216
514.9450, 0.9929200
516.1250, 47.06055
517.3060, 137.2217
518.4860, 98.29053
519.6660, 141.1208
520.8460, 122.1907
522.0260, 69.26074
523.2060, 104.3301
524.3850, 118.4001
525.5650, 65.46997
526.7440, 171.5398
527.9230, 156.6096
529.1020, 108.4531
530.2810, 40.52344
531.4590, 71.60059
532.6380, 91.68359
533.8160, 87.44458
534.9940, 83.52783
536.1720, 82.58496
537.3500, 96.67285
538.5270, 127.7651
539.7050, 60.74072
540.8820, 149.8335
542.0590, 94.49097
543.2360, 136.5898
544.4130, 107.6636
545.5900, 43.33179
546.7660, 181.4309
547.9430, 125.0608
549.1190, 127.1614
550.2950, 159.6526
551.4710, 139.7539
552.6470, 100.8582
553.8220, 159.9624
554.9980, 137.8010
556.1730, 104.9067
557.3480, 148.0193
558.5230, 73.05176
559.6980, 63.19019
560.8730, 108.3044
562.0470, 76.41919
563.2220, 65.53442
564.3960, 125.6499
565.5700, 102.7664
566.7440, 40.88306
567.9170, 165.0107
569.0910, 95.13867
570.2640, 103.2673
571.4380, 106.3962
572.6110, 90.52710
573.7840, 89.50415
574.9570, 58.79004
576.1290, 59.42188
577.3020, 77.36865
578.4740, 44.60010
579.6460, 23.73755
580.8180, 83.87524
581.9900, 29.01367
583.1620, 122.1526
584.3330, 122.2915
585.5040, 115.4309
586.6760, 88.57104
587.8470, 118.7117
589.0180, 34.85303
590.1880, 162.9946
591.3590, 9.125000
592.5290, 63.01245
593.7000, 120.9478
594.8700, 99.08594
596.0400, 125.2246
597.2090, 88.16479
598.3790, 102.3044
599.5490, 67.24829
600.7180, 32.38843
601.8870, 25.52905
603.0560, 57.06470
604.2250, 63.20630
605.3940, 126.6848
606.5620, 62.22852
607.7300, 137.3716
608.8990, 41.51538
610.0670, 95.65942
611.2350, 90.79199
612.4020, 8.937500
613.5700, 60.13721
614.7370, 99.28369
615.9050, 54.43066
617.0720, 42.59229
618.2390, 62.92383
619.4060, 13.91309
620.5720, 76.24390
621.7390, 12.41382
622.9050, 51.59424
624.0710, 128.2959
625.2370, 79.87378
626.4030, 32.90479
627.5690, 8.917725
628.7340, 53.10547
629.9000, 85.29370
631.0650, 103.4822
632.2300, 44.67139
633.3950, 157.8611
634.5600, 31.05127
635.7240, 110.2419
636.8890, 27.42505
638.0530, 36.75415
639.2170, 42.93335
640.3810, 57.11353
641.5450, 96.30640
642.7080, 53.48779
643.8720, 73.66968
645.0350, 49.85571
646.1980, 65.44897
647.3610, 57.21582
648.5240, 3.420898
649.6870, 42.60864
650.8490, 110.8022
652.0120, 40.99585
653.1740, 62.18970
654.3360, 96.38379
655.4980, 60.19409
656.6600, 2.611572
657.8210, 121.5818
658.9830, 75.77515
660.1440, 11.09302
661.3050, 57.28784
662.4660, 78.48267
663.6270, 65.67920
664.7870, 47.87598
665.9480, 5.072754
667.1080, 19.27808
668.2680, 27.47070
669.4280, 17.71289
670.5880, 84.45703
671.7480, 54.75293
672.9070, 70.95288
674.0670, 52.15430
675.2260, 48.35596
676.3850, 55.56055
677.5440, 28.81909
678.7030, 85.02441
679.8610, 116.2302
681.0200, 112.4355
682.1780, 44.92090
683.3360, 104.1316
684.4940, 49.34692
685.6520, 154.5723
686.8090, 80.79736
687.9670, 179.0242
689.1240, 60.27490
690.2810, 82.51196
691.4380, 128.1506
692.5950, 132.3872
693.7520, 174.6230
694.9080, 175.8638
696.0650, 198.6101
697.2210, 205.9727
698.3770, 225.4858
699.5330, 216.3337
700.6880, 264.5769
701.8440, 287.8196
702.9990, 302.0618
704.1550, 346.3032
705.3100, 376.5439
706.4650, 439.1785
707.6190, 506.3757
708.7740, 590.3069
709.9290, 672.8938
711.0830, 796.4375
712.2370, 904.6736
713.3910, 1022.909
714.5450, 1284.998
715.6980, 1462.233
716.8520, 1759.469
718.0050, 1905.708
719.1580, 2172.946
720.3110, 2302.183
721.4640, 2388.419
722.6170, 2456.655
723.7700, 2304.889
724.9220, 2178.121
726.0740, 1815.356
727.2260, 1668.656
728.3780, 1277.887
729.5300, 1061.116
730.6810, 859.7859
731.8330, 707.0144
732.9840, 553.2429
734.1350, 441.5039
735.2860, 344.6970
736.4370, 274.9238
737.5880, 215.1492
738.7380, 167.1379
739.8880, 165.5996
741.0390, 153.8232
742.1890, 142.0527
743.3380, 175.2812
744.4880, 118.5117
745.6380, 97.74829
746.7870, 37.98364
747.9360, 76.21826
749.0850, 67.45166
750.2340, 107.6843
751.3830, 5.915527
752.5310, 44.14575
753.6800, 28.37451
754.8280, 98.89502
755.9760, 3.121582
757.1240, 69.36841
758.2720, 50.87598
759.4190, 38.88477
760.5670, 150.3879
761.7140, 1.393555
762.8610, 58.81836
764.0080, 3.031738
765.1550, 83.24683
766.3020, 49.57983
767.4480, 37.79321
768.5950, 26.00488
769.7410, 21.21460
770.8870, 90.42285
772.0330, 69.63013
773.1780, 67.83521
774.3240, 8.039063
775.4690, 81.77466
776.6140, 39.97388
777.7590, 54.17163
778.9040, 15.36816
780.0490, 48.56299
781.1940, 39.75610
782.3380, 31.75049
783.4820, 31.05933
784.6260, 17.89160
785.7700, 15.26367
786.9140, 67.41455
788.0580, 70.09644
789.2010, 86.13403
790.3450, 89.28027
791.4880, 78.42505
792.6310, 75.59863
793.7730, 43.74194
794.9160, 29.79053
796.0590, 46.93115
797.2010, 8.070068
798.3430, 25.83301
799.4850, 36.34082
800.6270, 53.80859
801.7690, 49.94043
802.9100, 47.92358
804.0520, 38.05005
805.1930, 20.75684
806.3340, 12.88281
807.4750, 16.99316
808.6160, 9.883789
809.7560, 28.21387
810.8970, 105.3101
812.0370, 19.40479
813.1770, 8.501465
814.3170, 9.418213
815.4570, 90.65405
816.5960, 46.72510
817.7360, 63.79468
818.8750, 13.13721
820.0140, 68.91797
821.1530, 32.97192
822.2920, 20.02417
823.4310, 18.07520
824.5690, 20.12500
825.7070, 12.17285
826.8460, 15.71655
827.9840, 0.2644040
829.1220, 28.30371
830.2590, 25.34180
831.3970, 52.37866
832.5340, 17.58618
833.6710, 30.43481
834.8080, 66.53760
835.9450, 45.55591
837.0820, 100.5730
838.2190, 56.58862
839.3550, 95.60303
840.4910, 47.62524
841.6270, 24.63745
842.7630, 32.35205
843.8990, 81.63672
845.0350, 23.62451
846.1700, 72.61133
847.3060, 0.5966800
848.4410, 18.57764
849.5760, 76.55762
850.7100, 8.463379
851.8450, 59.50635
852.9800, 41.47559
854.1140, 53.44336
855.2480, 115.4102
856.3820, 53.37646
857.5160, 73.34131
858.6500, 44.30518
859.7830, 56.26807
860.9170, 41.22949
862.0500, 8.190430
863.1830, 4.150879
864.3160, 15.00293
865.4480, 33.06641
866.5810, 51.02246
867.7130, 48.06982
868.8460, 53.21484
869.9780, 48.89502
871.1100, 55.85156
872.2410, 72.80664
873.3730, 99.76123
874.5050, 68.71533
875.6360, 134.6685
876.7670, 88.62158
877.8980, 78.57373
879.0290, 118.5249
880.1590, 144.4761
881.2900, 120.4258
882.4200, 148.3760
883.5500, 83.32471
884.6800, 146.2773
885.8100, 119.2295
886.9400, 47.18115
888.0690, 62.07812
889.1990, 94.02832
890.3280, 51.02148
891.4570, 89.90039
892.5860, 1.652344
893.7140, 81.57275
894.8430, 43.50439
895.9710, 35.60498
897.1000, 13.27588
898.2280, 51.63623
899.3560, 99.51758
900.4830, 50.12842
901.6110, 17.99072
902.7380, 33.88037
903.8660, 30.75098
904.9930, 23.62207
906.1200, 91.49365
907.2460, 35.36475
908.3730, 19.23633
909.5000, 62.10742
910.6260, 34.83789
911.7520, 29.71631
912.8780, 42.59570
914.0040, 13.47461
915.1290, 66.34277
916.2550, 52.22266
917.3800, 14.89697
918.5050, 58.97705
919.6300, 24.44385
920.7550, 0.7392580
921.8800, 84.59668
923.0040, 10.52686
924.1290, 136.3462
925.2530, 103.2197
926.3770, 14.09473
927.5010, 1.029297
928.6250, 11.84717
929.7480, 70.72754
930.8720, 77.61279
931.9950, 37.49951
933.1180, 21.27295
934.2410, 42.17139
935.3640, 9.929688
936.4860, 31.96680
937.6090, 38.86523
938.7310, 12.23584
939.8530, 79.66064
940.9750, 4.559082
942.0970, 10.41602
943.2180, 12.77197
944.3400, 41.57861
945.4610, 82.48193
946.5820, 76.38721
947.7030, 137.2939
948.8240, 117.2041
949.9450, 12.06104
951.0650, 120.9727
952.1860, 29.88672
953.3060, 83.80469
954.4260, 87.45068
955.5460, 147.3730
956.6650, 123.7871
957.7850, 121.8965
958.9040, 52.15088
960.0230, 99.08105
961.1420, 14.98926
962.2610, 44.92383
963.3800, 82.46094
964.4990, 133.4023
965.6170, 84.35059
966.7350, 81.30176
967.8530, 114.7490
968.9710, 5.279297
970.0890, 81.69434
971.2070, 68.67041
972.3240, 88.64893
973.4410, 44.62988
974.5580, 0.3867190
975.6750, 15.59912
976.7920, 34.58838
977.9090, 12.18506
979.0250, 25.17920
980.1410, 63.17676
981.2580, 43.17676
982.3740, 55.87256
983.4890, 19.87842
984.6050, 86.88770
985.7200, 65.04443
986.8360, 164.0591
987.9510, 70.07764
989.0660, 80.09814
990.1810, 37.12305
991.2950, 54.15039
992.4100, 93.18115
993.5240, 41.21484
994.6390, 51.25244
995.7530, 53.29297
996.8660, 67.33789
997.9800, 87.31836
999.0940, 9.372070
1000.207, 82.43555
1001.320, 142.5034
1002.433, 125.5742
1003.546, 50.64844
1004.659, 90.72607
1005.772, 122.8071
1006.884, 67.89209
1007.996, 118.9800
1009.108, 14.07178
1010.220, 4.166992
1011.332, 97.26514
1012.444, 146.3672
1013.555, 114.4731
1014.666, 151.5825
1015.777, 228.6958
1016.888, 164.8120
1017.999, 59.81738
1019.110, 143.9414
1020.220, 127.0688
1021.331, 170.2002
1022.441, 189.3350
1023.551, 178.4741
1024.661, 240.3242
1025.770, 204.4888
1026.880, 265.6396
1027.989, 200.8184
1029.098, 211.2124
1030.207, 223.6221
1031.316, 175.8130
1032.425, 269.0137
1033.533, 217.2188
1034.642, 257.4297
1035.750, 223.5259
1036.858, 253.7451
1037.966, 243.9800
1039.073, 264.2036
1040.181, 302.4541
1041.288, 337.7041
1042.396, 361.9624
1043.503, 448.2246
1044.610, 382.4927
1045.716, 394.7646
1046.823, 467.0430
1047.929, 364.3257
1049.036, 411.6128
1050.142, 457.9038
1051.248, 532.3970
1052.353, 555.6968
1053.459, 535.0112
1054.564, 534.3379
1055.670, 630.6836
1056.775, 586.6113
1057.880, 659.9663
1058.985, 743.3252
1060.089, 742.6885
1061.194, 775.0259
1062.298, 889.0649
1063.402, 998.1299
1064.506, 1076.695
1065.610, 1118.945
1066.713, 1287.335
1067.817, 1324.730
1068.920, 1444.794
1070.023, 1680.198
1071.126, 1783.605
1072.229, 1918.587
1073.332, 2097.004
1074.435, 2341.424
1075.537, 2448.850
1076.639, 2721.285
1077.741, 2939.730
1078.843, 3139.181
1079.945, 3613.634
1081.046, 4141.093
1082.148, 4864.559
1083.249, 5631.035
1084.350, 7110.517
1085.451, 9116.421
1086.551, 12104.91
1087.652, 15831.41
1088.752, 20999.91
1089.853, 27272.42
1090.953, 34916.93
1092.053, 42512.45
1093.152, 48964.96
1094.252, 53521.49
1095.351, 53661.55
1096.451, 49580.09
1097.550, 41629.63
1098.649, 32644.19
1099.748, 23611.73
1100.846, 16837.07
1101.945, 11380.55
1103.043, 7881.112
1104.141, 5669.681
1105.239, 4184.261
1106.337, 3065.846
1107.434, 2463.424
1108.532, 2044.017
1109.629, 1684.615
1110.726, 1288.226
1111.823, 1132.840
1112.920, 988.4590
1114.017, 977.0811
1115.113, 710.7104
1116.210, 648.3442
1117.306, 730.9810
1118.402, 554.6245
1119.498, 529.2725
1120.593, 491.9229
1121.689, 463.5771
1122.784, 443.2344
1123.879, 347.8950
1124.974, 367.5591
1126.069, 307.2266
1127.164, 384.8965
1128.259, 273.1978
1129.353, 187.9111
1130.447, 237.5918
1131.541, 122.9180
1132.635, 208.6050
1133.729, 105.2959
1134.822, 177.9961
1135.916, 224.6997
1137.009, 168.4062
1138.102, 289.1152
1139.195, 125.8276
1140.288, 134.5435
1141.380, 61.26221
1142.473, 77.98291
1143.565, 76.70801
1144.657, 139.4360
1145.749, 190.1670
1146.841, 93.90088
1147.932, 7.638184
1149.024, 27.58105
1150.115, 46.15332
1151.206, 151.8901
1152.297, 108.6299
1153.388, 53.37207
1154.479, 46.11719
1155.569, 111.9922
1156.659, 80.75098
1157.750, 49.78027
1158.839, 3.550781
1159.929, 54.32275
1161.019, 16.89111
1162.108, 104.9263
1163.198, 139.5244
1164.287, 105.8032
1165.376, 22.12109
1166.465, 65.92188
1167.553, 14.72998
1168.642, 0.2006840
1169.730, 106.6099
1170.818, 5.146484
1171.906, 54.98779
1172.994, 77.77686
1174.082, 75.59424
1175.170, 32.41211
1176.257, 56.23242
1177.344, 8.415527
1178.431, 22.23779
1179.518, 18.06152
1180.605, 98.88574
1181.691, 31.71191
1182.778, 50.54199
1183.864, 148.3735
1184.950, 92.82471
1186.036, 114.0962
1187.122, 52.34326
1188.207, 79.17969
1189.292, 100.0171
1190.378, 106.8550
1191.463, 62.69287
1192.548, 14.46826
1193.632, 14.63428
1194.717, 4.192383
1195.801, 35.97998
1196.886, 54.82959
1197.970, 55.63965
1199.054, 75.45020
1200.137, 153.3325
1201.221, 50.14502
1202.305, 79.01318
1203.388, 57.83789
1204.471, 37.65283
1205.554, 97.51807
1206.637, 45.33301
1207.719, 35.14795
1208.802, 48.96289
1209.884, 15.77832
1210.966, 36.64355
1212.048, 10.45801
1213.130, 2.759277
1214.212, 114.0859
1215.293, 7.100098
1216.374, 65.96094
1217.456, 92.77002
1218.536, 37.57764
1219.617, 58.49219
1220.698, 32.29883
1221.778, 88.13818
1222.859, 26.97510
1223.939, 54.78027
1225.019, 7.415527
1226.099, 91.38232
1227.178, 14.82080
1228.258, 24.96729
1229.337, 87.85889
1230.417, 58.35547
1231.496, 16.42236
1232.574, 57.19434
1233.653, 21.94482
1234.732, 84.86328
1235.810, 51.36914
1236.888, 123.2251
1237.966, 86.97070
1239.044, 80.15088
1240.122, 40.89453
1241.199, 34.63574
1242.277, 120.3760
1243.354, 31.11475
1244.431, 54.46289
1245.508, 126.1978
1246.585, 76.93213
1247.661, 79.66553
1248.738, 100.3979
1249.814, 72.12842
1250.890, 139.8574
1251.966, 28.58447
1253.042, 79.31006
1254.117, 59.03320
1255.193, 93.75537
1256.268, 85.47510
1257.343, 3.806641
1258.418, 13.90527
1259.493, 40.61475
1260.567, 19.56641
1261.642, 119.1362
1262.716, 28.00586
1263.790, 50.24023
1264.864, 37.93799
1265.938, 33.99609
1267.011, 104.3271
1268.085, 98.02539
1269.158, 79.71484
1270.231, 168.4014
1271.304, 85.17529
1272.377, 81.06055
1273.450, 168.8262
1274.522, 41.56348
1275.594, 65.29395
1276.666, 54.96631
1277.738, 21.75977
1278.810, 80.54199
1279.882, 92.20703
1280.953, 77.86865
1282.025, 72.52881
1283.096, 48.18555
1284.167, 11.16650
1285.238, 54.18213
1286.308, 10.56836
1287.379, 52.03174
1288.449, 67.62891
1289.519, 158.2241
1290.589, 29.30908
1291.659, 3.099609
1292.729, 90.53857
1293.798, 52.11523
1294.868, 50.68896
1295.937, 38.25977
1297.006, 7.829102
1298.075, 65.38281
1299.143, 33.05713
1300.212, 31.47607
1301.280, 4.993652
1302.348, 92.52393
1303.416, 75.03857
1304.484, 55.54883
1305.552, 6.056641
1306.620, 82.55713
1307.687, 51.05420
1308.754, 75.54785
1309.821, 104.0381
1310.888, 81.52441
1311.955, 111.0068
1313.021, 1.486328
1314.088, 34.04443
1315.154, 75.39697
1316.220, 90.83643
1317.286, 155.2720
1318.352, 54.70459
1319.417, 92.13379
1320.483, 113.5591
1321.548, 76.31250
1322.613, 108.0405
1323.678, 83.45068
1324.743, 73.80957
1325.807, 67.21436
1326.872, 101.6162
1327.936, 25.01514
1329.000, 133.4102
1330.064, 28.80225
1331.128, 40.19189
1332.191, 56.57764
1333.255, 30.96143
1334.318, 55.34033
1335.381, 46.71582
1336.444, 82.08838
1337.507, 125.4575
1338.569, 31.82324
1339.632, 165.1865
1340.694, 48.58008
1341.756, 151.9365
1342.818, 102.2896
1343.880, 10.21143
1344.941, 53.54688
1346.003, 160.8779
1347.064, 22.20459
1348.125, 137.5254
1349.186, 37.84229
1350.247, 38.15625
1351.308, 77.46729
1352.368, 86.77441
1353.428, 64.54736
1354.489, 114.8481
1355.549, 78.13037
1356.608, 22.46484
1357.668, 145.7451
1358.727, 36.24512
1359.787, 37.51807
1360.846, 60.78857
1361.905, 21.94629
1362.964, 49.30566
1364.022, 19.50342
1365.081, 111.7983
1366.139, 2.038574
1367.197, 97.27344
1368.255, 65.50293
1369.313, 109.7295
1370.371, 48.95215
1371.428, 0.8281250
1372.486, 59.38525
1373.543, 100.5952
1374.600, 76.09717
1375.657, 107.4316
1376.713, 113.7241
1377.770, 83.92090
1378.826, 74.11572
1379.882, 180.3066
1380.938, 96.49512
1381.994, 119.6812
1383.050, 118.8638
1384.106, 54.06299
1385.161, 168.0571
1386.216, 100.1953
1387.271, 25.19873
1388.326, 48.72559
1389.381, 15.65674
1390.435, 14.94580
1391.490, 48.46777
1392.544, 76.65430
1393.598, 132.8022
1394.652, 46.00146
1395.705, 152.1445
1396.759, 78.28418
1397.812, 26.42188
1398.866, 13.55762
1399.919, 27.68945
1400.972, 33.81836
1402.024, 34.94531
1403.077, 100.0693
1404.129, 22.19092
1405.181, 152.2695
1406.233, 68.44678
1407.285, 112.5669
1408.337, 126.6846
1409.389, 106.8018
1410.440, 6.916992
1411.491, 115.9531
1412.542, 75.21289
1413.593, 143.9053
1414.644, 90.00635
1415.695, 154.1064
1416.745, 106.2056
1417.795, 59.72168
1418.845, 30.96191
1419.895, 148.0020
1420.945, 117.0337
1421.995, 115.0615
1423.044, 103.3633
1424.093, 137.1245
1425.142, 210.1733
1426.191, 246.4644
1427.240, 234.4468
1428.289, 310.4790
1429.337, 310.4795
1430.385, 271.4746
1431.433, 392.4639
1432.481, 346.1011
1433.529, 423.0791
1434.577, 529.0361
1435.624, 586.9902
1436.672, 729.9277
1437.719, 780.8589
1438.766, 816.0942
1439.812, 973.1309
1440.859, 834.2109
1441.905, 776.5562
1442.952, 759.4536
1443.998, 783.5864
1445.044, 584.4834
1446.090, 476.3315
1447.135, 414.0669
1448.181, 427.7178
1449.226, 367.2905
1450.271, 352.4380
1451.316, 333.4292
1452.361, 250.6636
1453.405, 307.7358
1454.450, 226.8184
1455.494, 247.9473
1456.538, 256.0713
1457.582, 258.1348
1458.626, 212.2471
1459.670, 191.0747
1460.713, 109.1846
1461.757, 125.1631
1462.800, 108.1836
1463.843, 123.2695
1464.886, 164.3574
1465.928, 32.32861
1466.971, 88.40430
1468.013, 107.5000
1469.055, 227.3247
1470.097, 111.2827
1471.139, 139.8374
1472.181, 177.9116
1473.222, 118.2251
1474.263, 79.28320
1475.305, 145.3320
1476.346, 66.37598
1477.386, 104.4146
1478.427, 81.44922
1479.468, 66.47900
1480.508, 59.50781
1481.548, 29.37598
1482.588, 39.31006
1483.628, 42.11279
1484.668, 73.97754
1485.707, 60.93604
1486.747, 112.4702
1487.786, 101.2007
1488.825, 72.05225
1489.864, 135.7949
1490.902, 154.7129
1491.941, 136.6245
1492.979, 145.6333
1494.017, 96.98047
1495.055, 104.9385
1496.093, 89.88818
1497.131, 69.74951
1498.168, 105.6987
1499.206, 1.358398
1500.243, 10.60352
1501.280, 15.59033
1502.317, 45.58203
1503.354, 83.57617
1504.390, 125.5703
1505.426, 172.5654
1506.463, 159.5596
1507.499, 96.58740
1508.535, 33.63330
1509.570, 3.321289
1510.606, 71.72852
1511.641, 41.21094
1512.676, 47.84961
1513.711, 40.90674
1514.746, 78.96094
1515.781, 1.010742
1516.816, 31.05957
1517.850, 93.10791
1518.884, 27.15527
1519.918, 61.12012
1520.952, 123.1606
1521.986, 98.24463
1523.019, 40.33984
1524.053, 49.45166
1525.086, 63.56348
1526.119, 79.67627
1527.152, 42.78906
1528.185, 115.8247
1529.217, 128.0020
1530.250, 29.19141
1531.282, 116.4023
1532.314, 166.6299
1533.346, 106.8774
1534.377, 108.1450
1535.409, 32.42822
1536.440, 120.7324
1537.472, 64.24707
1538.503, 69.52295
1539.534, 72.81250
1540.564, 64.11475
1541.595, 0.6118160
1542.625, 143.4062
1543.656, 84.27930
1544.686, 147.0005
1545.716, 49.63037
1546.745, 0.8603520
1547.775, 80.86133
1548.804, 28.53516
1549.834, 62.16992
1550.863, 64.75391
1551.892, 121.9473
1552.920, 102.3696
1553.949, 39.69141
1554.977, 126.5796
1556.006, 31.72900
1557.034, 55.71875
1558.062, 48.35303
1559.089, 105.7686
1560.117, 89.51807
1561.144, 93.95361
1562.172, 20.25781
1563.199, 71.10645
1564.226, 26.83301
1565.252, 2.798828
1566.279, 33.11377
1567.305, 1.959961
1568.332, 29.41650
1569.358, 14.92627
1570.384, 19.58936
1571.409, 90.89111
1572.435, 0.0000000E+00
##END=



