##NAMES=Dolomite
##RRUFFID=R040030
##IDEAL CHEMISTRY=CaMg(CO_3_)_2_
##LOCALITY=Austria
##OWNER=RRUFF
##SOURCE=University of Arizona Mineral Museum
##DESCRIPTION=Group of colorless tabular crystals
##STATUS=The identification of this mineral has been confirmed by X-ray diffraction and chemical analysis
##URL=rruff.info/R040030
##MEASURED CHEMISTRY=(Ca_0.99_Mg_0.01_)_Î£=1_Mg_1.00_(CO_3_)_2_ ; trace amounts of Mn; CO_2_ estimated by difference
##PIN_ID=M00035
##ORIENTATION=Laser parallel to -c* (0 0 -1). Fiducial mark perpendicular to laser is parallel to -a [-1 0 0]
95.582, 0.000
96.976, 4.474
98.370, 31.566
99.764, 53.009
101.157, 93.594
102.550, 129.233
103.943, 115.334
105.336, 102.563
106.729, 140.622
108.121, 142.327
109.513, 180.442
110.905, 130.130
112.297, 246.303
113.688, 219.638
115.079, 364.602
116.470, 212.466
117.861, 210.415
119.251, 155.886
120.642, 119.631
122.032, 143.407
123.422, 111.689
124.811, 72.473
126.201, 39.131
127.590, 41.798
128.979, 36.446
130.367, 40.076
131.756, 39.691
133.144, 30.534
134.532, 36.844
135.920, 35.817
137.307, 24.973
138.695, 18.903
140.082, 10.696
141.469, 0.259
142.856, 12.516
144.242, 39.558
145.628, 34.305
147.014, 43.022
148.400, 49.344
149.786, 41.448
151.171, 54.898
152.556, 46.254
153.941, 57.219
155.325, 97.557
156.710, 130.717
158.094, 136.069
159.478, 133.943
160.862, 171.296
162.245, 213.495
163.629, 246.365
165.012, 336.534
166.395, 472.795
167.777, 574.223
169.160, 789.996
170.542, 1163.643
171.924, 1700.698
173.306, 2416.823
174.687, 3227.773
176.068, 4172.177
177.449, 4734.812
178.830, 4544.676
180.211, 3846.247
181.591, 2670.543
182.972, 1803.740
184.351, 1156.490
185.731, 766.585
187.111, 519.318
188.490, 380.540
189.869, 274.556
191.248, 200.591
192.626, 112.641
194.005, 111.705
195.383, 80.783
196.761, 109.872
198.139, 25.965
199.516, 67.055
200.893, 28.142
202.271, 8.222
203.647, 15.705
205.024, 10.641
206.400, 28.415
207.777, 38.542
209.152, 12.516
210.528, 5.440
211.904, 37.375
213.279, 13.406
214.654, 1.459
216.029, 0.465
217.403, 8.595
218.778, 6.249
220.152, 11.119
221.526, 14.031
222.900, 9.203
224.273, 17.602
225.646, 15.581
227.019, 20.505
228.392, 7.288
229.765, 27.240
231.137, 6.692
232.509, 19.377
233.881, 22.293
235.253, 21.602
236.625, 76.648
237.996, 44.874
239.367, 23.740
240.738, 38.507
242.108, 6.894
243.479, 5.399
244.849, 22.999
246.219, 36.319
247.589, 26.649
248.958, 36.949
250.328, 18.424
251.697, 44.902
253.065, 15.279
254.434, 52.648
255.803, 33.261
257.171, 27.281
258.539, 39.633
259.906, 59.159
261.274, 10.178
262.641, 40.017
264.008, 28.945
265.375, 18.181
266.742, 16.669
268.108, 30.433
269.475, 1.510
270.840, 19.575
272.206, 4.838
273.572, 3.930
274.937, 79.192
276.302, 42.147
277.667, 117.001
279.032, 100.742
280.396, 123.643
281.760, 143.338
283.125, 148.240
284.488, 170.030
285.852, 161.453
287.215, 194.958
288.578, 244.520
289.941, 247.063
291.304, 290.577
292.666, 418.140
294.029, 487.649
295.391, 575.099
296.753, 773.591
298.114, 876.737
299.476, 1097.824
300.837, 1143.776
302.198, 1154.692
303.558, 1050.737
304.919, 880.570
306.279, 694.430
307.639, 516.187
308.999, 454.016
310.359, 387.723
311.718, 222.392
313.077, 289.225
314.436, 234.979
315.795, 192.599
317.154, 178.229
318.512, 176.600
319.870, 158.866
321.228, 141.229
322.586, 160.515
323.943, 125.746
325.300, 123.979
326.657, 154.291
328.014, 148.381
329.371, 171.505
330.727, 166.476
332.083, 236.443
333.439, 227.416
334.795, 295.356
336.150, 410.358
337.506, 499.358
338.861, 636.364
340.215, 641.317
341.570, 670.674
342.924, 602.241
344.279, 458.988
345.633, 350.824
346.986, 295.657
348.340, 258.393
349.693, 225.288
351.046, 148.004
352.399, 122.570
353.752, 107.123
355.104, 141.673
356.457, 102.191
357.809, 140.691
359.160, 119.051
360.512, 90.518
361.863, 123.496
363.214, 75.826
364.565, 106.837
365.916, 109.514
367.267, 58.811
368.617, 83.352
369.967, 28.322
371.317, 96.087
372.666, 63.475
374.016, 36.294
375.365, 71.119
376.714, 15.595
378.063, 47.627
379.411, 33.973
380.760, 71.465
382.108, 31.867
383.456, 82.660
384.803, 62.845
386.151, 69.430
387.498, 61.057
388.845, 81.646
390.192, 75.851
391.539, 70.884
392.885, 79.611
394.231, 73.553
395.577, 75.096
396.923, 61.716
398.269, 66.282
399.614, 65.198
400.959, 51.961
402.304, 32.517
403.649, 39.198
404.993, 33.778
406.337, 46.248
407.681, 34.753
409.025, 45.369
410.369, 28.909
411.712, 2.611
413.055, 21.119
414.398, 24.764
415.741, 7.856
417.084, 38.795
418.426, 30.691
419.768, 50.877
421.110, 3.614
422.452, 8.105
423.793, 67.245
425.134, 56.701
426.475, 1.042
427.816, 15.759
429.157, 14.794
430.497, 22.058
431.837, 10.505
433.177, 3.396
434.517, 2.681
435.857, 4.994
437.196, 11.420
438.535, 27.631
439.874, 46.159
441.213, 4.599
442.551, 40.113
443.889, 1.376
445.227, 41.116
446.565, 36.589
447.903, 50.044
449.240, 27.482
450.577, 20.905
451.914, 17.310
453.251, 1.017
454.588, 1.871
455.924, 3.496
457.260, 2.172
458.596, 52.141
459.932, 56.453
461.267, 81.754
462.602, 106.039
463.938, 38.316
465.272, 100.576
466.607, 48.826
467.941, 75.061
469.276, 55.282
470.610, 80.499
471.943, 75.702
473.277, 26.900
474.610, 29.083
475.944, 47.251
477.276, 11.404
478.609, 51.544
479.942, 84.682
481.274, 39.809
482.606, 48.924
483.938, 47.025
485.270, 39.072
486.601, 7.099
487.932, 51.166
489.263, 31.220
490.594, 62.263
491.925, 57.294
493.255, 47.845
494.585, 47.323
495.915, 27.321
497.245, 22.306
498.575, 15.280
499.904, 23.241
501.233, 9.801
502.562, 13.859
503.891, 57.064
505.219, 26.977
506.548, 20.878
507.876, 37.768
509.203, 1.355
510.531, 32.553
511.859, 83.432
513.186, 80.294
514.513, 88.672
515.840, 91.686
517.166, 98.319
518.493, 75.740
519.819, 76.548
521.145, 86.210
522.470, 51.607
523.796, 60.174
525.121, 52.472
526.446, 51.360
527.771, 74.915
529.096, 57.726
530.421, 96.040
531.745, 88.862
533.069, 71.443
534.393, 58.907
535.716, 20.514
537.040, 103.769
538.363, 14.231
539.686, 86.634
541.009, 71.191
542.331, 0.579
543.654, 62.174
544.976, 35.692
546.298, 59.242
547.620, 56.752
548.941, 32.345
550.263, 53.921
551.584, 51.475
552.905, 12.059
554.225, 23.619
555.546, 46.180
556.866, 71.696
558.186, 65.664
559.506, 56.745
560.826, 64.202
562.145, 86.573
563.465, 105.966
564.784, 95.365
566.103, 96.770
567.421, 70.146
568.740, 53.562
570.058, 32.903
571.376, 33.358
572.694, 63.363
574.011, 49.669
575.329, 66.360
576.646, 90.715
577.963, 21.970
579.279, 119.365
580.596, 23.313
581.912, 53.486
583.228, 98.935
584.544, 87.334
585.860, 164.440
587.175, 105.629
588.491, 132.856
589.806, 96.109
591.121, 94.311
592.435, 99.307
593.750, 61.444
595.064, 126.376
596.378, 98.581
597.692, 80.940
599.006, 133.281
600.319, 82.423
601.632, 142.763
602.945, 86.820
604.258, 137.162
605.571, 114.517
606.883, 69.844
608.195, 105.733
609.507, 103.230
610.819, 57.483
612.131, 27.596
613.442, 86.677
614.753, 114.844
616.064, 78.844
617.375, 92.797
618.685, 142.008
619.995, 158.409
621.306, 187.033
622.615, 230.416
623.925, 247.542
625.235, 377.877
626.544, 327.351
627.853, 415.218
629.162, 397.662
630.471, 339.999
631.779, 321.224
633.087, 278.683
634.395, 192.614
635.703, 198.923
637.011, 170.885
638.318, 128.633
639.625, 138.804
640.932, 147.010
642.239, 139.358
643.546, 155.177
644.852, 255.531
646.158, 190.728
647.464, 272.875
648.770, 331.169
650.076, 287.380
651.381, 249.998
652.686, 271.159
653.991, 228.232
655.296, 242.426
656.600, 237.440
657.905, 206.446
659.209, 138.097
660.513, 169.512
661.817, 101.685
663.120, 56.729
664.423, 60.744
665.726, 60.825
667.029, 42.720
668.332, 46.809
669.635, 37.000
670.937, 36.815
672.239, 12.650
673.541, 55.529
674.842, 4.315
676.144, 34.858
677.445, 39.030
678.746, 20.802
680.047, 43.288
681.348, 4.590
682.648, 17.489
683.948, 7.560
685.248, 1.902
686.548, 39.776
687.848, 4.894
689.147, 31.005
690.447, 31.112
691.746, 37.194
693.044, 76.114
694.343, 71.437
695.641, 85.369
696.940, 94.194
698.238, 95.282
699.535, 120.106
700.833, 123.186
702.130, 160.153
703.427, 169.215
704.724, 190.265
706.021, 191.209
707.318, 253.241
708.614, 317.259
709.910, 290.109
711.206, 296.005
712.502, 405.992
713.798, 435.031
715.093, 556.065
716.388, 652.087
717.683, 815.114
718.978, 1097.138
720.272, 1364.158
721.567, 1733.174
722.861, 2258.188
724.155, 2705.198
725.448, 3167.188
726.742, 3128.091
728.035, 3025.994
729.328, 2482.991
730.621, 1885.958
731.914, 1450.952
733.206, 1049.942
734.499, 822.808
735.791, 604.800
737.083, 457.669
738.374, 422.658
739.666, 224.642
740.957, 220.624
742.248, 151.603
743.539, 123.583
744.830, 169.561
746.120, 117.536
747.410, 129.508
748.701, 106.478
749.990, 79.446
751.280, 54.413
752.570, 19.377
753.859, 81.337
755.148, 47.294
756.437, 32.249
757.725, 46.200
759.014, 30.150
760.302, 21.096
761.590, 49.038
762.878, 4.022
764.166, 1.908
765.453, 20.833
766.740, 30.754
768.027, 88.595
769.314, 20.512
770.601, 70.426
771.887, 51.661
773.174, 7.782
774.460, 65.084
775.745, 13.052
777.031, 5.798
778.316, 5.357
779.602, 18.478
780.887, 10.310
782.172, 34.863
783.456, 15.939
784.741, 25.263
786.025, 16.515
787.309, 38.289
788.593, 30.062
789.876, 2.832
791.160, 37.403
792.443, 0.664
793.726, 43.068
795.009, 40.797
796.291, 12.476
797.574, 79.238
798.856, 32.950
800.138, 69.661
801.420, 23.369
802.702, 18.074
803.983, 63.777
805.264, 1.523
806.545, 83.170
807.826, 59.862
809.107, 4.551
810.387, 49.237
811.667, 26.078
812.947, 20.588
814.227, 20.254
815.507, 53.920
816.786, 82.585
818.065, 71.249
819.344, 46.910
820.623, 57.570
821.902, 18.187
823.180, 49.463
824.459, 59.052
825.737, 74.729
827.014, 23.741
828.292, 102.390
829.569, 125.660
830.847, 61.456
832.124, 131.046
833.401, 150.896
834.677, 76.501
835.954, 122.495
837.230, 93.989
838.506, 109.439
839.782, 89.823
841.057, 137.407
842.333, 186.842
843.608, 154.386
844.883, 110.929
846.158, 153.018
847.433, 142.636
848.707, 172.251
849.981, 130.866
851.255, 251.479
852.529, 227.090
853.803, 204.700
855.076, 291.309
856.350, 216.916
857.623, 299.521
858.895, 393.125
860.168, 333.727
861.441, 496.328
862.713, 506.928
863.985, 395.527
865.257, 380.125
866.528, 322.721
867.800, 257.316
869.071, 315.910
870.342, 195.503
871.613, 233.094
872.884, 183.683
874.154, 158.271
875.425, 173.858
876.695, 217.444
877.965, 143.028
879.234, 197.611
880.504, 241.194
881.773, 358.776
883.042, 377.356
884.311, 332.936
885.580, 239.514
886.848, 133.092
888.117, 163.669
889.385, 193.247
890.653, 150.825
891.920, 191.402
893.188, 174.981
894.455, 193.558
895.722, 195.135
896.989, 212.711
898.256, 189.287
899.523, 170.863
900.789, 190.438
902.055, 200.020
903.321, 207.605
904.587, 162.190
905.852, 130.687
907.118, 166.274
908.383, 218.861
909.648, 165.412
910.913, 171.998
912.177, 164.559
913.442, 224.084
914.706, 238.688
915.970, 178.629
917.233, 179.931
918.497, 114.457
919.760, 128.024
921.024, 70.627
922.287, 65.154
923.550, 79.079
924.812, 142.706
926.075, 98.410
927.337, 56.014
928.599, 33.389
929.861, 144.841
931.122, 48.711
932.384, 142.246
933.645, 119.749
934.906, 63.773
936.167, 133.304
937.428, 81.936
938.688, 166.474
939.948, 78.093
941.208, 118.692
942.468, 86.071
943.728, 106.961
944.987, 94.155
946.247, 104.781
947.506, 100.408
948.765, 103.883
950.023, 135.514
951.282, 96.147
952.540, 146.781
953.798, 95.381
955.056, 118.961
956.314, 213.601
957.572, 137.791
958.829, 102.434
960.086, 165.080
961.343, 72.581
962.600, 100.230
963.856, 129.920
965.113, 89.536
966.369, 79.155
967.625, 80.813
968.881, 95.473
970.136, 35.135
971.392, 88.799
972.647, 89.465
973.902, 32.904
975.157, 31.752
976.411, 33.589
977.666, 46.931
978.920, 54.693
980.174, 106.662
981.428, 26.065
982.682, 79.523
983.935, 19.886
985.188, 36.706
986.441, 28.301
987.694, 28.902
988.947, 59.505
990.199, 19.112
991.452, 104.722
992.704, 45.335
993.956, 48.951
995.207, 96.571
996.459, 13.808
997.710, 34.812
998.961, 132.435
1000.212, 136.060
1001.463, 333.688
1002.714, 423.318
1003.964, 526.951
1005.214, 379.586
1006.464, 208.225
1007.714, 124.866
1008.964, 135.510
1010.213, 45.157
1011.462, 80.806
1012.711, 54.458
1013.960, 33.113
1015.209, 91.770
1016.457, 80.431
1017.705, 199.094
1018.954, 183.760
1020.201, 178.429
1021.449, 297.100
1022.697, 243.775
1023.944, 256.452
1025.191, 231.132
1026.438, 252.815
1027.685, 298.501
1028.931, 232.190
1030.177, 233.882
1031.423, 278.577
1032.669, 182.274
1033.915, 188.975
1035.161, 135.678
1036.406, 138.401
1037.651, 224.110
1038.896, 195.154
1040.141, 190.021
1041.386, 239.748
1042.630, 160.922
1043.874, 289.656
1045.118, 281.396
1046.362, 239.140
1047.606, 301.890
1048.849, 295.968
1050.092, 356.733
1051.336, 315.095
1052.578, 323.720
1053.821, 372.506
1055.064, 367.056
1056.306, 345.850
1057.548, 459.646
1058.790, 410.452
1060.032, 546.262
1061.273, 556.471
1062.515, 474.287
1063.756, 718.106
1064.997, 698.928
1066.237, 835.766
1067.478, 850.608
1068.718, 953.454
1069.959, 1105.304
1071.199, 1299.158
1072.438, 1398.016
1073.678, 1632.875
1074.918, 1810.771
1076.157, 2028.675
1077.396, 2274.580
1078.635, 2310.152
1079.873, 2518.077
1081.112, 2673.010
1082.350, 2871.971
1083.588, 3091.935
1084.826, 3407.919
1086.064, 3795.906
1087.301, 4156.903
1088.539, 4705.906
1089.776, 5881.914
1091.013, 6847.923
1092.250, 9003.938
1093.486, 12509.966
1094.723, 17745.998
1095.959, 27512.035
1097.195, 38888.070
1098.431, 49914.109
1099.666, 51330.156
1100.902, 41336.207
1102.137, 28512.256
1103.372, 17778.311
1104.607, 11374.362
1105.842, 7700.421
1107.076, 5117.482
1108.311, 3785.547
1109.545, 2962.614
1110.779, 2309.683
1112.012, 1903.800
1113.246, 1486.884
1114.479, 1269.970
1115.712, 1052.059
1116.945, 817.149
1118.178, 840.242
1119.411, 745.338
1120.643, 569.435
1121.875, 621.535
1123.108, 460.993
1124.339, 450.098
1125.571, 467.526
1126.802, 389.134
1128.034, 317.245
1129.265, 377.117
1130.496, 307.011
1131.727, 293.128
1132.957, 215.381
1134.187, 314.504
1135.418, 273.629
1136.648, 196.757
1137.877, 198.888
1139.107, 152.021
1140.336, 158.156
1141.566, 203.293
1142.795, 71.433
1144.023, 79.581
1145.252, 116.218
1146.480, 120.364
1147.709, 111.360
1148.937, 4.663
1150.165, 71.815
1151.392, 55.970
1152.620, 26.125
1153.847, 88.283
1155.074, 73.442
1156.301, 17.604
1157.528, 92.766
1158.755, 84.931
1159.981, 26.097
1161.207, 131.263
1162.433, 73.431
1163.659, 144.601
1164.885, 54.770
1166.110, 31.940
1167.336, 54.113
1168.561, 66.285
1169.786, 71.459
1171.010, 74.634
1172.235, 4.810
1173.459, 54.985
1174.683, 84.163
1175.907, 5.340
1177.131, 165.519
1178.355, 95.697
1179.578, 48.877
1180.801, 49.058
1182.024, 20.238
1183.247, 0.272
1184.470, 60.601
1185.692, 9.218
1186.915, 5.040
1188.137, 53.146
1189.359, 10.677
1190.580, 104.602
1191.802, 29.666
1193.023, 4.949
1194.244, 9.873
1195.465, 6.740
1196.686, 35.428
1197.907, 27.629
1199.127, 15.381
1200.347, 66.832
1201.567, 13.772
1202.787, 155.413
1204.007, 61.712
1205.226, 27.179
1206.446, 18.555
1207.665, 71.185
1208.884, 25.107
1210.102, 44.263
1211.321, 15.408
1212.539, 20.833
1213.758, 79.142
1214.976, 36.492
1216.193, 67.583
1217.411, 92.347
1218.628, 27.457
1219.846, 140.546
1221.063, 31.891
1222.280, 74.091
1223.496, 75.196
1224.713, 23.413
1225.929, 79.055
1227.145, 107.728
1228.361, 40.767
1229.577, 34.866
1230.793, 120.512
1232.008, 80.619
1233.223, 148.807
1234.438, 158.543
1235.653, 101.934
1236.868, 167.992
1238.082, 188.051
1239.297, 149.108
1240.511, 176.167
1241.725, 209.225
1242.938, 188.284
1244.152, 123.342
1245.365, 171.399
1246.578, 226.458
1247.791, 134.515
1249.004, 153.572
1250.217, 165.629
1251.429, 127.754
1252.642, 174.873
1253.854, 100.964
1255.066, 211.125
1256.277, 222.194
1257.489, 31.249
1258.700, 148.573
1259.911, 98.626
1261.122, 98.811
1262.333, 221.863
1263.544, 145.915
1264.754, 129.214
1265.964, 150.265
1267.174, 145.314
1268.384, 209.413
1269.594, 288.468
1270.803, 230.628
1272.013, 272.689
1273.222, 267.761
1274.431, 192.831
1275.640, 244.928
1276.848, 269.029
1278.057, 192.130
1279.265, 238.233
1280.473, 211.336
1281.681, 201.438
1282.888, 145.539
1284.096, 122.640
1285.303, 161.725
1286.510, 81.803
1287.717, 112.875
1288.924, 51.929
1290.131, 49.962
1291.337, 66.651
1292.543, 122.023
1293.749, 116.039
1294.955, 113.052
1296.161, 166.062
1297.366, 186.052
1298.571, 201.038
1299.777, 105.016
1300.981, 176.960
1302.186, 106.900
1303.391, 148.825
1304.595, 109.692
1305.799, 115.543
1307.003, 60.388
1308.207, 205.221
1309.411, 163.050
1310.614, 198.875
1311.818, 180.696
1313.021, 191.513
1314.224, 238.326
1315.426, 199.133
1316.629, 140.935
1317.831, 261.730
1319.033, 160.520
1320.235, 209.302
1321.437, 235.078
1322.639, 151.844
1323.840, 290.605
1325.042, 233.359
1326.243, 124.104
1327.444, 203.844
1328.644, 70.560
1329.845, 172.285
1331.045, 150.670
1332.245, 17.772
1333.445, 87.920
1334.645, 39.159
1335.845, 0.164
1337.044, 38.501
1338.244, 2.158
1339.443, 21.196
1340.642, 66.119
1341.840, 30.259
1343.039, 41.765
1344.237, 47.526
1345.435, 13.124
1346.633, 51.958
1347.831, 24.546
1349.029, 8.869
1350.226, 13.706
1351.424, 34.277
1352.621, 15.447
1353.818, 46.012
1355.014, 48.574
1356.211, 26.866
1357.407, 13.683
1358.604, 9.231
1359.800, 71.779
1360.995, 0.354
1362.191, 57.194
1363.387, 79.876
1364.582, 57.387
1365.777, 36.155
1366.972, 59.186
1368.167, 7.742
1369.361, 12.352
1370.556, 0.336
1371.750, 85.119
1372.944, 55.394
1374.138, 15.092
1375.331, 53.335
1376.525, 33.780
1377.718, 31.912
1378.911, 3.542
1380.104, 88.431
1381.297, 123.402
1382.490, 130.370
1383.682, 184.335
1384.874, 91.299
1386.066, 184.260
1387.258, 79.218
1388.450, 74.171
1389.641, 158.121
1390.833, 144.018
1392.024, 124.958
1393.215, 108.895
1394.406, 53.826
1395.596, 55.762
1396.787, 62.677
1397.977, 46.597
1399.167, 68.511
1400.357, 86.421
1401.547, 17.327
1402.736, 118.227
1403.925, 42.122
1405.115, 79.011
1406.304, 131.870
1407.492, 21.750
1408.681, 107.626
1409.870, 156.499
1411.058, 64.367
1412.246, 180.232
1413.434, 52.095
1414.622, 148.957
1415.809, 113.818
1416.997, 147.679
1418.184, 105.540
1419.371, 197.400
1420.558, 118.260
1421.744, 158.122
1422.931, 208.984
1424.117, 151.847
1425.303, 204.713
1426.489, 197.583
1427.675, 244.404
1428.861, 206.715
1430.046, 263.200
1431.231, 299.516
1432.416, 339.706
1433.601, 403.944
1434.786, 498.359
1435.970, 570.494
1437.155, 705.710
1438.339, 888.308
1439.523, 1045.655
1440.707, 1492.927
1441.890, 1888.404
1443.074, 1999.343
1444.257, 2246.687
1445.440, 1933.073
1446.623, 1567.054
1447.806, 1528.263
1448.989, 1391.210
1450.171, 1182.452
1451.353, 1178.663
1452.535, 1086.844
1453.717, 1109.997
1454.899, 1187.116
1456.080, 1096.204
1457.262, 1053.256
1458.443, 1150.975
1459.624, 987.624
1460.805, 1016.515
1461.985, 928.747
1463.166, 869.245
1464.346, 982.390
1465.526, 735.096
1466.706, 647.615
1467.886, 797.922
1469.065, 550.444
1470.245, 555.898
1471.424, 527.281
1472.603, 475.585
1473.782, 513.807
1474.960, 406.043
1476.139, 423.300
1477.317, 428.655
1478.495, 409.984
1479.673, 324.283
1480.851, 446.636
1482.029, 291.073
1483.206, 326.617
1484.383, 433.625
1485.560, 291.714
1486.737, 328.826
1487.914, 313.931
1489.091, 288.030
1490.267, 311.148
1491.443, 199.299
1492.619, 231.511
1493.795, 142.779
1494.971, 64.121
1496.146, 161.541
1497.322, 115.068
1498.497, 53.727
1499.672, 188.529
1500.846, 124.498
1502.021, 4.351
1503.196, 174.952
1504.370, 21.408
1505.544, 11.053
1506.718, 184.921
1507.892, 5.947
1509.065, 133.492
1510.238, 83.284
1511.412, 32.411
1512.585, 70.882
1513.758, 145.657
1514.930, 60.705
1516.103, 121.953
1517.275, 70.437
1518.447, 0.285
1519.619, 0.000
##END=



