##NAMES=Dolomite
##RRUFFID=R050241
##IDEAL CHEMISTRY=CaMg(CO_3_)_2_
##LOCALITY=Eugui quarries, Navarre, Spain
##OWNER=RRUFF
##SOURCE=Marcus Origlieri
##DESCRIPTION=Light gray colored tabular crystals
##STATUS=The identification of this mineral has been confirmed by X-ray diffraction and chemical analysis
##URL=rruff.info/R050241
##MEASURED CHEMISTRY=(Ca_0.96_Mg_0.04_)_Σ=1_(Mg_0.98_Fe^2+^_0.02_)_Σ=1_(CO_3_)_2_ ; CO_2_ estimated by difference
##PIN_ID=L00120
##ORIENTATION=Laser parallel to c* (0 0 1). Fiducial mark perpendicular to laser is parallel to b [0 1 0]
118.1340, 0.0000000E+00
119.3650, 27.89417
120.5960, 17.79443
121.8270, 23.04602
123.0580, 29.48938
124.2880, 21.31372
125.5190, 43.16418
126.7490, 20.92139
127.9790, 6.620239
129.2090, 16.40601
130.4390, 24.89343
131.6680, 43.76978
132.8980, 48.74658
134.1270, 28.51746
135.3560, 46.33203
136.5850, 55.39233
137.8140, 34.65076
139.0430, 73.07141
140.2710, 71.62769
141.5000, 62.29846
142.7280, 60.06763
143.9560, 63.97534
145.1840, 114.0159
146.4120, 85.15869
147.6390, 122.5273
148.8670, 96.92664
150.0940, 135.3540
151.3210, 183.1329
152.5490, 237.9478
153.7750, 251.7412
155.0020, 259.5186
156.2290, 306.2819
157.4550, 387.0349
158.6810, 409.7798
159.9080, 538.5181
161.1340, 639.2515
162.3590, 878.9828
163.5850, 1126.714
164.8110, 1542.444
166.0360, 2168.177
167.2610, 2846.909
168.4860, 3612.645
169.7110, 4328.521
170.9360, 5357.459
172.1610, 6612.151
173.3850, 8222.853
174.6100, 9190.667
175.8340, 9571.482
177.0580, 9268.092
178.2820, 8800.715
179.5050, 7770.971
180.7290, 6233.598
181.9520, 4795.236
183.1760, 3397.301
184.3990, 2294.018
185.6220, 1528.495
186.8450, 1022.984
188.0670, 904.5398
189.2900, 580.1025
190.5120, 524.6794
191.7340, 462.2649
192.9560, 433.8489
194.1780, 260.4581
195.4000, 291.0913
196.6220, 211.7258
197.8430, 208.3687
199.0640, 219.0232
200.2860, 118.6842
201.5070, 131.3503
202.7270, 105.0251
203.9480, 106.7083
205.1690, 109.4316
206.3890, 92.16199
207.6090, 70.89905
208.8290, 65.69678
210.0490, 45.38928
211.2690, 40.14844
212.4890, 47.91382
213.7080, 32.68298
214.9280, 43.45776
216.1470, 19.23511
217.3660, 25.01501
218.5850, 45.81042
219.8030, 6.620605
221.0220, 15.56604
222.2400, 8.249756
223.4590, 0.9116210
224.6770, 41.92883
225.8950, 64.76782
227.1120, 45.60535
228.3300, 27.44116
229.5480, 8.723511
230.7650, 7.880249
231.9820, 17.03040
233.1990, 8.179321
234.4160, 21.66846
235.6330, 13.51538
236.8490, 16.36047
238.0660, 19.20789
239.2820, 14.75989
240.4980, 4.989136
241.7140, 13.85229
242.9300, 13.68762
244.1460, 18.53137
245.3610, 44.48425
246.5770, 8.611938
247.7920, 49.80383
249.0070, 27.00598
250.2220, 40.96265
251.4370, 13.94507
252.6510, 22.73425
253.8660, 51.51318
255.0800, 25.43286
256.2940, 25.27441
257.5080, 44.05237
258.7220, 36.61975
259.9360, 44.28577
261.1490, 54.41125
262.3630, 57.79785
263.5760, 70.54468
264.7890, 87.97461
266.0020, 88.66382
267.2150, 62.33301
268.4270, 108.0215
269.6400, 117.3464
270.8520, 149.0785
272.0640, 213.7998
273.2760, 142.5397
274.4880, 208.1188
275.7000, 280.8818
276.9120, 264.4006
278.1230, 303.2369
279.3340, 349.1091
280.5450, 375.0242
281.7560, 463.8167
282.9670, 566.6973
284.1780, 669.5022
285.3880, 925.5767
286.5980, 1069.394
287.8090, 1351.424
289.0190, 1693.352
290.2290, 2160.553
291.4380, 2704.978
292.6480, 3280.503
293.8570, 4089.452
295.0670, 4925.442
296.2760, 5877.346
297.4850, 6705.352
298.6930, 7281.176
299.9020, 7813.174
301.1110, 7715.994
302.3190, 7290.266
303.5270, 6614.451
304.7350, 5628.360
305.9430, 4577.267
307.1510, 3656.162
308.3580, 2737.050
309.5660, 2166.046
310.7730, 1662.049
311.9800, 1398.847
313.1870, 1093.696
314.3940, 902.5852
315.6010, 771.3646
316.8070, 587.2820
318.0130, 586.2029
319.2200, 467.1035
320.4260, 463.8857
321.6310, 371.6819
322.8370, 352.9691
324.0430, 324.7136
325.2480, 333.5364
326.4540, 343.1400
327.6590, 349.1027
328.8640, 343.9645
330.0680, 440.8281
331.2730, 424.5077
332.4780, 557.3447
333.6820, 625.0183
334.8860, 710.8619
336.0900, 775.5291
337.2940, 901.2949
338.4980, 972.1350
339.7010, 882.8855
340.9050, 848.7102
342.1080, 792.9783
343.3110, 624.6455
344.5140, 499.5117
345.7170, 365.4878
346.9200, 300.1589
348.1220, 211.8530
349.3240, 199.4871
350.5270, 193.4136
351.7290, 72.06445
352.9310, 119.8389
354.1320, 111.5986
355.3340, 105.2136
356.5350, 79.84985
357.7370, 101.4568
358.9380, 34.05933
360.1390, 16.85571
361.3400, 89.45312
362.5400, 55.04834
363.7410, 74.87549
364.9410, 78.56616
366.1410, 87.44019
367.3410, 71.15942
368.5410, 35.62720
369.7410, 39.22437
370.9400, 12.85645
372.1400, 22.18457
373.3390, 72.09839
374.5380, 54.26465
375.7370, 71.59570
376.9360, 105.5659
378.1350, 39.83643
379.3330, 61.45288
380.5310, 9.104492
381.7300, 23.76562
382.9280, 17.53906
384.1260, 41.24805
385.3230, 74.55225
386.5210, 61.18921
387.7180, 50.82446
388.9160, 31.37305
390.1130, 24.98535
391.3100, 35.71509
392.5060, 13.88281
393.7030, 22.89722
394.9000, 88.38745
396.0960, 70.07593
397.2920, 27.53564
398.4880, 52.08887
399.6840, 30.71069
400.8800, 41.23682
402.0750, 8.803223
403.2710, 18.92017
404.4660, 1.858887
405.6610, 29.68921
406.8560, 52.01904
408.0510, 62.44312
409.2450, 37.73804
410.4400, 5.025635
411.6340, 27.30420
412.8280, 35.34131
414.0220, 28.89917
415.2160, 38.33301
416.4100, 39.69775
417.6030, 47.08545
418.7970, 43.62817
419.9900, 4.252441
421.1830, 33.19043
422.3760, 27.50488
423.5690, 19.67212
424.7610, 92.32202
425.9540, 32.73315
427.1460, 65.97363
428.3380, 6.282227
429.5300, 65.40161
430.7220, 8.578369
431.9140, 29.67749
433.1050, 29.16089
434.2970, 17.92871
435.4880, 22.19507
436.6790, 27.95410
437.8700, 17.98193
439.0610, 39.13794
440.2510, 14.51514
441.4420, 73.51050
442.6320, 15.54810
443.8220, 65.85229
445.0120, 1.912598
446.2020, 3.929443
447.3910, 35.97461
448.5810, 36.03760
449.7700, 39.23096
450.9600, 40.28345
452.1490, 14.36182
453.3370, 12.57495
454.5260, 75.64209
455.7150, 48.55151
456.9030, 38.47510
458.0910, 66.53345
459.2800, 28.45923
460.4670, 24.73486
461.6550, 33.05249
462.8430, 61.68726
464.0300, 54.71802
465.2180, 1.587158
466.4050, 72.45850
467.5920, 46.44409
468.7790, 19.63599
469.9650, 13.34644
471.1520, 28.10303
472.3380, 24.10596
473.5250, 72.88159
474.7110, 29.74194
475.8970, 69.38208
477.0820, 27.12012
478.2680, 87.95068
479.4540, 44.75000
480.6390, 28.69116
481.8240, 49.44263
483.0090, 31.08667
484.1940, 15.27637
485.3780, 67.66675
486.5630, 19.41626
487.7470, 8.335938
488.9320, 65.20679
490.1160, 58.78809
491.3000, 84.47607
492.4830, 11.27295
493.6670, 68.81689
494.8500, 38.44214
496.0340, 40.87305
497.2170, 127.4343
498.4000, 5.479004
499.5820, 127.9114
500.7650, 87.60962
501.9480, 28.15430
503.1300, 74.43945
504.3120, 73.86133
505.4940, 17.24365
506.6760, 48.57617
507.8580, 61.01587
509.0390, 39.42334
510.2210, 87.03760
511.4020, 66.48608
512.5830, 56.76392
513.7640, 94.25586
514.9450, 37.93433
516.1250, 62.26294
517.3060, 30.67554
518.4860, 12.30273
519.6660, 40.28467
520.8460, 53.52148
522.0260, 43.88037
523.2060, 39.92896
524.3850, 14.30811
525.5650, 25.94653
526.7440, 57.86841
527.9230, 48.99731
529.1020, 30.32690
530.2810, 58.57471
531.4590, 41.64600
532.6380, 13.63916
533.8160, 63.98486
534.9940, 64.94360
536.1720, 59.21655
537.3500, 12.26440
538.5270, 63.29785
539.7050, 39.25684
540.8820, 21.49487
542.0590, 39.59033
543.2360, 28.68042
544.4130, 2.500732
545.5900, 31.23438
546.7660, 26.80298
547.9430, 76.56104
549.1190, 52.51880
550.2950, 90.42163
551.4710, 99.27417
552.6470, 117.9099
553.8220, 62.72998
554.9980, 90.87817
556.1730, 32.63867
557.3480, 47.42407
558.5230, 40.20044
559.6980, 20.99365
560.8730, 115.7625
562.0470, 19.77637
563.2220, 48.47192
564.3960, 82.12939
565.5700, 0.2600100
566.7440, 19.46533
567.9170, 58.09619
569.0910, 11.20630
570.2640, 107.2097
571.4380, 66.87305
572.6110, 119.3149
573.7840, 65.84937
574.9570, 74.09888
576.1290, 29.55811
577.3020, 4.980713
578.4740, 114.4827
579.6460, 48.88940
580.8180, 2.368408
581.9900, 122.7275
583.1620, 70.25269
584.3330, 6.586426
585.5040, 60.08276
586.6760, 67.11084
587.8470, 57.21143
589.0180, 50.57080
590.1880, 16.91553
591.3590, 48.25684
592.5290, 39.58716
593.7000, 6.793213
594.8700, 36.97412
596.0400, 72.34180
597.2090, 66.64111
598.3790, 31.88428
599.5490, 61.20947
600.7180, 9.620605
601.8870, 106.5239
603.0560, 24.32837
604.2250, 19.90259
605.3940, 56.08691
606.5620, 51.76221
607.7300, 21.96240
608.8990, 35.21094
610.0670, 12.51221
611.2350, 63.54590
612.4020, 3.521484
613.5700, 53.50366
614.7370, 34.88525
615.9050, 139.0796
617.0720, 59.32764
618.2390, 34.50830
619.4060, 39.70874
620.5720, 16.35376
621.7390, 45.54053
622.9050, 68.45190
624.0710, 67.42188
625.2370, 1.182373
626.4030, 30.82837
627.5690, 1.148438
628.7340, 0.6157230
629.9000, 62.77930
631.0650, 35.07959
632.2300, 16.82520
633.3950, 63.86255
634.5600, 42.03662
635.7240, 104.1304
636.8890, 52.21143
638.0530, 6.473633
639.2170, 85.37256
640.3810, 11.62378
641.5450, 43.54443
642.7080, 111.3845
643.8720, 73.22656
645.0350, 80.06787
646.1980, 113.9680
647.3610, 60.80688
648.5240, 66.63257
649.6870, 14.55811
650.8490, 48.61768
652.0120, 95.57666
653.1740, 9.625977
654.3360, 2.626221
655.4980, 70.17114
656.6600, 47.95923
657.8210, 0.3710940
658.9830, 7.056885
660.1440, 83.58081
661.3050, 52.38330
662.4660, 85.06787
663.6270, 23.81641
664.7870, 5.075684
665.9480, 91.69604
667.1080, 103.3594
668.2680, 41.74585
669.4280, 58.39502
670.5880, 84.74121
671.7480, 104.0583
672.9070, 72.31470
674.0670, 91.89185
675.2260, 25.32202
676.3850, 151.9058
677.5440, 137.2373
678.7030, 97.87354
679.8610, 40.43799
681.0200, 58.94800
682.1780, 67.31372
683.3360, 120.5410
684.4940, 110.4963
685.6520, 122.9980
686.8090, 105.7061
687.9670, 86.06104
689.1240, 154.6926
690.2810, 154.0322
691.4380, 138.5146
692.5950, 87.92773
693.7520, 232.2913
694.9080, 254.7756
696.0650, 193.0930
697.2210, 306.3718
698.3770, 221.8010
699.5330, 235.2239
700.6880, 204.4119
701.8440, 208.6523
702.9990, 364.9712
704.1550, 303.1533
705.3100, 409.9072
706.4650, 446.9932
707.6190, 477.9734
708.7740, 518.2739
709.9290, 515.3420
711.0830, 612.5918
712.2370, 712.9019
713.3910, 894.1584
714.5450, 1000.708
715.6980, 1223.464
716.8520, 1435.883
718.0050, 1654.735
719.1580, 1989.432
720.3110, 2396.136
721.4640, 2830.941
722.6170, 3090.785
723.7700, 3273.608
724.9220, 3351.403
726.0740, 3314.441
727.2260, 3093.412
728.3780, 2764.286
729.5300, 2194.881
730.6810, 1829.536
731.8330, 1403.214
732.9840, 1093.527
734.1350, 930.9729
735.2860, 647.5349
736.4370, 533.4561
737.5880, 393.8699
738.7380, 395.6594
739.8880, 339.2166
741.0390, 302.7556
742.1890, 251.4187
743.3380, 143.6570
744.4880, 205.0288
745.6380, 162.3679
746.7870, 67.56543
747.9360, 118.7993
749.0850, 76.93433
750.2340, 162.5588
751.3830, 93.61377
752.5310, 29.83057
753.6800, 41.75122
754.8280, 64.31836
755.9760, 35.93604
757.1240, 69.25562
758.2720, 116.5745
759.4190, 90.74341
760.5670, 118.0898
761.7140, 75.08252
762.8610, 111.1116
764.0080, 103.3193
765.1550, 48.31519
766.3020, 79.26660
767.4480, 52.08594
768.5950, 11.25854
769.7410, 68.44653
770.8870, 89.59302
772.0330, 34.95020
773.1780, 20.12671
774.3240, 22.45605
775.4690, 4.577148
776.6140, 98.13330
777.7590, 13.68774
778.9040, 79.22656
780.0490, 26.68018
781.1940, 90.94727
782.3380, 87.22974
783.4820, 15.62622
784.6260, 67.68457
785.7700, 79.52271
786.9140, 30.18359
788.0580, 31.76782
789.2010, 44.06030
790.3450, 13.79834
791.4880, 100.7808
792.6310, 44.25830
793.7730, 67.01074
794.9160, 148.5820
796.0590, 55.75732
797.2010, 6.269043
798.3430, 36.31982
799.4850, 50.66455
800.6270, 28.18652
801.7690, 112.7139
802.9100, 35.91406
804.0520, 59.46729
805.1930, 113.1123
806.3340, 27.62402
807.4750, 145.1304
808.6160, 110.8774
809.7560, 3.584961
810.8970, 68.68896
812.0370, 101.2080
813.1770, 54.33643
814.3170, 61.72217
815.4570, 37.95459
816.5960, 27.43018
817.7360, 19.79932
818.8750, 67.00293
820.0140, 85.10449
821.1530, 89.33984
822.2920, 17.47461
823.4310, 3.944336
824.5690, 88.14160
825.7070, 9.275879
826.8460, 89.65039
827.9840, 51.65869
829.1220, 64.99023
830.2590, 53.14697
831.3970, 43.15137
832.5340, 31.37500
833.6710, 51.54199
834.8080, 13.79297
835.9450, 9.790039
837.0820, 100.0635
838.2190, 22.86865
839.3550, 28.96924
840.4910, 90.83398
841.6270, 71.84668
842.7630, 43.70508
843.8990, 103.5288
845.0350, 14.62646
846.1700, 101.4097
847.3060, 38.00830
848.4410, 35.69971
849.5760, 27.25195
850.7100, 6.031738
851.8450, 106.6021
852.9800, 63.40283
854.1140, 169.9502
855.2480, 160.6353
856.3820, 67.42139
857.5160, 145.1367
858.6500, 102.8555
859.7830, 62.62939
860.9170, 70.97266
862.0500, 41.56152
863.1830, 44.10352
864.3160, 56.37988
865.4480, 84.77441
866.5810, 98.08105
867.7130, 79.25684
868.8460, 141.7661
869.9780, 124.3535
871.1100, 138.7324
872.2410, 32.26318
873.3730, 114.6636
874.5050, 50.14990
875.6360, 149.4634
876.7670, 162.7812
877.8980, 197.8228
879.0290, 255.8828
880.1590, 391.0293
881.2900, 365.0205
882.4200, 374.3965
883.5500, 329.2510
884.6800, 207.1860
885.8100, 56.99414
886.9400, 218.8906
888.0690, 54.72705
889.1990, 17.31055
890.3280, 65.88477
891.4570, 23.53320
892.5860, 65.03906
893.7140, 65.66455
894.8430, 60.41504
895.9710, 93.09766
897.1000, 50.18555
898.2280, 64.65430
899.3560, 19.95117
900.4830, 109.5029
901.6110, 71.81299
902.7380, 107.2393
903.8660, 84.53516
904.9930, 47.64209
906.1200, 23.97998
907.2460, 26.39307
908.3730, 42.55615
909.5000, 44.63477
910.6260, 55.40674
911.7520, 56.93945
912.8780, 65.98535
914.0040, 45.91602
915.1290, 30.14355
916.2550, 0.7827150
917.3800, 4.446777
918.5050, 14.36182
919.6300, 72.50635
920.7550, 75.48584
921.8800, 118.5088
923.0040, 79.30811
924.1290, 16.90283
925.2530, 106.8999
926.3770, 15.46191
927.5010, 39.52637
928.6250, 67.26025
929.7480, 83.07275
930.8720, 168.0947
931.9950, 74.82715
933.1180, 95.58936
934.2410, 145.2075
935.3640, 19.86914
936.4860, 116.4165
937.6090, 87.30029
938.7310, 40.15283
939.8530, 59.44043
940.9750, 35.24072
942.0970, 47.66455
943.2180, 11.47461
944.3400, 65.20850
945.4610, 98.84082
946.5820, 54.36426
947.7030, 76.00391
948.8240, 78.43066
949.9450, 109.8691
951.0650, 46.19141
952.1860, 11.45117
953.3060, 63.65527
954.4260, 91.04443
955.5460, 82.49170
956.6650, 101.6216
957.7850, 16.05566
958.9040, 74.91650
960.0230, 74.30664
961.1420, 21.28516
962.2610, 103.6440
963.3800, 20.82959
964.4990, 48.06152
965.6170, 88.22656
966.7350, 30.33301
967.8530, 38.37109
968.9710, 15.52490
970.0890, 18.64160
971.2070, 93.12695
972.3240, 99.35107
973.4410, 23.23682
974.5580, 74.12939
975.6750, 33.26416
976.7920, 65.30273
977.9090, 68.20654
979.0250, 17.65479
980.1410, 68.04785
981.2580, 110.1299
982.3740, 78.94092
983.4890, 131.7266
984.6050, 46.46387
985.7200, 89.92627
986.8360, 29.96240
987.9510, 85.80029
989.0660, 47.89355
990.1810, 18.97021
991.2950, 30.77539
992.4100, 24.81787
993.5240, 6.736816
994.6390, 114.4702
995.7530, 40.22559
996.8660, 45.84180
997.9800, 127.4521
999.0940, 70.10205
1000.207, 95.85547
1001.320, 102.6523
1002.433, 27.35693
1003.546, 4.249023
1004.659, 49.10791
1005.772, 7.965820
1006.884, 33.53125
1007.996, 8.353027
1009.108, 44.51074
1010.220, 40.75537
1011.332, 103.6011
1012.444, 94.36719
1013.555, 69.13184
1014.666, 132.8809
1015.777, 4.617676
1016.888, 89.41016
1017.999, 104.1265
1019.110, 167.2056
1020.220, 134.6147
1021.331, 194.3042
1022.441, 197.6792
1023.551, 166.9312
1024.661, 248.7451
1025.770, 202.9712
1026.880, 223.3940
1027.989, 226.1704
1029.098, 128.4810
1030.207, 217.1323
1031.316, 135.1216
1032.425, 138.0249
1033.533, 175.4634
1034.642, 202.8252
1035.750, 156.4722
1036.858, 228.3291
1037.966, 328.2153
1039.073, 211.4292
1040.181, 249.8081
1041.288, 285.9316
1042.396, 214.1118
1043.503, 221.2910
1044.610, 259.5063
1045.716, 280.7173
1046.823, 191.2554
1047.929, 353.7852
1049.036, 253.8721
1050.142, 179.0103
1051.248, 372.9946
1052.353, 380.0034
1053.459, 348.3975
1054.564, 433.9521
1055.670, 370.5137
1056.775, 430.1597
1057.880, 461.7954
1058.985, 540.4785
1060.089, 569.6099
1061.194, 670.6387
1062.298, 733.5239
1063.402, 814.8252
1064.506, 987.4478
1065.610, 1129.702
1066.713, 1185.921
1067.817, 1335.223
1068.920, 1466.393
1070.023, 1782.672
1071.126, 1870.005
1072.229, 2172.913
1073.332, 2360.275
1074.435, 2601.300
1075.537, 2784.410
1076.639, 3042.619
1077.741, 3284.925
1078.843, 3552.274
1079.945, 3686.212
1081.046, 3943.229
1082.148, 4118.247
1083.249, 4553.437
1084.350, 5053.300
1085.451, 5556.381
1086.551, 6220.300
1087.652, 7366.326
1088.752, 8643.309
1089.853, 10716.58
1090.953, 13825.26
1092.053, 18412.64
1093.152, 24623.56
1094.252, 33099.28
1095.351, 43014.85
1096.451, 53262.78
1097.550, 58390.74
1098.649, 58377.70
1099.748, 57277.38
1100.846, 47800.08
1101.945, 35704.69
1103.043, 24603.07
1104.141, 16453.08
1105.239, 11053.18
1106.337, 7541.890
1107.434, 5469.847
1108.532, 4208.572
1109.629, 3185.467
1110.726, 2497.338
1111.823, 2113.053
1112.920, 1746.965
1114.017, 1391.239
1115.113, 1266.097
1116.210, 1164.299
1117.306, 948.9199
1118.402, 901.7168
1119.498, 743.3232
1120.593, 674.1094
1121.689, 689.7280
1122.784, 546.4165
1123.879, 408.9521
1124.974, 396.4458
1126.069, 483.0552
1127.164, 481.1724
1128.259, 296.9595
1129.353, 256.5146
1130.447, 165.7290
1131.541, 227.5967
1132.635, 218.8398
1133.729, 194.6021
1134.822, 198.2026
1135.916, 166.5332
1137.009, 138.1030
1138.102, 58.39941
1139.195, 76.54883
1140.288, 0.1396480
1141.380, 12.46143
1142.473, 73.33447
1143.565, 172.9932
1144.657, 114.3672
1145.749, 231.8682
1146.841, 128.7603
1147.932, 74.08691
1149.024, 185.9893
1150.115, 3.769531
1151.206, 151.4805
1152.297, 106.0493
1153.388, 192.2188
1154.479, 90.01514
1155.569, 1.589355
1156.659, 189.5454
1157.750, 97.86670
1158.839, 111.3711
1159.929, 24.03906
1161.019, 62.83447
1162.108, 8.484863
1163.198, 51.63428
1164.287, 35.65527
1165.376, 25.88037
1166.465, 17.10693
1167.553, 15.40283
1168.642, 36.19971
1169.730, 10.43311
1170.818, 44.91113
1171.906, 140.7505
1172.994, 165.0718
1174.082, 180.8540
1175.170, 110.5522
1176.257, 165.8394
1177.344, 41.65527
1178.431, 22.91748
1179.518, 145.7227
1180.605, 5.169434
1181.691, 101.5781
1182.778, 67.81641
1183.864, 58.60645
1184.950, 37.05615
1186.036, 76.25391
1187.122, 14.43652
1188.207, 134.6035
1189.292, 28.76562
1190.378, 13.91211
1191.463, 125.1260
1192.548, 3.749023
1193.632, 87.35840
1194.717, 43.45020
1195.801, 85.52734
1196.886, 157.8320
1197.970, 184.8828
1199.054, 45.91992
1200.137, 127.3477
1201.221, 70.39453
1202.305, 3.608398
1203.388, 31.38184
1204.471, 85.35645
1205.554, 75.31934
1206.637, 13.62109
1207.719, 41.72168
1208.802, 64.69922
1209.884, 133.9551
1210.966, 118.7520
1212.048, 151.7275
1213.130, 105.7188
1214.212, 125.4756
1215.293, 29.41699
1216.374, 141.2461
1217.456, 158.2168
1218.536, 180.0205
1219.617, 64.81055
1220.698, 140.1699
1221.778, 10.93457
1222.859, 128.6816
1223.939, 108.6865
1225.019, 2.409180
1226.099, 25.63477
1227.178, 74.00684
1228.258, 117.6670
1229.337, 136.4473
1230.417, 157.7734
1231.496, 173.7705
1232.574, 139.3936
1233.653, 100.0117
1234.732, 85.61914
1235.810, 98.42480
1236.888, 89.15430
1237.966, 101.7158
1239.044, 91.26562
1240.122, 97.80176
1241.199, 62.32520
1242.277, 83.83887
1243.354, 25.66113
1244.431, 103.8037
1245.508, 47.85645
1246.585, 148.2900
1247.661, 149.7119
1248.738, 108.3594
1249.814, 180.8525
1250.890, 154.4033
1251.966, 83.05762
1253.042, 129.5811
1254.117, 151.9238
1255.193, 83.25391
1256.268, 57.58496
1257.343, 73.98828
1258.418, 150.4346
1259.493, 31.71191
1260.567, 81.40918
1261.642, 18.65332
1262.716, 159.8789
1263.790, 96.09082
1264.864, 157.2871
1265.938, 127.4727
1267.011, 145.6445
1268.085, 6.678711
1269.158, 134.9170
1270.231, 80.77148
1271.304, 44.14160
1272.377, 153.3965
1273.450, 26.43359
1274.522, 196.6133
1275.594, 72.95801
1276.666, 109.0430
1277.738, 19.70508
1278.810, 92.26660
1279.882, 32.15430
1280.953, 162.7607
1282.025, 10.21191
1283.096, 78.24609
1284.167, 129.0840
1285.238, 34.53418
1286.308, 58.63477
1287.379, 138.1270
1288.449, 95.88867
1289.519, 62.30957
1290.589, 93.87500
1291.659, 8.801758
1292.729, 16.66699
1293.798, 139.0488
1294.868, 131.8555
1295.937, 36.19238
1297.006, 140.4414
1298.075, 38.46094
1299.143, 170.1182
1300.212, 8.595703
1301.280, 137.9238
1302.348, 36.42773
1303.416, 21.91602
1304.484, 157.3838
1305.552, 25.16016
1306.620, 206.9688
1307.687, 11.00391
1308.754, 82.38965
1309.821, 88.31543
1310.888, 126.6279
1311.955, 7.784180
1313.021, 75.88281
1314.088, 139.8730
1315.154, 139.0156
1316.220, 219.8848
1317.286, 232.1484
1318.352, 217.5967
1319.417, 113.8691
1320.483, 172.1006
1321.548, 151.5674
1322.613, 137.6582
1323.678, 175.5479
1324.743, 74.59863
1325.807, 228.7578
1326.872, 206.9023
1327.936, 35.74707
1329.000, 122.8672
1330.064, 190.7861
1331.128, 144.0996
1332.191, 140.8281
1333.255, 209.7705
1334.318, 46.65820
1335.381, 91.27344
1336.444, 117.0654
1337.507, 46.86523
1338.569, 146.8682
1339.632, 134.9961
1340.694, 101.0420
1341.756, 182.9492
1342.818, 132.3711
1343.880, 226.9336
1344.941, 93.85254
1346.003, 258.7598
1347.064, 154.6543
1348.125, 7.313477
1349.186, 202.1797
1350.247, 245.5801
1351.308, 65.38672
1352.368, 193.1426
1353.428, 69.62598
1354.489, 18.87695
1355.549, 219.7217
1356.608, 133.4941
1357.668, 159.4971
1358.727, 79.18652
1359.787, 159.2393
1360.846, 188.9990
1361.905, 135.2188
1362.964, 77.69922
1364.022, 93.21875
1365.081, 151.7588
1366.139, 224.2637
1367.197, 250.7070
1368.255, 237.6445
1369.313, 214.8242
1370.371, 177.3965
1371.428, 192.8408
1372.486, 2.985352
1373.543, 174.1709
1374.600, 178.7637
1375.657, 68.48438
1376.713, 85.87891
1377.770, 79.68359
1378.826, 62.10938
1379.882, 84.37109
1380.938, 172.8320
1381.994, 227.3213
1383.050, 120.8096
1384.106, 22.86816
1385.161, 87.16797
1386.216, 174.8516
1387.271, 12.23926
1388.326, 218.9297
1389.381, 167.7373
1390.435, 204.0381
1391.490, 247.0645
1392.544, 160.7764
1393.598, 223.0137
1394.652, 130.2734
1395.705, 86.87598
1396.759, 96.10742
1397.812, 159.1025
1398.866, 68.29980
1399.919, 100.7881
1400.972, 143.5098
1402.024, 45.36426
1403.077, 103.3496
1404.129, 42.58008
1405.181, 200.5459
1406.233, 171.4746
1407.285, 203.4502
1408.337, 0.5507810
1409.389, 77.05078
1410.440, 112.8799
1411.491, 258.9443
1412.542, 115.7100
1413.593, 226.9541
1414.644, 123.9941
1415.695, 123.8516
1416.745, 183.5576
1417.795, 173.6416
1418.845, 144.9443
1419.895, 153.3730
1420.945, 144.3398
1421.995, 123.4141
1423.044, 136.1846
1424.093, 150.9580
1425.142, 174.4990
1426.191, 183.4170
1427.240, 196.9443
1428.289, 257.7070
1429.337, 225.1885
1430.385, 211.5977
1431.433, 238.4629
1432.481, 329.7793
1433.529, 338.6299
1434.577, 422.9072
1435.624, 602.8457
1436.672, 633.3125
1437.719, 1016.100
1438.766, 1318.325
1439.812, 1555.136
1440.859, 1948.947
1441.905, 1975.796
1442.952, 1906.617
1443.998, 1764.433
1445.044, 1336.234
1446.090, 1157.891
1447.135, 1010.705
1448.181, 624.8955
1449.226, 582.4766
1450.271, 426.5342
1451.316, 436.8164
1452.361, 401.6357
1453.405, 346.8926
1454.450, 269.1426
1455.494, 153.8340
1456.538, 126.6240
1457.582, 218.8311
1458.626, 299.8887
1459.670, 173.0635
1460.713, 246.9658
1461.757, 82.55566
1462.800, 213.6865
1463.843, 126.5010
1464.886, 63.08008
1465.928, 80.17773
1466.971, 171.0225
1468.013, 0.9345700
1469.055, 129.8340
1470.097, 193.6680
1471.139, 170.6670
1472.181, 143.6543
1473.222, 97.64355
1474.263, 157.8828
1475.305, 102.5537
1476.346, 186.4756
1477.386, 88.77832
1478.427, 30.61816
1479.468, 272.6494
1480.508, 73.21582
1481.548, 69.03809
1482.588, 14.77344
1483.628, 205.4951
1484.668, 44.79883
1485.707, 63.54102
1486.747, 12.09180
1487.786, 96.46582
1488.825, 203.5908
1489.864, 67.78906
1490.902, 289.4814
1491.941, 99.11328
1492.979, 2.797852
1494.017, 82.51367
1495.055, 38.25293
1496.093, 138.9902
1497.131, 91.74707
1498.168, 112.5000
1499.206, 62.25098
1500.243, 29.04590
1501.280, 29.85938
1502.317, 55.67871
1503.354, 91.52051
1504.390, 74.40234
1505.426, 70.93359
1506.463, 63.12988
1507.499, 13.01172
1508.535, 24.89355
1509.570, 19.22461
1510.606, 6.625000
1511.641, 185.4951
1512.676, 69.36719
1513.711, 298.2324
1514.746, 87.08691
1515.781, 218.9404
1516.816, 8.782227
1517.850, 239.4551
1518.884, 148.2881
1519.918, 68.64062
1520.952, 148.3662
1521.986, 146.2012
1523.019, 7.030273
1524.053, 21.85742
1525.086, 22.84082
1526.119, 10.36523
1527.152, 73.04004
1528.185, 48.14844
1529.217, 42.60254
1530.250, 164.4189
1531.282, 196.4033
1532.314, 111.1895
1533.346, 81.16016
1534.377, 156.5312
1535.409, 80.56738
1536.440, 56.28906
1537.472, 351.7129
1538.503, 175.2754
1539.534, 169.8711
1540.564, 230.3369
1541.595, 24.63086
1542.625, 143.0439
1543.656, 108.4668
1544.686, 162.1680
1545.716, 62.36133
1546.745, 82.61230
1547.775, 218.2529
1548.804, 96.62793
1549.834, 128.0908
1550.863, 148.9326
1551.892, 152.3389
1552.920, 169.7305
1553.949, 178.5146
1554.977, 179.3135
1556.006, 194.4434
1557.034, 184.6865
1558.062, 190.9951
1559.089, 201.1797
1560.117, 77.19531
1561.144, 164.6211
1562.172, 157.7119
1563.199, 67.08008
1564.226, 170.6943
1565.252, 124.6533
1566.279, 202.3037
1567.305, 254.5303
1568.332, 189.9414
1569.358, 3.485352
1570.384, 201.8252
1571.409, 99.31348
1572.435, 0.0000000E+00
##END=



