##NAMES=Dravite
##RRUFFID=R050059
##IDEAL CHEMISTRY=NaMg_3_Al_6_(Si_6_O_18_)(BO_3_)_3_(OH)_3_OH
##LOCALITY=Nepal
##OWNER=RRUFF
##SOURCE=Rock Currier
##DESCRIPTION=Dark brown single crystal
##STATUS=The identification of this mineral has been confirmed by X-ray diffraction and chemical analysis
##URL=rruff.info/R050059
##MEASURED CHEMISTRY=(Na_0.79_[box]_0.16_Ca_0.05_)_Σ=1_(Mg_2.44_Al_0.29_[box]_0.14_Fe^2+^_0.08_Ti_0.05_)_Σ=3_Al_6.00_(BO_3_)_3_Si_6.00_O_18_(OH)_4_ ; H_2_O assumed ideal from stoichiometry; B_2_O_3_ estimated by difference
##PIN_ID=L00191
##ORIENTATION=Laser parallel to -a* (-1 0 0). Fiducial mark perpendicular to laser is parallel to -c [0 0 -1]
103.206, 0.000
104.600, 1.236
105.994, 3.774
107.387, 12.131
108.781, 202.073
110.174, 105.194
111.566, 278.099
112.959, 352.733
114.351, 386.440
115.744, 422.632
117.136, 454.688
118.527, 368.461
119.919, 439.168
121.310, 481.817
122.701, 489.423
124.092, 687.941
125.482, 553.519
126.873, 621.475
128.263, 607.955
129.653, 803.780
131.042, 898.747
132.432, 957.927
133.821, 1110.675
135.210, 1160.766
136.599, 1465.350
137.987, 1621.387
139.376, 1606.722
140.764, 1698.579
142.152, 1556.347
143.539, 1534.377
144.927, 1386.868
146.314, 1305.814
147.701, 1116.057
149.088, 984.600
150.474, 940.444
151.861, 717.584
153.247, 730.013
154.633, 464.719
156.018, 485.689
157.404, 310.910
158.789, 223.372
160.174, 155.060
161.559, 69.951
162.943, 24.141
164.327, 19.751
165.711, 40.375
167.095, 62.850
168.479, 48.177
169.862, 46.352
171.246, 147.373
172.628, 66.239
174.011, 92.578
175.394, 56.668
176.776, 33.857
178.158, 23.419
179.540, 52.200
180.922, 112.104
182.303, 47.831
183.684, 39.364
185.065, 74.309
186.446, 203.220
187.826, 248.432
189.207, 474.934
190.587, 531.707
191.967, 833.731
193.346, 931.985
194.726, 1234.453
196.105, 1686.112
197.484, 1984.943
198.862, 2622.931
200.241, 2908.064
201.619, 3763.326
202.997, 4364.695
204.375, 5588.145
205.753, 6857.661
207.130, 8329.236
208.507, 11000.869
209.884, 12982.565
211.261, 16644.330
212.638, 19116.162
214.014, 22628.035
215.390, 25719.926
216.766, 26081.762
218.141, 27483.463
219.517, 25275.055
220.892, 23916.477
222.267, 21357.791
223.642, 18739.088
225.016, 17460.340
226.391, 15281.566
227.765, 15222.878
229.139, 14184.306
230.512, 14495.855
231.886, 14707.523
233.259, 14419.311
234.632, 15681.218
236.005, 15323.241
237.377, 16755.385
238.749, 16827.641
240.122, 17940.018
241.493, 18922.510
242.865, 18415.119
244.237, 19707.842
245.608, 18270.686
246.979, 18543.641
248.350, 17516.715
249.720, 16499.898
251.090, 15523.199
252.461, 13656.615
253.830, 13000.163
255.200, 11353.863
256.570, 10627.701
257.939, 9541.812
259.308, 8656.236
260.677, 8360.964
262.045, 7486.001
263.414, 7561.348
264.782, 6827.000
266.150, 6532.927
267.517, 6369.076
268.885, 5958.468
270.252, 5827.967
271.619, 5267.491
272.986, 5183.960
274.353, 4505.361
275.719, 4062.656
277.085, 3780.835
278.451, 3010.875
279.817, 2916.765
281.182, 2309.510
282.548, 2098.121
283.913, 1805.585
285.278, 1506.868
286.642, 1466.943
288.007, 1138.814
289.371, 1182.499
290.735, 884.032
292.099, 842.443
293.462, 805.757
294.826, 654.980
296.189, 799.083
297.552, 673.000
298.914, 872.598
300.277, 752.803
301.639, 825.691
303.001, 948.174
304.363, 941.389
305.724, 1270.490
307.086, 1491.393
308.447, 2160.220
309.808, 2743.126
311.168, 3507.127
312.529, 4486.225
313.889, 4669.414
315.249, 4812.697
316.609, 3964.072
317.969, 3123.536
319.328, 2383.775
320.687, 1590.254
322.046, 1379.087
323.405, 982.390
324.764, 924.080
326.122, 777.312
327.480, 658.198
328.838, 838.938
330.196, 726.825
331.553, 864.736
332.910, 814.000
334.267, 885.805
335.624, 1102.691
336.981, 936.085
338.337, 1331.237
339.693, 1305.050
341.049, 1620.696
342.405, 1751.394
343.760, 1993.677
345.116, 2421.586
346.471, 2573.910
347.826, 3266.139
349.180, 3489.684
350.535, 4277.003
351.889, 4920.521
353.243, 5528.114
354.597, 6855.780
355.950, 7463.521
357.304, 9231.331
358.657, 10549.210
360.010, 12887.165
361.362, 15755.185
362.715, 18243.275
364.067, 23491.438
365.419, 27059.662
366.771, 32827.957
368.123, 36966.316
369.474, 38904.746
370.825, 41463.246
372.176, 37701.820
373.527, 36060.449
374.877, 30799.150
376.228, 26367.916
377.578, 22886.748
378.928, 18255.648
380.277, 16334.622
381.627, 13093.655
382.976, 11622.760
384.325, 10211.936
385.674, 8621.179
387.023, 8420.495
388.371, 6939.882
389.719, 6779.340
391.067, 6008.871
392.415, 5558.471
393.762, 5498.143
395.110, 4816.884
396.457, 5057.696
397.804, 4623.578
399.150, 4547.529
400.497, 4466.550
401.843, 4261.902
403.189, 4724.478
404.535, 4289.703
405.881, 4534.998
407.226, 4434.991
408.571, 4083.954
409.916, 4274.886
411.261, 3586.976
412.605, 3564.001
413.950, 3007.312
415.294, 2768.644
416.638, 2574.507
417.981, 2022.479
419.325, 2130.398
420.668, 1654.550
422.011, 1589.477
423.354, 1380.997
424.697, 1076.347
426.039, 1147.907
427.381, 780.568
428.723, 949.667
430.065, 844.053
431.406, 764.289
432.748, 852.045
434.089, 699.522
435.430, 926.148
436.770, 733.696
438.111, 779.542
439.451, 897.163
440.791, 684.822
442.131, 748.518
443.471, 512.254
444.810, 632.029
446.149, 629.844
447.488, 456.700
448.827, 559.598
450.166, 359.539
451.504, 462.523
452.842, 410.553
454.180, 280.626
455.518, 449.746
456.855, 319.912
458.193, 504.125
459.530, 405.385
460.867, 407.693
462.203, 555.052
463.540, 447.464
464.876, 547.929
466.212, 443.450
467.548, 610.026
468.883, 667.659
470.219, 652.349
471.554, 935.095
472.889, 668.898
474.224, 922.757
475.558, 941.671
476.892, 994.641
478.227, 1157.665
479.561, 1050.744
480.894, 1382.878
482.228, 1381.066
483.561, 1463.312
484.894, 1773.618
486.227, 1718.986
487.559, 2115.421
488.892, 2165.933
490.224, 2500.526
491.556, 2639.209
492.888, 2790.982
494.220, 3246.843
495.551, 3091.786
496.882, 3423.838
498.213, 3507.976
499.544, 3348.204
500.874, 3857.512
502.205, 3465.894
503.535, 3870.342
504.865, 3626.863
506.194, 3534.473
507.524, 3548.150
508.853, 3220.895
510.182, 3348.688
511.511, 2959.529
512.840, 2966.415
514.168, 2920.346
515.496, 2542.321
516.824, 2614.342
518.152, 2168.405
519.480, 2078.513
520.807, 1866.664
522.134, 1444.857
523.461, 1504.094
524.788, 1175.373
526.114, 1227.694
527.441, 1127.056
528.767, 1035.460
530.093, 1304.904
531.418, 1081.390
532.744, 1406.916
534.069, 1335.481
535.394, 1269.087
536.719, 1503.731
538.044, 1401.416
539.368, 1532.141
540.693, 1279.914
542.017, 1237.729
543.340, 1287.587
544.664, 988.501
545.987, 1039.460
547.311, 855.474
548.634, 778.562
549.956, 743.704
551.279, 501.918
552.601, 515.184
553.923, 293.518
555.245, 312.909
556.567, 141.353
557.889, 61.872
559.210, 151.441
560.531, 76.927
561.852, 33.260
563.173, 150.454
564.493, 329.241
565.813, 100.908
567.133, 231.050
568.453, 114.222
569.773, 246.398
571.092, 242.621
572.412, 133.890
573.731, 295.176
575.049, 158.533
576.368, 249.916
577.686, 228.359
579.005, 156.869
580.323, 293.413
581.640, 122.059
582.958, 227.735
584.275, 174.489
585.593, 79.283
586.909, 199.090
588.226, 5.958
589.543, 65.812
590.859, 33.675
592.175, 63.465
593.491, 49.369
594.807, 191.791
596.122, 15.977
597.438, 179.179
598.753, 273.407
600.068, 212.659
601.382, 394.935
602.697, 294.233
604.011, 443.553
605.325, 520.896
606.639, 467.259
607.952, 757.643
609.266, 626.048
610.579, 746.473
611.892, 888.918
613.205, 846.383
614.518, 1080.866
615.830, 959.369
617.142, 1104.891
618.454, 1139.431
619.766, 1032.989
621.078, 1364.565
622.389, 1226.158
623.700, 1503.768
625.011, 1637.395
626.322, 1660.038
627.632, 2132.697
628.943, 2204.372
630.253, 2885.062
631.563, 3501.767
632.872, 4056.486
634.182, 5246.220
635.491, 5595.966
636.800, 6651.728
638.109, 6608.500
639.418, 6395.288
640.726, 6482.086
642.035, 5752.898
643.343, 5928.719
644.651, 5631.554
645.958, 5693.398
647.266, 6476.251
648.573, 6096.117
649.880, 7079.989
651.187, 7276.873
652.494, 7443.764
653.800, 8180.663
655.106, 7487.567
656.412, 8134.480
657.718, 7721.399
659.024, 7528.324
660.329, 7705.253
661.634, 7072.188
662.939, 7769.126
664.244, 7626.069
665.549, 7793.016
666.853, 8649.966
668.157, 8486.915
669.461, 9713.869
670.765, 9980.825
672.069, 10727.782
673.372, 12264.742
674.675, 11801.701
675.978, 13108.660
677.281, 12735.622
678.583, 12572.583
679.886, 12729.541
681.188, 11416.503
682.490, 11783.463
683.792, 10760.419
685.093, 10407.374
686.394, 10374.329
687.696, 9391.279
688.997, 9998.229
690.297, 9435.174
691.598, 9502.118
692.898, 10199.057
694.198, 9906.285
695.498, 11293.420
696.798, 11602.547
698.097, 12410.119
699.397, 14088.244
700.696, 13759.118
701.995, 15787.617
703.293, 15448.502
704.592, 15184.002
705.890, 15404.904
707.188, 13119.928
708.486, 12620.357
709.784, 10744.729
711.081, 9126.584
712.378, 8117.491
713.675, 6437.667
714.972, 5891.196
716.269, 4782.553
717.565, 4115.473
718.862, 3659.185
720.158, 2970.335
721.453, 2811.494
722.749, 2463.407
724.045, 2116.591
725.340, 2074.431
726.635, 1658.358
727.930, 1759.501
729.224, 1488.007
730.519, 1379.051
731.813, 1393.401
733.107, 1212.251
734.401, 1291.061
735.694, 1123.429
736.988, 1054.563
738.281, 1178.618
739.574, 932.473
740.867, 1073.861
742.160, 989.166
743.452, 928.121
744.744, 1133.478
746.036, 949.111
747.328, 1098.302
748.620, 1166.076
749.911, 1118.093
751.202, 1396.890
752.493, 1247.318
753.784, 1464.287
755.075, 1544.899
756.365, 1474.545
757.655, 1647.011
758.945, 1451.285
760.235, 1434.710
761.525, 1312.950
762.814, 1048.174
764.103, 1048.380
765.392, 766.569
766.681, 703.740
767.969, 617.892
769.258, 474.027
770.546, 464.144
771.834, 382.241
773.122, 354.320
774.409, 367.380
775.697, 267.421
776.984, 376.443
778.271, 280.445
779.558, 272.427
780.844, 326.389
782.131, 253.332
783.417, 370.254
784.703, 348.156
785.989, 350.037
787.274, 423.897
788.560, 282.736
789.845, 443.555
791.130, 396.352
792.415, 337.127
793.699, 469.880
794.983, 258.612
796.268, 347.322
797.552, 346.009
798.835, 229.675
800.119, 384.317
801.402, 213.937
802.686, 353.534
803.969, 306.108
805.251, 281.658
806.534, 476.185
807.816, 385.689
809.098, 608.169
810.380, 645.626
811.662, 685.058
812.944, 979.466
814.225, 848.850
815.506, 994.210
816.787, 1100.545
818.068, 1011.855
819.349, 1184.141
820.629, 990.402
821.909, 995.637
823.189, 1051.848
824.469, 813.033
825.749, 833.193
827.028, 677.327
828.307, 644.436
829.586, 705.518
830.865, 526.575
832.144, 601.606
833.422, 562.611
834.700, 531.589
835.978, 637.541
837.256, 528.467
838.534, 556.366
839.811, 552.238
841.088, 411.084
842.365, 443.903
843.642, 322.695
844.919, 331.460
846.195, 233.198
847.472, 132.908
848.748, 157.589
850.023, 15.240
851.299, 86.842
852.575, 51.409
853.850, 14.062
855.125, 35.402
856.400, 14.177
857.674, 87.822
858.949, 14.569
860.223, 80.383
861.497, 7.296
862.771, 70.270
864.045, 30.339
865.318, 15.481
866.591, 99.689
867.864, 10.008
869.137, 55.383
870.410, 84.846
871.682, 68.394
872.955, 101.023
874.227, 69.764
875.499, 28.596
876.770, 111.478
878.042, 9.424
879.313, 92.400
880.584, 78.388
881.855, 8.490
883.126, 96.585
884.396, 29.718
885.667, 54.878
886.937, 5.063
888.207, 1.251
889.476, 6.543
890.746, 76.355
892.015, 39.162
893.284, 22.016
894.553, 56.781
895.822, 10.577
897.090, 78.373
898.359, 70.141
899.627, 65.908
900.895, 153.651
902.163, 96.375
903.430, 142.085
904.698, 164.765
905.965, 111.431
907.232, 177.065
908.499, 165.669
909.765, 205.258
911.032, 302.817
912.298, 208.356
913.564, 308.869
914.830, 302.355
916.095, 335.828
917.361, 403.273
918.626, 323.690
919.891, 431.080
921.156, 398.443
922.420, 396.786
923.685, 535.102
924.949, 504.391
926.213, 535.657
927.477, 593.897
928.740, 576.109
930.004, 618.308
931.267, 573.479
932.530, 618.632
933.793, 748.771
935.056, 649.884
936.318, 776.970
937.581, 768.030
938.843, 810.063
940.104, 962.070
941.366, 881.050
942.628, 948.002
943.889, 1028.929
945.150, 1020.828
946.411, 1219.703
947.672, 1134.551
948.932, 1317.372
950.193, 1442.168
951.453, 1452.938
952.713, 1745.680
953.973, 1733.401
955.232, 1740.096
956.491, 2028.764
957.751, 1902.407
959.010, 2159.022
960.268, 2241.617
961.527, 2209.186
962.785, 2468.728
964.044, 2399.243
965.302, 2540.733
966.559, 2673.196
967.817, 2519.633
969.075, 2729.043
970.332, 2620.429
971.589, 2658.788
972.846, 2782.121
974.102, 2545.431
975.359, 2772.716
976.615, 2657.974
977.871, 2545.208
979.127, 2692.415
980.383, 2485.598
981.638, 2653.754
982.893, 2492.886
984.149, 2498.994
985.404, 2592.075
986.658, 2450.132
987.913, 2521.164
989.167, 2620.170
990.421, 2506.153
991.675, 2663.112
992.929, 2586.045
994.183, 2534.959
995.436, 2794.848
996.689, 2606.713
997.942, 2818.555
999.195, 2956.077
1000.448, 2892.674
1001.700, 3373.247
1002.952, 3224.345
1004.204, 3463.863
1005.456, 3726.699
1006.708, 3602.784
1007.959, 4103.462
1009.210, 4147.703
1010.461, 4279.305
1011.712, 4876.036
1012.963, 4764.224
1014.213, 5368.312
1015.464, 5445.104
1016.714, 5498.609
1017.964, 6403.752
1019.214, 6105.845
1020.463, 6457.759
1021.712, 7046.993
1022.962, 6764.745
1024.210, 7457.824
1025.459, 7471.232
1026.708, 7426.785
1027.956, 8217.299
1029.204, 7615.109
1030.452, 8186.843
1031.700, 8349.726
1032.948, 7786.675
1034.195, 8387.971
1035.442, 7894.893
1036.689, 7629.307
1037.936, 7956.597
1039.183, 7119.104
1040.429, 7691.865
1041.676, 8221.469
1042.922, 7027.565
1044.168, 7192.651
1045.413, 6323.039
1046.659, 6514.264
1047.904, 6569.808
1049.149, 5914.898
1050.394, 6328.080
1051.639, 5949.555
1052.884, 5764.911
1054.128, 5971.766
1055.372, 5367.811
1056.616, 5549.415
1057.860, 5163.303
1059.104, 4884.571
1060.347, 5071.457
1061.590, 4614.052
1062.833, 4581.611
1064.076, 4708.833
1065.319, 4194.038
1066.561, 4383.976
1067.803, 4147.979
1069.046, 3923.044
1070.287, 4202.969
1071.529, 3800.553
1072.771, 4192.705
1074.012, 3668.737
1075.253, 3250.532
1076.494, 3460.620
1077.735, 3016.689
1078.975, 2868.477
1080.216, 2853.269
1081.456, 2441.025
1082.696, 2473.150
1083.936, 2287.011
1085.175, 1981.073
1086.415, 2137.974
1087.654, 1804.760
1088.893, 1737.773
1090.132, 1802.466
1091.371, 1464.263
1092.609, 1582.157
1093.847, 1457.806
1095.085, 1280.868
1096.323, 1359.673
1097.561, 1119.415
1098.799, 1123.299
1100.036, 1098.074
1101.273, 941.648
1102.510, 1006.296
1103.747, 871.846
1104.983, 823.627
1106.220, 908.255
1107.456, 685.769
1108.692, 762.548
1109.928, 751.039
1111.163, 570.517
1112.399, 728.983
1113.634, 616.439
1114.869, 568.971
1116.104, 579.403
1117.339, 528.825
1118.573, 548.350
1119.808, 571.749
1121.042, 490.136
1122.276, 769.192
1123.509, 681.558
1124.743, 649.913
1125.976, 578.257
1127.210, 405.591
1128.443, 517.123
1129.675, 532.436
1130.908, 373.737
1132.141, 607.245
1133.373, 432.526
1134.605, 454.807
1135.837, 761.162
1137.068, 374.412
1138.300, 421.887
1139.531, 353.346
1140.762, 275.566
1141.993, 328.762
1143.224, 209.962
1144.455, 154.420
1145.685, 243.773
1146.915, 114.945
1148.145, 157.058
1149.375, 140.293
1150.605, 112.449
1151.834, 179.801
1153.063, 61.947
1154.292, 101.186
1155.521, 105.821
1156.750, 33.972
1157.978, 144.174
1159.207, 15.630
1160.435, 40.855
1161.663, 71.286
1162.891, 18.542
1164.118, 66.810
1165.345, 102.492
1166.573, 27.197
1167.800, 77.297
1169.026, 34.836
1170.253, 12.810
1171.480, 65.289
1172.706, 4.245
1173.932, 82.180
1175.158, 41.841
1176.383, 20.685
1177.609, 37.650
1178.834, 4.555
1180.059, 49.969
1181.284, 79.600
1182.509, 26.837
1183.734, 6.273
1184.958, 21.721
1186.182, 26.305
1187.406, 14.228
1188.630, 3.810
1189.854, 2.604
1191.077, 49.978
1192.301, 56.365
1193.524, 62.118
1194.747, 68.699
1195.969, 64.613
1197.192, 45.910
1198.414, 44.321
1199.636, 15.833
1200.858, 33.647
1202.080, 52.823
1203.302, 38.615
1204.523, 49.046
1205.744, 56.530
1206.966, 69.857
1208.186, 24.559
1209.407, 9.201
1210.628, 22.143
1211.848, 50.354
1213.068, 127.945
1214.288, 64.554
1215.508, 46.879
1216.727, 76.894
1217.947, 24.799
1219.166, 16.446
1220.385, 41.681
1221.604, 12.010
1222.822, 22.198
1224.041, 23.396
1225.259, 44.284
1226.477, 92.868
1227.695, 27.988
1228.913, 49.871
1230.130, 57.207
1231.348, 6.444
1232.565, 41.501
1233.782, 65.547
1234.999, 8.583
1236.215, 81.611
1237.432, 53.633
1238.648, 27.646
1239.864, 87.650
1241.080, 0.648
1242.296, 39.633
1243.511, 51.609
1244.726, 14.580
1245.942, 37.537
1247.156, 92.487
1248.371, 11.568
1249.586, 129.365
1250.800, 24.293
1252.014, 58.209
1253.228, 113.120
1254.442, 13.975
1255.656, 119.917
1256.869, 256.802
1258.083, 144.860
1259.296, 146.554
1260.509, 61.419
1261.722, 88.271
1262.934, 110.116
1264.147, 54.954
1265.359, 117.780
1266.571, 115.598
1267.783, 2.591
1268.994, 130.202
1270.206, 126.988
1271.417, 100.766
1272.628, 167.537
1273.839, 32.299
1275.050, 107.051
1276.260, 107.793
1277.471, 30.527
1278.681, 112.252
1279.891, 79.963
1281.101, 59.667
1282.310, 204.364
1283.520, 26.044
1284.729, 27.714
1285.938, 128.377
1287.147, 5.968
1288.356, 161.676
1289.564, 18.311
1290.773, 40.939
1291.981, 121.559
1293.189, 4.828
1294.397, 62.774
1295.604, 130.369
1296.812, 33.956
1298.019, 91.536
1299.226, 62.012
1300.433, 12.421
1301.640, 122.132
1302.846, 79.466
1304.053, 21.006
1305.259, 103.254
1306.465, 34.601
1307.671, 127.177
1308.876, 86.422
1310.082, 6.864
1311.287, 105.363
1312.492, 36.520
1313.697, 30.988
1314.902, 111.334
1316.106, 0.117
1317.310, 66.664
1318.515, 130.750
1319.719, 28.197
1320.922, 118.669
1322.126, 1.955
1323.329, 12.284
1324.533, 121.324
1325.736, 56.599
1326.939, 96.990
1328.141, 112.228
1329.344, 10.899
1330.546, 94.218
1331.748, 65.346
1332.950, 16.701
1334.152, 167.875
1335.354, 84.998
1336.555, 64.197
1337.757, 114.640
1338.958, 59.623
1340.159, 119.671
1341.359, 136.500
1342.560, 15.650
1343.760, 120.201
1344.960, 153.033
1346.160, 60.113
1347.360, 175.158
1348.560, 94.306
1349.759, 123.430
1350.959, 177.393
1352.158, 19.604
1353.357, 139.250
1354.555, 198.057
1355.754, 27.033
1356.952, 154.003
1358.151, 64.880
1359.349, 42.993
1360.546, 129.974
1361.744, 56.073
1362.941, 78.430
1364.139, 158.302
1365.336, 44.133
1366.533, 162.167
1367.730, 109.854
1368.926, 31.476
1370.123, 160.331
1371.319, 81.132
1372.515, 79.907
1373.711, 129.255
1374.906, 15.899
1376.102, 59.208
1377.297, 149.601
1378.492, 72.037
1379.687, 175.171
1380.882, 109.249
1382.077, 87.234
1383.271, 200.316
1384.465, 151.209
1385.659, 142.437
1386.853, 226.524
1388.047, 105.744
1389.240, 205.678
1390.434, 217.966
1391.627, 106.142
1392.820, 245.400
1394.013, 226.514
1395.205, 169.972
1396.398, 278.177
1397.590, 147.367
1398.782, 188.297
1399.974, 324.199
1401.166, 188.327
1402.357, 288.337
1403.549, 304.883
1404.740, 232.761
1405.931, 366.489
1407.122, 257.311
1408.313, 213.028
1409.503, 374.760
1410.693, 224.621
1411.883, 294.654
1413.073, 322.219
1414.263, 233.852
1415.453, 310.731
1416.642, 273.042
1417.831, 150.348
1419.020, 325.170
1420.209, 226.897
1421.398, 244.375
1422.587, 327.489
1423.775, 145.096
1424.963, 298.838
1426.151, 273.449
1427.339, 146.652
1428.526, 282.325
1429.714, 203.897
1430.901, 142.459
1432.088, 225.753
1433.275, 158.459
1434.462, 146.074
1435.648, 262.788
1436.835, 113.186
1438.021, 110.936
1439.207, 203.406
1440.393, 51.998
1441.579, 258.671
1442.764, 180.427
1443.949, 58.029
1445.135, 218.535
1446.320, 81.333
1447.504, 70.191
1448.689, 251.751
1449.873, 20.648
1451.058, 199.537
1452.242, 214.417
1453.426, 52.296
1454.609, 171.169
1455.793, 98.049
1456.976, 31.910
1458.159, 156.761
1459.342, 10.602
1460.525, 30.429
1461.708, 166.242
1462.890, 6.064
1464.073, 79.892
1465.255, 127.743
1466.437, 28.611
1467.619, 104.503
1468.800, 99.401
1469.982, 0.329
1471.163, 102.275
1472.344, 79.274
1473.525, 55.311
1474.706, 67.400
1475.886, 15.510
1477.066, 9.648
1478.247, 123.805
1479.427, 2.010
1480.607, 89.202
1481.786, 39.439
1482.966, 16.292
1484.145, 93.001
1485.324, 70.896
1486.503, 15.775
1487.682, 179.576
1488.860, 37.672
1490.039, 43.353
1491.217, 129.411
1492.395, 12.839
1493.573, 56.824
1494.751, 107.258
1495.928, 14.067
1497.106, 152.483
1498.283, 126.916
1499.460, 4.881
1500.637, 175.226
1501.814, 77.171
1502.990, 62.333
1504.166, 185.573
1505.342, 18.870
1506.518, 146.999
1507.694, 138.112
1508.870, 74.642
1510.045, 171.380
1511.221, 172.963
1512.396, 48.424
1513.571, 153.131
1514.745, 101.721
1515.920, 0.497
1517.094, 135.107
1518.269, 11.035
1519.443, 0.000
##END=



