##NAMES=Dravite
##RRUFFID=R060534
##IDEAL CHEMISTRY=NaMg_3_Al_6_(Si_6_O_18_)(BO_3_)_3_(OH)_3_OH
##LOCALITY=Sri Lanka
##OWNER=RRUFF
##SOURCE=Gemological Institute of America
##DESCRIPTION=Black trigonal prism
##STATUS=The identification of this mineral has been confirmed by X-ray diffraction and chemical analysis
##URL=rruff.info/R060534
##MEASURED CHEMISTRY=(Na_0.79_Ca_0.21_)(Mg_0.68_Fe^2+^_0.29_Ti_0.02_Al_0.01_)_3_Al_6.00_(BO_3_)_3_(Si_0.95_Al_005_)_6.00_O_18_(OH)_4_
##PIN_ID=L01032
##ORIENTATION=Laser parallel to c* (0 0 1). Fiducial mark perpendicular to laser is parallel to a [1 0 0]
297.4850, 0.0000000E+00
298.6930, 19.65234
299.9020, 0.6230470
301.1110, 139.5430
302.3190, 146.0098
303.5270, 111.9043
304.7350, 31.98242
305.9430, 54.49805
307.1510, 105.6367
308.3580, 30.98047
309.5660, 71.17383
310.7730, 105.7852
311.9800, 84.24609
313.1870, 260.5703
314.3940, 295.1035
315.6010, 495.1992
316.8070, 406.8438
318.0130, 578.0098
319.2200, 767.5723
320.4260, 1004.340
321.6310, 1192.615
322.8370, 1349.924
324.0430, 1681.523
325.2480, 1861.885
326.4540, 2244.953
327.6590, 2087.676
328.8640, 2323.008
330.0680, 2450.908
331.2730, 2905.348
332.4780, 3017.297
333.6820, 2999.307
334.8860, 3173.486
336.0900, 3144.707
337.2940, 3065.637
338.4980, 3146.477
339.7010, 3215.488
340.9050, 3439.594
342.1080, 3441.795
343.3110, 3264.102
344.5140, 3244.520
345.7170, 3588.062
346.9200, 3278.734
348.1220, 3452.543
349.3240, 3162.504
350.5270, 3529.635
351.7290, 3655.945
352.9310, 3693.430
354.1320, 3711.092
355.3340, 4196.930
356.5350, 4187.949
357.7370, 4483.758
358.9380, 5100.504
360.1390, 5137.043
361.3400, 5706.756
362.5400, 6411.646
363.7410, 6798.707
364.9410, 7167.941
366.1410, 7452.352
367.3410, 7847.932
368.5410, 7890.508
369.7410, 8087.566
370.9400, 8022.617
372.1400, 7838.703
373.3390, 7550.139
374.5380, 7376.160
375.7370, 7024.262
376.9360, 6888.488
378.1350, 6854.146
379.3330, 6392.266
380.5310, 5826.105
381.7300, 5536.072
382.9280, 5332.170
384.1260, 5107.406
385.3230, 5066.781
386.5210, 4563.293
387.7180, 4290.947
388.9160, 4249.742
390.1130, 3679.680
391.3100, 3921.758
392.5060, 3533.980
393.7030, 3467.348
394.9000, 3074.855
396.0960, 3226.512
397.2920, 3075.357
398.4880, 2725.441
399.6840, 2641.775
400.8800, 2497.400
402.0750, 2402.338
403.2710, 2303.311
404.4660, 2136.768
405.6610, 2120.166
406.8560, 1985.684
408.0510, 1907.320
409.2450, 1786.502
410.4400, 1672.939
411.6340, 1509.918
412.8280, 1388.680
414.0220, 1267.797
415.2160, 1137.537
416.4100, 1064.971
417.6030, 998.5195
418.7970, 966.1836
419.9900, 899.9609
421.1830, 692.8516
422.3760, 802.8594
423.5690, 624.9785
424.7610, 424.2109
425.9540, 376.5586
427.1460, 421.0176
428.3380, 345.5938
429.5300, 83.28320
430.7220, 143.0859
431.9140, 50.00586
433.1050, 281.0410
434.2970, 180.1953
435.4880, 93.46680
436.6790, 90.86133
437.8700, 75.37500
439.0610, 219.1836
440.2510, 27.45508
441.4420, 74.31445
442.6320, 94.41992
443.8220, 209.7578
445.0120, 94.67383
446.2020, 147.2090
447.3910, 206.4141
448.5810, 32.37109
449.7700, 22.52344
450.9600, 39.92969
452.1490, 122.4297
453.3370, 10.41016
454.5260, 112.5469
455.7150, 169.7207
456.9030, 223.3340
458.0910, 115.2012
459.2800, 104.0898
460.4670, 66.77344
461.6550, 147.7949
462.8430, 93.96875
464.0300, 110.2930
465.2180, 131.6426
466.4050, 410.3691
467.5920, 254.1152
468.7790, 447.9922
469.9650, 736.0020
471.1520, 564.1367
472.3380, 755.4004
473.5250, 1040.781
474.7110, 1020.287
475.8970, 1183.908
477.0820, 1220.461
478.2680, 1244.484
479.4540, 1301.430
480.6390, 1369.479
481.8240, 1434.172
483.0090, 1529.174
484.1940, 1579.197
485.3780, 1723.629
486.5630, 1766.154
487.7470, 1842.777
488.9320, 2011.492
490.1160, 1971.301
491.3000, 1923.201
492.4830, 2060.197
493.6670, 1888.893
494.8500, 2022.615
496.0340, 2028.609
497.2170, 2062.971
498.4000, 2013.961
499.5820, 1967.723
500.7650, 2146.459
501.9480, 1890.127
503.1300, 1751.543
504.3120, 1865.994
505.4940, 1961.271
506.6760, 1592.219
507.8580, 1732.350
509.0390, 1590.559
510.2210, 1519.121
511.4020, 1513.154
512.5830, 1421.527
513.7640, 1622.918
514.9450, 1521.322
516.1250, 1656.740
517.3060, 1646.240
518.4860, 1602.793
519.6660, 1677.352
520.8460, 1837.938
522.0260, 2070.578
523.2060, 1947.311
524.3850, 2034.123
525.5650, 2131.020
526.7440, 2141.449
527.9230, 2189.064
529.1020, 2407.213
530.2810, 2334.441
531.4590, 2704.754
532.6380, 2710.145
533.8160, 2638.613
534.9940, 2700.166
536.1720, 2826.795
537.3500, 3049.504
538.5270, 2804.289
539.7050, 3159.152
540.8820, 3154.092
542.0590, 2969.104
543.2360, 3079.191
544.4130, 3174.350
545.5900, 2900.580
546.7660, 3197.883
547.9430, 2921.260
549.1190, 3301.713
550.2950, 3050.238
551.4710, 3009.844
552.6470, 3122.527
553.8220, 3130.291
554.9980, 3125.137
556.1730, 3041.061
557.3480, 3036.066
558.5230, 2891.201
559.6980, 2832.053
560.8730, 2736.182
562.0470, 2630.092
563.2220, 2544.592
564.3960, 2403.186
565.5700, 2341.887
566.7440, 2456.709
567.9170, 2347.457
569.0910, 2385.668
570.2640, 2262.818
571.4380, 2165.070
572.6110, 2035.400
573.7840, 2072.836
574.9570, 1696.381
576.1290, 1980.006
577.3020, 1780.709
578.4740, 1575.506
579.6460, 1910.385
580.8180, 1778.527
581.9900, 1732.955
583.1620, 1610.215
584.3330, 1562.861
585.5040, 1627.691
586.6760, 1427.455
587.8470, 1511.441
589.0180, 1400.170
590.1880, 1338.453
591.3590, 1503.754
592.5290, 1803.219
593.7000, 1325.008
594.8700, 1034.793
596.0400, 1281.936
597.2090, 1013.527
598.3790, 1057.055
599.5490, 976.5430
600.7180, 1053.932
601.8870, 974.4609
603.0560, 896.0684
604.2250, 899.7637
605.3940, 806.1992
606.5620, 826.3906
607.7300, 693.3750
608.8990, 937.4297
610.0670, 942.5469
611.2350, 780.7324
612.4020, 1024.977
613.5700, 876.2910
614.7370, 934.6621
615.9050, 706.0879
617.0720, 702.5645
618.2390, 1096.098
619.4060, 912.6816
620.5720, 1022.322
621.7390, 695.0137
622.9050, 780.7539
624.0710, 541.5352
625.2370, 684.3613
626.4030, 474.2305
627.5690, 501.1426
628.7340, 287.0957
629.9000, 307.0879
631.0650, 177.1191
632.2300, 117.1895
633.3950, 21.70117
634.5600, 53.56445
635.7240, 88.08789
636.8890, 121.6348
638.0530, 109.0840
639.2170, 126.9219
640.3810, 148.7695
641.5450, 168.6309
642.7080, 208.0137
643.8720, 182.5547
645.0350, 223.3906
646.1980, 90.38672
647.3610, 64.61328
648.5240, 213.6426
649.6870, 207.6973
650.8490, 350.7793
652.0120, 395.8906
653.1740, 681.0254
654.3360, 808.1836
655.4980, 788.3691
656.6600, 1022.576
657.8210, 1362.809
658.9830, 1434.061
660.1440, 1360.338
661.3050, 1624.637
662.4660, 1556.955
663.6270, 1925.297
664.7870, 1555.656
665.9480, 1508.033
667.1080, 1645.428
668.2680, 1221.844
669.4280, 1383.273
670.5880, 1011.719
671.7480, 899.1797
672.9070, 873.6523
674.0670, 761.1406
675.2260, 767.6445
676.3850, 613.1562
677.5440, 721.6797
678.7030, 680.2148
679.8610, 475.7578
681.0200, 689.3145
682.1780, 636.8750
683.3360, 775.4453
684.4940, 1049.113
685.6520, 932.7324
686.8090, 1070.291
687.9670, 1205.146
689.1240, 1488.068
690.2810, 1516.812
691.4380, 1722.584
692.5950, 1733.520
693.7520, 2063.941
694.9080, 2077.178
696.0650, 2633.389
697.2210, 2625.572
698.3770, 2976.012
699.5330, 3265.967
700.6880, 3522.961
701.8440, 3824.619
702.9990, 4031.135
704.1550, 4349.859
705.3100, 4640.328
706.4650, 4976.707
707.6190, 5770.383
708.7740, 6005.396
709.9290, 6542.453
711.0830, 6941.168
712.2370, 7427.141
713.3910, 7683.605
714.5450, 8067.412
715.6980, 8499.303
716.8520, 8980.465
718.0050, 9293.129
719.1580, 9714.750
720.3110, 9989.973
721.4640, 9798.641
722.6170, 10062.76
723.7700, 10213.62
724.9220, 10102.77
726.0740, 10225.58
727.2260, 10489.30
728.3780, 10216.51
729.5300, 10415.23
730.6810, 10717.64
731.8330, 10871.03
732.9840, 11372.26
734.1350, 11725.64
735.2860, 12018.24
736.4370, 12813.83
737.5880, 13057.96
738.7380, 13329.29
739.8880, 14565.23
741.0390, 14712.75
742.1890, 15069.91
743.3380, 15346.05
744.4880, 15548.14
745.6380, 15903.02
746.7870, 15957.91
747.9360, 16177.58
749.0850, 16299.09
750.2340, 16558.98
751.3830, 16878.40
752.5310, 16713.48
753.6800, 16704.11
754.8280, 16939.04
755.9760, 17238.17
757.1240, 17496.66
758.2720, 17627.75
759.4190, 18129.55
760.5670, 18049.44
761.7140, 18376.11
762.8610, 18546.56
764.0080, 18433.95
765.1550, 18367.26
766.3020, 18466.50
767.4480, 18191.65
768.5950, 18280.72
769.7410, 18313.72
770.8870, 18317.63
772.0330, 18591.86
773.1780, 18659.08
774.3240, 18743.03
775.4690, 19330.62
776.6140, 19467.60
777.7590, 19527.80
778.9040, 19519.04
780.0490, 19014.35
781.1940, 18426.92
782.3380, 17731.46
783.4820, 16537.17
784.6260, 15662.21
785.7700, 14386.07
786.9140, 13124.84
788.0580, 11608.54
789.2010, 10744.14
790.3450, 9495.664
791.4880, 8538.098
792.6310, 7574.455
793.7730, 6494.723
794.9160, 5628.902
796.0590, 5122.996
797.2010, 4535.004
798.3430, 4117.924
799.4850, 3618.758
800.6270, 3600.502
801.7690, 3539.156
802.9100, 3337.723
804.0520, 3282.199
805.1930, 3082.586
806.3340, 2885.883
807.4750, 2964.088
808.6160, 2693.203
809.7560, 2664.227
810.8970, 2320.158
812.0370, 2031.996
813.1770, 1876.744
814.3170, 1572.396
815.4570, 1415.959
816.5960, 1272.428
817.7360, 923.8008
818.8750, 967.0859
820.0140, 824.2754
821.1530, 595.3672
822.2920, 613.3652
823.4310, 395.2676
824.5690, 329.0664
825.7070, 319.7598
826.8460, 205.1660
827.9840, 205.8164
829.1220, 129.1699
830.2590, 161.3984
831.3970, 177.5215
832.5340, 122.4844
833.6710, 103.2344
834.8080, 85.57031
835.9450, 188.4570
837.0820, 210.0430
838.2190, 92.79492
839.3550, 22.92383
840.4910, 29.34766
841.6270, 88.69531
842.7630, 85.38477
843.8990, 171.2168
845.0350, 1.257813
846.1700, 1.845703
847.3060, 75.35742
848.4410, 16.44727
849.5760, 56.26953
850.7100, 72.61914
851.8450, 107.8184
852.9800, 4.105469
854.1140, 77.04883
855.2480, 187.2227
856.3820, 148.7852
857.5160, 20.13477
858.6500, 84.32617
859.7830, 1.154297
860.9170, 10.29102
862.0500, 303.5723
863.1830, 223.0840
864.3160, 119.5020
865.4480, 256.1660
866.5810, 220.2559
867.7130, 221.3301
868.8460, 187.9902
869.9780, 207.8398
871.1100, 84.97656
872.2410, 38.33789
873.3730, 95.89844
874.5050, 100.6836
875.6360, 80.29688
876.7670, 94.98047
877.8980, 31.04102
879.0290, 239.3496
880.1590, 19.24414
881.2900, 112.0234
882.4200, 159.9648
883.5500, 261.8242
884.6800, 175.5625
885.8100, 336.1680
886.9400, 107.6641
888.0690, 493.0195
889.1990, 344.2676
890.3280, 492.4043
891.4570, 428.4316
892.5860, 324.3477
893.7140, 398.1523
894.8430, 266.8457
895.9710, 647.4219
897.1000, 679.9004
898.2280, 735.2754
899.3560, 788.5566
900.4830, 704.7422
901.6110, 701.8262
902.7380, 961.8203
903.8660, 871.7109
904.9930, 976.5117
906.1200, 983.2129
907.2460, 751.8223
908.3730, 849.3398
909.5000, 1044.773
910.6260, 1237.127
911.7520, 1118.402
912.8780, 935.6230
914.0040, 1426.770
915.1290, 1439.855
916.2550, 1245.881
917.3800, 1339.848
918.5050, 1375.754
919.6300, 1481.604
920.7550, 1514.381
921.8800, 1393.068
923.0040, 1558.666
924.1290, 1352.172
925.2530, 1617.604
926.3770, 1632.523
927.5010, 1793.354
928.6250, 1744.629
929.7480, 2011.818
930.8720, 1921.920
931.9950, 1777.936
933.1180, 2229.863
934.2410, 2124.127
935.3640, 2511.463
936.4860, 2218.152
937.6090, 2336.756
938.7310, 2151.355
939.8530, 2332.559
940.9750, 2443.062
942.0970, 2680.377
943.2180, 2742.902
944.3400, 2945.904
945.4610, 2895.117
946.5820, 2998.250
947.7030, 3060.314
948.8240, 2967.299
949.9450, 3161.230
951.0650, 3190.082
952.1860, 3201.914
953.3060, 3202.713
954.4260, 3390.449
955.5460, 3439.119
956.6650, 3528.633
957.7850, 3416.146
958.9040, 3580.688
960.0230, 3508.871
961.1420, 3473.920
962.2610, 3490.078
963.3800, 3422.131
964.4990, 3748.953
965.6170, 3593.219
966.7350, 3776.594
967.8530, 3827.781
968.9710, 3810.203
970.0890, 3850.439
971.2070, 3858.525
972.3240, 3768.779
973.4410, 3680.293
974.5580, 3719.879
975.6750, 3813.180
976.7920, 3916.660
977.9090, 4047.156
979.0250, 3842.281
980.1410, 3855.992
981.2580, 3846.588
982.3740, 4006.447
983.4890, 4012.115
984.6050, 4078.930
985.7200, 4078.473
986.8360, 3983.854
987.9510, 3878.885
989.0660, 3936.342
990.1810, 3892.760
991.2950, 4012.539
992.4100, 4017.799
993.5240, 4142.527
994.6390, 4155.439
995.7530, 4105.025
996.8660, 3919.881
997.9800, 4059.758
999.0940, 3644.115
1000.207, 3739.932
1001.320, 3806.891
1002.433, 3653.832
1003.546, 3821.869
1004.659, 3646.670
1005.772, 3644.973
1006.884, 3708.684
1007.996, 3582.578
1009.108, 3621.201
1010.220, 3655.141
1011.332, 3535.426
1012.444, 3557.986
1013.555, 3504.482
1014.666, 3487.404
1015.777, 3567.547
1016.888, 3762.049
1017.999, 3815.703
1019.110, 3876.971
1020.220, 4011.682
1021.331, 3904.334
1022.441, 3966.234
1023.551, 3929.510
1024.661, 3777.396
1025.770, 4112.012
1026.880, 4166.180
1027.989, 3824.662
1029.098, 4045.359
1030.207, 4442.881
1031.316, 4178.539
1032.425, 4344.328
1033.533, 4166.111
1034.642, 4551.877
1035.750, 4502.631
1036.858, 4780.395
1037.966, 4547.154
1039.073, 4780.908
1040.181, 5050.660
1041.288, 5043.408
1042.396, 5018.152
1043.503, 5162.895
1044.610, 5173.635
1045.716, 5464.148
1046.823, 5539.887
1047.929, 5467.773
1049.036, 5845.746
1050.142, 5929.484
1051.248, 5781.225
1052.353, 5600.963
1053.459, 5838.703
1054.564, 5767.447
1055.670, 5776.195
1056.775, 5651.941
1057.880, 5566.949
1058.985, 5656.363
1060.089, 5647.873
1061.194, 5863.908
1062.298, 5784.674
1063.402, 6014.443
1064.506, 5700.219
1065.610, 5639.996
1066.713, 5405.783
1067.817, 5148.574
1068.920, 5266.516
1070.023, 5018.324
1071.126, 5180.137
1072.229, 4756.959
1073.332, 4890.789
1074.435, 4854.225
1075.537, 4653.732
1076.639, 4229.912
1077.741, 3919.537
1078.843, 4091.408
1079.945, 3811.695
1081.046, 4080.584
1082.148, 3653.072
1083.249, 3147.984
1084.350, 3320.350
1085.451, 3072.268
1086.551, 3030.557
1087.652, 3147.742
1088.752, 3234.777
1089.853, 3026.342
1090.953, 2902.652
1092.053, 2664.830
1093.152, 2831.844
1094.252, 2971.873
1095.351, 2693.922
1096.451, 2635.201
1097.550, 2659.303
1098.649, 2843.426
1099.748, 2634.574
1100.846, 2433.754
1101.945, 2864.014
1103.043, 2688.307
1104.141, 2580.627
1105.239, 2473.973
1106.337, 2486.396
1107.434, 2430.867
1108.532, 2381.271
1109.629, 2352.795
1110.726, 2318.666
1111.823, 2258.418
1112.920, 2275.227
1114.017, 2226.094
1115.113, 2144.004
1116.210, 2230.973
1117.306, 1956.018
1118.402, 2331.104
1119.498, 1829.230
1120.593, 1992.418
1121.689, 1838.648
1122.784, 1759.988
1123.879, 1613.430
1124.974, 1574.820
1126.069, 1541.500
1127.164, 1505.137
1128.259, 1397.832
1129.353, 1351.670
1130.447, 1322.166
1131.541, 1239.197
1132.635, 1252.857
1133.729, 1077.156
1134.822, 969.5762
1135.916, 799.1055
1137.009, 844.7520
1138.102, 761.4844
1139.195, 717.8477
1140.288, 739.0078
1141.380, 648.1582
1142.473, 691.1816
1143.565, 644.2520
1144.657, 487.3789
1145.749, 609.5410
1146.841, 594.7676
1147.932, 519.0859
1149.024, 426.4434
1150.115, 493.8359
1151.206, 510.2715
1152.297, 271.7402
1153.388, 341.2012
1154.479, 636.7969
1155.569, 176.3711
1156.659, 691.9766
1157.750, 453.6113
1158.839, 177.2930
1159.929, 263.0137
1161.019, 191.7676
1162.108, 222.6055
1163.198, 232.4746
1164.287, 201.4023
1165.376, 201.3574
1166.465, 248.3379
1167.553, 448.3418
1168.642, 464.3750
1169.730, 402.4336
1170.818, 256.5176
1171.906, 171.6289
1172.994, 223.7969
1174.082, 267.9941
1175.170, 176.2344
1176.257, 109.5000
1177.344, 49.76367
1178.431, 44.88672
1179.518, 10.52148
1180.605, 16.33594
1181.691, 77.28320
1182.778, 67.56250
1183.864, 276.1895
1184.950, 91.68359
1186.036, 108.2012
1187.122, 191.7480
1188.207, 87.65820
1189.292, 319.0723
1190.378, 22.42969
1191.463, 163.0391
1192.548, 120.4785
1193.632, 89.36914
1194.717, 108.5918
1195.801, 94.18750
1196.886, 74.81250
1197.970, 145.4609
1199.054, 75.86328
1200.137, 178.8105
1201.221, 70.50781
1202.305, 408.2324
1203.388, 99.98242
1204.471, 193.2422
1205.554, 243.5273
1206.637, 167.9004
1207.719, 227.3184
1208.802, 74.18164
1209.884, 51.29102
1210.966, 89.23633
1212.048, 113.2090
1213.130, 68.32031
1214.212, 233.1250
1215.293, 208.6562
1216.374, 66.25781
1217.456, 20.86719
1218.536, 59.46484
1219.617, 89.06445
1220.698, 157.6855
1221.778, 39.35352
1222.859, 27.98047
1223.939, 219.3418
1225.019, 21.73047
1226.099, 8.671875
1227.178, 218.1250
1228.258, 341.8438
1229.337, 384.3965
1230.417, 102.6875
1231.496, 239.7500
1232.574, 209.0039
1233.653, 171.4180
1234.732, 367.4961
1235.810, 133.0527
1236.888, 325.4531
1237.966, 347.5078
1239.044, 447.5566
1240.122, 378.7676
1241.199, 362.1465
1242.277, 514.4863
1243.354, 573.2871
1244.431, 485.1445
1245.508, 590.2695
1246.585, 350.1387
1247.661, 413.0020
1248.738, 606.6211
1249.814, 527.0527
1250.890, 635.3574
1251.966, 672.1309
1253.042, 383.7910
1254.117, 660.8945
1255.193, 693.5020
1256.268, 475.0215
1257.343, 732.8086
1258.418, 548.9746
1259.493, 522.8027
1260.567, 615.2480
1261.642, 584.0605
1262.716, 747.8613
1263.790, 723.8223
1264.864, 683.0273
1265.938, 715.4766
1267.011, 540.3926
1268.085, 750.3555
1269.158, 697.3027
1270.231, 775.0059
1271.304, 882.3477
1272.377, 762.8125
1273.450, 883.4961
1274.522, 631.6543
1275.594, 691.5215
1276.666, 717.8379
1277.738, 943.3867
1278.810, 693.4141
1279.882, 745.2520
1280.953, 924.7402
1282.025, 924.8398
1283.096, 999.9258
1284.167, 852.8906
1285.238, 914.5449
1286.308, 918.6602
1287.379, 1123.904
1288.449, 1171.527
1289.519, 1028.289
1290.589, 898.1934
1291.659, 1116.980
1292.729, 1000.479
1293.798, 1060.715
1294.868, 931.0527
1295.937, 976.8555
1297.006, 1142.326
1298.075, 918.8047
1299.143, 972.2891
1300.212, 976.7812
1301.280, 1114.742
1302.348, 1282.305
1303.416, 1089.232
1304.484, 1343.750
1305.552, 1198.426
1306.620, 1114.391
1307.687, 890.7832
1308.754, 907.0938
1309.821, 1063.645
1310.888, 1073.203
1311.955, 1004.766
1313.021, 848.3379
1314.088, 898.9160
1315.154, 849.5020
1316.220, 937.5215
1317.286, 1233.861
1318.352, 1131.979
1319.417, 989.6055
1320.483, 1223.424
1321.548, 782.0684
1322.613, 888.7207
1323.678, 810.3828
1324.743, 778.0508
1325.807, 795.7227
1326.872, 1032.400
1327.936, 1054.943
1329.000, 1052.631
1330.064, 1007.328
1331.128, 992.0312
1332.191, 1044.742
1333.255, 1033.863
1334.318, 1098.934
1335.381, 852.3438
1336.444, 722.3340
1337.507, 515.0938
1338.569, 750.4590
1339.632, 640.2383
1340.694, 689.4453
1341.756, 1089.248
1342.818, 714.6191
1343.880, 585.4570
1344.941, 791.9434
1346.003, 807.5586
1347.064, 761.3438
1348.125, 501.6250
1349.186, 624.1836
1350.247, 599.9004
1351.308, 454.8125
1352.368, 465.5703
1353.428, 746.6797
1354.489, 428.4219
1355.549, 514.3867
1356.608, 780.3652
1357.668, 648.3574
1358.727, 784.3633
1359.787, 686.3809
1360.846, 494.4121
1361.905, 471.4551
1362.964, 486.5137
1364.022, 544.5840
1365.081, 473.6699
1366.139, 401.7617
1367.197, 401.8691
1368.255, 537.9883
1369.313, 553.1035
1370.371, 636.2168
1371.428, 430.2480
1372.486, 512.2402
1373.543, 555.2441
1374.600, 171.2598
1375.657, 152.2871
1376.713, 297.2695
1377.770, 491.2324
1378.826, 236.0898
1379.882, 572.9473
1380.938, 571.8125
1381.994, 709.6875
1383.050, 572.5723
1384.106, 764.4297
1385.161, 369.2266
1386.216, 646.9746
1387.271, 96.72852
1388.326, 520.4883
1389.381, 292.2539
1390.435, 250.0254
1391.490, 188.8027
1392.544, 120.5840
1393.598, 111.3730
1394.652, 241.1680
1395.705, 247.8984
1396.759, 210.3418
1397.812, 418.5781
1398.866, 143.3906
1399.919, 222.2070
1400.972, 305.0273
1402.024, 164.8496
1403.077, 83.67578
1404.129, 128.5039
1405.181, 107.3320
1406.233, 7.164063
1407.285, 219.9922
1408.337, 24.81836
1409.389, 171.6465
1410.440, 406.4727
1411.491, 58.30078
1412.542, 153.1289
1413.593, 28.03516
1414.644, 15.20508
1415.695, 167.6230
1416.745, 197.5391
1417.795, 14.74609
1418.845, 113.9453
1419.895, 72.83594
1420.945, 63.61328
1421.995, 84.87305
1423.044, 152.2715
1424.093, 116.1172
1425.142, 285.9805
1426.191, 281.8633
1427.240, 104.2344
1428.289, 7.335938
1429.337, 51.42188
1430.385, 84.50586
1431.433, 24.53906
1432.481, 217.5391
1433.529, 7.566406
1434.577, 109.4492
1435.624, 275.5078
1436.672, 195.6133
1437.719, 361.7676
1438.766, 163.9766
1439.812, 110.2441
1440.859, 36.58008
1441.905, 72.00781
1442.952, 102.4668
1443.998, 129.4023
1445.044, 333.3379
1446.090, 105.7969
1447.135, 140.6973
1448.181, 145.0254
1449.226, 374.2578
1450.271, 367.1387
1451.316, 230.5605
1452.361, 279.7441
1453.405, 99.46680
1454.450, 298.5254
1455.494, 412.0020
1456.538, 444.4512
1457.582, 152.6445
1458.626, 279.6582
1459.670, 239.0371
1460.713, 191.6250
1461.757, 377.9531
1462.800, 133.8730
1463.843, 316.6406
1464.886, 329.0508
1465.928, 419.4609
1466.971, 341.0234
1468.013, 314.7559
1469.055, 457.4102
1470.097, 506.5605
1471.139, 408.7402
1472.181, 504.2090
1473.222, 254.3789
1474.263, 307.5684
1475.305, 507.3594
1476.346, 617.7930
1477.386, 435.2520
1478.427, 550.7402
1479.468, 576.2520
1480.508, 667.7930
1481.548, 605.5566
1482.588, 680.9727
1483.628, 463.6113
1484.668, 465.2852
1485.707, 434.9941
1486.747, 564.7383
1487.786, 474.5215
1488.825, 563.3418
1489.864, 721.2031
1490.902, 754.2207
1491.941, 734.1035
1492.979, 996.0801
1494.017, 565.4492
1495.055, 909.8906
1496.093, 575.6309
1497.131, 678.8203
1498.168, 538.4922
1499.206, 641.2070
1500.243, 593.9629
1501.280, 815.8340
1502.317, 785.5312
1503.354, 757.9512
1504.390, 870.3809
1505.426, 866.6094
1506.463, 637.8574
1507.499, 779.1250
1508.535, 686.9414
1509.570, 587.6855
1510.606, 616.7852
1511.641, 678.4180
1512.676, 641.0527
1513.711, 604.6895
1514.746, 828.3242
1515.781, 742.9473
1516.816, 744.5508
1517.850, 838.1230
1518.884, 816.6562
1519.918, 807.1445
1520.952, 735.2090
1521.986, 925.9590
1523.019, 489.2832
1524.053, 603.5391
1525.086, 453.7266
1526.119, 582.8340
1527.152, 484.8574
1528.185, 767.7852
1529.217, 785.6133
1530.250, 951.3223
1531.282, 641.9023
1532.314, 444.3574
1533.346, 406.6816
1534.377, 613.9883
1535.409, 352.9766
1536.440, 87.01562
1537.472, 438.1230
1538.503, 508.9395
1539.534, 280.2070
1540.564, 651.4473
1541.595, 494.4492
1542.625, 663.5020
1543.656, 746.8496
1544.686, 749.1699
1545.716, 427.3105
1546.745, 524.3926
1547.775, 453.8125
1548.804, 376.5781
1549.834, 533.2148
1550.863, 259.6348
1551.892, 413.2559
1552.920, 396.9590
1553.949, 459.1738
1554.977, 353.1191
1556.006, 299.8281
1557.034, 416.0859
1558.062, 439.4727
1559.089, 316.5586
1560.117, 387.6445
1561.144, 114.3809
1562.172, 145.1543
1563.199, 307.9180
1564.226, 198.8965
1565.252, 279.3828
1566.279, 290.2207
1567.305, 21.66797
1568.332, 149.9180
1569.358, 433.4141
1570.384, 76.25781
1571.409, 121.8438
1572.435, 0.0000000E+00
##END=



