##NAMES=Dravite
##RRUFFID=R060286
##IDEAL CHEMISTRY=NaMg_3_Al_6_(Si_6_O_18_)(BO_3_)_3_(OH)_3_OH
##LOCALITY=Badakshan Province, Afghanistan
##OWNER=RRUFF
##SOURCE=Herb Obodda
##DESCRIPTION=Brown prismatic tourmaline crystal
##STATUS=The identification of this mineral has been confirmed by X-ray diffraction and chemical analysis
##URL=rruff.info/R060286
##MEASURED CHEMISTRY=(Na_0.48_Ca_0.38_[box]_0.14_)_Σ=1_(Mg_2.90_Ti_0.10_)_Σ=3_Al_6.00_(B_1.00_O_3_)_3_(Si_5.56_B_0.44_)_Σ=6_O_18_(OH)_4_; (OH) assumed from stoichiometry; B estimated by difference and charge balance
##PIN_ID=L00909
##ORIENTATION=Laser parallel to a* (1 0 0). Fiducial mark perpendicular to laser is parallel to -c [0 0 -1]
118.1340, 0.0000000E+00
119.3650, 143.5186
120.5960, 1.697754
121.8270, 17.32764
123.0580, 132.8999
124.2880, 281.1104
125.5190, 169.2783
126.7490, 182.5654
127.9790, 269.3848
129.2090, 376.5254
130.4390, 567.2900
131.6680, 734.4116
132.8980, 968.4102
134.1270, 995.0103
135.3560, 1015.419
136.5850, 1357.011
137.8140, 1468.823
139.0430, 1745.646
140.2710, 1914.048
141.5000, 1806.967
142.7280, 1816.417
143.9560, 1950.141
145.1840, 2099.539
146.4120, 2029.965
147.6390, 1871.621
148.8670, 1807.379
150.0940, 1619.762
151.3210, 1661.764
152.5490, 1424.377
153.7750, 1099.594
155.0020, 1041.410
156.2290, 728.8062
157.4550, 725.7598
158.6810, 388.2505
159.9080, 252.2578
161.1340, 46.76660
162.3590, 82.75879
163.5850, 12.78076
164.8110, 39.86523
166.0360, 49.50635
167.2610, 142.7207
168.4860, 148.5347
169.7110, 182.9678
170.9360, 73.02490
172.1610, 119.7070
173.3850, 168.0146
174.6100, 33.94824
175.8340, 70.50928
177.0580, 160.3018
178.2820, 210.4844
179.5050, 281.0381
180.7290, 432.9600
181.9520, 731.2510
183.1760, 1152.909
184.3990, 1798.933
185.6220, 2876.321
186.8450, 4051.072
188.0670, 4456.184
189.2900, 4629.657
190.5120, 5199.489
191.7340, 6316.652
192.9560, 7774.044
194.1780, 9255.643
195.4000, 10384.47
196.6220, 10695.51
197.8430, 10632.77
199.0640, 10801.24
200.2860, 11260.92
201.5070, 12327.82
202.7270, 13682.92
203.9480, 15213.24
205.1690, 17468.74
206.3890, 19731.43
207.6090, 22321.31
208.8290, 25375.38
210.0490, 28059.65
211.2690, 30975.13
212.4890, 32723.82
213.7080, 33463.70
214.9280, 33212.69
216.1470, 31771.74
217.3660, 29321.75
218.5850, 26690.84
219.8030, 23828.99
221.0220, 21336.35
222.2400, 19056.95
223.4590, 17167.79
224.6770, 15608.87
225.8950, 14820.20
227.1120, 14311.76
228.3300, 14053.57
229.5480, 14341.62
230.7650, 14840.92
231.9820, 15510.44
233.1990, 16404.21
234.4160, 17528.22
235.6330, 18985.46
236.8490, 20156.94
238.0660, 21530.66
239.2820, 23045.61
240.4980, 24192.79
241.7140, 25263.21
242.9300, 25364.86
244.1460, 25367.74
245.3610, 24473.85
246.5770, 23014.20
247.7920, 21410.77
249.0070, 19331.56
250.2220, 17095.59
251.4370, 14792.83
252.6510, 12946.31
253.8660, 10979.01
255.0800, 9439.926
256.2940, 8258.067
257.5080, 7573.426
258.7220, 7299.004
259.9360, 6597.801
261.1490, 5588.812
262.3630, 4971.039
263.5760, 4646.479
264.7890, 4026.877
266.0020, 3985.427
267.2150, 3742.126
268.4270, 3525.489
269.6400, 3296.317
270.8520, 3064.262
272.0640, 2903.288
273.2760, 2508.400
274.4880, 2364.641
275.7000, 1984.995
276.9120, 1882.471
278.1230, 1552.027
279.3340, 1337.646
280.5450, 974.3623
281.7560, 1009.220
282.9670, 775.2354
284.1780, 715.4336
285.3880, 599.8398
286.5980, 564.3877
287.8090, 359.9082
289.0190, 181.2881
290.2290, 175.3945
291.4380, 143.5225
292.6480, 162.5225
293.8570, 139.8506
295.0670, 131.3750
296.2760, 113.5117
297.4850, 129.6045
298.6930, 109.9346
299.9020, 148.6240
301.1110, 414.2451
302.3190, 372.2148
303.5270, 617.3770
304.7350, 823.7266
305.9430, 1004.262
307.1510, 1322.070
308.3580, 1719.713
309.5660, 1943.963
310.7730, 2513.378
311.9800, 2936.969
313.1870, 3151.711
314.3940, 3488.912
315.6010, 3318.767
316.8070, 3242.772
318.0130, 3049.812
319.2200, 2942.707
320.4260, 2483.212
321.6310, 2221.534
322.8370, 2129.485
324.0430, 1866.598
325.2480, 2045.872
326.4540, 2001.307
327.6590, 2089.899
328.8640, 2388.649
330.0680, 2531.555
331.2730, 2776.185
332.4780, 3042.828
333.6820, 3224.192
334.8860, 3458.709
336.0900, 3569.373
337.2940, 3951.186
338.4980, 4213.145
339.7010, 4460.250
340.9050, 4874.503
342.1080, 5422.900
343.3110, 5638.439
344.5140, 6146.126
345.7170, 6736.954
346.9200, 7551.926
348.1220, 8276.037
349.3240, 9368.291
350.5270, 10450.69
351.7290, 11691.22
352.9310, 13426.89
354.1320, 15289.70
355.3340, 17348.65
356.5350, 20122.75
357.7370, 22625.97
358.9380, 25748.33
360.1390, 29410.82
361.3400, 32716.46
362.5400, 36484.23
363.7410, 39857.12
364.9410, 43398.17
366.1410, 45457.35
367.3410, 47208.66
368.5410, 47920.11
369.7410, 47458.69
370.9400, 46132.40
372.1400, 43304.24
373.3390, 39959.20
374.5380, 36576.30
375.7370, 32411.53
376.9360, 28630.89
378.1350, 25347.37
379.3330, 22226.98
380.5310, 19404.71
381.7300, 17182.04
382.9280, 15207.56
384.1260, 13608.66
385.3230, 12219.88
386.5210, 11155.23
387.7180, 10382.69
388.9160, 9735.271
390.1130, 8911.972
391.3100, 8488.790
392.5060, 8180.725
393.7030, 7946.773
394.9000, 7925.936
396.0960, 7681.213
397.2920, 7562.602
398.4880, 7556.102
399.6840, 7295.713
400.8800, 7555.436
402.0750, 7257.266
403.2710, 7387.205
404.4660, 7091.252
405.6610, 6961.404
406.8560, 6511.664
408.0510, 6303.026
409.2450, 5747.504
410.4400, 5244.104
411.6340, 4724.310
412.8280, 4215.152
414.0220, 3677.016
415.2160, 3259.279
416.4100, 2847.236
417.6030, 2510.905
418.7970, 2152.154
419.9900, 1778.439
421.1830, 1752.035
422.3760, 1629.217
423.5690, 1255.665
424.7610, 1244.839
425.9540, 1159.822
427.1460, 1063.369
428.3380, 1111.005
429.5300, 1179.516
430.7220, 1054.440
431.9140, 1030.625
433.1050, 1032.738
434.2970, 995.0742
435.4880, 1066.612
436.6790, 1021.259
437.8700, 923.8594
439.0610, 990.3555
440.2510, 973.7266
441.4420, 859.0254
442.6320, 1106.119
443.8220, 1010.433
445.0120, 1000.627
446.2020, 1055.432
447.3910, 911.3262
448.5810, 983.2822
449.7700, 971.3291
450.9600, 870.4727
452.1490, 909.7070
453.3370, 942.0459
454.5260, 871.4941
455.7150, 823.0518
456.9030, 888.7393
458.0910, 863.5547
459.2800, 921.5039
460.4670, 989.5566
461.6550, 1044.783
462.8430, 1114.053
464.0300, 1220.391
465.2180, 1276.862
466.4050, 1368.416
467.5920, 1509.051
468.7790, 1708.766
469.9650, 1906.562
471.1520, 2094.435
472.3380, 2257.387
473.5250, 2626.416
474.7110, 2885.525
475.8970, 2830.709
477.0820, 3129.969
478.2680, 3175.303
479.4540, 3461.713
480.6390, 3500.196
481.8240, 3561.754
483.0090, 3814.385
484.1940, 3900.086
485.3780, 3854.859
486.5630, 4063.701
487.7470, 4202.614
488.9320, 4080.597
490.1160, 4267.647
491.3000, 4415.768
492.4830, 4539.953
493.6670, 4514.203
494.8500, 4361.523
496.0340, 4582.907
497.2170, 4582.355
498.4000, 4440.866
499.5820, 4515.441
500.7650, 4270.079
501.9480, 4198.777
503.1300, 3935.538
504.3120, 3778.357
505.4940, 3609.238
506.6760, 3385.917
507.8580, 3127.174
509.0390, 3012.229
510.2210, 2745.341
511.4020, 2612.510
512.5830, 2408.733
513.7640, 2262.012
514.9450, 1906.345
516.1250, 1757.730
517.3060, 1400.170
518.4860, 1452.661
519.6660, 1293.204
520.8460, 1219.799
522.0260, 1095.442
523.2060, 982.1348
524.3850, 1025.877
525.5650, 960.4775
526.7440, 1115.507
527.9230, 983.3916
529.1020, 1057.322
530.2810, 1113.300
531.4590, 1082.321
532.6380, 1168.388
533.8160, 1070.499
534.9940, 1210.651
536.1720, 1142.848
537.3500, 1047.084
538.5270, 1061.363
539.7050, 1023.682
540.8820, 821.0410
542.0590, 687.4395
543.2360, 694.8770
544.4130, 665.3516
545.5900, 472.8643
546.7660, 335.4141
547.9430, 395.0000
549.1190, 60.62109
550.2950, 300.2773
551.4710, 152.9678
552.6470, 12.69238
553.8220, 59.56348
554.9980, 112.8301
556.1730, 78.13574
557.3480, 141.4648
558.5230, 274.8496
559.6980, 192.3545
560.8730, 360.9404
562.0470, 395.6934
563.2220, 298.6309
564.3960, 298.7100
565.5700, 357.9307
566.7440, 333.3223
567.9170, 355.8555
569.0910, 404.5957
570.2640, 381.5146
571.4380, 333.6230
572.6110, 368.5703
573.7840, 244.3359
574.9570, 295.8809
576.1290, 193.5342
577.3020, 104.2734
578.4740, 188.0352
579.6460, 131.8857
580.8180, 34.77344
581.9900, 85.65234
583.1620, 23.79102
584.3330, 8.562500
585.5040, 2.722656
586.6760, 90.87988
587.8470, 97.09961
589.0180, 202.3799
590.1880, 130.7031
591.3590, 275.1055
592.5290, 335.5566
593.7000, 554.0654
594.8700, 413.6689
596.0400, 535.3359
597.2090, 627.1152
598.3790, 777.9766
599.5490, 834.8955
600.7180, 937.8584
601.8870, 903.8965
603.0560, 1100.970
604.2250, 1050.074
605.3940, 1271.190
606.5620, 1332.320
607.7300, 1301.509
608.8990, 1440.725
610.0670, 1618.982
611.2350, 1792.256
612.4020, 1905.561
613.5700, 2022.876
614.7370, 2316.227
615.9050, 2378.590
617.0720, 2650.967
618.2390, 2964.357
619.4060, 3068.762
620.5720, 3476.171
621.7390, 3854.587
622.9050, 4513.004
624.0710, 5018.424
625.2370, 5052.844
626.4030, 5292.264
627.5690, 5597.685
628.7340, 5958.105
629.9000, 6291.525
631.0650, 6299.941
632.2300, 6260.357
633.3950, 6076.770
634.5600, 6034.178
635.7240, 5896.580
636.8890, 5890.978
638.0530, 5727.367
639.2170, 5829.752
640.3810, 5958.127
641.5450, 6411.496
642.7080, 6814.856
643.8720, 7372.209
645.0350, 8000.551
646.1980, 8461.886
647.3610, 9378.210
648.5240, 9842.521
649.6870, 10455.83
650.8490, 11037.12
652.0120, 11493.40
653.1740, 11745.67
654.3360, 12213.92
655.4980, 12437.17
656.6600, 12919.39
657.8210, 13210.61
658.9830, 13788.82
660.1440, 14394.00
661.3050, 14769.17
662.4660, 15410.33
663.6270, 16097.48
664.7870, 16824.60
665.9480, 17451.71
667.1080, 17980.80
668.2680, 18750.88
669.4280, 18735.94
670.5880, 18916.98
671.7480, 19362.00
672.9070, 18621.01
674.0670, 18286.00
675.2260, 17630.96
676.3850, 16957.91
677.5440, 15934.84
678.7030, 15154.74
679.8610, 14470.63
681.0200, 13342.49
682.1780, 12786.34
683.3360, 12301.16
684.4940, 11656.95
685.6520, 11561.73
686.8090, 11602.49
687.9670, 11540.22
689.1240, 11834.93
690.2810, 11966.61
691.4380, 12278.27
692.5950, 12926.42
693.7520, 13695.03
694.9080, 14246.72
696.0650, 15035.10
697.2210, 15676.87
698.3770, 16532.03
699.5330, 17191.70
700.6880, 18155.43
701.8440, 18499.93
702.9990, 18411.95
704.1550, 18350.78
705.3100, 17859.98
706.4650, 17142.76
707.6190, 16062.44
708.7740, 14527.85
709.9290, 13253.28
711.0830, 11726.15
712.2370, 10233.87
713.3910, 8838.309
714.5450, 7769.346
715.6980, 6697.025
716.8520, 5923.926
718.0050, 5061.098
719.1580, 4593.146
720.3110, 3956.641
721.4640, 3463.581
722.6170, 3210.551
723.7700, 2944.720
724.9220, 2699.070
726.0740, 2374.396
727.2260, 2272.453
728.3780, 2164.953
729.5300, 2005.994
730.6810, 2022.265
731.8330, 2005.120
732.9840, 1805.532
734.1350, 1843.938
735.2860, 1798.176
736.4370, 1840.173
737.5880, 1638.441
738.7380, 1850.936
739.8880, 1630.264
741.0390, 1787.055
742.1890, 1758.529
743.3380, 1930.451
744.4880, 1990.489
745.6380, 2162.146
746.7870, 2313.349
747.9360, 2359.898
749.0850, 2398.734
750.2340, 2571.267
751.3830, 2810.362
752.5310, 3209.525
753.6800, 3294.451
754.8280, 3514.216
755.9760, 3745.461
757.1240, 3845.296
758.2720, 4082.780
759.4190, 4202.472
760.5670, 4072.214
761.7140, 4027.287
762.8610, 3849.854
764.0080, 3659.529
765.1550, 3511.221
766.3020, 3344.508
767.4480, 3199.834
768.5950, 3033.070
769.7410, 3125.744
770.8870, 3091.315
772.0330, 3012.397
773.1780, 2824.446
774.3240, 2936.460
775.4690, 2948.441
776.6140, 2981.387
777.7590, 2998.301
778.9040, 3091.180
780.0490, 3045.023
781.1940, 2977.833
782.3380, 3069.608
783.4820, 3144.350
784.6260, 3272.055
785.7700, 3332.727
786.9140, 3540.363
788.0580, 3560.965
789.2010, 3752.533
790.3450, 3910.066
791.4880, 4014.563
792.6310, 4177.027
793.7730, 4143.457
794.9160, 4310.853
796.0590, 4591.211
797.2010, 4444.537
798.3430, 4568.830
799.4850, 4553.087
800.6270, 4438.310
801.7690, 4362.497
802.9100, 4193.650
804.0520, 4001.767
805.1930, 3884.850
806.3340, 3827.898
807.4750, 3679.912
808.6160, 3615.892
809.7560, 3616.836
810.8970, 3557.746
812.0370, 3510.620
813.1770, 3558.460
814.3170, 3594.265
815.4570, 3529.036
816.5960, 3624.772
817.7360, 3439.473
818.8750, 3432.138
820.0140, 3473.770
821.1530, 3345.365
822.2920, 3120.926
823.4310, 3108.450
824.5690, 2894.940
825.7070, 2670.396
826.8460, 2485.816
827.9840, 2273.201
829.1220, 2046.551
830.2590, 1819.872
831.3970, 1733.180
832.5340, 1377.486
833.6710, 1201.787
834.8080, 1133.093
835.9450, 920.4404
837.0820, 790.8076
838.2190, 682.2363
839.3550, 633.7363
840.4910, 399.2842
841.6270, 293.8818
842.7630, 184.5420
843.8990, 52.25781
845.0350, 170.0215
846.1700, 212.8584
847.3060, 37.76367
848.4410, 37.70996
849.5760, 33.29492
850.7100, 108.3135
851.8450, 8.375977
852.9800, 75.45215
854.1140, 2.401367
855.2480, 87.75684
856.3820, 90.98340
857.5160, 79.30664
858.6500, 90.70703
859.7830, 178.2061
860.9170, 4.144531
862.0500, 119.5596
863.1830, 114.3984
864.3160, 25.37207
865.4480, 177.4346
866.5810, 53.66504
867.7130, 95.00098
868.8460, 231.4629
869.9780, 120.1221
871.1100, 308.9219
872.2410, 193.9609
873.3730, 103.1768
874.5050, 59.52148
875.6360, 168.9746
876.7670, 33.59277
877.8980, 13.30371
879.0290, 129.9023
880.1590, 114.0625
881.2900, 129.8252
882.4200, 11.85547
883.5500, 65.96680
884.6800, 46.81250
885.8100, 35.46387
886.9400, 94.16797
888.0690, 47.25098
889.1990, 33.23242
890.3280, 39.65820
891.4570, 15.02832
892.5860, 31.33301
893.7140, 134.5820
894.8430, 105.7861
895.9710, 242.9414
897.1000, 171.0596
898.2280, 269.1367
899.3560, 235.1943
900.4830, 223.2295
901.6110, 128.2354
902.7380, 294.1992
903.8660, 308.1396
904.9930, 195.0547
906.1200, 211.9316
907.2460, 385.7900
908.3730, 451.6201
909.5000, 388.4297
910.6260, 431.2188
911.7520, 368.9941
912.8780, 471.7461
914.0040, 521.4746
915.1290, 411.1777
916.2550, 526.8555
917.3800, 628.5020
918.5050, 603.1260
919.6300, 613.7168
920.7550, 563.2861
921.8800, 531.8213
923.0040, 674.3516
924.1290, 701.8701
925.2530, 679.3984
926.3770, 675.9424
927.5010, 695.4658
928.6250, 713.9014
929.7480, 914.4834
930.8720, 829.9766
931.9950, 904.4521
933.1180, 1059.896
934.2410, 920.3105
935.3640, 1123.692
936.4860, 1196.042
937.6090, 1307.360
938.7310, 1322.671
939.8530, 1361.979
940.9750, 1375.275
942.0970, 1547.546
943.2180, 1636.792
944.3400, 1729.023
945.4610, 1754.233
946.5820, 1763.413
947.7030, 1840.561
948.8240, 2221.680
949.9450, 2230.767
951.0650, 2356.825
952.1860, 2406.854
953.3060, 2576.852
954.4260, 2724.822
955.5460, 2800.760
956.6650, 2929.210
957.7850, 3002.551
958.9040, 3110.400
960.0230, 3164.222
961.1420, 3245.645
962.2610, 3354.778
963.3800, 3451.512
964.4990, 3494.219
965.6170, 3608.896
966.7350, 3533.545
967.8530, 3477.165
968.9710, 3626.757
970.0890, 3575.319
971.2070, 3554.853
972.3240, 3605.357
973.4410, 3602.832
974.5580, 3564.277
975.6750, 3517.694
976.7920, 3562.079
977.9090, 3484.131
979.0250, 3276.789
980.1410, 3245.681
981.2580, 3236.730
982.3740, 3081.987
983.4890, 3030.191
984.6050, 3243.807
985.7200, 2954.655
986.8360, 3009.719
987.9510, 2796.517
989.0660, 2885.142
990.1810, 2823.051
991.2950, 2962.698
992.4100, 2896.024
993.5240, 2820.579
994.6390, 2883.592
995.7530, 3025.001
996.8660, 2940.598
997.9800, 3080.474
999.0940, 3110.895
1000.207, 2996.732
1001.320, 3351.303
1002.433, 3253.246
1003.546, 3392.593
1004.659, 3565.904
1005.772, 3549.344
1006.884, 3796.984
1007.996, 3886.312
1009.108, 4104.375
1010.220, 4262.561
1011.332, 4548.534
1012.444, 4890.203
1013.555, 5214.670
1014.666, 5497.984
1015.777, 5875.637
1016.888, 5931.699
1017.999, 6309.377
1019.110, 6738.727
1020.220, 6820.338
1021.331, 7160.344
1022.441, 7470.242
1023.551, 7910.336
1024.661, 8295.550
1025.770, 8566.990
1026.880, 8901.630
1027.989, 9110.798
1029.098, 9396.919
1030.207, 9666.946
1031.316, 9822.736
1032.425, 10281.06
1033.533, 10509.34
1034.642, 10870.22
1035.750, 11106.65
1036.858, 11611.65
1037.966, 11719.75
1039.073, 11788.77
1040.181, 11893.74
1041.288, 12429.07
1042.396, 12379.16
1043.503, 12639.31
1044.610, 12562.78
1045.716, 12813.34
1046.823, 12787.64
1047.929, 13055.13
1049.036, 12784.21
1050.142, 12858.59
1051.248, 12608.20
1052.353, 12452.48
1053.459, 12187.57
1054.564, 12032.73
1055.670, 11621.25
1056.775, 11063.81
1057.880, 10864.71
1058.985, 10524.72
1060.089, 9935.448
1061.194, 9760.937
1062.298, 9549.979
1063.402, 9331.218
1064.506, 8960.637
1065.610, 8578.718
1066.713, 8620.775
1067.817, 8204.816
1068.920, 8086.951
1070.023, 7909.069
1071.126, 7663.771
1072.229, 7456.611
1073.332, 7217.822
1074.435, 6865.506
1075.537, 6517.848
1076.639, 6335.206
1077.741, 6086.297
1078.843, 6061.590
1079.945, 5766.609
1081.046, 5538.572
1082.148, 5444.473
1083.249, 5145.365
1084.350, 4769.248
1085.451, 4576.121
1086.551, 4542.984
1087.652, 4202.838
1088.752, 4043.682
1089.853, 4038.516
1090.953, 3685.342
1092.053, 3609.157
1093.152, 3632.965
1094.252, 3540.769
1095.351, 3546.562
1096.451, 3397.708
1097.550, 3241.685
1098.649, 3125.895
1099.748, 3025.455
1100.846, 2879.407
1101.945, 2911.152
1103.043, 2843.887
1104.141, 2889.616
1105.239, 2909.336
1106.337, 2957.049
1107.434, 2745.754
1108.532, 2858.452
1109.629, 2707.143
1110.726, 2694.828
1111.823, 2928.516
1112.920, 2677.197
1114.017, 2556.873
1115.113, 2690.553
1116.210, 2574.234
1117.306, 2674.939
1118.402, 2549.683
1119.498, 2510.441
1120.593, 2402.232
1121.689, 2265.036
1122.784, 2251.876
1123.879, 2086.753
1124.974, 1914.664
1126.069, 1782.613
1127.164, 1711.622
1128.259, 1464.646
1129.353, 1360.715
1130.447, 1164.827
1131.541, 925.9619
1132.635, 925.1582
1133.729, 870.3828
1134.822, 991.6475
1135.916, 820.9873
1137.009, 573.3750
1138.102, 667.8594
1139.195, 455.4102
1140.288, 519.0020
1141.380, 388.6260
1142.473, 283.3086
1143.565, 275.0146
1144.657, 333.7412
1145.749, 240.4678
1146.841, 220.1963
1147.932, 216.9736
1149.024, 110.7686
1150.115, 92.59570
1151.206, 112.4307
1152.297, 137.2871
1153.388, 125.3574
1154.479, 122.5752
1155.569, 104.9287
1156.659, 89.83008
1157.750, 40.74121
1158.839, 29.65820
1159.929, 60.57617
1161.019, 81.54688
1162.108, 20.46484
1163.198, 69.61914
1164.287, 54.74512
1165.376, 32.90625
1166.465, 16.91211
1167.553, 45.27148
1168.642, 29.48535
1169.730, 3.278320
1170.818, 64.96289
1171.906, 14.24414
1172.994, 42.94238
1174.082, 43.64160
1175.170, 64.23242
1176.257, 33.63477
1177.344, 29.06641
1178.431, 15.52148
1179.518, 24.99512
1180.605, 13.50879
1181.691, 32.99121
1182.778, 32.48047
1183.864, 24.05176
1184.950, 59.39355
1186.036, 94.16699
1187.122, 62.78613
1188.207, 147.4502
1189.292, 165.2021
1190.378, 33.05176
1191.463, 76.93066
1192.548, 53.86035
1193.632, 72.83105
1194.717, 43.85059
1195.801, 51.09570
1196.886, 54.04297
1197.970, 63.29102
1199.054, 29.41895
1200.137, 30.87988
1201.221, 64.18262
1202.305, 98.26465
1203.388, 56.39648
1204.471, 1.447266
1205.554, 10.72070
1206.637, 42.90527
1207.719, 12.53418
1208.802, 109.6387
1209.884, 29.39941
1210.966, 40.16113
1212.048, 129.9199
1213.130, 78.67676
1214.212, 217.4316
1215.293, 207.1826
1216.374, 197.9336
1217.456, 198.6826
1218.536, 206.4297
1219.617, 206.2754
1220.698, 282.9463
1221.778, 201.6934
1222.859, 209.4434
1223.939, 174.0518
1225.019, 396.7988
1226.099, 363.5469
1227.178, 304.2920
1228.258, 458.0352
1229.337, 343.7773
1230.417, 306.5176
1231.496, 209.2568
1232.574, 360.9951
1233.653, 399.7324
1234.732, 351.4668
1235.810, 254.2012
1236.888, 385.9346
1237.966, 409.6660
1239.044, 385.3965
1240.122, 218.1270
1241.199, 349.8555
1242.277, 393.5830
1243.354, 264.3105
1244.431, 329.0371
1245.508, 219.7617
1246.585, 367.4873
1247.661, 330.3809
1248.738, 260.9336
1249.814, 330.6543
1250.890, 341.3750
1251.966, 303.0928
1253.042, 339.8105
1254.117, 350.5264
1255.193, 268.2412
1256.268, 215.9541
1257.343, 350.6641
1258.418, 305.3730
1259.493, 195.0791
1260.567, 150.7812
1261.642, 265.4824
1262.716, 258.1807
1263.790, 258.8750
1264.864, 292.5664
1265.938, 298.2529
1267.011, 206.9365
1268.085, 319.6152
1269.158, 247.2881
1270.231, 333.9561
1271.304, 309.6211
1272.377, 357.2793
1273.450, 196.9326
1274.522, 209.5791
1275.594, 182.2207
1276.666, 173.8564
1277.738, 155.4873
1278.810, 198.1113
1279.882, 242.7295
1280.953, 344.3418
1282.025, 244.9473
1283.096, 204.5488
1284.167, 73.14258
1285.238, 287.7305
1286.308, 214.3125
1287.379, 154.8486
1288.449, 239.3311
1289.519, 28.89453
1290.589, 347.4502
1291.659, 117.8672
1292.729, 160.2080
1293.798, 259.4414
1294.868, 280.0039
1295.937, 138.3779
1297.006, 174.0840
1298.075, 133.7451
1299.143, 268.0059
1300.212, 99.36328
1301.280, 159.8086
1302.348, 191.4775
1303.416, 60.06836
1304.484, 96.33398
1305.552, 151.4893
1306.620, 180.9004
1307.687, 241.1133
1308.754, 249.4707
1309.821, 172.1045
1310.888, 220.1543
1311.955, 170.5293
1313.021, 172.5459
1314.088, 83.56055
1315.154, 195.6660
1316.220, 184.7178
1317.286, 236.4336
1318.352, 95.03516
1319.417, 144.9043
1320.483, 152.0068
1321.548, 118.5469
1322.613, 196.8828
1323.678, 297.0283
1324.743, 287.6113
1325.807, 227.8877
1326.872, 166.3848
1327.936, 124.7734
1329.000, 170.1699
1330.064, 80.81250
1331.128, 67.35352
1332.191, 176.7461
1333.255, 123.5459
1334.318, 257.6777
1335.381, 56.78418
1336.444, 185.7930
1337.507, 83.30957
1338.569, 32.72168
1339.632, 162.1904
1340.694, 104.7109
1341.756, 109.2344
1342.818, 192.7617
1343.880, 167.2930
1344.941, 217.0527
1346.003, 92.59082
1347.064, 212.1318
1348.125, 0.6767580
1349.186, 84.26270
1350.247, 181.9951
1351.308, 25.44922
1352.368, 130.4746
1353.428, 169.0342
1354.489, 163.5967
1355.549, 87.16406
1356.608, 105.7363
1357.668, 109.3125
1358.727, 75.89160
1359.787, 159.4775
1360.846, 117.0674
1361.905, 95.94238
1362.964, 158.2627
1364.022, 74.86719
1365.081, 49.47852
1366.139, 175.0947
1367.197, 96.71582
1368.255, 172.3438
1369.313, 49.97656
1370.371, 247.6152
1371.428, 116.2617
1372.486, 198.9141
1373.543, 67.57227
1374.600, 18.23926
1375.657, 292.9111
1376.713, 135.5908
1377.770, 183.2773
1378.826, 89.97168
1379.882, 20.67285
1380.938, 313.3809
1381.994, 130.0977
1383.050, 240.8213
1384.106, 201.5547
1385.161, 189.2949
1386.216, 283.0430
1387.271, 244.7998
1388.326, 332.5479
1389.381, 305.3037
1390.435, 140.0146
1391.490, 354.6670
1392.544, 268.3262
1393.598, 364.9922
1394.652, 228.6543
1395.705, 243.3242
1396.759, 251.0000
1397.812, 257.6826
1398.866, 243.3701
1399.919, 400.0537
1400.972, 269.7295
1402.024, 327.4092
1403.077, 148.0957
1404.129, 249.7891
1405.181, 322.4893
1406.233, 255.1973
1407.285, 271.9131
1408.337, 280.6367
1409.389, 226.3662
1410.440, 290.1055
1411.491, 293.8506
1412.542, 224.6025
1413.593, 220.3633
1414.644, 206.0713
1415.695, 96.90625
1416.745, 192.6367
1417.795, 251.4268
1418.845, 254.2236
1419.895, 212.0469
1420.945, 196.8984
1421.995, 132.7705
1423.044, 98.65430
1424.093, 154.5674
1425.142, 238.5020
1426.191, 318.4541
1427.240, 211.4404
1428.289, 82.45020
1429.337, 178.4893
1430.385, 172.5625
1431.433, 105.6729
1432.481, 161.8154
1433.529, 220.9902
1434.577, 60.19531
1435.624, 4.564453
1436.672, 113.7041
1437.719, 247.0146
1438.766, 80.35645
1439.812, 94.74414
1440.859, 150.1689
1441.905, 65.66406
1442.952, 85.22559
1443.998, 0.1171880
1445.044, 94.21777
1446.090, 49.09473
1447.135, 52.35254
1448.181, 29.57617
1449.226, 57.63867
1450.271, 36.04590
1451.316, 27.73242
1452.361, 234.5938
1453.405, 144.9395
1454.450, 207.3232
1455.494, 121.2441
1456.538, 72.76367
1457.582, 93.27832
1458.626, 150.2197
1459.670, 129.7344
1460.713, 131.2588
1461.757, 2.768555
1462.800, 74.30859
1463.843, 32.12109
1464.886, 48.42969
1465.928, 99.99414
1466.971, 229.5762
1468.013, 56.17285
1469.055, 149.7871
1470.097, 9.582031
1471.139, 76.06641
1472.181, 50.72949
1473.222, 105.4131
1474.263, 31.88574
1475.305, 35.16699
1476.346, 99.57227
1477.386, 13.67188
1478.427, 124.1045
1479.468, 37.90039
1480.508, 64.71582
1481.548, 227.5518
1482.588, 59.40820
1483.628, 66.28906
1484.668, 203.1943
1485.707, 2.124023
1486.747, 49.08301
1487.786, 80.06641
1488.825, 265.0771
1489.864, 264.1201
1490.902, 183.1914
1491.941, 254.2910
1492.979, 298.4248
1494.017, 132.5889
1495.055, 230.7852
1496.093, 323.0195
1497.131, 254.2871
1498.168, 198.5898
1499.206, 106.9277
1500.243, 322.2998
1501.280, 311.7070
1502.317, 454.1484
1503.354, 351.6240
1504.390, 373.1318
1505.426, 279.5176
1506.463, 376.0879
1507.499, 500.6865
1508.535, 339.3154
1509.570, 223.9199
1510.606, 293.5596
1511.641, 347.2285
1512.676, 481.0508
1513.711, 368.7324
1514.746, 209.1074
1515.781, 396.5791
1516.816, 306.8662
1517.850, 502.1748
1518.884, 318.2578
1519.918, 443.5869
1520.952, 379.9375
1521.986, 418.7627
1523.019, 446.1436
1524.053, 426.9326
1525.086, 581.2607
1526.119, 442.6016
1527.152, 297.9033
1528.185, 473.2139
1529.217, 404.5342
1530.250, 103.8604
1531.282, 364.1924
1532.314, 320.5244
1533.346, 378.8545
1534.377, 348.1797
1535.409, 182.4932
1536.440, 101.7910
1537.472, 286.0664
1538.503, 176.3164
1539.534, 297.5322
1540.564, 480.7109
1541.595, 199.8428
1542.625, 267.9189
1543.656, 152.0850
1544.686, 117.9434
1545.716, 102.1182
1546.745, 200.4355
1547.775, 176.8213
1548.804, 159.3408
1549.834, 123.1768
1550.863, 178.1523
1551.892, 125.2617
1552.920, 237.5264
1553.949, 334.9629
1554.977, 233.6074
1556.006, 244.5010
1557.034, 97.70020
1558.062, 123.2783
1559.089, 116.2900
1560.117, 120.6982
1561.144, 202.5557
1562.172, 210.9053
1563.199, 73.82520
1564.226, 194.4277
1565.252, 127.8457
1566.279, 161.2197
1567.305, 167.7275
1568.332, 5.359375
1569.358, 113.3359
1570.384, 131.3018
1571.409, 204.1650
1572.435, 0.0000000E+00
##END=



