##NAMES=Dravite
##RRUFFID=R050059
##IDEAL CHEMISTRY=NaMg_3_Al_6_(Si_6_O_18_)(BO_3_)_3_(OH)_3_OH
##LOCALITY=Nepal
##OWNER=RRUFF
##SOURCE=Rock Currier
##DESCRIPTION=Dark brown single crystal
##STATUS=The identification of this mineral has been confirmed by X-ray diffraction and chemical analysis
##URL=rruff.info/R050059
##MEASURED CHEMISTRY=(Na_0.79_[box]_0.16_Ca_0.05_)_Σ=1_(Mg_2.44_Al_0.29_[box]_0.14_Fe^2+^_0.08_Ti_0.05_)_Σ=3_Al_6.00_(BO_3_)_3_Si_6.00_O_18_(OH)_4_ ; H_2_O assumed ideal from stoichiometry; B_2_O_3_ estimated by difference
##PIN_ID=L00432
##ORIENTATION=Laser parallel to -c* (0 0 -1). Fiducial mark perpendicular to laser is parallel to a [1 0 0]
129.653, 0.000
131.042, 105.021
132.432, 135.881
133.821, 163.187
135.210, 247.402
136.599, 361.526
137.987, 377.580
139.376, 498.039
140.764, 513.450
142.152, 537.356
143.539, 578.690
144.927, 590.344
146.314, 611.631
147.701, 667.288
149.088, 739.163
150.474, 811.942
151.861, 734.266
153.247, 775.913
154.633, 602.191
156.018, 677.749
157.404, 464.746
158.789, 410.958
160.174, 234.220
161.559, 210.417
162.943, 215.464
164.327, 18.701
165.711, 9.119
167.095, 39.820
168.479, 30.178
169.862, 25.655
171.246, 25.528
172.628, 2.138
174.011, 39.654
175.394, 93.128
176.776, 120.421
178.158, 138.323
179.540, 268.068
180.922, 275.686
182.303, 330.266
183.684, 456.891
185.065, 517.637
186.446, 591.573
187.826, 630.757
189.207, 683.246
190.587, 690.089
191.967, 748.330
193.346, 743.010
194.726, 737.166
196.105, 778.827
197.484, 802.023
198.862, 890.779
200.241, 913.121
201.619, 1034.072
202.997, 1140.654
204.375, 1297.534
205.753, 1498.632
207.130, 1723.469
208.507, 1983.320
209.884, 2322.881
211.261, 2647.108
212.638, 2850.298
214.014, 3253.966
215.390, 3322.312
216.766, 3371.352
218.141, 3211.398
219.517, 3270.328
220.892, 3087.783
222.267, 3049.520
223.642, 2777.669
225.016, 2688.051
226.391, 2528.572
227.765, 2413.372
229.139, 2363.493
230.512, 2335.141
231.886, 2296.040
233.259, 2348.940
234.632, 2316.858
236.005, 2399.827
237.377, 2609.846
238.749, 2551.909
240.122, 2589.015
241.493, 2748.158
242.865, 2482.334
244.237, 2497.542
245.608, 2195.778
246.979, 2027.042
248.350, 1770.330
249.720, 1580.640
251.090, 1327.971
252.461, 1131.322
253.830, 885.689
255.200, 772.067
256.570, 666.452
257.939, 556.836
259.308, 534.993
260.677, 524.549
262.045, 536.872
263.414, 576.174
264.782, 628.458
266.150, 737.725
267.517, 740.978
268.885, 735.217
270.252, 742.445
271.619, 865.664
272.986, 926.875
274.353, 922.079
275.719, 946.279
277.085, 763.475
278.451, 748.671
279.817, 554.866
281.182, 467.063
282.548, 357.264
283.913, 295.469
285.278, 135.679
286.642, 211.897
288.007, 25.124
289.371, 46.361
290.735, 17.594
292.099, 46.772
293.462, 19.883
294.826, 7.592
296.189, 72.522
297.552, 86.518
298.914, 91.941
300.277, 117.454
301.639, 68.333
303.001, 84.130
304.363, 2.822
305.724, 106.632
307.086, 242.246
308.447, 248.040
309.808, 318.006
311.168, 316.156
312.529, 305.625
313.889, 278.396
315.249, 250.496
316.609, 126.777
317.969, 96.154
319.328, 16.614
320.687, 61.863
322.046, 110.292
323.405, 206.684
324.764, 276.049
326.122, 501.392
327.480, 446.724
328.838, 687.012
330.196, 879.820
331.553, 939.620
332.910, 1071.411
334.267, 1188.939
335.624, 1285.368
336.981, 1361.156
338.337, 1587.793
339.693, 1642.687
341.049, 1681.577
342.405, 1625.422
343.760, 1709.268
345.116, 1826.048
346.471, 1757.768
347.826, 1991.431
349.180, 2175.044
350.535, 1975.608
351.889, 1961.129
353.243, 2199.608
354.597, 2377.048
355.950, 2945.454
357.304, 2907.339
358.657, 3144.169
360.010, 3058.484
361.362, 3181.773
362.715, 3334.039
364.067, 3654.284
365.419, 3869.510
366.771, 4286.716
368.123, 4693.909
369.474, 5261.085
370.825, 5798.249
372.176, 6225.384
373.527, 6792.426
374.877, 6959.379
376.228, 7136.233
377.578, 6933.047
378.928, 6429.834
380.277, 6086.582
381.627, 5543.185
382.976, 5079.461
384.325, 4605.358
385.674, 4150.910
387.023, 3836.455
388.371, 3622.432
389.719, 3289.644
391.067, 3089.882
392.415, 2896.146
393.762, 2662.437
395.110, 2511.753
396.457, 2367.098
397.804, 2229.470
399.150, 1965.870
400.497, 1897.299
401.843, 1751.758
403.189, 1616.245
404.535, 1618.763
405.881, 1518.311
407.226, 1488.888
408.571, 1412.259
409.916, 1300.139
411.261, 1260.812
412.605, 1132.518
413.950, 1078.257
415.294, 1013.828
416.638, 927.834
417.981, 907.674
419.325, 864.548
420.668, 836.458
422.011, 785.402
423.354, 806.383
424.697, 667.399
426.039, 764.453
427.381, 623.542
428.723, 724.670
430.065, 762.835
431.406, 780.039
432.748, 789.279
434.089, 806.559
435.430, 888.878
436.770, 820.236
438.111, 765.633
439.451, 820.070
440.791, 757.547
442.131, 780.064
443.471, 745.622
444.810, 697.220
446.149, 759.815
447.488, 716.121
448.827, 627.502
450.166, 680.112
451.504, 563.959
452.842, 558.553
454.180, 566.805
455.518, 431.920
456.855, 484.408
458.193, 372.027
459.530, 365.177
460.867, 395.543
462.203, 327.614
463.540, 328.309
464.876, 295.610
466.212, 348.234
467.548, 370.056
468.883, 402.436
470.219, 374.529
471.554, 503.310
472.889, 387.293
474.224, 466.031
475.558, 405.580
476.892, 625.991
478.227, 596.284
479.561, 581.617
480.894, 686.062
482.228, 652.750
483.561, 684.630
484.894, 954.609
486.227, 934.622
487.559, 960.321
488.892, 1169.148
490.224, 1191.842
491.556, 1215.084
492.888, 1367.742
494.220, 1303.047
495.551, 1375.081
496.882, 1574.015
498.213, 1406.996
499.544, 1353.019
500.874, 1414.083
502.205, 1481.188
503.535, 1454.335
504.865, 1491.525
506.194, 1339.756
507.524, 1281.030
508.853, 1204.348
510.182, 1042.708
511.511, 977.114
512.840, 926.563
514.168, 851.929
515.496, 890.595
516.824, 774.179
518.152, 776.809
519.480, 738.484
520.807, 862.206
522.134, 805.973
523.461, 807.788
524.788, 996.649
526.114, 1051.558
527.441, 1165.514
528.767, 1315.518
530.093, 1516.568
531.418, 1568.667
532.744, 1771.815
534.069, 1648.011
535.394, 1964.256
536.719, 1869.552
538.044, 1986.896
539.368, 1840.292
540.693, 1900.741
542.017, 1687.244
543.340, 1808.804
544.664, 1716.429
545.987, 1622.136
547.311, 1747.921
548.634, 1622.812
549.956, 1679.803
551.279, 1621.904
552.601, 1680.138
553.923, 1631.480
555.245, 1666.947
556.567, 1643.768
557.889, 1700.284
559.210, 1576.156
560.531, 1552.178
561.852, 1478.319
563.173, 1280.602
564.493, 1342.020
565.813, 1152.578
567.133, 1018.246
568.453, 1150.052
569.773, 893.996
571.092, 908.046
572.412, 864.218
573.731, 776.504
575.049, 689.902
576.368, 608.378
577.686, 635.956
579.005, 501.614
580.323, 465.367
581.640, 426.199
582.958, 342.102
584.275, 256.066
585.593, 245.348
586.909, 250.191
588.226, 224.347
589.543, 235.565
590.859, 255.842
592.175, 188.180
593.491, 127.573
594.807, 265.022
596.122, 181.527
597.438, 221.084
598.753, 141.698
600.068, 268.364
601.382, 126.081
602.697, 223.850
604.011, 116.671
605.325, 213.543
606.639, 218.473
607.952, 275.456
609.266, 236.512
610.579, 314.636
611.892, 283.834
613.205, 216.099
614.518, 318.436
615.830, 275.845
617.142, 267.315
618.454, 334.844
619.766, 223.429
621.078, 309.066
622.389, 247.764
623.700, 230.519
625.011, 298.346
626.322, 218.273
627.632, 301.338
628.943, 276.541
630.253, 218.898
631.563, 246.411
632.872, 158.074
634.182, 187.881
635.491, 120.824
636.800, 37.869
638.109, 86.007
639.418, 11.218
640.726, 60.518
642.035, 130.217
643.343, 163.896
644.651, 243.563
645.958, 154.243
647.266, 210.910
648.573, 164.581
649.880, 176.242
651.187, 37.897
652.494, 12.519
653.800, 125.900
655.106, 215.358
656.412, 303.857
657.718, 445.395
659.024, 480.973
660.329, 677.590
661.634, 759.245
662.939, 886.939
664.244, 959.672
665.549, 1002.442
666.853, 1028.249
668.157, 987.093
669.461, 907.973
670.765, 921.889
672.069, 774.842
673.372, 906.829
674.675, 699.852
675.978, 754.909
677.281, 749.000
678.583, 683.125
679.886, 645.283
681.188, 595.474
682.490, 619.698
683.792, 657.955
685.093, 752.242
686.394, 585.561
687.696, 801.910
688.997, 745.291
690.297, 734.702
691.598, 811.142
692.898, 884.610
694.198, 967.108
695.498, 1023.635
696.798, 1232.611
698.097, 1246.729
699.397, 1409.276
700.696, 1478.008
701.995, 1800.944
703.293, 2060.225
704.592, 2143.965
705.890, 2520.525
707.188, 2672.414
708.486, 3121.723
709.784, 3390.466
711.081, 3760.319
712.378, 4198.721
713.675, 4633.663
714.972, 5029.851
716.269, 5308.669
717.565, 6060.590
718.862, 6517.856
720.158, 7313.446
721.453, 7840.443
722.749, 8580.005
724.045, 9196.574
725.340, 9702.812
726.635, 10152.078
727.930, 10224.414
729.224, 9945.692
730.519, 9595.726
731.813, 8818.229
733.107, 8506.670
734.401, 7609.476
735.694, 6776.030
736.988, 6549.006
738.281, 6150.305
739.574, 5789.525
740.867, 5729.857
742.160, 5719.345
743.452, 5488.942
744.744, 5748.432
746.036, 5657.370
747.328, 5646.601
748.620, 5894.812
749.911, 5953.160
751.202, 6441.281
752.493, 6459.279
753.784, 6667.507
755.075, 6745.195
756.365, 7172.866
757.655, 7300.520
758.945, 7248.156
760.235, 7595.771
761.525, 8083.370
762.814, 8070.950
764.103, 8438.510
765.392, 8756.049
766.681, 8813.565
767.969, 9001.063
769.258, 9208.540
770.546, 9205.995
771.834, 9233.427
773.122, 9520.836
774.409, 9658.222
775.697, 10075.584
776.984, 10452.924
778.271, 10890.234
779.558, 11587.525
780.844, 12124.784
782.131, 13052.021
783.417, 13839.232
784.703, 14296.413
785.989, 14753.563
787.274, 15280.687
788.560, 15387.779
789.845, 15484.839
791.130, 15541.868
792.415, 15038.860
793.699, 14685.822
794.983, 13892.748
796.268, 13838.809
797.552, 12723.215
798.835, 12226.588
800.119, 11947.282
801.402, 11310.848
802.686, 11052.562
803.969, 10955.733
805.251, 10928.508
806.534, 11014.643
807.816, 11166.020
809.098, 11997.594
810.380, 11634.089
811.662, 11610.545
812.944, 11806.966
814.225, 11183.346
815.506, 11159.688
816.787, 10595.991
818.068, 10042.252
819.349, 8998.477
820.629, 8284.656
821.909, 7580.797
823.189, 6766.897
824.469, 5912.955
825.749, 5078.971
827.028, 4409.944
828.307, 3988.875
829.586, 3478.763
830.865, 3151.606
832.144, 2869.407
833.422, 2620.162
834.700, 2464.873
835.978, 2212.538
837.256, 2085.159
838.534, 1912.734
839.811, 1845.264
841.088, 1501.746
842.365, 1363.182
843.642, 1235.570
844.919, 999.912
846.195, 821.206
847.472, 692.452
848.748, 492.649
850.023, 315.798
851.299, 292.893
852.575, 200.934
853.850, 109.917
855.125, 23.829
856.400, 39.641
857.674, 50.643
858.949, 46.067
860.223, 65.631
861.497, 166.348
862.771, 60.270
864.045, 124.341
865.318, 163.598
866.591, 155.060
867.864, 173.725
869.137, 214.603
870.410, 103.717
871.682, 188.006
872.955, 160.519
874.227, 182.240
875.499, 63.180
876.770, 174.279
878.042, 168.594
879.313, 57.124
880.584, 105.810
881.855, 88.676
883.126, 68.715
884.396, 65.083
885.667, 43.216
886.937, 57.335
888.207, 13.213
889.476, 53.104
890.746, 102.321
892.015, 218.450
893.284, 141.513
894.553, 192.498
895.822, 183.414
897.090, 191.258
898.359, 248.032
899.627, 211.742
900.895, 399.386
902.163, 363.974
903.430, 414.511
904.698, 440.991
905.965, 382.415
907.232, 541.779
908.499, 570.088
909.765, 534.344
911.032, 650.556
912.298, 674.724
913.564, 642.866
914.830, 710.967
916.095, 753.033
917.361, 827.062
918.626, 889.065
919.891, 795.033
921.156, 957.968
922.420, 864.866
923.685, 994.751
924.949, 1008.589
926.213, 1069.391
927.477, 1062.143
928.740, 1144.840
930.004, 1150.490
931.267, 1208.086
932.530, 1283.631
933.793, 1361.134
935.056, 1399.974
936.318, 1441.982
937.581, 1491.327
938.843, 1568.618
940.104, 1637.857
941.366, 1613.042
942.628, 1747.176
943.889, 1861.257
945.150, 1749.285
946.411, 1919.260
947.672, 1933.185
948.932, 2080.061
950.193, 2032.898
951.453, 2099.698
952.713, 2110.476
953.973, 2125.216
955.232, 2205.928
956.491, 2288.605
957.751, 2201.251
959.010, 2270.847
960.268, 2290.394
961.527, 2309.890
962.785, 2330.516
964.044, 2375.731
965.302, 2326.076
966.559, 2405.371
967.817, 2382.617
969.075, 2367.812
970.332, 2564.959
971.589, 2505.056
972.846, 2510.104
974.102, 2329.102
975.359, 2502.052
976.615, 2519.954
977.871, 2525.806
979.127, 2601.611
980.383, 2489.367
981.638, 2679.075
982.893, 2443.737
984.149, 2621.351
985.404, 2526.917
986.658, 2541.437
987.913, 2539.909
989.167, 2544.334
990.421, 2544.714
991.675, 2547.047
992.929, 2534.334
994.183, 2504.576
995.436, 2540.772
996.689, 2540.923
997.942, 2438.029
999.195, 2423.090
1000.448, 2430.838
1001.700, 2422.239
1002.952, 2499.048
1004.204, 2453.993
1005.456, 2543.737
1006.708, 2501.260
1007.959, 2496.421
1009.210, 2536.104
1010.461, 2581.951
1011.712, 2476.450
1012.963, 2555.511
1014.213, 2518.119
1015.464, 2635.600
1016.714, 2518.513
1017.964, 2787.865
1019.214, 2785.954
1020.463, 2718.391
1021.712, 2902.708
1022.962, 2902.659
1024.210, 2949.267
1025.459, 3014.448
1026.708, 3022.044
1027.956, 3118.611
1029.204, 3187.487
1030.452, 3272.317
1031.700, 3487.053
1032.948, 3530.829
1034.195, 3586.827
1035.442, 3653.333
1036.689, 3682.879
1037.936, 3977.039
1039.183, 3821.426
1040.429, 4166.370
1041.676, 4258.971
1042.922, 4352.667
1044.168, 4585.188
1045.413, 4678.528
1046.659, 4851.735
1047.904, 5115.035
1049.149, 5138.881
1050.394, 5372.708
1051.639, 5437.661
1052.884, 5303.790
1054.128, 5498.416
1055.372, 5503.052
1056.616, 5647.431
1057.860, 5592.327
1059.104, 5567.410
1060.347, 5694.244
1061.590, 5851.278
1062.833, 5802.417
1064.076, 5910.002
1065.319, 6009.039
1066.561, 6054.966
1067.803, 6138.691
1069.046, 6097.614
1070.287, 6090.892
1071.529, 6035.307
1072.771, 5919.527
1074.012, 5765.635
1075.253, 5513.987
1076.494, 5179.590
1077.735, 4854.353
1078.975, 4619.902
1080.216, 4374.647
1081.456, 4062.646
1082.696, 3750.054
1083.936, 3584.778
1085.175, 3281.496
1086.415, 3136.207
1087.654, 2956.911
1088.893, 2734.609
1090.132, 2597.301
1091.371, 2382.987
1092.609, 2396.668
1093.847, 2253.344
1095.085, 2124.014
1096.323, 2062.681
1097.561, 1980.342
1098.799, 1917.000
1100.036, 1841.655
1101.273, 1677.305
1102.510, 1746.953
1103.747, 1681.597
1104.983, 1661.237
1106.220, 1755.875
1107.456, 1682.510
1108.692, 1552.143
1109.928, 1605.773
1111.163, 1555.402
1112.399, 1597.029
1113.634, 1490.655
1114.869, 1443.280
1116.104, 1479.905
1117.339, 1429.528
1118.573, 1438.151
1119.808, 1400.775
1121.042, 1338.398
1122.276, 1383.475
1123.509, 1355.011
1124.743, 1368.274
1125.976, 1401.901
1127.210, 1229.531
1128.443, 1307.162
1129.675, 1372.796
1130.908, 1220.433
1132.141, 1411.072
1133.373, 1307.715
1134.605, 1390.362
1135.837, 1226.014
1137.068, 1210.668
1138.300, 1150.328
1139.531, 1077.992
1140.762, 808.661
1141.993, 738.335
1143.224, 668.017
1144.455, 548.704
1145.685, 569.398
1146.915, 414.104
1148.145, 400.818
1149.375, 375.549
1150.605, 341.305
1151.834, 325.588
1153.063, 321.855
1154.292, 283.657
1155.521, 310.493
1156.750, 297.392
1157.978, 311.343
1159.207, 216.349
1160.435, 248.417
1161.663, 330.569
1162.891, 239.782
1164.118, 304.071
1165.345, 284.448
1166.573, 255.924
1167.800, 263.495
1169.026, 183.166
1170.253, 215.938
1171.480, 163.803
1172.706, 200.758
1173.932, 179.816
1175.158, 290.937
1176.383, 180.152
1177.609, 222.466
1178.834, 257.842
1180.059, 151.299
1181.284, 203.829
1182.509, 128.423
1183.734, 192.051
1184.958, 179.739
1186.182, 81.462
1187.406, 202.241
1188.630, 132.056
1189.854, 0.102
1191.077, 125.759
1192.301, 11.642
1193.524, 49.546
1194.747, 4.469
1195.969, 2.035
1197.192, 14.187
1198.414, 18.332
1199.636, 49.691
1200.858, 2.719
1202.080, 14.263
1203.302, 36.255
1204.523, 13.279
1205.744, 7.722
1206.966, 50.700
1208.186, 54.409
1209.407, 125.690
1210.628, 64.738
1211.848, 90.804
1213.068, 80.901
1214.288, 125.025
1215.508, 88.198
1216.727, 94.402
1217.947, 78.640
1219.166, 172.905
1220.385, 34.246
1221.604, 77.595
1222.822, 22.971
1224.041, 49.650
1225.259, 21.724
1226.477, 66.898
1227.695, 7.476
1228.913, 59.849
1230.130, 67.758
1231.348, 89.369
1232.565, 41.984
1233.782, 99.603
1234.999, 42.224
1236.215, 56.859
1237.432, 181.507
1238.648, 104.168
1239.864, 195.842
1241.080, 156.530
1242.296, 179.230
1243.511, 234.944
1244.726, 157.671
1245.942, 271.412
1247.156, 222.167
1248.371, 280.934
1249.586, 448.715
1250.800, 288.510
1252.014, 295.318
1253.228, 419.141
1254.442, 252.976
1255.656, 393.825
1256.869, 378.688
1258.083, 328.565
1259.296, 413.455
1260.509, 373.774
1261.722, 382.276
1262.934, 367.208
1264.147, 403.152
1265.359, 389.111
1266.571, 440.083
1267.783, 338.067
1268.994, 373.079
1270.206, 394.088
1271.417, 320.116
1272.628, 439.150
1273.839, 314.198
1275.050, 347.525
1276.260, 469.697
1277.471, 238.779
1278.681, 371.094
1279.891, 376.199
1281.101, 297.603
1282.310, 340.729
1283.520, 286.021
1284.729, 327.315
1285.938, 334.750
1287.147, 181.052
1288.356, 339.550
1289.564, 326.012
1290.773, 256.786
1291.981, 319.252
1293.189, 278.868
1294.397, 208.565
1295.604, 267.981
1296.812, 223.547
1298.019, 199.974
1299.226, 291.681
1300.433, 109.251
1301.640, 242.372
1302.846, 191.800
1304.053, 168.444
1305.259, 221.770
1306.465, 206.188
1307.671, 215.021
1308.876, 183.723
1310.082, 191.910
1311.287, 249.622
1312.492, 200.121
1313.697, 160.645
1314.902, 169.731
1316.106, 256.324
1317.310, 194.090
1318.515, 254.912
1319.719, 150.611
1320.922, 269.585
1322.126, 304.960
1323.329, 237.666
1324.533, 239.908
1325.736, 241.791
1326.939, 238.330
1328.141, 340.175
1329.344, 277.105
1330.546, 343.684
1331.748, 248.597
1332.950, 172.159
1334.152, 359.863
1335.354, 284.818
1336.555, 232.361
1337.757, 314.022
1338.958, 274.456
1340.159, 258.873
1341.359, 361.238
1342.560, 186.191
1343.760, 264.001
1344.960, 399.767
1346.160, 259.835
1347.360, 401.854
1348.560, 261.463
1349.759, 261.387
1350.959, 364.039
1352.158, 218.899
1353.357, 275.474
1354.555, 412.206
1355.754, 168.082
1356.952, 318.445
1358.151, 242.284
1359.349, 186.376
1360.546, 228.643
1361.744, 198.561
1362.941, 248.206
1364.139, 287.937
1365.336, 155.712
1366.533, 224.175
1367.730, 248.455
1368.926, 108.354
1370.123, 217.397
1371.319, 220.166
1372.515, 96.613
1373.711, 176.568
1374.906, 142.265
1376.102, 111.775
1377.297, 188.187
1378.492, 144.511
1379.687, 197.823
1380.882, 235.804
1382.077, 221.464
1383.271, 327.134
1384.465, 217.812
1385.659, 218.499
1386.853, 341.193
1388.047, 333.895
1389.240, 223.605
1390.434, 298.323
1391.627, 223.047
1392.820, 395.778
1394.013, 324.515
1395.205, 240.257
1396.398, 406.005
1397.590, 246.759
1398.782, 242.516
1399.974, 311.274
1401.166, 276.035
1402.357, 232.797
1403.549, 290.559
1404.740, 145.320
1405.931, 285.079
1407.122, 230.824
1408.313, 153.545
1409.503, 240.206
1410.693, 131.847
1411.883, 105.438
1413.073, 166.978
1414.263, 110.497
1415.453, 149.002
1416.642, 162.471
1417.831, 51.895
1419.020, 93.227
1420.209, 144.527
1421.398, 66.791
1422.587, 150.010
1423.775, 53.187
1424.963, 125.338
1426.151, 87.460
1427.339, 90.543
1428.526, 60.597
1429.714, 95.623
1430.901, 52.625
1432.088, 64.611
1433.275, 28.604
1434.462, 4.596
1435.648, 47.567
1436.835, 14.449
1438.021, 41.372
1439.207, 60.832
1440.393, 9.188
1441.579, 49.717
1442.764, 73.447
1443.949, 96.654
1445.135, 117.338
1446.320, 71.404
1447.504, 22.565
1448.689, 135.820
1449.873, 60.156
1451.058, 79.520
1452.242, 60.892
1453.426, 22.728
1454.609, 28.661
1455.793, 143.058
1456.976, 68.538
1458.159, 136.876
1459.342, 100.297
1460.525, 2.727
1461.708, 126.166
1462.890, 83.615
1464.073, 16.074
1465.255, 138.547
1466.437, 22.999
1467.619, 108.499
1468.800, 252.039
1469.982, 122.578
1471.163, 112.531
1472.344, 194.302
1473.525, 46.489
1474.706, 248.878
1475.886, 175.164
1477.066, 119.150
1478.247, 307.340
1479.427, 145.998
1480.607, 197.759
1481.786, 276.007
1482.966, 153.665
1484.145, 261.294
1485.324, 201.572
1486.503, 105.326
1487.682, 242.848
1488.860, 205.342
1490.039, 39.646
1491.217, 258.994
1492.395, 148.833
1493.573, 105.296
1494.751, 164.712
1495.928, 43.125
1497.106, 113.852
1498.283, 164.486
1499.460, 92.787
1500.637, 144.384
1501.814, 105.198
1502.990, 48.237
1504.166, 226.633
1505.342, 135.972
1506.518, 89.688
1507.694, 224.051
1508.870, 8.459
1510.045, 110.463
1511.221, 135.307
1512.396, 34.311
1513.571, 163.484
1514.745, 137.776
1515.920, 1.559
1517.094, 77.245
1518.269, 75.436
1519.443, 0.000
##END=



