##NAMES=Dravite
##RRUFFID=R050059
##IDEAL CHEMISTRY=NaMg_3_Al_6_(Si_6_O_18_)(BO_3_)_3_(OH)_3_OH
##LOCALITY=Nepal
##OWNER=RRUFF
##SOURCE=Rock Currier
##DESCRIPTION=Dark brown single crystal
##STATUS=The identification of this mineral has been confirmed by X-ray diffraction and chemical analysis
##URL=rruff.info/R050059
##MEASURED CHEMISTRY=(Na_0.79_[box]_0.16_Ca_0.05_)_Σ=1_(Mg_2.44_Al_0.29_[box]_0.14_Fe^2+^_0.08_Ti_0.05_)_Σ=3_Al_6.00_(BO_3_)_3_Si_6.00_O_18_(OH)_4_ ; H_2_O assumed ideal from stoichiometry; B_2_O_3_ estimated by difference
##PIN_ID=L00432
##ORIENTATION=Laser parallel to -c* (0 0 -1). Fiducial mark perpendicular to laser is parallel to a [1 0 0]
128.263, 0.000
129.653, 0.697
131.042, 241.667
132.432, 217.213
133.821, 180.025
135.210, 343.813
136.599, 382.123
137.987, 499.603
139.376, 631.909
140.764, 639.084
142.152, 712.056
143.539, 739.954
144.927, 760.332
146.314, 755.806
147.701, 795.186
149.088, 809.251
150.474, 819.640
151.861, 832.371
153.247, 785.839
154.633, 775.870
156.018, 765.376
157.404, 531.116
158.789, 478.915
160.174, 329.646
161.559, 228.220
162.943, 169.570
164.327, 40.651
165.711, 19.570
167.095, 4.110
168.479, 8.480
169.862, 61.817
171.246, 1.927
172.628, 8.280
174.011, 96.440
175.394, 165.275
176.776, 174.874
178.158, 271.713
179.540, 299.684
180.922, 292.879
182.303, 391.385
183.684, 490.948
185.065, 559.642
186.446, 638.530
187.826, 658.671
189.207, 775.119
190.587, 714.920
191.967, 742.117
193.346, 779.749
194.726, 835.850
196.105, 791.449
197.484, 887.575
198.862, 984.254
200.241, 961.512
201.619, 1052.369
202.997, 1205.850
204.375, 1396.972
205.753, 1489.925
207.130, 1830.005
208.507, 1996.877
209.884, 2367.330
211.261, 2636.317
212.638, 2938.475
214.014, 3195.117
215.390, 3269.917
216.766, 3393.350
218.141, 3351.750
219.517, 3339.498
220.892, 3229.771
222.267, 3019.962
223.642, 2813.915
225.016, 2748.036
226.391, 2461.697
227.765, 2480.246
229.139, 2413.855
230.512, 2345.462
231.886, 2451.053
233.259, 2397.614
234.632, 2547.207
236.005, 2518.846
237.377, 2764.530
238.749, 2711.254
240.122, 2699.012
241.493, 2730.962
242.865, 2523.624
244.237, 2618.469
245.608, 2224.338
246.979, 2076.229
248.350, 1739.142
249.720, 1586.072
251.090, 1261.019
252.461, 1127.977
253.830, 885.943
255.200, 792.916
256.570, 660.887
257.939, 618.840
259.308, 560.768
260.677, 591.667
262.045, 574.540
263.414, 591.388
264.782, 633.214
266.150, 680.018
267.517, 718.805
268.885, 839.575
270.252, 787.329
271.619, 925.070
272.986, 965.798
274.353, 1020.517
275.719, 901.228
277.085, 807.932
278.451, 735.630
279.817, 539.325
281.182, 490.018
282.548, 368.709
283.913, 303.403
285.278, 165.099
286.642, 118.798
288.007, 18.502
289.371, 61.203
290.735, 19.146
292.099, 45.412
293.462, 40.430
294.826, 137.579
296.189, 158.756
297.552, 141.899
298.914, 158.970
300.277, 191.946
301.639, 162.827
303.001, 159.628
304.363, 161.236
305.724, 125.389
307.086, 187.142
308.447, 213.076
309.808, 308.189
311.168, 320.530
312.529, 276.250
313.889, 263.379
315.249, 214.799
316.609, 136.357
317.969, 114.022
319.328, 103.787
320.687, 116.759
322.046, 170.187
323.405, 221.443
324.764, 338.426
326.122, 447.409
327.480, 577.354
328.838, 709.458
330.196, 828.313
331.553, 947.065
332.910, 1109.387
334.267, 1260.324
335.624, 1300.151
336.981, 1446.228
338.337, 1408.433
339.693, 1631.856
341.049, 1688.192
342.405, 1522.633
343.760, 1721.000
345.116, 1743.299
346.471, 1688.535
347.826, 1841.713
349.180, 1810.835
350.535, 1918.906
351.889, 1989.931
353.243, 2108.909
354.597, 2287.217
355.950, 2548.746
357.304, 2705.609
358.657, 2862.439
360.010, 3119.237
361.362, 3261.008
362.715, 3472.750
364.067, 3702.468
365.419, 4019.153
366.771, 4407.837
368.123, 4785.494
369.474, 5323.130
370.825, 5820.733
372.176, 6348.242
373.527, 6795.628
374.877, 6822.925
376.228, 7070.190
377.578, 7097.432
378.928, 6674.652
380.277, 6021.761
381.627, 5498.611
382.976, 4995.111
384.325, 4591.239
385.674, 4127.062
387.023, 3942.695
388.371, 3496.215
389.719, 3284.746
391.067, 3078.298
392.415, 2852.875
393.762, 2652.476
395.110, 2570.101
396.457, 2389.750
397.804, 2327.425
399.150, 2145.051
400.497, 1830.852
401.843, 1821.604
403.189, 1687.384
404.535, 1571.190
405.881, 1511.024
407.226, 1472.887
408.571, 1435.778
409.916, 1230.697
411.261, 1248.646
412.605, 1133.624
413.950, 1181.633
415.294, 943.673
416.638, 956.744
417.981, 914.846
419.325, 924.980
420.668, 917.148
422.011, 712.348
423.354, 829.582
424.697, 734.850
426.039, 792.152
427.381, 658.490
428.723, 780.862
430.065, 752.271
431.406, 775.715
432.748, 780.195
434.089, 836.712
435.430, 816.913
436.770, 886.857
438.111, 819.485
439.451, 849.151
440.791, 901.855
442.131, 810.598
443.471, 790.378
444.810, 708.117
446.149, 818.649
447.488, 736.131
448.827, 702.696
450.166, 638.341
451.504, 595.546
452.842, 546.995
454.180, 521.600
455.518, 502.040
456.855, 481.798
458.193, 494.943
459.530, 469.286
460.867, 434.089
462.203, 429.651
463.540, 375.995
464.876, 326.834
466.212, 449.648
467.548, 412.522
468.883, 403.590
470.219, 485.104
471.554, 468.729
472.889, 464.664
474.224, 518.472
475.558, 615.190
476.892, 584.069
478.227, 717.986
479.561, 577.422
480.894, 760.620
482.228, 776.665
483.561, 771.934
484.894, 1110.026
486.227, 1149.233
487.559, 1095.535
488.892, 1333.251
490.224, 1339.041
491.556, 1423.835
492.888, 1569.448
494.220, 1459.540
495.551, 1533.141
496.882, 1516.171
498.213, 1576.250
499.544, 1589.369
500.874, 1662.527
502.205, 1617.726
503.535, 1616.964
504.865, 1532.242
506.194, 1443.561
507.524, 1385.920
508.853, 1270.320
510.182, 1193.764
511.511, 1114.249
512.840, 1093.776
514.168, 1120.347
515.496, 873.960
516.824, 960.618
518.152, 806.318
519.480, 768.063
520.807, 997.853
522.134, 857.688
523.461, 907.567
524.788, 1140.493
526.114, 1278.463
527.441, 1269.479
528.767, 1453.540
530.093, 1685.649
531.418, 1756.803
532.744, 1929.003
534.069, 1883.253
535.394, 2026.550
536.719, 1967.896
538.044, 2047.290
539.368, 2083.732
540.693, 2012.227
542.017, 1897.773
543.340, 2070.381
544.664, 1865.053
545.987, 1870.808
547.311, 1863.652
548.634, 1770.598
549.956, 1801.648
551.279, 1712.807
552.601, 1816.079
553.923, 1787.461
555.245, 1717.964
556.567, 1659.590
557.889, 1602.814
559.210, 1521.214
560.531, 1484.204
561.852, 1295.319
563.173, 1248.566
564.493, 1135.931
565.813, 1127.432
567.133, 1000.043
568.453, 1008.780
569.773, 914.616
571.092, 712.627
572.412, 764.738
573.731, 649.968
575.049, 590.312
576.368, 487.766
577.686, 504.320
579.005, 400.973
580.323, 296.720
581.640, 400.546
582.958, 421.443
584.275, 350.408
585.593, 369.439
586.909, 257.537
588.226, 207.697
589.543, 208.917
590.859, 197.195
592.175, 236.531
593.491, 203.924
594.807, 219.374
596.122, 189.877
597.438, 181.436
598.753, 133.047
600.068, 142.612
601.382, 86.428
602.697, 142.195
604.011, 175.014
605.325, 158.884
606.639, 191.811
607.952, 206.799
609.266, 205.866
610.579, 250.001
611.892, 268.222
613.205, 193.513
614.518, 298.873
615.830, 243.289
617.142, 257.758
618.454, 290.281
619.766, 222.857
621.078, 335.484
622.389, 238.164
623.700, 209.919
625.011, 277.751
626.322, 228.693
627.632, 246.336
628.943, 274.958
630.253, 222.314
631.563, 180.829
632.872, 113.490
634.182, 187.295
635.491, 109.229
636.800, 123.271
638.109, 103.416
639.418, 84.660
640.726, 101.027
642.035, 173.682
643.343, 167.327
644.651, 229.962
645.958, 110.604
647.266, 148.225
648.573, 209.831
649.880, 172.440
651.187, 15.043
652.494, 46.609
653.800, 64.860
655.106, 153.369
656.412, 268.917
657.718, 472.505
659.024, 494.133
660.329, 718.799
661.634, 799.504
662.939, 797.248
664.244, 984.028
665.549, 1004.847
666.853, 1010.702
668.157, 1008.594
669.461, 940.522
670.765, 1003.486
672.069, 902.362
673.372, 959.521
674.675, 757.590
675.978, 702.694
677.281, 659.832
678.583, 637.003
679.886, 615.208
681.188, 702.445
682.490, 650.714
683.792, 589.016
685.093, 669.349
686.394, 638.713
687.696, 756.108
688.997, 694.533
690.297, 713.988
691.598, 915.473
692.898, 828.986
694.198, 1022.528
695.498, 1028.097
696.798, 1249.880
698.097, 1304.026
699.397, 1468.352
700.696, 1564.216
701.995, 1897.640
703.293, 2023.117
704.592, 2262.111
705.890, 2514.236
707.188, 2684.503
708.486, 3146.105
709.784, 3468.916
711.081, 3854.730
712.378, 4147.744
713.675, 4611.241
714.972, 5144.097
716.269, 5415.378
717.565, 6339.043
718.862, 6594.036
720.158, 7385.777
721.453, 8012.057
722.749, 8752.028
724.045, 9276.177
725.340, 9838.925
726.635, 10293.476
727.930, 10246.767
729.224, 10008.987
730.519, 9730.170
731.813, 8810.714
733.107, 8518.333
734.401, 7605.849
735.694, 6832.518
736.988, 6565.802
738.281, 6197.013
739.574, 5897.952
740.867, 5778.610
742.160, 5768.753
743.452, 5646.270
744.744, 5677.887
746.036, 5677.057
747.328, 5765.881
748.620, 5954.544
749.911, 6063.283
751.202, 6234.589
752.493, 6459.860
753.784, 6608.044
755.075, 6925.877
756.365, 7183.599
757.655, 7391.303
758.945, 7588.990
760.235, 7796.657
761.525, 8084.307
762.814, 8191.937
764.103, 8599.544
765.392, 9027.136
766.681, 8974.704
767.969, 9282.251
769.258, 9269.778
770.546, 9297.281
771.834, 9474.762
773.122, 9592.220
774.409, 9819.653
775.697, 10237.064
776.984, 10694.451
778.271, 11121.813
779.558, 11669.149
780.844, 12336.457
782.131, 13433.744
783.417, 14081.000
784.703, 14648.227
785.989, 14945.424
787.274, 15492.597
788.560, 15639.733
789.845, 15606.839
791.130, 15493.911
792.415, 15310.950
793.699, 14997.958
794.983, 13964.930
796.268, 13860.160
797.552, 12873.348
798.835, 12106.677
800.119, 12067.904
801.402, 11532.726
802.686, 11146.474
803.969, 11188.228
805.251, 11241.178
806.534, 11157.653
807.816, 11493.644
809.098, 11680.217
810.380, 11836.751
811.662, 11843.246
812.944, 11764.732
814.225, 11416.121
815.506, 11242.500
816.787, 10728.839
818.068, 10065.137
819.349, 9021.391
820.629, 8427.609
821.909, 7533.785
823.189, 6729.918
824.469, 5906.008
825.749, 5192.056
827.028, 4436.060
828.307, 3960.022
829.586, 3528.939
830.865, 3144.812
832.144, 2949.643
833.422, 2717.427
834.700, 2543.166
835.978, 2290.859
837.256, 2039.506
838.534, 1976.108
839.811, 1897.662
841.088, 1564.170
842.365, 1347.630
843.642, 1227.042
844.919, 987.407
846.195, 855.723
847.472, 631.990
848.748, 527.208
850.023, 374.377
851.299, 298.495
852.575, 121.558
853.850, 99.553
855.125, 11.477
856.400, 3.705
857.674, 58.001
858.949, 58.441
860.223, 75.026
861.497, 94.766
862.771, 80.672
864.045, 111.188
865.318, 128.978
866.591, 135.406
867.864, 124.023
869.137, 97.827
870.410, 134.803
871.682, 154.970
872.955, 102.341
874.227, 173.888
875.499, 72.650
876.770, 138.573
878.042, 115.692
879.313, 143.997
880.584, 123.501
881.855, 106.195
883.126, 89.378
884.396, 79.118
885.667, 32.332
886.937, 30.688
888.207, 17.187
889.476, 43.181
890.746, 102.442
892.015, 112.618
893.284, 123.710
894.553, 147.724
895.822, 154.661
897.090, 229.522
898.359, 222.324
899.627, 270.060
900.895, 305.731
902.163, 284.343
903.430, 396.894
904.698, 377.387
905.965, 406.819
907.232, 487.192
908.499, 517.508
909.765, 545.784
911.032, 601.004
912.298, 615.189
913.564, 697.343
914.830, 764.444
916.095, 739.522
917.361, 736.567
918.626, 764.583
919.891, 783.568
921.156, 844.620
922.420, 837.424
923.685, 970.298
924.949, 1008.118
926.213, 1027.901
927.477, 1060.638
928.740, 1126.319
930.004, 1202.973
931.267, 1138.573
932.530, 1277.119
933.793, 1351.611
935.056, 1282.050
936.318, 1466.434
937.581, 1383.764
938.843, 1539.041
940.104, 1637.264
941.366, 1631.434
942.628, 1749.549
943.889, 1728.611
945.150, 1811.620
946.411, 1904.576
947.672, 2038.479
948.932, 2043.338
950.193, 2099.191
951.453, 2102.949
952.713, 2126.709
953.973, 2208.427
955.232, 2236.107
956.491, 2289.758
957.751, 2306.448
959.010, 2287.940
960.268, 2308.458
961.527, 2333.924
962.785, 2311.339
964.044, 2380.703
965.302, 2390.017
966.559, 2517.279
967.817, 2426.491
969.075, 2403.652
970.332, 2525.764
971.589, 2477.824
972.846, 2538.835
974.102, 2434.797
975.359, 2499.708
976.615, 2542.570
977.871, 2511.383
979.127, 2687.147
980.383, 2638.863
981.638, 2678.529
982.893, 2556.147
984.149, 2684.718
985.404, 2585.240
986.658, 2655.715
987.913, 2582.143
989.167, 2584.521
990.421, 2621.854
991.675, 2609.139
992.929, 2626.377
994.183, 2621.569
995.436, 2611.715
996.689, 2516.815
997.942, 2527.870
999.195, 2492.879
1000.448, 2514.844
1001.700, 2520.577
1002.952, 2544.930
1004.204, 2503.087
1005.456, 2525.686
1006.708, 2525.709
1007.959, 2526.658
1009.210, 2564.074
1010.461, 2468.339
1011.712, 2544.445
1012.963, 2665.196
1014.213, 2575.719
1015.464, 2730.219
1016.714, 2579.500
1017.964, 2808.279
1019.214, 2747.679
1020.463, 2857.633
1021.712, 2940.183
1022.962, 2988.386
1024.210, 3023.819
1025.459, 3091.691
1026.708, 3106.854
1027.956, 3304.816
1029.204, 3256.161
1030.452, 3381.678
1031.700, 3465.435
1032.948, 3481.236
1034.195, 3649.058
1035.442, 3678.491
1036.689, 3706.831
1037.936, 3864.249
1039.183, 3995.493
1040.429, 4196.096
1041.676, 4367.751
1042.922, 4499.963
1044.168, 4672.391
1045.413, 4805.043
1046.659, 4977.795
1047.904, 5212.613
1049.149, 5186.370
1050.394, 5400.241
1051.639, 5524.646
1052.884, 5529.097
1054.128, 5653.509
1055.372, 5607.781
1056.616, 5812.165
1057.860, 5666.875
1059.104, 5774.566
1060.347, 5879.442
1061.590, 5838.093
1062.833, 5848.572
1064.076, 6063.594
1065.319, 6155.379
1066.561, 6164.855
1067.803, 6195.441
1069.046, 6265.375
1070.287, 6175.703
1071.529, 6152.417
1072.771, 5981.039
1074.012, 5805.728
1075.253, 5634.287
1076.494, 5260.519
1077.735, 5055.181
1078.975, 4635.739
1080.216, 4390.387
1081.456, 4025.025
1082.696, 3822.714
1083.936, 3562.338
1085.175, 3299.955
1086.415, 3127.564
1087.654, 2953.167
1088.893, 2613.764
1090.132, 2578.354
1091.371, 2349.937
1092.609, 2288.516
1093.847, 2170.089
1095.085, 2037.657
1096.323, 1934.220
1097.561, 1947.779
1098.799, 1815.333
1100.036, 1858.884
1101.273, 1794.431
1102.510, 1709.974
1103.747, 1679.514
1104.983, 1635.458
1106.220, 1625.963
1107.456, 1601.113
1108.692, 1616.641
1109.928, 1639.167
1111.163, 1589.690
1112.399, 1629.212
1113.634, 1524.732
1114.869, 1482.251
1116.104, 1484.770
1117.339, 1425.287
1118.573, 1473.805
1119.808, 1427.322
1121.042, 1355.839
1122.276, 1603.357
1123.509, 1537.876
1124.743, 1472.396
1125.976, 1398.917
1127.210, 1302.440
1128.443, 1254.966
1129.675, 1316.493
1130.908, 1226.023
1132.141, 1367.557
1133.373, 1380.094
1134.605, 1318.634
1135.837, 1272.180
1137.068, 1286.730
1138.300, 1135.287
1139.531, 1079.849
1140.762, 827.416
1141.993, 794.987
1143.224, 660.565
1144.455, 548.150
1145.685, 586.741
1146.915, 444.359
1148.145, 380.983
1149.375, 367.614
1150.605, 288.256
1151.834, 372.908
1153.063, 254.580
1154.292, 287.278
1155.521, 341.011
1156.750, 256.813
1157.978, 322.669
1159.207, 250.582
1160.435, 257.582
1161.663, 267.648
1162.891, 240.781
1164.118, 158.992
1165.345, 281.281
1166.573, 157.670
1167.800, 316.135
1169.026, 199.672
1170.253, 224.305
1171.480, 317.023
1172.706, 227.815
1173.932, 263.701
1175.158, 232.652
1176.383, 101.693
1177.609, 246.816
1178.834, 230.025
1180.059, 161.313
1181.284, 176.679
1182.509, 127.115
1183.734, 190.619
1184.958, 136.180
1186.182, 53.796
1187.406, 122.465
1188.630, 128.170
1189.854, 76.905
1191.077, 23.334
1192.301, 86.444
1193.524, 99.245
1194.747, 37.932
1195.969, 9.104
1197.192, 9.738
1198.414, 16.406
1199.636, 20.540
1200.858, 0.337
1202.080, 20.225
1203.302, 38.126
1204.523, 29.301
1205.744, 70.036
1206.966, 2.129
1208.186, 87.215
1209.407, 118.328
1210.628, 9.485
1211.848, 138.636
1213.068, 100.842
1214.288, 119.083
1215.508, 108.371
1216.727, 69.699
1217.947, 97.047
1219.166, 85.431
1220.385, 44.155
1221.604, 84.138
1222.822, 39.576
1224.041, 54.976
1225.259, 117.467
1226.477, 10.042
1227.695, 16.556
1228.913, 1.074
1230.130, 125.595
1231.348, 71.120
1232.565, 137.648
1233.782, 114.182
1234.999, 124.717
1236.215, 93.267
1237.432, 119.829
1238.648, 81.405
1239.864, 159.995
1241.080, 136.598
1242.296, 144.215
1243.511, 153.846
1244.726, 227.492
1245.942, 190.150
1247.156, 246.824
1248.371, 229.511
1249.586, 353.212
1250.800, 238.928
1252.014, 301.657
1253.228, 370.401
1254.442, 289.160
1255.656, 337.932
1256.869, 423.719
1258.083, 304.520
1259.296, 388.335
1260.509, 383.165
1261.722, 373.009
1262.934, 343.867
1264.147, 412.739
1265.359, 425.626
1266.571, 405.526
1267.783, 264.440
1268.994, 452.368
1270.206, 306.309
1271.417, 346.263
1272.628, 402.243
1273.839, 395.390
1275.050, 398.521
1276.260, 412.524
1277.471, 266.634
1278.681, 372.823
1279.891, 371.059
1281.101, 260.431
1282.310, 410.760
1283.520, 203.361
1284.729, 325.656
1285.938, 379.013
1287.147, 161.197
1288.356, 248.746
1289.564, 311.041
1290.773, 232.385
1291.981, 360.725
1293.189, 223.884
1294.397, 180.267
1295.604, 314.241
1296.812, 216.753
1298.019, 192.959
1299.226, 251.070
1300.433, 129.661
1301.640, 282.564
1302.846, 305.983
1304.053, 141.818
1305.259, 214.590
1306.465, 161.099
1307.671, 231.445
1308.876, 179.559
1310.082, 216.340
1311.287, 235.905
1312.492, 166.589
1313.697, 168.542
1314.902, 227.985
1316.106, 254.491
1317.310, 185.422
1318.515, 234.905
1319.719, 156.698
1320.922, 228.741
1322.126, 236.865
1323.329, 158.687
1324.533, 207.503
1325.736, 209.807
1326.939, 303.384
1328.141, 291.316
1329.344, 215.923
1330.546, 347.727
1331.748, 280.556
1332.950, 164.078
1334.152, 311.861
1335.354, 265.670
1336.555, 186.554
1337.757, 311.008
1338.958, 279.589
1340.159, 234.846
1341.359, 325.945
1342.560, 262.134
1343.760, 252.064
1344.960, 286.402
1346.160, 204.465
1347.360, 273.370
1348.560, 239.897
1349.759, 253.722
1350.959, 350.814
1352.158, 306.573
1353.357, 269.327
1354.555, 341.255
1355.754, 228.744
1356.952, 284.165
1358.151, 227.826
1359.349, 165.302
1360.546, 265.358
1361.744, 175.724
1362.941, 142.257
1364.139, 347.360
1365.336, 49.317
1366.533, 317.326
1367.730, 203.573
1368.926, 122.313
1370.123, 169.083
1371.319, 148.837
1372.515, 102.358
1373.711, 185.756
1374.906, 143.147
1376.102, 126.450
1377.297, 176.030
1378.492, 163.965
1379.687, 178.226
1380.882, 256.114
1382.077, 162.759
1383.271, 291.416
1384.465, 222.082
1385.659, 263.759
1386.853, 266.444
1388.047, 189.139
1389.240, 238.842
1390.434, 242.555
1391.627, 187.275
1392.820, 215.004
1394.013, 326.740
1395.205, 205.484
1396.398, 415.235
1397.590, 262.993
1398.782, 234.754
1399.974, 379.520
1401.166, 272.289
1402.357, 240.057
1403.549, 275.822
1404.740, 152.587
1405.931, 282.351
1407.122, 191.086
1408.313, 200.796
1409.503, 259.494
1410.693, 195.169
1411.883, 153.792
1413.073, 211.371
1414.263, 121.868
1415.453, 119.334
1416.642, 83.746
1417.831, 92.111
1419.020, 133.412
1420.209, 105.686
1421.398, 90.924
1422.587, 83.748
1423.775, 55.271
1424.963, 69.401
1426.151, 27.504
1427.339, 85.579
1428.526, 74.624
1429.714, 119.656
1430.901, 43.672
1432.088, 100.684
1433.275, 92.687
1434.462, 58.322
1435.648, 148.651
1436.835, 94.662
1438.021, 20.777
1439.207, 72.000
1440.393, 14.493
1441.579, 3.125
1442.764, 67.765
1443.949, 77.580
1445.135, 119.399
1446.320, 48.540
1447.504, 72.249
1448.689, 115.043
1449.873, 25.419
1451.058, 5.829
1452.242, 75.250
1453.426, 47.321
1454.609, 102.120
1455.793, 66.571
1456.976, 25.968
1458.159, 161.502
1459.342, 80.983
1460.525, 41.475
1461.708, 108.977
1462.890, 24.490
1464.073, 24.016
1465.255, 117.559
1466.437, 124.120
1467.619, 69.705
1468.800, 190.830
1469.982, 115.087
1471.163, 193.040
1472.344, 149.232
1473.525, 145.564
1474.706, 314.843
1475.886, 163.988
1477.066, 161.564
1478.247, 304.933
1479.427, 222.859
1480.607, 187.250
1481.786, 210.199
1482.966, 203.649
1484.145, 183.437
1485.324, 140.713
1486.503, 51.291
1487.682, 134.351
1488.860, 154.393
1490.039, 32.187
1491.217, 164.363
1492.395, 66.971
1493.573, 87.063
1494.751, 202.816
1495.928, 103.290
1497.106, 57.887
1498.283, 237.044
1499.460, 108.820
1500.637, 130.436
1501.814, 144.209
1502.990, 35.780
1504.166, 182.804
1505.342, 149.615
1506.518, 105.250
1507.694, 111.339
1508.870, 61.876
1510.045, 167.377
1511.221, 159.493
1512.396, 8.754
1513.571, 176.102
1514.745, 122.728
1515.920, 87.655
1517.094, 112.301
1518.269, 0.661
1519.443, 0.000
##END=



