##NAMES=Dravite
##RRUFFID=R050059
##IDEAL CHEMISTRY=NaMg_3_Al_6_(Si_6_O_18_)(BO_3_)_3_(OH)_3_OH
##LOCALITY=Nepal
##OWNER=RRUFF
##SOURCE=Rock Currier
##DESCRIPTION=Dark brown single crystal
##STATUS=The identification of this mineral has been confirmed by X-ray diffraction and chemical analysis
##URL=rruff.info/R050059
##MEASURED CHEMISTRY=(Na_0.79_[box]_0.16_Ca_0.05_)_Σ=1_(Mg_2.44_Al_0.29_[box]_0.14_Fe^2+^_0.08_Ti_0.05_)_Σ=3_Al_6.00_(BO_3_)_3_Si_6.00_O_18_(OH)_4_ ; H_2_O assumed ideal from stoichiometry; B_2_O_3_ estimated by difference
##PIN_ID=L00191
##ORIENTATION=Laser parallel to -a* (-1 0 0). Fiducial mark perpendicular to laser is parallel to -c [0 0 -1]
103.206, 0.000
104.600, 2.209
105.994, 145.225
107.387, 227.993
108.781, 187.043
110.174, 271.017
111.566, 232.882
112.959, 313.942
114.351, 385.925
115.744, 446.192
117.136, 295.878
118.527, 287.750
119.919, 170.317
121.310, 273.419
122.701, 302.576
124.092, 430.468
125.482, 277.529
126.873, 284.859
128.263, 358.818
129.653, 306.790
131.042, 405.296
132.432, 426.123
133.821, 406.337
135.210, 472.516
136.599, 626.700
137.987, 763.146
139.376, 772.319
140.764, 833.748
142.152, 681.159
143.539, 735.224
144.927, 684.221
146.314, 581.267
147.701, 656.884
149.088, 622.759
150.474, 664.648
151.861, 546.592
153.247, 493.734
154.633, 529.452
156.018, 430.365
157.404, 351.467
158.789, 293.766
160.174, 255.611
161.559, 149.938
162.943, 171.766
164.327, 71.123
165.711, 33.028
167.095, 69.509
168.479, 36.410
169.862, 16.707
171.246, 5.360
172.628, 18.350
174.011, 4.340
175.394, 5.725
176.776, 0.818
178.158, 6.636
179.540, 8.868
180.922, 12.345
182.303, 29.620
183.684, 85.331
185.065, 102.562
186.446, 186.861
187.826, 136.186
189.207, 255.533
190.587, 230.217
191.967, 319.170
193.346, 216.023
194.726, 320.716
196.105, 301.729
197.484, 342.925
198.862, 420.390
200.241, 318.140
201.619, 450.928
202.997, 432.512
204.375, 585.749
205.753, 639.528
207.130, 776.000
208.507, 941.543
209.884, 1081.311
211.261, 1265.210
212.638, 1421.979
214.014, 1619.211
215.390, 1677.434
216.766, 1746.037
218.141, 1790.282
219.517, 1657.403
220.892, 1566.407
222.267, 1467.311
223.642, 1270.120
225.016, 1202.823
226.391, 1113.417
227.765, 1115.969
229.139, 1061.490
230.512, 1079.988
231.886, 1087.462
233.259, 1075.914
234.632, 1187.344
236.005, 1102.751
237.377, 1275.132
238.749, 1237.485
240.122, 1234.803
241.493, 1326.083
242.865, 1229.326
244.237, 1324.533
245.608, 1109.704
246.979, 1097.840
248.350, 963.943
249.720, 850.012
251.090, 724.050
252.461, 548.056
253.830, 524.032
255.200, 325.979
256.570, 298.898
257.939, 299.789
259.308, 256.653
260.677, 269.491
262.045, 280.302
263.414, 286.080
264.782, 309.832
266.150, 294.554
267.517, 441.253
268.885, 504.781
270.252, 569.204
271.619, 557.694
272.986, 567.130
274.353, 565.491
275.719, 397.755
277.085, 364.913
278.451, 233.950
279.817, 240.855
281.182, 135.628
282.548, 84.267
283.913, 97.768
285.278, 27.120
286.642, 35.301
288.007, 9.306
289.371, 5.132
290.735, 82.790
292.099, 47.698
293.462, 49.653
294.826, 5.874
296.189, 37.959
297.552, 7.104
298.914, 103.657
300.277, 38.231
301.639, 58.496
303.001, 45.509
304.363, 45.679
305.724, 17.083
307.086, 97.715
308.447, 62.559
309.808, 58.515
311.168, 176.570
312.529, 107.742
313.889, 143.010
315.249, 33.382
316.609, 59.829
317.969, 97.354
319.328, 3.031
320.687, 20.653
322.046, 74.584
323.405, 116.579
324.764, 161.337
326.122, 261.539
327.480, 310.809
328.838, 424.125
330.196, 470.762
331.553, 619.938
332.910, 698.150
334.267, 815.518
335.624, 904.539
336.981, 931.677
338.337, 1028.139
339.693, 1027.604
341.049, 1035.773
342.405, 1027.183
343.760, 1000.652
345.116, 1126.855
346.471, 991.929
347.826, 1162.787
349.180, 1094.808
350.535, 1162.435
351.889, 1194.692
353.243, 1228.555
354.597, 1384.284
355.950, 1449.350
357.304, 1603.930
358.657, 1816.873
360.010, 1985.634
361.362, 2309.478
362.715, 2534.375
364.067, 3073.881
365.419, 3303.639
366.771, 3905.343
368.123, 4377.960
369.474, 4581.452
370.825, 4755.817
372.176, 4547.995
373.527, 4386.033
374.877, 3898.944
376.228, 3420.788
377.578, 3185.607
378.928, 2575.410
380.277, 2495.205
381.627, 2153.993
382.976, 1953.774
384.325, 1861.550
385.674, 1630.320
387.023, 1695.085
388.371, 1606.847
389.719, 1475.604
391.067, 1381.359
392.415, 1262.111
393.762, 1267.860
395.110, 1157.607
396.457, 1082.352
397.804, 1045.095
399.150, 883.838
400.497, 834.579
401.843, 842.320
403.189, 849.060
404.535, 750.800
405.881, 666.541
407.226, 604.283
408.571, 547.026
409.916, 489.056
411.261, 412.517
412.605, 414.265
413.950, 386.016
415.294, 396.771
416.638, 353.528
417.981, 363.852
419.325, 402.092
420.668, 328.341
422.011, 323.906
423.354, 353.398
424.697, 337.621
426.039, 406.968
427.381, 323.352
428.723, 427.014
430.065, 399.033
431.406, 408.857
432.748, 475.620
434.089, 429.361
435.430, 512.867
436.770, 496.564
438.111, 510.219
439.451, 536.081
440.791, 486.644
442.131, 543.744
443.471, 512.078
444.810, 489.893
446.149, 545.866
447.488, 459.296
448.827, 507.031
450.166, 423.614
451.504, 490.960
452.842, 421.706
454.180, 337.749
455.518, 391.919
456.855, 329.323
458.193, 405.166
459.530, 323.784
460.867, 362.749
462.203, 384.635
463.540, 348.051
464.876, 360.194
466.212, 295.479
467.548, 305.587
468.883, 375.664
470.219, 301.982
471.554, 329.590
472.889, 224.826
474.224, 318.422
475.558, 269.847
476.892, 261.197
478.227, 309.932
479.561, 175.360
480.894, 346.137
482.228, 261.478
483.561, 263.457
484.894, 403.813
486.227, 341.422
487.559, 420.471
488.892, 448.025
490.224, 419.514
491.556, 566.233
492.888, 621.410
494.220, 689.965
495.551, 737.003
496.882, 776.611
498.213, 826.248
499.544, 850.909
500.874, 1002.593
502.205, 863.302
503.535, 1049.034
504.865, 940.795
506.194, 935.585
507.524, 1045.409
508.853, 871.250
510.182, 880.109
511.511, 808.983
512.840, 771.873
514.168, 803.777
515.496, 660.696
516.824, 712.627
518.152, 630.574
519.480, 623.535
520.807, 684.510
522.134, 480.500
523.461, 625.505
524.788, 629.524
526.114, 750.559
527.441, 821.610
528.767, 873.776
530.093, 1020.759
531.418, 1017.858
532.744, 1122.976
534.069, 1233.111
535.394, 1201.266
536.719, 1203.441
538.044, 1207.635
539.368, 1250.848
540.693, 1165.083
542.017, 1079.338
543.340, 1028.614
544.664, 877.917
545.987, 872.243
547.311, 766.614
548.634, 693.021
549.956, 727.451
551.279, 473.925
552.601, 516.443
553.923, 453.019
555.245, 413.653
556.567, 302.331
557.889, 273.065
559.210, 303.841
560.531, 206.661
561.852, 166.521
563.173, 202.420
564.493, 155.378
565.813, 110.541
567.133, 152.041
568.453, 168.161
569.773, 102.693
571.092, 65.889
572.412, 57.143
573.731, 87.446
575.049, 55.799
576.368, 30.199
577.686, 1.656
579.005, 14.166
580.323, 32.289
581.640, 24.703
582.958, 37.910
584.275, 7.444
585.593, 70.229
586.909, 67.074
588.226, 17.359
589.543, 2.623
590.859, 37.136
592.175, 49.221
593.491, 46.275
594.807, 46.546
596.122, 55.389
597.438, 8.254
598.753, 99.143
600.068, 13.944
601.382, 38.991
602.697, 96.953
604.011, 52.945
605.325, 145.964
606.639, 81.019
607.952, 161.108
609.266, 102.235
610.579, 123.403
611.892, 134.599
613.205, 52.849
614.518, 202.130
615.830, 140.451
617.142, 170.805
618.454, 182.201
619.766, 58.625
621.078, 188.083
622.389, 117.570
623.700, 140.089
625.011, 190.660
626.322, 118.276
627.632, 259.957
628.943, 210.694
630.253, 277.487
631.563, 356.365
632.872, 312.311
634.182, 478.333
635.491, 356.403
636.800, 444.527
638.109, 382.715
639.418, 257.940
640.726, 215.208
642.035, 104.503
643.343, 24.823
644.651, 29.167
645.958, 62.467
647.266, 38.908
648.573, 120.698
649.880, 38.312
651.187, 32.087
652.494, 126.495
653.800, 70.911
655.106, 65.337
656.412, 113.781
657.718, 124.244
659.024, 158.726
660.329, 280.226
661.634, 321.744
662.939, 389.281
664.244, 437.835
665.549, 417.406
666.853, 528.995
668.157, 456.602
669.461, 626.225
670.765, 577.865
672.069, 606.523
673.372, 724.197
674.675, 542.887
675.978, 603.594
677.281, 628.316
678.583, 644.056
679.886, 644.811
681.188, 543.582
682.490, 643.368
683.792, 604.170
685.093, 557.987
686.394, 705.820
687.696, 660.667
688.997, 804.530
690.297, 819.406
691.598, 875.298
692.898, 1101.204
694.198, 1149.124
695.498, 1399.057
696.798, 1582.036
698.097, 1817.311
699.397, 2213.443
700.696, 2273.698
701.995, 2697.375
703.293, 2852.026
704.592, 2774.284
705.890, 2985.886
707.188, 2611.023
708.486, 2653.724
709.784, 2350.000
711.081, 2021.935
712.378, 1896.027
713.675, 1615.268
714.972, 1559.198
716.269, 1297.335
717.565, 1173.864
718.862, 1143.851
720.158, 1084.757
721.453, 1006.362
722.749, 928.509
724.045, 908.885
725.340, 993.404
726.635, 921.841
727.930, 928.146
729.224, 1029.801
730.519, 997.506
731.813, 1170.823
733.107, 1131.513
734.401, 1247.683
735.694, 1266.434
736.988, 1348.128
738.281, 1421.430
739.574, 1442.513
740.867, 1694.873
742.160, 1871.562
743.452, 1875.898
744.744, 2280.476
746.036, 2169.218
747.328, 2521.048
748.620, 2849.635
749.911, 2963.526
751.202, 3662.927
752.493, 3726.330
753.784, 4250.797
755.075, 4721.923
756.365, 4860.887
757.655, 5391.101
758.945, 5192.193
760.235, 5210.405
761.525, 5124.489
762.814, 4574.565
764.103, 4533.635
765.392, 4302.700
766.681, 3834.757
767.969, 3857.808
769.258, 3575.852
770.546, 3642.887
771.834, 3503.915
773.122, 3465.935
774.409, 3607.947
775.697, 3456.951
776.984, 3727.946
778.271, 3885.932
779.558, 3948.909
780.844, 4263.877
782.131, 4377.835
783.417, 4888.782
784.703, 5048.720
785.989, 5055.647
787.274, 5654.562
788.560, 5297.466
789.845, 5587.359
791.130, 5457.239
792.415, 5297.105
793.699, 5327.958
794.983, 4844.800
796.268, 4920.627
797.552, 4683.439
798.835, 4225.238
800.119, 4408.023
801.402, 4038.514
802.686, 4109.269
803.969, 4066.796
805.251, 3949.867
806.534, 4275.579
807.816, 4159.819
809.098, 4352.499
810.380, 4463.167
811.662, 4283.814
812.944, 4712.448
814.225, 4296.068
815.506, 4331.669
816.787, 4307.256
818.068, 3797.825
819.349, 3669.378
820.629, 3243.915
821.909, 2980.434
823.189, 2738.937
824.469, 2230.422
825.749, 2096.889
827.028, 1836.339
828.307, 1569.771
829.586, 1470.186
830.865, 1240.582
832.144, 1273.960
833.422, 1083.319
834.700, 1062.659
835.978, 995.981
837.256, 872.284
838.534, 853.568
839.811, 826.833
841.088, 695.077
842.365, 648.302
843.642, 511.508
844.919, 485.694
846.195, 421.860
847.472, 282.005
848.748, 285.130
850.023, 182.234
851.299, 116.317
852.575, 155.377
853.850, 30.414
855.125, 52.417
856.400, 44.609
857.674, 5.706
858.949, 67.146
860.223, 34.030
861.497, 42.273
862.771, 82.588
864.045, 92.383
865.318, 30.506
866.591, 80.082
867.864, 26.751
869.137, 29.487
870.410, 19.290
871.682, 10.156
872.955, 88.080
874.227, 19.103
875.499, 59.190
876.770, 94.362
878.042, 16.636
879.313, 30.974
880.584, 76.383
881.855, 49.885
883.126, 50.469
884.396, 44.134
885.667, 65.877
886.937, 57.709
888.207, 14.373
889.476, 25.588
890.746, 43.385
892.015, 30.323
893.284, 50.220
894.553, 99.081
895.822, 42.914
897.090, 83.714
898.359, 84.487
899.627, 80.242
900.895, 120.258
902.163, 97.662
903.430, 163.348
904.698, 162.008
905.965, 145.643
907.232, 226.252
908.499, 224.838
909.765, 203.416
911.032, 329.969
912.298, 201.514
913.564, 343.039
914.830, 325.540
916.095, 288.032
917.361, 340.500
918.626, 328.947
919.891, 344.392
921.156, 392.814
922.420, 345.221
923.685, 419.617
924.949, 421.989
926.213, 423.356
927.477, 514.701
928.740, 478.022
930.004, 486.343
931.267, 543.639
932.530, 566.912
933.793, 560.161
935.056, 523.387
936.318, 619.588
937.581, 597.767
938.843, 621.921
940.104, 718.052
941.366, 654.159
942.628, 681.243
943.889, 760.304
945.150, 677.341
946.411, 858.355
947.672, 745.346
948.932, 834.314
950.193, 867.260
951.453, 863.182
952.713, 920.081
953.973, 890.963
955.232, 879.822
956.491, 1027.673
957.751, 898.503
959.010, 1017.311
960.268, 994.111
961.527, 940.888
962.785, 1041.643
964.044, 984.375
965.302, 1048.084
966.559, 1123.770
967.817, 1030.434
969.075, 1112.075
970.332, 1106.694
971.589, 1075.291
972.846, 1245.865
974.102, 1077.417
975.359, 1211.946
976.615, 1256.454
977.871, 1143.939
979.127, 1310.402
980.383, 1180.844
981.638, 1256.263
982.893, 1242.661
984.149, 1194.037
985.404, 1286.391
986.658, 1235.724
987.913, 1199.035
989.167, 1243.325
990.421, 1142.594
991.675, 1242.841
992.929, 1204.067
994.183, 1140.273
995.436, 1193.457
996.689, 1091.620
997.942, 1162.762
999.195, 1213.885
1000.448, 1137.986
1001.700, 1240.036
1002.952, 1145.782
1004.204, 1162.664
1005.456, 1220.417
1006.708, 1104.740
1007.959, 1216.084
1009.210, 1201.812
1010.461, 1134.189
1011.712, 1218.025
1012.963, 1182.289
1014.213, 1232.968
1015.464, 1257.983
1016.714, 1173.833
1017.964, 1404.526
1019.214, 1381.521
1020.463, 1284.303
1021.712, 1488.685
1022.962, 1358.600
1024.210, 1483.587
1025.459, 1569.868
1026.708, 1501.599
1027.956, 1665.091
1029.204, 1602.433
1030.452, 1717.848
1031.700, 1752.387
1032.948, 1729.566
1034.195, 1854.687
1035.442, 1801.199
1036.689, 1850.317
1037.936, 2029.934
1039.183, 1884.757
1040.429, 2194.365
1041.676, 2186.693
1042.922, 2136.414
1044.168, 2442.725
1045.413, 2314.780
1046.659, 2423.855
1047.904, 2768.864
1049.149, 2535.238
1050.394, 2487.427
1051.639, 2663.422
1052.884, 2789.752
1054.128, 2863.057
1055.372, 2736.921
1056.616, 2868.324
1057.860, 2947.284
1059.104, 2879.240
1060.347, 3127.649
1061.590, 3021.745
1062.833, 3084.906
1064.076, 3342.483
1065.319, 3136.503
1066.561, 3388.997
1067.803, 3355.687
1069.046, 3347.522
1070.287, 3654.000
1071.529, 3379.382
1072.771, 3491.642
1074.012, 3429.106
1075.253, 3239.125
1076.494, 3350.624
1077.735, 3173.069
1078.975, 2927.911
1080.216, 2901.345
1081.456, 2612.774
1082.696, 2515.197
1083.936, 2282.614
1085.175, 2025.027
1086.415, 2076.435
1087.654, 1791.838
1088.893, 1635.236
1090.132, 1642.629
1091.371, 1418.018
1092.609, 1487.465
1093.847, 1271.844
1095.085, 1128.361
1096.323, 1149.732
1097.561, 1013.100
1098.799, 958.665
1100.036, 929.025
1101.273, 841.381
1102.510, 837.733
1103.747, 803.083
1104.983, 755.429
1106.220, 878.771
1107.456, 698.110
1108.692, 714.447
1109.928, 718.780
1111.163, 602.110
1112.399, 690.438
1113.634, 585.763
1114.869, 546.085
1116.104, 665.405
1117.339, 496.722
1118.573, 570.038
1119.808, 488.351
1121.042, 521.662
1122.276, 734.972
1123.509, 629.279
1124.743, 639.586
1125.976, 681.890
1127.210, 608.193
1128.443, 694.495
1129.675, 724.796
1130.908, 673.095
1132.141, 816.394
1133.373, 743.692
1134.605, 798.989
1135.837, 804.285
1137.068, 708.581
1138.300, 731.876
1139.531, 712.172
1140.762, 509.468
1141.993, 486.763
1143.224, 414.058
1144.455, 293.354
1145.685, 354.650
1146.915, 199.946
1148.145, 280.244
1149.375, 199.542
1150.605, 132.841
1151.834, 262.142
1153.063, 91.452
1154.292, 142.769
1155.521, 224.218
1156.750, 49.570
1157.978, 139.937
1159.207, 128.309
1160.435, 112.708
1161.663, 212.154
1162.891, 92.634
1164.118, 144.154
1165.345, 163.699
1166.573, 71.282
1167.800, 138.889
1169.026, 62.521
1170.253, 91.189
1171.480, 145.878
1172.706, 57.608
1173.932, 83.362
1175.158, 180.150
1176.383, 25.981
1177.609, 169.835
1178.834, 29.715
1180.059, 40.635
1181.284, 169.586
1182.509, 18.569
1183.734, 68.596
1184.958, 133.660
1186.182, 20.243
1187.406, 103.862
1188.630, 4.007
1189.854, 12.133
1191.077, 54.286
1192.301, 34.449
1193.524, 44.620
1194.747, 4.801
1195.969, 48.012
1197.192, 49.159
1198.414, 42.336
1199.636, 60.480
1200.858, 24.680
1202.080, 6.154
1203.302, 21.012
1204.523, 5.817
1205.744, 62.647
1206.966, 29.496
1208.186, 64.358
1209.407, 17.241
1210.628, 7.870
1211.848, 62.968
1213.068, 26.116
1214.288, 2.797
1215.508, 91.711
1216.727, 39.330
1217.947, 36.626
1219.166, 50.600
1220.385, 25.404
1221.604, 78.592
1222.822, 14.374
1224.041, 110.341
1225.259, 91.691
1226.477, 112.230
1227.695, 42.154
1228.913, 62.078
1230.130, 142.003
1231.348, 57.928
1232.565, 48.854
1233.782, 91.780
1234.999, 29.706
1236.215, 121.637
1237.432, 127.571
1238.648, 11.508
1239.864, 160.449
1241.080, 0.393
1242.296, 69.340
1243.511, 111.291
1244.726, 1.753
1245.942, 129.205
1247.156, 144.167
1248.371, 41.135
1249.586, 166.106
1250.800, 113.081
1252.014, 153.061
1253.228, 199.045
1254.442, 34.033
1255.656, 180.026
1256.869, 167.023
1258.083, 82.025
1259.296, 209.030
1260.509, 145.041
1261.722, 212.055
1262.934, 191.074
1264.147, 144.098
1265.359, 212.125
1266.571, 181.157
1267.783, 72.194
1268.994, 231.234
1270.206, 152.278
1271.417, 128.327
1272.628, 229.379
1273.839, 101.435
1275.050, 178.496
1276.260, 223.559
1277.471, 100.627
1278.681, 219.698
1279.891, 123.773
1281.101, 141.863
1282.310, 223.944
1283.520, 93.029
1284.729, 199.205
1285.938, 192.297
1287.147, 83.391
1288.356, 212.552
1289.564, 171.653
1290.773, 72.799
1291.981, 248.051
1293.189, 89.161
1294.397, 130.402
1295.604, 202.519
1296.812, 64.640
1298.019, 249.336
1299.226, 172.465
1300.433, 7.599
1301.640, 207.490
1302.846, 91.633
1304.053, 61.872
1305.259, 161.646
1306.465, 35.805
1307.671, 130.749
1308.876, 94.191
1310.082, 111.367
1311.287, 168.748
1312.492, 167.933
1313.697, 84.124
1314.902, 180.820
1316.106, 66.020
1317.310, 147.440
1318.515, 195.108
1319.719, 81.322
1320.922, 189.630
1322.126, 122.901
1323.329, 63.127
1324.533, 181.680
1325.736, 92.915
1326.939, 144.176
1328.141, 250.846
1329.344, 90.093
1330.546, 200.342
1331.748, 255.970
1332.950, 104.226
1334.152, 215.693
1335.354, 153.182
1336.555, 140.447
1337.757, 224.329
1338.958, 106.577
1340.159, 143.753
1341.359, 187.700
1342.560, 85.934
1343.760, 195.233
1344.960, 125.582
1346.160, 106.747
1347.360, 227.569
1348.560, 139.843
1349.759, 165.650
1350.959, 273.270
1352.158, 72.329
1353.357, 143.802
1354.555, 218.056
1355.754, 44.929
1356.952, 223.326
1358.151, 156.318
1359.349, 172.971
1360.546, 197.447
1361.744, 79.316
1362.941, 139.166
1364.139, 290.099
1365.336, 85.798
1366.533, 163.904
1367.730, 217.586
1368.926, 99.191
1370.123, 187.366
1371.319, 118.017
1372.515, 126.535
1373.711, 220.017
1374.906, 129.472
1376.102, 149.880
1377.297, 228.398
1378.492, 111.597
1379.687, 223.859
1380.882, 177.060
1382.077, 201.182
1383.271, 338.449
1384.465, 180.507
1385.659, 248.777
1386.853, 261.048
1388.047, 151.321
1389.240, 229.595
1390.434, 277.871
1391.627, 189.148
1392.820, 286.427
1394.013, 322.706
1395.205, 184.987
1396.398, 353.268
1397.590, 177.550
1398.782, 217.833
1399.974, 319.116
1401.166, 158.399
1402.357, 250.682
1403.549, 267.964
1404.740, 123.246
1405.931, 306.527
1407.122, 236.805
1408.313, 125.082
1409.503, 253.357
1410.693, 152.613
1411.883, 174.696
1413.073, 178.937
1414.263, 94.138
1415.453, 165.320
1416.642, 194.494
1417.831, 80.662
1419.020, 193.782
1420.209, 145.890
1421.398, 125.988
1422.587, 215.075
1423.775, 57.150
1424.963, 93.194
1426.151, 150.206
1427.339, 40.216
1428.526, 159.212
1429.714, 110.190
1430.901, 47.151
1432.088, 221.134
1433.275, 53.124
1434.462, 29.128
1435.648, 167.127
1436.835, 34.173
1438.021, 80.275
1439.207, 111.325
1440.393, 14.511
1441.579, 84.743
1442.764, 149.060
1443.949, 0.549
1445.135, 116.896
1446.320, 48.451
1447.504, 3.033
1448.689, 189.645
1449.873, 46.711
1451.058, 20.949
1452.242, 142.620
1453.426, 31.304
1454.609, 106.994
1455.793, 98.692
1456.976, 39.602
1458.159, 177.112
1459.342, 34.835
1460.525, 16.566
1461.708, 161.308
1462.890, 63.059
1464.073, 73.822
1465.255, 167.596
1466.437, 30.386
1467.619, 98.194
1468.800, 85.022
1469.982, 33.129
1471.163, 178.746
1472.344, 120.618
1473.525, 57.555
1474.706, 191.260
1475.886, 34.070
1477.066, 46.984
1478.247, 195.595
1479.427, 26.287
1480.607, 128.851
1481.786, 192.889
1482.966, 66.098
1484.145, 178.305
1485.324, 58.905
1486.503, 26.129
1487.682, 183.545
1488.860, 113.960
1490.039, 37.477
1491.217, 233.602
1492.395, 79.023
1493.573, 131.241
1494.751, 159.770
1495.928, 45.119
1497.106, 124.246
1498.283, 143.292
1499.460, 31.427
1500.637, 230.384
1501.814, 104.899
1502.990, 28.350
1504.166, 151.650
1505.342, 115.060
1506.518, 43.517
1507.694, 186.095
1508.870, 7.822
1510.045, 111.614
1511.221, 154.767
1512.396, 0.738
1513.571, 144.063
1514.745, 80.075
1515.920, 34.269
1517.094, 135.591
1518.269, 0.290
1519.443, 0.000
##END=



