##NAMES=Edenite
##RRUFFID=R050415
##IDEAL CHEMISTRY=NaCa_2_Mg_5_(Si_7_Al)O_22_(OH)_2_
##LOCALITY=Mogok, Burma
##OWNER=RRUFF
##SOURCE=Marcus Origlieri
##DESCRIPTION=Transparent pale green water worn fragment
##STATUS=The identification of this mineral has been confirmed by X-ray diffraction and chemical analysis
##URL=rruff.info/R050415
##MEASURED CHEMISTRY=(Na_0.83_K_0.17_)(Ca_1.76_Na_0.24_)_&#931;=2_(Mg_4.54_Al_0.40_Fe^3+^_0.06_)_&#931;=5_(Si_6.74_Al_1.26_)O_22_((OH)_0.52_F_0.48_)_2_
##PIN_ID=L01128
##ORIENTATION=Laser parallel to -c* (0 0 -1). Fiducial mark perpendicular to laser is parallel to -a [-1 0 0]
100.8830, 0.0000000E+00
102.1160, 4.331055
103.3490, 10.42773
104.5820, 260.7485
105.8150, 653.2710
107.0470, 1533.568
108.2800, 2105.092
109.5120, 1722.053
110.7440, 1540.530
111.9760, 1926.275
113.2080, 2424.521
114.4400, 3068.531
115.6710, 3566.399
116.9030, 3937.134
118.1340, 4245.703
119.3650, 4444.050
120.5960, 4494.056
121.8270, 4304.831
123.0580, 3899.527
124.2880, 3294.386
125.5190, 2455.612
126.7490, 1933.432
127.9790, 1451.727
129.2090, 987.3979
130.4390, 668.3604
131.6680, 416.5454
132.8980, 269.8921
134.1270, 172.3413
135.3560, 77.83887
136.5850, 76.33252
137.8140, 90.77100
139.0430, 61.08154
140.2710, 5.811035
141.5000, 92.96484
142.7280, 110.4292
143.9560, 84.24512
145.1840, 78.45020
146.4120, 103.0732
147.6390, 82.14404
148.8670, 15.31250
150.0940, 142.2681
151.3210, 424.7046
152.5490, 690.1973
153.7750, 1093.963
155.0020, 1469.780
156.2290, 2023.052
157.4550, 2598.782
158.6810, 3286.975
159.9080, 4159.630
161.1340, 5032.751
162.3590, 6079.332
163.5850, 6810.352
164.8110, 7441.799
166.0360, 7710.652
167.2610, 7463.897
168.4860, 7231.514
169.7110, 6428.495
170.9360, 6015.823
172.1610, 5464.486
173.3850, 5269.470
174.6100, 4905.677
175.8340, 4897.851
177.0580, 4908.052
178.2820, 4953.312
179.5050, 5124.658
180.7290, 4931.104
181.9520, 5096.662
183.1760, 5117.343
184.3990, 4815.157
185.6220, 4669.104
186.8450, 4485.184
188.0670, 4193.406
189.2900, 3727.768
190.5120, 3395.278
191.7340, 3075.939
192.9560, 2915.753
194.1780, 2636.721
195.4000, 2663.795
196.6220, 2516.971
197.8430, 2527.253
199.0640, 2603.686
200.2860, 2723.280
201.5070, 3027.037
202.7270, 3220.957
203.9480, 3377.062
205.1690, 3657.433
206.3890, 4204.128
207.6090, 4482.141
208.8290, 5038.484
210.0490, 5876.018
211.2690, 6503.896
212.4890, 7242.109
213.7080, 8505.660
214.9280, 9413.615
216.1470, 10706.88
217.3660, 11827.49
218.5850, 13288.41
219.8030, 14529.69
221.0220, 16278.29
222.2400, 17119.06
223.4590, 18446.91
224.6770, 18825.86
225.8950, 19133.91
227.1120, 19052.04
228.3300, 18177.24
229.5480, 17651.52
230.7650, 16186.86
231.9820, 15219.28
233.1990, 14047.76
234.4160, 12972.31
235.6330, 12069.93
236.8490, 11223.60
238.0660, 10448.36
239.2820, 9820.165
240.4980, 9182.030
241.7140, 8570.956
242.9300, 8000.939
244.1460, 7451.979
245.3610, 6860.074
246.5770, 6257.223
247.7920, 5890.016
249.0070, 5466.903
250.2220, 5107.055
251.4370, 4829.842
252.6510, 4285.159
253.8660, 3994.928
255.0800, 3730.093
256.2940, 3367.611
257.5080, 3253.454
258.7220, 3106.572
259.9360, 2568.937
261.1490, 2033.536
262.3630, 1688.365
263.5760, 1361.415
264.7890, 1198.676
266.0020, 1056.140
267.2150, 712.7910
268.4270, 574.4785
269.6400, 638.2490
270.8520, 505.0957
272.0640, 393.1260
273.2760, 480.3340
274.4880, 430.7139
275.7000, 423.2578
276.9120, 412.9072
278.1230, 406.8174
279.3340, 375.8232
280.5450, 383.9746
281.7560, 441.2715
282.9670, 578.7100
284.1780, 677.2852
285.3880, 524.9912
286.5980, 717.6963
287.8090, 754.4561
289.0190, 871.8809
290.2290, 1089.242
291.4380, 1258.919
292.6480, 1144.052
293.8570, 1165.919
295.0670, 1335.545
296.2760, 1447.271
297.4850, 1578.105
298.6930, 1653.039
299.9020, 1681.063
301.1110, 1676.179
302.3190, 1719.386
303.5270, 1955.676
304.7350, 1956.393
305.9430, 2092.915
307.1510, 2266.033
308.3580, 2364.240
309.5660, 2726.215
310.7730, 2946.909
311.9800, 3219.073
313.1870, 3553.823
314.3940, 3750.037
315.6010, 3924.963
316.8070, 4149.803
318.0130, 4163.566
319.2200, 4034.195
320.4260, 4230.346
321.6310, 4076.731
322.8370, 3856.317
324.0430, 3730.719
325.2480, 3498.488
326.4540, 3360.129
327.6590, 3168.369
328.8640, 2988.967
330.0680, 2772.063
331.2730, 2707.619
332.4780, 2480.649
333.6820, 2452.701
334.8860, 2490.556
336.0900, 2251.388
337.2940, 2363.174
338.4980, 2306.266
339.7010, 2305.319
340.9050, 2326.494
342.1080, 2290.535
343.3110, 2318.613
344.5140, 2441.723
345.7170, 2348.289
346.9200, 2525.621
348.1220, 2617.359
349.3240, 2663.598
350.5270, 2836.865
351.7290, 2878.160
352.9310, 3042.480
354.1320, 2953.824
355.3340, 2937.191
356.5350, 3179.580
357.7370, 3199.988
358.9380, 3307.416
360.1390, 3249.858
361.3400, 3431.316
362.5400, 3585.787
363.7410, 3710.268
364.9410, 3797.760
366.1410, 3886.260
367.3410, 4007.767
368.5410, 4052.659
369.7410, 4320.799
370.9400, 4211.324
372.1400, 4213.854
373.3390, 4406.388
374.5380, 4336.926
375.7370, 4107.469
376.9360, 4038.014
378.1350, 3958.562
379.3330, 3896.111
380.5310, 3817.663
381.7300, 3780.217
382.9280, 3774.510
384.1260, 3766.323
385.3230, 3794.878
386.5210, 3850.432
387.7180, 3850.644
388.9160, 3850.754
390.1130, 3785.083
391.3100, 3720.629
392.5060, 3625.218
393.7030, 3353.848
394.9000, 3225.515
396.0960, 3182.213
397.2920, 2853.940
398.4880, 2734.695
399.6840, 2372.478
400.8800, 2218.282
402.0750, 2022.109
403.2710, 1769.957
404.4660, 1531.824
405.6610, 1287.707
406.8560, 1356.609
408.0510, 1200.525
409.2450, 1163.457
410.4400, 1073.401
411.6340, 1030.357
412.8280, 1067.324
414.0220, 944.3037
415.2160, 970.2939
416.4100, 1110.293
417.6030, 990.3301
418.7970, 955.4541
419.9900, 1048.694
421.1830, 1130.064
422.3760, 1141.530
423.5690, 1054.538
424.7610, 1035.485
425.9540, 980.4795
427.1460, 1009.562
428.3380, 975.3779
429.5300, 845.8799
430.7220, 835.4355
431.9140, 733.1094
433.1050, 590.9043
434.2970, 583.9531
435.4880, 543.2100
436.6790, 318.7900
437.8700, 453.5928
439.0610, 313.2002
440.2510, 280.4639
441.4420, 149.9404
442.6320, 155.3457
443.8220, 32.76660
445.0120, 79.00195
446.2020, 46.05078
447.3910, 3.263672
448.5810, 34.14648
449.7700, 58.43262
450.9600, 89.28320
452.1490, 66.39453
453.3370, 122.4551
454.5260, 63.07324
455.7150, 85.29590
456.9030, 153.4463
458.0910, 20.19824
459.2800, 26.54883
460.4670, 42.12988
461.6550, 148.7764
462.8430, 90.64160
464.0300, 139.5996
465.2180, 28.67578
466.4050, 118.8125
467.5920, 154.0615
468.7790, 181.4395
469.9650, 124.9619
471.1520, 80.60254
472.3380, 86.33789
473.5250, 171.1680
474.7110, 65.13477
475.8970, 127.1895
477.0820, 58.35645
478.2680, 167.6113
479.4540, 181.0098
480.6390, 88.54980
481.8240, 102.1963
483.0090, 9.054688
484.1940, 475.2617
485.3780, 732.4551
486.5630, 813.6270
487.7470, 54.80859
488.9320, 105.9619
490.1160, 29.08984
491.3000, 224.1641
492.4830, 174.9473
493.6670, 205.2617
494.8500, 203.2793
496.0340, 365.3037
497.2170, 400.3008
498.4000, 534.2764
499.5820, 564.2236
500.7650, 725.4795
501.9480, 858.0352
503.1300, 1050.921
504.3120, 1318.777
505.4940, 1505.604
506.6760, 1763.418
507.8580, 1876.225
509.0390, 2095.001
510.2210, 2186.760
511.4020, 2316.081
512.5830, 2395.412
513.7640, 2482.893
514.9450, 2474.566
516.1250, 2450.208
517.3060, 2441.822
518.4860, 2343.403
519.6660, 2365.011
520.8460, 2316.469
522.0260, 2327.949
523.2060, 2304.398
524.3850, 2215.818
525.5650, 2202.205
526.7440, 2068.559
527.9230, 2115.881
529.1020, 2138.168
530.2810, 2037.419
531.4590, 1814.648
532.6380, 1988.852
533.8160, 1956.016
534.9940, 1722.178
536.1720, 1840.339
537.3500, 1698.485
538.5270, 1556.594
539.7050, 1435.662
540.8820, 1330.709
542.0590, 1244.741
543.2360, 1048.732
544.4130, 832.6914
545.5900, 888.6104
546.7660, 853.4980
547.9430, 667.3457
549.1190, 650.1504
550.2950, 576.9141
551.4710, 473.6367
552.6470, 515.3213
553.8220, 392.9619
554.9980, 380.5625
556.1730, 381.1191
557.3480, 346.6299
558.5230, 325.1162
559.6980, 309.5557
560.8730, 286.0566
562.0470, 259.3232
563.2220, 240.6494
564.3960, 193.9346
565.5700, 145.1943
566.7440, 144.3877
567.9170, 141.5166
569.0910, 155.5791
570.2640, 126.6045
571.4380, 170.5723
572.6110, 166.4824
573.7840, 225.3486
574.9570, 207.1855
576.1290, 328.9658
577.3020, 255.7051
578.4740, 123.3887
579.6460, 253.9971
580.8180, 107.5576
581.9900, 188.0547
583.1620, 302.4902
584.3330, 298.8691
585.5040, 204.2031
586.6760, 323.4717
587.8470, 297.6895
589.0180, 293.5078
590.1880, 289.5498
591.3590, 338.0186
592.5290, 331.4150
593.7000, 335.5986
594.8700, 268.9951
596.0400, 336.4717
597.2090, 295.3701
598.3790, 306.8105
599.5490, 378.5469
600.7180, 408.3730
601.8870, 347.2754
603.0560, 510.3105
604.2250, 430.9834
605.3940, 746.5039
606.5620, 726.0049
607.7300, 675.4844
608.8990, 812.9980
610.0670, 776.7520
611.2350, 924.1572
612.4020, 968.8828
613.5700, 1176.605
614.7370, 1139.289
615.9050, 1336.654
617.0720, 1257.152
618.2390, 1494.029
619.4060, 1659.813
620.5720, 1725.180
621.7390, 1769.280
622.9050, 1982.567
624.0710, 2050.920
625.2370, 2340.040
626.4030, 2472.649
627.5690, 2624.496
628.7340, 2920.633
629.9000, 3272.507
631.0650, 3503.258
632.2300, 3730.170
633.3950, 4008.234
634.5600, 4364.649
635.7240, 4836.284
636.8890, 5183.372
638.0530, 5676.629
639.2170, 6010.536
640.3810, 6391.133
641.5450, 6906.539
642.7080, 7453.682
643.8720, 8139.552
645.0350, 8623.188
646.1980, 9288.084
647.3610, 10104.53
648.5240, 10698.90
649.6870, 11399.58
650.8490, 12131.14
652.0120, 13110.42
653.1740, 14070.21
654.3360, 15132.12
655.4980, 15910.48
656.6600, 17162.60
657.8210, 18774.59
658.9830, 19649.05
660.1440, 21467.02
661.3050, 23523.03
662.4660, 25736.82
663.6270, 28176.21
664.7870, 30574.08
665.9480, 33589.20
667.1080, 36182.21
668.2680, 39239.98
669.4280, 41603.54
670.5880, 43697.90
671.7480, 45683.27
672.9070, 46151.54
674.0670, 46220.58
675.2260, 45540.35
676.3850, 43835.50
677.5440, 41257.58
678.7030, 38447.71
679.8610, 35218.46
681.0200, 31791.75
682.1780, 28301.48
683.3360, 25036.85
684.4940, 22184.74
685.6520, 19229.98
686.8090, 16728.54
687.9670, 14629.13
689.1240, 12842.77
690.2810, 11301.27
691.4380, 9971.848
692.5950, 8744.387
693.7520, 8004.082
694.9080, 6865.959
696.0650, 6182.017
697.2210, 5655.406
698.3770, 5057.981
699.5330, 4496.438
700.6880, 4017.798
701.8440, 3495.164
702.9990, 3183.023
704.1550, 2941.707
705.3100, 2692.932
706.4650, 2369.569
707.6190, 2189.992
708.7740, 2099.611
709.9290, 1810.285
711.0830, 1872.779
712.2370, 1671.754
713.3910, 1487.078
714.5450, 1403.484
715.6980, 1372.432
716.8520, 1141.886
718.0050, 1271.927
719.1580, 1065.498
720.3110, 1131.889
721.4640, 1111.174
722.6170, 1005.460
723.7700, 983.6133
724.9220, 961.4629
726.0740, 945.4531
727.2260, 911.1436
728.3780, 931.0938
729.5300, 928.6338
730.6810, 843.2129
731.8330, 725.4951
732.9840, 786.4668
734.1350, 602.3057
735.2860, 553.2812
736.4370, 533.7529
737.5880, 481.9160
738.7380, 426.8760
739.8880, 402.2197
741.0390, 385.5459
742.1890, 331.3984
743.3380, 310.2246
744.4880, 266.0352
745.6380, 313.8027
746.7870, 216.5518
747.9360, 189.2881
749.0850, 399.0205
750.2340, 202.7393
751.3830, 88.42871
752.5310, 16.08496
753.6800, 179.7168
754.8280, 8.318359
755.9760, 94.88086
757.1240, 120.4062
758.2720, 3.075195
759.4190, 215.4160
760.5670, 7.117188
761.7140, 5.301758
762.8610, 5.349609
764.0080, 83.90625
765.1550, 98.90625
766.3020, 0.1396480
767.4480, 35.10547
768.5950, 112.9990
769.7410, 9.161133
770.8870, 139.5879
772.0330, 3.728516
773.1780, 88.13379
774.3240, 95.32812
775.4690, 11.72461
776.6140, 112.0430
777.7590, 173.2939
778.9040, 4.484375
780.0490, 40.40723
781.1940, 67.59766
782.3380, 109.5361
783.4820, 40.58887
784.6260, 50.81641
785.7700, 132.8477
786.9140, 25.54980
788.0580, 25.04102
789.2010, 111.3750
790.3450, 22.72852
791.4880, 66.98438
792.6310, 50.18750
793.7730, 6.295898
794.9160, 108.3311
796.0590, 19.30469
797.2010, 83.21387
798.3430, 62.06055
799.4850, 97.84473
800.6270, 7.430664
801.7690, 51.21680
802.9100, 10.80176
804.0520, 12.32129
805.1930, 30.77637
806.3340, 62.16895
807.4750, 32.49902
808.6160, 18.25195
809.7560, 87.91504
810.8970, 111.9746
812.0370, 124.9912
813.1770, 69.14062
814.3170, 70.60645
815.4570, 42.29688
816.5960, 52.07031
817.7360, 78.53027
818.8750, 91.90430
820.0140, 19.71680
821.1530, 20.58984
822.2920, 37.15918
823.4310, 68.00977
824.5690, 44.12402
825.7070, 16.18262
826.8460, 33.03516
827.9840, 19.86621
829.1220, 46.01367
830.2590, 11.16113
831.3970, 116.6016
832.5340, 57.31348
833.6710, 74.02637
834.8080, 132.5391
835.9450, 125.0566
837.0820, 130.4756
838.2190, 57.87305
839.3550, 33.82715
840.4910, 121.5938
841.6270, 145.5303
842.7630, 18.61621
843.8990, 32.65918
845.0350, 109.3389
846.1700, 59.43359
847.3060, 19.59375
848.4410, 86.80469
849.5760, 112.0996
850.7100, 7.493164
851.8450, 52.93555
852.9800, 16.55469
854.1140, 44.99805
855.2480, 37.59473
856.3820, 85.24414
857.5160, 8.036133
858.6500, 6.274414
859.7830, 55.53320
860.9170, 111.5957
862.0500, 30.31445
863.1830, 65.72266
864.3160, 37.28223
865.4480, 58.65918
866.5810, 88.55859
867.7130, 147.4170
868.8460, 218.2422
869.9780, 183.0322
871.1100, 209.7900
872.2410, 141.5137
873.3730, 39.20605
874.5050, 306.8623
875.6360, 485.4883
876.7670, 422.0840
877.8980, 514.6494
879.0290, 641.0225
880.1590, 693.2793
881.2900, 916.3262
882.4200, 899.5449
883.5500, 1019.330
884.6800, 1144.979
885.8100, 1391.345
886.9400, 1486.018
888.0690, 1518.161
889.1990, 1728.860
890.3280, 1832.370
891.4570, 1922.696
892.5860, 2057.816
893.7140, 2134.019
894.8430, 2345.666
895.9710, 2417.238
897.1000, 2379.646
898.2280, 2575.828
899.3560, 2440.355
900.4830, 2911.340
901.6110, 2957.062
902.7380, 3231.039
903.8660, 3255.499
904.9930, 3480.635
906.1200, 3588.064
907.2460, 3926.275
908.3730, 4068.059
909.5000, 4243.555
910.6260, 4286.532
911.7520, 4548.293
912.8780, 4699.941
914.0040, 4960.668
915.1290, 5066.107
916.2550, 5301.742
917.3800, 5418.586
918.5050, 5398.613
919.6300, 5543.318
920.7550, 5573.414
921.8800, 5460.537
923.0040, 5603.293
924.1290, 5429.100
925.2530, 5444.108
926.3770, 5170.528
927.5010, 5164.764
928.6250, 5001.475
929.7480, 4761.359
930.8720, 4713.297
931.9950, 4542.729
933.1180, 4344.562
934.2410, 4197.338
935.3640, 4328.252
936.4860, 4170.496
937.6090, 4150.197
938.7310, 3911.602
939.8530, 4154.058
940.9750, 3820.681
942.0970, 3734.458
943.2180, 3899.403
944.3400, 3956.271
945.4610, 3496.168
946.5820, 3777.219
947.7030, 3875.485
948.8240, 3621.297
949.9450, 3896.097
951.0650, 3703.769
952.1860, 3700.790
953.3060, 3646.191
954.4260, 3578.080
955.5460, 3563.277
956.6650, 3446.881
957.7850, 3417.225
958.9040, 3463.857
960.0230, 3292.555
961.1420, 3147.127
962.2610, 3017.768
963.3800, 3158.260
964.4990, 3049.949
965.6170, 2997.947
966.7350, 3029.920
967.8530, 2854.641
968.9710, 2799.971
970.0890, 2870.012
971.2070, 2966.023
972.3240, 2824.951
973.4410, 2959.672
974.5580, 2979.736
975.6750, 2967.365
976.7920, 3042.445
977.9090, 3090.998
979.0250, 2844.604
980.1410, 2923.211
981.2580, 3088.998
982.3740, 3329.842
983.4890, 3234.023
984.6050, 3218.672
985.7200, 3307.916
986.8360, 3410.340
987.9510, 3605.865
989.0660, 3503.506
990.1810, 3755.727
991.2950, 3833.393
992.4100, 4082.863
993.5240, 4182.322
994.6390, 4220.816
995.7530, 4581.717
996.8660, 4659.309
997.9800, 5000.012
999.0940, 5237.598
1000.207, 5302.357
1001.320, 5753.148
1002.433, 5931.260
1003.546, 6262.848
1004.659, 6563.727
1005.772, 6901.893
1006.884, 7000.223
1007.996, 7274.152
1009.108, 7516.650
1010.220, 7447.314
1011.332, 7694.756
1012.444, 7829.895
1013.555, 7860.223
1014.666, 8228.949
1015.777, 8257.793
1016.888, 8332.234
1017.999, 8430.102
1019.110, 8369.162
1020.220, 8453.844
1021.331, 8513.697
1022.441, 8505.992
1023.551, 8537.566
1024.661, 8612.432
1025.770, 8478.363
1026.880, 8692.477
1027.989, 8730.430
1029.098, 8606.344
1030.207, 8631.949
1031.316, 8758.855
1032.425, 8821.500
1033.533, 9096.338
1034.642, 9231.910
1035.750, 9423.059
1036.858, 9610.121
1037.966, 9717.582
1039.073, 9942.705
1040.181, 9951.332
1041.288, 10131.45
1042.396, 10334.79
1043.503, 10228.59
1044.610, 10357.81
1045.716, 10460.27
1046.823, 10620.90
1047.929, 10728.37
1049.036, 10798.29
1050.142, 10846.43
1051.248, 11043.05
1052.353, 10979.42
1053.459, 11517.83
1054.564, 11592.69
1055.670, 12030.79
1056.775, 12131.85
1057.880, 12579.48
1058.985, 12878.16
1060.089, 12973.75
1061.194, 13381.41
1062.298, 13694.80
1063.402, 13812.04
1064.506, 13732.48
1065.610, 13613.61
1066.713, 13436.70
1067.817, 12875.32
1068.920, 12951.79
1070.023, 12329.36
1071.126, 11574.40
1072.229, 11121.51
1073.332, 10401.56
1074.435, 9577.105
1075.537, 8807.771
1076.639, 8190.211
1077.741, 7506.660
1078.843, 6659.297
1079.945, 6222.600
1081.046, 5522.523
1082.148, 5117.578
1083.249, 4547.242
1084.350, 4180.303
1085.451, 3791.668
1086.551, 3256.357
1087.652, 2934.525
1088.752, 2697.170
1089.853, 2553.840
1090.953, 2351.463
1092.053, 2102.318
1093.152, 1931.543
1094.252, 1822.939
1095.351, 1862.072
1096.451, 1649.387
1097.550, 1577.121
1098.649, 1446.061
1099.748, 1348.617
1100.846, 1262.330
1101.945, 1167.873
1103.043, 983.3066
1104.141, 954.3359
1105.239, 837.7266
1106.337, 792.8477
1107.434, 671.6914
1108.532, 731.2383
1109.629, 650.1953
1110.726, 596.7539
1111.823, 605.2734
1112.920, 763.2324
1114.017, 864.4121
1115.113, 758.4453
1116.210, 500.1895
1117.306, 755.9102
1118.402, 790.0879
1119.498, 723.9512
1120.593, 956.3379
1121.689, 867.7363
1122.784, 965.6562
1123.879, 905.1934
1124.974, 708.5527
1126.069, 661.7617
1127.164, 455.8184
1128.259, 499.8145
1129.353, 463.7773
1130.447, 340.0938
1131.541, 376.7734
1132.635, 442.2754
1133.729, 148.9102
1134.822, 347.4355
1135.916, 244.2578
1137.009, 206.5430
1138.102, 101.5098
1139.195, 96.99219
1140.288, 156.5703
1141.380, 117.7188
1142.473, 171.8164
1143.565, 245.6230
1144.657, 200.7812
1145.749, 106.4941
1146.841, 78.87109
1147.932, 176.3945
1149.024, 21.80273
1150.115, 29.17578
1151.206, 73.40625
1152.297, 79.63672
1153.388, 29.22070
1154.479, 10.91406
1155.569, 19.59375
1156.659, 37.09961
1157.750, 25.40820
1158.839, 85.65039
1159.929, 77.49219
1161.019, 77.73438
1162.108, 25.69141
1163.198, 70.51172
1164.287, 63.59961
1165.376, 184.0391
1166.465, 144.0078
1167.553, 102.8262
1168.642, 99.92188
1169.730, 43.22852
1170.818, 1.107422
1171.906, 45.46875
1172.994, 7.539063
1174.082, 19.86328
1175.170, 73.59375
1176.257, 108.2305
1177.344, 165.7207
1178.431, 59.20312
1179.518, 92.58984
1180.605, 20.16406
1181.691, 73.68164
1182.778, 9.490234
1183.864, 38.22070
1184.950, 60.49609
1186.036, 31.88086
1187.122, 56.48438
1188.207, 158.6133
1189.292, 142.7695
1190.378, 161.5664
1191.463, 143.7500
1192.548, 18.96094
1193.632, 31.94141
1194.717, 64.00000
1195.801, 255.8730
1196.886, 121.0996
1197.970, 125.8496
1199.054, 156.6094
1200.137, 17.95312
1201.221, 86.83008
1202.305, 37.10156
1203.388, 233.7441
1204.471, 77.79688
1205.554, 95.37695
1206.637, 126.6641
1207.719, 120.6699
1208.802, 83.41602
1209.884, 150.3633
1210.966, 53.09766
1212.048, 209.3594
1213.130, 295.7812
1214.212, 50.18750
1215.293, 116.5430
1216.374, 274.9199
1217.456, 34.91211
1218.536, 271.9199
1219.617, 257.4980
1220.698, 264.0234
1221.778, 20.82227
1222.859, 340.8770
1223.939, 209.6250
1225.019, 186.8203
1226.099, 93.40430
1227.178, 423.0156
1228.258, 366.0371
1229.337, 207.3281
1230.417, 5.042969
1231.496, 433.7012
1232.574, 64.81641
1233.653, 297.4688
1234.732, 259.9219
1235.810, 359.8340
1236.888, 172.0059
1237.966, 386.3711
1239.044, 95.45703
1240.122, 360.1641
1241.199, 138.3555
1242.277, 486.8789
1243.354, 186.4746
1244.431, 211.8496
1245.508, 273.5449
1246.585, 274.3418
1247.661, 392.0137
1248.738, 457.7598
1249.814, 561.0215
1250.890, 544.0879
1251.966, 407.8125
1253.042, 490.1602
1254.117, 519.1230
1255.193, 302.3887
1256.268, 327.2930
1257.343, 567.2617
1258.418, 322.8340
1259.493, 464.2383
1260.567, 366.8223
1261.642, 394.3066
1262.716, 347.6973
1263.790, 355.3281
1264.864, 505.7676
1265.938, 377.6387
1267.011, 435.4492
1268.085, 408.7539
1269.158, 376.2031
1270.231, 335.8242
1271.304, 419.3379
1272.377, 286.6289
1273.450, 276.2227
1274.522, 605.6230
1275.594, 425.6797
1276.666, 368.6758
1277.738, 520.5684
1278.810, 453.5723
1279.882, 567.6250
1280.953, 383.9668
1282.025, 339.6250
1283.096, 512.3691
1284.167, 485.7656
1285.238, 262.7461
1286.308, 540.6797
1287.379, 514.6953
1288.449, 427.3887
1289.519, 491.8965
1290.589, 543.7246
1291.659, 430.8047
1292.729, 366.2656
1293.798, 425.1934
1294.868, 492.8359
1295.937, 412.7871
1297.006, 474.1270
1298.075, 315.4980
1299.143, 445.9199
1300.212, 442.2617
1301.280, 297.0957
1302.348, 382.0605
1303.416, 668.8496
1304.484, 363.4023
1305.552, 191.3574
1306.620, 359.6152
1307.687, 628.5664
1308.754, 493.7109
1309.821, 404.8750
1310.888, 448.3848
1311.955, 393.7012
1313.021, 509.2441
1314.088, 492.5176
1315.154, 514.5781
1316.220, 540.0371
1317.286, 478.5098
1318.352, 591.0059
1319.417, 708.7305
1320.483, 672.1816
1321.548, 454.4395
1322.613, 645.9961
1323.678, 651.7715
1324.743, 586.3047
1325.807, 798.5703
1326.872, 567.8125
1327.936, 634.6094
1329.000, 631.9629
1330.064, 644.6602
1331.128, 700.5391
1332.191, 472.5234
1333.255, 666.0684
1334.318, 461.7402
1335.381, 436.2324
1336.444, 476.3828
1337.507, 393.8262
1338.569, 650.1621
1339.632, 488.8633
1340.694, 415.8262
1341.756, 714.8203
1342.818, 495.0918
1343.880, 546.1934
1344.941, 563.5664
1346.003, 354.9609
1347.064, 382.4219
1348.125, 359.7988
1349.186, 499.4844
1350.247, 636.4102
1351.308, 436.7012
1352.368, 533.2090
1353.428, 403.9395
1354.489, 359.8848
1355.549, 465.6816
1356.608, 604.4121
1357.668, 466.7793
1358.727, 435.0898
1359.787, 289.9258
1360.846, 361.0293
1361.905, 371.7949
1362.964, 462.2383
1364.022, 602.9668
1365.081, 517.6328
1366.139, 546.9922
1367.197, 359.0039
1368.255, 442.8848
1369.313, 323.5098
1370.371, 268.4883
1371.428, 281.1484
1372.486, 403.8047
1373.543, 170.6074
1374.600, 330.0391
1375.657, 273.6895
1376.713, 176.5078
1377.770, 359.2832
1378.826, 401.4980
1379.882, 452.2051
1380.938, 504.6875
1381.994, 392.2988
1383.050, 219.7949
1384.106, 379.2031
1385.161, 218.7871
1386.216, 217.7051
1387.271, 68.89844
1388.326, 307.4688
1389.381, 308.9434
1390.435, 389.2324
1391.490, 429.0078
1392.544, 375.4434
1393.598, 304.6230
1394.652, 273.0723
1395.705, 213.4531
1396.759, 198.4199
1397.812, 336.2910
1398.866, 395.8281
1399.919, 79.59375
1400.972, 67.08398
1402.024, 241.9199
1403.077, 419.0039
1404.129, 253.7168
1405.181, 156.3555
1406.233, 109.9590
1407.285, 209.3750
1408.337, 126.2734
1409.389, 158.3418
1410.440, 143.4629
1411.491, 125.7324
1412.542, 238.8672
1413.593, 92.04297
1414.644, 202.6523
1415.695, 206.8086
1416.745, 11.96484
1417.795, 181.9727
1418.845, 100.5273
1419.895, 45.35938
1420.945, 110.7852
1421.995, 23.88672
1423.044, 33.94141
1424.093, 158.0625
1425.142, 35.58984
1426.191, 13.98828
1427.240, 240.1445
1428.289, 162.4961
1429.337, 107.0195
1430.385, 176.5352
1431.433, 86.62891
1432.481, 40.79688
1433.529, 12.62891
1434.577, 61.62891
1435.624, 37.56250
1436.672, 74.05078
1437.719, 6.296875
1438.766, 127.7734
1439.812, 137.4062
1440.859, 37.37891
1441.905, 346.6133
1442.952, 182.4414
1443.998, 11.85938
1445.044, 187.4219
1446.090, 214.9766
1447.135, 317.6133
1448.181, 28.19141
1449.226, 41.09375
1450.271, 69.82422
1451.316, 32.90234
1452.361, 243.7617
1453.405, 342.5859
1454.450, 71.27344
1455.494, 380.8672
1456.538, 121.0039
1457.582, 218.0859
1458.626, 400.9219
1459.670, 132.2266
1460.713, 348.7539
1461.757, 49.73438
1462.800, 221.3711
1463.843, 287.4805
1464.886, 252.3750
1465.928, 355.5078
1466.971, 393.6211
1468.013, 421.2969
1469.055, 157.6406
1470.097, 79.18750
1471.139, 230.4570
1472.181, 290.8008
1473.222, 253.8047
1474.263, 176.3203
1475.305, 216.1094
1476.346, 227.1484
1477.386, 240.5664
1478.427, 362.2148
1479.468, 374.9180
1480.508, 493.3320
1481.548, 404.9961
1482.588, 277.6836
1483.628, 226.8008
1484.668, 318.4258
1485.707, 464.4805
1486.747, 348.6289
1487.786, 574.3242
1488.825, 323.6484
1489.864, 593.7539
1490.902, 429.5430
1491.941, 425.7656
1492.979, 713.5547
1494.017, 592.8516
1495.055, 591.8984
1496.093, 515.7188
1497.131, 235.6406
1498.168, 437.5820
1499.206, 471.5742
1500.243, 238.6680
1501.280, 454.9727
1502.317, 639.5000
1503.354, 340.6250
1504.390, 714.5039
1505.426, 323.6289
1506.463, 466.1250
1507.499, 689.4453
1508.535, 495.8398
1509.570, 305.5664
1510.606, 171.2969
1511.641, 468.4414
1512.676, 383.0977
1513.711, 384.5312
1514.746, 327.7070
1515.781, 455.4219
1516.816, 393.5977
1517.850, 348.6562
1518.884, 380.5117
1519.918, 274.6367
1520.952, 289.1367
1521.986, 209.0586
1523.019, 403.1211
1524.053, 446.1367
1525.086, 327.8789
1526.119, 251.5234
1527.152, 197.3867
1528.185, 171.5977
1529.217, 309.2930
1530.250, 165.3945
1531.282, 374.9453
1532.314, 376.2930
1533.346, 148.9922
1534.377, 120.4141
1535.409, 264.8281
1536.440, 573.5234
1537.472, 273.9336
1538.503, 567.1484
1539.534, 328.1758
1540.564, 306.1758
1541.595, 25.16016
1542.625, 198.9844
1543.656, 366.7500
1544.686, 174.7539
1545.716, 234.1055
1546.745, 184.2695
1547.775, 107.1016
1548.804, 39.14453
1549.834, 188.1016
1550.863, 152.1055
1551.892, 206.2305
1552.920, 358.9922
1553.949, 288.5117
1554.977, 236.9180
1556.006, 245.6367
1557.034, 90.58203
1558.062, 33.05469
1559.089, 183.0195
1560.117, 179.9844
1561.144, 323.2812
1562.172, 187.1484
1563.199, 200.4844
1564.226, 332.6133
1565.252, 18.66016
1566.279, 421.2422
1567.305, 218.6797
1568.332, 241.5742
1569.358, 10.65625
1570.384, 116.3477
1571.409, 1.558594
1572.435, 0.0000000E+00
##END=



