##NAMES=Edenite
##RRUFFID=R050415
##IDEAL CHEMISTRY=NaCa_2_Mg_5_(Si_7_Al)O_22_(OH)_2_
##LOCALITY=Mogok, Burma
##OWNER=RRUFF
##SOURCE=Marcus Origlieri
##DESCRIPTION=Transparent pale green water worn fragment
##STATUS=The identification of this mineral has been confirmed by X-ray diffraction and chemical analysis
##URL=rruff.info/R050415
##MEASURED CHEMISTRY=(Na_0.83_K_0.17_)(Ca_1.76_Na_0.24_)_&#931;=2_(Mg_4.54_Al_0.40_Fe^3+^_0.06_)_&#931;=5_(Si_6.74_Al_1.26_)O_22_((OH)_0.52_F_0.48_)_2_
##PIN_ID=L01772
##ORIENTATION=Laser parallel to (-1 0 -1). Fiducial mark perpendicular to laser is parallel to b [0 1 0]
108.2800, 0.0000000E+00
109.5120, 939.0342
110.7440, 176.4043
111.9760, 84.36133
113.2080, 386.6855
114.4400, 870.3379
115.6710, 1471.183
116.9030, 1914.445
118.1340, 2367.962
119.3650, 2811.020
120.5960, 2986.451
121.8270, 3021.788
123.0580, 2687.095
124.2880, 2206.394
125.5190, 1643.495
126.7490, 998.2881
127.9790, 632.2871
129.2090, 276.5225
130.4390, 182.2822
131.6680, 38.46680
132.8980, 23.96582
134.1270, 54.31543
135.3560, 157.4561
136.5850, 30.52930
137.8140, 20.40820
139.0430, 211.3037
140.2710, 245.1094
141.5000, 199.7842
142.7280, 337.2861
143.9560, 216.5840
145.1840, 148.6396
146.4120, 56.59375
147.6390, 171.8262
148.8670, 85.14453
150.0940, 34.54395
151.3210, 325.5947
152.5490, 337.2402
153.7750, 332.3652
155.0020, 641.9502
156.2290, 1033.980
157.4550, 1287.442
158.6810, 1722.322
159.9080, 2694.611
161.1340, 3395.301
162.3590, 4447.383
163.5850, 5439.857
164.8110, 6070.727
166.0360, 6145.986
167.2610, 5723.627
168.4860, 4996.640
169.7110, 4111.018
170.9360, 3642.752
172.1610, 2981.833
173.3850, 2725.259
174.6100, 2306.019
175.8340, 2065.107
177.0580, 2010.517
178.2820, 1885.242
179.5050, 1796.279
180.7290, 1759.239
181.9520, 1808.189
183.1760, 1687.801
184.3990, 1663.489
185.6220, 1630.270
186.8450, 1495.150
188.0670, 1224.141
189.2900, 1070.236
190.5120, 961.4434
191.7340, 971.7705
192.9560, 837.2246
194.1780, 822.8096
195.4000, 820.4414
196.6220, 770.1533
197.8430, 879.0264
199.0640, 901.0684
200.2860, 1108.284
201.5070, 1194.655
202.7270, 1406.172
203.9480, 1414.863
205.1690, 1491.739
206.3890, 1736.685
207.6090, 1906.493
208.8290, 2228.454
210.0490, 2514.057
211.2690, 2821.840
212.4890, 3288.805
213.7080, 3644.949
214.9280, 4015.314
216.1470, 4552.973
217.3660, 5047.859
218.5850, 5398.017
219.8030, 6020.483
221.0220, 6718.149
222.2400, 7263.020
223.4590, 8156.062
224.6770, 9080.271
225.8950, 9970.638
227.1120, 10877.16
228.3300, 11861.84
229.5480, 12867.68
230.7650, 14213.67
231.9820, 15755.81
233.1990, 17017.11
234.4160, 18648.55
235.6330, 19517.14
236.8490, 20260.88
238.0660, 20306.76
239.2820, 19962.79
240.4980, 19269.96
241.7140, 18240.27
242.9300, 16974.73
244.1460, 16286.31
245.3610, 15512.04
246.5770, 14739.89
247.7920, 13927.88
249.0070, 13103.01
250.2220, 12103.26
251.4370, 11275.64
252.6510, 10191.15
253.8660, 9225.779
255.0800, 8102.112
256.2940, 7359.232
257.5080, 6836.863
258.7220, 6223.869
259.9360, 5354.177
261.1490, 4440.750
262.3630, 3785.491
263.5760, 3259.419
264.7890, 2948.539
266.0020, 2221.846
267.2150, 2294.329
268.4270, 1827.545
269.6400, 1614.924
270.8520, 1252.526
272.0640, 1151.363
273.2760, 1014.411
274.4880, 1025.637
275.7000, 834.0205
276.9120, 637.6338
278.1230, 690.4502
279.3340, 624.3926
280.5450, 523.8701
281.7560, 399.1377
282.9670, 508.4277
284.1780, 516.3975
285.3880, 399.5625
286.5980, 436.9316
287.8090, 417.7676
289.0190, 473.2803
290.2290, 492.2559
291.4380, 439.4209
292.6480, 592.4189
293.8570, 480.9062
295.0670, 576.4482
296.2760, 595.6816
297.4850, 663.5811
298.6930, 658.6123
299.9020, 751.7803
301.1110, 848.0752
302.3190, 927.4971
303.5270, 875.0420
304.7350, 872.7021
305.9430, 1017.477
307.1510, 1157.366
308.3580, 1281.375
309.5660, 1415.519
310.7730, 1521.775
311.9800, 1714.145
313.1870, 1946.628
314.3940, 2190.215
315.6010, 2440.909
316.8070, 2574.723
318.0130, 2690.653
319.2200, 2706.341
320.4260, 2676.830
321.6310, 2713.053
322.8370, 2635.289
324.0430, 2593.770
325.2480, 2478.115
326.4540, 2368.133
327.6590, 2042.899
328.8640, 1799.004
330.0680, 1868.950
331.2730, 1866.462
332.4780, 1741.248
333.6820, 1623.945
334.8860, 1482.350
336.0900, 1532.707
337.2940, 1602.826
338.4980, 1588.344
339.7010, 1622.941
340.9050, 1594.617
342.1080, 1864.375
343.3110, 1811.209
344.5140, 1990.119
345.7170, 2081.107
346.9200, 2248.172
348.1220, 2531.311
349.3240, 2467.523
350.5270, 2700.809
351.7290, 2631.168
352.9310, 2808.598
354.1320, 2708.100
355.3340, 3039.670
356.5350, 3102.311
357.7370, 3430.018
358.9380, 3357.795
360.1390, 3756.637
361.3400, 3866.543
362.5400, 4047.516
363.7410, 4398.547
364.9410, 4459.645
366.1410, 4611.801
367.3410, 4730.014
368.5410, 4957.287
369.7410, 5251.619
370.9400, 5276.006
372.1400, 5488.449
373.3390, 5593.947
374.5380, 5740.500
375.7370, 5762.107
376.9360, 6083.768
378.1350, 6055.479
379.3330, 6193.242
380.5310, 6130.059
381.7300, 6374.922
382.9280, 6633.834
384.1260, 6890.795
385.3230, 7150.805
386.5210, 7468.863
387.7180, 7975.965
388.9160, 8282.115
390.1130, 8339.307
391.3100, 8238.547
392.5060, 8441.828
393.7030, 8183.152
394.9000, 7724.520
396.0960, 7578.926
397.2920, 6692.375
398.4880, 6387.863
399.6840, 5627.426
400.8800, 5139.062
402.0750, 4715.766
403.2710, 4276.535
404.4660, 4155.371
405.6610, 3946.271
406.8560, 3963.234
408.0510, 3634.260
409.2450, 3480.346
410.4400, 3545.494
411.6340, 3431.699
412.8280, 3664.967
414.0220, 3783.293
415.2160, 3824.760
416.4100, 4005.465
417.6030, 4239.848
418.7970, 4545.584
419.9900, 4493.453
421.1830, 5072.275
422.3760, 4983.080
423.5690, 5277.512
424.7610, 5145.451
425.9540, 5231.287
427.1460, 5300.141
428.3380, 5042.748
429.5300, 4922.047
430.7220, 4612.023
431.9140, 4406.203
433.1050, 4263.689
434.2970, 3875.607
435.4880, 3626.652
436.6790, 3024.330
437.8700, 2616.705
439.0610, 2220.279
440.2510, 1758.102
441.4420, 1538.246
442.6320, 1331.008
443.8220, 1158.328
445.0120, 857.7051
446.2020, 944.7344
447.3910, 636.2266
448.5810, 647.7402
449.7700, 342.0703
450.9600, 243.0137
452.1490, 148.2461
453.3370, 78.03320
454.5260, 97.60156
455.7150, 119.1621
456.9030, 68.06250
458.0910, 83.14062
459.2800, 15.52539
460.4670, 30.75781
461.6550, 39.99219
462.8430, 145.9688
464.0300, 136.0195
465.2180, 176.6387
466.4050, 68.20312
467.5920, 102.9883
468.7790, 182.2637
469.9650, 13.29883
471.1520, 291.7461
472.3380, 31.69336
473.5250, 27.86133
474.7110, 118.4141
475.8970, 27.99805
477.0820, 50.58594
478.2680, 17.81445
479.4540, 33.78320
480.6390, 50.61133
481.8240, 214.0078
483.0090, 28.40234
484.1940, 102.8027
485.3780, 217.1992
486.5630, 327.5977
487.7470, 406.9961
488.9320, 302.3906
490.1160, 359.8145
491.3000, 242.2324
492.4830, 263.6504
493.6670, 336.0684
494.8500, 71.48047
496.0340, 82.88867
497.2170, 261.2969
498.4000, 329.6973
499.5820, 476.0918
500.7650, 646.4766
501.9480, 517.8789
503.1300, 806.2949
504.3120, 1113.701
505.4940, 1106.104
506.6760, 1429.506
507.8580, 1816.902
509.0390, 1902.289
510.2210, 2156.664
511.4020, 2500.025
512.5830, 2797.373
513.7640, 3093.705
514.9450, 3292.309
516.1250, 3452.295
517.3060, 3575.715
518.4860, 3670.035
519.6660, 3682.355
520.8460, 3794.656
522.0260, 3612.941
523.2060, 3628.209
524.3850, 3616.457
525.5650, 3306.734
526.7440, 3392.990
527.9230, 3292.223
529.1020, 2998.434
530.2810, 2938.625
531.4590, 2820.793
532.6380, 2504.977
533.8160, 2121.137
534.9940, 2127.277
536.1720, 1955.393
537.3500, 1601.482
538.5270, 1442.555
539.7050, 1335.604
540.8820, 1116.666
542.0590, 1122.740
543.2360, 997.8242
544.4130, 663.9336
545.5900, 806.0449
546.7660, 548.1621
547.9430, 383.2461
549.1190, 454.3008
550.2950, 145.3262
551.4710, 225.3164
552.6470, 252.2812
553.8220, 336.2207
554.9980, 258.1348
556.1730, 7.000000
557.3480, 84.81836
558.5230, 17.40039
559.6980, 99.68945
560.8730, 51.10742
562.0470, 15.62695
563.2220, 76.23438
564.3960, 194.9629
565.5700, 40.87500
566.7440, 99.89062
567.9170, 209.0488
569.0910, 43.40039
570.2640, 99.86133
571.4380, 76.46484
572.6110, 157.2012
573.7840, 96.23242
574.9570, 85.15234
576.1290, 10.66602
577.3020, 2.390625
578.4740, 49.02930
579.6460, 165.5859
580.8180, 149.0918
581.9900, 93.54297
583.1620, 76.92383
584.3330, 135.2344
585.5040, 95.47852
586.6760, 160.6562
587.8470, 289.7734
589.0180, 345.8418
590.1880, 155.8555
591.3590, 128.8477
592.5290, 16.77148
593.7000, 143.6133
594.8700, 113.4004
596.0400, 116.7305
597.2090, 239.7500
598.3790, 135.3340
599.5490, 47.84375
600.7180, 49.25586
601.8870, 105.5703
603.0560, 16.15430
604.2250, 113.9473
605.3940, 29.02539
606.5620, 98.10352
607.7300, 30.95508
608.8990, 292.9434
610.0670, 165.2891
611.2350, 101.9023
612.4020, 425.1973
613.5700, 335.8535
614.7370, 605.1895
615.9050, 423.8770
617.0720, 530.7773
618.2390, 575.8926
619.4060, 672.2988
620.5720, 709.0176
621.7390, 821.0000
622.9050, 1011.904
624.0710, 1034.527
625.2370, 1199.777
626.4030, 1303.803
627.5690, 1495.105
628.7340, 1424.656
629.9000, 1662.988
631.0650, 1707.992
632.2300, 2114.221
633.3950, 2013.656
634.5600, 2541.900
635.7240, 2698.379
636.8890, 2828.633
638.0530, 3162.930
639.2170, 3492.070
640.3810, 3879.041
641.5450, 4080.689
642.7080, 4339.225
643.8720, 4896.477
645.0350, 5167.531
646.1980, 5819.066
647.3610, 6207.111
648.5240, 6695.598
649.6870, 7362.586
650.8490, 8019.516
652.0120, 8332.803
653.1740, 9003.824
654.3360, 9667.877
655.4980, 10302.75
656.6600, 11219.35
657.8210, 11857.70
658.9830, 12984.17
660.1440, 13850.69
661.3050, 15211.53
662.4660, 16774.16
663.6270, 18225.31
664.7870, 20218.93
665.9480, 22287.58
667.1080, 24402.08
668.2680, 26453.00
669.4280, 28655.41
670.5880, 30400.75
671.7480, 31989.67
672.9070, 32910.66
674.0670, 33271.62
675.2260, 33200.82
676.3850, 31915.09
677.5440, 30449.60
678.7030, 28355.26
679.8610, 25970.85
681.0200, 23481.20
682.1780, 21156.18
683.3360, 18500.38
684.4940, 16485.14
685.6520, 14536.83
686.8090, 12692.06
687.9670, 11224.24
689.1240, 9408.383
690.2810, 8491.176
691.4380, 7460.473
692.5950, 6636.211
693.7520, 5575.967
694.9080, 5310.867
696.0650, 4590.523
697.2210, 4172.154
698.3770, 3980.867
699.5330, 3287.893
700.6880, 3151.896
701.8440, 2745.551
702.9990, 2614.473
704.1550, 2392.658
705.3100, 2095.330
706.4650, 1952.799
707.6190, 1905.695
708.7740, 1828.689
709.9290, 1586.133
711.0830, 1602.156
712.2370, 1348.086
713.3910, 1495.348
714.5450, 1047.379
715.6980, 1315.178
716.8520, 1309.174
718.0050, 1481.383
719.1580, 1178.279
720.3110, 1287.855
721.4640, 1214.139
722.6170, 1438.691
723.7700, 1210.691
724.9220, 1072.543
726.0740, 1144.932
727.2260, 1124.195
728.3780, 1193.416
729.5300, 1084.543
730.6810, 1017.686
731.8330, 980.0234
732.9840, 1050.217
734.1350, 981.5098
735.2860, 945.9688
736.4370, 864.4277
737.5880, 877.9688
738.7380, 849.4102
739.8880, 939.0645
741.0390, 830.3711
742.1890, 734.8457
743.3380, 541.3223
744.4880, 519.6230
745.6380, 612.7207
746.7870, 415.1328
747.9360, 866.5547
749.0850, 488.0547
750.2340, 485.1074
751.3830, 346.5664
752.5310, 111.9609
753.6800, 455.2871
754.8280, 361.5703
755.9760, 420.7969
757.1240, 329.9707
758.2720, 318.0781
759.4190, 258.1328
760.5670, 309.1230
761.7140, 217.0527
762.8610, 290.9160
764.0080, 113.7188
765.1550, 246.4492
766.3020, 171.1211
767.4480, 34.27344
768.5950, 269.2188
769.7410, 69.64648
770.8870, 134.0059
772.0330, 163.2969
773.1780, 106.5273
774.3240, 50.69141
775.4690, 339.7832
776.6140, 120.8145
777.7590, 143.7871
778.9040, 26.30469
780.0490, 26.50000
781.1940, 72.19727
782.3380, 80.83203
783.4820, 0.5996090
784.6260, 66.88086
785.7700, 138.2969
786.9140, 57.65625
788.0580, 234.9473
789.2010, 131.1855
790.3450, 177.3633
791.4880, 7.513672
792.6310, 54.47852
793.7730, 221.4492
794.9160, 14.32031
796.0590, 22.87695
797.2010, 186.8340
798.3430, 90.49023
799.4850, 124.0898
800.6270, 32.63672
801.7690, 131.8789
802.9100, 61.46289
804.0520, 315.7500
805.1930, 195.9883
806.3340, 58.17969
807.4750, 58.31250
808.6160, 118.6074
809.7560, 101.3438
810.8970, 89.24219
812.0370, 27.08984
813.1770, 213.8809
814.3170, 12.37305
815.4570, 81.30469
816.5960, 130.0703
817.7360, 128.5703
818.8750, 125.2012
820.0140, 178.9551
821.1530, 126.8613
822.2920, 96.50000
823.4310, 37.97461
824.5690, 28.79297
825.7070, 16.56055
826.8460, 79.28125
827.9840, 24.04297
829.1220, 17.43164
830.2590, 23.12109
831.3970, 2.369141
832.5340, 41.91211
833.6710, 8.966797
834.8080, 45.14453
835.9450, 46.16992
837.0820, 10.48828
838.2190, 95.79688
839.3550, 27.08594
840.4910, 44.37695
841.6270, 39.26953
842.7630, 110.0098
843.8990, 2.332031
845.0350, 20.68945
846.1700, 2.957031
847.3060, 144.4023
848.4410, 106.7715
849.5760, 78.82812
850.7100, 122.5508
851.8450, 136.9414
852.9800, 43.67773
854.1140, 178.6758
855.2480, 195.0156
856.3820, 396.3242
857.5160, 182.6094
858.6500, 268.2812
859.7830, 184.1133
860.9170, 200.3359
862.0500, 135.5371
863.1830, 41.71484
864.3160, 33.85742
865.4480, 164.0332
866.5810, 161.9805
867.7130, 122.0234
868.8460, 51.07422
869.9780, 246.8320
871.1100, 121.7285
872.2410, 26.60938
873.3730, 149.4668
874.5050, 203.3105
875.6360, 96.15430
876.7670, 174.9941
877.8980, 424.8340
879.0290, 534.6836
880.1590, 474.5254
881.2900, 576.3750
882.4200, 394.2168
883.5500, 583.0664
884.6800, 775.8965
885.8100, 632.7617
886.9400, 933.6367
888.0690, 790.3711
889.1990, 1049.869
890.3280, 1129.750
891.4570, 1246.512
892.5860, 1198.359
893.7140, 1381.965
894.8430, 1353.508
895.9710, 1211.789
897.1000, 1551.273
898.2280, 1520.361
899.3560, 1644.754
900.4830, 1738.328
901.6110, 1806.562
902.7380, 1943.410
903.8660, 1753.568
904.9930, 2131.947
906.1200, 2183.031
907.2460, 2163.836
908.3730, 2563.764
909.5000, 2554.375
910.6260, 2675.137
911.7520, 2812.803
912.8780, 2876.551
914.0040, 2983.391
915.1290, 3199.486
916.2550, 3374.635
917.3800, 3592.012
918.5050, 3501.543
919.6300, 3552.551
920.7550, 3452.965
921.8800, 3749.906
923.0040, 3597.273
924.1290, 3543.619
925.2530, 3556.564
926.3770, 3197.705
927.5010, 3524.744
928.6250, 3554.908
929.7480, 3290.287
930.8720, 3286.867
931.9950, 3066.285
933.1180, 3040.588
934.2410, 3204.494
935.3640, 3063.549
936.4860, 2848.004
937.6090, 2880.943
938.7310, 2751.777
939.8530, 2749.693
940.9750, 2604.111
942.0970, 2655.973
943.2180, 2608.729
944.3400, 2646.057
945.4610, 2550.166
946.5820, 2497.234
947.7030, 2399.984
948.8240, 2486.586
949.9450, 2616.873
951.0650, 2543.971
952.1860, 2775.068
953.3060, 2331.340
954.4260, 2392.908
955.5460, 2270.188
956.6650, 2401.822
957.7850, 2310.453
958.9040, 2463.465
960.0230, 2234.453
961.1420, 2443.412
962.2610, 2300.648
963.3800, 2053.301
964.4990, 2438.441
965.6170, 2253.484
966.7350, 2239.309
967.8530, 2250.219
968.9710, 2327.893
970.0890, 2381.814
971.2070, 2468.055
972.3240, 2576.158
973.4410, 2210.643
974.5580, 2443.855
975.6750, 2293.154
976.7920, 2618.445
977.9090, 2672.039
979.0250, 2817.170
980.1410, 2660.412
981.2580, 2875.486
982.3740, 2773.273
983.4890, 3149.912
984.6050, 3070.881
985.7200, 3240.611
986.8360, 3258.410
987.9510, 3873.346
989.0660, 3800.340
990.1810, 4022.410
991.2950, 4453.520
992.4100, 4417.561
993.5240, 4692.672
994.6390, 4709.742
995.7530, 5178.855
996.8660, 5376.742
997.9800, 5673.293
999.0940, 5875.775
1000.207, 6094.482
1001.320, 6476.137
1002.433, 6609.666
1003.546, 6887.713
1004.659, 7288.545
1005.772, 7185.348
1006.884, 7557.855
1007.996, 7623.518
1009.108, 7904.777
1010.220, 7789.754
1011.332, 7798.758
1012.444, 8115.137
1013.555, 8075.641
1014.666, 8068.924
1015.777, 8066.844
1016.888, 8035.131
1017.999, 8212.477
1019.110, 8011.344
1020.220, 8231.797
1021.331, 8268.293
1022.441, 8246.641
1023.551, 8351.094
1024.661, 8133.406
1025.770, 8238.459
1026.880, 8043.465
1027.989, 8352.547
1029.098, 8482.527
1030.207, 8366.047
1031.316, 8355.270
1032.425, 8509.926
1033.533, 8469.529
1034.642, 8583.066
1035.750, 8997.105
1036.858, 8754.797
1037.966, 8940.895
1039.073, 9190.367
1040.181, 9168.523
1041.288, 9184.285
1042.396, 9206.055
1043.503, 9022.660
1044.610, 8750.609
1045.716, 8635.178
1046.823, 8410.633
1047.929, 8199.504
1049.036, 8006.246
1050.142, 7786.062
1051.248, 7594.938
1052.353, 7376.018
1053.459, 7220.225
1054.564, 6966.840
1055.670, 6892.344
1056.775, 6657.660
1057.880, 6618.961
1058.985, 6388.420
1060.089, 6505.816
1061.194, 6272.910
1062.298, 5937.238
1063.402, 6380.711
1064.506, 6255.287
1065.610, 6049.867
1066.713, 5782.475
1067.817, 5618.387
1068.920, 5378.266
1070.023, 5369.168
1071.126, 5016.180
1072.229, 4791.459
1073.332, 4757.527
1074.435, 4514.855
1075.537, 4242.094
1076.639, 4063.984
1077.741, 3643.797
1078.843, 3545.910
1079.945, 3083.496
1081.046, 2746.191
1082.148, 2654.189
1083.249, 2567.312
1084.350, 2243.021
1085.451, 2118.119
1086.551, 2128.938
1087.652, 1931.547
1088.752, 1746.885
1089.853, 1644.754
1090.953, 1502.598
1092.053, 1364.988
1093.152, 1336.971
1094.252, 1238.906
1095.351, 1233.299
1096.451, 1204.805
1097.550, 899.5840
1098.649, 943.4941
1099.748, 939.8672
1100.846, 1036.105
1101.945, 930.6406
1103.043, 644.7969
1104.141, 953.8242
1105.239, 692.5684
1106.337, 491.7480
1107.434, 808.4453
1108.532, 853.6855
1109.629, 565.9961
1110.726, 645.6309
1111.823, 391.2246
1112.920, 816.0684
1114.017, 457.6543
1115.113, 799.5273
1116.210, 582.9785
1117.306, 1004.213
1118.402, 1005.570
1119.498, 890.5469
1120.593, 952.5586
1121.689, 1028.227
1122.784, 1230.189
1123.879, 1127.049
1124.974, 1092.467
1126.069, 571.2129
1127.164, 538.8984
1128.259, 541.6113
1129.353, 300.9707
1130.447, 373.7695
1131.541, 446.3457
1132.635, 174.9551
1133.729, 80.90039
1134.822, 328.6562
1135.916, 160.7500
1137.009, 119.9883
1138.102, 99.53320
1139.195, 191.7871
1140.288, 68.67773
1141.380, 73.43164
1142.473, 17.29492
1143.565, 48.95508
1144.657, 21.19727
1145.749, 77.12109
1146.841, 166.5586
1147.932, 56.72266
1149.024, 93.78906
1150.115, 184.0000
1151.206, 64.46094
1152.297, 207.5898
1153.388, 75.96484
1154.479, 55.34375
1155.569, 89.56250
1156.659, 153.5039
1157.750, 165.9883
1158.839, 148.1562
1159.929, 175.4297
1161.019, 48.32812
1162.108, 121.7188
1163.198, 19.64453
1164.287, 133.0820
1165.376, 16.22266
1166.465, 74.05469
1167.553, 19.77734
1168.642, 183.8828
1169.730, 80.13672
1170.818, 3.722656
1171.906, 12.05078
1172.994, 249.7617
1174.082, 192.5781
1175.170, 57.43750
1176.257, 62.11719
1177.344, 89.25000
1178.431, 7.917969
1179.518, 36.33984
1180.605, 60.50000
1181.691, 88.20312
1182.778, 73.98828
1183.864, 223.8984
1184.950, 117.8086
1186.036, 89.17578
1187.122, 134.6406
1188.207, 89.68359
1189.292, 95.35938
1190.378, 5.957031
1191.463, 20.21875
1192.548, 70.58594
1193.632, 24.39844
1194.717, 120.9141
1195.801, 70.87500
1196.886, 63.51562
1197.970, 26.85547
1199.054, 55.72266
1200.137, 78.56250
1201.221, 202.2812
1202.305, 135.3008
1203.388, 181.7812
1204.471, 0.3125000
1205.554, 21.10156
1206.637, 220.1055
1207.719, 101.6836
1208.802, 159.2109
1209.884, 280.8359
1210.966, 250.0234
1212.048, 172.0859
1213.130, 56.17188
1214.212, 17.39453
1215.293, 143.9180
1216.374, 214.3359
1217.456, 266.9141
1218.536, 338.4844
1219.617, 214.5586
1220.698, 338.6406
1221.778, 205.8594
1222.859, 42.95703
1223.939, 179.4453
1225.019, 302.4023
1226.099, 270.3438
1227.178, 438.9727
1228.258, 162.0078
1229.337, 523.9141
1230.417, 312.1992
1231.496, 22.86328
1232.574, 108.9219
1233.653, 348.6719
1234.732, 54.10547
1235.810, 297.8867
1236.888, 167.0430
1237.966, 507.3750
1239.044, 482.4961
1240.122, 396.1680
1241.199, 399.4648
1242.277, 329.8672
1243.354, 382.6875
1244.431, 304.7695
1245.508, 396.9805
1246.585, 206.0781
1247.661, 405.6953
1248.738, 487.8750
1249.814, 232.5352
1250.890, 304.1602
1251.966, 460.0586
1253.042, 237.3359
1254.117, 331.0312
1255.193, 90.96875
1256.268, 485.8711
1257.343, 228.0469
1258.418, 301.3242
1259.493, 185.1328
1260.567, 464.9688
1261.642, 214.8633
1262.716, 360.3906
1263.790, 397.7500
1264.864, 547.3789
1265.938, 497.7734
1267.011, 422.6289
1268.085, 476.6016
1269.158, 550.8828
1270.231, 331.6211
1271.304, 430.4141
1272.377, 416.1133
1273.450, 402.4883
1274.522, 461.5078
1275.594, 320.8828
1276.666, 371.6914
1277.738, 377.4141
1278.810, 325.8320
1279.882, 449.4375
1280.953, 343.6016
1282.025, 605.2695
1283.096, 390.4297
1284.167, 427.1094
1285.238, 477.8203
1286.308, 332.3086
1287.379, 622.6367
1288.449, 243.2734
1289.519, 298.8242
1290.589, 300.7500
1291.659, 640.4961
1292.729, 138.0195
1293.798, 351.9141
1294.868, 492.5703
1295.937, 305.4609
1297.006, 410.7148
1298.075, 672.8477
1299.143, 621.9766
1300.212, 448.1719
1301.280, 441.5273
1302.348, 396.9180
1303.416, 575.5742
1304.484, 426.6719
1305.552, 504.9219
1306.620, 612.1484
1307.687, 330.4297
1308.754, 539.4102
1309.821, 636.7070
1310.888, 616.7578
1311.955, 415.5781
1313.021, 536.0078
1314.088, 560.8125
1315.154, 422.4023
1316.220, 588.0898
1317.286, 692.6328
1318.352, 297.2461
1319.417, 453.0742
1320.483, 466.4336
1321.548, 263.9219
1322.613, 762.6250
1323.678, 538.9141
1324.743, 550.2266
1325.807, 358.8672
1326.872, 722.8008
1327.936, 456.1055
1329.000, 377.4102
1330.064, 548.9375
1331.128, 413.3242
1332.191, 612.9180
1333.255, 518.7227
1334.318, 711.6367
1335.381, 362.0703
1336.444, 385.1953
1337.507, 422.3750
1338.569, 499.7969
1339.632, 503.0039
1340.694, 552.6133
1341.756, 499.4258
1342.818, 570.3789
1343.880, 517.0703
1344.941, 449.5430
1346.003, 479.5547
1347.064, 460.4961
1348.125, 486.0820
1349.186, 671.3047
1350.247, 709.2383
1351.308, 308.5391
1352.368, 644.8711
1353.428, 381.7305
1354.489, 426.0781
1355.549, 301.5547
1356.608, 302.4297
1357.668, 423.6172
1358.727, 47.96484
1359.787, 470.6250
1360.846, 209.6406
1361.905, 255.2734
1362.964, 171.0195
1364.022, 257.0156
1365.081, 195.0430
1366.139, 445.9922
1367.197, 286.3320
1368.255, 156.7422
1369.313, 532.2930
1370.371, 403.1914
1371.428, 310.0156
1372.486, 248.0273
1373.543, 110.6133
1374.600, 327.9727
1375.657, 185.4297
1376.713, 257.5234
1377.770, 472.8477
1378.826, 612.5078
1379.882, 112.8906
1380.938, 356.8359
1381.994, 117.2734
1383.050, 238.0469
1384.106, 378.5781
1385.161, 318.8867
1386.216, 386.3555
1387.271, 355.1758
1388.326, 548.0078
1389.381, 99.02734
1390.435, 362.6953
1391.490, 117.7930
1392.544, 359.3438
1393.598, 40.45703
1394.652, 324.2422
1395.705, 136.0156
1396.759, 50.94141
1397.812, 466.8008
1398.866, 513.9297
1399.919, 226.8516
1400.972, 246.6953
1402.024, 418.0781
1403.077, 130.1094
1404.129, 303.2031
1405.181, 306.2109
1406.233, 33.21094
1407.285, 41.77344
1408.337, 315.6328
1409.389, 434.0391
1410.440, 102.0586
1411.491, 102.1680
1412.542, 54.88672
1413.593, 57.34766
1414.644, 197.9023
1415.695, 90.23047
1416.745, 75.91797
1417.795, 23.26172
1418.845, 412.6328
1419.895, 296.2188
1420.945, 330.9609
1421.995, 2.117188
1423.044, 21.11328
1424.093, 89.15234
1425.142, 324.3164
1426.191, 346.2891
1427.240, 61.36719
1428.289, 421.2617
1429.337, 116.8828
1430.385, 130.9727
1431.433, 279.0195
1432.481, 105.4727
1433.529, 357.2578
1434.577, 155.2539
1435.624, 2.808594
1436.672, 43.15625
1437.719, 276.2891
1438.766, 149.7031
1439.812, 471.0547
1440.859, 141.7227
1441.905, 132.6836
1442.952, 614.3711
1443.998, 464.9453
1445.044, 163.9102
1446.090, 292.3789
1447.135, 409.9531
1448.181, 280.6016
1449.226, 42.30469
1450.271, 108.3398
1451.316, 167.9922
1452.361, 84.63281
1453.405, 167.4844
1454.450, 493.3438
1455.494, 201.4531
1456.538, 376.5078
1457.582, 342.2617
1458.626, 194.1211
1459.670, 168.1055
1460.713, 327.2070
1461.757, 375.2266
1462.800, 506.8711
1463.843, 612.5547
1464.886, 259.3789
1465.928, 280.0430
1466.971, 271.4609
1468.013, 469.1719
1469.055, 409.2852
1470.097, 498.4453
1471.139, 390.8594
1472.181, 443.5859
1473.222, 373.5000
1474.263, 309.8203
1475.305, 213.1641
1476.346, 7.421875
1477.386, 502.2812
1478.427, 464.5000
1479.468, 655.8477
1480.508, 386.5469
1481.548, 460.2344
1482.588, 471.5820
1483.628, 186.0352
1484.668, 223.5508
1485.707, 423.4531
1486.747, 514.7969
1487.786, 578.9883
1488.825, 296.0312
1489.864, 361.7617
1490.902, 186.0312
1491.941, 275.2500
1492.979, 134.7188
1494.017, 96.55859
1495.055, 317.2617
1496.093, 111.8438
1497.131, 156.6289
1498.168, 303.5898
1499.206, 126.7969
1500.243, 252.7773
1501.280, 142.0391
1502.317, 233.9219
1503.354, 398.6406
1504.390, 298.7305
1505.426, 548.0469
1506.463, 301.0938
1507.499, 332.3906
1508.535, 397.1016
1509.570, 482.4062
1510.606, 493.8477
1511.641, 540.2891
1512.676, 513.4492
1513.711, 244.5586
1514.746, 196.0156
1515.781, 378.2695
1516.816, 333.6914
1517.850, 422.8242
1518.884, 517.7188
1519.918, 471.3828
1520.952, 462.6211
1521.986, 545.1523
1523.019, 442.5703
1524.053, 552.0195
1525.086, 248.9219
1526.119, 140.3203
1527.152, 364.7070
1528.185, 464.9297
1529.217, 258.8555
1530.250, 424.6484
1531.282, 479.4531
1532.314, 145.8281
1533.346, 549.0117
1534.377, 110.6719
1535.409, 365.0586
1536.440, 125.7188
1537.472, 321.6562
1538.503, 216.0898
1539.534, 91.71875
1540.564, 548.9492
1541.595, 362.1758
1542.625, 553.1094
1543.656, 145.3086
1544.686, 139.2891
1545.716, 256.5078
1546.745, 245.3320
1547.775, 263.8789
1548.804, 5.089844
1549.834, 180.3555
1550.863, 643.3750
1551.892, 428.0078
1552.920, 164.0352
1553.949, 514.5469
1554.977, 16.01953
1556.006, 232.6250
1557.034, 254.2500
1558.062, 150.6758
1559.089, 374.1758
1560.117, 400.0898
1561.144, 292.9297
1562.172, 210.6680
1563.199, 219.8828
1564.226, 136.5898
1565.252, 134.5859
1566.279, 7.984375
1567.305, 9.714844
1568.332, 441.5469
1569.358, 277.5820
1570.384, 24.09375
1571.409, 0.2500000
1572.435, 0.0000000E+00
##END=



