##NAMES=Edenite
##RRUFFID=R050415
##IDEAL CHEMISTRY=NaCa_2_Mg_5_(Si_7_Al)O_22_(OH)_2_
##LOCALITY=Mogok, Burma
##OWNER=RRUFF
##SOURCE=Marcus Origlieri
##DESCRIPTION=Transparent pale green water worn fragment
##STATUS=The identification of this mineral has been confirmed by X-ray diffraction and chemical analysis
##URL=rruff.info/R050415
##MEASURED CHEMISTRY=(Na_0.83_K_0.17_)(Ca_1.76_Na_0.24_)_&#931;=2_(Mg_4.54_Al_0.40_Fe^3+^_0.06_)_&#931;=5_(Si_6.74_Al_1.26_)O_22_((OH)_0.52_F_0.48_)_2_
##PIN_ID=L01772
##ORIENTATION=Laser parallel to (-1 0 -1). Fiducial mark perpendicular to laser is parallel to b [0 1 0]
108.2800, 0.0000000E+00
109.5120, 2.161133
110.7440, 63.71289
111.9760, 16.50391
113.2080, 235.7139
114.4400, 274.4316
115.6710, 628.0977
116.9030, 830.7812
118.1340, 1042.895
119.3650, 1326.236
120.5960, 1256.992
121.8270, 1226.130
123.0580, 1327.395
124.2880, 1224.267
125.5190, 868.3242
126.7490, 416.2227
127.9790, 192.6660
129.2090, 88.39648
130.4390, 66.20508
131.6680, 116.8975
132.8980, 84.70508
134.1270, 43.25098
135.3560, 85.63867
136.5850, 219.3545
137.8140, 456.3027
139.0430, 725.4092
140.2710, 1171.602
141.5000, 1325.816
142.7280, 1379.994
143.9560, 1427.078
145.1840, 1144.019
146.4120, 727.7383
147.6390, 535.1641
148.8670, 222.2432
150.0940, 183.9512
151.3210, 60.67969
152.5490, 171.4619
153.7750, 33.96191
155.0020, 194.9248
156.2290, 303.3350
157.4550, 596.1816
158.6810, 621.4502
159.9080, 927.1367
161.1340, 1185.231
162.3590, 1638.729
163.5850, 1978.620
164.8110, 2329.901
166.0360, 2525.567
167.2610, 2770.620
168.4860, 2703.057
169.7110, 2692.864
170.9360, 2595.030
172.1610, 2582.537
173.3850, 2371.369
174.6100, 2617.513
175.8340, 2516.954
177.0580, 2666.681
178.2820, 2687.681
179.5050, 2873.941
180.7290, 2955.344
181.9520, 3307.116
183.1760, 3147.697
184.3990, 3130.258
185.6220, 3168.838
186.8450, 2885.461
188.0670, 2676.148
189.2900, 2499.967
190.5120, 2420.243
191.7340, 1968.305
192.9560, 1858.663
194.1780, 1538.717
195.4000, 1596.883
196.6220, 1451.175
197.8430, 1546.593
199.0640, 1508.139
200.2860, 1620.813
201.5070, 1658.621
202.7270, 1705.601
203.9480, 1923.748
205.1690, 1858.089
206.3890, 2223.658
207.6090, 2311.386
208.8290, 2795.324
210.0490, 2997.442
211.2690, 3632.812
212.4890, 4097.410
213.7080, 4494.211
214.9280, 5573.176
216.1470, 6070.383
217.3660, 6823.779
218.5850, 7842.371
219.8030, 8659.166
221.0220, 9629.156
222.2400, 10709.46
223.4590, 11330.90
224.6770, 12043.69
225.8950, 12511.76
227.1120, 12396.02
228.3300, 11939.48
229.5480, 11604.06
230.7650, 10584.70
231.9820, 10002.39
233.1990, 9041.133
234.4160, 8304.918
235.6330, 7591.746
236.8490, 7092.613
238.0660, 6710.527
239.2820, 6193.480
240.4980, 5899.473
241.7140, 5300.504
242.9300, 4882.570
244.1460, 4319.676
245.3610, 4021.814
246.5770, 3561.988
247.7920, 3252.213
249.0070, 3112.428
250.2220, 2715.695
251.4370, 2408.988
252.6510, 2201.312
253.8660, 2144.660
255.0800, 1876.359
256.2940, 1497.211
257.5080, 1605.930
258.7220, 1833.316
259.9360, 1541.258
261.1490, 1051.668
262.3630, 765.4902
263.5760, 449.6816
264.7890, 481.2090
266.0020, 332.0410
267.2150, 250.0977
268.4270, 278.4199
269.6400, 1.013672
270.8520, 154.7793
272.0640, 29.21289
273.2760, 9.005859
274.4880, 227.4004
275.7000, 118.0156
276.9120, 148.2734
278.1230, 219.6250
279.3340, 134.6094
280.5450, 16.80273
281.7560, 198.1348
282.9670, 61.59766
284.1780, 554.1875
285.3880, 508.8945
286.5980, 575.7168
287.8090, 760.6445
289.0190, 778.6816
290.2290, 889.8145
291.4380, 954.0488
292.6480, 748.3730
293.8570, 1227.787
295.0670, 1061.828
296.2760, 1317.891
297.4850, 1550.555
298.6930, 1332.688
299.9020, 1322.967
301.1110, 1469.857
302.3190, 1349.598
303.5270, 1589.811
304.7350, 1537.902
305.9430, 1554.311
307.1510, 1566.191
308.3580, 1627.012
309.5660, 1840.947
310.7730, 1808.342
311.9800, 2079.375
313.1870, 2238.141
314.3940, 2258.684
315.6010, 2517.594
316.8070, 2725.502
318.0130, 2899.936
319.2200, 2724.727
320.4260, 3005.713
321.6310, 2698.736
322.8370, 2949.914
324.0430, 2988.297
325.2480, 2550.588
326.4540, 2696.629
327.6590, 2663.861
328.8640, 2490.184
330.0680, 2445.199
331.2730, 2452.658
332.4780, 2123.957
333.6820, 2254.043
334.8860, 2105.725
336.0900, 2040.129
337.2940, 2008.375
338.4980, 1777.311
339.7010, 1795.098
340.9050, 1782.625
342.1080, 1554.832
343.3110, 1639.244
344.5140, 1707.662
345.7170, 1546.598
346.9200, 1444.248
348.1220, 1556.381
349.3240, 1535.887
350.5270, 1428.338
351.7290, 1620.506
352.9310, 1728.910
354.1320, 1606.324
355.3340, 1799.750
356.5350, 1964.186
357.7370, 2067.629
358.9380, 2203.084
360.1390, 2328.545
361.3400, 2425.900
362.5400, 2432.484
363.7410, 2572.959
364.9410, 2509.439
366.1410, 2457.918
367.3410, 2729.400
368.5410, 2641.881
369.7410, 2608.359
370.9400, 2653.838
372.1400, 2398.309
373.3390, 2371.773
374.5380, 2233.236
375.7370, 2297.691
376.9360, 1989.137
378.1350, 1931.578
379.3330, 1884.012
380.5310, 1909.438
381.7300, 1915.857
382.9280, 1931.266
384.1260, 1833.666
385.3230, 1723.057
386.5210, 1990.441
387.7180, 1986.812
388.9160, 1875.174
390.1130, 2098.525
391.3100, 1987.867
392.5060, 2094.197
393.7030, 2007.516
394.9000, 2026.822
396.0960, 1956.119
397.2920, 1682.400
398.4880, 1762.672
399.6840, 1492.977
400.8800, 1393.307
402.0750, 1378.660
403.2710, 1215.031
404.4660, 962.4219
405.6610, 987.8281
406.8560, 829.2441
408.0510, 752.6719
409.2450, 686.6270
410.4400, 569.5527
411.6340, 505.0020
412.8280, 465.4570
414.0220, 354.8828
415.2160, 422.3438
416.4100, 390.5684
417.6030, 294.8945
418.7970, 341.3516
419.9900, 336.0938
421.1830, 241.6504
422.3760, 254.3555
423.5690, 220.7207
424.7610, 295.9570
425.9540, 227.4160
427.1460, 265.8438
428.3380, 358.2598
429.5300, 147.6953
430.7220, 183.1016
431.9140, 130.6289
433.1050, 144.0039
434.2970, 108.5859
435.4880, 143.7383
436.6790, 41.10938
437.8700, 7.302734
439.0610, 23.00977
440.2510, 152.3008
441.4420, 18.46289
442.6320, 36.50977
443.8220, 189.6348
445.0120, 55.12500
446.2020, 59.61328
447.3910, 67.43750
448.5810, 39.39844
449.7700, 29.34375
450.9600, 50.04883
452.1490, 0.7812500
453.3370, 82.57227
454.5260, 20.65820
455.7150, 188.9453
456.9030, 88.61914
458.0910, 42.83789
459.2800, 24.36719
460.4670, 43.04102
461.6550, 75.41406
462.8430, 98.23633
464.0300, 16.00391
465.2180, 96.80078
466.4050, 62.28711
467.5920, 30.65430
468.7790, 8.673828
469.9650, 6.244141
471.1520, 72.88086
472.3380, 137.8945
473.5250, 23.31641
474.7110, 82.59961
475.8970, 156.9863
477.0820, 30.56250
478.2680, 101.0625
479.4540, 90.46484
480.6390, 132.0898
481.8240, 175.8496
483.0090, 26.76172
484.1940, 99.75391
485.3780, 21.83008
486.5630, 55.01172
487.7470, 59.19531
488.9320, 5.511719
490.1160, 4.101563
491.3000, 138.6406
492.4830, 147.8379
493.6670, 110.6250
494.8500, 241.0664
496.0340, 181.4863
497.2170, 244.8750
498.4000, 340.2402
499.5820, 470.5801
500.7650, 420.9258
501.9480, 389.2656
503.1300, 557.5781
504.3120, 631.8809
505.4940, 727.1484
506.6760, 952.3809
507.8580, 906.6328
509.0390, 1126.850
510.2210, 1069.051
511.4020, 1531.264
512.5830, 1437.441
513.7640, 1675.584
514.9450, 1725.721
516.1250, 1733.824
517.3060, 1867.891
518.4860, 1736.922
519.6660, 1736.918
520.8460, 1789.900
522.0260, 1668.648
523.2060, 1568.758
524.3850, 1548.643
525.5650, 1436.490
526.7440, 1430.301
527.9230, 1342.090
529.1020, 1215.842
530.2810, 1118.559
531.4590, 1300.246
532.6380, 1125.904
533.8160, 1034.529
534.9940, 1171.121
536.1720, 1069.676
537.3500, 1097.195
538.5270, 1052.680
539.7050, 794.1289
540.8820, 876.5684
542.0590, 719.0156
543.2360, 595.4316
544.4130, 677.8066
545.5900, 587.3945
546.7660, 432.4629
547.9430, 650.7305
549.1190, 540.9590
550.2950, 693.1426
551.4710, 633.2871
552.6470, 665.3887
553.8220, 460.4434
554.9980, 380.4609
556.1730, 458.4336
557.3480, 536.3633
558.5230, 119.2559
559.6980, 378.0781
560.8730, 345.8613
562.0470, 178.6074
563.2220, 301.3086
564.3960, 370.9629
565.5700, 237.5723
566.7440, 364.1289
567.9170, 374.6406
569.0910, 432.1094
570.2640, 370.5449
571.4380, 377.9375
572.6110, 348.3008
573.7840, 464.6309
574.9570, 381.9258
576.1290, 411.1777
577.3020, 382.3828
578.4740, 329.5410
579.6460, 450.1113
580.8180, 378.6973
581.9900, 441.7227
583.1620, 248.3105
584.3330, 457.7793
585.5040, 367.6738
586.6760, 285.7422
587.8470, 376.3574
589.0180, 223.1152
590.1880, 319.5664
591.3590, 296.5566
592.5290, 469.0820
593.7000, 510.5801
594.8700, 483.0918
596.0400, 514.9668
597.2090, 515.9238
598.3790, 438.8086
599.5490, 531.8145
600.7180, 647.8242
601.8870, 626.3008
603.0560, 572.6152
604.2250, 637.2461
605.3940, 548.8262
606.5620, 687.8711
607.7300, 804.9590
608.8990, 855.6367
610.0670, 821.9531
611.2350, 828.8574
612.4020, 901.8359
613.5700, 991.1680
614.7370, 1031.611
615.9050, 1214.707
617.0720, 1275.961
618.2390, 1340.822
619.4060, 1486.896
620.5720, 1729.760
621.7390, 1686.852
622.9050, 1795.105
624.0710, 1868.818
625.2370, 1912.037
626.4030, 2086.865
627.5690, 2300.535
628.7340, 2477.262
629.9000, 2710.059
631.0650, 2846.303
632.2300, 2957.826
633.3950, 3010.885
634.5600, 3431.910
635.7240, 3847.768
636.8890, 3753.646
638.0530, 3984.031
639.2170, 4302.391
640.3810, 4455.705
641.5450, 4776.840
642.7080, 5003.113
643.8720, 5392.820
645.0350, 5794.385
646.1980, 6235.953
647.3610, 6599.270
648.5240, 7038.346
649.6870, 7517.645
650.8490, 7850.412
652.0120, 8476.734
653.1740, 9042.223
654.3360, 9445.617
655.4980, 10556.74
656.6600, 11008.49
657.8210, 11760.06
658.9830, 12701.42
660.1440, 13708.72
661.3050, 14921.12
662.4660, 16276.89
663.6270, 17863.44
664.7870, 19371.03
665.9480, 21223.44
667.1080, 23009.66
668.2680, 25082.07
669.4280, 26321.68
670.5880, 28319.78
671.7480, 29485.91
672.9070, 30284.42
674.0670, 30599.38
675.2260, 30242.19
676.3850, 29428.81
677.5440, 28141.30
678.7030, 26444.57
679.8610, 24513.54
681.0200, 22237.09
682.1780, 19710.82
683.3360, 17676.86
684.4940, 15636.93
685.6520, 13828.21
686.8090, 12204.53
687.9670, 10732.00
689.1240, 9532.904
690.2810, 8319.797
691.4380, 7323.977
692.5950, 6473.650
693.7520, 6112.713
694.9080, 5158.078
696.0650, 4649.166
697.2210, 4449.523
698.3770, 3899.547
699.5330, 3544.783
700.6880, 3154.477
701.8440, 2548.135
702.9990, 2453.322
704.1550, 2093.479
705.3100, 1931.344
706.4650, 2145.699
707.6190, 1519.154
708.7740, 1531.773
709.9290, 1502.217
711.0830, 1131.369
712.2370, 1367.980
713.3910, 992.4609
714.5450, 926.0898
715.6980, 1074.332
716.8520, 947.4375
718.0050, 909.8086
719.1580, 701.2070
720.3110, 704.6973
721.4640, 846.9043
722.6170, 522.8652
723.7700, 702.7441
724.9220, 647.6836
726.0740, 677.5234
727.2260, 629.5410
728.3780, 640.8770
729.5300, 609.8770
730.6810, 601.7441
731.8330, 553.8906
732.9840, 403.5898
734.1350, 460.1816
735.2860, 289.2148
736.4370, 452.1016
737.5880, 440.5566
738.7380, 487.5332
739.8880, 459.7480
741.0390, 314.9648
742.1890, 361.1465
743.3380, 256.0645
744.4880, 276.8809
745.6380, 213.6914
746.7870, 329.4551
747.9360, 232.1934
749.0850, 11.90430
750.2340, 236.5547
751.3830, 91.80859
752.5310, 205.7031
753.6800, 42.18750
754.8280, 251.3496
755.9760, 46.96289
757.1240, 115.2285
758.2720, 8.558594
759.4190, 65.62109
760.5670, 2.798828
761.7140, 188.9707
762.8610, 116.8789
764.0080, 178.1855
765.1550, 207.2266
766.3020, 302.2344
767.4480, 29.23633
768.5950, 118.2012
769.7410, 194.1406
770.8870, 81.03516
772.0330, 139.3887
773.1780, 3.677734
774.3240, 99.41016
775.4690, 39.09375
776.6140, 7.722656
777.7590, 88.71094
778.9040, 71.25977
780.0490, 187.0840
781.1940, 50.61523
782.3380, 320.5918
783.4820, 319.7598
784.6260, 161.1094
785.7700, 173.8691
786.9140, 23.19531
788.0580, 138.3359
789.2010, 342.3887
790.3450, 44.07617
791.4880, 60.28711
792.6310, 89.25977
793.7730, 163.7598
794.9160, 193.2188
796.0590, 233.0371
797.2010, 50.98438
798.3430, 197.3086
799.4850, 81.56055
800.6270, 4.773438
801.7690, 112.9316
802.9100, 143.0449
804.0520, 27.87891
805.1930, 117.1270
806.3340, 56.09375
807.4750, 1.017578
808.6160, 17.11133
809.7560, 38.70117
810.8970, 1.546875
812.0370, 181.1934
813.1770, 2.875000
814.3170, 6.511719
815.4570, 33.10352
816.5960, 90.34375
817.7360, 164.8848
818.8750, 9.556641
820.0140, 280.7207
821.1530, 51.03516
822.2920, 187.1406
823.4310, 165.2832
824.5690, 143.3887
825.7070, 209.4609
826.8460, 225.5000
827.9840, 144.5078
829.1220, 251.4805
830.2590, 144.4219
831.3970, 59.33203
832.5340, 111.2031
833.6710, 34.04102
834.8080, 116.8398
835.9450, 35.61914
837.0820, 140.3613
838.2190, 6.072266
839.3550, 184.7539
840.4910, 276.4043
841.6270, 126.0293
842.7630, 159.4141
843.8990, 129.5703
845.0350, 65.27734
846.1700, 98.19531
847.3060, 77.36328
848.4410, 55.98633
849.5760, 52.66602
850.7100, 4.601563
851.8450, 85.83594
852.9800, 97.04102
854.1140, 204.2148
855.2480, 10.36133
856.3820, 41.52148
857.5160, 32.55078
858.6500, 19.40820
859.7830, 54.40430
860.9170, 36.55273
862.0500, 5.519531
863.1830, 16.37891
864.3160, 233.2441
865.4480, 157.0898
866.5810, 14.08789
867.7130, 317.7070
868.8460, 52.47656
869.9780, 65.22266
871.1100, 216.9434
872.2410, 1.679688
873.3730, 76.99023
874.5050, 207.6328
875.6360, 45.25781
876.7670, 297.8594
877.8980, 103.2500
879.0290, 162.8086
880.1590, 388.9160
881.2900, 428.1074
882.4200, 577.0176
883.5500, 467.4004
884.6800, 667.3867
885.8100, 538.5605
886.9400, 696.5723
888.0690, 1024.375
889.1990, 868.2812
890.3280, 797.8379
891.4570, 1021.799
892.5860, 1134.553
893.7140, 1138.170
894.8430, 1220.525
895.9710, 1250.693
897.1000, 1312.826
898.2280, 1371.906
899.3560, 1436.213
900.4830, 1502.275
901.6110, 1573.248
902.7380, 1656.691
903.8660, 1703.172
904.9930, 1835.541
906.1200, 1958.715
907.2460, 2078.148
908.3730, 2133.865
909.5000, 2317.498
910.6260, 2430.057
911.7520, 2607.059
912.8780, 2774.031
914.0040, 2885.996
915.1290, 2755.088
916.2550, 3127.988
917.3800, 2985.455
918.5050, 3175.918
919.6300, 3174.375
920.7550, 2963.055
921.8800, 3141.914
923.0040, 3154.367
924.1290, 2998.633
925.2530, 3050.125
926.3770, 3037.395
927.5010, 2837.719
928.6250, 2877.285
929.7480, 2789.160
930.8720, 2756.164
931.9950, 3044.324
933.1180, 2874.367
934.2410, 2766.977
935.3640, 2770.086
936.4860, 2436.945
937.6090, 2329.652
938.7310, 2405.512
939.8530, 2204.500
940.9750, 2149.258
942.0970, 2220.766
943.2180, 2235.742
944.3400, 2211.633
945.4610, 2225.078
946.5820, 2161.055
947.7030, 2070.117
948.8240, 2061.320
949.9450, 2010.617
951.0650, 1924.086
952.1860, 1878.789
953.3060, 1870.133
954.4260, 1898.699
955.5460, 1936.180
956.6650, 1873.566
957.7850, 1962.691
958.9040, 1887.730
960.0230, 1678.684
961.1420, 1944.918
962.2610, 1916.227
963.3800, 1924.199
964.4990, 1602.625
965.6170, 1720.602
966.7350, 1716.227
967.8530, 1457.082
968.9710, 1641.625
970.0890, 1604.516
971.2070, 1778.082
972.3240, 1636.078
973.4410, 1565.520
974.5580, 1502.715
975.6750, 1711.141
976.7920, 1853.094
977.9090, 1830.191
979.0250, 1733.164
980.1410, 2015.918
981.2580, 1734.770
982.3740, 1768.914
983.4890, 1936.379
984.6050, 1995.055
985.7200, 2103.512
986.8360, 1920.320
987.9510, 2120.176
989.0660, 2037.484
990.1810, 2156.988
991.2950, 2250.301
992.4100, 2323.906
993.5240, 2506.965
994.6390, 2660.828
995.7530, 2698.461
996.8660, 2734.828
997.9800, 2965.383
999.0940, 3075.711
1000.207, 3417.863
1001.320, 3663.066
1002.433, 3688.383
1003.546, 3641.250
1004.659, 4100.145
1005.772, 4045.965
1006.884, 4154.934
1007.996, 4466.391
1009.108, 4379.387
1010.220, 4447.207
1011.332, 4620.332
1012.444, 4612.785
1013.555, 4726.453
1014.666, 4801.734
1015.777, 5264.031
1016.888, 4751.391
1017.999, 4726.832
1019.110, 5132.902
1020.220, 5092.773
1021.331, 4802.633
1022.441, 4887.781
1023.551, 4972.129
1024.661, 5040.184
1025.770, 5088.426
1026.880, 5149.828
1027.989, 5165.785
1029.098, 5207.848
1030.207, 5242.914
1031.316, 5230.957
1032.425, 5286.617
1033.533, 5385.098
1034.642, 5508.961
1035.750, 5593.180
1036.858, 5804.656
1037.966, 5769.801
1039.073, 5909.125
1040.181, 5918.953
1041.288, 6107.969
1042.396, 6275.078
1043.503, 6070.754
1044.610, 5981.195
1045.716, 6107.891
1046.823, 5922.680
1047.929, 6242.055
1049.036, 6230.500
1050.142, 6142.609
1051.248, 5987.270
1052.353, 6159.305
1053.459, 6135.637
1054.564, 6303.156
1055.670, 6535.430
1056.775, 6366.973
1057.880, 6431.301
1058.985, 6743.164
1060.089, 6652.168
1061.194, 6591.195
1062.298, 7038.285
1063.402, 6944.375
1064.506, 6991.391
1065.610, 6976.523
1066.713, 6668.164
1067.817, 6714.945
1068.920, 6512.742
1070.023, 6427.754
1071.126, 6273.609
1072.229, 5867.461
1073.332, 5406.441
1074.435, 5128.590
1075.537, 4719.000
1076.639, 4304.012
1077.741, 4260.449
1078.843, 3758.594
1079.945, 3539.875
1081.046, 3068.102
1082.148, 2978.652
1083.249, 2699.242
1084.350, 2102.562
1085.451, 2214.895
1086.551, 2054.457
1087.652, 2024.637
1088.752, 1707.762
1089.853, 1515.781
1090.953, 1421.758
1092.053, 1257.070
1093.152, 1217.973
1094.252, 1153.020
1095.351, 1254.062
1096.451, 1168.594
1097.550, 825.4219
1098.649, 1031.102
1099.748, 647.4844
1100.846, 832.6484
1101.945, 771.5078
1103.043, 822.3359
1104.141, 661.1211
1105.239, 560.1445
1106.337, 468.5742
1107.434, 492.0547
1108.532, 460.9453
1109.629, 476.6484
1110.726, 490.4023
1111.823, 884.1719
1112.920, 542.7773
1114.017, 268.2031
1115.113, 645.8008
1116.210, 748.1445
1117.306, 797.1406
1118.402, 921.2109
1119.498, 807.7500
1120.593, 664.2031
1121.689, 1135.012
1122.784, 920.3281
1123.879, 1138.555
1124.974, 996.1836
1126.069, 803.5195
1127.164, 657.0742
1128.259, 621.9922
1129.353, 515.3125
1130.447, 461.0664
1131.541, 395.4102
1132.635, 87.74219
1133.729, 416.3047
1134.822, 52.09766
1135.916, 300.2461
1137.009, 205.1562
1138.102, 210.7695
1139.195, 186.0703
1140.288, 167.8672
1141.380, 73.12891
1142.473, 138.4570
1143.565, 225.5703
1144.657, 236.8125
1145.749, 34.60938
1146.841, 104.5977
1147.932, 92.76562
1149.024, 98.18359
1150.115, 165.5156
1151.206, 118.7266
1152.297, 69.71875
1153.388, 104.6875
1154.479, 170.6406
1155.569, 69.46484
1156.659, 76.66406
1157.750, 152.2656
1158.839, 91.89062
1159.929, 208.7930
1161.019, 16.33984
1162.108, 15.08594
1163.198, 40.26172
1164.287, 124.0352
1165.376, 9.250000
1166.465, 7.507813
1167.553, 24.51562
1168.642, 11.61719
1169.730, 125.4727
1170.818, 21.33203
1171.906, 13.62891
1172.994, 88.41016
1174.082, 71.81641
1175.170, 125.7227
1176.257, 65.38281
1177.344, 1.191406
1178.431, 147.6758
1179.518, 136.9922
1180.605, 14.73438
1181.691, 11.70312
1182.778, 23.67578
1183.864, 53.39062
1184.950, 124.5547
1186.036, 98.47266
1187.122, 117.4766
1188.207, 178.1680
1189.292, 53.87891
1190.378, 28.06250
1191.463, 27.65234
1192.548, 228.5742
1193.632, 224.5430
1194.717, 237.8438
1195.801, 28.17188
1196.886, 323.7578
1197.970, 59.54297
1199.054, 69.59375
1200.137, 222.8359
1201.221, 54.15625
1202.305, 249.1484
1203.388, 8.425781
1204.471, 172.2539
1205.554, 20.49609
1206.637, 196.3555
1207.719, 90.25000
1208.802, 9.730469
1209.884, 118.3516
1210.966, 26.00000
1212.048, 0.1367190
1213.130, 267.5664
1214.212, 324.7383
1215.293, 322.8594
1216.374, 273.4922
1217.456, 357.3906
1218.536, 363.6719
1219.617, 146.5391
1220.698, 148.1797
1221.778, 81.12500
1222.859, 172.3398
1223.939, 130.2461
1225.019, 361.7773
1226.099, 237.8945
1227.178, 399.1758
1228.258, 187.7578
1229.337, 29.21094
1230.417, 87.91016
1231.496, 128.7461
1232.574, 126.9414
1233.653, 372.2930
1234.732, 305.6484
1235.810, 199.6445
1236.888, 417.1289
1237.966, 310.6289
1239.044, 344.7305
1240.122, 324.5156
1241.199, 311.5039
1242.277, 345.2578
1243.354, 379.7578
1244.431, 334.1797
1245.508, 386.9453
1246.585, 464.6211
1247.661, 436.8555
1248.738, 314.6641
1249.814, 324.6094
1250.890, 229.5859
1251.966, 337.7305
1253.042, 127.7266
1254.117, 242.5117
1255.193, 303.9531
1256.268, 484.1250
1257.343, 387.3086
1258.418, 281.1992
1259.493, 405.0742
1260.567, 253.4844
1261.642, 484.0859
1262.716, 177.2852
1263.790, 347.9141
1264.864, 489.2188
1265.938, 606.9336
1267.011, 354.6641
1268.085, 418.1836
1269.158, 301.4336
1270.231, 417.2656
1271.304, 391.3984
1272.377, 428.6992
1273.450, 156.1641
1274.522, 288.6602
1275.594, 355.1562
1276.666, 140.4414
1277.738, 361.4961
1278.810, 174.8047
1279.882, 382.9219
1280.953, 284.4492
1282.025, 248.8828
1283.096, 629.6133
1284.167, 574.5430
1285.238, 425.3594
1286.308, 249.9570
1287.379, 269.0234
1288.449, 311.4414
1289.519, 304.7188
1290.589, 428.1992
1291.659, 520.4102
1292.729, 40.95703
1293.798, 71.45703
1294.868, 223.4492
1295.937, 383.9492
1297.006, 379.7461
1298.075, 96.86719
1299.143, 498.2656
1300.212, 277.6094
1301.280, 495.7773
1302.348, 154.6797
1303.416, 211.2266
1304.484, 578.1484
1305.552, 285.7617
1306.620, 157.3086
1307.687, 269.2969
1308.754, 147.7891
1309.821, 167.8906
1310.888, 185.3828
1311.955, 285.4375
1313.021, 250.4688
1314.088, 221.5625
1315.154, 183.5078
1316.220, 244.1602
1317.286, 219.1914
1318.352, 353.6914
1319.417, 237.7617
1320.483, 249.3672
1321.548, 290.6641
1322.613, 191.4922
1323.678, 680.7852
1324.743, 465.8711
1325.807, 498.6250
1326.872, 437.4961
1327.936, 261.7969
1329.000, 340.3672
1330.064, 469.2422
1331.128, 215.3633
1332.191, 295.2578
1333.255, 410.8672
1334.318, 237.1055
1335.381, 446.4844
1336.444, 393.5000
1337.507, 346.0117
1338.569, 187.0703
1339.632, 282.6836
1340.694, 181.7383
1341.756, 544.4531
1342.818, 209.8047
1343.880, 305.4766
1344.941, 536.6094
1346.003, 342.8320
1347.064, 419.9844
1348.125, 450.1328
1349.186, 352.9844
1350.247, 136.4141
1351.308, 313.1992
1352.368, 137.8281
1353.428, 462.6094
1354.489, 24.48828
1355.549, 293.9453
1356.608, 299.4180
1357.668, 604.0625
1358.727, 33.13281
1359.787, 609.7656
1360.846, 8.253906
1361.905, 429.8984
1362.964, 252.1836
1364.022, 368.9727
1365.081, 405.6055
1366.139, 350.6133
1367.197, 224.6797
1368.255, 150.5703
1369.313, 182.2656
1370.371, 217.2656
1371.428, 203.0000
1372.486, 184.2773
1373.543, 261.8867
1374.600, 184.0039
1375.657, 262.1172
1376.713, 203.0625
1377.770, 393.1055
1378.826, 120.5469
1379.882, 352.3398
1380.938, 375.0977
1381.994, 191.2305
1383.050, 49.53125
1384.106, 40.39453
1385.161, 245.7500
1386.216, 221.6328
1387.271, 196.2500
1388.326, 344.9023
1389.381, 89.35156
1390.435, 175.3789
1391.490, 571.9922
1392.544, 9.398438
1393.598, 185.8477
1394.652, 41.21094
1395.705, 110.2617
1396.759, 70.16406
1397.812, 8.871094
1398.866, 89.48438
1399.919, 97.61328
1400.972, 304.4570
1402.024, 381.8125
1403.077, 22.37891
1404.129, 483.8438
1405.181, 81.26953
1406.233, 168.8711
1407.285, 95.11719
1408.337, 327.1719
1409.389, 464.7734
1410.440, 281.5234
1411.491, 115.2344
1412.542, 57.47266
1413.593, 44.07422
1414.644, 345.4141
1415.695, 148.0000
1416.745, 309.4766
1417.795, 114.4023
1418.845, 96.95312
1419.895, 130.1172
1420.945, 10.92188
1421.995, 41.83203
1423.044, 3.187500
1424.093, 8.078125
1425.142, 65.29688
1426.191, 9.945313
1427.240, 110.6094
1428.289, 122.1133
1429.337, 281.1562
1430.385, 216.7500
1431.433, 203.6758
1432.481, 168.0664
1433.529, 137.8594
1434.577, 216.0547
1435.624, 120.6758
1436.672, 107.1211
1437.719, 112.0000
1438.766, 40.98047
1439.812, 153.7969
1440.859, 219.4453
1441.905, 149.7578
1442.952, 95.29297
1443.998, 94.80078
1445.044, 145.5508
1446.090, 225.0898
1447.135, 51.25000
1448.181, 97.89453
1449.226, 208.7109
1450.271, 26.17188
1451.316, 142.5898
1452.361, 292.3516
1453.405, 158.6133
1454.450, 256.9023
1455.494, 194.0117
1456.538, 574.2969
1457.582, 360.3203
1458.626, 359.0664
1459.670, 467.1328
1460.713, 8.398438
1461.757, 342.9102
1462.800, 242.8203
1463.843, 292.0977
1464.886, 141.8438
1465.928, 292.5938
1466.971, 323.6641
1468.013, 438.5781
1469.055, 30.49609
1470.097, 282.6016
1471.139, 898.6211
1472.181, 576.3125
1473.222, 494.3398
1474.263, 133.4023
1475.305, 330.3398
1476.346, 146.9844
1477.386, 367.8906
1478.427, 250.2383
1479.468, 321.1289
1480.508, 364.7500
1481.548, 520.7070
1482.588, 479.9219
1483.628, 294.1250
1484.668, 545.6094
1485.707, 120.8438
1486.747, 480.0664
1487.786, 292.4805
1488.825, 155.7305
1489.864, 49.03516
1490.902, 334.4141
1491.941, 353.7109
1492.979, 402.8281
1494.017, 400.7109
1495.055, 221.2305
1496.093, 248.2383
1497.131, 143.8477
1498.168, 320.3828
1499.206, 10.19531
1500.243, 145.4492
1501.280, 346.6328
1502.317, 248.6641
1503.354, 416.7109
1504.390, 393.5781
1505.426, 482.4336
1506.463, 258.2891
1507.499, 331.8672
1508.535, 260.1094
1509.570, 298.1055
1510.606, 209.9766
1511.641, 133.2578
1512.676, 185.5781
1513.711, 202.6328
1514.746, 210.4102
1515.781, 234.1484
1516.816, 150.7109
1517.850, 158.3008
1518.884, 334.9609
1519.918, 233.8672
1520.952, 82.85547
1521.986, 382.8477
1523.019, 516.4258
1524.053, 513.8828
1525.086, 205.2578
1526.119, 335.5195
1527.152, 213.3867
1528.185, 480.0859
1529.217, 564.4688
1530.250, 315.1484
1531.282, 321.1953
1532.314, 103.6484
1533.346, 334.0664
1534.377, 377.7031
1535.409, 318.6250
1536.440, 254.4492
1537.472, 449.7305
1538.503, 265.2695
1539.534, 286.9141
1540.564, 180.9102
1541.595, 215.4648
1542.625, 227.0938
1543.656, 355.4961
1544.686, 302.5508
1545.716, 237.2617
1546.745, 150.1406
1547.775, 161.2656
1548.804, 252.7539
1549.834, 153.1328
1550.863, 328.2734
1551.892, 362.2109
1552.920, 212.1680
1553.949, 259.6680
1554.977, 231.7266
1556.006, 155.5430
1557.034, 254.7812
1558.062, 200.1602
1559.089, 261.7891
1560.117, 368.8203
1561.144, 155.4141
1562.172, 503.5547
1563.199, 150.4727
1564.226, 234.1445
1565.252, 71.62500
1566.279, 48.15625
1567.305, 308.0234
1568.332, 23.53906
1569.358, 260.3672
1570.384, 2.617188
1571.409, 133.6719
1572.435, 0.0000000E+00
##END=



