##NAMES=Edenite
##RRUFFID=R050415
##IDEAL CHEMISTRY=NaCa_2_Mg_5_(Si_7_Al)O_22_(OH)_2_
##LOCALITY=Mogok, Burma
##OWNER=RRUFF
##SOURCE=Marcus Origlieri
##DESCRIPTION=Transparent pale green water worn fragment
##STATUS=The identification of this mineral has been confirmed by X-ray diffraction and chemical analysis
##URL=rruff.info/R050415
##MEASURED CHEMISTRY=(Na_0.83_K_0.17_)(Ca_1.76_Na_0.24_)_&#931;=2_(Mg_4.54_Al_0.40_Fe^3+^_0.06_)_&#931;=5_(Si_6.74_Al_1.26_)O_22_((OH)_0.52_F_0.48_)_2_
##PIN_ID=L01128
##ORIENTATION=Laser parallel to -c* (0 0 -1). Fiducial mark perpendicular to laser is parallel to -a [-1 0 0]
100.8830, 0.0000000E+00
102.1160, 4.073730
103.3490, 45.84863
104.5820, 257.2495
105.8150, 782.9644
107.0470, 1863.988
108.2800, 2667.399
109.5120, 1871.625
110.7440, 1222.210
111.9760, 1358.424
113.2080, 1755.806
114.4400, 2482.312
115.6710, 3032.875
116.9030, 3591.102
118.1340, 4473.403
119.3650, 4781.430
120.5960, 5404.693
121.8270, 5547.495
123.0580, 5530.600
124.2880, 4727.492
125.5190, 3739.867
126.7490, 2812.727
127.9790, 2015.974
129.2090, 1485.523
130.4390, 993.3027
131.6680, 559.2529
132.8980, 355.3193
134.1270, 207.4521
135.3560, 76.60840
136.5850, 42.74414
137.8140, 13.17773
139.0430, 39.83691
140.2710, 23.45215
141.5000, 10.92285
142.7280, 126.6797
143.9560, 52.75879
145.1840, 194.1973
146.4120, 175.0234
147.6390, 65.26172
148.8670, 13.05957
150.0940, 31.91504
151.3210, 391.2881
152.5490, 378.1660
153.7750, 716.5381
155.0020, 986.3965
156.2290, 1347.731
157.4550, 1898.541
158.6810, 2334.826
159.9080, 2917.588
161.1340, 3804.822
162.3590, 4916.520
163.5850, 5966.671
164.8110, 6867.268
166.0360, 7456.299
167.2610, 7586.758
168.4860, 7218.637
169.7110, 6562.926
170.9360, 5520.619
172.1610, 4678.711
173.3850, 4098.189
174.6100, 3582.964
175.8340, 3215.790
177.0580, 2962.716
178.2820, 2834.764
179.5050, 2826.955
180.7290, 2598.297
181.9520, 2559.799
183.1760, 2589.467
184.3990, 2457.308
185.6220, 2426.316
186.8450, 2312.489
188.0670, 2230.835
189.2900, 1956.358
190.5120, 1607.074
191.7340, 1542.984
192.9560, 1415.090
194.1780, 1307.360
195.4000, 1267.796
196.6220, 1249.346
197.8430, 1301.250
199.0640, 1236.832
200.2860, 1517.917
201.5070, 1615.234
202.7270, 1784.784
203.9480, 1853.565
205.1690, 1900.578
206.3890, 2010.822
207.6090, 2443.296
208.8290, 2827.009
210.0490, 3187.958
211.2690, 3515.167
212.4890, 4287.702
213.7080, 4672.596
214.9280, 5325.777
216.1470, 5869.283
217.3660, 6667.123
218.5850, 7461.247
219.8030, 8187.605
221.0220, 9272.200
222.2400, 10444.00
223.4590, 11789.99
224.6770, 13031.18
225.8950, 14297.56
227.1120, 15560.14
228.3300, 16805.67
229.5480, 17843.87
230.7650, 19323.02
231.9820, 20469.36
233.1990, 21756.88
234.4160, 23353.59
235.6330, 24699.46
236.8490, 25884.53
238.0660, 26518.77
239.2820, 26582.19
240.4980, 26276.78
241.7140, 25227.54
242.9300, 23904.46
244.1460, 22518.55
245.3610, 20998.81
246.5770, 19755.23
247.7920, 18452.62
249.0070, 17567.34
250.2220, 16405.06
251.4370, 15145.33
252.6510, 13849.06
253.8660, 12629.16
255.0800, 11417.61
256.2940, 10350.37
257.5080, 9580.407
258.7220, 8864.678
259.9360, 7602.144
261.1490, 6243.818
262.3630, 5302.705
263.5760, 4629.807
264.7890, 3946.123
266.0020, 3355.621
267.2150, 2890.211
268.4270, 2491.862
269.6400, 2096.480
270.8520, 1942.110
272.0640, 1615.986
273.2760, 1482.115
274.4880, 1254.515
275.7000, 1000.170
276.9120, 1034.091
278.1230, 819.2666
279.3340, 845.7002
280.5450, 602.3838
281.7560, 701.2998
282.9670, 737.4697
284.1780, 646.0566
285.3880, 689.7598
286.5980, 675.5635
287.8090, 579.0820
289.0190, 754.6680
290.2290, 775.4990
291.4380, 691.0957
292.6480, 747.8770
293.8570, 812.2148
295.0670, 814.4873
296.2760, 936.9365
297.4850, 1036.559
298.6930, 1028.331
299.9020, 1089.256
301.1110, 1153.325
302.3190, 1239.542
303.5270, 1484.910
304.7350, 1382.421
305.9430, 1349.077
307.1510, 1641.877
308.3580, 1830.819
309.5660, 1993.897
310.7730, 2078.140
311.9800, 2407.527
313.1870, 2637.074
314.3940, 2865.761
315.6010, 3263.532
316.8070, 3472.500
318.0130, 3717.599
319.2200, 3661.498
320.4260, 3868.893
321.6310, 3693.305
322.8370, 3565.952
324.0430, 3452.120
325.2480, 3372.241
326.4540, 3125.623
327.6590, 2793.215
328.8640, 2633.086
330.0680, 2474.150
331.2730, 2241.467
332.4780, 2241.257
333.6820, 2067.067
334.8860, 2031.261
336.0900, 1958.104
337.2940, 2235.353
338.4980, 2212.705
339.7010, 2289.848
340.9050, 2319.086
342.1080, 2372.421
343.3110, 2630.855
344.5140, 2660.383
345.7170, 2994.005
346.9200, 3163.720
348.1220, 3333.528
349.3240, 3608.378
350.5270, 3797.417
351.7290, 4048.495
352.9310, 4021.660
354.1320, 4161.912
355.3340, 4425.250
356.5350, 4523.672
357.7370, 4687.176
358.9380, 4832.762
360.1390, 5020.428
361.3400, 5410.170
362.5400, 5489.990
363.7410, 5831.884
364.9410, 6133.852
366.1410, 6286.893
367.3410, 6521.005
368.5410, 6755.186
369.7410, 6897.438
370.9400, 7208.757
372.1400, 7307.144
373.3390, 7554.598
374.5380, 7480.117
375.7370, 7769.702
376.9360, 7803.350
378.1350, 7866.059
379.3330, 7907.833
380.5310, 8185.668
381.7300, 8166.560
382.9280, 8378.513
384.1260, 8649.519
385.3230, 9019.587
386.5210, 9442.709
387.7180, 9799.889
388.9160, 9947.119
390.1130, 10214.41
391.3100, 10449.74
392.5060, 10472.18
393.7030, 10369.70
394.9000, 10265.32
396.0960, 9778.018
397.2920, 9235.801
398.4880, 8451.665
399.6840, 7862.611
400.8800, 7104.637
402.0750, 6489.738
403.2710, 5862.916
404.4660, 5389.166
405.6610, 4964.494
406.8560, 4677.001
408.0510, 4551.361
409.2450, 4356.902
410.4400, 4389.514
411.6340, 4397.194
412.8280, 4472.413
414.0220, 4744.439
415.2160, 4586.705
416.4100, 5110.012
417.6030, 5323.016
418.7970, 5479.379
419.9900, 5850.115
421.1830, 5900.475
422.3760, 6284.094
423.5690, 6265.773
424.7610, 6503.703
425.9540, 6465.545
427.1460, 6517.577
428.3380, 6509.823
429.5300, 6134.607
430.7220, 5970.383
431.9140, 5700.688
433.1050, 5294.017
434.2970, 4744.566
435.4880, 4416.814
436.6790, 3967.737
437.8700, 3592.973
439.0610, 3166.986
440.2510, 2684.185
441.4420, 2265.990
442.6320, 1802.134
443.8220, 1643.670
445.0120, 1462.580
446.2020, 1049.896
447.3910, 882.8691
448.5810, 633.5859
449.7700, 515.0400
450.9600, 357.5127
452.1490, 315.6660
453.3370, 349.4512
454.5260, 94.18359
455.7150, 252.7471
456.9030, 77.11719
458.0910, 54.09473
459.2800, 81.08496
460.4670, 51.69824
461.6550, 77.16797
462.8430, 53.89258
464.0300, 182.1445
465.2180, 112.6992
466.4050, 211.3164
467.5920, 140.0215
468.7790, 63.12793
469.9650, 119.2197
471.1520, 166.8936
472.3380, 122.7148
473.5250, 147.1992
474.7110, 175.4697
475.8970, 105.4258
477.0820, 23.41016
478.2680, 25.59766
479.4540, 127.3965
480.6390, 15.43262
481.8240, 26.52930
483.0090, 220.4893
484.1940, 190.4512
485.3780, 240.4121
486.5630, 285.3760
487.7470, 327.3379
488.9320, 336.3018
490.1160, 272.2617
491.3000, 312.2227
492.4830, 289.1777
493.6670, 182.1250
494.8500, 391.0811
496.0340, 311.0293
497.2170, 346.9727
498.4000, 613.9102
499.5820, 553.8389
500.7650, 673.7559
501.9480, 1009.661
503.1300, 1122.554
504.3120, 1408.434
505.4940, 1793.301
506.6760, 2184.152
507.8580, 2458.992
509.0390, 2930.812
510.2210, 3151.621
511.4020, 3628.407
512.5830, 4083.177
513.7640, 4309.943
514.9450, 4589.688
516.1250, 4839.410
517.3060, 4926.112
518.4860, 5110.809
519.6660, 5276.484
520.8460, 5247.135
522.0260, 5399.764
523.2060, 5154.368
524.3850, 5212.943
525.5650, 5176.490
526.7440, 4924.012
527.9230, 4599.503
529.1020, 4396.965
530.2810, 4252.395
531.4590, 3979.797
532.6380, 3733.172
533.8160, 3433.517
534.9940, 3030.828
536.1720, 2721.107
537.3500, 2459.583
538.5270, 2192.124
539.7050, 1992.831
540.8820, 1746.024
542.0590, 1556.211
543.2360, 1293.367
544.4130, 1068.521
545.5900, 879.7773
546.7660, 873.8350
547.9430, 546.9688
549.1190, 559.0596
550.2950, 509.1162
551.4710, 217.1465
552.6470, 142.1484
553.8220, 91.10742
554.9980, 113.0566
556.1730, 38.77539
557.3480, 11.16309
558.5230, 98.38184
559.6980, 68.70703
560.8730, 119.0537
562.0470, 93.70801
563.2220, 126.4082
564.3960, 108.2617
565.5700, 61.27539
566.7440, 152.4336
567.9170, 88.77930
569.0910, 73.28613
570.2640, 78.92188
571.4380, 40.29199
572.6110, 97.59277
573.7840, 174.6445
574.9570, 95.90723
576.1290, 40.33496
577.3020, 45.09082
578.4740, 92.42578
579.6460, 38.66797
580.8180, 37.82422
581.9900, 190.8867
583.1620, 176.8770
584.3330, 249.7891
585.5040, 202.6309
586.6760, 101.4004
587.8470, 211.0732
589.0180, 129.6689
590.1880, 144.1719
591.3590, 147.5928
592.5290, 165.9238
593.7000, 0.8310550
594.8700, 83.26660
596.0400, 6.249023
597.2090, 99.08203
598.3790, 89.80566
599.5490, 56.46777
600.7180, 130.9453
601.8870, 4.316406
603.0560, 111.8828
604.2250, 130.9678
605.3940, 103.0527
606.5620, 137.9141
607.7300, 134.2725
608.8990, 196.6914
610.0670, 289.8701
611.2350, 232.8652
612.4020, 503.6865
613.5700, 549.2529
614.7370, 530.7461
615.9050, 533.1553
617.0720, 628.6113
618.2390, 786.3018
619.4060, 728.5068
620.5720, 977.6133
621.7390, 1189.080
622.9050, 1209.119
624.0710, 1312.916
625.2370, 1432.950
626.4030, 1641.553
627.5690, 1742.257
628.7340, 1964.880
629.9000, 2161.708
631.0650, 2410.393
632.2300, 2525.328
633.3950, 2778.633
634.5600, 3260.102
635.7240, 3435.175
636.8890, 3917.299
638.0530, 4290.590
639.2170, 4715.941
640.3810, 5126.639
641.5450, 5418.319
642.7080, 6145.912
643.8720, 6489.604
645.0350, 7049.319
646.1980, 7967.718
647.3610, 8513.551
648.5240, 9069.463
649.6870, 9857.055
650.8490, 10462.33
652.0120, 11625.29
653.1740, 12553.93
654.3360, 13394.17
655.4980, 14984.68
656.6600, 15271.36
657.8210, 16666.94
658.9830, 17896.23
660.1440, 19415.50
661.3050, 21156.72
662.4660, 23073.40
663.6270, 25238.77
664.7870, 27635.35
665.9480, 30376.49
667.1080, 33206.71
668.2680, 36039.83
669.4280, 38778.98
670.5880, 41397.90
671.7480, 43303.90
672.9070, 45588.94
674.0670, 46567.12
675.2260, 46428.39
676.3850, 45740.82
677.5440, 43929.85
678.7030, 41817.98
679.8610, 38720.57
681.0200, 35327.78
682.1780, 31769.99
683.3360, 28654.40
684.4940, 24991.99
685.6520, 21760.83
686.8090, 19221.32
687.9670, 16679.30
689.1240, 14433.81
690.2810, 12768.16
691.4380, 11327.21
692.5950, 9771.335
693.7520, 8843.439
694.9080, 7682.675
696.0650, 7008.217
697.2210, 6101.861
698.3770, 5572.076
699.5330, 5021.598
700.6880, 4547.445
701.8440, 4044.844
702.9990, 3690.644
704.1550, 3363.104
705.3100, 3089.180
706.4650, 2867.018
707.6190, 2674.288
708.7740, 2349.183
709.9290, 2374.901
711.0830, 2280.521
712.2370, 2179.730
713.3910, 1757.792
714.5450, 1889.642
715.6980, 1762.619
716.8520, 1710.362
718.0050, 1814.352
719.1580, 1688.088
720.3110, 1769.418
721.4640, 1691.479
722.6170, 2536.559
723.7700, 2403.628
724.9220, 2546.203
726.0740, 2774.676
727.2260, 2240.122
728.3780, 2530.996
729.5300, 1758.681
730.6810, 2410.963
731.8330, 1359.250
732.9840, 1334.249
734.1350, 1420.514
735.2860, 1337.045
736.4370, 1085.805
737.5880, 1347.701
738.7380, 1079.313
739.8880, 923.3184
741.0390, 960.3584
742.1890, 968.1660
743.3380, 1051.412
744.4880, 692.8516
745.6380, 908.2529
746.7870, 785.6260
747.9360, 685.2930
749.0850, 818.8516
750.2340, 515.8896
751.3830, 616.9619
752.5310, 497.9609
753.6800, 409.8936
754.8280, 397.7607
755.9760, 493.5498
757.1240, 457.2520
758.2720, 387.8643
759.4190, 279.4043
760.5670, 195.8486
761.7140, 233.1963
762.8610, 162.4463
764.0080, 102.5957
765.1550, 191.6406
766.3020, 78.58594
767.4480, 164.4248
768.5950, 73.16504
769.7410, 288.7969
770.8870, 211.3350
772.0330, 9.779297
773.1780, 189.0947
774.3240, 70.31543
775.4690, 119.4307
776.6140, 103.4463
777.7590, 188.3643
778.9040, 169.1875
780.0490, 167.0391
781.1940, 127.5547
782.3380, 112.0967
783.4820, 143.5439
784.6260, 79.89746
785.7700, 213.1533
786.9140, 80.31836
788.0580, 316.3877
789.2010, 129.3740
790.3450, 13.73242
791.4880, 252.0361
792.6310, 166.7188
793.7730, 103.3115
794.9160, 7.183594
796.0590, 37.20117
797.2010, 361.4893
798.3430, 28.69629
799.4850, 214.8066
800.6270, 262.8330
801.7690, 188.7773
802.9100, 57.63867
804.0520, 226.4102
805.1930, 223.1006
806.3340, 185.7080
807.4750, 36.23535
808.6160, 22.67188
809.7560, 141.0176
810.8970, 78.28125
812.0370, 48.46094
813.1770, 79.44434
814.3170, 47.50879
815.4570, 24.37891
816.5960, 58.83789
817.7360, 87.18164
818.8750, 10.66504
820.0140, 112.2480
821.1530, 133.9834
822.2920, 140.8818
823.4310, 42.94336
824.5690, 47.88379
825.7070, 17.36914
826.8460, 49.71875
827.9840, 48.17871
829.1220, 3.750977
830.2590, 142.4062
831.3970, 9.782227
832.5340, 202.1064
833.6710, 57.83301
834.8080, 149.2773
835.9450, 82.49512
837.0820, 127.7891
838.2190, 53.16992
839.3550, 71.60352
840.4910, 12.91211
841.6270, 186.4102
842.7630, 9.884766
843.8990, 84.35547
845.0350, 89.19141
846.1700, 28.80273
847.3060, 18.55273
848.4410, 2.140625
849.5760, 2.152344
850.7100, 34.55273
851.8450, 7.720703
852.9800, 55.15039
854.1140, 100.1484
855.2480, 102.7207
856.3820, 85.67773
857.5160, 11.29102
858.6500, 147.1953
859.7830, 27.04883
860.9170, 4.160156
862.0500, 37.57031
863.1830, 22.25391
864.3160, 200.8770
865.4480, 57.54102
866.5810, 106.9766
867.7130, 12.55273
868.8460, 72.86719
869.9780, 240.2734
871.1100, 195.6562
872.2410, 166.0293
873.3730, 251.3691
874.5050, 202.6836
875.6360, 222.9766
876.7670, 390.2441
877.8980, 482.5137
879.0290, 556.7480
880.1590, 796.9824
881.2900, 749.1875
882.4200, 872.3691
883.5500, 1025.525
884.6800, 925.6777
885.8100, 1009.797
886.9400, 1404.805
888.0690, 1292.871
889.1990, 1510.742
890.3280, 1635.234
891.4570, 1525.678
892.5860, 1746.541
893.7140, 1793.225
894.8430, 2015.613
895.9710, 2030.547
897.1000, 2258.102
898.2280, 2302.805
899.3560, 2278.154
900.4830, 2566.844
901.6110, 2592.873
902.7380, 2740.885
903.8660, 2910.906
904.9930, 2903.090
906.1200, 3197.932
907.2460, 3049.422
908.3730, 3565.361
909.5000, 3570.719
910.6260, 3863.906
911.7520, 4053.816
912.8780, 4214.277
914.0040, 4410.930
915.1290, 4613.189
916.2550, 4763.434
917.3800, 4947.475
918.5050, 4906.377
919.6300, 5335.480
920.7550, 5371.070
921.8800, 5358.477
923.0040, 5580.088
924.1290, 5314.945
925.2530, 5113.043
926.3770, 5225.410
927.5010, 5080.055
928.6250, 5133.324
929.7480, 4830.301
930.8720, 4732.283
931.9950, 4716.441
933.1180, 4568.500
934.2410, 4609.502
935.3640, 4643.955
936.4860, 4366.596
937.6090, 4426.914
938.7310, 4166.574
939.8530, 4067.047
940.9750, 4029.492
942.0970, 4144.777
943.2180, 3789.213
944.3400, 3875.438
945.4610, 3760.525
946.5820, 3827.359
947.7030, 3816.004
948.8240, 3972.387
949.9450, 3985.035
951.0650, 3740.477
952.1860, 3909.336
953.3060, 3886.473
954.4260, 3740.480
955.5460, 3754.178
956.6650, 3679.576
957.7850, 3620.609
958.9040, 3603.893
960.0230, 3525.520
961.1420, 3578.527
962.2610, 3612.580
963.3800, 3679.803
964.4990, 3485.842
965.6170, 3439.307
966.7350, 3489.781
967.8530, 3539.658
968.9710, 3366.363
970.0890, 3293.754
971.2070, 3701.424
972.3240, 3339.332
973.4410, 3537.016
974.5580, 3761.629
975.6750, 3740.160
976.7920, 3798.418
977.9090, 3759.943
979.0250, 3945.783
980.1410, 4162.719
981.2580, 3926.227
982.3740, 4294.777
983.4890, 4472.139
984.6050, 4558.574
985.7200, 4542.930
986.8360, 4989.420
987.9510, 5367.920
989.0660, 5612.793
990.1810, 5681.559
991.2950, 5712.469
992.4100, 6342.957
993.5240, 6593.008
994.6390, 7040.561
995.7530, 7397.545
996.8660, 7681.465
997.9800, 7977.986
999.0940, 8492.359
1000.207, 8682.633
1001.320, 9295.197
1002.433, 9457.590
1003.546, 10184.67
1004.659, 10327.65
1005.772, 10368.93
1006.884, 10779.07
1007.996, 11314.23
1009.108, 10974.46
1010.220, 11425.97
1011.332, 11635.22
1012.444, 11398.19
1013.555, 11508.85
1014.666, 11831.02
1015.777, 11840.74
1016.888, 11924.84
1017.999, 12072.88
1019.110, 11959.61
1020.220, 12011.68
1021.331, 11990.98
1022.441, 11910.11
1023.551, 11963.24
1024.661, 11867.45
1025.770, 11936.06
1026.880, 12079.70
1027.989, 12301.03
1029.098, 12267.12
1030.207, 12242.43
1031.316, 12264.17
1032.425, 12500.79
1033.533, 12776.64
1034.642, 12731.73
1035.750, 12901.65
1036.858, 13086.41
1037.966, 13184.04
1039.073, 13350.77
1040.181, 13506.62
1041.288, 13415.29
1042.396, 13355.59
1043.503, 13525.04
1044.610, 13293.63
1045.716, 13068.87
1046.823, 12769.84
1047.929, 12459.37
1049.036, 12388.82
1050.142, 11964.95
1051.248, 11517.31
1052.353, 11400.88
1053.459, 11201.06
1054.564, 10918.04
1055.670, 10787.31
1056.775, 10528.00
1057.880, 10509.31
1058.985, 10426.67
1060.089, 10308.60
1061.194, 10183.88
1062.298, 10177.95
1063.402, 10178.19
1064.506, 10156.13
1065.610, 9887.545
1066.713, 9646.900
1067.817, 9529.893
1068.920, 9004.627
1070.023, 8854.492
1071.126, 8493.668
1072.229, 8161.713
1073.332, 7669.223
1074.435, 7217.344
1075.537, 6841.971
1076.639, 6211.574
1077.741, 5732.461
1078.843, 5532.074
1079.945, 4822.105
1081.046, 4509.285
1082.148, 4344.992
1083.249, 3949.576
1084.350, 3503.785
1085.451, 3127.844
1086.551, 3071.027
1087.652, 2906.652
1088.752, 2507.914
1089.853, 2280.484
1090.953, 2066.301
1092.053, 1906.910
1093.152, 1955.531
1094.252, 1811.168
1095.351, 1592.162
1096.451, 1709.520
1097.550, 1543.004
1098.649, 1729.996
1099.748, 1472.002
1100.846, 1229.420
1101.945, 1244.922
1103.043, 1118.020
1104.141, 981.5977
1105.239, 1243.236
1106.337, 1092.211
1107.434, 834.7188
1108.532, 1122.738
1109.629, 975.3320
1110.726, 935.9648
1111.823, 787.5859
1112.920, 902.4199
1114.017, 764.8359
1115.113, 891.2734
1116.210, 890.9570
1117.306, 1083.559
1118.402, 1025.551
1119.498, 1270.443
1120.593, 1062.490
1121.689, 1243.033
1122.784, 1065.029
1123.879, 1076.502
1124.974, 880.7734
1126.069, 714.2441
1127.164, 659.1992
1128.259, 567.8555
1129.353, 555.8633
1130.447, 461.2910
1131.541, 351.0977
1132.635, 327.9746
1133.729, 201.0234
1134.822, 177.5664
1135.916, 130.4980
1137.009, 255.0117
1138.102, 262.5254
1139.195, 349.6211
1140.288, 284.9414
1141.380, 4.681641
1142.473, 152.0859
1143.565, 216.5312
1144.657, 51.43945
1145.749, 166.8633
1146.841, 33.90234
1147.932, 182.9102
1149.024, 90.19141
1150.115, 28.37305
1151.206, 38.17188
1152.297, 39.91016
1153.388, 64.96680
1154.479, 70.24805
1155.569, 134.1152
1156.659, 187.4297
1157.750, 39.06250
1158.839, 101.0566
1159.929, 96.34180
1161.019, 113.4570
1162.108, 72.70117
1163.198, 38.93750
1164.287, 72.44336
1165.376, 25.26758
1166.465, 203.7227
1167.553, 67.97656
1168.642, 32.49609
1169.730, 81.56250
1170.818, 214.1055
1171.906, 19.19141
1172.994, 106.7012
1174.082, 70.78711
1175.170, 35.70508
1176.257, 131.4727
1177.344, 94.53516
1178.431, 54.84961
1179.518, 20.83008
1180.605, 14.83594
1181.691, 74.83203
1182.778, 29.04883
1183.864, 109.1094
1184.950, 9.355469
1186.036, 81.10156
1187.122, 162.8535
1188.207, 108.4863
1189.292, 204.2988
1190.378, 116.8574
1191.463, 83.58984
1192.548, 97.37695
1193.632, 40.94531
1194.717, 121.3359
1195.801, 35.62695
1196.886, 40.58984
1197.970, 67.01172
1199.054, 143.7559
1200.137, 105.3477
1201.221, 21.18750
1202.305, 287.3887
1203.388, 166.2598
1204.471, 51.65234
1205.554, 121.2598
1206.637, 5.156250
1207.719, 18.58203
1208.802, 10.34766
1209.884, 0.8964840
1210.966, 190.8926
1212.048, 84.87695
1213.130, 96.28906
1214.212, 163.2383
1215.293, 434.0410
1216.374, 39.50781
1217.456, 287.6836
1218.536, 133.1035
1219.617, 298.6973
1220.698, 240.5664
1221.778, 220.1152
1222.859, 330.0371
1223.939, 255.6895
1225.019, 402.5918
1226.099, 307.3164
1227.178, 267.2402
1228.258, 620.4121
1229.337, 367.2461
1230.417, 32.35156
1231.496, 237.0156
1232.574, 330.1523
1233.653, 446.6211
1234.732, 190.1895
1235.810, 339.2598
1236.888, 202.8613
1237.966, 306.2148
1239.044, 159.8828
1240.122, 371.4883
1241.199, 597.2930
1242.277, 538.5723
1243.354, 626.0098
1244.431, 605.1465
1245.508, 534.6875
1246.585, 540.4766
1247.661, 432.6055
1248.738, 441.4805
1249.814, 391.2949
1250.890, 495.5156
1251.966, 614.7461
1253.042, 488.4395
1254.117, 521.1035
1255.193, 216.9102
1256.268, 561.3359
1257.343, 380.9121
1258.418, 518.1250
1259.493, 549.3301
1260.567, 625.1953
1261.642, 503.3809
1262.716, 441.9961
1263.790, 544.6758
1264.864, 669.6875
1265.938, 507.7344
1267.011, 248.0176
1268.085, 330.7285
1269.158, 494.9746
1270.231, 372.2891
1271.304, 426.5781
1272.377, 631.4707
1273.450, 735.1660
1274.522, 589.2773
1275.594, 656.6250
1276.666, 640.0020
1277.738, 640.1914
1278.810, 679.1484
1279.882, 677.6641
1280.953, 749.2344
1282.025, 728.4824
1283.096, 765.6602
1284.167, 406.4043
1285.238, 699.6543
1286.308, 450.6426
1287.379, 571.5859
1288.449, 326.4043
1289.519, 511.4316
1290.589, 482.2598
1291.659, 489.8613
1292.729, 463.5781
1293.798, 540.6133
1294.868, 561.9863
1295.937, 467.4141
1297.006, 617.6914
1298.075, 471.1777
1299.143, 489.6309
1300.212, 376.5176
1301.280, 260.1934
1302.348, 582.3125
1303.416, 593.0898
1304.484, 589.5352
1305.552, 504.6914
1306.620, 517.2676
1307.687, 402.4863
1308.754, 584.3281
1309.821, 428.7422
1310.888, 481.3262
1311.955, 801.5996
1313.021, 529.8359
1314.088, 560.5820
1315.154, 625.8496
1316.220, 718.0078
1317.286, 701.0586
1318.352, 868.9805
1319.417, 695.7852
1320.483, 646.5586
1321.548, 637.5898
1322.613, 686.8789
1323.678, 649.1523
1324.743, 688.8672
1325.807, 546.2891
1326.872, 638.6133
1327.936, 403.2852
1329.000, 632.3594
1330.064, 555.1445
1331.128, 925.7070
1332.191, 525.6641
1333.255, 675.6797
1334.318, 326.5195
1335.381, 392.7578
1336.444, 670.6094
1337.507, 460.3555
1338.569, 468.7617
1339.632, 552.8047
1340.694, 647.5000
1341.756, 476.7930
1342.818, 708.8789
1343.880, 749.3242
1344.941, 533.5039
1346.003, 671.9336
1347.064, 347.9062
1348.125, 477.9922
1349.186, 750.2070
1350.247, 618.7734
1351.308, 639.5156
1352.368, 536.4727
1353.428, 534.0586
1354.489, 682.3945
1355.549, 577.1953
1356.608, 615.1836
1357.668, 434.5000
1358.727, 618.8086
1359.787, 628.1211
1360.846, 742.0664
1361.905, 233.7031
1362.964, 507.0547
1364.022, 333.2969
1365.081, 584.0664
1366.139, 462.8320
1367.197, 428.6133
1368.255, 572.3984
1369.313, 413.4102
1370.371, 332.2773
1371.428, 591.1992
1372.486, 131.2617
1373.543, 344.3281
1374.600, 453.5312
1375.657, 464.5938
1376.713, 430.1367
1377.770, 521.7227
1378.826, 468.4531
1379.882, 547.3906
1380.938, 272.1797
1381.994, 419.0508
1383.050, 456.8242
1384.106, 104.3203
1385.161, 404.0078
1386.216, 195.7617
1387.271, 99.34766
1388.326, 98.03516
1389.381, 408.8672
1390.435, 129.4141
1391.490, 288.6250
1392.544, 227.2070
1393.598, 231.9531
1394.652, 39.34375
1395.705, 195.7695
1396.759, 272.5977
1397.812, 409.6445
1398.866, 357.6602
1399.919, 223.1289
1400.972, 87.88281
1402.024, 181.0820
1403.077, 99.96094
1404.129, 341.5078
1405.181, 274.7734
1406.233, 314.9727
1407.285, 66.12109
1408.337, 189.7383
1409.389, 180.2383
1410.440, 132.6094
1411.491, 274.5703
1412.542, 13.40234
1413.593, 37.08594
1414.644, 213.7109
1415.695, 58.21094
1416.745, 31.31250
1417.795, 106.1953
1418.845, 340.4922
1419.895, 72.57812
1420.945, 54.48438
1421.995, 25.21875
1423.044, 397.8359
1424.093, 167.3164
1425.142, 54.55859
1426.191, 97.61328
1427.240, 80.01953
1428.289, 86.00391
1429.337, 45.84375
1430.385, 9.449219
1431.433, 60.96094
1432.481, 11.16016
1433.529, 51.06641
1434.577, 334.8984
1435.624, 43.41016
1436.672, 98.50000
1437.719, 175.7070
1438.766, 6.003906
1439.812, 85.22656
1440.859, 76.56250
1441.905, 107.9570
1442.952, 126.6562
1443.998, 106.5586
1445.044, 121.8164
1446.090, 89.32422
1447.135, 57.07812
1448.181, 2.199219
1449.226, 80.92969
1450.271, 64.44141
1451.316, 176.0469
1452.361, 405.7500
1453.405, 165.1055
1454.450, 382.8984
1455.494, 318.2617
1456.538, 75.16406
1457.582, 67.33203
1458.626, 21.62891
1459.670, 442.1289
1460.713, 149.1953
1461.757, 260.1953
1462.800, 293.4023
1463.843, 228.4062
1464.886, 110.2969
1465.928, 176.7773
1466.971, 209.6484
1468.013, 254.2109
1469.055, 385.4766
1470.097, 362.4844
1471.139, 376.0508
1472.181, 517.7852
1473.222, 362.8789
1474.263, 454.4844
1475.305, 152.8945
1476.346, 550.2070
1477.386, 372.5898
1478.427, 685.8906
1479.468, 325.0586
1480.508, 727.8477
1481.548, 577.0039
1482.588, 750.3438
1483.628, 218.8594
1484.668, 572.1719
1485.707, 455.5977
1486.747, 591.0156
1487.786, 338.6641
1488.825, 452.6875
1489.864, 370.3047
1490.902, 394.1602
1491.941, 417.4141
1492.979, 571.6328
1494.017, 431.0977
1495.055, 563.7148
1496.093, 557.9023
1497.131, 719.2305
1498.168, 247.2891
1499.206, 676.5703
1500.243, 465.5078
1501.280, 479.4453
1502.317, 867.1680
1503.354, 723.7070
1504.390, 673.2617
1505.426, 388.5938
1506.463, 622.7656
1507.499, 397.5742
1508.535, 827.6250
1509.570, 438.1562
1510.606, 546.1797
1511.641, 793.0664
1512.676, 447.6172
1513.711, 638.9570
1514.746, 403.2812
1515.781, 264.9141
1516.816, 226.6914
1517.850, 493.7422
1518.884, 639.6055
1519.918, 603.3477
1520.952, 415.4102
1521.986, 706.6797
1523.019, 586.5312
1524.053, 183.7344
1525.086, 512.8164
1526.119, 295.7461
1527.152, 416.8633
1528.185, 617.3828
1529.217, 434.7969
1530.250, 415.6992
1531.282, 459.7148
1532.314, 390.6445
1533.346, 434.7695
1534.377, 575.7266
1535.409, 215.9609
1536.440, 241.1875
1537.472, 209.2695
1538.503, 394.2500
1539.534, 97.76172
1540.564, 504.5352
1541.595, 240.7891
1542.625, 240.7930
1543.656, 256.3086
1544.686, 196.5352
1545.716, 97.85156
1546.745, 243.8828
1547.775, 268.8945
1548.804, 53.33203
1549.834, 112.2031
1550.863, 319.4922
1551.892, 188.8164
1552.920, 422.5000
1553.949, 342.6133
1554.977, 261.4258
1556.006, 241.8281
1557.034, 63.96484
1558.062, 225.6680
1559.089, 157.5430
1560.117, 32.94531
1561.144, 91.60547
1562.172, 104.5547
1563.199, 240.1445
1564.226, 90.71094
1565.252, 80.49219
1566.279, 117.8984
1567.305, 196.3711
1568.332, 25.94141
1569.358, 357.3008
1570.384, 2.550781
1571.409, 199.2617
1572.435, 0.0000000E+00
##END=



