##NAMES=Edenite
##RRUFFID=R050415
##IDEAL CHEMISTRY=NaCa_2_Mg_5_(Si_7_Al)O_22_(OH)_2_
##LOCALITY=Mogok, Burma
##OWNER=RRUFF
##SOURCE=Marcus Origlieri
##DESCRIPTION=Transparent pale green water worn fragment
##STATUS=The identification of this mineral has been confirmed by X-ray diffraction and chemical analysis
##URL=rruff.info/R050415
##MEASURED CHEMISTRY=(Na_0.83_K_0.17_)(Ca_1.76_Na_0.24_)_&#931;=2_(Mg_4.54_Al_0.40_Fe^3+^_0.06_)_&#931;=5_(Si_6.74_Al_1.26_)O_22_((OH)_0.52_F_0.48_)_2_
##PIN_ID=L01355
##ORIENTATION=Laser parallel to -a* (-1 0 0). Fiducial mark perpendicular to laser is parallel to -b [0 -1 0]
93.48000, 0.0000000E+00
94.71400, 3.310547
95.94800, 276.7695
97.18200, 401.8379
98.41600, 416.0742
99.64900, 810.0000
100.8830, 838.9941
102.1160, 1163.295
103.3490, 987.7402
104.5820, 1322.373
105.8150, 1506.021
107.0470, 2162.438
108.2800, 1948.271
109.5120, 2458.953
110.7440, 1730.699
111.9760, 1302.607
113.2080, 1326.545
114.4400, 1347.373
115.6710, 1401.963
116.9030, 1358.191
118.1340, 1321.445
119.3650, 1136.930
120.5960, 1098.482
121.8270, 999.5508
123.0580, 841.5371
124.2880, 726.8789
125.5190, 697.4922
126.7490, 781.2988
127.9790, 625.2383
129.2090, 463.2539
130.4390, 539.2832
131.6680, 214.2480
132.8980, 267.0703
134.1270, 172.6855
135.3560, 107.0410
136.5850, 173.0977
137.8140, 252.8164
139.0430, 110.1641
140.2710, 44.11328
141.5000, 146.3633
142.7280, 167.2891
143.9560, 154.5898
145.1840, 150.3477
146.4120, 12.37695
147.6390, 6.431641
148.8670, 6.781250
150.0940, 136.3164
151.3210, 373.8535
152.5490, 409.8242
153.7750, 894.2246
155.0020, 1296.041
156.2290, 1614.266
157.4550, 1854.893
158.6810, 1976.910
159.9080, 2064.318
161.1340, 2447.117
162.3590, 2490.295
163.5850, 2690.840
164.8110, 2853.746
166.0360, 3204.996
167.2610, 3180.477
168.4860, 3609.916
169.7110, 3169.383
170.9360, 2964.924
172.1610, 2158.564
173.3850, 1988.324
174.6100, 1750.223
175.8340, 1577.270
177.0580, 1405.658
178.2820, 1223.574
179.5050, 1087.363
180.7290, 928.0586
181.9520, 779.9219
183.1760, 689.9590
184.3990, 787.1738
185.6220, 503.5684
186.8450, 789.1465
188.0670, 503.9121
189.2900, 413.8633
190.5120, 398.0059
191.7340, 190.2637
192.9560, 280.6426
194.1780, 352.2637
195.4000, 419.9258
196.6220, 550.6855
197.8430, 584.8359
199.0640, 778.0781
200.2860, 687.5059
201.5070, 705.1211
202.7270, 808.9199
203.9480, 872.7188
205.1690, 1053.182
206.3890, 1234.668
207.6090, 1342.424
208.8290, 1706.348
210.0490, 1983.465
211.2690, 2310.811
212.4890, 2562.369
213.7080, 3115.137
214.9280, 3362.096
216.1470, 3674.217
217.3660, 4222.529
218.5850, 4611.002
219.8030, 5384.631
221.0220, 6017.461
222.2400, 6727.453
223.4590, 8145.625
224.6770, 8849.117
225.8950, 9987.898
227.1120, 10934.92
228.3300, 12145.10
229.5480, 13315.40
230.7650, 14502.80
231.9820, 15036.32
233.1990, 16050.94
234.4160, 16736.67
235.6330, 17416.51
236.8490, 18020.45
238.0660, 18198.49
239.2820, 18447.62
240.4980, 18441.20
241.7140, 17652.29
242.9300, 16816.46
244.1460, 15948.45
245.3610, 14694.11
246.5770, 13749.34
247.7920, 12744.06
249.0070, 11831.22
250.2220, 11092.76
251.4370, 10139.66
252.6510, 9412.871
253.8660, 8269.355
255.0800, 7540.107
256.2940, 6592.104
257.5080, 6315.338
258.7220, 5712.801
259.9360, 4906.482
261.1490, 4058.377
262.3630, 3355.473
263.5760, 2821.762
264.7890, 2623.053
266.0020, 2119.375
267.2150, 1777.906
268.4270, 1625.643
269.6400, 1388.562
270.8520, 1157.666
272.0640, 960.9668
273.2760, 963.4688
274.4880, 776.1914
275.7000, 493.0781
276.9120, 268.1230
278.1230, 345.3691
279.3340, 499.7617
280.5450, 280.3047
281.7560, 218.9961
282.9670, 148.8242
284.1780, 82.19727
285.3880, 48.93555
286.5980, 35.24805
287.8090, 111.3867
289.0190, 68.10742
290.2290, 95.60156
291.4380, 92.96484
292.6480, 23.65430
293.8570, 130.9062
295.0670, 84.26758
296.2760, 291.6406
297.4850, 329.1094
298.6930, 297.6719
299.9020, 516.3281
301.1110, 429.0723
302.3190, 391.9043
303.5270, 526.8223
304.7350, 706.8242
305.9430, 665.9102
307.1510, 820.0723
308.3580, 841.3145
309.5660, 1216.633
310.7730, 1213.029
311.9800, 1534.496
313.1870, 1433.098
314.3940, 1699.719
315.6010, 1599.838
316.8070, 1741.762
318.0130, 1956.359
319.2200, 1909.871
320.4260, 2041.863
321.6310, 1600.926
322.8370, 1959.064
324.0430, 1696.590
325.2480, 1733.176
326.4540, 1242.178
327.6590, 1281.615
328.8640, 1214.938
330.0680, 927.3633
331.2730, 940.6641
332.4780, 875.3203
333.6820, 781.8086
334.8860, 890.7969
336.0900, 750.4277
337.2940, 504.5098
338.4980, 744.1816
339.7010, 698.1484
340.9050, 894.1660
342.1080, 1024.936
343.3110, 854.0586
344.5140, 904.2305
345.7170, 806.4766
346.9200, 858.8848
348.1220, 1074.203
349.3240, 1124.564
350.5270, 1182.516
351.7290, 1034.473
352.9310, 1310.486
354.1320, 1366.754
355.3340, 1419.016
356.5350, 1670.775
357.7370, 1763.143
358.9380, 1742.338
360.1390, 2124.057
361.3400, 2192.812
362.5400, 2383.600
363.7410, 2425.418
364.9410, 2612.270
366.1410, 2971.148
367.3410, 2835.061
368.5410, 3424.000
369.7410, 3334.965
370.9400, 3552.957
372.1400, 3704.975
373.3390, 3712.014
374.5380, 4040.078
375.7370, 4284.160
376.9360, 4449.266
378.1350, 4618.393
379.3330, 5055.537
380.5310, 5053.699
381.7300, 5767.883
382.9280, 5888.084
384.1260, 6511.299
385.3230, 6711.586
386.5210, 7100.936
387.7180, 7109.344
388.9160, 7350.807
390.1130, 7462.320
391.3100, 7429.879
392.5060, 7183.484
393.7030, 7217.133
394.9000, 7217.824
396.0960, 6631.551
397.2920, 6362.314
398.4880, 6074.115
399.6840, 5557.949
400.8800, 4949.812
402.0750, 4638.711
403.2710, 4263.639
404.4660, 3981.080
405.6610, 3853.062
406.8560, 3570.301
408.0510, 3511.646
409.2450, 3474.816
410.4400, 3617.799
411.6340, 3758.334
412.8280, 3551.455
414.0220, 3883.477
415.2160, 4014.531
416.4100, 4021.758
417.6030, 4307.500
418.7970, 4435.273
419.9900, 4485.215
421.1830, 4550.807
422.3760, 4580.805
423.5690, 4971.139
424.7610, 4898.514
425.9540, 4787.740
427.1460, 4632.643
428.3380, 4518.994
429.5300, 4343.156
430.7220, 4202.477
431.9140, 3865.869
433.1050, 3748.184
434.2970, 3516.162
435.4880, 2936.244
436.6790, 2762.512
437.8700, 2300.883
439.0610, 1973.477
440.2510, 1657.768
441.4420, 1488.252
442.6320, 1120.664
443.8220, 973.5098
445.0120, 786.1816
446.2020, 643.4180
447.3910, 554.6465
448.5810, 412.8574
449.7700, 507.0566
450.9600, 126.2363
452.1490, 23.40039
453.3370, 221.7871
454.5260, 59.46094
455.7150, 95.02734
456.9030, 44.47852
458.0910, 98.60938
459.2800, 10.65625
460.4670, 22.55273
461.6550, 133.4531
462.8430, 49.86914
464.0300, 80.01172
465.2180, 218.6562
466.4050, 16.37891
467.5920, 64.78516
468.7790, 11.76562
469.9650, 37.72070
471.1520, 7.017578
472.3380, 50.49219
473.5250, 27.14062
474.7110, 73.31250
475.8970, 25.33594
477.0820, 35.98438
478.2680, 17.34570
479.4540, 40.66602
480.6390, 36.97461
481.8240, 269.3379
483.0090, 326.6211
484.1940, 13.09570
485.3780, 236.1289
486.5630, 115.3340
487.7470, 14.44922
488.9320, 48.26172
490.1160, 85.85938
491.3000, 179.9648
492.4830, 51.05469
493.6670, 92.86133
494.8500, 90.88477
496.0340, 123.9629
497.2170, 121.1016
498.4000, 18.65820
499.5820, 37.64062
500.7650, 95.93750
501.9480, 192.6797
503.1300, 146.2617
504.3120, 342.8672
505.4940, 383.4434
506.6760, 559.0391
507.8580, 720.5938
509.0390, 844.1133
510.2210, 1200.637
511.4020, 1203.109
512.5830, 1503.541
513.7640, 1870.945
514.9450, 2117.301
516.1250, 2097.611
517.3060, 2371.867
518.4860, 2537.074
519.6660, 2650.232
520.8460, 2961.340
522.0260, 2869.398
523.2060, 2960.404
524.3850, 2864.357
525.5650, 3033.262
526.7440, 2668.113
527.9230, 2628.910
529.1020, 2400.654
530.2810, 2134.342
531.4590, 2078.977
532.6380, 1845.557
533.8160, 1562.080
534.9940, 1565.547
536.1720, 1225.953
537.3500, 1320.301
538.5270, 982.5898
539.7050, 890.8203
540.8820, 466.9902
542.0590, 646.0977
543.2360, 497.1484
544.4130, 518.1367
545.5900, 230.0625
546.7660, 334.9219
547.9430, 273.7168
549.1190, 260.4453
550.2950, 124.1055
551.4710, 74.67383
552.6470, 41.13086
553.8220, 226.4668
554.9980, 143.7266
556.1730, 17.89258
557.3480, 8.0077998E-02
558.5230, 118.1973
559.6980, 167.4766
560.8730, 128.0566
562.0470, 63.46484
563.2220, 167.8281
564.3960, 123.0273
565.5700, 124.1211
566.7440, 167.1074
567.9170, 59.99609
569.0910, 74.75781
570.2640, 95.60547
571.4380, 65.26758
572.6110, 33.32617
573.7840, 46.88477
574.9570, 110.9863
576.1290, 153.7500
577.3020, 232.4043
578.4740, 177.9688
579.6460, 395.4414
580.8180, 479.8379
581.9900, 424.8066
583.1620, 443.1094
584.3330, 557.2793
585.5040, 591.3730
586.6760, 751.3926
587.8470, 641.3359
589.0180, 699.5469
590.1880, 647.9980
591.3590, 595.7168
592.5290, 662.3594
593.7000, 448.9258
594.8700, 378.4141
596.0400, 415.8223
597.2090, 289.0918
598.3790, 170.3398
599.5490, 522.0586
600.7180, 468.4121
601.8870, 460.6836
603.0560, 379.9863
604.2250, 421.6504
605.3940, 256.3828
606.5620, 518.0195
607.7300, 312.4863
608.8990, 225.8848
610.0670, 405.0938
611.2350, 464.4453
612.4020, 643.5469
613.5700, 780.7891
614.7370, 953.5898
615.9050, 1102.629
617.0720, 1333.516
618.2390, 1548.729
619.4060, 1802.242
620.5720, 2259.725
621.7390, 2400.082
622.9050, 2748.186
624.0710, 3125.873
625.2370, 3157.521
626.4030, 3299.455
627.5690, 3168.064
628.7340, 3209.592
629.9000, 2989.008
631.0650, 2633.844
632.2300, 2753.086
633.3950, 2610.896
634.5600, 2705.215
635.7240, 2818.715
636.8890, 3057.803
638.0530, 3388.764
639.2170, 3574.982
640.3810, 4044.084
641.5450, 4584.777
642.7080, 4839.885
643.8720, 5231.250
645.0350, 5564.133
646.1980, 6407.326
647.3610, 6255.047
648.5240, 6950.426
649.6870, 7573.609
650.8490, 7681.184
652.0120, 8196.219
653.1740, 8661.227
654.3360, 8991.965
655.4980, 9614.199
656.6600, 9706.354
657.8210, 10697.42
658.9830, 11422.41
660.1440, 12653.31
661.3050, 13521.76
662.4660, 14795.73
663.6270, 16162.55
664.7870, 17931.35
665.9480, 19412.89
667.1080, 20962.46
668.2680, 22047.80
669.4280, 23130.31
670.5880, 24393.76
671.7480, 24927.11
672.9070, 25496.25
674.0670, 25107.18
675.2260, 24845.00
676.3850, 24232.74
677.5440, 23153.40
678.7030, 21880.39
679.8610, 20274.51
681.0200, 18423.92
682.1780, 16506.95
683.3360, 14404.20
684.4940, 12682.38
685.6520, 11022.98
686.8090, 9555.992
687.9670, 8532.697
689.1240, 7318.240
690.2810, 6412.902
691.4380, 5689.697
692.5950, 4909.887
693.7520, 4127.432
694.9080, 3637.020
696.0650, 3021.516
697.2210, 2850.781
698.3770, 2581.469
699.5330, 1895.070
700.6880, 1942.439
701.8440, 1412.098
702.9990, 1471.285
704.1550, 1378.074
705.3100, 1147.760
706.4650, 996.5293
707.6190, 1062.561
708.7740, 766.0742
709.9290, 673.7148
711.0830, 911.1250
712.2370, 706.4141
713.3910, 657.7324
714.5450, 728.9570
715.6980, 481.4004
716.8520, 600.5898
718.0050, 474.4590
719.1580, 518.1855
720.3110, 291.1406
721.4640, 429.8340
722.6170, 517.5234
723.7700, 536.2930
724.9220, 631.0020
726.0740, 770.6504
727.2260, 719.2441
728.3780, 656.7734
729.5300, 929.2480
730.6810, 664.6641
731.8330, 814.0234
732.9840, 778.0879
734.1350, 507.7871
735.2860, 551.5742
736.4370, 401.0410
737.5880, 398.4883
738.7380, 287.5586
739.8880, 380.3984
741.0390, 516.1582
742.1890, 181.5801
743.3380, 436.1113
744.4880, 404.0586
745.6380, 320.8516
746.7870, 314.4531
747.9360, 250.3145
749.0850, 344.9844
750.2340, 185.4082
751.3830, 164.9941
752.5310, 202.5449
753.6800, 111.0527
754.8280, 45.49414
755.9760, 204.1309
757.1240, 172.0410
758.2720, 227.8281
759.4190, 0.8984380
760.5670, 41.97266
761.7140, 64.21484
762.8610, 88.49219
764.0080, 5.160156
765.1550, 136.2422
766.3020, 90.78516
767.4480, 14.43359
768.5950, 38.12500
769.7410, 31.90625
770.8870, 116.7617
772.0330, 41.25391
773.1780, 213.7383
774.3240, 229.8594
775.4690, 103.1133
776.6140, 38.57031
777.7590, 335.7812
778.9040, 138.3320
780.0490, 27.03516
781.1940, 243.6445
782.3380, 32.49219
783.4820, 216.4062
784.6260, 20.51953
785.7700, 35.58984
786.9140, 163.7617
788.0580, 262.9453
789.2010, 83.62109
790.3450, 76.74219
791.4880, 103.8281
792.6310, 257.3672
793.7730, 267.8750
794.9160, 283.5547
796.0590, 240.8125
797.2010, 217.2422
798.3430, 20.65234
799.4850, 107.0273
800.6270, 122.3789
801.7690, 99.71094
802.9100, 134.9727
804.0520, 105.5586
805.1930, 132.5508
806.3340, 69.78906
807.4750, 57.88672
808.6160, 56.18359
809.7560, 80.37500
810.8970, 106.5273
812.0370, 194.6680
813.1770, 252.7891
814.3170, 242.2188
815.4570, 131.9844
816.5960, 79.05859
817.7360, 113.7773
818.8750, 21.83594
820.0140, 193.1875
821.1530, 153.2031
822.2920, 180.2031
823.4310, 132.1953
824.5690, 137.4531
825.7070, 137.5469
826.8460, 166.1172
827.9840, 160.0898
829.1220, 248.0703
830.2590, 311.0742
831.3970, 73.07812
832.5340, 243.0859
833.6710, 232.1211
834.8080, 58.19141
835.9450, 362.3281
837.0820, 132.4688
838.2190, 458.6211
839.3550, 373.8281
840.4910, 465.0391
841.6270, 467.2734
842.7630, 700.5195
843.8990, 821.7812
845.0350, 803.0664
846.1700, 724.3789
847.3060, 1089.758
848.4410, 753.1992
849.5760, 1115.691
850.7100, 825.2383
851.8450, 928.8164
852.9800, 1179.410
854.1140, 1375.008
855.2480, 1476.629
856.3820, 1638.898
857.5160, 1720.230
858.6500, 1805.660
859.7830, 1814.441
860.9170, 1799.082
862.0500, 1661.730
863.1830, 1579.383
864.3160, 1472.039
865.4480, 1132.703
866.5810, 1100.375
867.7130, 862.0547
868.8460, 962.7383
869.9780, 950.4375
871.1100, 851.1445
872.2410, 882.8672
873.3730, 820.5938
874.5050, 755.3633
875.6360, 861.6992
876.7670, 1079.516
877.8980, 673.4336
879.0290, 1073.582
880.1590, 949.6367
881.2900, 798.7344
882.4200, 740.6289
883.5500, 693.5977
884.6800, 635.2812
885.8100, 835.4727
886.9400, 1043.074
888.0690, 1471.621
889.1990, 1049.367
890.3280, 979.7305
891.4570, 1332.441
892.5860, 1293.359
893.7140, 1293.254
894.8430, 1322.059
895.9710, 1244.246
897.1000, 1448.379
898.2280, 1386.875
899.3560, 1349.648
900.4830, 1787.836
901.6110, 1897.312
902.7380, 1768.789
903.8660, 1676.203
904.9930, 1883.281
906.1200, 1808.906
907.2460, 1792.367
908.3730, 2089.305
909.5000, 2243.988
910.6260, 2259.098
911.7520, 2250.770
912.8780, 2301.953
914.0040, 2288.645
915.1290, 2189.902
916.2550, 2391.254
917.3800, 2453.301
918.5050, 2393.777
919.6300, 2354.891
920.7550, 2465.434
921.8800, 2151.270
923.0040, 2505.250
924.1290, 2169.797
925.2530, 2443.832
926.3770, 2227.852
927.5010, 2260.141
928.6250, 2432.883
929.7480, 2119.707
930.8720, 1877.574
931.9950, 2010.488
933.1180, 1853.484
934.2410, 2010.926
935.3640, 2012.836
936.4860, 1802.883
937.6090, 1528.895
938.7310, 1802.125
939.8530, 1837.301
940.9750, 1911.656
942.0970, 1461.816
943.2180, 1446.992
944.3400, 1477.219
945.4610, 1460.656
946.5820, 1575.305
947.7030, 1612.027
948.8240, 1696.789
949.9450, 1350.590
951.0650, 1532.426
952.1860, 1799.262
953.3060, 1475.168
954.4260, 1637.426
955.5460, 1624.414
956.6650, 1628.445
957.7850, 1609.516
958.9040, 1483.625
960.0230, 1235.773
961.1420, 1419.961
962.2610, 1224.184
963.3800, 1505.445
964.4990, 1406.738
965.6170, 1499.062
966.7350, 1412.430
967.8530, 1048.824
968.9710, 1545.258
970.0890, 1160.719
971.2070, 1490.223
972.3240, 1323.754
973.4410, 1210.320
974.5580, 1401.918
975.6750, 1274.555
976.7920, 1497.219
977.9090, 1289.918
979.0250, 1568.648
980.1410, 1693.406
981.2580, 1831.203
982.3740, 1851.031
983.4890, 1952.895
984.6050, 2254.789
985.7200, 2264.715
986.8360, 2986.672
987.9510, 2982.660
989.0660, 3171.672
990.1810, 3148.715
991.2950, 3279.793
992.4100, 3500.902
993.5240, 3933.035
994.6390, 3979.195
995.7530, 3873.395
996.8660, 4962.617
997.9800, 5066.188
999.0940, 5876.469
1000.207, 6347.117
1001.320, 7019.449
1002.433, 7187.820
1003.546, 7326.410
1004.659, 6947.832
1005.772, 6432.055
1006.884, 6267.562
1007.996, 6438.703
1009.108, 5957.492
1010.220, 6581.992
1011.332, 6111.539
1012.444, 6381.797
1013.555, 6409.484
1014.666, 6230.609
1015.777, 6647.723
1016.888, 6799.941
1017.999, 6490.617
1019.110, 6677.898
1020.220, 6928.410
1021.331, 6926.430
1022.441, 6882.027
1023.551, 7018.773
1024.661, 6993.625
1025.770, 7018.125
1026.880, 7072.816
1027.989, 7050.723
1029.098, 6954.703
1030.207, 7011.117
1031.316, 7005.727
1032.425, 6965.125
1033.533, 7236.031
1034.642, 7338.930
1035.750, 7467.047
1036.858, 7438.664
1037.966, 7763.344
1039.073, 7276.996
1040.181, 7717.004
1041.288, 7421.375
1042.396, 7362.691
1043.503, 7414.945
1044.610, 7095.230
1045.716, 6777.859
1046.823, 6833.328
1047.929, 6324.137
1049.036, 6610.996
1050.142, 6138.301
1051.248, 5670.781
1052.353, 5159.188
1053.459, 5502.070
1054.564, 4985.492
1055.670, 4770.688
1056.775, 4658.980
1057.880, 4382.023
1058.985, 4131.234
1060.089, 4059.441
1061.194, 4001.930
1062.298, 4235.078
1063.402, 3997.984
1064.506, 3753.930
1065.610, 3854.730
1066.713, 3591.746
1067.817, 3491.164
1068.920, 3422.664
1070.023, 3220.688
1071.126, 3213.863
1072.229, 2953.484
1073.332, 2890.629
1074.435, 3001.238
1075.537, 2749.293
1076.639, 2848.859
1077.741, 2628.168
1078.843, 2433.762
1079.945, 2386.105
1081.046, 2263.383
1082.148, 2232.430
1083.249, 2164.730
1084.350, 1988.879
1085.451, 1856.262
1086.551, 1674.367
1087.652, 1566.527
1088.752, 1495.090
1089.853, 1388.934
1090.953, 1383.188
1092.053, 1314.820
1093.152, 1221.117
1094.252, 1207.184
1095.351, 1046.055
1096.451, 914.9062
1097.550, 855.7500
1098.649, 902.5781
1099.748, 664.3945
1100.846, 675.1875
1101.945, 1091.293
1103.043, 780.0547
1104.141, 588.8008
1105.239, 955.5234
1106.337, 586.2266
1107.434, 665.9102
1108.532, 967.5742
1109.629, 487.2188
1110.726, 503.8359
1111.823, 848.4258
1112.920, 646.0000
1114.017, 786.3164
1115.113, 659.6953
1116.210, 867.1836
1117.306, 685.6445
1118.402, 1053.078
1119.498, 1259.484
1120.593, 1075.855
1121.689, 1179.195
1122.784, 848.5000
1123.879, 970.7773
1124.974, 712.0273
1126.069, 809.2344
1127.164, 613.7148
1128.259, 545.8594
1129.353, 144.9727
1130.447, 571.0508
1131.541, 149.0977
1132.635, 322.1094
1133.729, 474.0938
1134.822, 198.0391
1135.916, 376.9414
1137.009, 71.80859
1138.102, 253.6367
1139.195, 113.4219
1140.288, 31.83594
1141.380, 240.1523
1142.473, 158.6367
1143.565, 231.2422
1144.657, 156.0078
1145.749, 80.84375
1146.841, 1.761719
1147.932, 77.73047
1149.024, 82.79688
1150.115, 121.9570
1151.206, 171.2305
1152.297, 28.35547
1153.388, 24.10547
1154.479, 40.89453
1155.569, 104.1797
1156.659, 143.8516
1157.750, 159.6484
1158.839, 195.0977
1159.929, 176.4219
1161.019, 51.32812
1162.108, 17.18359
1163.198, 317.9688
1164.287, 181.2070
1165.376, 35.51172
1166.465, 183.0977
1167.553, 319.6523
1168.642, 315.0117
1169.730, 9.605469
1170.818, 260.9805
1171.906, 189.3047
1172.994, 210.5703
1174.082, 247.7734
1175.170, 43.91406
1176.257, 195.9844
1177.344, 12.98438
1178.431, 189.9062
1179.518, 147.2422
1180.605, 331.4414
1181.691, 311.0547
1182.778, 98.61328
1183.864, 243.0898
1184.950, 120.5000
1186.036, 182.8398
1187.122, 173.1094
1188.207, 239.3047
1189.292, 202.4297
1190.378, 117.5234
1191.463, 149.3633
1192.548, 97.83203
1193.632, 87.81641
1194.717, 86.37891
1195.801, 136.1328
1196.886, 42.83203
1197.970, 111.6641
1199.054, 36.32812
1200.137, 282.2227
1201.221, 25.04297
1202.305, 380.7617
1203.388, 51.41016
1204.471, 41.13672
1205.554, 280.9336
1206.637, 160.3086
1207.719, 84.56641
1208.802, 72.23828
1209.884, 215.0039
1210.966, 93.26953
1212.048, 525.4453
1213.130, 463.1797
1214.212, 439.8438
1215.293, 263.2656
1216.374, 268.5430
1217.456, 257.7617
1218.536, 169.0938
1219.617, 329.3594
1220.698, 230.0703
1221.778, 304.1719
1222.859, 378.1836
1223.939, 429.2109
1225.019, 853.2500
1226.099, 742.7422
1227.178, 1230.816
1228.258, 1616.777
1229.337, 633.8164
1230.417, 607.2500
1231.496, 498.5195
1232.574, 716.3906
1233.653, 852.5508
1234.732, 749.9766
1235.810, 918.3906
1236.888, 964.6641
1237.966, 989.7617
1239.044, 723.3047
1240.122, 638.9141
1241.199, 750.5742
1242.277, 893.4609
1243.354, 414.3477
1244.431, 395.5469
1245.508, 696.1055
1246.585, 1057.484
1247.661, 884.2969
1248.738, 697.5977
1249.814, 832.8164
1250.890, 872.9609
1251.966, 1211.031
1253.042, 922.8906
1254.117, 1045.078
1255.193, 758.9141
1256.268, 549.9922
1257.343, 853.8711
1258.418, 818.4766
1259.493, 986.8828
1260.567, 1167.699
1261.642, 1240.117
1262.716, 1181.418
1263.790, 1425.375
1264.864, 1190.328
1265.938, 1633.293
1267.011, 1371.523
1268.085, 1718.406
1269.158, 1534.523
1270.231, 1499.699
1271.304, 1608.746
1272.377, 1286.293
1273.450, 1327.344
1274.522, 1692.969
1275.594, 1596.391
1276.666, 1492.121
1277.738, 1151.273
1278.810, 760.9297
1279.882, 1148.180
1280.953, 1119.168
1282.025, 1096.445
1283.096, 759.5469
1284.167, 1267.289
1285.238, 965.4844
1286.308, 1161.406
1287.379, 790.0977
1288.449, 818.0000
1289.519, 983.5977
1290.589, 1247.250
1291.659, 1193.078
1292.729, 1381.582
1293.798, 1360.629
1294.868, 1456.414
1295.937, 1318.191
1297.006, 1112.051
1298.075, 1148.656
1299.143, 1117.215
1300.212, 1138.633
1301.280, 1031.961
1302.348, 1153.816
1303.416, 1294.512
1304.484, 1256.504
1305.552, 1221.797
1306.620, 1159.180
1307.687, 1246.816
1308.754, 1462.254
1309.821, 1527.738
1310.888, 1518.043
1311.955, 1604.504
1313.021, 1604.734
1314.088, 1634.434
1315.154, 1653.836
1316.220, 1701.102
1317.286, 1782.555
1318.352, 1781.758
1319.417, 1602.926
1320.483, 1365.734
1321.548, 1603.809
1322.613, 1311.051
1323.678, 1504.168
1324.743, 1339.379
1325.807, 923.3047
1326.872, 896.7812
1327.936, 926.1094
1329.000, 950.8555
1330.064, 781.3906
1331.128, 740.4102
1332.191, 512.8398
1333.255, 472.5781
1334.318, 943.1328
1335.381, 355.9453
1336.444, 497.9531
1337.507, 472.5977
1338.569, 207.4180
1339.632, 447.2148
1340.694, 646.1680
1341.756, 579.7773
1342.818, 337.2188
1343.880, 581.8398
1344.941, 175.4102
1346.003, 627.8594
1347.064, 655.8242
1348.125, 410.4336
1349.186, 120.5586
1350.247, 297.9258
1351.308, 47.53516
1352.368, 449.2734
1353.428, 179.4922
1354.489, 88.64844
1355.549, 220.7461
1356.608, 79.76953
1357.668, 312.7227
1358.727, 58.61328
1359.787, 410.1250
1360.846, 323.8984
1361.905, 242.5938
1362.964, 245.1250
1364.022, 223.5859
1365.081, 106.9766
1366.139, 379.2852
1367.197, 346.4922
1368.255, 315.0508
1369.313, 241.9414
1370.371, 462.7617
1371.428, 367.3359
1372.486, 261.9570
1373.543, 670.0586
1374.600, 409.9844
1375.657, 582.6211
1376.713, 702.1562
1377.770, 542.3984
1378.826, 616.5352
1379.882, 324.7578
1380.938, 464.7266
1381.994, 624.9023
1383.050, 451.0977
1384.106, 240.1562
1385.161, 553.0469
1386.216, 478.5820
1387.271, 206.3398
1388.326, 199.4141
1389.381, 290.6328
1390.435, 352.2109
1391.490, 724.5898
1392.544, 309.9531
1393.598, 533.2188
1394.652, 559.4336
1395.705, 298.5859
1396.759, 352.6797
1397.812, 200.7305
1398.866, 121.7773
1399.919, 230.1328
1400.972, 197.8398
1402.024, 166.4453
1403.077, 297.3477
1404.129, 397.1953
1405.181, 169.0000
1406.233, 137.7695
1407.285, 133.5078
1408.337, 61.23828
1409.389, 6.105469
1410.440, 51.50781
1411.491, 158.0156
1412.542, 4.566406
1413.593, 179.3594
1414.644, 377.2500
1415.695, 104.4297
1416.745, 141.4805
1417.795, 236.4453
1418.845, 238.7539
1419.895, 96.10938
1420.945, 148.4805
1421.995, 131.0195
1423.044, 415.4922
1424.093, 206.9023
1425.142, 84.23047
1426.191, 389.4844
1427.240, 314.6719
1428.289, 424.7891
1429.337, 489.8359
1430.385, 395.8711
1431.433, 672.7773
1432.481, 918.5312
1433.529, 676.3477
1434.577, 1163.984
1435.624, 1169.617
1436.672, 1206.184
1437.719, 1620.055
1438.766, 1874.500
1439.812, 1856.945
1440.859, 1924.270
1441.905, 2052.547
1442.952, 2325.117
1443.998, 2321.426
1445.044, 2648.574
1446.090, 2327.387
1447.135, 2801.410
1448.181, 2704.469
1449.226, 2845.695
1450.271, 2775.820
1451.316, 3196.062
1452.361, 3039.332
1453.405, 2946.586
1454.450, 3174.285
1455.494, 2934.152
1456.538, 3046.426
1457.582, 2734.867
1458.626, 2925.121
1459.670, 2933.430
1460.713, 2637.918
1461.757, 2576.473
1462.800, 2375.234
1463.843, 2104.387
1464.886, 2128.949
1465.928, 1827.477
1466.971, 1492.898
1468.013, 1587.977
1469.055, 1510.762
1470.097, 1447.266
1471.139, 1152.074
1472.181, 1340.949
1473.222, 1471.172
1474.263, 1128.129
1475.305, 1168.676
1476.346, 1600.738
1477.386, 1318.641
1478.427, 1393.262
1479.468, 1156.195
1480.508, 1111.812
1481.548, 1195.945
1482.588, 1231.336
1483.628, 1146.469
1484.668, 1107.398
1485.707, 956.7500
1486.747, 916.6875
1487.786, 740.4922
1488.825, 679.4922
1489.864, 701.2930
1490.902, 512.0430
1491.941, 439.2617
1492.979, 281.4492
1494.017, 509.4609
1495.055, 420.6055
1496.093, 222.2031
1497.131, 355.0430
1498.168, 154.8672
1499.206, 56.50391
1500.243, 148.7812
1501.280, 48.53125
1502.317, 289.7578
1503.354, 184.5156
1504.390, 143.2305
1505.426, 309.9062
1506.463, 245.5430
1507.499, 226.1445
1508.535, 174.7148
1509.570, 64.25000
1510.606, 100.8438
1511.641, 49.79688
1512.676, 179.5430
1513.711, 129.6992
1514.746, 266.6836
1515.781, 337.5078
1516.816, 287.1367
1517.850, 353.6641
1518.884, 346.3984
1519.918, 321.2070
1520.952, 383.3984
1521.986, 306.4727
1523.019, 392.4141
1524.053, 205.1719
1525.086, 414.7227
1526.119, 196.0430
1527.152, 409.1406
1528.185, 435.0781
1529.217, 560.7852
1530.250, 556.3086
1531.282, 561.2812
1532.314, 441.1680
1533.346, 502.8984
1534.377, 309.9492
1535.409, 683.7148
1536.440, 305.9648
1537.472, 513.8594
1538.503, 32.86719
1539.534, 190.8711
1540.564, 513.6602
1541.595, 283.8086
1542.625, 214.0039
1543.656, 220.2188
1544.686, 251.5312
1545.716, 458.9336
1546.745, 411.1836
1547.775, 486.0820
1548.804, 436.4648
1549.834, 197.1641
1550.863, 241.7188
1551.892, 451.8281
1552.920, 343.4180
1553.949, 130.4219
1554.977, 613.2188
1556.006, 331.4297
1557.034, 99.73438
1558.062, 147.1250
1559.089, 283.3047
1560.117, 305.2227
1561.144, 29.94922
1562.172, 304.7656
1563.199, 101.6055
1564.226, 288.7969
1565.252, 449.6523
1566.279, 35.77344
1567.305, 84.80859
1568.332, 117.0508
1569.358, 3.882813
1570.384, 168.6133
1571.409, 1.539063
1572.435, 0.0000000E+00
##END=



