##NAMES=Edenite
##RRUFFID=R050415
##IDEAL CHEMISTRY=NaCa_2_Mg_5_(Si_7_Al)O_22_(OH)_2_
##LOCALITY=Mogok, Burma
##OWNER=RRUFF
##SOURCE=Marcus Origlieri
##DESCRIPTION=Transparent pale green water worn fragment
##STATUS=The identification of this mineral has been confirmed by X-ray diffraction and chemical analysis
##URL=rruff.info/R050415
##MEASURED CHEMISTRY=(Na_0.83_K_0.17_)(Ca_1.76_Na_0.24_)_&#931;=2_(Mg_4.54_Al_0.40_Fe^3+^_0.06_)_&#931;=5_(Si_6.74_Al_1.26_)O_22_((OH)_0.52_F_0.48_)_2_
##PIN_ID=L01094
##ORIENTATION=Laser parallel to b* (0 1 0). Fiducial mark perpendicular to laser is parallel to -c [0 0 -1]
93.48000, 0.0000000E+00
94.71400, 5.328613
95.94800, 33.07275
97.18200, 123.3130
98.41600, 247.0508
99.64900, 455.9360
100.8830, 579.6772
102.1160, 860.4990
103.3490, 1168.619
104.5820, 1682.815
105.8150, 2398.865
107.0470, 3762.352
108.2800, 3707.547
109.5120, 5127.594
110.7440, 4210.957
111.9760, 4249.002
113.2080, 4932.855
114.4400, 5642.582
115.6710, 6019.205
116.9030, 6075.732
118.1340, 5981.752
119.3650, 5761.914
120.5960, 5329.948
121.8270, 4946.104
123.0580, 4339.996
124.2880, 3759.754
125.5190, 2948.347
126.7490, 2244.784
127.9790, 1915.277
129.2090, 1546.778
130.4390, 1266.237
131.6680, 981.5801
132.8980, 630.7373
134.1270, 424.6514
135.3560, 240.2773
136.5850, 252.5723
137.8140, 307.5029
139.0430, 354.0361
140.2710, 182.1426
141.5000, 9.203125
142.7280, 90.02441
143.9560, 98.34961
145.1840, 205.2021
146.4120, 129.6025
147.6390, 74.56543
148.8670, 102.1045
150.0940, 60.77051
151.3210, 22.05371
152.5490, 26.74609
153.7750, 18.85352
155.0020, 148.6182
156.2290, 76.33887
157.4550, 14.27148
158.6810, 144.5400
159.9080, 392.7607
161.1340, 465.3789
162.3590, 648.3770
163.5850, 869.7422
164.8110, 1015.463
166.0360, 1233.521
167.2610, 1197.816
168.4860, 1386.106
169.7110, 1430.457
170.9360, 1656.904
172.1610, 1761.470
173.3850, 1928.299
174.6100, 1993.014
175.8340, 2355.008
177.0580, 2534.158
178.2820, 2912.465
179.5050, 3133.936
180.7290, 3355.561
181.9520, 3836.336
183.1760, 3898.262
184.3990, 4009.343
185.6220, 4091.578
186.8450, 4100.969
188.0670, 3852.521
189.2900, 3499.229
190.5120, 3236.097
191.7340, 2723.094
192.9560, 2570.139
194.1780, 2277.230
195.4000, 2136.429
196.6220, 1805.791
197.8430, 1740.287
199.0640, 1666.916
200.2860, 1764.702
201.5070, 1710.647
202.7270, 1760.752
203.9480, 1649.015
205.1690, 1685.448
206.3890, 1801.074
207.6090, 1842.908
208.8290, 2186.069
210.0490, 2417.545
211.2690, 2860.307
212.4890, 3197.424
213.7080, 3777.870
214.9280, 4074.715
216.1470, 4611.932
217.3660, 5426.555
218.5850, 5990.551
219.8030, 6918.866
221.0220, 7687.393
222.2400, 8553.032
223.4590, 9264.785
224.6770, 10040.65
225.8950, 10495.60
227.1120, 10759.68
228.3300, 10686.83
229.5480, 10673.05
230.7650, 10355.35
231.9820, 9969.716
233.1990, 10090.15
234.4160, 10028.65
235.6330, 10067.50
236.8490, 10171.83
238.0660, 10138.52
239.2820, 9884.263
240.4980, 9473.069
241.7140, 9162.121
242.9300, 8737.233
244.1460, 8099.075
245.3610, 7614.502
246.5770, 7063.421
247.7920, 6598.418
249.0070, 6236.430
250.2220, 5795.426
251.4370, 5335.710
252.6510, 5080.256
253.8660, 4397.004
255.0800, 3903.941
256.2940, 3550.055
257.5080, 3479.342
258.7220, 3452.800
259.9360, 2986.424
261.1490, 2285.213
262.3630, 1762.157
263.5760, 1495.257
264.7890, 1402.407
266.0020, 1314.449
267.2150, 970.4912
268.4270, 1081.619
269.6400, 1016.904
270.8520, 780.2461
272.0640, 810.7295
273.2760, 808.3574
274.4880, 796.1250
275.7000, 755.0283
276.9120, 737.0625
278.1230, 706.2227
279.3340, 849.5059
280.5450, 877.9082
281.7560, 1036.428
282.9670, 1009.062
284.1780, 1167.807
285.3880, 1275.659
286.5980, 1434.617
287.8090, 1508.166
289.0190, 1730.309
290.2290, 1817.337
291.4380, 1947.530
292.6480, 2226.771
293.8570, 2441.075
295.0670, 2666.608
296.2760, 2677.344
297.4850, 2841.163
298.6930, 2889.067
299.9020, 2931.054
301.1110, 2900.701
302.3190, 2819.846
303.5270, 2862.803
304.7350, 2627.105
305.9430, 2819.479
307.1510, 2559.923
308.3580, 2667.437
309.5660, 2703.018
310.7730, 2597.709
311.9800, 2883.416
313.1870, 2857.368
314.3940, 3082.855
315.6010, 3228.213
316.8070, 3335.499
318.0130, 3489.634
319.2200, 3550.707
320.4260, 3583.613
321.6310, 3750.136
322.8370, 3485.076
324.0430, 3512.397
325.2480, 3325.676
326.4540, 3372.055
327.6590, 3139.645
328.8640, 3262.511
330.0680, 2995.869
331.2730, 2809.066
332.4780, 2894.521
333.6820, 2636.708
334.8860, 2763.234
336.0900, 2591.696
337.2940, 2285.158
338.4980, 2378.140
339.7010, 2218.732
340.9050, 1946.604
342.1080, 1874.244
343.3110, 1764.086
344.5140, 1873.328
345.7170, 1665.681
346.9200, 1695.364
348.1220, 1674.018
349.3240, 1635.386
350.5270, 1589.652
351.7290, 1609.648
352.9310, 1707.377
354.1320, 1842.673
355.3340, 1868.205
356.5350, 2100.556
357.7370, 2137.260
358.9380, 2368.664
360.1390, 2804.211
361.3400, 2976.973
362.5400, 3397.413
363.7410, 3518.860
364.9410, 3733.319
366.1410, 4042.789
367.3410, 4103.267
368.5410, 4112.753
369.7410, 4302.249
370.9400, 3979.750
372.1400, 4071.258
373.3390, 4008.772
374.5380, 3808.292
375.7370, 3759.818
376.9360, 3700.350
378.1350, 3748.885
379.3330, 3770.424
380.5310, 3628.968
381.7300, 3866.516
382.9280, 3831.064
384.1260, 3885.615
385.3230, 4227.217
386.5210, 4248.860
387.7180, 4366.541
388.9160, 4811.259
390.1130, 5021.006
391.3100, 4974.783
392.5060, 5219.588
393.7030, 5397.416
394.9000, 5172.270
396.0960, 5066.144
397.2920, 4938.039
398.4880, 4796.955
399.6840, 4347.887
400.8800, 3914.838
402.0750, 3789.806
403.2710, 3430.789
404.4660, 3027.787
405.6610, 2655.800
406.8560, 2660.824
408.0510, 2235.862
409.2450, 2235.911
410.4400, 2181.973
411.6340, 1888.045
412.8280, 1742.129
414.0220, 1564.224
415.2160, 1659.328
416.4100, 1585.440
417.6030, 1529.562
418.7970, 1601.691
419.9900, 1585.946
421.1830, 1460.086
422.3760, 1454.247
423.5690, 1479.397
424.7610, 1246.551
425.9540, 1274.162
427.1460, 1135.500
428.3380, 1160.659
429.5300, 1061.408
430.7220, 1007.149
431.9140, 825.3115
433.1050, 703.6006
434.2970, 456.6992
435.4880, 455.1299
436.6790, 331.3613
437.8700, 296.8916
439.0610, 142.8164
440.2510, 266.2441
441.4420, 142.4814
442.6320, 139.8594
443.8220, 115.1660
445.0120, 207.8457
446.2020, 174.7100
447.3910, 151.8164
448.5810, 105.4717
449.7700, 75.12988
450.9600, 83.47559
452.1490, 78.74805
453.3370, 50.03711
454.5260, 81.19141
455.7150, 44.49414
456.9030, 25.61914
458.0910, 36.07617
459.2800, 45.15820
460.4670, 54.50977
461.6550, 116.7129
462.8430, 45.30371
464.0300, 132.3818
465.2180, 56.56934
466.4050, 75.82910
467.5920, 136.1670
468.7790, 23.62012
469.9650, 88.12500
471.1520, 153.7188
472.3380, 79.43848
473.5250, 122.2471
474.7110, 92.16699
475.8970, 181.1855
477.0820, 200.3486
478.2680, 85.66797
479.4540, 211.0820
480.6390, 153.6406
481.8240, 193.3027
483.0090, 148.1191
484.1940, 142.6670
485.3780, 120.1064
486.5630, 93.27051
487.7470, 37.52637
488.9320, 53.16113
490.1160, 56.82031
491.3000, 69.44434
492.4830, 135.0615
493.6670, 8.345703
494.8500, 106.1982
496.0340, 177.7139
497.2170, 78.20898
498.4000, 153.6924
499.5820, 3.151367
500.7650, 154.5479
501.9480, 138.9199
503.1300, 126.2764
504.3120, 163.6045
505.4940, 253.9072
506.6760, 328.1836
507.8580, 347.4336
509.0390, 334.6572
510.2210, 459.8564
511.4020, 497.4678
512.5830, 523.2041
513.7640, 655.3750
514.9450, 698.5293
516.1250, 750.6523
517.3060, 781.7529
518.4860, 843.3799
519.6660, 858.7764
520.8460, 933.9541
522.0260, 888.9609
523.2060, 870.9365
524.3850, 871.8848
525.5650, 900.5010
526.7440, 992.6855
527.9230, 998.5674
529.1020, 969.4150
530.2810, 1005.229
531.4590, 943.0098
532.6380, 894.7588
533.8160, 834.4736
534.9940, 918.1553
536.1720, 769.8037
537.3500, 651.4170
538.5270, 870.0225
539.7050, 720.5928
540.8820, 596.1299
542.0590, 876.6309
543.2360, 707.1143
544.4130, 616.5918
545.5900, 640.0352
546.7660, 563.4395
547.9430, 563.8086
549.1190, 545.2930
550.2950, 504.9814
551.4710, 497.7295
552.6470, 459.9590
553.8220, 401.1465
554.9980, 394.2939
556.1730, 491.3994
557.3480, 371.4678
558.5230, 395.4941
559.6980, 414.4824
560.8730, 272.4297
562.0470, 348.3320
563.2220, 303.1924
564.3960, 325.0117
565.5700, 328.7930
566.7440, 234.5469
567.9170, 275.2529
569.0910, 356.9482
570.2640, 349.5996
571.4380, 191.2109
572.6110, 358.7686
573.7840, 304.2822
574.9570, 155.7578
576.1290, 285.1699
577.3020, 434.5400
578.4740, 271.8770
579.6460, 171.1680
580.8180, 302.4268
581.9900, 493.6602
583.1620, 315.8477
584.3330, 333.9893
585.5040, 262.0850
586.6760, 179.1289
587.8470, 342.1123
589.0180, 302.0518
590.1880, 266.9443
591.3590, 329.7959
592.5290, 346.5986
593.7000, 342.3877
594.8700, 409.0889
596.0400, 336.7891
597.2090, 378.2559
598.3790, 294.1982
599.5490, 503.2812
600.7180, 317.4492
601.8870, 324.7773
603.0560, 523.1738
604.2250, 492.8516
605.3940, 600.8115
606.5620, 469.4199
607.7300, 602.2988
608.8990, 636.6250
610.0670, 687.3037
611.2350, 695.1533
612.4020, 868.5811
613.5700, 984.3428
614.7370, 893.3662
615.9050, 957.1387
617.0720, 951.0479
618.2390, 1194.219
619.4060, 1281.520
620.5720, 914.4414
621.7390, 1238.296
622.9050, 1356.337
624.0710, 1525.045
625.2370, 1816.772
626.4030, 1818.272
627.5690, 1983.547
628.7340, 2031.735
629.9000, 2295.151
631.0650, 2531.325
632.2300, 2719.730
633.3950, 2845.854
634.5600, 2996.348
635.7240, 3272.275
636.8890, 3612.623
638.0530, 3835.099
639.2170, 4062.318
640.3810, 4458.311
641.5450, 4755.332
642.7080, 5288.962
643.8720, 5539.409
645.0350, 5934.231
646.1980, 6533.781
647.3610, 6909.381
648.5240, 7458.973
649.6870, 7931.262
650.8490, 8510.275
652.0120, 9156.205
653.1740, 10035.76
654.3360, 10769.53
655.4980, 11709.32
656.6600, 12099.25
657.8210, 13575.13
658.9830, 14600.91
660.1440, 15859.87
661.3050, 17498.87
662.4660, 19255.57
663.6270, 21237.53
664.7870, 23555.29
665.9480, 26128.27
667.1080, 28925.89
668.2680, 31568.81
669.4280, 34554.38
670.5880, 36909.46
671.7480, 39001.98
672.9070, 40536.66
674.0670, 41441.18
675.2260, 41549.56
676.3850, 40807.60
677.5440, 39377.89
678.7030, 37056.01
679.8610, 34415.42
681.0200, 31582.37
682.1780, 28789.60
683.3360, 25703.71
684.4940, 22691.57
685.6520, 20180.43
686.8090, 17999.39
687.9670, 15986.19
689.1240, 14132.12
690.2810, 12578.24
691.4380, 11368.63
692.5950, 10031.78
693.7520, 9398.797
694.9080, 8452.557
696.0650, 7602.434
697.2210, 6874.490
698.3770, 6267.979
699.5330, 5632.127
700.6880, 4902.467
701.8440, 4744.357
702.9990, 4428.678
704.1550, 3744.072
705.3100, 3477.455
706.4650, 3122.672
707.6190, 2794.512
708.7740, 2555.346
709.9290, 2450.475
711.0830, 2251.162
712.2370, 1956.410
713.3910, 1826.375
714.5450, 1530.365
715.6980, 1531.421
716.8520, 1397.379
718.0050, 1332.517
719.1580, 1206.383
720.3110, 1230.568
721.4640, 1157.676
722.6170, 923.8340
723.7700, 1043.049
724.9220, 1056.755
726.0740, 855.2637
727.2260, 920.7988
728.3780, 823.7070
729.5300, 799.3535
730.6810, 688.0479
731.8330, 747.5859
732.9840, 662.6191
734.1350, 437.2910
735.2860, 557.7871
736.4370, 350.7354
737.5880, 472.7852
738.7380, 407.2031
739.8880, 442.2461
741.0390, 432.2188
742.1890, 287.8008
743.3380, 327.4775
744.4880, 297.1504
745.6380, 141.8027
746.7870, 284.4326
747.9360, 40.06152
749.0850, 87.64941
750.2340, 119.2178
751.3830, 159.7861
752.5310, 135.3379
753.6800, 132.6035
754.8280, 163.4150
755.9760, 53.95801
757.1240, 47.51172
758.2720, 32.95117
759.4190, 88.43262
760.5670, 54.02344
761.7140, 53.50781
762.8610, 87.91699
764.0080, 26.65625
765.1550, 30.26465
766.3020, 54.91699
767.4480, 0.6396480
768.5950, 30.57617
769.7410, 76.26074
770.8870, 65.80078
772.0330, 41.19043
773.1780, 33.75098
774.3240, 32.48633
775.4690, 67.53223
776.6140, 33.20215
777.7590, 22.88086
778.9040, 39.52344
780.0490, 25.88574
781.1940, 57.62305
782.3380, 46.08594
783.4820, 91.42285
784.6260, 68.98145
785.7700, 59.22852
786.9140, 6.414063
788.0580, 6.386719
789.2010, 22.25586
790.3450, 97.19922
791.4880, 22.25391
792.6310, 180.6172
793.7730, 4.443359
794.9160, 75.78711
796.0590, 146.8828
797.2010, 92.50977
798.3430, 71.08984
799.4850, 129.6211
800.6270, 56.10742
801.7690, 92.55078
802.9100, 26.94531
804.0520, 82.70703
805.1930, 256.5410
806.3340, 87.75195
807.4750, 192.9160
808.6160, 72.04102
809.7560, 27.12109
810.8970, 49.15430
812.0370, 72.14258
813.1770, 136.0859
814.3170, 90.01172
815.4570, 95.79297
816.5960, 11.55273
817.7360, 112.2695
818.8750, 63.05664
820.0140, 110.4629
821.1530, 93.02539
822.2920, 79.47266
823.4310, 42.87695
824.5690, 47.75977
825.7070, 25.03125
826.8460, 206.7793
827.9840, 127.9922
829.1220, 172.1641
830.2590, 190.3027
831.3970, 239.4043
832.5340, 3.531250
833.6710, 142.4902
834.8080, 26.47266
835.9450, 94.41602
837.0820, 246.3184
838.2190, 130.1914
839.3550, 11.02539
840.4910, 0.1796880
841.6270, 64.09570
842.7630, 130.2578
843.8990, 125.0938
845.0350, 65.45703
846.1700, 1.031250
847.3060, 33.43750
848.4410, 165.8750
849.5760, 34.72070
850.7100, 222.6328
851.8450, 17.03711
852.9800, 56.74805
854.1140, 57.47852
855.2480, 117.3281
856.3820, 100.2207
857.5160, 94.81055
858.6500, 33.80469
859.7830, 22.76367
860.9170, 44.68750
862.0500, 32.58008
863.1830, 15.55469
864.3160, 4.267578
865.4480, 57.94531
866.5810, 50.79102
867.7130, 152.5059
868.8460, 40.90234
869.9780, 53.65234
871.1100, 44.17578
872.2410, 200.6719
873.3730, 80.14258
874.5050, 63.58398
875.6360, 76.99805
876.7670, 125.7363
877.8980, 404.7520
879.0290, 332.9922
880.1590, 361.3164
881.2900, 462.5625
882.4200, 309.1641
883.5500, 535.3457
884.6800, 618.0586
885.8100, 481.3711
886.9400, 685.8047
888.0690, 610.3926
889.1990, 788.8574
890.3280, 974.2910
891.4570, 869.8535
892.5860, 1276.791
893.7140, 1051.656
894.8430, 1257.883
895.9710, 1140.639
897.1000, 1282.572
898.2280, 1393.533
899.3560, 1433.686
900.4830, 1395.352
901.6110, 1358.799
902.7380, 1354.703
903.8660, 1593.021
904.9930, 1612.584
906.1200, 1942.193
907.2460, 1806.154
908.3730, 2101.992
909.5000, 2397.666
910.6260, 2175.311
911.7520, 2331.562
912.8780, 2479.215
914.0040, 2567.701
915.1290, 2717.422
916.2550, 2771.350
917.3800, 2900.211
918.5050, 3020.992
919.6300, 3113.021
920.7550, 3157.199
921.8800, 3201.621
923.0040, 3179.090
924.1290, 3118.486
925.2530, 3078.924
926.3770, 2993.326
927.5010, 2851.299
928.6250, 2831.846
929.7480, 2722.238
930.8720, 2657.664
931.9950, 2577.439
933.1180, 2446.434
934.2410, 2421.613
935.3640, 2341.029
936.4860, 2307.131
937.6090, 2378.379
938.7310, 2128.336
939.8530, 2180.613
940.9750, 2257.543
942.0970, 2021.760
943.2180, 2024.410
944.3400, 2026.547
945.4610, 2128.488
946.5820, 1746.516
947.7030, 2049.639
948.8240, 1870.025
949.9450, 1940.119
951.0650, 1919.340
952.1860, 1935.207
953.3060, 2023.488
954.4260, 2050.430
955.5460, 1785.430
956.6650, 1842.619
957.7850, 1814.752
958.9040, 1932.729
960.0230, 1759.812
961.1420, 1802.715
962.2610, 1715.375
963.3800, 1796.699
964.4990, 1851.205
965.6170, 1616.785
966.7350, 1566.566
967.8530, 1658.172
968.9710, 1795.557
970.0890, 1597.453
971.2070, 1657.625
972.3240, 1682.426
973.4410, 1690.738
974.5580, 1616.545
975.6750, 1620.232
976.7920, 1645.869
977.9090, 1591.154
979.0250, 1694.754
980.1410, 1723.041
981.2580, 1851.686
982.3740, 1839.539
983.4890, 1824.941
984.6050, 1811.453
985.7200, 1897.459
986.8360, 1945.361
987.9510, 2097.717
989.0660, 2169.629
990.1810, 2278.365
991.2950, 2474.213
992.4100, 2691.264
993.5240, 2899.051
994.6390, 3020.789
995.7530, 3061.613
996.8660, 3097.381
997.9800, 3253.650
999.0940, 3578.281
1000.207, 3713.174
1001.320, 3987.994
1002.433, 4292.117
1003.546, 4206.508
1004.659, 4331.680
1005.772, 4535.088
1006.884, 4836.059
1007.996, 4813.643
1009.108, 4810.113
1010.220, 4871.021
1011.332, 4919.387
1012.444, 5064.268
1013.555, 4957.830
1014.666, 5064.148
1015.777, 4861.891
1016.888, 5147.428
1017.999, 4765.641
1019.110, 5075.807
1020.220, 4972.703
1021.331, 4957.068
1022.441, 4836.221
1023.551, 4873.748
1024.661, 4849.346
1025.770, 5048.656
1026.880, 4866.395
1027.989, 5281.545
1029.098, 5117.418
1030.207, 5113.264
1031.316, 5292.139
1032.425, 5241.818
1033.533, 5409.785
1034.642, 5365.988
1035.750, 5540.734
1036.858, 5708.500
1037.966, 5880.242
1039.073, 6000.004
1040.181, 6105.250
1041.288, 6231.613
1042.396, 6189.941
1043.503, 6320.879
1044.610, 6253.496
1045.716, 6126.660
1046.823, 6229.365
1047.929, 5812.555
1049.036, 5664.680
1050.142, 5828.125
1051.248, 5779.971
1052.353, 5763.402
1053.459, 5598.361
1054.564, 5457.322
1055.670, 5516.137
1056.775, 5440.225
1057.880, 5279.914
1058.985, 5167.463
1060.089, 5348.266
1061.194, 5341.199
1062.298, 5101.639
1063.402, 5397.668
1064.506, 5048.113
1065.610, 5169.320
1066.713, 5161.285
1067.817, 4908.961
1068.920, 4763.213
1070.023, 4576.977
1071.126, 4442.875
1072.229, 4224.797
1073.332, 4035.816
1074.435, 3845.578
1075.537, 3582.223
1076.639, 3412.021
1077.741, 3225.035
1078.843, 2952.078
1079.945, 2719.436
1081.046, 2359.434
1082.148, 2280.215
1083.249, 2058.029
1084.350, 2038.492
1085.451, 2034.922
1086.551, 1578.189
1087.652, 1634.416
1088.752, 1505.203
1089.853, 1387.629
1090.953, 1406.623
1092.053, 1194.477
1093.152, 1167.279
1094.252, 1002.703
1095.351, 878.9590
1096.451, 1184.598
1097.550, 880.7305
1098.649, 924.2812
1099.748, 788.8418
1100.846, 784.4082
1101.945, 652.0898
1103.043, 594.5195
1104.141, 582.5918
1105.239, 704.4629
1106.337, 536.0508
1107.434, 681.0332
1108.532, 493.7168
1109.629, 501.4785
1110.726, 606.1855
1111.823, 493.8828
1112.920, 725.4883
1114.017, 668.2422
1115.113, 639.7266
1116.210, 732.9805
1117.306, 847.0801
1118.402, 1003.494
1119.498, 1410.551
1120.593, 1565.555
1121.689, 1630.115
1122.784, 1852.953
1123.879, 1271.500
1124.974, 1108.381
1126.069, 1010.809
1127.164, 849.6328
1128.259, 649.7695
1129.353, 372.6699
1130.447, 428.1758
1131.541, 321.3457
1132.635, 439.3242
1133.729, 353.0898
1134.822, 399.7480
1135.916, 307.5918
1137.009, 242.4219
1138.102, 266.6055
1139.195, 239.1172
1140.288, 249.8652
1141.380, 160.3125
1142.473, 99.88281
1143.565, 54.05273
1144.657, 128.8652
1145.749, 185.8457
1146.841, 104.7383
1147.932, 132.0605
1149.024, 4.052734
1150.115, 219.9629
1151.206, 284.9336
1152.297, 173.1152
1153.388, 222.4961
1154.479, 133.0645
1155.569, 47.91211
1156.659, 4.822266
1157.750, 48.54297
1158.839, 21.53711
1159.929, 51.83008
1161.019, 65.06641
1162.108, 57.94922
1163.198, 8.552734
1164.287, 38.07617
1165.376, 5.431641
1166.465, 96.26953
1167.553, 96.94922
1168.642, 102.4980
1169.730, 59.87305
1170.818, 72.79297
1171.906, 13.89453
1172.994, 107.8359
1174.082, 299.2910
1175.170, 134.9336
1176.257, 26.83008
1177.344, 115.0352
1178.431, 24.01953
1179.518, 31.34961
1180.605, 7.445313
1181.691, 46.27344
1182.778, 102.7520
1183.864, 94.65039
1184.950, 78.12891
1186.036, 71.05469
1187.122, 34.70703
1188.207, 40.28125
1189.292, 148.8867
1190.378, 136.0977
1191.463, 169.5547
1192.548, 129.5332
1193.632, 122.7207
1194.717, 96.95898
1195.801, 13.36719
1196.886, 44.35938
1197.970, 76.26172
1199.054, 162.6973
1200.137, 60.59180
1201.221, 233.2910
1202.305, 40.21094
1203.388, 198.2969
1204.471, 155.0684
1205.554, 127.0293
1206.637, 227.0000
1207.719, 168.1738
1208.802, 155.3652
1209.884, 19.54297
1210.966, 149.4297
1212.048, 193.2656
1213.130, 22.06055
1214.212, 62.28125
1215.293, 62.45508
1216.374, 78.58398
1217.456, 82.06836
1218.536, 158.5742
1219.617, 54.47852
1220.698, 101.7871
1221.778, 114.9727
1222.859, 10.21094
1223.939, 203.0098
1225.019, 232.5469
1226.099, 131.6328
1227.178, 61.92383
1228.258, 131.6855
1229.337, 120.6406
1230.417, 4.062500
1231.496, 97.74414
1232.574, 358.8594
1233.653, 195.9766
1234.732, 231.9512
1235.810, 288.5859
1236.888, 183.8555
1237.966, 483.0430
1239.044, 217.8984
1240.122, 218.7031
1241.199, 217.5664
1242.277, 466.1270
1243.354, 437.7598
1244.431, 214.1719
1245.508, 513.7832
1246.585, 302.1836
1247.661, 452.2520
1248.738, 288.2930
1249.814, 290.1934
1250.890, 383.7969
1251.966, 310.4160
1253.042, 372.7520
1254.117, 279.2148
1255.193, 374.5195
1256.268, 266.6797
1257.343, 177.6270
1258.418, 221.5957
1259.493, 301.4922
1260.567, 369.3438
1261.642, 403.0605
1262.716, 439.5918
1263.790, 458.6348
1264.864, 401.3086
1265.938, 390.0781
1267.011, 289.8242
1268.085, 438.4648
1269.158, 363.6152
1270.231, 419.3633
1271.304, 374.8086
1272.377, 453.1699
1273.450, 530.7988
1274.522, 482.7402
1275.594, 599.2168
1276.666, 471.4023
1277.738, 432.2832
1278.810, 386.8906
1279.882, 380.0801
1280.953, 310.5312
1282.025, 482.6699
1283.096, 419.4141
1284.167, 528.7520
1285.238, 485.2402
1286.308, 417.1914
1287.379, 306.1270
1288.449, 271.5020
1289.519, 372.6230
1290.589, 435.2031
1291.659, 506.1230
1292.729, 451.2793
1293.798, 255.7188
1294.868, 594.3477
1295.937, 371.3789
1297.006, 438.8320
1298.075, 520.9141
1299.143, 535.0488
1300.212, 375.8848
1301.280, 182.1055
1302.348, 346.8691
1303.416, 440.3516
1304.484, 607.8125
1305.552, 514.4355
1306.620, 411.9375
1307.687, 572.9766
1308.754, 470.2852
1309.821, 415.3672
1310.888, 321.4434
1311.955, 373.0547
1313.021, 225.7969
1314.088, 513.2988
1315.154, 613.9023
1316.220, 501.7617
1317.286, 372.7402
1318.352, 490.3789
1319.417, 477.1094
1320.483, 473.8574
1321.548, 515.9805
1322.613, 485.3906
1323.678, 451.1953
1324.743, 395.2363
1325.807, 563.9922
1326.872, 409.3203
1327.936, 511.1543
1329.000, 290.9180
1330.064, 313.9492
1331.128, 508.3926
1332.191, 418.5117
1333.255, 599.4062
1334.318, 314.8496
1335.381, 240.0625
1336.444, 207.4551
1337.507, 421.9180
1338.569, 459.2949
1339.632, 442.0371
1340.694, 452.3457
1341.756, 490.5273
1342.818, 261.7109
1343.880, 242.0156
1344.941, 353.5273
1346.003, 341.9199
1347.064, 445.5566
1348.125, 556.2891
1349.186, 315.9004
1350.247, 273.6426
1351.308, 341.6484
1352.368, 374.3574
1353.428, 213.0684
1354.489, 373.5234
1355.549, 228.4180
1356.608, 390.6484
1357.668, 277.3809
1358.727, 195.9375
1359.787, 166.5762
1360.846, 218.8125
1361.905, 221.7188
1362.964, 271.7891
1364.022, 328.6641
1365.081, 317.2148
1366.139, 367.4727
1367.197, 348.3906
1368.255, 303.1758
1369.313, 342.8438
1370.371, 297.1094
1371.428, 319.2656
1372.486, 239.3438
1373.543, 260.0234
1374.600, 307.0469
1375.657, 282.6758
1376.713, 284.4375
1377.770, 322.4961
1378.826, 289.0781
1379.882, 324.5273
1380.938, 261.9453
1381.994, 265.8359
1383.050, 267.9414
1384.106, 285.4531
1385.161, 245.4609
1386.216, 222.5195
1387.271, 206.0586
1388.326, 163.4570
1389.381, 194.8750
1390.435, 264.4180
1391.490, 355.7852
1392.544, 55.76953
1393.598, 26.55859
1394.652, 131.7852
1395.705, 128.5039
1396.759, 103.7695
1397.812, 50.13672
1398.866, 26.52344
1399.919, 57.24609
1400.972, 59.87500
1402.024, 102.1211
1403.077, 67.46484
1404.129, 110.6367
1405.181, 27.93750
1406.233, 87.30469
1407.285, 244.2188
1408.337, 169.7031
1409.389, 84.76953
1410.440, 246.4297
1411.491, 34.42578
1412.542, 103.1250
1413.593, 41.42188
1414.644, 140.8711
1415.695, 79.48828
1416.745, 133.1484
1417.795, 67.95703
1418.845, 48.04297
1419.895, 78.02344
1420.945, 129.8125
1421.995, 117.8594
1423.044, 48.81641
1424.093, 75.94531
1425.142, 20.85938
1426.191, 124.5820
1427.240, 49.19531
1428.289, 89.54297
1429.337, 176.5781
1430.385, 78.10938
1431.433, 12.26172
1432.481, 5.933594
1433.529, 94.83984
1434.577, 50.17578
1435.624, 115.3086
1436.672, 72.06250
1437.719, 194.0664
1438.766, 234.0781
1439.812, 78.56250
1440.859, 218.8945
1441.905, 84.67578
1442.952, 98.60938
1443.998, 157.5625
1445.044, 280.5938
1446.090, 239.7930
1447.135, 160.5469
1448.181, 185.4062
1449.226, 192.7070
1450.271, 158.4297
1451.316, 249.5703
1452.361, 146.6055
1453.405, 330.0625
1454.450, 36.97266
1455.494, 86.76172
1456.538, 156.7148
1457.582, 181.7500
1458.626, 163.8711
1459.670, 214.9062
1460.713, 109.6797
1461.757, 209.7305
1462.800, 149.7422
1463.843, 296.2422
1464.886, 256.9805
1465.928, 375.7422
1466.971, 364.8008
1468.013, 171.0820
1469.055, 349.8555
1470.097, 301.2344
1471.139, 305.8281
1472.181, 101.9453
1473.222, 346.7617
1474.263, 439.8359
1475.305, 164.2461
1476.346, 315.6211
1477.386, 449.8945
1478.427, 459.5859
1479.468, 128.2969
1480.508, 343.4414
1481.548, 359.9062
1482.588, 554.7500
1483.628, 441.7266
1484.668, 343.6797
1485.707, 217.5820
1486.747, 438.2188
1487.786, 451.6172
1488.825, 339.1016
1489.864, 269.7656
1490.902, 355.0195
1491.941, 162.6484
1492.979, 389.8477
1494.017, 380.9180
1495.055, 181.6680
1496.093, 654.0352
1497.131, 401.2266
1498.168, 301.9414
1499.206, 416.8125
1500.243, 355.3008
1501.280, 449.7930
1502.317, 230.5703
1503.354, 71.22656
1504.390, 181.0703
1505.426, 457.3359
1506.463, 477.5000
1507.499, 491.7148
1508.535, 668.1016
1509.570, 435.7500
1510.606, 464.9531
1511.641, 239.7969
1512.676, 411.5859
1513.711, 349.5820
1514.746, 267.0664
1515.781, 406.0039
1516.816, 439.8633
1517.850, 487.6602
1518.884, 369.2695
1519.918, 430.2734
1520.952, 306.9766
1521.986, 422.4570
1523.019, 209.8477
1524.053, 258.9219
1525.086, 387.3711
1526.119, 410.6953
1527.152, 502.1523
1528.185, 155.8398
1529.217, 436.0391
1530.250, 97.56250
1531.282, 353.5977
1532.314, 337.1289
1533.346, 354.4023
1534.377, 746.9375
1535.409, 462.4453
1536.440, 548.6250
1537.472, 388.1094
1538.503, 239.0742
1539.534, 524.6016
1540.564, 325.8047
1541.595, 512.1211
1542.625, 204.2188
1543.656, 146.2266
1544.686, 205.7422
1545.716, 330.7969
1546.745, 215.8633
1547.775, 270.8984
1548.804, 87.20312
1549.834, 166.7031
1550.863, 145.9805
1551.892, 298.2305
1552.920, 272.7617
1553.949, 492.4766
1554.977, 627.1992
1556.006, 290.0078
1557.034, 290.9766
1558.062, 252.9180
1559.089, 18.70312
1560.117, 195.3477
1561.144, 153.0703
1562.172, 323.5898
1563.199, 269.8555
1564.226, 382.1445
1565.252, 242.4102
1566.279, 29.57422
1567.305, 99.25781
1568.332, 266.1250
1569.358, 159.6914
1570.384, 252.7109
1571.409, 1.738281
1572.435, 0.0000000E+00
##END=



