##NAMES=Edenite
##RRUFFID=R050415
##IDEAL CHEMISTRY=NaCa_2_Mg_5_(Si_7_Al)O_22_(OH)_2_
##LOCALITY=Mogok, Burma
##OWNER=RRUFF
##SOURCE=Marcus Origlieri
##DESCRIPTION=Transparent pale green water worn fragment
##STATUS=The identification of this mineral has been confirmed by X-ray diffraction and chemical analysis
##URL=rruff.info/R050415
##MEASURED CHEMISTRY=(Na_0.83_K_0.17_)(Ca_1.76_Na_0.24_)_&#931;=2_(Mg_4.54_Al_0.40_Fe^3+^_0.06_)_&#931;=5_(Si_6.74_Al_1.26_)O_22_((OH)_0.52_F_0.48_)_2_
##PIN_ID=L01772
##ORIENTATION=Laser parallel to (-1 0 -1). Fiducial mark perpendicular to laser is parallel to b [0 1 0]
108.2800, 0.0000000E+00
109.5120, 1099.033
110.7440, 32.05762
111.9760, 134.7910
113.2080, 434.2197
114.4400, 860.0605
115.6710, 1459.702
116.9030, 1761.648
118.1340, 2110.096
119.3650, 2422.518
120.5960, 2568.533
121.8270, 2629.092
123.0580, 2531.072
124.2880, 1950.951
125.5190, 1463.413
126.7490, 878.1963
127.9790, 498.0723
129.2090, 337.8438
130.4390, 108.3281
131.6680, 2.373047
132.8980, 150.1631
134.1270, 103.3955
135.3560, 0.4238280
136.5850, 54.66797
137.8140, 278.8164
139.0430, 674.9580
140.2710, 1065.039
141.5000, 1480.006
142.7280, 1516.812
143.9560, 1424.409
145.1840, 963.7559
146.4120, 681.7891
147.6390, 436.4521
148.8670, 379.6953
150.0940, 287.4785
151.3210, 247.0947
152.5490, 278.5615
153.7750, 293.7812
155.0020, 464.4229
156.2290, 552.4688
157.4550, 783.9023
158.6810, 1119.710
159.9080, 1408.881
161.1340, 1813.422
162.3590, 2272.340
163.5850, 2825.642
164.8110, 3123.327
166.0360, 3269.391
167.2610, 3237.822
168.4860, 3136.610
169.7110, 2977.743
170.9360, 2757.205
172.1610, 2703.981
173.3850, 2439.058
174.6100, 2350.422
175.8340, 2549.062
177.0580, 2450.965
178.2820, 2501.121
179.5050, 2657.520
180.7290, 2940.150
181.9520, 2776.937
183.1760, 2964.695
184.3990, 3000.470
185.6220, 2929.285
186.8450, 2748.155
188.0670, 2610.091
189.2900, 2199.094
190.5120, 2007.172
191.7340, 1738.338
192.9560, 1546.806
194.1780, 1408.408
195.4000, 1292.741
196.6220, 1154.185
197.8430, 1115.743
199.0640, 1137.416
200.2860, 1276.209
201.5070, 1460.120
202.7270, 1501.150
203.9480, 1539.302
205.1690, 1671.573
206.3890, 1601.963
207.6090, 1793.472
208.8290, 2218.105
210.0490, 2434.926
211.2690, 2906.040
212.4890, 3500.484
213.7080, 3956.253
214.9280, 4558.338
216.1470, 5129.740
217.3660, 6019.513
218.5850, 6959.570
219.8030, 7921.973
221.0220, 9096.516
222.2400, 9998.163
223.4590, 11025.96
224.6770, 11928.91
225.8950, 12282.02
227.1120, 12702.26
228.3300, 12446.57
229.5480, 12116.94
230.7650, 11605.38
231.9820, 10778.87
233.1990, 10312.41
234.4160, 9938.988
235.6330, 9551.611
236.8490, 9429.279
238.0660, 8529.984
239.2820, 8332.730
240.4980, 7946.516
241.7140, 7247.338
242.9300, 6656.195
244.1460, 6246.089
245.3610, 5873.018
246.5770, 5271.980
247.7920, 5046.975
249.0070, 4451.998
250.2220, 4216.052
251.4370, 3704.136
252.6510, 3452.247
253.8660, 3009.385
255.0800, 2754.139
256.2940, 2532.830
257.5080, 2306.140
258.7220, 2011.837
259.9360, 1703.725
261.1490, 1469.481
262.3630, 1011.150
263.5760, 826.0518
264.7890, 489.5469
266.0020, 423.5156
267.2150, 204.8057
268.4270, 128.1641
269.6400, 232.7383
270.8520, 44.51367
272.0640, 78.47852
273.2760, 61.62305
274.4880, 10.93848
275.7000, 33.58594
276.9120, 131.0488
278.1230, 45.78809
279.3340, 104.7871
280.5450, 90.82422
281.7560, 159.9775
282.9670, 209.6816
284.1780, 246.7891
285.3880, 310.3730
286.5980, 333.0654
287.8090, 329.8691
289.0190, 602.7754
290.2290, 622.7803
291.4380, 588.8828
292.6480, 819.0850
293.8570, 906.3799
295.0670, 1072.767
296.2760, 1126.235
297.4850, 1223.785
298.6930, 1302.412
299.9020, 1343.114
301.1110, 1432.347
302.3190, 1386.729
303.5270, 1479.638
304.7350, 1418.615
305.9430, 1504.206
307.1510, 1435.757
308.3580, 1594.512
309.5660, 1749.352
310.7730, 1682.139
311.9800, 1874.426
313.1870, 2110.271
314.3940, 2505.005
315.6010, 2656.528
316.8070, 2767.922
318.0130, 2942.551
319.2200, 2970.586
320.4260, 2933.431
321.6310, 3169.410
322.8370, 2934.000
324.0430, 2896.925
325.2480, 2844.176
326.4540, 2868.138
327.6590, 2793.911
328.8640, 2781.373
330.0680, 2606.227
331.2730, 2522.230
332.4780, 2339.999
333.6820, 2299.180
334.8860, 2441.438
336.0900, 2068.370
337.2940, 2207.307
338.4980, 2228.659
339.7010, 2118.062
340.9050, 2267.866
342.1080, 2111.340
343.3110, 2236.085
344.5140, 2041.688
345.7170, 2046.121
346.9200, 2208.542
348.1220, 2047.863
349.3240, 2148.669
350.5270, 2548.908
351.7290, 2514.854
352.9310, 2632.123
354.1320, 2636.405
355.3340, 2832.699
356.5350, 2899.004
357.7370, 3095.318
358.9380, 3228.643
360.1390, 3141.973
361.3400, 3240.308
362.5400, 3381.645
363.7410, 3365.984
364.9410, 3557.324
366.1410, 3695.662
367.3410, 3643.001
368.5410, 3587.336
369.7410, 3641.668
370.9400, 3483.996
372.1400, 3299.319
373.3390, 3310.638
374.5380, 3173.189
375.7370, 3068.254
376.9360, 3086.553
378.1350, 2937.845
379.3330, 2993.129
380.5310, 2894.404
381.7300, 2868.673
382.9280, 2769.931
384.1260, 2635.182
385.3230, 2949.423
386.5210, 3069.655
387.7180, 2867.878
388.9160, 3056.091
390.1130, 2965.294
391.3100, 3080.485
392.5060, 3075.666
393.7030, 3023.836
394.9000, 2792.995
396.0960, 2863.142
397.2920, 2526.276
398.4880, 2415.400
399.6840, 2319.546
400.8800, 2143.711
402.0750, 1914.888
403.2710, 1659.079
404.4660, 1547.282
405.6610, 1359.483
406.8560, 1376.713
408.0510, 1145.938
409.2450, 1101.171
410.4400, 1122.406
411.6340, 984.6816
412.8280, 869.9238
414.0220, 970.3184
415.2160, 827.9180
416.4100, 798.6357
417.6030, 1020.457
418.7970, 936.1387
419.9900, 1136.535
421.1830, 941.4199
422.3760, 934.7207
423.5690, 872.8467
424.7610, 884.9873
425.9540, 799.7773
427.1460, 891.9990
428.3380, 712.4658
429.5300, 859.7637
430.7220, 717.9238
431.9140, 838.1992
433.1050, 620.9600
434.2970, 514.5371
435.4880, 414.5449
436.6790, 419.9336
437.8700, 345.5303
439.0610, 383.4844
440.2510, 300.9639
441.4420, 210.0645
442.6320, 220.7725
443.8220, 57.97852
445.0120, 61.95312
446.2020, 109.9492
447.3910, 49.16699
448.5810, 56.77734
449.7700, 74.77246
450.9600, 14.92480
452.1490, 2.626953
453.3370, 63.45215
454.5260, 84.88770
455.7150, 113.2158
456.9030, 129.1973
458.0910, 81.74121
459.2800, 93.43652
460.4670, 174.7402
461.6550, 83.61133
462.8430, 94.56055
464.0300, 142.6240
465.2180, 86.81250
466.4050, 170.1016
467.5920, 189.5352
468.7790, 8.122070
469.9650, 194.7686
471.1520, 140.5742
472.3380, 113.5078
473.5250, 37.44238
474.7110, 47.35547
475.8970, 94.23145
477.0820, 50.92383
478.2680, 3.354492
479.4540, 4.535156
480.6390, 16.17578
481.8240, 64.23438
483.0090, 21.73633
484.1940, 15.30469
485.3780, 14.08984
486.5630, 43.44141
487.7470, 50.85938
488.9320, 132.0332
490.1160, 163.2793
491.3000, 19.50586
492.4830, 250.6816
493.6670, 81.88477
494.8500, 204.0703
496.0340, 264.2246
497.2170, 495.3633
498.4000, 449.4688
499.5820, 681.5391
500.7650, 647.5762
501.9480, 646.5781
503.1300, 1196.572
504.3120, 1253.576
505.4940, 1519.543
506.6760, 1803.477
507.8580, 1847.373
509.0390, 2272.234
510.2210, 2622.059
511.4020, 2592.846
512.5830, 2806.596
513.7640, 2958.312
514.9450, 2933.988
516.1250, 2935.635
517.3060, 2842.240
518.4860, 2743.805
519.6660, 2706.305
520.8460, 2647.844
522.0260, 2531.312
523.2060, 2381.746
524.3850, 2186.186
525.5650, 1969.600
526.7440, 1951.012
527.9230, 1881.385
529.1020, 1723.719
530.2810, 1690.057
531.4590, 1702.352
532.6380, 1954.619
533.8160, 1586.855
534.9940, 1449.059
536.1720, 1368.254
537.3500, 930.4102
538.5270, 1151.523
539.7050, 955.5938
540.8820, 1003.621
542.0590, 986.6387
543.2360, 894.6152
544.4130, 653.5684
545.5900, 664.5039
546.7660, 553.3965
547.9430, 598.2480
549.1190, 581.0605
550.2950, 350.8281
551.4710, 435.5508
552.6470, 346.2305
553.8220, 413.8594
554.9980, 324.4453
556.1730, 277.9824
557.3480, 252.4707
558.5230, 229.9082
559.6980, 265.2930
560.8730, 88.62695
562.0470, 219.8906
563.2220, 361.1074
564.3960, 116.2754
565.5700, 76.37500
566.7440, 5.595703
567.9170, 114.3418
569.0910, 157.2090
570.2640, 171.0312
571.4380, 118.7949
572.6110, 173.4922
573.7840, 140.5605
574.9570, 151.7461
576.1290, 84.27734
577.3020, 109.1855
578.4740, 107.7910
579.6460, 185.4492
580.8180, 157.7422
581.9900, 187.9668
583.1620, 257.1328
584.3330, 374.2383
585.5040, 200.2891
586.6760, 423.2793
587.8470, 175.2090
589.0180, 265.0742
590.1880, 408.8770
591.3590, 312.6250
592.5290, 414.7207
593.7000, 276.7266
594.8700, 231.7832
596.0400, 606.3340
597.2090, 304.9512
598.3790, 490.4102
599.5490, 594.6973
600.7180, 306.5059
601.8870, 419.8281
603.0560, 375.2539
604.2250, 600.3242
605.3940, 676.6270
606.5620, 712.7539
607.7300, 646.5938
608.8990, 641.0137
610.0670, 904.4629
611.2350, 641.5605
612.4020, 914.4766
613.5700, 939.8398
614.7370, 887.6895
615.9050, 1035.562
617.0720, 1098.754
618.2390, 1110.787
619.4060, 1270.977
620.5720, 1441.266
621.7390, 1458.580
622.9050, 1731.119
624.0710, 1903.311
625.2370, 1944.318
626.4030, 2027.186
627.5690, 2196.840
628.7340, 2246.145
629.9000, 2450.961
631.0650, 2609.686
632.2300, 2933.811
633.3950, 3131.375
634.5600, 3490.172
635.7240, 3676.031
636.8890, 3840.916
638.0530, 4180.584
639.2170, 4412.752
640.3810, 4773.426
641.5450, 5146.238
642.7080, 5341.145
643.8720, 5899.957
645.0350, 6313.035
646.1980, 6539.688
647.3610, 7104.922
648.5240, 7314.918
649.6870, 7863.990
650.8490, 8508.918
652.0120, 9133.822
653.1740, 9540.814
654.3360, 10595.05
655.4980, 10930.47
656.6600, 11631.08
657.8210, 12620.43
658.9830, 13229.19
660.1440, 14530.76
661.3050, 15784.48
662.4660, 17072.21
663.6270, 18413.63
664.7870, 20346.47
665.9480, 22366.28
667.1080, 24149.63
668.2680, 26188.01
669.4280, 28192.16
670.5880, 29840.90
671.7480, 31431.72
672.9070, 32360.39
674.0670, 32423.23
675.2260, 33008.27
676.3850, 31794.36
677.5440, 30311.89
678.7030, 28143.28
679.8610, 26247.67
681.0200, 23555.40
682.1780, 21436.17
683.3360, 18981.61
684.4940, 16713.19
685.6520, 14704.77
686.8090, 13079.62
687.9670, 11591.66
689.1240, 9812.908
690.2810, 9024.773
691.4380, 7639.664
692.5950, 7084.713
693.7520, 6183.484
694.9080, 5557.215
696.0650, 4889.637
697.2210, 4231.805
698.3770, 3911.908
699.5330, 3334.006
700.6880, 3129.076
701.8440, 2735.363
702.9990, 2654.664
704.1550, 2238.025
705.3100, 2222.557
706.4650, 1913.945
707.6190, 1741.695
708.7740, 1658.748
709.9290, 1403.568
711.0830, 1498.418
712.2370, 1306.170
713.3910, 1079.574
714.5450, 1249.641
715.6980, 1085.152
716.8520, 1079.559
718.0050, 885.6309
719.1580, 956.0293
720.3110, 1126.012
721.4640, 1059.230
722.6170, 744.4414
723.7700, 983.1621
724.9220, 722.7812
726.0740, 893.0098
727.2260, 843.2871
728.3780, 758.1328
729.5300, 690.3652
730.6810, 838.3945
731.8330, 483.4043
732.9840, 751.1250
734.1350, 627.8418
735.2860, 608.6973
736.4370, 598.4688
737.5880, 511.4336
738.7380, 303.4629
739.8880, 358.6426
741.0390, 232.8516
742.1890, 358.3457
743.3380, 265.8945
744.4880, 477.3711
745.6380, 377.8223
746.7870, 433.2695
747.9360, 211.7227
749.0850, 334.1270
750.2340, 206.5371
751.3830, 238.9297
752.5310, 82.30664
753.6800, 124.6191
754.8280, 181.8691
755.9760, 195.0527
757.1240, 228.2031
758.2720, 196.3418
759.4190, 83.35547
760.5670, 47.34766
761.7140, 9.753906
762.8610, 78.79883
764.0080, 18.00977
765.1550, 2.693359
766.3020, 47.32031
767.4480, 20.98438
768.5950, 12.62305
769.7410, 27.77539
770.8870, 201.8848
772.0330, 42.73438
773.1780, 109.3125
774.3240, 35.70508
775.4690, 128.1738
776.6140, 233.9941
777.7590, 99.75195
778.9040, 128.4453
780.0490, 63.92383
781.1940, 138.4082
782.3380, 185.9551
783.4820, 44.25977
784.6260, 120.5000
785.7700, 162.6758
786.9140, 130.7930
788.0580, 149.8379
789.2010, 141.8418
790.3450, 105.7773
791.4880, 38.65039
792.6310, 15.46289
793.7730, 154.2070
794.9160, 200.8906
796.0590, 88.51758
797.2010, 43.91406
798.3430, 70.55664
799.4850, 49.96875
800.6270, 141.6797
801.7690, 38.47656
802.9100, 119.3633
804.0520, 81.61914
805.1930, 60.54297
806.3340, 145.5938
807.4750, 181.1270
808.6160, 32.20898
809.7560, 15.62695
810.8970, 4.119141
812.0370, 120.6797
813.1770, 20.63281
814.3170, 134.8867
815.4570, 154.0859
816.5960, 138.3398
817.7360, 108.6758
818.8750, 13.29492
820.0140, 75.78711
821.1530, 79.96875
822.2920, 9.746094
823.4310, 5.595703
824.5690, 11.99805
825.7070, 40.53320
826.8460, 116.0117
827.9840, 92.16016
829.1220, 29.81250
830.2590, 88.13281
831.3970, 45.40234
832.5340, 54.61719
833.6710, 69.59570
834.8080, 43.26172
835.9450, 60.96680
837.0820, 48.98242
838.2190, 9.039063
839.3550, 50.88477
840.4910, 65.75781
841.6270, 6.587891
842.7630, 73.62109
843.8990, 137.1152
845.0350, 67.18555
846.1700, 64.43750
847.3060, 71.01562
848.4410, 97.44336
849.5760, 2.009766
850.7100, 100.4160
851.8450, 20.21680
852.9800, 263.1094
854.1140, 67.59570
855.2480, 118.3652
856.3820, 42.76758
857.5160, 55.85938
858.6500, 130.9121
859.7830, 107.9238
860.9170, 167.0312
862.0500, 233.8242
863.1830, 147.7168
864.3160, 135.5742
865.4480, 169.0137
866.5810, 103.3984
867.7130, 193.9219
868.8460, 110.6309
869.9780, 60.30469
871.1100, 209.9434
872.2410, 116.5781
873.3730, 172.1777
874.5050, 148.7500
875.6360, 272.8867
876.7670, 95.23242
877.8980, 356.0176
879.0290, 236.2988
880.1590, 439.1895
881.2900, 283.6152
882.4200, 408.9355
883.5500, 528.2988
884.6800, 512.8672
885.8100, 822.9199
886.9400, 871.4453
888.0690, 930.0820
889.1990, 955.0273
890.3280, 1064.133
891.4570, 1053.711
892.5860, 1036.797
893.7140, 1127.258
894.8430, 1328.561
895.9710, 1516.367
897.1000, 1602.867
898.2280, 1410.264
899.3560, 1576.119
900.4830, 1609.811
901.6110, 1616.797
902.7380, 1773.566
903.8660, 1901.180
904.9930, 2004.234
906.1200, 2281.373
907.2460, 2399.576
908.3730, 2403.775
909.5000, 2684.547
910.6260, 2686.246
911.7520, 2905.082
912.8780, 2990.342
914.0040, 3061.021
915.1290, 3087.850
916.2550, 3150.887
917.3800, 3210.977
918.5050, 3323.324
919.6300, 3331.758
920.7550, 3356.533
921.8800, 3342.184
923.0040, 3284.258
924.1290, 3367.105
925.2530, 3410.904
926.3770, 3460.584
927.5010, 3166.938
928.6250, 3182.035
929.7480, 3070.865
930.8720, 3070.918
931.9950, 2910.551
933.1180, 2968.301
934.2410, 2951.836
935.3640, 2966.271
936.4860, 2874.955
937.6090, 2465.143
938.7310, 2653.279
939.8530, 2427.844
940.9750, 2309.307
942.0970, 2404.924
943.2180, 2372.879
944.3400, 2505.719
945.4610, 2418.635
946.5820, 2217.309
947.7030, 2443.701
948.8240, 2203.980
949.9450, 2209.736
951.0650, 2288.566
952.1860, 2171.322
953.3060, 2235.664
954.4260, 2127.879
955.5460, 1971.363
956.6650, 2203.625
957.7850, 1975.809
958.9040, 1920.656
960.0230, 2021.234
961.1420, 2044.535
962.2610, 1863.143
963.3800, 1839.648
964.4990, 1914.887
965.6170, 1856.828
966.7350, 1843.318
967.8530, 1928.008
968.9710, 1774.408
970.0890, 1832.695
971.2070, 1835.049
972.3240, 1659.346
973.4410, 1930.150
974.5580, 2081.441
975.6750, 1718.791
976.7920, 2188.887
977.9090, 1979.396
979.0250, 1917.025
980.1410, 1929.021
981.2580, 1996.334
982.3740, 2258.664
983.4890, 2038.889
984.6050, 2413.889
985.7200, 2307.318
986.8360, 2447.779
987.9510, 2406.875
989.0660, 2507.186
990.1810, 2521.359
991.2950, 2982.516
992.4100, 2931.723
993.5240, 2762.234
994.6390, 3393.648
995.7530, 3213.348
996.8660, 3314.270
997.9800, 3563.012
999.0940, 4043.809
1000.207, 4185.873
1001.320, 4315.629
1002.433, 4640.059
1003.546, 4893.641
1004.659, 5091.346
1005.772, 5099.229
1006.884, 5245.965
1007.996, 5525.418
1009.108, 5507.242
1010.220, 5669.918
1011.332, 5597.352
1012.444, 5591.082
1013.555, 5774.742
1014.666, 5856.262
1015.777, 5611.502
1016.888, 5997.463
1017.999, 5719.160
1019.110, 5820.922
1020.220, 5940.484
1021.331, 6126.703
1022.441, 6179.131
1023.551, 6005.717
1024.661, 6048.846
1025.770, 5914.396
1026.880, 5982.902
1027.989, 6194.418
1029.098, 6331.010
1030.207, 6420.504
1031.316, 6168.957
1032.425, 6150.178
1033.533, 6355.746
1034.642, 6583.957
1035.750, 6639.838
1036.858, 6565.143
1037.966, 6909.742
1039.073, 6907.863
1040.181, 6656.744
1041.288, 6999.344
1042.396, 7042.439
1043.503, 6953.910
1044.610, 6850.039
1045.716, 6792.959
1046.823, 7116.270
1047.929, 6678.117
1049.036, 6779.697
1050.142, 6878.289
1051.248, 6626.727
1052.353, 6788.443
1053.459, 6763.359
1054.564, 6768.561
1055.670, 6904.492
1056.775, 6801.430
1057.880, 6906.109
1058.985, 7123.070
1060.089, 7076.092
1061.194, 7120.988
1062.298, 7304.102
1063.402, 7473.285
1064.506, 7606.672
1065.610, 7256.414
1066.713, 7197.568
1067.817, 6875.035
1068.920, 6876.799
1070.023, 6491.773
1071.126, 6383.684
1072.229, 6212.977
1073.332, 5525.613
1074.435, 5341.070
1075.537, 4873.414
1076.639, 4640.346
1077.741, 4117.328
1078.843, 3923.053
1079.945, 3621.822
1081.046, 3130.963
1082.148, 3251.148
1083.249, 2788.299
1084.350, 2490.984
1085.451, 2351.861
1086.551, 2127.295
1087.652, 1743.717
1088.752, 1779.695
1089.853, 1604.146
1090.953, 1471.922
1092.053, 1512.559
1093.152, 1337.781
1094.252, 1077.748
1095.351, 1067.943
1096.451, 1045.855
1097.550, 1197.387
1098.649, 861.6895
1099.748, 782.1504
1100.846, 879.4277
1101.945, 759.9785
1103.043, 744.4141
1104.141, 689.6113
1105.239, 540.8242
1106.337, 613.7598
1107.434, 423.1172
1108.532, 563.2578
1109.629, 507.6367
1110.726, 370.6855
1111.823, 417.8281
1112.920, 454.8848
1114.017, 525.7402
1115.113, 472.1387
1116.210, 422.7910
1117.306, 452.7090
1118.402, 444.5566
1119.498, 421.9766
1120.593, 522.2266
1121.689, 445.6562
1122.784, 521.1836
1123.879, 445.7773
1124.974, 505.8906
1126.069, 413.3242
1127.164, 378.6680
1128.259, 408.9258
1129.353, 351.3438
1130.447, 328.2812
1131.541, 297.6641
1132.635, 306.2852
1133.729, 237.0000
1134.822, 356.4297
1135.916, 37.76953
1137.009, 105.5156
1138.102, 87.10156
1139.195, 3.570313
1140.288, 98.64062
1141.380, 4.703125
1142.473, 139.6836
1143.565, 227.3672
1144.657, 93.77344
1145.749, 57.88281
1146.841, 100.2109
1147.932, 165.1836
1149.024, 225.5938
1150.115, 208.5898
1151.206, 134.6250
1152.297, 96.69922
1153.388, 45.82031
1154.479, 6.929688
1155.569, 113.4844
1156.659, 11.91406
1157.750, 20.75781
1158.839, 16.32422
1159.929, 5.226563
1161.019, 78.98047
1162.108, 29.80469
1163.198, 81.73438
1164.287, 77.37500
1165.376, 93.14062
1166.465, 16.91016
1167.553, 70.69141
1168.642, 13.10938
1169.730, 82.31641
1170.818, 167.5547
1171.906, 21.78125
1172.994, 46.70312
1174.082, 67.96094
1175.170, 123.8984
1176.257, 170.5195
1177.344, 72.71094
1178.431, 151.2773
1179.518, 34.98438
1180.605, 25.61328
1181.691, 62.55859
1182.778, 66.62109
1183.864, 158.5664
1184.950, 86.92578
1186.036, 385.6094
1187.122, 140.5078
1188.207, 191.5508
1189.292, 131.7930
1190.378, 342.6641
1191.463, 127.7344
1192.548, 311.5469
1193.632, 118.6914
1194.717, 217.3594
1195.801, 140.5469
1196.886, 58.75391
1197.970, 26.69531
1199.054, 119.2695
1200.137, 77.82812
1201.221, 84.68750
1202.305, 101.9727
1203.388, 143.4336
1204.471, 178.5859
1205.554, 9.816406
1206.637, 79.69141
1207.719, 68.32422
1208.802, 98.41016
1209.884, 88.20312
1210.966, 230.7148
1212.048, 13.28906
1213.130, 211.3320
1214.212, 88.28906
1215.293, 256.7773
1216.374, 361.3828
1217.456, 116.4023
1218.536, 218.5195
1219.617, 113.0430
1220.698, 274.5664
1221.778, 90.10938
1222.859, 152.3125
1223.939, 203.1641
1225.019, 137.6211
1226.099, 195.2305
1227.178, 81.70312
1228.258, 104.9492
1229.337, 32.28516
1230.417, 98.23047
1231.496, 230.0156
1232.574, 247.2109
1233.653, 292.6602
1234.732, 278.0469
1235.810, 334.4961
1236.888, 222.0664
1237.966, 262.1758
1239.044, 194.2031
1240.122, 504.2812
1241.199, 231.1445
1242.277, 242.8711
1243.354, 518.5234
1244.431, 375.7695
1245.508, 307.7031
1246.585, 518.3203
1247.661, 398.0625
1248.738, 353.2461
1249.814, 351.9492
1250.890, 299.1797
1251.966, 268.0430
1253.042, 239.1445
1254.117, 339.0898
1255.193, 248.9453
1256.268, 493.1016
1257.343, 260.9219
1258.418, 429.7148
1259.493, 159.5430
1260.567, 357.0078
1261.642, 593.5859
1262.716, 318.6602
1263.790, 610.8477
1264.864, 377.6055
1265.938, 509.8750
1267.011, 499.0664
1268.085, 307.9883
1269.158, 555.4766
1270.231, 333.1445
1271.304, 330.8320
1272.377, 383.2422
1273.450, 321.7500
1274.522, 517.4766
1275.594, 438.1836
1276.666, 447.0078
1277.738, 563.6562
1278.810, 410.5820
1279.882, 426.2773
1280.953, 258.9062
1282.025, 288.1797
1283.096, 269.5078
1284.167, 631.5352
1285.238, 403.8281
1286.308, 285.1289
1287.379, 568.1094
1288.449, 263.8125
1289.519, 429.9023
1290.589, 575.5508
1291.659, 221.8789
1292.729, 354.2812
1293.798, 166.6250
1294.868, 275.8594
1295.937, 186.6328
1297.006, 487.5352
1298.075, 547.2266
1299.143, 432.4531
1300.212, 131.8203
1301.280, 234.9141
1302.348, 159.5898
1303.416, 313.8164
1304.484, 358.2578
1305.552, 434.5859
1306.620, 452.5547
1307.687, 332.0938
1308.754, 467.9844
1309.821, 395.2773
1310.888, 326.0430
1311.955, 464.0078
1313.021, 395.2148
1314.088, 291.2617
1315.154, 464.7383
1316.220, 403.1211
1317.286, 468.1875
1318.352, 459.5078
1319.417, 525.3828
1320.483, 319.2656
1321.548, 544.8594
1322.613, 352.6328
1323.678, 662.0469
1324.743, 518.4883
1325.807, 313.3750
1326.872, 369.2070
1327.936, 344.9805
1329.000, 481.6328
1330.064, 576.9258
1331.128, 505.9102
1332.191, 300.1094
1333.255, 489.3984
1334.318, 392.2617
1335.381, 214.1055
1336.444, 406.5508
1337.507, 444.9336
1338.569, 242.7695
1339.632, 438.9102
1340.694, 290.1289
1341.756, 281.7109
1342.818, 606.6484
1343.880, 303.7109
1344.941, 414.9023
1346.003, 359.6211
1347.064, 46.93359
1348.125, 33.16406
1349.186, 192.4258
1350.247, 240.8086
1351.308, 294.3086
1352.368, 595.3438
1353.428, 288.2266
1354.489, 289.1367
1355.549, 117.4648
1356.608, 484.6133
1357.668, 310.5547
1358.727, 314.8789
1359.787, 185.3242
1360.846, 332.3516
1361.905, 314.7031
1362.964, 269.8711
1364.022, 209.9922
1365.081, 286.6016
1366.139, 273.4297
1367.197, 227.6484
1368.255, 248.1055
1369.313, 248.7305
1370.371, 231.2734
1371.428, 297.8516
1372.486, 339.1055
1373.543, 382.4297
1374.600, 320.0430
1375.657, 420.0586
1376.713, 262.8281
1377.770, 203.2617
1378.826, 295.0781
1379.882, 541.9766
1380.938, 305.1719
1381.994, 290.6523
1383.050, 424.5664
1384.106, 219.2969
1385.161, 200.9922
1386.216, 38.24609
1387.271, 148.8047
1388.326, 282.4688
1389.381, 6.449219
1390.435, 240.6445
1391.490, 59.93750
1392.544, 59.15625
1393.598, 277.1719
1394.652, 245.6367
1395.705, 195.3125
1396.759, 242.8008
1397.812, 343.1562
1398.866, 267.2227
1399.919, 292.6328
1400.972, 200.7930
1402.024, 215.8477
1403.077, 213.8047
1404.129, 19.75391
1405.181, 237.9883
1406.233, 239.4180
1407.285, 260.7422
1408.337, 43.28516
1409.389, 49.80469
1410.440, 75.91016
1411.491, 17.68750
1412.542, 39.17969
1413.593, 54.10156
1414.644, 208.9219
1415.695, 103.4062
1416.745, 147.4570
1417.795, 55.01953
1418.845, 186.9766
1419.895, 323.3438
1420.945, 157.8867
1421.995, 4.308594
1423.044, 139.9727
1424.093, 227.3867
1425.142, 257.0547
1426.191, 241.9375
1427.240, 2.761719
1428.289, 288.0273
1429.337, 84.05078
1430.385, 73.00391
1431.433, 287.9609
1432.481, 237.4375
1433.529, 14.30469
1434.577, 2.730469
1435.624, 59.68750
1436.672, 124.9062
1437.719, 424.1328
1438.766, 275.8867
1439.812, 55.82031
1440.859, 50.37891
1441.905, 336.9961
1442.952, 187.3945
1443.998, 264.3086
1445.044, 307.0586
1446.090, 290.2422
1447.135, 265.9375
1448.181, 163.2969
1449.226, 389.4922
1450.271, 669.6328
1451.316, 84.70703
1452.361, 404.2344
1453.405, 311.7930
1454.450, 262.9922
1455.494, 330.3281
1456.538, 282.5820
1457.582, 130.0664
1458.626, 332.8477
1459.670, 436.9727
1460.713, 537.3594
1461.757, 284.7734
1462.800, 323.8750
1463.843, 165.9453
1464.886, 212.3828
1465.928, 380.6016
1466.971, 82.99219
1468.013, 578.6875
1469.055, 368.5234
1470.097, 169.7344
1471.139, 752.7969
1472.181, 192.3359
1473.222, 391.5195
1474.263, 316.2109
1475.305, 133.8477
1476.346, 96.88672
1477.386, 382.7695
1478.427, 220.2305
1479.468, 641.8164
1480.508, 423.1172
1481.548, 545.1602
1482.588, 201.0547
1483.628, 342.7109
1484.668, 444.7812
1485.707, 99.20703
1486.747, 224.5195
1487.786, 66.01562
1488.825, 254.9766
1489.864, 589.3945
1490.902, 181.4883
1491.941, 416.2617
1492.979, 373.7852
1494.017, 304.0195
1495.055, 379.8008
1496.093, 288.2891
1497.131, 335.4258
1498.168, 337.6523
1499.206, 450.1914
1500.243, 346.4688
1501.280, 320.4492
1502.317, 341.6445
1503.354, 485.5664
1504.390, 298.4922
1505.426, 489.4219
1506.463, 730.9219
1507.499, 570.4570
1508.535, 145.7891
1509.570, 365.7500
1510.606, 523.4688
1511.641, 222.0312
1512.676, 413.1016
1513.711, 251.4062
1514.746, 125.2734
1515.781, 428.9727
1516.816, 346.6484
1517.850, 252.3320
1518.884, 410.1250
1519.918, 313.5156
1520.952, 332.6953
1521.986, 344.7773
1523.019, 390.8672
1524.053, 296.2148
1525.086, 367.3516
1526.119, 239.5938
1527.152, 349.7422
1528.185, 417.1172
1529.217, 413.4141
1530.250, 470.1055
1531.282, 411.0391
1532.314, 505.2656
1533.346, 344.2891
1534.377, 350.9883
1535.409, 328.4883
1536.440, 459.2812
1537.472, 453.2734
1538.503, 614.8008
1539.534, 704.9688
1540.564, 629.4062
1541.595, 543.4805
1542.625, 450.2148
1543.656, 361.0430
1544.686, 227.1719
1545.716, 305.9609
1546.745, 616.7188
1547.775, 191.5898
1548.804, 599.6641
1549.834, 323.7266
1550.863, 323.0078
1551.892, 598.3359
1552.920, 60.18750
1553.949, 587.1914
1554.977, 530.4648
1556.006, 153.9141
1557.034, 42.57031
1558.062, 330.2422
1559.089, 589.8906
1560.117, 619.8281
1561.144, 291.4062
1562.172, 249.3906
1563.199, 98.10938
1564.226, 304.3789
1565.252, 164.4453
1566.279, 72.57812
1567.305, 306.4805
1568.332, 378.3359
1569.358, 136.0430
1570.384, 276.1719
1571.409, 1.347656
1572.435, 0.0000000E+00
##END=



