##NAMES=Edenite
##RRUFFID=R050415
##IDEAL CHEMISTRY=NaCa_2_Mg_5_(Si_7_Al)O_22_(OH)_2_
##LOCALITY=Mogok, Burma
##OWNER=RRUFF
##SOURCE=Marcus Origlieri
##DESCRIPTION=Transparent pale green water worn fragment
##STATUS=The identification of this mineral has been confirmed by X-ray diffraction and chemical analysis
##URL=rruff.info/R050415
##MEASURED CHEMISTRY=(Na_0.83_K_0.17_)(Ca_1.76_Na_0.24_)_&#931;=2_(Mg_4.54_Al_0.40_Fe^3+^_0.06_)_&#931;=5_(Si_6.74_Al_1.26_)O_22_((OH)_0.52_F_0.48_)_2_
##PIN_ID=L01355
##ORIENTATION=Laser parallel to -a* (-1 0 0). Fiducial mark perpendicular to laser is parallel to -b [0 -1 0]
93.48000, 0.0000000E+00
94.71400, 13.00000
95.94800, 231.4102
97.18200, 724.3535
98.41600, 1161.260
99.64900, 1533.115
100.8830, 2495.279
102.1160, 2899.875
103.3490, 3414.262
104.5820, 4454.338
105.8150, 5024.168
107.0470, 6243.195
108.2800, 6921.014
109.5120, 7613.398
110.7440, 8335.303
111.9760, 8854.027
113.2080, 9284.988
114.4400, 9860.449
115.6710, 9939.582
116.9030, 9952.500
118.1340, 9905.605
119.3650, 9347.047
120.5960, 8908.109
121.8270, 7916.924
123.0580, 7048.898
124.2880, 6252.850
125.5190, 4966.066
126.7490, 4001.461
127.9790, 3524.480
129.2090, 2632.035
130.4390, 2143.037
131.6680, 1765.371
132.8980, 1317.936
134.1270, 1060.646
135.3560, 775.4336
136.5850, 643.2402
137.8140, 490.0117
139.0430, 372.6934
140.2710, 380.2422
141.5000, 62.61523
142.7280, 40.77539
143.9560, 48.31836
145.1840, 233.7168
146.4120, 164.4570
147.6390, 228.5547
148.8670, 355.0195
150.0940, 57.86328
151.3210, 40.09375
152.5490, 196.7188
153.7750, 129.7520
155.0020, 103.2129
156.2290, 50.89258
157.4550, 35.45508
158.6810, 77.72266
159.9080, 223.4121
161.1340, 132.6055
162.3590, 357.2988
163.5850, 612.4824
164.8110, 560.1387
166.0360, 578.2559
167.2610, 652.6738
168.4860, 644.0195
169.7110, 709.2070
170.9360, 715.2500
172.1610, 834.1348
173.3850, 892.2441
174.6100, 999.5938
175.8340, 1143.652
177.0580, 1386.033
178.2820, 1451.123
179.5050, 1560.465
180.7290, 1714.045
181.9520, 1736.844
183.1760, 1820.855
184.3990, 1845.547
185.6220, 1873.512
186.8450, 1809.168
188.0670, 1722.039
189.2900, 1601.129
190.5120, 1358.439
191.7340, 1213.961
192.9560, 1012.691
194.1780, 658.2461
195.4000, 659.8516
196.6220, 364.5898
197.8430, 283.4180
199.0640, 207.4355
200.2860, 319.8301
201.5070, 525.5879
202.7270, 453.7559
203.9480, 501.2715
205.1690, 424.9961
206.3890, 353.0156
207.6090, 464.4258
208.8290, 466.1973
210.0490, 647.2754
211.2690, 839.6621
212.4890, 1047.232
213.7080, 1217.967
214.9280, 1368.979
216.1470, 1670.275
217.3660, 1862.865
218.5850, 2011.605
219.8030, 2177.490
221.0220, 2387.535
222.2400, 2557.715
223.4590, 2870.039
224.6770, 3229.498
225.8950, 3577.131
227.1120, 4088.141
228.3300, 4250.504
229.5480, 4381.199
230.7650, 4825.084
231.9820, 4964.109
233.1990, 5233.246
234.4160, 5777.504
235.6330, 5945.910
236.8490, 6014.426
238.0660, 6409.033
239.2820, 6460.744
240.4980, 6142.695
241.7140, 6196.312
242.9300, 6108.000
244.1460, 5804.051
245.3610, 5597.139
246.5770, 5094.059
247.7920, 5070.654
249.0070, 4625.801
250.2220, 4352.422
251.4370, 3739.459
252.6510, 3814.875
253.8660, 3186.590
255.0800, 3041.525
256.2940, 2517.656
257.5080, 2533.982
258.7220, 2234.506
259.9360, 1766.225
261.1490, 1494.137
262.3630, 1137.238
263.5760, 935.5234
264.7890, 724.9824
266.0020, 592.3047
267.2150, 423.4238
268.4270, 373.8633
269.6400, 284.7734
270.8520, 347.2090
272.0640, 246.3125
273.2760, 282.6270
274.4880, 388.1328
275.7000, 110.8281
276.9120, 321.7051
278.1230, 54.76367
279.3340, 175.9902
280.5450, 58.38477
281.7560, 344.9375
282.9670, 268.6426
284.1780, 214.4961
285.3880, 358.4902
286.5980, 563.6250
287.8090, 454.9141
289.0190, 642.2773
290.2290, 829.2500
291.4380, 795.1582
292.6480, 886.2051
293.8570, 1017.807
295.0670, 1206.320
296.2760, 1182.959
297.4850, 1125.369
298.6930, 1056.182
299.9020, 1072.746
301.1110, 1046.391
302.3190, 963.2070
303.5270, 1091.609
304.7350, 1050.600
305.9430, 1132.459
307.1510, 1130.053
308.3580, 1048.439
309.5660, 1116.908
310.7730, 1090.627
311.9800, 1072.100
313.1870, 1121.074
314.3940, 1346.648
315.6010, 1342.303
316.8070, 1531.301
318.0130, 1323.957
319.2200, 1410.959
320.4260, 1468.367
321.6310, 1508.811
322.8370, 1513.279
324.0430, 1646.619
325.2480, 1230.416
326.4540, 1133.395
327.6590, 1199.527
328.8640, 839.9297
330.0680, 779.8203
331.2730, 847.4336
332.4780, 753.0039
333.6820, 717.2363
334.8860, 615.3672
336.0900, 564.0000
337.2940, 509.3457
338.4980, 361.5273
339.7010, 514.8574
340.9050, 436.7832
342.1080, 289.7598
343.3110, 298.7793
344.5140, 569.8477
345.7170, 169.5879
346.9200, 456.8145
348.1220, 299.0117
349.3240, 411.3242
350.5270, 712.9297
351.7290, 453.2402
352.9310, 569.5859
354.1320, 710.1992
355.3340, 604.3906
356.5350, 669.4570
357.7370, 922.0137
358.9380, 761.3984
360.1390, 1000.189
361.3400, 1214.865
362.5400, 1585.352
363.7410, 1465.289
364.9410, 1405.305
366.1410, 1724.580
367.3410, 1701.402
368.5410, 1833.492
369.7410, 1823.754
370.9400, 2249.436
372.1400, 2220.688
373.3390, 2132.070
374.5380, 2540.879
375.7370, 2581.395
376.9360, 2732.119
378.1350, 2799.852
379.3330, 3028.980
380.5310, 3257.332
381.7300, 3528.574
382.9280, 3793.199
384.1260, 4239.750
385.3230, 4392.574
386.5210, 4744.881
387.7180, 5122.812
388.9160, 5388.787
390.1130, 5660.799
391.3100, 5819.840
392.5060, 5727.914
393.7030, 5497.010
394.9000, 5158.609
396.0960, 4982.758
397.2920, 4665.842
398.4880, 4309.113
399.6840, 4223.969
400.8800, 3611.186
402.0750, 3522.559
403.2710, 3085.801
404.4660, 2731.633
405.6610, 2626.900
406.8560, 2254.176
408.0510, 2318.459
409.2450, 2255.750
410.4400, 1980.238
411.6340, 2128.066
412.8280, 2076.451
414.0220, 1939.777
415.2160, 2004.334
416.4100, 1987.379
417.6030, 2012.025
418.7970, 2101.561
419.9900, 2134.359
421.1830, 2256.426
422.3760, 2056.498
423.5690, 2153.584
424.7610, 1923.002
425.9540, 1865.361
427.1460, 1788.158
428.3380, 1637.512
429.5300, 1494.170
430.7220, 1354.211
431.9140, 1152.730
433.1050, 985.8281
434.2970, 871.0625
435.4880, 603.6621
436.6790, 616.0488
437.8700, 515.6719
439.0610, 328.1406
440.2510, 236.6055
441.4420, 171.6035
442.6320, 234.7441
443.8220, 65.24805
445.0120, 130.8828
446.2020, 69.42188
447.3910, 100.1152
448.5810, 179.7402
449.7700, 119.6621
450.9600, 190.9902
452.1490, 57.83789
453.3370, 310.3027
454.5260, 23.80078
455.7150, 13.78516
456.9030, 96.68359
458.0910, 125.2695
459.2800, 51.00781
460.4670, 59.33594
461.6550, 147.1602
462.8430, 66.55273
464.0300, 13.17383
465.2180, 256.8574
466.4050, 40.79102
467.5920, 29.02344
468.7790, 128.6055
469.9650, 26.44141
471.1520, 275.3105
472.3380, 87.14648
473.5250, 112.9434
474.7110, 327.7109
475.8970, 28.44727
477.0820, 215.8633
478.2680, 73.64844
479.4540, 30.88086
480.6390, 105.4844
481.8240, 104.7930
483.0090, 151.0273
484.1940, 401.2422
485.3780, 156.4219
486.5630, 301.6406
487.7470, 63.84180
488.9320, 149.9922
490.1160, 323.1074
491.3000, 155.1934
492.4830, 134.2852
493.6670, 181.3555
494.8500, 265.4629
496.0340, 149.5586
497.2170, 78.61328
498.4000, 29.60742
499.5820, 171.4707
500.7650, 182.7090
501.9480, 12.13477
503.1300, 215.6621
504.3120, 115.3945
505.4940, 78.71680
506.6760, 6.765625
507.8580, 73.73047
509.0390, 91.65234
510.2210, 167.5078
511.4020, 163.0645
512.5830, 238.0703
513.7640, 170.7812
514.9450, 86.44336
516.1250, 109.1055
517.3060, 56.59766
518.4860, 237.0957
519.6660, 320.5781
520.8460, 396.0605
522.0260, 305.5410
523.2060, 200.9766
524.3850, 143.3652
525.5650, 331.6855
526.7440, 249.9609
527.9230, 218.1895
529.1020, 402.3633
530.2810, 368.4863
531.4590, 386.5664
532.6380, 375.5938
533.8160, 402.5684
534.9940, 574.4961
536.1720, 238.4023
537.3500, 464.2480
538.5270, 163.0410
539.7050, 288.7617
540.8820, 237.4355
542.0590, 469.0469
543.2360, 290.6074
544.4130, 570.1133
545.5900, 193.5586
546.7660, 404.9375
547.9430, 469.2559
549.1190, 442.5195
550.2950, 405.7246
551.4710, 313.8691
552.6470, 279.9551
553.8220, 352.9883
554.9980, 376.9551
556.1730, 324.8652
557.3480, 167.7090
558.5230, 303.4844
559.6980, 246.1973
560.8730, 309.8398
562.0470, 168.4180
563.2220, 289.9121
564.3960, 291.3359
565.5700, 204.6875
566.7440, 420.9609
567.9170, 329.1660
569.0910, 514.3047
570.2640, 316.3770
571.4380, 97.37891
572.6110, 307.2754
573.7840, 182.1016
574.9570, 134.8359
576.1290, 392.4707
577.3020, 528.0371
578.4740, 405.5352
579.6460, 489.9648
580.8180, 549.3281
581.9900, 260.6211
583.1620, 254.8340
584.3330, 234.9648
585.5040, 441.0078
586.6760, 462.9805
587.8470, 570.8809
589.0180, 555.4570
590.1880, 433.5098
591.3590, 445.2070
592.5290, 317.0820
593.7000, 229.4082
594.8700, 393.4863
596.0400, 139.8223
597.2090, 426.6484
598.3790, 294.8828
599.5490, 203.0430
600.7180, 459.8516
601.8870, 316.0117
603.0560, 408.0645
604.2250, 579.8418
605.3940, 478.9668
606.5620, 297.8906
607.7300, 389.8477
608.8990, 208.5176
610.0670, 384.3457
611.2350, 574.0137
612.4020, 625.5859
613.5700, 821.4844
614.7370, 877.4043
615.9050, 1120.377
617.0720, 1119.871
618.2390, 1313.990
619.4060, 1100.852
620.5720, 1397.660
621.7390, 1459.850
622.9050, 1437.803
624.0710, 1834.936
625.2370, 1940.518
626.4030, 1613.428
627.5690, 1721.988
628.7340, 1874.814
629.9000, 1885.527
631.0650, 2128.912
632.2300, 1906.662
633.3950, 2136.988
634.5600, 2315.123
635.7240, 2321.322
636.8890, 2705.742
638.0530, 2895.846
639.2170, 3007.150
640.3810, 3148.809
641.5450, 3704.705
642.7080, 3688.875
643.8720, 4414.188
645.0350, 4594.762
646.1980, 4720.609
647.3610, 4913.234
648.5240, 5324.645
649.6870, 5781.697
650.8490, 6003.613
652.0120, 6395.357
653.1740, 6827.172
654.3360, 7384.961
655.4980, 8014.445
656.6600, 8473.436
657.8210, 9370.992
658.9830, 10203.57
660.1440, 11184.98
661.3050, 12383.51
662.4660, 13374.98
663.6270, 14781.10
664.7870, 16413.06
665.9480, 18276.52
667.1080, 19879.12
668.2680, 21595.20
669.4280, 23087.43
670.5880, 24689.29
671.7480, 25169.17
672.9070, 26209.24
674.0670, 26143.63
675.2260, 25935.10
676.3850, 25627.22
677.5440, 24296.07
678.7030, 23141.98
679.8610, 21264.84
681.0200, 19532.79
682.1780, 17946.54
683.3360, 15923.85
684.4940, 14211.70
685.6520, 12925.48
686.8090, 11365.75
687.9670, 10214.86
689.1240, 9042.430
690.2810, 8324.703
691.4380, 7514.305
692.5950, 7209.348
693.7520, 6477.180
694.9080, 5905.387
696.0650, 5285.980
697.2210, 4853.984
698.3770, 4570.586
699.5330, 4135.066
700.6880, 3746.535
701.8440, 3468.102
702.9990, 3075.793
704.1550, 2774.414
705.3100, 2490.637
706.4650, 2275.855
707.6190, 2147.008
708.7740, 2101.676
709.9290, 1997.246
711.0830, 1992.371
712.2370, 1938.125
713.3910, 1733.270
714.5450, 1469.121
715.6980, 1372.633
716.8520, 1267.320
718.0050, 1246.746
719.1580, 1237.316
720.3110, 1218.836
721.4640, 1202.254
722.6170, 1020.500
723.7700, 1211.828
724.9220, 1078.973
726.0740, 1170.141
727.2260, 1100.316
728.3780, 952.4766
729.5300, 902.4766
730.6810, 982.4609
731.8330, 803.8281
732.9840, 832.0859
734.1350, 645.9375
735.2860, 588.0312
736.4370, 930.9180
737.5880, 521.0430
738.7380, 727.9492
739.8880, 446.8047
741.0390, 344.0469
742.1890, 310.7344
743.3380, 219.1406
744.4880, 260.2930
745.6380, 281.5625
746.7870, 239.1602
747.9360, 422.5273
749.0850, 494.0859
750.2340, 348.7344
751.3830, 422.3359
752.5310, 209.8906
753.6800, 203.3867
754.8280, 8.832031
755.9760, 144.2148
757.1240, 204.6172
758.2720, 9.027344
759.4190, 48.26953
760.5670, 241.5547
761.7140, 10.20703
762.8610, 166.9570
764.0080, 248.9375
765.1550, 38.03516
766.3020, 147.7812
767.4480, 74.55078
768.5950, 8.734375
769.7410, 129.0898
770.8870, 48.57812
772.0330, 265.1641
773.1780, 76.94922
774.3240, 219.1602
775.4690, 145.2188
776.6140, 117.2422
777.7590, 45.77344
778.9040, 117.1914
780.0490, 182.1836
781.1940, 164.1562
782.3380, 136.1641
783.4820, 9.179688
784.6260, 13.85156
785.7700, 63.91797
786.9140, 129.9375
788.0580, 87.75391
789.2010, 74.52344
790.3450, 182.2461
791.4880, 46.92578
792.6310, 65.56250
793.7730, 124.8438
794.9160, 35.35547
796.0590, 120.4727
797.2010, 167.5938
798.3430, 155.4062
799.4850, 6.355469
800.6270, 79.64453
801.7690, 56.60156
802.9100, 83.52344
804.0520, 31.39844
805.1930, 37.30859
806.3340, 87.01562
807.4750, 6.234375
808.6160, 135.4570
809.7560, 73.11328
810.8970, 1.722656
812.0370, 114.7070
813.1770, 132.7578
814.3170, 295.1875
815.4570, 44.58594
816.5960, 28.05078
817.7360, 61.26172
818.8750, 11.53516
820.0140, 65.76953
821.1530, 190.9648
822.2920, 56.12109
823.4310, 319.2500
824.5690, 79.34766
825.7070, 192.4062
826.8460, 245.4336
827.9840, 104.4297
829.1220, 43.60938
830.2590, 304.3008
831.3970, 194.1797
832.5340, 271.0312
833.6710, 63.14453
834.8080, 62.05859
835.9450, 19.80469
837.0820, 181.5273
838.2190, 79.21484
839.3550, 318.8867
840.4910, 323.5352
841.6270, 423.1562
842.7630, 390.7695
843.8990, 368.3477
845.0350, 321.9062
846.1700, 229.4453
847.3060, 359.9570
848.4410, 120.4648
849.5760, 300.9492
850.7100, 324.4219
851.8450, 518.8867
852.9800, 534.3281
854.1140, 624.7461
855.2480, 704.1445
856.3820, 719.5195
857.5160, 694.8711
858.6500, 722.8555
859.7830, 709.5195
860.9170, 655.8281
862.0500, 629.1133
863.1830, 478.3750
864.3160, 443.6211
865.4480, 310.8477
866.5810, 371.1055
867.7130, 500.3516
868.8460, 560.5820
869.9780, 334.8008
871.1100, 174.0078
872.2410, 262.2070
873.3730, 306.3906
874.5050, 467.5547
875.6360, 395.7070
876.7670, 521.8477
877.8980, 537.5781
879.0290, 576.0938
880.1590, 535.8359
881.2900, 687.4492
882.4200, 599.1719
883.5500, 656.7773
884.6800, 480.0312
885.8100, 528.2656
886.9400, 535.8242
888.0690, 936.5352
889.1990, 686.0000
890.3280, 803.4805
891.4570, 1052.285
892.5860, 832.5156
893.7140, 785.9922
894.8430, 950.7773
895.9710, 658.3164
897.1000, 925.9180
898.2280, 1152.730
899.3560, 1089.031
900.4830, 941.9922
901.6110, 790.2227
902.7380, 1026.484
903.8660, 1137.332
904.9930, 841.5000
906.1200, 1104.184
907.2460, 1249.949
908.3730, 1196.191
909.5000, 1395.301
910.6260, 1325.875
911.7520, 1144.141
912.8780, 1763.289
914.0040, 1334.547
915.1290, 1585.691
916.2550, 1187.102
917.3800, 1417.434
918.5050, 1720.648
919.6300, 1464.098
920.7550, 1707.648
921.8800, 1390.105
923.0040, 1707.320
924.1290, 1497.352
925.2530, 1653.328
926.3770, 1499.766
927.5010, 1164.605
928.6250, 1220.547
929.7480, 1443.504
930.8720, 1227.117
931.9950, 1208.434
933.1180, 890.8477
934.2410, 1103.082
935.3640, 850.3789
936.4860, 848.5000
937.6090, 1226.539
938.7310, 522.6953
939.8530, 878.6367
940.9750, 889.6016
942.0970, 502.7812
943.2180, 589.2617
944.3400, 822.6562
945.4610, 416.7969
946.5820, 798.5273
947.7030, 837.1250
948.8240, 794.5273
949.9450, 713.6133
951.0650, 645.6562
952.1860, 765.5195
953.3060, 796.6367
954.4260, 921.5430
955.5460, 444.6797
956.6650, 603.3438
957.7850, 804.4453
958.9040, 458.5547
960.0230, 893.7656
961.1420, 646.4492
962.2610, 723.3672
963.3800, 920.7031
964.4990, 726.2148
965.6170, 512.3203
966.7350, 756.0469
967.8530, 329.3672
968.9710, 15.89062
970.0890, 194.3242
971.2070, 384.9961
972.3240, 539.6719
973.4410, 148.9258
974.5580, 309.9727
975.6750, 341.0195
976.7920, 347.0586
977.9090, 357.0898
979.0250, 514.5117
980.1410, 489.5312
981.2580, 475.6914
982.3740, 328.2461
983.4890, 409.6836
984.6050, 429.6758
985.7200, 625.6602
986.8360, 552.6406
987.9510, 553.6133
989.0660, 473.5820
990.1810, 567.6055
991.2950, 859.4844
992.4100, 789.4336
993.5240, 1085.363
994.6390, 1257.293
995.7530, 1306.020
996.8660, 1314.121
997.9800, 1548.828
999.0940, 1576.516
1000.207, 1821.332
1001.320, 2123.000
1002.433, 2167.504
1003.546, 2100.574
1004.659, 2003.648
1005.772, 1937.742
1006.884, 1963.672
1007.996, 1947.098
1009.108, 1607.012
1010.220, 1620.281
1011.332, 1368.578
1012.444, 1714.691
1013.555, 1636.047
1014.666, 1724.742
1015.777, 2050.191
1016.888, 2211.324
1017.999, 1955.148
1019.110, 2327.332
1020.220, 2033.836
1021.331, 1853.102
1022.441, 1836.953
1023.551, 1935.023
1024.661, 1921.352
1025.770, 2123.746
1026.880, 1990.023
1027.989, 1822.543
1029.098, 1961.641
1030.207, 2151.621
1031.316, 2193.484
1032.425, 2128.484
1033.533, 2125.172
1034.642, 2155.262
1035.750, 2108.281
1036.858, 2163.430
1037.966, 2231.020
1039.073, 2255.863
1040.181, 2263.816
1041.288, 2467.883
1042.396, 2260.383
1043.503, 2414.957
1044.610, 2463.855
1045.716, 2392.555
1046.823, 2482.273
1047.929, 2226.953
1049.036, 2191.559
1050.142, 1861.969
1051.248, 1747.781
1052.353, 1934.797
1053.459, 1858.938
1054.564, 1587.070
1055.670, 1779.754
1056.775, 1799.945
1057.880, 1782.820
1058.985, 1314.164
1060.089, 1454.930
1061.194, 1335.043
1062.298, 1412.379
1063.402, 1363.766
1064.506, 1261.957
1065.610, 1254.207
1066.713, 1214.730
1067.817, 1174.203
1068.920, 1404.594
1070.023, 1412.254
1071.126, 1173.652
1072.229, 1221.590
1073.332, 1059.449
1074.435, 1140.898
1075.537, 1079.961
1076.639, 1005.332
1077.741, 1020.379
1078.843, 976.8711
1079.945, 935.1172
1081.046, 677.4375
1082.148, 874.7070
1083.249, 646.3438
1084.350, 979.2578
1085.451, 655.5977
1086.551, 837.8398
1087.652, 467.8789
1088.752, 636.6016
1089.853, 398.7773
1090.953, 499.7070
1092.053, 551.8086
1093.152, 492.3086
1094.252, 557.1641
1095.351, 471.7461
1096.451, 594.9727
1097.550, 561.9570
1098.649, 620.1836
1099.748, 277.2852
1100.846, 361.9258
1101.945, 96.29688
1103.043, 186.8750
1104.141, 509.4062
1105.239, 540.2422
1106.337, 410.7109
1107.434, 474.3789
1108.532, 398.6875
1109.629, 630.6484
1110.726, 268.8750
1111.823, 411.6836
1112.920, 303.2969
1114.017, 237.5977
1115.113, 447.7305
1116.210, 481.0938
1117.306, 593.1758
1118.402, 666.9180
1119.498, 689.4883
1120.593, 836.9297
1121.689, 760.8086
1122.784, 987.0859
1123.879, 1044.555
1124.974, 691.3047
1126.069, 697.0469
1127.164, 520.7070
1128.259, 468.3281
1129.353, 204.9023
1130.447, 210.4336
1131.541, 169.0898
1132.635, 5.238281
1133.729, 253.5117
1134.822, 115.7383
1135.916, 116.9023
1137.009, 301.0117
1138.102, 388.0781
1139.195, 268.4375
1140.288, 391.0508
1141.380, 64.99609
1142.473, 58.89453
1143.565, 101.7305
1144.657, 49.52344
1145.749, 363.6914
1146.841, 88.16797
1147.932, 257.7617
1149.024, 167.4375
1150.115, 80.60547
1151.206, 239.7148
1152.297, 66.23047
1153.388, 153.7148
1154.479, 189.4062
1155.569, 17.65625
1156.659, 48.01172
1157.750, 61.63281
1158.839, 227.1875
1159.929, 88.68359
1161.019, 115.1211
1162.108, 38.50000
1163.198, 8.097656
1164.287, 193.8359
1165.376, 101.2148
1166.465, 121.2188
1167.553, 328.1523
1168.642, 504.9688
1169.730, 64.48438
1170.818, 213.4961
1171.906, 51.00000
1172.994, 79.68359
1174.082, 277.6289
1175.170, 35.06641
1176.257, 604.3906
1177.344, 233.6602
1178.431, 244.8672
1179.518, 258.0117
1180.605, 300.0898
1181.691, 202.1094
1182.778, 24.94141
1183.864, 117.9102
1184.950, 26.68359
1186.036, 224.3750
1187.122, 112.0000
1188.207, 170.5508
1189.292, 23.03125
1190.378, 188.4258
1191.463, 339.7500
1192.548, 283.0117
1193.632, 334.1992
1194.717, 607.3203
1195.801, 102.3828
1196.886, 249.3594
1197.970, 264.7305
1199.054, 72.06641
1200.137, 59.46094
1201.221, 85.90234
1202.305, 374.2617
1203.388, 386.5547
1204.471, 72.77344
1205.554, 115.9102
1206.637, 247.9648
1207.719, 112.9492
1208.802, 445.8438
1209.884, 258.6719
1210.966, 76.42578
1212.048, 246.0898
1213.130, 152.6836
1214.212, 317.1992
1215.293, 449.6406
1216.374, 466.0859
1217.456, 515.3008
1218.536, 347.5195
1219.617, 468.7344
1220.698, 283.3008
1221.778, 232.3633
1222.859, 369.3711
1223.939, 73.31641
1225.019, 62.19922
1226.099, 171.0195
1227.178, 223.7734
1228.258, 395.5273
1229.337, 417.1602
1230.417, 666.3828
1231.496, 476.8984
1232.574, 645.4180
1233.653, 607.7344
1234.732, 440.5234
1235.810, 662.8047
1236.888, 462.0273
1237.966, 392.1992
1239.044, 536.3047
1240.122, 301.3555
1241.199, 390.9570
1242.277, 428.3086
1243.354, 491.4961
1244.431, 561.7617
1245.508, 456.5195
1246.585, 515.6250
1247.661, 553.2695
1248.738, 440.9258
1249.814, 399.6289
1250.890, 626.1055
1251.966, 417.5156
1253.042, 361.8750
1254.117, 635.1719
1255.193, 514.4180
1256.268, 642.5898
1257.343, 736.3594
1258.418, 607.3203
1259.493, 763.8047
1260.567, 773.8438
1261.642, 657.5430
1262.716, 751.2383
1263.790, 647.2656
1264.864, 916.6523
1265.938, 854.9766
1267.011, 937.7266
1268.085, 749.0547
1269.158, 801.1484
1270.231, 954.0898
1271.304, 930.4102
1272.377, 1204.117
1273.450, 638.9023
1274.522, 1148.414
1275.594, 681.5430
1276.666, 707.8555
1277.738, 661.4180
1278.810, 761.6172
1279.882, 597.1992
1280.953, 982.3555
1282.025, 618.4883
1283.096, 1083.977
1284.167, 1109.176
1285.238, 673.7617
1286.308, 759.7969
1287.379, 617.0938
1288.449, 737.9570
1289.519, 686.1055
1290.589, 584.1680
1291.659, 577.5391
1292.729, 427.0898
1293.798, 450.1484
1294.868, 206.4570
1295.937, 209.3711
1297.006, 23.50391
1298.075, 95.92969
1299.143, 3.832031
1300.212, 44.77344
1301.280, 410.7031
1302.348, 121.2617
1303.416, 439.2578
1304.484, 751.7227
1305.552, 645.3086
1306.620, 871.8164
1307.687, 1007.188
1308.754, 927.5156
1309.821, 1335.762
1310.888, 1180.539
1311.955, 1299.945
1313.021, 1092.145
1314.088, 1133.125
1315.154, 986.4062
1316.220, 1125.082
1317.286, 762.9531
1318.352, 920.2539
1319.417, 988.0156
1320.483, 661.3086
1321.548, 1156.172
1322.613, 1093.086
1323.678, 891.5625
1324.743, 968.1289
1325.807, 699.3242
1326.872, 954.4844
1327.936, 1058.594
1329.000, 772.2969
1330.064, 675.1484
1331.128, 568.3242
1332.191, 562.4414
1333.255, 520.8555
1334.318, 575.5312
1335.381, 585.7930
1336.444, 679.2734
1337.507, 746.2148
1338.569, 981.3203
1339.632, 609.4062
1340.694, 850.3906
1341.756, 926.3242
1342.818, 655.2344
1343.880, 351.6016
1344.941, 34.43359
1346.003, 171.9453
1347.064, 476.5664
1348.125, 258.9688
1349.186, 608.4062
1350.247, 792.5586
1351.308, 503.4141
1352.368, 637.3906
1353.428, 1051.906
1354.489, 906.8320
1355.549, 339.5117
1356.608, 560.0625
1357.668, 28.43750
1358.727, 527.5234
1359.787, 327.4727
1360.846, 211.1211
1361.905, 241.9648
1362.964, 550.9805
1364.022, 479.9492
1365.081, 577.8320
1366.139, 461.6875
1367.197, 483.5312
1368.255, 549.3125
1369.313, 480.0117
1370.371, 422.5977
1371.428, 407.0586
1372.486, 385.3555
1373.543, 240.8242
1374.600, 551.4375
1375.657, 318.9688
1376.713, 292.5078
1377.770, 650.0664
1378.826, 430.6484
1379.882, 625.0000
1380.938, 402.4062
1381.994, 407.5938
1383.050, 475.0703
1384.106, 163.4883
1385.161, 440.0352
1386.216, 217.6523
1387.271, 383.6523
1388.326, 20.65234
1389.381, 125.6016
1390.435, 420.5156
1391.490, 700.4688
1392.544, 339.4336
1393.598, 136.3945
1394.652, 459.3672
1395.705, 228.3359
1396.759, 64.70312
1397.812, 2.273438
1398.866, 382.6328
1399.919, 3.878906
1400.972, 163.3438
1402.024, 314.2578
1403.077, 304.9453
1404.129, 338.6953
1405.181, 40.45703
1406.233, 256.4805
1407.285, 247.0156
1408.337, 296.0664
1409.389, 301.9062
1410.440, 98.38281
1411.491, 126.2852
1412.542, 6.222656
1413.593, 173.0391
1414.644, 206.3164
1415.695, 222.3594
1416.745, 74.79297
1417.795, 258.1992
1418.845, 347.5664
1419.895, 366.9102
1420.945, 134.2461
1421.995, 236.4688
1423.044, 137.0586
1424.093, 187.2773
1425.142, 3.515625
1426.191, 73.74219
1427.240, 68.27734
1428.289, 154.9219
1429.337, 251.4336
1430.385, 301.1289
1431.433, 377.4492
1432.481, 432.0898
1433.529, 415.4766
1434.577, 462.4688
1435.624, 383.4219
1436.672, 362.9180
1437.719, 373.7461
1438.766, 498.3906
1439.812, 530.6055
1440.859, 740.1992
1441.905, 697.6875
1442.952, 726.5664
1443.998, 1029.699
1445.044, 1144.230
1446.090, 688.4453
1447.135, 930.9805
1448.181, 656.6094
1449.226, 1192.188
1450.271, 864.5312
1451.316, 787.7773
1452.361, 764.0273
1453.405, 700.5898
1454.450, 725.3867
1455.494, 581.4609
1456.538, 602.7656
1457.582, 666.1289
1458.626, 591.7500
1459.670, 590.2773
1460.713, 485.0117
1461.757, 441.4375
1462.800, 284.2266
1463.843, 82.98828
1464.886, 3.296875
1465.928, 95.92969
1466.971, 0.6796880
1468.013, 0.0000000E+00
##END=



