##NAMES=Edingtonite
##RRUFFID=R040003
##IDEAL CHEMISTRY=Ba(Si_3_Al_2_)O_10_&#183;4H_2_O
##LOCALITY=Bohl, Sweden
##OWNER=RRUFF
##SOURCE=University of Arizona Mineral Museum
##DESCRIPTION=Colorless tetragonal prism
##STATUS=The identification of this mineral has been confirmed by X-ray diffraction and chemical analysis
##URL=rruff.info/R040003
##MEASURED CHEMISTRY=Ba_1.00_(Si_3.00_Al_2.00_)O_10_Â·4H_2_O; trace amounts of Na; H_2_O estimated by difference
##PIN_ID=m00029
##ORIENTATION=Laser parallel to c* (0 0 1). Fiducial mark perpendicular to laser is parallel to a [1 0 0]
114.384, 0.000
115.775, 709.234
117.166, 1116.625
118.556, 1256.008
119.947, 1603.051
121.337, 1814.918
122.727, 2624.416
124.116, 3666.857
125.506, 4439.307
126.895, 6109.938
128.284, 7927.332
129.673, 10140.078
131.062, 12587.012
132.450, 14987.279
133.838, 17090.635
135.226, 17297.010
136.614, 16916.309
138.001, 15408.398
139.388, 14493.088
140.775, 12449.619
142.162, 10757.117
143.549, 9355.248
144.935, 8113.252
146.321, 7022.463
147.707, 6371.201
149.093, 5939.912
150.478, 5499.766
151.863, 5311.758
153.248, 5235.688
154.633, 5041.510
156.018, 4968.979
157.402, 4138.258
158.786, 3609.680
160.170, 3282.568
161.554, 2675.070
162.937, 2279.754
164.320, 1705.012
165.703, 1595.848
167.086, 1342.352
168.469, 997.602
169.851, 1011.807
171.233, 945.109
172.615, 817.494
173.996, 648.967
175.378, 539.570
176.759, 529.346
178.140, 448.336
179.521, 356.576
180.901, 354.109
182.281, 319.477
183.662, 209.703
185.041, 350.713
186.421, 237.051
187.800, 283.809
189.180, 249.959
190.558, 248.178
191.937, 333.814
193.316, 394.781
194.694, 375.238
196.072, 423.111
197.450, 341.844
198.827, 371.994
200.205, 386.383
201.582, 511.539
202.959, 407.773
204.336, 508.506
205.712, 487.252
207.088, 392.170
208.465, 512.995
209.840, 188.165
211.216, 170.581
212.591, 73.036
213.967, 165.512
215.341, 218.001
216.716, 200.488
218.091, 322.967
219.465, 455.436
220.839, 697.896
222.213, 1010.342
223.586, 1233.871
224.960, 1558.994
226.333, 2163.641
227.706, 3318.853
229.079, 4561.691
230.451, 6964.398
231.823, 10016.337
233.195, 14668.158
234.567, 18689.852
235.939, 20811.404
237.310, 19282.811
238.682, 14824.060
240.052, 10435.159
241.423, 6886.125
242.794, 4736.961
244.164, 3167.670
245.534, 2098.248
246.904, 1629.161
248.274, 1032.503
249.643, 696.297
251.012, 569.360
252.381, 181.728
253.750, 142.723
255.118, 117.323
256.487, 77.870
257.855, 298.542
259.223, 279.380
260.590, 140.468
261.958, 331.847
263.325, 109.300
264.692, 274.999
266.059, 239.727
267.425, 183.823
268.791, 297.489
270.158, 230.869
271.523, 394.049
272.889, 317.120
274.255, 320.123
275.620, 303.105
276.985, 296.102
278.350, 249.138
279.714, 392.234
281.078, 419.566
282.443, 278.730
283.806, 512.149
285.170, 615.724
286.534, 459.481
287.897, 623.416
289.260, 427.562
290.623, 511.897
291.985, 626.441
293.348, 461.201
294.710, 306.170
296.072, 231.327
297.433, 256.665
298.795, 97.807
300.156, 42.112
301.517, 316.236
302.878, 380.186
304.239, 433.949
305.599, 657.523
306.959, 840.901
308.319, 954.070
309.679, 1087.038
311.038, 1379.786
312.398, 1492.315
313.757, 1554.644
315.116, 1496.793
316.474, 1438.773
317.833, 1530.588
319.191, 1542.240
320.549, 1253.735
321.907, 1355.698
323.264, 1076.889
324.622, 918.498
325.979, 790.470
327.336, 721.460
328.692, 763.332
330.049, 503.822
331.405, 785.661
332.761, 496.337
334.117, 437.240
335.473, 437.996
336.828, 567.910
338.183, 497.394
339.538, 406.363
340.893, 705.541
342.247, 583.810
343.602, 592.209
344.956, 990.875
346.310, 938.400
347.663, 1165.258
349.017, 1241.756
350.370, 1517.931
351.723, 1663.762
353.076, 2019.351
354.428, 2354.763
355.780, 2750.062
357.133, 3114.728
358.484, 3429.229
359.836, 3653.023
361.188, 3827.334
362.539, 3881.801
363.890, 3546.104
365.241, 3080.891
366.591, 2725.632
367.942, 2120.304
369.292, 1784.907
370.642, 1469.436
371.992, 1393.883
373.341, 1138.248
374.691, 962.532
376.040, 686.746
377.388, 650.890
378.737, 444.963
380.086, 391.464
381.434, 362.892
382.782, 346.746
384.130, 380.529
385.477, 434.238
386.825, 417.878
388.172, 498.888
389.519, 520.092
390.865, 638.388
392.212, 631.762
393.558, 715.070
394.904, 848.302
396.250, 881.458
397.596, 1184.701
398.941, 1365.031
400.286, 1728.172
401.631, 1845.062
402.976, 1962.800
404.321, 2085.328
405.665, 2398.231
407.009, 2394.296
408.353, 2235.842
409.697, 2442.473
411.040, 2175.138
412.384, 2128.495
413.727, 2133.016
415.070, 2064.750
416.412, 2327.887
417.755, 2447.078
419.097, 2727.908
420.439, 2898.514
421.781, 3139.362
423.122, 3460.218
424.464, 3862.013
425.805, 4250.324
427.146, 4717.850
428.486, 5258.496
429.827, 5793.564
431.167, 6226.074
432.507, 6462.070
433.847, 6724.109
435.187, 6480.561
436.526, 6384.910
437.865, 5896.459
439.204, 5461.713
440.543, 4880.443
441.882, 4330.779
443.220, 4050.400
444.558, 3567.619
445.896, 3053.820
447.234, 2812.732
448.572, 2611.846
449.909, 2121.113
451.246, 1841.090
452.583, 1631.000
453.919, 1570.840
455.256, 1420.611
456.592, 1330.316
457.928, 1129.961
459.264, 929.539
460.600, 799.062
461.935, 778.521
463.270, 577.924
464.605, 537.264
465.940, 256.549
467.274, 475.775
468.609, 264.947
469.943, 154.059
471.277, 333.105
472.610, 112.092
473.944, 391.012
475.277, 59.062
476.610, 257.869
477.943, 145.742
479.275, 113.266
480.608, 230.723
481.940, 258.719
483.272, 306.803
484.604, 193.938
485.935, 322.377
487.267, 230.768
488.598, 108.617
489.929, 287.150
491.260, 515.518
492.590, 653.770
493.920, 652.723
495.250, 790.916
496.580, 849.074
497.910, 997.236
499.239, 1155.371
500.569, 1153.480
501.898, 1551.564
503.226, 1429.645
504.555, 1837.734
505.883, 1865.805
507.212, 2343.869
508.540, 2581.912
509.867, 2829.941
511.195, 3247.969
512.522, 3925.971
513.849, 4503.973
515.176, 5341.961
516.503, 6769.920
517.829, 8127.865
519.156, 10165.787
520.482, 13223.564
521.808, 16671.156
523.133, 21827.766
524.459, 27864.100
525.784, 35560.270
527.109, 43356.348
528.434, 48102.559
529.758, 48088.992
531.083, 46965.328
532.407, 41102.016
533.731, 33618.785
535.055, 26996.080
536.378, 21303.322
537.701, 17030.908
539.025, 13708.473
540.348, 10836.012
541.670, 8863.578
542.993, 7391.084
544.315, 5999.055
545.637, 5277.369
546.959, 4604.879
548.281, 3802.426
549.602, 3480.414
550.923, 2818.008
552.244, 2715.633
553.565, 2233.271
554.886, 1960.947
556.206, 1748.645
557.526, 1636.398
558.846, 1234.182
560.166, 1091.988
561.486, 1359.840
562.805, 1167.727
564.124, 965.652
565.443, 1033.609
566.762, 731.605
568.080, 979.639
569.399, 787.719
570.717, 975.848
572.035, 774.010
573.352, 832.230
574.670, 690.527
575.987, 808.877
577.304, 767.303
578.621, 775.787
579.938, 664.332
581.254, 782.955
582.570, 691.637
583.886, 790.363
585.202, 789.121
586.518, 887.918
587.833, 916.715
589.148, 965.516
590.463, 1274.316
591.778, 1243.146
593.093, 1291.996
594.407, 1610.900
595.721, 1709.854
597.035, 1858.797
598.349, 1947.734
599.662, 2000.703
600.976, 2095.785
602.289, 2046.146
603.602, 1995.031
604.914, 1954.746
606.227, 1773.861
607.539, 1563.398
608.851, 1212.979
610.163, 1152.947
611.475, 791.705
612.786, 850.193
614.097, 758.836
615.408, 426.365
616.719, 456.133
618.030, 325.100
619.340, 434.393
620.651, 282.535
621.961, 231.549
623.270, 390.133
624.580, 111.027
625.889, 310.193
627.199, 218.111
628.507, 101.951
629.816, 490.502
631.125, 168.787
632.433, 199.748
633.741, 408.381
635.049, 58.457
636.357, 268.146
637.664, 326.920
638.972, 423.350
640.279, 532.371
641.586, 752.529
642.893, 872.037
644.199, 965.172
645.505, 1101.207
646.811, 1230.834
648.117, 1474.070
649.423, 1863.670
650.728, 2065.273
652.034, 2339.783
653.339, 2988.711
654.644, 2912.988
655.948, 3515.064
657.253, 3123.420
658.557, 3134.572
659.861, 2833.451
661.165, 2543.312
662.468, 2243.441
663.772, 1851.707
665.075, 1769.959
666.378, 1378.199
667.681, 876.428
668.983, 1114.648
670.286, 793.447
671.588, 522.123
672.890, 600.303
674.192, 348.773
675.493, 547.119
676.795, 325.385
678.096, 494.711
679.397, 332.803
680.697, 281.283
681.998, 240.828
683.298, 309.328
684.598, 148.492
685.898, 76.963
687.198, 464.918
688.498, 324.807
689.797, 163.023
691.096, 402.539
692.395, 270.771
693.694, 369.662
694.992, 319.355
696.290, 737.518
697.589, 592.859
698.886, 860.666
700.184, 868.434
701.482, 1066.951
702.779, 1264.920
704.076, 1533.217
705.373, 1750.830
706.669, 2118.910
707.966, 2378.496
709.262, 2616.025
710.558, 2823.750
711.854, 3001.225
713.150, 2908.664
714.445, 3206.637
715.740, 2914.018
717.035, 3071.395
718.330, 2850.227
719.625, 2807.514
720.919, 2495.039
722.214, 2102.260
723.508, 1959.973
724.801, 1367.123
726.095, 1404.236
727.388, 1021.314
728.682, 918.566
729.975, 846.721
731.267, 652.225
732.560, 435.570
733.852, 706.762
735.145, 376.959
736.437, 514.676
737.728, 313.125
739.020, 259.861
740.311, 616.553
741.603, 13.238
742.894, 459.834
744.184, 126.391
745.475, 252.898
746.765, 159.363
748.055, 25.840
749.345, 62.205
750.635, 198.996
751.925, 145.268
753.214, 292.010
754.503, 529.396
755.792, 95.543
757.081, 1.641
758.370, 77.686
759.658, 213.682
760.946, 19.637
762.234, 205.537
763.522, 38.605
764.809, 156.715
766.097, 382.457
767.384, 151.625
768.671, 213.459
769.958, 149.428
771.244, 33.961
772.530, 321.416
773.817, 26.820
775.102, 81.436
776.388, 276.727
777.674, 258.025
778.959, 217.102
780.244, 12.178
781.529, 107.195
782.814, 117.842
784.098, 242.967
785.383, 71.787
786.667, 123.514
787.951, 71.096
789.235, 54.350
790.518, 179.871
791.801, 204.504
793.084, 171.174
794.367, 76.953
795.650, 417.188
796.933, 38.715
798.215, 195.305
799.497, 19.273
800.779, 3.182
802.061, 937.027
803.342, 1750.826
804.624, 604.580
805.905, 468.287
807.186, 341.947
808.466, 185.562
809.747, 209.125
811.027, 322.639
812.307, 246.107
813.587, 269.525
814.867, 282.895
816.146, 56.217
817.426, 479.482
818.705, 222.699
819.984, 25.869
821.263, 208.938
822.541, 61.998
823.819, 204.525
825.098, 326.670
826.375, 0.426
827.653, 242.424
828.931, 14.814
830.208, 227.553
831.485, 80.246
832.762, 2.885
834.039, 225.457
835.315, 242.018
836.592, 290.393
837.868, 292.758
839.144, 125.078
840.420, 237.346
841.695, 159.568
842.970, 331.742
844.246, 193.871
845.521, 4.049
846.795, 307.971
848.070, 249.947
849.344, 311.881
850.618, 313.768
851.892, 175.615
853.166, 317.408
854.440, 289.160
855.713, 20.867
856.986, 442.521
858.259, 234.127
859.532, 365.609
860.804, 176.906
862.077, 338.141
863.349, 469.330
864.621, 300.477
865.893, 241.572
867.164, 52.623
868.436, 286.379
869.707, 195.471
870.978, 534.648
872.248, 493.936
873.519, 86.666
874.789, 7.221
876.060, 707.719
877.330, 397.955
878.599, 268.350
879.869, 707.230
881.138, 317.537
882.408, 496.951
883.677, 446.908
884.945, 256.383
886.214, 395.135
887.482, 164.068
888.751, 463.590
890.019, 152.816
891.287, 32.680
892.554, 432.582
893.822, 281.439
895.089, 269.553
896.356, 448.238
897.623, 447.516
898.889, 465.736
900.156, 404.889
901.422, 391.824
902.688, 460.668
903.954, 200.203
905.220, 284.367
906.485, 153.350
907.750, 11.992
909.015, 728.746
910.280, 488.074
911.545, 935.910
912.809, 1124.072
914.074, 1143.104
915.338, 1104.426
916.602, 503.102
917.865, 480.590
919.129, 478.676
920.392, 443.082
921.655, 544.537
922.918, 222.350
924.181, 366.508
925.443, 604.252
926.706, 199.945
927.968, 492.684
929.230, 420.959
930.491, 463.836
931.753, 638.873
933.014, 277.582
934.276, 523.449
935.536, 361.545
936.797, 458.617
938.058, 485.373
939.318, 353.955
940.578, 712.512
941.838, 601.045
943.098, 379.555
944.358, 678.045
945.617, 825.916
946.876, 473.881
948.135, 1042.307
949.394, 970.406
950.653, 1238.600
951.911, 1476.840
953.169, 1303.988
954.427, 1942.332
955.685, 1530.258
956.943, 1567.086
958.200, 1674.930
959.458, 1142.078
960.715, 1479.895
961.971, 1138.193
963.228, 1056.262
964.485, 1164.254
965.741, 820.920
966.997, 1018.852
968.253, 1066.111
969.508, 792.551
970.764, 860.510
972.019, 711.287
973.274, 609.594
974.529, 817.818
975.784, 475.279
977.039, 943.277
978.293, 510.930
979.547, 569.271
980.801, 967.148
982.055, 543.553
983.308, 1132.086
984.562, 480.574
985.815, 428.656
987.068, 1147.215
988.321, 654.170
989.573, 932.334
990.826, 1130.162
992.078, 498.492
993.330, 1035.299
994.582, 697.182
995.833, 624.686
997.085, 949.426
998.336, 586.947
999.587, 934.381
1000.838, 821.803
1002.088, 529.107
1003.339, 1145.885
1004.589, 762.561
1005.839, 808.350
1007.089, 905.523
1008.339, 512.662
1009.588, 1159.770
1010.838, 446.855
1012.087, 563.645
1013.336, 958.488
1014.584, 185.494
1015.833, 602.469
1017.081, 1339.447
1018.330, 846.438
1019.577, 1003.432
1020.825, 630.510
1022.073, 797.623
1023.320, 934.781
1024.567, 851.986
1025.814, 1059.242
1027.061, 1036.504
1028.308, 843.768
1029.554, 1281.010
1030.800, 708.215
1032.046, 1245.387
1033.292, 1362.533
1034.538, 1219.648
1035.783, 1556.734
1037.029, 1243.797
1038.274, 1480.848
1039.519, 2067.887
1040.763, 1634.889
1042.008, 2101.871
1043.252, 2018.834
1044.496, 2125.797
1045.740, 3032.844
1046.984, 3209.857
1048.228, 3696.838
1049.471, 4343.777
1050.714, 4890.697
1051.957, 5827.559
1053.200, 5874.379
1054.442, 6121.160
1055.685, 6347.904
1056.927, 5735.262
1058.169, 5113.000
1059.411, 4500.750
1060.652, 3938.521
1061.894, 4176.354
1063.135, 2784.234
1064.376, 2772.152
1065.617, 3140.145
1066.858, 2198.215
1068.098, 2596.344
1069.339, 2204.527
1070.579, 1682.768
1071.819, 2591.062
1073.058, 1249.416
1074.298, 1537.826
1075.537, 1626.309
1076.776, 1104.871
1078.015, 1383.527
1079.254, 1142.283
1080.493, 711.154
1081.731, 1340.152
1082.969, 849.289
1084.207, 1088.584
1085.445, 848.062
1086.683, 557.752
1087.920, 777.639
1089.157, 647.703
1090.394, 337.957
1091.631, 908.420
1092.868, 239.109
1094.105, 630.047
1095.341, 461.258
1096.577, 97.225
1097.813, 1194.633
1099.049, 306.875
1100.284, 639.547
1101.519, 972.686
1102.755, 176.352
1103.990, 1060.604
1105.224, 655.527
1106.459, 481.234
1107.693, 913.104
1108.928, 206.996
1110.162, 250.789
1111.395, 363.848
1112.629, 1.654
1113.863, 626.895
1115.096, 18.887
1116.329, 0.000
##END=



