##NAMES=Edingtonite
##RRUFFID=R040110
##IDEAL CHEMISTRY=Ba(Si_3_Al_2_)O_10_&#183;4H_2_O
##LOCALITY=2350 level, Brunswick 12 mine, Bathhurst, New Brunswick, Canada
##OWNER=RRUFF
##SOURCE=National Museums of Canada
##DESCRIPTION=Colorless rectangular prism
##STATUS=The identification of this mineral has been confirmed by X-ray diffraction and chemical analysis
##URL=rruff.info/R040110
##MEASURED CHEMISTRY=Ba_1.00_(Si_3.00_Al_2.00_)O_10_Â·4H_2_O
##PIN_ID=M00273
##ORIENTATION=Laser parallel to -a* (-1 0 0). Fiducial mark perpendicular to laser is parallel to b [0 1 0]
53.91000, 0.0000000E+00
55.14900, 52.61865
56.38700, 83.62354
57.62600, 84.56268
58.86400, 99.22171
60.10300, 93.56549
61.34100, 43.84375
62.57900, 15.88873
63.81700, 13.47449
65.05400, 40.64319
66.29200, 25.00671
67.52900, 1.073059
68.76700, 26.27185
70.00400, 93.30603
71.24100, 151.9309
72.47700, 221.9462
73.71400, 338.1797
74.95100, 512.4612
76.18700, 669.4141
77.42300, 922.5322
78.65900, 1094.042
79.89500, 1375.042
81.13100, 1652.429
82.36700, 1920.115
83.60200, 2211.125
84.83700, 2570.068
86.07200, 2780.205
87.30800, 3016.375
88.54200, 3282.552
89.77700, 3659.732
91.01200, 3945.890
92.24600, 4264.956
93.48000, 4641.849
94.71400, 4874.496
95.94800, 5179.621
97.18200, 5466.523
98.41600, 5665.449
99.64900, 5997.645
100.8830, 6165.396
102.1160, 6392.681
103.3490, 6346.477
104.5820, 6220.770
105.8150, 6224.539
107.0470, 6235.772
108.2800, 6322.457
109.5120, 6070.581
110.7440, 5979.131
111.9760, 6313.100
113.2080, 6093.479
114.4400, 6429.255
115.6710, 6394.442
116.9030, 6750.022
118.1340, 7041.978
119.3650, 7192.312
120.5960, 7620.055
121.8270, 7746.390
123.0580, 8310.426
124.2880, 8616.200
125.5190, 8981.472
126.7490, 9446.169
127.9790, 10078.13
129.2090, 10563.11
130.4390, 11112.11
131.6680, 11639.14
132.8980, 12023.18
134.1270, 12587.20
135.3560, 12960.30
136.5850, 13337.48
137.8140, 13804.77
139.0430, 13951.17
140.2710, 14711.70
141.5000, 15364.36
142.7280, 16332.17
143.9560, 17379.13
145.1840, 18433.24
146.4120, 19886.51
147.6390, 21257.95
148.8670, 22608.54
150.0940, 23707.31
151.3210, 24389.25
152.5490, 25121.37
153.7750, 24613.66
155.0020, 23879.13
156.2290, 22362.78
157.4550, 20477.60
158.6810, 18619.61
159.9080, 16508.80
161.1340, 14766.16
162.3590, 12963.71
163.5850, 11462.44
164.8110, 10140.34
166.0360, 9279.428
167.2610, 8275.694
168.4860, 7740.137
169.7110, 7029.758
170.9360, 6510.557
172.1610, 6043.533
173.3850, 5685.686
174.6100, 5369.016
175.8340, 5127.620
177.0580, 4895.112
178.2820, 4567.960
179.5050, 4458.982
180.7290, 4239.178
181.9520, 4122.547
183.1760, 3948.358
184.3990, 3765.070
185.6220, 3774.223
186.8450, 3593.635
188.0670, 3324.524
189.2900, 3389.834
190.5120, 3276.389
191.7340, 3207.432
192.9560, 3025.552
194.1780, 3062.367
195.4000, 2906.189
196.6220, 2872.599
197.8430, 2736.598
199.0640, 2575.645
200.2860, 2640.129
201.5070, 2446.855
202.7270, 2468.657
203.9480, 2239.942
205.1690, 2133.014
206.3890, 2035.360
207.6090, 1855.386
208.8290, 1838.506
210.0490, 1818.070
211.2690, 1763.448
212.4890, 1722.000
213.7080, 1661.515
214.9280, 1592.770
216.1470, 1513.682
217.3660, 1410.888
218.5850, 1303.376
219.8030, 1291.135
221.0220, 1315.154
222.2400, 1197.425
223.4590, 1192.938
224.6770, 1234.687
225.8950, 1096.662
227.1120, 1162.858
228.3300, 1177.270
229.5480, 1094.889
230.7650, 1009.712
231.9820, 1088.733
233.1990, 954.9473
234.4160, 925.3511
235.6330, 830.9395
236.8490, 813.7080
238.0660, 753.6523
239.2820, 706.5854
240.4980, 690.0537
241.7140, 612.5044
242.9300, 522.1177
244.1460, 444.8906
245.3610, 473.8213
246.5770, 403.9062
247.7920, 410.1445
249.0070, 489.5332
250.2220, 429.0708
251.4370, 406.7544
252.6510, 348.5830
253.8660, 319.5547
255.0800, 363.6685
256.2940, 294.9214
257.5080, 346.3115
258.7220, 494.8389
259.9360, 396.5005
261.1490, 441.2954
262.3630, 344.2227
263.5760, 513.2793
264.7890, 570.4648
266.0020, 566.7778
267.2150, 621.2173
268.4270, 736.7798
269.6400, 782.4629
270.8520, 955.2627
272.0640, 894.1787
273.2760, 1052.208
274.4880, 1087.351
275.7000, 1014.606
276.9120, 1043.977
278.1230, 990.4595
279.3340, 941.0571
280.5450, 824.7690
281.7560, 658.5952
282.9670, 513.5366
284.1780, 501.5918
285.3880, 365.7617
286.5980, 316.0454
287.8090, 216.4429
289.0190, 167.9536
290.2290, 152.5781
291.4380, 55.31494
292.6480, 90.16357
293.8570, 112.1250
295.0670, 1.802734
296.2760, 102.3799
297.4850, 12.67285
298.6930, 29.92480
299.9020, 58.58398
301.1110, 52.20117
302.3190, 140.9272
303.5270, 24.76123
304.7350, 82.70264
305.9430, 123.7505
307.1510, 53.90527
308.3580, 63.16602
309.5660, 158.5332
310.7730, 7.995605
311.9800, 106.5781
313.1870, 61.25586
314.3940, 92.03662
315.6010, 7.080078
316.8070, 46.09570
318.0130, 55.01709
319.2200, 27.84570
320.4260, 128.5781
321.6310, 64.23145
322.8370, 175.8003
324.0430, 142.2979
325.2480, 104.7192
326.4540, 123.0586
327.6590, 158.3198
328.8640, 183.5122
330.0680, 145.6377
331.2730, 125.6880
332.4780, 147.6807
333.6820, 52.62207
334.8860, 89.51221
336.0900, 44.35107
337.2940, 38.85840
338.4980, 62.86816
339.7010, 77.54297
340.9050, 69.15771
342.1080, 40.67334
343.3110, 0.1215820
344.5140, 27.49170
345.7170, 0.5722660
346.9200, 6.556641
348.1220, 8.179688
349.3240, 26.64502
350.5270, 33.31299
351.7290, 57.82080
352.9310, 83.80664
354.1320, 35.59229
355.3340, 173.5142
356.5350, 155.5869
357.7370, 197.8203
358.9380, 337.2002
360.1390, 356.7119
361.3400, 295.3638
362.5400, 313.1396
363.7410, 250.0361
364.9410, 234.0864
366.1410, 303.2632
367.3410, 138.5830
368.5410, 193.0293
369.7410, 236.6021
370.9400, 182.3027
372.1400, 261.1396
373.3390, 259.1045
374.5380, 302.1875
375.7370, 311.3804
376.9360, 321.6909
378.1350, 354.1162
379.3330, 372.6572
380.5310, 475.3145
381.7300, 456.0786
382.9280, 446.9531
384.1260, 530.9473
385.3230, 507.0410
386.5210, 600.2446
387.7180, 540.5503
388.9160, 623.9663
390.1130, 623.4863
391.3100, 656.1035
392.5060, 745.8242
393.7030, 834.6479
394.9000, 882.5679
396.0960, 1094.583
397.2920, 1067.694
398.4880, 1156.898
399.6840, 1364.197
400.8800, 1468.589
402.0750, 1402.074
403.2710, 1479.653
404.4660, 1395.323
405.6610, 1396.084
406.8560, 1204.936
408.0510, 1226.879
409.2450, 1147.912
410.4400, 1179.035
411.6340, 1061.246
412.8280, 1114.546
414.0220, 1205.935
415.2160, 1215.411
416.4100, 1325.975
417.6030, 1415.624
418.7970, 1499.361
419.9900, 1776.185
421.1830, 1888.093
422.3760, 2064.086
423.5690, 2206.164
424.7610, 2368.392
425.9540, 2632.573
427.1460, 2692.902
428.3380, 2926.314
429.5300, 3063.809
430.7220, 2809.384
431.9140, 2944.042
433.1050, 2801.781
434.2970, 2568.601
435.4880, 2609.500
436.6790, 2292.478
437.8700, 2161.536
439.0610, 1773.592
440.2510, 1700.806
441.4420, 1434.098
442.6320, 1137.784
443.8220, 1075.230
445.0120, 991.7534
446.2020, 754.3511
447.3910, 741.0249
448.5810, 654.7734
449.7700, 561.5967
450.9600, 528.4937
452.1490, 458.0337
453.3370, 437.5088
454.5260, 363.3896
455.7150, 416.5781
456.9030, 379.8394
458.0910, 447.1714
459.2800, 460.3350
460.4670, 485.4419
461.6550, 476.3032
462.8430, 547.0840
464.0300, 635.3809
465.2180, 701.0894
466.4050, 715.7510
467.5920, 746.5527
468.7790, 818.2993
469.9650, 895.6826
471.1520, 963.1245
472.3380, 1042.555
473.5250, 1139.381
474.7110, 1309.217
475.8970, 1364.529
477.0820, 1437.619
478.2680, 1726.734
479.4540, 1796.490
480.6390, 1944.936
481.8240, 2191.464
483.0090, 2372.884
484.1940, 2548.839
485.3780, 2719.257
486.5630, 3130.008
487.7470, 3119.472
488.9320, 3490.456
490.1160, 3666.587
491.3000, 3765.361
492.4830, 4032.608
493.6670, 4102.670
494.8500, 4334.991
496.0340, 4452.043
497.2170, 4575.171
498.4000, 4568.026
499.5820, 4462.428
500.7650, 4579.181
501.9480, 4437.021
503.1300, 4584.760
504.3120, 4726.191
505.4940, 4831.254
506.6760, 4968.316
507.8580, 5466.327
509.0390, 5793.405
510.2210, 6270.947
511.4020, 7219.651
512.5830, 8146.059
513.7640, 9511.465
514.9450, 11405.49
516.1250, 13545.97
517.3060, 16542.30
518.4860, 20218.47
519.6660, 24828.06
520.8460, 30143.19
522.0260, 35817.80
523.2060, 41480.14
524.3850, 47550.76
525.5650, 51956.36
526.7440, 54581.13
527.9230, 55258.77
529.1020, 53164.20
530.2810, 48860.53
531.4590, 42992.68
532.6380, 36301.63
533.8160, 30114.65
534.9940, 24542.24
536.1720, 20108.26
537.3500, 16279.32
538.5270, 13398.41
539.7050, 11014.53
540.8820, 9268.690
542.0590, 7837.875
543.2360, 6650.097
544.4130, 5570.348
545.5900, 4863.629
546.7660, 4245.946
547.9430, 3540.287
549.1190, 3259.670
550.2950, 2869.075
551.4710, 2582.505
552.6470, 2380.958
553.8220, 2032.442
554.9980, 1979.958
556.1730, 1772.495
557.3480, 1585.052
558.5230, 1427.629
559.6980, 1271.211
560.8730, 1225.839
562.0470, 1072.472
563.2220, 946.1211
564.3960, 998.7891
565.5700, 881.4736
566.7440, 852.1748
567.9170, 813.8911
569.0910, 832.6226
570.2640, 684.3682
571.4380, 598.1270
572.6110, 504.8994
573.7840, 569.6846
574.9570, 595.4829
576.1290, 582.2998
577.3020, 574.6787
578.4740, 518.9658
579.6460, 475.8149
580.8180, 481.6748
581.9900, 392.5430
583.1620, 338.4204
584.3330, 367.3101
585.5040, 340.2070
586.6760, 368.1118
587.8470, 296.0356
589.0180, 282.9658
590.1880, 272.9014
591.3590, 341.8418
592.5290, 356.7876
593.7000, 220.7373
594.8700, 321.6914
596.0400, 287.6499
597.2090, 395.7637
598.3790, 319.7275
599.5490, 332.8164
600.7180, 347.7393
601.8870, 301.8789
603.0560, 319.8647
604.2250, 266.8550
605.3940, 197.8789
606.5620, 104.9976
607.7300, 172.3208
608.8990, 195.7505
610.0670, 119.0620
611.2350, 207.1592
612.4020, 113.2783
613.5700, 49.42383
614.7370, 166.5796
615.9050, 33.75049
617.0720, 27.93066
618.2390, 2.785156
619.4060, 21.36670
620.5720, 54.45996
621.7390, 5.381836
622.9050, 82.85107
624.0710, 47.32666
625.2370, 55.67969
626.4030, 56.56250
627.5690, 42.75098
628.7340, 120.6221
629.9000, 5.101563
631.0650, 10.31152
632.2300, 99.31250
633.3950, 115.2852
634.5600, 46.81201
635.7240, 55.40039
636.8890, 44.16992
638.0530, 30.45996
639.2170, 55.13330
640.3810, 25.12207
641.5450, 9.840820
642.7080, 21.55322
643.8720, 55.79346
645.0350, 77.62695
646.1980, 88.76660
647.3610, 18.87842
648.5240, 52.03760
649.6870, 10.74463
650.8490, 9.033691
652.0120, 2.218750
653.1740, 35.03760
654.3360, 10.23438
655.4980, 50.83887
656.6600, 102.4263
657.8210, 33.26562
658.9830, 54.62305
660.1440, 38.54297
661.3050, 26.99268
662.4660, 122.7847
663.6270, 66.77148
664.7870, 9.915527
665.9480, 209.2578
667.1080, 72.90039
668.2680, 138.0112
669.4280, 51.09766
670.5880, 102.1772
671.7480, 269.2471
672.9070, 114.2705
674.0670, 89.63135
675.2260, 243.7646
676.3850, 217.6035
677.5440, 232.9082
678.7030, 277.2124
679.8610, 291.1846
681.0200, 313.0171
682.1780, 332.0688
683.3360, 288.5469
684.4940, 465.3286
685.6520, 530.1392
686.8090, 471.9556
687.9670, 661.3906
689.1240, 718.9595
690.2810, 799.6870
691.4380, 756.5312
692.5950, 834.0850
693.7520, 1002.797
694.9080, 1127.412
696.0650, 1151.801
697.2210, 1406.160
698.3770, 1473.487
699.5330, 1646.940
700.6880, 1831.206
701.8440, 1928.440
702.9990, 1981.949
704.1550, 2156.125
705.3100, 2062.506
706.4650, 2060.614
707.6190, 2043.688
708.7740, 1910.731
709.9290, 1826.742
711.0830, 1606.852
712.2370, 1374.797
713.3910, 1329.924
714.5450, 1255.194
715.6980, 1209.041
716.8520, 1117.950
718.0050, 1092.769
719.1580, 1056.515
720.3110, 866.2319
721.4640, 787.9111
722.6170, 747.5557
723.7700, 690.1675
724.9220, 472.8589
726.0740, 607.1406
727.2260, 685.6494
728.3780, 484.1230
729.5300, 433.5630
730.6810, 313.1172
731.8330, 407.5444
732.9840, 335.8799
734.1350, 344.1802
735.2860, 251.4458
736.4370, 325.6753
737.5880, 259.8687
738.7380, 262.0269
739.8880, 416.1484
741.0390, 291.2349
742.1890, 435.3545
743.3380, 289.6841
744.4880, 269.6636
745.6380, 237.6060
746.7870, 227.5107
747.9360, 243.3765
749.0850, 334.2036
750.2340, 321.9951
751.3830, 358.7500
752.5310, 317.6782
753.6800, 328.3604
754.8280, 325.5747
755.9760, 266.4053
757.1240, 331.4092
758.2720, 281.2021
759.4190, 314.8838
760.5670, 238.3213
761.7140, 164.3320
762.8610, 294.1367
764.0080, 148.4854
765.1550, 162.1587
766.3020, 219.9346
767.4480, 151.4624
768.5950, 156.4722
769.7410, 154.0264
770.8870, 177.1143
772.0330, 113.1797
773.1780, 108.1650
774.3240, 88.55664
775.4690, 6.111816
776.6140, 91.50146
777.7590, 45.58252
778.9040, 95.32812
780.0490, 53.00293
781.1940, 144.7920
782.3380, 45.47510
783.4820, 104.0029
784.6260, 81.50049
785.7700, 145.0615
786.9140, 8.573730
788.0580, 87.63037
789.2010, 231.5391
790.3450, 79.76025
791.4880, 112.9966
792.6310, 65.62891
793.7730, 25.81689
794.9160, 81.16260
796.0590, 30.40039
797.2010, 55.79785
798.3430, 9.623047
799.4850, 0.5278320
800.6270, 37.14160
801.7690, 19.95068
802.9100, 88.06445
804.0520, 44.03125
805.1930, 133.1206
806.3340, 121.2998
807.4750, 108.8691
808.6160, 100.4688
809.7560, 104.3115
810.8970, 40.06104
812.0370, 60.26514
813.1770, 1.033203
814.3170, 30.76953
815.4570, 27.51953
816.5960, 64.14600
817.7360, 89.78809
818.8750, 26.59229
820.0140, 3.983887
821.1530, 6.467773
822.2920, 25.95166
823.4310, 53.52295
824.5690, 54.02441
825.7070, 136.3730
826.8460, 49.75000
827.9840, 28.10449
829.1220, 28.56396
830.2590, 32.27148
831.3970, 41.97949
832.5340, 150.2100
833.6710, 173.4209
834.8080, 177.1250
835.9450, 44.78467
837.0820, 97.93701
838.2190, 95.07080
839.3550, 15.18604
840.4910, 74.27979
841.6270, 19.35498
842.7630, 97.41113
843.8990, 76.44922
845.0350, 99.46973
846.1700, 101.0674
847.3060, 33.45996
848.4410, 67.42822
849.5760, 10.38037
850.7100, 29.68555
851.8450, 129.2183
852.9800, 33.10645
854.1140, 44.97803
855.2480, 133.8335
856.3820, 49.67383
857.5160, 72.49902
858.6500, 54.30908
859.7830, 115.1040
860.9170, 15.88525
862.0500, 60.34912
863.1830, 118.3774
864.3160, 65.09033
865.4480, 45.78955
866.5810, 0.4765630
867.7130, 18.11523
868.8460, 66.80664
869.9780, 68.45215
871.1100, 75.08691
872.2410, 103.5571
873.3730, 88.16797
874.5050, 77.89844
875.6360, 128.1138
876.7670, 33.69043
877.8980, 0.2558590
879.0290, 14.19043
880.1590, 44.33691
881.2900, 133.7686
882.4200, 79.01953
883.5500, 18.17529
884.6800, 105.4541
885.8100, 15.95410
886.9400, 36.44482
888.0690, 81.92969
889.1990, 69.41064
890.3280, 26.11719
891.4570, 77.34814
892.5860, 14.30127
893.7140, 28.16650
894.8430, 4.599609
895.9710, 49.08789
897.1000, 120.4028
898.2280, 161.1245
899.3560, 54.65430
900.4830, 24.70508
901.6110, 53.11670
902.7380, 58.53857
903.8660, 16.64893
904.9930, 46.31787
906.1200, 182.2949
907.2460, 58.57031
908.3730, 18.34668
909.5000, 65.15234
910.6260, 165.7539
911.7520, 28.52979
912.8780, 124.3105
914.0040, 63.35840
915.1290, 64.42432
916.2550, 134.8154
917.3800, 36.57422
918.5050, 72.52100
919.6300, 82.82129
920.7550, 42.03027
921.8800, 92.76807
923.0040, 2.760254
924.1290, 176.2236
925.2530, 158.1934
926.3770, 43.69189
927.5010, 117.5283
928.6250, 84.05273
929.7480, 220.0352
930.8720, 153.7412
931.9950, 182.8975
933.1180, 272.4639
934.2410, 294.4834
935.3640, 172.1279
936.4860, 174.5547
937.6090, 241.7959
938.7310, 265.7998
939.8530, 380.4844
940.9750, 447.6719
942.0970, 597.8594
943.2180, 565.0234
944.3400, 795.1699
945.4610, 848.3428
946.5820, 1237.162
947.7030, 1363.186
948.8240, 1631.481
949.9450, 1772.290
951.0650, 1932.080
952.1860, 2233.180
953.3060, 2440.411
954.4260, 2418.402
955.5460, 2388.945
956.6650, 2268.164
957.7850, 2168.332
958.9040, 1966.473
960.0230, 1878.974
961.1420, 1744.319
962.2610, 1526.486
963.3800, 1539.513
964.4990, 1298.809
965.6170, 1341.925
966.7350, 1380.116
967.8530, 1395.512
968.9710, 1311.915
970.0890, 1398.329
971.2070, 1394.596
972.3240, 1462.027
973.4410, 1575.469
974.5580, 1696.634
975.6750, 1856.116
976.7920, 1988.371
977.9090, 2223.879
979.0250, 2538.395
980.1410, 2746.922
981.2580, 2951.460
982.3740, 3311.876
983.4890, 3510.435
984.6050, 3644.789
985.7200, 4053.979
986.8360, 4247.570
987.9510, 4643.078
989.0660, 4925.653
990.1810, 5243.279
991.2950, 5654.911
992.4100, 6013.561
993.5240, 6264.220
994.6390, 6003.893
995.7530, 5808.468
996.8660, 5631.430
997.9800, 5063.183
999.0940, 4542.949
1000.207, 4005.727
1001.320, 3336.368
1002.433, 2904.121
1003.546, 2409.942
1004.659, 1958.889
1005.772, 1674.737
1006.884, 1495.599
1007.996, 1401.473
1009.108, 1097.361
1010.220, 1050.264
1011.332, 836.1797
1012.444, 755.0410
1013.555, 598.6738
1014.666, 484.6318
1015.777, 558.4131
1016.888, 570.4004
1017.999, 539.4053
1019.110, 513.4248
1020.220, 537.4580
1021.331, 554.0527
1022.441, 568.1152
1023.551, 542.1895
1024.661, 472.7725
1025.770, 642.8770
1026.880, 530.8047
1027.989, 660.9600
1029.098, 705.1299
1030.207, 748.3135
1031.316, 851.5146
1032.425, 938.7344
1033.533, 930.4922
1034.642, 1128.450
1035.750, 1182.729
1036.858, 1206.642
1037.966, 1498.761
1039.073, 1741.126
1040.181, 1885.506
1041.288, 2188.902
1042.396, 2529.314
1043.503, 2920.746
1044.610, 3363.196
1045.716, 3924.738
1046.823, 4691.240
1047.929, 5208.734
1049.036, 5987.273
1050.142, 6667.830
1051.248, 7237.784
1052.353, 7600.393
1053.459, 7701.379
1054.564, 7672.020
1055.670, 7341.781
1056.775, 6924.049
1057.880, 6264.738
1058.985, 5798.439
1060.089, 5065.223
1061.194, 4490.952
1062.298, 3985.693
1063.402, 3476.451
1064.506, 3078.224
1065.610, 2721.119
1066.713, 2474.408
1067.817, 2077.231
1068.920, 1848.073
1070.023, 1596.224
1071.126, 1582.830
1072.229, 1249.728
1073.332, 1204.638
1074.435, 1247.562
1075.537, 975.4980
1076.639, 1041.457
1077.741, 940.4268
1078.843, 825.5723
1079.945, 732.2227
1081.046, 756.2275
1082.148, 677.2480
1083.249, 726.3506
1084.350, 706.4062
1085.451, 611.2021
1086.551, 593.2793
1087.652, 501.3770
1088.752, 507.4883
1089.853, 439.6152
1090.953, 469.7617
1092.053, 498.9199
1093.152, 615.1055
1094.252, 572.3066
1095.351, 668.5176
1096.451, 640.7393
1097.550, 604.9814
1098.649, 699.2432
1099.748, 606.5156
1100.846, 621.7979
1101.945, 752.0898
1103.043, 682.3906
1104.141, 634.7031
1105.239, 556.0234
1106.337, 508.9424
1107.434, 385.6641
1108.532, 391.0146
1109.629, 481.3730
1110.726, 242.7422
1111.823, 372.1201
1112.920, 264.5059
1114.017, 251.9004
1115.113, 192.3047
1116.210, 186.0576
1117.306, 218.1387
1118.402, 209.5762
1119.498, 239.0459
1120.593, 335.4756
1121.689, 279.9375
1122.784, 325.4082
1123.879, 319.8867
1124.974, 120.3730
1126.069, 216.8672
1127.164, 159.1885
1128.259, 230.6992
1129.353, 217.7861
1130.447, 94.32324
1131.541, 67.86816
1132.635, 125.4199
1133.729, 118.9102
1134.822, 58.47559
1135.916, 6.952148
1137.009, 160.6250
1138.102, 58.20996
1139.195, 90.79980
1140.288, 117.3965
1141.380, 40.99902
1142.473, 77.60742
1143.565, 157.5762
1144.657, 61.19629
1145.749, 68.82422
1146.841, 53.54199
1147.932, 85.08008
1149.024, 64.80664
1150.115, 4.440430
1151.206, 107.0791
1152.297, 20.27637
1153.388, 36.36719
1154.479, 113.0166
1155.569, 101.6699
1156.659, 92.33203
1157.750, 108.1143
1158.839, 3.645508
1159.929, 99.32031
1161.019, 48.00977
1162.108, 63.94238
1163.198, 94.35938
1164.287, 85.42969
1165.376, 29.77051
1166.465, 45.89062
1167.553, 117.8086
1168.642, 81.53320
1169.730, 121.6572
1170.818, 158.8926
1171.906, 57.02148
1172.994, 176.7061
1174.082, 153.4150
1175.170, 24.10547
1176.257, 1.353516
1177.344, 51.04590
1178.431, 41.25879
1179.518, 81.41797
1180.605, 24.09863
1181.691, 121.7783
1182.778, 18.46387
1183.864, 27.84863
1184.950, 23.82617
1186.036, 1.501953
1187.122, 47.82227
1188.207, 30.83008
1189.292, 65.48340
1190.378, 19.86328
1191.463, 80.78125
1192.548, 139.4248
1193.632, 83.07031
1194.717, 14.03125
1195.801, 3.676758
1196.886, 57.67969
1197.970, 49.93359
1199.054, 17.54688
1200.137, 89.15918
1201.221, 28.77148
1202.305, 80.38281
1203.388, 24.99414
1204.471, 88.23438
1205.554, 183.8438
1206.637, 52.28027
1207.719, 32.88867
1208.802, 30.50488
1209.884, 4.918945
1210.966, 97.65820
1212.048, 45.26953
1213.130, 10.84375
1214.212, 99.46387
1215.293, 36.96582
1216.374, 39.57910
1217.456, 104.1201
1218.536, 77.65918
1219.617, 90.19824
1220.698, 64.73438
1221.778, 46.26758
1222.859, 90.79883
1223.939, 51.48047
1225.019, 81.00781
1226.099, 61.53320
1227.178, 131.0557
1228.258, 118.5742
1229.337, 148.5986
1230.417, 90.60352
1231.496, 169.1133
1232.574, 117.6201
1233.653, 61.12402
1234.732, 165.6240
1235.810, 58.87891
1236.888, 7.425781
1237.966, 99.01172
1239.044, 106.4443
1240.122, 145.0303
1241.199, 184.4824
1242.277, 166.8164
1243.354, 169.2461
1244.431, 175.6729
1245.508, 40.09668
1246.585, 75.51465
1247.661, 82.92871
1248.738, 60.33887
1249.814, 126.7568
1250.890, 72.15918
1251.966, 78.55566
1253.042, 199.9482
1254.117, 31.33594
1255.193, 124.7197
1256.268, 8.098633
1257.343, 126.4648
1258.418, 131.1738
1259.493, 188.1016
1260.567, 116.3701
1261.642, 160.6357
1262.716, 7.896484
1263.790, 174.1416
1264.864, 109.4395
1265.938, 188.5615
1267.011, 58.79297
1268.085, 168.0176
1269.158, 124.2393
1270.231, 170.4541
1271.304, 94.66309
1272.377, 23.86816
1273.450, 123.0635
1274.522, 54.28320
1275.594, 87.46777
1276.666, 53.83887
1277.738, 32.01172
1278.810, 84.17969
1279.882, 65.16406
1280.953, 73.49512
1282.025, 83.09766
1283.096, 59.24219
1284.167, 53.38086
1285.238, 100.5127
1286.308, 7.359375
1287.379, 21.25684
1288.449, 129.8154
1289.519, 135.0840
1290.589, 32.14355
1291.659, 144.1943
1292.729, 32.71191
1293.798, 9.251953
1294.868, 192.6836
1295.937, 75.30957
1297.006, 37.63770
1298.075, 14.42090
1299.143, 111.4951
1300.212, 83.40430
1301.280, 108.3076
1302.348, 44.20508
1303.416, 97.09570
1304.484, 20.98242
1305.552, 132.7969
1306.620, 157.6660
1307.687, 116.5557
1308.754, 101.4141
1309.821, 62.26562
1310.888, 178.1104
1311.955, 156.9512
1313.021, 192.4248
1314.088, 94.25586
1315.154, 120.9727
1316.220, 124.1982
1317.286, 93.86914
1318.352, 111.3184
1319.417, 103.5566
1320.483, 72.35645
1321.548, 114.1494
1322.613, 23.94043
1323.678, 153.7197
1324.743, 249.3887
1325.807, 116.6709
1326.872, 77.43262
1327.936, 289.1895
1329.000, 177.9395
1330.064, 204.6689
1331.128, 177.3936
1332.191, 13.11230
1333.255, 196.8232
1334.318, 24.47266
1335.381, 128.2129
1336.444, 127.8945
1337.507, 57.40625
1338.569, 162.4131
1339.632, 39.07227
1340.694, 154.7246
1341.756, 36.30273
1342.818, 169.9434
1343.880, 111.8506
1344.941, 231.4805
1346.003, 58.10547
1347.064, 159.7256
1348.125, 126.3389
1349.186, 158.9473
1350.247, 139.5498
1351.308, 0.5234380
1352.368, 135.0625
1353.428, 207.6426
1354.489, 93.21777
1355.549, 113.7881
1356.608, 282.3525
1357.668, 119.9121
1358.727, 173.4668
1359.787, 191.1562
1360.846, 234.7012
1361.905, 166.2402
1362.964, 147.7744
1364.022, 200.7148
1365.081, 95.85742
1366.139, 217.3760
1367.197, 167.8926
1368.255, 30.27148
1369.313, 186.7773
1370.371, 132.2627
1371.428, 179.7441
1372.486, 131.2197
1373.543, 87.69141
1374.600, 131.1602
1375.657, 217.6240
1376.713, 44.08496
1377.770, 177.5410
1378.826, 166.9951
1379.882, 128.4434
1380.938, 128.8877
1381.994, 152.3311
1383.050, 172.7686
1384.106, 198.3848
1385.161, 185.8154
1386.216, 248.6855
1387.271, 135.1104
1388.326, 66.53223
1389.381, 236.9502
1390.435, 54.43457
1391.490, 23.84766
1392.544, 71.25781
1393.598, 159.6670
1394.652, 150.0732
1395.705, 119.4766
1396.759, 198.8789
1397.812, 65.27930
1398.866, 114.6768
1399.919, 118.7188
1400.972, 30.11035
1402.024, 218.4980
1403.077, 223.8848
1404.129, 156.2793
1405.181, 47.57129
1406.233, 196.9600
1407.285, 269.3477
1408.337, 198.7344
1409.389, 209.0850
1410.440, 150.4346
1411.491, 105.7812
1412.542, 164.1270
1413.593, 140.4238
1414.644, 157.8379
1415.695, 29.81934
1416.745, 156.5127
1417.795, 235.6045
1418.845, 51.93652
1419.895, 139.1602
1420.945, 197.3740
1421.995, 269.7295
1423.044, 180.8311
1424.093, 84.49414
1425.142, 68.40234
1426.191, 48.57324
1427.240, 233.1406
1428.289, 106.4990
1429.337, 130.8359
1430.385, 216.1982
1431.433, 137.0068
1432.481, 156.3770
1433.529, 214.7500
1434.577, 258.1387
1435.624, 22.53027
1436.672, 221.9297
1437.719, 51.31836
1438.766, 157.8193
1439.812, 243.4990
1440.859, 121.0762
1441.905, 107.5000
1442.952, 81.97852
1443.998, 193.4316
1445.044, 123.8564
1446.090, 189.2656
1447.135, 94.65820
1448.181, 103.6377
1449.226, 264.0898
1450.271, 259.4707
1451.316, 175.8750
1452.361, 55.27148
1453.405, 204.6611
1454.450, 275.3848
1455.494, 91.77441
1456.538, 146.1191
1457.582, 77.43555
1458.626, 230.7305
1459.670, 229.0840
1460.713, 110.4443
1461.757, 124.7969
1462.800, 147.1436
1463.843, 134.1768
1464.886, 192.4941
1465.928, 66.80469
1466.971, 146.1084
1468.013, 121.4033
1469.055, 77.69238
1470.097, 278.0303
1471.139, 134.3691
1472.181, 240.5898
1473.222, 82.88672
1474.263, 86.17773
1475.305, 159.4639
1476.346, 9.271484
1477.386, 91.00195
1478.427, 148.2705
1479.468, 109.5391
1480.508, 41.86035
1481.548, 121.2324
1482.588, 211.6074
1483.628, 94.91016
1484.668, 3.714844
1485.707, 102.6562
1486.747, 86.02637
1487.786, 86.35547
1488.825, 219.7246
1489.864, 79.09180
1490.902, 41.45703
1491.941, 156.8203
1492.979, 51.81934
1494.017, 117.5547
1495.055, 168.4932
1496.093, 131.8760
1497.131, 38.25977
1498.168, 39.67480
1499.206, 199.1768
1500.243, 164.7139
1501.280, 264.2539
1502.317, 174.7959
1503.354, 92.34961
1504.390, 170.9062
1505.426, 153.4648
1506.463, 84.02441
1507.499, 96.57910
1508.535, 146.1328
1509.570, 31.68457
1510.606, 105.2393
1511.641, 185.7939
1512.676, 233.3574
1513.711, 216.9238
1514.746, 25.53516
1515.781, 104.1807
1516.816, 105.8340
1517.850, 226.4961
1518.884, 227.1787
1519.918, 115.8877
1520.952, 121.6094
1521.986, 263.3438
1523.019, 158.0918
1524.053, 89.85547
1525.086, 161.7891
1526.119, 23.57031
1527.152, 188.3701
1528.185, 168.1836
1529.217, 57.62012
1530.250, 140.4609
1531.282, 66.32031
1532.314, 169.2012
1533.346, 138.1992
1534.377, 181.9346
1535.409, 210.4521
1536.440, 55.54492
1537.472, 243.3672
1538.503, 140.1992
1539.534, 141.0410
1540.564, 232.8945
1541.595, 81.75879
1542.625, 143.6377
1543.656, 170.5283
1544.686, 49.43164
1545.716, 56.34473
1546.745, 81.26562
1547.775, 9.808594
1548.804, 112.1201
1549.834, 40.09570
1550.863, 23.07324
1551.892, 34.07422
1552.920, 78.07324
1553.949, 141.5645
1554.977, 53.12012
1556.006, 92.74316
1557.034, 87.44629
1558.062, 152.2422
1559.089, 55.14355
1560.117, 88.17578
1561.144, 109.6514
1562.172, 16.40625
1563.199, 2.421875
1564.226, 8.876953
1565.252, 56.28125
1566.279, 42.63867
1567.305, 58.67773
1568.332, 56.16699
1569.358, 77.80078
1570.384, 103.5664
1571.409, 0.2548830
1572.435, 0.0000000E+00
##END=



