##NAMES=Edingtonite
##RRUFFID=R040003
##IDEAL CHEMISTRY=Ba(Si_3_Al_2_)O_10_&#183;4H_2_O
##LOCALITY=Bohl, Sweden
##OWNER=RRUFF
##SOURCE=University of Arizona Mineral Museum
##DESCRIPTION=Colorless tetragonal prism
##STATUS=The identification of this mineral has been confirmed by X-ray diffraction and chemical analysis
##URL=rruff.info/R040003
##MEASURED CHEMISTRY=Ba_1.00_(Si_3.00_Al_2.00_)O_10_Â·4H_2_O; trace amounts of Na; H_2_O estimated by difference
##PIN_ID=m00029
##ORIENTATION=Laser parallel to c* (0 0 1). Fiducial mark perpendicular to laser is parallel to a [1 0 0]
119.947, 0.000
121.337, 42.471
122.727, 203.712
124.116, 737.882
125.506, 1382.680
126.895, 2158.549
128.284, 3199.592
129.673, 4322.335
131.062, 5794.299
132.450, 7263.392
133.838, 8808.196
135.226, 9667.466
136.614, 10370.887
138.001, 10418.605
139.388, 10799.918
140.775, 10843.687
142.162, 10979.111
143.549, 11195.863
144.935, 12384.063
146.321, 13313.660
147.707, 15353.936
149.093, 17744.246
150.478, 19985.113
151.863, 22889.773
153.248, 25168.637
154.633, 26010.594
156.018, 25864.043
157.402, 23997.109
158.786, 21248.301
160.170, 18177.541
161.554, 14905.031
162.937, 12621.210
164.320, 10436.958
165.703, 8672.543
167.086, 7399.045
168.469, 6347.510
169.851, 5578.035
171.233, 4938.421
172.615, 4356.777
173.996, 3822.391
175.378, 3333.153
176.759, 3162.635
178.140, 2841.301
179.521, 2619.899
180.901, 2343.895
182.281, 2360.797
183.662, 2213.146
185.041, 2207.216
186.421, 2050.255
187.800, 2116.352
189.180, 1904.293
190.558, 1814.104
191.937, 1754.022
193.316, 1719.533
194.694, 1593.095
196.072, 1466.528
197.450, 1408.420
198.827, 1360.380
200.205, 1172.418
201.582, 1134.537
202.959, 1136.952
204.336, 914.785
205.712, 1033.073
207.088, 982.267
208.465, 904.508
209.840, 625.929
211.216, 485.471
212.591, 441.637
213.967, 287.319
215.341, 289.096
216.716, 199.303
218.091, 130.362
219.465, 159.576
220.839, 130.994
222.213, 118.608
223.586, 180.589
224.960, 151.278
226.333, 185.092
227.706, 292.454
229.079, 379.350
230.451, 688.958
231.823, 1050.492
233.195, 975.579
234.567, 1250.812
235.939, 1040.951
237.310, 883.927
238.682, 362.303
240.052, 37.464
241.423, 243.639
242.794, 256.871
244.164, 406.245
245.534, 402.768
246.904, 415.436
248.274, 385.244
249.643, 524.177
251.012, 472.228
252.381, 477.395
253.750, 472.680
255.118, 399.158
256.487, 379.957
257.855, 382.125
259.223, 332.907
260.590, 311.541
261.958, 281.874
263.325, 199.488
264.692, 175.399
266.059, 35.571
267.425, 46.943
268.791, 127.417
270.158, 278.869
271.523, 449.152
272.889, 786.989
274.255, 941.212
275.620, 1067.702
276.985, 1298.377
278.350, 1379.170
279.714, 1256.032
281.078, 1061.923
282.443, 870.810
283.806, 580.668
285.170, 464.473
286.534, 340.201
287.897, 215.832
289.260, 90.347
290.623, 75.733
291.985, 39.020
293.348, 44.933
294.710, 113.012
296.072, 132.273
297.433, 39.715
298.795, 142.335
300.156, 47.164
301.517, 67.211
302.878, 99.495
304.239, 93.027
305.599, 33.805
306.959, 41.184
308.319, 50.042
309.679, 55.516
311.038, 15.872
312.398, 112.026
313.757, 113.985
315.116, 15.741
316.474, 33.277
317.833, 5.414
319.191, 94.661
320.549, 36.521
321.907, 56.177
323.264, 99.652
324.622, 51.957
325.979, 39.091
327.336, 81.053
328.692, 57.720
330.049, 102.982
331.405, 137.819
332.761, 143.240
334.117, 195.200
335.473, 181.784
336.828, 177.013
338.183, 193.925
339.538, 169.567
340.893, 258.006
342.247, 351.302
343.602, 225.511
344.956, 261.638
346.310, 377.680
347.663, 384.644
349.017, 418.525
350.370, 332.325
351.723, 453.024
353.076, 468.604
354.428, 474.024
355.780, 526.259
357.133, 581.320
358.484, 628.226
359.836, 693.961
361.188, 831.170
362.539, 920.222
363.890, 883.721
365.241, 939.763
366.591, 893.785
367.942, 853.543
369.292, 831.070
370.642, 799.794
371.992, 808.042
373.341, 788.760
374.691, 845.661
376.040, 870.866
377.388, 907.162
378.737, 939.953
380.086, 1064.513
381.434, 995.572
382.782, 1057.560
384.130, 1091.485
385.477, 1237.036
386.825, 1138.458
388.172, 1214.394
389.519, 1338.954
390.865, 1293.974
392.212, 1345.007
393.558, 1468.681
394.904, 1489.993
396.250, 1646.011
397.596, 1771.174
398.941, 1941.157
400.286, 2065.189
401.631, 2198.873
402.976, 2256.948
404.321, 2474.923
405.665, 2273.996
407.009, 2323.524
408.353, 2423.703
409.697, 2155.765
411.040, 1928.356
412.384, 1734.171
413.727, 1731.694
415.070, 1864.896
416.412, 1846.764
417.755, 2036.334
419.097, 2115.835
420.439, 2245.255
421.781, 2454.590
423.122, 2743.839
424.464, 2763.002
425.805, 3062.078
427.146, 3311.067
428.486, 3499.968
429.827, 3668.782
431.167, 3787.385
432.507, 3905.302
433.847, 3922.532
435.187, 3658.749
436.526, 3594.714
437.865, 3318.370
439.204, 3011.766
440.543, 2743.456
441.882, 2464.581
443.220, 2217.739
444.558, 2088.394
445.896, 1888.148
447.234, 1774.324
448.572, 1518.638
449.909, 1523.994
451.246, 1420.622
452.583, 1371.771
453.919, 1452.816
455.256, 1375.968
456.592, 1394.349
457.928, 1404.988
459.264, 1438.555
460.600, 1462.841
461.935, 1367.982
463.270, 1493.409
464.605, 1538.459
465.940, 1485.592
467.274, 1723.956
468.609, 1729.821
469.943, 1807.973
471.277, 1910.838
472.610, 2004.244
473.944, 2147.252
475.277, 2300.794
476.610, 2404.730
477.943, 2508.531
479.275, 2632.758
480.608, 2836.809
481.940, 3080.770
483.272, 3184.843
484.604, 3398.891
485.935, 3803.348
487.267, 3918.414
488.598, 4202.979
489.929, 4487.510
491.260, 4725.535
492.590, 5047.598
493.920, 5302.754
495.250, 5547.704
496.580, 5833.051
497.910, 5888.773
499.239, 6204.508
500.569, 5940.289
501.898, 6186.696
503.226, 5892.607
504.555, 6029.680
505.883, 5775.631
507.212, 5952.033
508.540, 5987.914
509.867, 6173.801
511.195, 6379.865
512.522, 6935.612
513.849, 7401.562
515.176, 8427.519
516.503, 9783.616
517.829, 11479.545
519.156, 13895.450
520.482, 17301.979
521.808, 21647.977
523.133, 28253.811
524.459, 36159.309
525.784, 46435.133
527.109, 56792.164
528.434, 57138.066
529.758, 57133.410
531.083, 57130.219
532.407, 52715.754
533.731, 42681.074
535.055, 33856.320
536.378, 26431.596
537.701, 20817.023
539.025, 16652.367
540.348, 13287.758
541.670, 10893.191
542.993, 9218.670
544.315, 7874.193
545.637, 6529.754
546.959, 5695.347
548.281, 5020.975
549.602, 4306.636
550.923, 3802.323
552.244, 3528.041
553.565, 3133.773
554.886, 2909.518
556.206, 2675.268
557.526, 2291.027
558.846, 2136.770
560.166, 1952.495
561.486, 1868.196
562.805, 1623.876
564.124, 1619.532
565.443, 1575.166
566.762, 1252.781
568.080, 1181.373
569.399, 1192.945
570.717, 1130.496
572.035, 1167.027
573.352, 1092.538
574.670, 1065.503
575.987, 958.506
577.304, 933.971
578.621, 902.429
579.938, 740.880
581.254, 818.335
582.570, 742.798
583.886, 712.273
585.202, 759.766
586.518, 724.265
587.833, 628.781
589.148, 684.306
590.463, 589.844
591.778, 571.395
593.093, 574.961
594.407, 505.536
595.721, 500.242
597.035, 514.698
598.349, 449.720
599.662, 488.315
600.976, 470.905
602.289, 416.492
603.602, 382.379
604.914, 459.975
606.227, 303.933
607.539, 295.987
608.851, 350.203
610.163, 274.428
611.475, 217.641
612.786, 229.701
614.097, 245.818
615.408, 197.876
616.719, 192.952
618.030, 116.013
619.340, 143.052
620.651, 145.167
621.961, 164.169
623.270, 177.213
624.580, 159.052
625.889, 88.285
627.199, 118.284
628.507, 71.552
629.816, 44.602
631.125, 82.896
632.433, 50.883
633.741, 105.910
635.049, 83.214
636.357, 32.656
637.664, 59.802
638.972, 2.095
640.279, 1.739
641.586, 25.544
642.893, 20.875
644.199, 72.842
645.505, 54.914
646.811, 53.959
648.117, 18.128
649.423, 59.366
650.728, 54.810
652.034, 16.507
653.339, 84.087
654.644, 36.954
655.948, 32.963
657.253, 3.542
658.557, 31.315
659.861, 31.083
661.165, 34.071
662.468, 4.294
663.772, 32.548
665.075, 98.985
666.378, 21.325
667.681, 62.150
668.983, 0.241
670.286, 110.113
671.588, 54.457
672.890, 70.522
674.192, 120.913
675.493, 141.908
676.795, 172.204
678.096, 122.621
679.397, 237.569
680.697, 240.791
681.998, 188.818
683.298, 302.189
684.598, 257.490
685.898, 282.503
687.198, 421.653
688.498, 431.544
689.797, 503.351
691.096, 586.289
692.395, 673.352
693.694, 853.339
694.992, 865.079
696.290, 1201.973
697.589, 1308.757
698.886, 1533.438
700.184, 1908.314
701.482, 2052.958
702.779, 2497.910
704.076, 2702.515
705.373, 2917.100
706.669, 3072.090
707.966, 2876.691
709.262, 2681.358
710.558, 2396.117
711.854, 2150.605
713.150, 1825.143
714.445, 1649.592
715.740, 1434.361
717.035, 1379.140
718.330, 1093.721
719.625, 1048.159
720.919, 944.591
722.214, 836.922
723.508, 790.271
724.801, 587.561
726.095, 636.832
727.388, 459.083
728.682, 318.312
729.975, 346.782
731.267, 329.971
732.560, 222.138
733.852, 258.285
735.145, 155.410
736.437, 242.656
737.728, 45.738
739.020, 137.795
740.311, 156.829
741.603, 174.842
742.894, 74.834
744.184, 142.800
745.475, 61.745
746.765, 40.688
748.055, 6.580
749.345, 5.445
750.635, 7.573
751.925, 41.089
753.214, 29.870
754.503, 42.966
755.792, 39.352
757.081, 43.052
758.370, 46.946
759.658, 30.236
760.946, 53.856
762.234, 44.246
763.522, 52.402
764.809, 37.555
766.097, 51.824
767.384, 0.209
768.671, 37.350
769.958, 93.659
771.244, 47.455
772.530, 36.396
773.817, 106.430
775.102, 2.579
776.388, 4.327
777.674, 44.826
778.959, 142.352
780.244, 53.943
781.529, 110.407
782.814, 117.313
784.098, 54.680
785.383, 40.272
786.667, 21.194
787.951, 68.848
789.235, 67.427
790.518, 122.074
791.801, 117.962
793.084, 42.596
794.367, 54.489
795.650, 77.443
796.933, 16.403
798.215, 13.369
799.497, 48.691
800.779, 29.434
802.061, 25.704
803.342, 64.136
804.624, 81.262
805.905, 37.005
807.186, 57.235
808.466, 57.937
809.747, 40.133
811.027, 21.301
812.307, 36.530
813.587, 178.572
814.867, 81.307
816.146, 19.797
817.426, 152.757
818.705, 53.814
819.984, 91.850
821.263, 13.861
822.541, 24.850
823.819, 82.812
825.098, 48.753
826.375, 100.671
827.653, 25.433
828.931, 81.434
830.208, 38.721
831.485, 62.090
832.762, 118.881
834.039, 77.350
835.315, 73.621
836.592, 115.066
837.868, 62.735
839.144, 124.382
840.420, 37.010
841.695, 144.614
842.970, 151.200
844.246, 14.767
845.521, 93.310
846.795, 74.832
848.070, 50.337
849.344, 135.818
850.618, 88.282
851.892, 139.727
853.166, 29.152
854.440, 22.557
855.713, 59.938
856.986, 86.300
858.259, 82.567
859.532, 132.964
860.804, 91.271
862.077, 147.311
863.349, 167.827
864.621, 147.078
865.893, 150.312
867.164, 40.529
868.436, 132.726
869.707, 104.905
870.978, 185.068
872.248, 236.214
873.519, 63.343
874.789, 148.453
876.060, 139.114
877.330, 150.188
878.599, 201.250
879.869, 132.296
881.138, 123.033
882.408, 194.050
883.677, 84.701
884.945, 125.238
886.214, 115.609
887.482, 96.073
888.751, 256.312
890.019, 116.817
891.287, 177.258
892.554, 217.745
893.822, 158.203
895.089, 298.664
896.356, 179.133
897.623, 319.511
898.889, 159.986
900.156, 250.403
901.422, 210.846
902.688, 201.208
903.954, 361.624
905.220, 311.755
906.485, 222.089
907.750, 380.161
909.015, 270.522
910.280, 260.825
911.545, 358.567
912.809, 198.678
914.074, 338.802
915.338, 307.946
916.602, 234.815
917.865, 313.733
919.129, 301.331
920.392, 358.768
921.655, 277.652
922.918, 256.879
924.181, 357.048
925.443, 305.608
926.706, 354.195
927.968, 388.854
929.230, 288.906
930.491, 448.055
931.753, 436.925
933.014, 445.257
934.276, 525.383
935.536, 445.490
936.797, 624.497
938.058, 383.967
939.318, 573.524
940.578, 643.875
941.838, 684.304
943.098, 894.524
944.358, 834.853
945.617, 1053.679
946.876, 1143.926
948.135, 1363.598
949.394, 1723.833
950.653, 2064.452
951.911, 2332.747
953.169, 2892.900
954.427, 3213.502
955.685, 3157.237
956.943, 3264.288
958.200, 2894.416
959.458, 2684.591
960.715, 2525.033
961.971, 2245.318
963.228, 2065.841
964.485, 2035.434
965.741, 1885.874
966.997, 1935.168
968.253, 1985.516
969.508, 2016.090
970.764, 1854.488
972.019, 1992.974
973.274, 2053.537
974.529, 2243.885
975.784, 2444.447
977.039, 2754.678
978.293, 3065.246
979.547, 3585.809
980.801, 3825.948
982.055, 4216.453
983.308, 4786.872
984.562, 4817.181
985.815, 5177.737
987.068, 5558.219
988.321, 6038.766
989.573, 6638.971
990.826, 7149.145
992.078, 8109.490
993.330, 8749.959
994.582, 9350.411
995.833, 9460.944
997.085, 9161.444
998.336, 8391.983
999.587, 7262.529
1000.838, 6253.076
1002.088, 5253.632
1003.339, 4354.041
1004.589, 3764.592
1005.839, 3195.141
1007.089, 2545.688
1008.339, 2246.259
1009.588, 1966.665
1010.838, 1697.239
1012.087, 1637.953
1013.336, 1428.505
1014.584, 1239.266
1015.833, 1120.172
1017.081, 990.942
1018.330, 1192.004
1019.577, 1082.553
1020.825, 984.829
1022.073, 1105.612
1023.320, 946.192
1024.567, 1149.852
1025.814, 1060.747
1027.061, 1131.345
1028.308, 1181.973
1029.554, 1202.838
1030.800, 1413.704
1032.046, 1434.385
1033.292, 1295.000
1034.538, 1635.613
1035.783, 1466.625
1037.029, 1717.238
1038.274, 1877.976
1039.519, 2048.584
1040.763, 2470.583
1042.008, 2702.547
1043.252, 3101.873
1044.496, 3543.223
1045.740, 4083.844
1046.984, 4884.474
1048.228, 5755.490
1049.471, 6806.121
1050.714, 8006.916
1051.957, 8867.571
1053.200, 9788.230
1054.442, 10119.493
1055.685, 9690.302
1056.927, 9201.120
1058.169, 7883.117
1059.411, 7123.852
1060.652, 6094.535
1061.894, 5315.223
1063.135, 4295.920
1064.376, 4017.080
1065.617, 3427.791
1066.858, 2858.688
1068.098, 2702.076
1069.339, 2392.792
1070.579, 1983.847
1071.819, 2016.383
1073.058, 1657.686
1074.298, 1548.436
1075.537, 1269.558
1076.776, 1148.915
1078.015, 1122.454
1079.254, 973.140
1080.493, 914.415
1081.731, 885.227
1082.969, 895.996
1084.207, 868.112
1085.445, 778.775
1086.683, 869.559
1087.920, 650.482
1089.157, 731.133
1090.394, 662.244
1091.631, 725.486
1092.868, 656.113
1094.105, 757.277
1095.341, 618.495
1096.577, 709.099
1097.813, 942.040
1099.049, 783.294
1100.284, 994.005
1101.519, 985.142
1102.755, 906.337
1103.990, 857.380
1105.224, 688.295
1106.459, 809.218
1107.693, 569.862
1108.928, 581.744
1110.162, 502.481
1111.395, 456.077
1112.629, 422.085
1113.863, 369.854
1115.096, 358.925
1116.329, 299.709
1117.562, 331.440
1118.795, 311.888
1120.027, 402.346
1121.259, 832.813
1122.492, 780.227
1123.723, 805.703
1124.955, 914.511
1126.187, 525.296
1127.418, 446.172
1128.649, 97.276
1129.880, 228.757
1131.111, 100.573
1132.342, 202.910
1133.572, 164.833
1134.802, 197.277
1136.033, 68.005
1137.262, 158.498
1138.492, 109.224
1139.722, 169.946
1140.951, 90.481
1142.180, 102.345
1143.409, 93.802
1144.638, 64.523
1145.866, 115.189
1147.095, 56.594
1148.323, 29.459
1149.551, 60.528
1150.779, 2.596
1152.006, 162.965
1153.234, 55.296
1154.461, 65.348
1155.688, 145.743
1156.915, 113.442
1158.141, 49.989
1159.368, 200.211
1160.594, 113.551
1161.820, 64.402
1163.046, 64.521
1164.272, 104.991
1165.498, 225.240
1166.723, 145.440
1167.948, 35.637
1169.173, 185.782
1170.398, 95.506
1171.623, 155.597
1172.847, 34.502
1174.071, 65.962
1175.295, 86.318
1176.519, 55.000
1177.743, 256.286
1178.966, 135.969
1180.190, 45.741
1181.413, 165.879
1182.636, 96.046
1183.858, 166.435
1185.081, 255.910
1186.303, 5.226
1187.526, 104.921
1188.748, 104.181
1189.969, 26.586
1191.191, 122.715
1192.412, 141.884
1193.634, 211.028
1194.855, 235.008
1196.076, 39.616
1197.296, 169.019
1198.517, 98.452
1199.737, 82.470
1200.957, 206.861
1202.177, 65.792
1203.397, 45.307
1204.617, 13.763
1205.836, 133.057
1207.055, 52.123
1208.274, 181.033
1209.493, 30.230
1210.712, 148.565
1211.930, 17.232
1213.148, 116.248
1214.367, 125.118
1215.584, 26.306
1216.802, 152.403
1218.020, 120.909
1219.237, 89.468
1220.454, 158.347
1221.671, 46.765
1222.888, 74.851
1224.105, 174.240
1225.321, 32.543
1226.537, 20.812
1227.753, 169.307
1228.969, 62.482
1230.185, 17.553
1231.400, 126.749
1232.616, 35.226
1233.831, 23.625
1235.046, 51.739
1236.261, 79.815
1237.475, 77.775
1238.689, 135.696
1239.904, 16.414
1241.118, 111.436
1242.332, 90.747
1243.545, 187.010
1244.759, 4.738
1245.972, 52.437
1247.185, 90.102
1248.398, 12.261
1249.611, 175.348
1250.823, 152.928
1252.036, 148.227
1253.248, 138.049
1254.460, 115.515
1255.671, 112.939
1256.883, 70.335
1258.095, 47.696
1259.306, 15.014
1260.517, 5.475
1261.728, 20.479
1262.938, 43.304
1264.149, 26.124
1265.359, 49.038
1266.569, 58.008
1267.779, 104.860
1268.989, 51.792
1270.199, 48.686
1271.408, 85.542
1272.617, 27.658
1273.826, 10.877
1275.035, 36.171
1276.244, 42.708
1277.452, 10.631
1278.661, 74.223
1279.869, 2.133
1281.077, 41.544
1282.285, 84.453
1283.492, 29.092
1284.700, 25.625
1285.907, 61.800
1287.114, 8.143
1288.321, 108.628
1289.527, 77.332
1290.734, 106.449
1291.940, 0.296
1293.146, 85.588
1294.352, 21.432
1295.558, 47.426
1296.763, 53.454
1297.969, 49.444
1299.174, 54.996
1300.379, 140.914
1301.584, 56.672
1302.788, 92.496
1303.993, 6.893
1305.197, 12.364
1306.401, 167.895
1307.605, 3.243
1308.809, 108.886
1310.013, 84.498
1311.216, 19.690
1312.419, 15.232
1313.622, 0.579
1314.825, 126.047
1316.028, 221.481
1317.230, 66.287
1318.432, 421.527
1319.634, 216.729
1320.836, 130.720
1322.038, 255.938
1323.240, 161.184
1324.441, 156.396
1325.642, 71.575
1326.843, 78.768
1328.044, 66.193
1329.245, 136.282
1330.445, 68.666
1331.645, 173.687
1332.845, 178.334
1334.045, 101.470
1335.245, 45.808
1336.445, 88.089
1337.644, 115.120
1338.843, 199.960
1340.042, 123.268
1341.241, 248.053
1342.440, 62.221
1343.638, 86.819
1344.836, 181.428
1346.034, 104.656
1347.232, 259.305
1348.430, 123.808
1349.628, 48.136
1350.825, 192.705
1352.022, 206.779
1353.219, 8.690
1354.416, 153.184
1355.613, 157.109
1356.809, 81.189
1358.005, 135.614
1359.202, 42.332
1360.398, 7.857
1361.593, 50.882
1362.789, 59.463
1363.984, 113.158
1365.179, 113.600
1366.374, 130.880
1367.569, 154.756
1368.764, 198.923
1369.958, 312.417
1371.153, 262.756
1372.347, 156.801
1373.541, 231.438
1374.735, 146.092
1375.928, 190.198
1377.122, 255.485
1378.315, 140.487
1379.508, 185.089
1380.701, 218.933
1381.893, 111.222
1383.086, 272.292
1384.278, 154.367
1385.470, 268.443
1386.662, 172.340
1387.854, 193.751
1389.046, 187.186
1390.237, 197.115
1391.428, 205.298
1392.619, 100.164
1393.810, 233.261
1395.001, 102.273
1396.191, 121.840
1397.382, 254.371
1398.572, 137.021
1399.762, 159.893
1400.952, 163.254
1402.141, 146.273
1403.331, 27.996
1404.520, 300.629
1405.709, 143.748
1406.898, 255.508
1408.087, 67.648
1409.275, 180.756
1410.464, 244.394
1411.652, 147.855
1412.840, 241.421
1414.028, 163.884
1415.215, 266.649
1416.403, 219.529
1417.590, 202.613
1418.777, 174.836
1419.964, 239.718
1421.151, 171.081
1422.338, 213.760
1423.524, 316.218
1424.710, 259.261
1425.896, 241.655
1427.082, 263.433
1428.268, 396.498
1429.453, 269.048
1430.639, 376.633
1431.824, 218.152
1433.009, 340.636
1434.194, 263.409
1435.378, 336.152
1436.563, 298.888
1437.747, 421.588
1438.931, 364.217
1440.115, 446.750
1441.299, 359.104
1442.482, 441.627
1443.666, 424.107
1444.849, 356.587
1446.032, 489.128
1447.215, 481.566
1448.397, 474.182
1449.580, 386.894
1450.762, 459.595
1451.944, 431.403
1453.126, 454.087
1454.308, 456.422
1455.490, 489.104
1456.671, 321.738
1457.852, 344.361
1459.033, 346.966
1460.214, 449.567
1461.395, 332.147
1462.575, 494.714
1463.756, 377.290
1464.936, 219.862
1466.116, 402.632
1467.296, 255.433
1468.475, 448.236
1469.655, 221.049
1470.834, 323.882
1472.013, 277.944
1473.192, 219.638
1474.371, 112.565
1475.550, 365.513
1476.728, 128.529
1477.906, 241.597
1479.084, 194.706
1480.262, 197.870
1481.440, 251.104
1482.617, 244.423
1483.795, 7.819
1484.972, 191.300
1486.149, 274.879
1487.326, 38.572
1488.502, 322.398
1489.679, 76.376
1490.855, 240.537
1492.031, 260.951
1493.207, 54.864
1494.383, 267.154
1495.559, 50.415
1496.734, 6.088
1497.909, 315.113
1499.084, 0.000
##END=



