##NAMES=Edingtonite
##RRUFFID=R040110
##IDEAL CHEMISTRY=Ba(Si_3_Al_2_)O_10_&#183;4H_2_O
##LOCALITY=2350 level, Brunswick 12 mine, Bathhurst, New Brunswick, Canada
##OWNER=RRUFF
##SOURCE=National Museums of Canada
##DESCRIPTION=Colorless rectangular prism
##STATUS=The identification of this mineral has been confirmed by X-ray diffraction and chemical analysis
##URL=rruff.info/R040110
##MEASURED CHEMISTRY=Ba_1.00_(Si_3.00_Al_2.00_)O_10_Â·4H_2_O
##PIN_ID=L01449
##ORIENTATION=Laser parallel to b* (0 1 0). Fiducial mark perpendicular to laser is parallel to c [0 0 1]
91.01200, 0.0000000E+00
92.24600, 69.66895
93.48000, 28.38867
94.71400, 47.88281
95.94800, 191.1304
97.18200, 259.2686
98.41600, 458.4116
99.64900, 747.5488
100.8830, 933.7295
102.1160, 1185.285
103.3490, 1495.550
104.5820, 2012.701
105.8150, 2432.287
107.0470, 3225.987
108.2800, 3440.565
109.5120, 4215.311
110.7440, 4125.125
111.9760, 4317.396
113.2080, 4863.618
114.4400, 5361.663
115.6710, 5956.495
116.9030, 6400.164
118.1340, 6912.320
119.3650, 6833.410
120.5960, 7255.974
121.8270, 7722.629
123.0580, 8314.071
124.2880, 8827.042
125.5190, 9351.327
126.7490, 10229.75
127.9790, 11178.15
129.2090, 12733.39
130.4390, 14362.35
131.6680, 15996.95
132.8980, 17715.11
134.1270, 19145.03
135.3560, 19846.04
136.5850, 19704.52
137.8140, 18864.12
139.0430, 17469.18
140.2710, 15559.73
141.5000, 13552.18
142.7280, 11804.12
143.9560, 10476.02
145.1840, 9128.180
146.4120, 8245.645
147.6390, 7503.469
148.8670, 7092.701
150.0940, 6802.381
151.3210, 6624.547
152.5490, 6537.234
153.7750, 6471.474
155.0020, 6418.292
156.2290, 6124.709
157.4550, 5681.749
158.6810, 5278.427
159.9080, 4752.764
161.1340, 4170.776
162.3590, 3498.476
163.5850, 2808.878
164.8110, 2596.934
166.0360, 2143.520
167.2610, 1824.775
168.4860, 1540.797
169.7110, 1276.648
170.9360, 1045.373
172.1610, 902.0039
173.3850, 771.5669
174.6100, 638.0815
175.8340, 559.5605
177.0580, 462.4209
178.2820, 502.1875
179.5050, 463.8452
180.7290, 472.9668
181.9520, 368.9834
183.1760, 391.6533
184.3990, 349.9131
185.6220, 381.7759
186.8450, 457.3193
188.0670, 424.2095
189.2900, 509.4048
190.5120, 557.0830
191.7340, 488.2510
192.9560, 481.2568
194.1780, 547.1460
195.4000, 544.6685
196.6220, 499.9082
197.8430, 435.6016
199.0640, 423.3887
200.2860, 423.2651
201.5070, 398.2251
202.7270, 251.2627
203.9480, 320.3735
205.1690, 102.5542
206.3890, 176.7993
207.6090, 105.1040
208.8290, 149.4609
210.0490, 159.8579
211.2690, 179.2886
212.4890, 241.7456
213.7080, 250.2510
214.9280, 294.7642
216.1470, 296.2871
217.3660, 340.8076
218.5850, 455.3037
219.8030, 675.7754
221.0220, 639.2236
222.2400, 804.6484
223.4590, 987.0508
224.6770, 1356.431
225.8950, 1727.787
227.1120, 2355.121
228.3300, 3015.433
229.5480, 4008.723
230.7650, 5422.989
231.9820, 7484.233
233.1990, 10274.46
234.4160, 13753.65
235.6330, 16975.83
236.8490, 18782.99
238.0660, 18157.83
239.2820, 15329.22
240.4980, 11606.69
241.7140, 8133.384
242.9300, 5889.191
244.1460, 4252.908
245.3610, 2859.384
246.5770, 2028.506
247.7920, 1632.182
249.0070, 1156.338
250.2220, 917.9116
251.4370, 679.8511
252.6510, 410.1123
253.8660, 305.6543
255.0800, 303.4438
256.2940, 151.4531
257.5080, 234.6562
258.7220, 119.8315
259.9360, 183.5615
261.1490, 4.225098
262.3630, 52.00830
263.5760, 43.17188
264.7890, 130.2803
266.0020, 139.3701
267.2150, 150.4570
268.4270, 144.2471
269.6400, 136.7021
270.8520, 94.80762
272.0640, 117.9688
273.2760, 135.1650
274.4880, 155.4053
275.7000, 71.69971
276.9120, 70.03223
278.1230, 125.4072
279.3340, 192.8408
280.5450, 289.3560
281.7560, 245.9897
282.9670, 320.7422
284.1780, 263.6445
285.3880, 302.6943
286.5980, 364.9180
287.8090, 263.3452
289.0190, 264.9575
290.2290, 273.7568
291.4380, 99.74170
292.6480, 156.8667
293.8570, 105.1421
295.0670, 110.5547
296.2760, 11.10303
297.4850, 2.239258
298.6930, 198.4775
299.9020, 222.6455
301.1110, 328.7466
302.3190, 491.7842
303.5270, 585.7617
304.7350, 746.6797
305.9430, 847.5391
307.1510, 922.3433
308.3580, 1211.091
309.5660, 1275.785
310.7730, 1431.426
311.9800, 1637.017
313.1870, 1610.559
314.3940, 1668.053
315.6010, 1745.500
316.8070, 1792.899
318.0130, 1756.583
319.2200, 1674.561
320.4260, 1606.821
321.6310, 1521.037
322.8370, 1359.135
324.0430, 1335.062
325.2480, 1143.768
326.4540, 1099.255
327.6590, 1008.550
328.8640, 1038.623
330.0680, 943.7529
331.2730, 852.5947
332.4780, 760.9375
333.6820, 733.4404
334.8860, 763.1807
336.0900, 757.5806
337.2940, 826.8115
338.4980, 876.5518
339.7010, 914.1953
340.9050, 827.5459
342.1080, 994.1489
343.3110, 1018.743
344.5140, 1002.325
345.7170, 1132.908
346.9200, 1222.479
348.1220, 1224.046
349.3240, 1344.614
350.5270, 1510.181
351.7290, 1716.739
352.9310, 1902.282
354.1320, 2087.812
355.3340, 2453.327
356.5350, 2610.830
357.7370, 3049.317
358.9380, 3333.792
360.1390, 3457.250
361.3400, 3531.695
362.5400, 3429.127
363.7410, 3474.545
364.9410, 3124.950
366.1410, 2842.342
367.3410, 2539.721
368.5410, 2191.086
369.7410, 1848.438
370.9400, 1588.779
372.1400, 1360.108
373.3390, 1181.425
374.5380, 985.7300
375.7370, 912.0229
376.9360, 832.3052
378.1350, 756.5767
379.3330, 596.8354
380.5310, 790.0840
381.7300, 668.3228
382.9280, 745.5835
384.1260, 674.8584
385.3230, 664.1431
386.5210, 674.4272
387.7180, 734.7051
388.9160, 675.9722
390.1130, 636.2251
391.3100, 752.4604
392.5060, 661.6763
393.7030, 840.8701
394.9000, 758.0396
396.0960, 858.1836
397.2920, 975.2993
398.4880, 1162.387
399.6840, 1362.444
400.8800, 1625.471
402.0750, 1889.466
403.2710, 1971.428
404.4660, 2284.357
405.6610, 2391.926
406.8560, 2353.206
408.0510, 2395.756
409.2450, 2404.960
410.4400, 2226.384
411.6340, 2091.914
412.8280, 2168.565
414.0220, 2208.417
415.2160, 2123.483
416.4100, 2132.954
417.6030, 2282.182
418.7970, 2440.991
419.9900, 2609.472
421.1830, 2853.821
422.3760, 3174.699
423.5690, 3353.318
424.7610, 3726.620
425.9540, 3981.390
427.1460, 4278.220
428.3380, 4664.390
429.5300, 5150.872
430.7220, 5527.219
431.9140, 5765.718
433.1050, 5913.899
434.2970, 6240.317
435.4880, 6060.458
436.6790, 6092.814
437.8700, 5697.226
439.0610, 5471.112
440.2510, 4895.845
441.4420, 4520.210
442.6320, 4127.523
443.8220, 3734.135
445.0120, 3465.198
446.2020, 3054.251
447.3910, 2734.292
448.5810, 2379.324
449.7700, 2093.346
450.9600, 1831.842
452.1490, 1692.360
453.3370, 1415.353
454.5260, 1276.338
455.7150, 1194.315
456.9030, 975.2827
458.0910, 926.2437
459.2800, 674.1963
460.4670, 575.1421
461.6550, 501.0806
462.8430, 445.0127
464.0300, 303.9385
465.2180, 295.8574
466.4050, 264.7705
467.5920, 180.6797
468.7790, 63.58594
469.9650, 47.48975
471.1520, 39.39600
472.3380, 10.69873
473.5250, 7.795410
474.7110, 12.10791
475.8970, 84.98535
477.0820, 4.091309
478.2680, 2.189941
479.4540, 63.27246
480.6390, 38.35889
481.8240, 33.55713
483.0090, 56.47266
484.1940, 131.5127
485.3780, 165.8032
486.5630, 159.7803
487.7470, 240.6387
488.9320, 286.6416
490.1160, 435.6855
491.3000, 440.9336
492.4830, 645.4863
493.6670, 687.4678
494.8500, 665.6416
496.0340, 753.8345
497.2170, 950.0659
498.4000, 937.3306
499.5820, 1058.626
500.7650, 1130.957
501.9480, 1235.328
503.1300, 1377.750
504.3120, 1536.202
505.4940, 1706.700
506.6760, 1958.229
507.8580, 2207.783
509.0390, 2335.367
510.2210, 2686.966
511.4020, 3184.610
512.5830, 3629.287
513.7640, 4178.980
514.9450, 4999.696
516.1250, 5874.433
517.3060, 7224.203
518.4860, 8909.997
519.6660, 10764.81
520.8460, 13412.63
522.0260, 16563.48
523.2060, 20652.36
524.3850, 25928.24
525.5650, 32127.15
526.7440, 39434.06
527.9230, 45543.00
529.1020, 50502.95
530.2810, 51787.91
531.4590, 50001.89
532.6380, 45019.88
533.8160, 38891.88
534.9940, 31952.90
536.1720, 26192.94
537.3500, 21213.99
538.5270, 17136.06
539.7050, 14054.14
540.8820, 11352.24
542.0590, 9424.353
543.2360, 7804.479
544.4130, 6707.623
545.5900, 5603.779
546.7660, 4909.953
547.9430, 4080.154
549.1190, 3706.404
550.2950, 3069.698
551.4710, 2776.059
552.6470, 2442.490
553.8220, 2180.994
554.9980, 1953.570
556.1730, 1690.218
557.3480, 1566.929
558.5230, 1401.708
559.6980, 1181.565
560.8730, 1079.503
562.0470, 936.5000
563.2220, 875.5566
564.3960, 752.6890
565.5700, 711.9141
566.7440, 712.2593
567.9170, 630.7134
569.0910, 614.3652
570.2640, 496.9946
571.4380, 532.8193
572.6110, 501.7876
573.7840, 436.8745
574.9570, 418.0801
576.1290, 367.4082
577.3020, 442.8130
578.4740, 407.3115
579.6460, 464.8896
580.8180, 389.5498
581.9900, 482.2671
583.1620, 432.0386
584.3330, 455.8325
585.5040, 488.6475
586.6760, 648.4810
587.8470, 585.3320
589.0180, 650.2021
590.1880, 792.0894
591.3590, 738.9951
592.5290, 882.9189
593.7000, 949.8604
594.8700, 1112.819
596.0400, 1209.795
597.2090, 1416.789
598.3790, 1481.801
599.5490, 1541.831
600.7180, 1688.877
601.8870, 1650.941
603.0560, 1771.022
604.2250, 1713.121
605.3940, 1564.235
606.5620, 1582.368
607.7300, 1193.518
608.8990, 1251.845
610.0670, 909.0283
611.2350, 834.0181
612.4020, 557.2354
613.5700, 512.3716
614.7370, 531.8721
615.9050, 458.3398
617.0720, 364.8940
618.2390, 137.8423
619.4060, 164.5249
620.5720, 63.68945
621.7390, 48.22119
622.9050, 1.087891
624.0710, 0.9868160
625.2370, 24.59326
626.4030, 8.874512
627.5690, 108.6177
628.7340, 37.28662
629.9000, 85.97754
631.0650, 114.3472
632.2300, 96.21729
633.3950, 45.45703
634.5600, 47.06152
635.7240, 63.79297
636.8890, 148.5552
638.0530, 130.9185
639.2170, 263.7515
640.3810, 260.3789
641.5450, 256.4312
642.7080, 381.9751
643.8720, 536.1719
645.0350, 518.7734
646.1980, 755.2891
647.3610, 1005.418
648.5240, 1135.862
649.6870, 1363.976
650.8490, 1685.186
652.0120, 1853.945
653.1740, 1954.131
654.3360, 2344.272
655.4980, 2544.809
656.6600, 2644.651
657.8210, 2621.548
658.9830, 2642.421
660.1440, 2424.234
661.3050, 2179.694
662.4660, 2109.998
663.6270, 1760.195
664.7870, 1620.819
665.9480, 1281.664
667.1080, 1078.593
668.2680, 902.2085
669.4280, 756.6519
670.5880, 624.2715
671.7480, 480.1553
672.9070, 405.7773
674.0670, 344.8823
675.2260, 346.1221
676.3850, 268.8916
677.5440, 216.7949
678.7030, 233.5483
679.8610, 175.2354
681.0200, 146.0146
682.1780, 141.6416
683.3360, 105.4165
684.4940, 131.1318
685.6520, 102.7573
686.8090, 119.4888
687.9670, 157.9849
689.1240, 187.7729
690.2810, 109.2090
691.4380, 191.4521
692.5950, 157.1592
693.7520, 213.2812
694.9080, 302.0410
696.0650, 375.1089
697.2210, 456.4116
698.3770, 546.3296
699.5330, 644.7036
700.6880, 730.2871
701.8440, 858.9414
702.9990, 968.9282
704.1550, 1131.557
705.3100, 1291.288
706.4650, 1460.987
707.6190, 1724.526
708.7740, 1875.055
709.9290, 2096.632
711.0830, 2181.140
712.2370, 2305.793
713.3910, 2387.318
714.5450, 2669.790
715.6980, 2714.249
716.8520, 2679.692
718.0050, 2545.122
719.1580, 2475.536
720.3110, 2255.936
721.4640, 2004.318
722.6170, 1834.685
723.7700, 1576.035
724.9220, 1498.430
726.0740, 1275.748
727.2260, 1034.488
728.3780, 823.7705
729.5300, 782.2539
730.6810, 580.5024
731.8330, 646.7324
732.9840, 534.9443
734.1350, 501.1392
735.2860, 467.0713
736.4370, 327.7432
737.5880, 336.8823
738.7380, 298.0020
739.8880, 191.1558
741.0390, 289.2373
742.1890, 144.3784
743.3380, 137.4214
744.4880, 84.44385
745.6380, 104.4619
746.7870, 53.57520
747.9360, 95.53613
749.0850, 17.63330
750.2340, 116.5449
751.3830, 64.50684
752.5310, 37.37695
753.6800, 59.22314
754.8280, 31.86719
755.9760, 31.30469
757.1240, 6.937988
758.2720, 0.7763670
759.4190, 18.46094
760.5670, 37.88184
761.7140, 1.174805
762.8610, 112.3511
764.0080, 21.56006
765.1550, 91.31055
766.3020, 45.48828
767.4480, 17.99268
768.5950, 1.459961
769.7410, 43.29980
770.8870, 134.4761
772.0330, 51.11865
773.1780, 5.993652
774.3240, 67.78125
775.4690, 44.78516
776.6140, 37.84961
777.7590, 49.98145
778.9040, 72.18359
780.0490, 110.3291
781.1940, 24.71387
782.3380, 93.72852
783.4820, 28.26514
784.6260, 5.861328
785.7700, 26.50586
786.9140, 49.79102
788.0580, 85.94287
789.2010, 29.14014
790.3450, 49.97314
791.4880, 2.944824
792.6310, 33.05811
793.7730, 44.94238
794.9160, 21.98633
796.0590, 22.87695
797.2010, 93.73047
798.3430, 6.442871
799.4850, 13.33105
800.6270, 56.06445
801.7690, 139.7671
802.9100, 93.44385
804.0520, 84.09277
805.1930, 166.7129
806.3340, 41.30762
807.4750, 161.8687
808.6160, 91.40479
809.7560, 154.9126
810.8970, 66.39404
812.0370, 55.84570
813.1770, 113.2656
814.3170, 90.65918
815.4570, 118.0234
816.5960, 134.3613
817.7360, 112.6729
818.8750, 165.9570
820.0140, 114.2144
821.1530, 128.4453
822.2920, 161.6494
823.4310, 124.8271
824.5690, 38.97754
825.7070, 111.0952
826.8460, 42.18506
827.9840, 55.24121
829.1220, 129.2661
830.2590, 64.26416
831.3970, 115.2314
832.5340, 69.17236
833.6710, 93.08252
834.8080, 22.96533
835.9450, 89.80957
837.0820, 201.6265
838.2190, 133.4170
839.3550, 74.18164
840.4910, 135.9160
841.6270, 109.6250
842.7630, 115.3062
843.8990, 174.9604
845.0350, 177.5894
846.1700, 137.1924
847.3060, 165.7700
848.4410, 113.3213
849.5760, 140.8457
850.7100, 210.3447
851.8450, 189.8184
852.9800, 186.2666
854.1140, 228.6899
855.2480, 210.0874
856.3820, 167.4600
857.5160, 182.8071
858.6500, 160.1299
859.7830, 287.4277
860.9170, 133.7007
862.0500, 188.9482
863.1830, 65.17090
864.3160, 188.3652
865.4480, 94.53467
866.5810, 195.6782
867.7130, 214.7979
868.8460, 181.8926
869.9780, 158.9634
871.1100, 82.00977
872.2410, 183.0298
873.3730, 204.0259
874.5050, 161.9985
875.6360, 129.9473
876.7670, 160.8716
877.8980, 122.7725
879.0290, 157.6494
880.1590, 216.5029
881.2900, 136.3330
882.4200, 108.1396
883.5500, 184.7622
884.6800, 100.5220
885.8100, 147.4688
886.9400, 119.1816
888.0690, 167.7441
889.1990, 158.9873
890.3280, 113.4316
891.4570, 53.11328
892.5860, 149.1196
893.7140, 215.2437
894.8430, 157.7949
895.9710, 207.5879
897.1000, 85.26172
898.2280, 144.5195
899.3560, 172.9902
900.4830, 54.37988
901.6110, 18.72119
902.7380, 95.64502
903.8660, 72.73145
904.9930, 118.9077
906.1200, 138.5630
907.2460, 85.57080
908.3730, 120.8115
909.5000, 46.58252
910.6260, 181.6880
911.7520, 70.19531
912.8780, 115.0977
914.0040, 123.1997
915.1290, 40.12793
916.2550, 117.0361
917.3800, 34.45898
918.5050, 66.63330
919.6300, 37.80713
920.7550, 50.36035
921.8800, 22.59277
923.0040, 39.14990
924.1290, 65.39307
925.2530, 41.50146
926.3770, 79.96240
927.5010, 37.53760
928.6250, 43.55664
929.7480, 45.33936
930.8720, 36.06006
931.9950, 82.79883
933.1180, 95.59082
934.2410, 111.7310
935.3640, 141.6733
936.4860, 147.6050
937.6090, 169.3657
938.7310, 186.1030
939.8530, 154.7505
940.9750, 203.7041
942.0970, 229.8281
943.2180, 262.7769
944.3400, 351.4565
945.4610, 300.3896
946.5820, 481.8369
947.7030, 506.1421
948.8240, 684.9106
949.9450, 816.5493
951.0650, 936.3340
952.1860, 1149.179
953.3060, 1308.925
954.4260, 1481.816
955.5460, 1494.554
956.6650, 1598.350
957.7850, 1537.229
958.9040, 1393.011
960.0230, 1289.021
961.1420, 1155.735
962.2610, 1048.593
963.3800, 922.3276
964.4990, 843.8433
965.6170, 688.2129
966.7350, 590.9434
967.8530, 510.3564
968.9710, 452.9736
970.0890, 454.5928
971.2070, 346.1758
972.3240, 289.0439
973.4410, 348.8389
974.5580, 330.2905
975.6750, 287.0894
976.7920, 250.7754
977.9090, 203.4829
979.0250, 226.3384
980.1410, 214.1909
981.2580, 191.9824
982.3740, 280.8301
983.4890, 268.5186
984.6050, 300.3208
985.7200, 398.1611
986.8360, 267.0005
987.9510, 403.8384
989.0660, 337.6748
990.1810, 331.5098
991.2950, 293.3433
992.4100, 218.1758
993.5240, 190.0068
994.6390, 315.8374
995.7530, 347.6069
996.8660, 265.4355
997.9800, 266.8242
999.0940, 208.6519
1000.207, 288.2612
1001.320, 310.0894
1002.433, 308.9170
1003.546, 289.7676
1004.659, 235.5957
1005.772, 238.1533
1006.884, 195.9819
1007.996, 173.8120
1009.108, 229.6421
1010.220, 296.4209
1011.332, 203.2529
1012.444, 197.0088
1013.555, 186.8438
1014.666, 232.6851
1015.777, 222.5142
1016.888, 219.2290
1017.999, 229.0771
1019.110, 186.7769
1020.220, 226.6401
1021.331, 260.4346
1022.441, 247.3027
1023.551, 312.1758
1024.661, 303.0186
1025.770, 299.5283
1026.880, 263.4312
1027.989, 448.4800
1029.098, 383.4194
1030.207, 580.3677
1031.316, 441.2031
1032.425, 609.1895
1033.533, 653.1792
1034.642, 769.9321
1035.750, 810.3696
1036.858, 861.3135
1037.966, 986.8608
1039.073, 1047.240
1040.181, 1206.309
1041.288, 1322.407
1042.396, 1410.552
1043.503, 1687.786
1044.610, 1818.975
1045.716, 2194.183
1046.823, 2523.420
1047.929, 2896.687
1049.036, 3443.849
1050.142, 3991.191
1051.248, 4619.267
1052.353, 5125.672
1053.459, 5654.100
1054.564, 5907.560
1055.670, 6047.028
1056.775, 6133.839
1057.880, 5623.895
1058.985, 5301.435
1060.089, 4997.983
1061.194, 4546.578
1062.298, 4012.155
1063.402, 3855.760
1064.506, 3420.377
1065.610, 3034.005
1066.713, 2734.642
1067.817, 2404.298
1068.920, 2268.967
1070.023, 2017.730
1071.126, 1893.238
1072.229, 1648.930
1073.332, 1542.629
1074.435, 1437.149
1075.537, 1356.812
1076.639, 1232.368
1077.741, 1105.262
1078.843, 1012.425
1079.945, 943.1724
1081.046, 869.9307
1082.148, 947.9619
1083.249, 855.4697
1084.350, 908.2529
1085.451, 704.0488
1086.551, 608.8506
1087.652, 652.6597
1088.752, 624.9707
1089.853, 642.7949
1090.953, 557.0532
1092.053, 678.8901
1093.152, 566.3115
1094.252, 577.6562
1095.351, 632.5210
1096.451, 653.7021
1097.550, 666.8711
1098.649, 625.9614
1099.748, 714.8569
1100.846, 708.4336
1101.945, 790.3535
1103.043, 817.2856
1104.141, 727.2251
1105.239, 719.6592
1106.337, 650.6113
1107.434, 667.5728
1108.532, 543.6572
1109.629, 503.6313
1110.726, 548.6123
1111.823, 385.5986
1112.920, 399.5918
1114.017, 443.5903
1115.113, 297.5947
1116.210, 318.6055
1117.306, 376.6221
1118.402, 237.8237
1119.498, 199.8521
1120.593, 175.9375
1121.689, 199.9775
1122.784, 232.0229
1123.879, 206.0747
1124.974, 126.1313
1126.069, 168.1938
1127.164, 195.2622
1128.259, 141.3369
1129.353, 166.4165
1130.447, 123.5044
1131.541, 76.59814
1132.635, 72.69873
1133.729, 121.8047
1134.822, 2.083984
1135.916, 125.0332
1137.009, 110.1558
1138.102, 80.28467
1139.195, 102.4214
1140.288, 76.56348
1141.380, 78.05957
1142.473, 2.865723
1143.565, 86.02490
1144.657, 67.19141
1145.749, 94.47559
1146.841, 23.65527
1147.932, 48.83936
1149.024, 85.03027
1150.115, 17.74170
1151.206, 47.94336
1152.297, 60.15088
1153.388, 70.36377
1154.479, 88.26758
1155.569, 4.194824
1156.659, 83.03271
1157.750, 59.26709
1158.839, 8.308105
1159.929, 18.77734
1161.019, 72.03564
1162.108, 31.28760
1163.198, 26.57568
1164.287, 99.83740
1165.376, 17.10303
1166.465, 55.37451
1167.553, 44.65186
1168.642, 78.93359
1169.730, 15.51562
1170.818, 15.80713
1171.906, 4.102051
1172.994, 42.40332
1174.082, 10.29150
1175.170, 18.01514
1176.257, 84.32520
1177.344, 6.638672
1178.431, 52.95508
1179.518, 112.2734
1180.605, 38.60498
1181.691, 31.06104
1182.778, 8.286621
1183.864, 16.62207
1184.950, 4.0527001E-02
1186.036, 11.29785
1187.122, 11.36084
1188.207, 30.02148
1189.292, 27.32080
1190.378, 59.66455
1191.463, 118.0098
1192.548, 52.36084
1193.632, 41.71338
1194.717, 49.06641
1195.801, 39.42090
1196.886, 38.98730
1197.970, 61.13232
1199.054, 23.48975
1200.137, 2.152344
1201.221, 37.79492
1202.305, 23.54688
1203.388, 11.88867
1204.471, 18.76855
1205.554, 38.43262
1206.637, 61.88574
1207.719, 47.20508
1208.802, 9.476074
1209.884, 84.42285
1210.966, 22.44727
1212.048, 41.17578
1213.130, 14.87988
1214.212, 18.06250
1215.293, 78.65039
1216.374, 17.93799
1217.456, 83.22559
1218.536, 26.35791
1219.617, 49.22559
1220.698, 56.50195
1221.778, 27.74072
1222.859, 9.018066
1223.939, 24.78174
1225.019, 92.60938
1226.099, 53.16992
1227.178, 86.02100
1228.258, 23.70898
1229.337, 79.50000
1230.417, 24.89844
1231.496, 49.26025
1232.574, 49.50830
1233.653, 35.66504
1234.732, 21.17920
1235.810, 46.04980
1236.888, 40.76709
1237.966, 3.905273
1239.044, 38.06445
1240.122, 53.19824
1241.199, 65.42236
1242.277, 63.70947
1243.354, 45.68994
1244.431, 40.86133
1245.508, 27.43555
1246.585, 15.11182
1247.661, 4.234375
1248.738, 33.35303
1249.814, 8.469727
1250.890, 58.60791
1251.966, 131.7202
1253.042, 26.84229
1254.117, 146.9507
1255.193, 26.05615
1256.268, 54.16064
1257.343, 124.2622
1258.418, 72.36230
1259.493, 30.45947
1260.567, 19.65479
1261.642, 80.75586
1262.716, 81.91650
1263.790, 27.01318
1264.864, 106.0845
1265.938, 66.17822
1267.011, 70.26904
1268.085, 59.69434
1269.158, 67.79199
1270.231, 94.87793
1271.304, 70.05957
1272.377, 29.13770
1273.450, 113.2637
1274.522, 7.053711
1275.594, 70.00537
1276.666, 25.06250
1277.738, 88.15283
1278.810, 12.79150
1279.882, 125.2485
1280.953, 56.28467
1282.025, 75.31885
1283.096, 27.34912
1284.167, 80.37695
1285.238, 61.34961
1286.308, 124.3716
1287.379, 12.39014
1288.449, 16.72607
1289.519, 26.26904
1290.589, 69.26025
1291.659, 22.25000
1292.729, 92.23584
1293.798, 86.21826
1294.868, 91.19727
1295.937, 83.17285
1297.006, 150.1455
1298.075, 11.11475
1299.143, 95.07715
1300.212, 54.03711
1301.280, 135.6289
1302.348, 50.58057
1303.416, 129.3008
1304.484, 51.24561
1305.552, 101.1865
1306.620, 51.12402
1307.687, 55.05762
1308.754, 43.98730
1309.821, 68.91260
1310.888, 32.69678
1311.955, 99.61426
1313.021, 153.5342
1314.088, 44.43164
1315.154, 101.3379
1316.220, 163.9106
1317.286, 199.6436
1318.352, 48.54297
1319.417, 203.4385
1320.483, 179.3296
1321.548, 51.21631
1322.613, 105.0977
1323.678, 57.97168
1324.743, 189.8428
1325.807, 136.7095
1326.872, 106.5732
1327.936, 135.4331
1329.000, 121.2036
1330.064, 108.2324
1331.128, 66.07861
1332.191, 166.9170
1333.255, 112.9346
1334.318, 131.8105
1335.381, 111.6289
1336.444, 79.44189
1337.507, 3.824219
1338.569, 1.626953
1339.632, 24.42285
1340.694, 61.95068
1341.756, 0.9921880
1342.818, 9.237305
1343.880, 101.5239
1344.941, 121.2788
1346.003, 14.03076
1347.064, 7.283691
1348.125, 70.02637
1349.186, 62.33936
1350.247, 68.07568
1351.308, 44.23633
1352.368, 7.477051
1353.428, 97.20410
1354.489, 107.6216
1355.549, 11.34326
1356.608, 21.58398
1357.668, 32.70117
1358.727, 95.33789
1359.787, 7.035156
1360.846, 84.72900
1361.905, 79.41943
1362.964, 6.613281
1364.022, 4.706543
1365.081, 66.96875
1366.139, 22.52441
1367.197, 80.19385
1368.255, 6.912598
1369.313, 35.57666
1370.371, 27.23877
1371.428, 18.89746
1372.486, 43.22021
1373.543, 71.33008
1374.600, 62.98193
1375.657, 101.4517
1376.713, 87.09424
1377.770, 24.68213
1378.826, 103.3193
1379.882, 27.95361
1380.938, 72.58594
1381.994, 84.21631
1383.050, 61.89990
1384.106, 111.5244
1385.161, 94.14746
1386.216, 83.76758
1387.271, 8.385742
1388.326, 39.99414
1389.381, 19.60742
1390.435, 64.26611
1391.490, 111.8745
1392.544, 83.71191
1393.598, 82.31592
1394.652, 8.0565996E-02
1395.705, 32.51855
1396.759, 34.96729
1397.812, 11.61865
1398.866, 73.35400
1399.919, 23.94678
1400.972, 4.461914
1402.024, 39.01514
1403.077, 37.60205
1404.129, 27.18652
1405.181, 113.8628
1406.233, 77.98682
1407.285, 65.56934
1408.337, 42.15088
1409.389, 70.73096
1410.440, 38.31104
1411.491, 140.8887
1412.542, 76.46631
1413.593, 109.0439
1414.644, 74.43652
1415.695, 116.3159
1416.745, 166.8828
1417.795, 169.6841
1418.845, 170.0229
1419.895, 163.8101
1420.945, 119.3428
1421.995, 140.8804
1423.044, 102.4185
1424.093, 143.9546
1425.142, 98.31885
1426.191, 49.85449
1427.240, 6.610840
1428.289, 68.89258
1429.337, 117.3936
1430.385, 65.89404
1431.433, 160.3931
1432.481, 179.8887
1433.529, 112.3770
1434.577, 182.8540
1435.624, 64.32812
1436.672, 140.8540
1437.719, 82.30811
1438.766, 37.79297
1439.812, 90.49805
1440.859, 162.9595
1441.905, 111.3696
1442.952, 157.8325
1443.998, 131.3633
1445.044, 179.9136
1446.090, 185.2109
1447.135, 95.43164
1448.181, 105.8164
1449.226, 158.4941
1450.271, 141.0669
1451.316, 158.6338
1452.361, 151.1943
1453.405, 80.76660
1454.450, 83.33643
1455.494, 78.92285
1456.538, 100.8867
1457.582, 100.7441
1458.626, 127.7407
1459.670, 115.6768
1460.713, 149.0967
1461.757, 157.3237
1462.800, 155.5386
1463.843, 166.4038
1464.886, 149.9619
1465.928, 156.4785
1466.971, 143.3101
1468.013, 119.8428
1469.055, 150.3799
1470.097, 120.3340
1471.139, 120.9463
1472.181, 117.4727
1473.222, 84.04395
1474.263, 101.6758
1475.305, 142.3076
1476.346, 125.5596
1477.386, 198.5244
1478.427, 128.1543
1479.468, 141.7822
1480.508, 130.4087
1481.548, 38.88867
1482.588, 59.40430
1483.628, 116.0000
1484.668, 61.12109
1485.707, 63.68604
1486.747, 97.12549
1487.786, 165.7480
1488.825, 66.32959
1489.864, 53.84912
1490.902, 97.43213
1491.941, 44.01465
1492.979, 31.59521
1494.017, 96.17480
1495.055, 135.7686
1496.093, 76.37061
1497.131, 15.97266
1498.168, 77.57324
1499.206, 50.17480
1500.243, 118.7803
1501.280, 125.2930
1502.317, 82.88477
1503.354, 93.47754
1504.390, 164.0713
1505.426, 47.66650
1506.463, 67.25342
1507.499, 33.84863
1508.535, 107.4316
1509.570, 71.01416
1510.606, 185.6025
1511.641, 70.20166
1512.676, 29.19141
1513.711, 145.4146
1514.746, 38.02002
1515.781, 112.6455
1516.816, 5.305664
1517.850, 90.98975
1518.884, 73.68066
1519.918, 130.3760
1520.952, 51.13037
1521.986, 41.89893
1523.019, 141.6797
1524.053, 155.4673
1525.086, 91.25977
1526.119, 108.0571
1527.152, 107.8599
1528.185, 81.63623
1529.217, 12.53662
1530.250, 43.30859
1531.282, 63.19238
1532.314, 191.0903
1533.346, 99.84033
1534.377, 151.7617
1535.409, 173.2988
1536.440, 76.23926
1537.472, 82.21289
1538.503, 118.2231
1539.534, 28.25586
1540.564, 76.09814
1541.595, 19.17529
1542.625, 163.2817
1543.656, 88.06201
1544.686, 53.72021
1545.716, 114.5488
1546.745, 85.38721
1547.775, 78.99707
1548.804, 32.82666
1549.834, 191.6528
1550.863, 121.4746
1551.892, 221.5947
1552.920, 132.0498
1553.949, 210.4546
1554.977, 207.8105
1556.006, 120.0801
1557.034, 80.13379
1558.062, 160.2495
1559.089, 100.3022
1560.117, 50.53564
1561.144, 114.3794
1562.172, 60.22168
1563.199, 19.57324
1564.226, 116.8740
1565.252, 4.786621
1566.279, 87.95752
1567.305, 56.76074
1568.332, 46.99902
1569.358, 97.09863
1570.384, 131.4663
1571.409, 7.9590000E-02
1572.435, 0.0000000E+00
##END=



