##NAMES=Edingtonite
##RRUFFID=R040003
##IDEAL CHEMISTRY=Ba(Si_3_Al_2_)O_10_&#183;4H_2_O
##LOCALITY=Bohl, Sweden
##OWNER=RRUFF
##SOURCE=University of Arizona Mineral Museum
##DESCRIPTION=Colorless tetragonal prism
##STATUS=The identification of this mineral has been confirmed by X-ray diffraction and chemical analysis
##URL=rruff.info/R040003
##MEASURED CHEMISTRY=Ba_1.00_(Si_3.00_Al_2.00_)O_10_Â·4H_2_O; trace amounts of Na; H_2_O estimated by difference
##PIN_ID=m00038
##ORIENTATION=Laser parallel to b* (0 1 0). Fiducial mark perpendicular to laser is parallel to c [0 0 1]
124.116, 0.000
125.506, 209.785
126.895, 1556.980
128.284, 3513.338
129.673, 5972.352
131.062, 8501.691
132.450, 11205.336
133.838, 13358.752
135.226, 14427.496
136.614, 14363.000
138.001, 12823.375
139.388, 11787.848
140.775, 9596.199
142.162, 8155.402
143.549, 6601.088
144.935, 5579.012
146.321, 4681.681
147.707, 4061.190
149.093, 3970.988
150.478, 3527.322
151.863, 3815.156
153.248, 3715.367
154.633, 3556.999
156.018, 3665.886
157.402, 3156.006
158.786, 2868.622
160.170, 2556.803
161.554, 2236.275
162.937, 1822.974
164.320, 1515.716
165.703, 1227.976
167.086, 731.582
168.469, 542.763
169.851, 367.757
171.233, 421.305
172.615, 275.173
173.996, 181.077
175.378, 142.213
176.759, 91.996
178.140, 70.577
179.521, 32.063
180.901, 54.047
182.281, 81.060
183.662, 257.335
185.041, 184.737
186.421, 193.217
187.800, 182.098
189.180, 329.701
190.558, 172.098
191.937, 365.259
193.316, 247.707
194.694, 76.520
196.072, 149.721
197.450, 235.947
198.827, 164.163
200.205, 170.462
201.582, 44.562
202.959, 32.049
204.336, 76.281
205.712, 138.179
207.088, 323.455
208.465, 166.230
209.840, 197.189
211.216, 25.122
212.591, 63.232
213.967, 22.163
215.341, 102.158
216.716, 78.490
218.091, 184.740
219.465, 290.874
220.839, 546.827
222.213, 722.528
223.586, 1077.938
224.960, 1423.018
226.333, 2017.750
227.706, 3082.708
229.079, 4398.967
230.451, 6555.674
231.823, 9630.807
233.195, 14464.589
234.567, 19237.756
235.939, 22899.049
237.310, 22239.867
238.682, 18110.277
240.052, 13240.336
241.423, 8780.043
242.794, 6169.342
244.164, 3988.234
245.534, 2696.764
246.904, 1934.986
248.274, 1372.964
249.643, 990.755
251.012, 659.216
252.381, 480.500
253.750, 153.086
255.118, 205.778
256.487, 48.161
257.855, 80.166
259.223, 9.344
260.590, 123.844
261.958, 217.928
263.325, 62.255
264.692, 6.861
266.059, 81.800
267.425, 157.099
268.791, 142.739
270.158, 88.709
271.523, 155.021
272.889, 79.829
274.255, 43.934
275.620, 28.093
276.985, 72.634
278.350, 57.743
279.714, 133.533
281.078, 160.092
282.443, 192.019
283.806, 255.726
285.170, 264.879
286.534, 224.967
287.897, 246.008
289.260, 248.025
290.623, 81.026
291.985, 64.976
293.348, 149.839
294.710, 34.303
296.072, 97.438
297.433, 229.567
298.795, 290.712
300.156, 490.862
301.517, 680.061
302.878, 838.163
304.239, 1023.209
305.599, 1181.408
306.959, 1346.546
308.319, 1570.898
309.679, 1704.416
311.038, 1957.203
312.398, 2079.377
313.757, 2371.033
315.116, 2360.909
316.474, 2359.147
317.833, 2415.935
319.191, 2332.416
320.549, 2177.703
321.907, 2011.786
323.264, 1887.591
324.622, 1768.455
325.979, 1611.143
327.336, 1472.365
328.692, 1374.557
330.049, 1203.883
331.405, 1098.998
332.761, 1095.236
334.117, 1100.949
335.473, 907.250
336.828, 1049.876
338.183, 1075.516
339.538, 1026.174
340.893, 1179.188
342.247, 1054.578
343.602, 1138.518
344.956, 1229.175
346.310, 1411.035
347.663, 1292.392
349.017, 1606.287
350.370, 1639.987
351.723, 1905.234
353.076, 2300.777
354.428, 2447.562
355.780, 3032.528
357.133, 3357.443
358.484, 3639.766
359.836, 3939.937
361.188, 4121.912
362.539, 4225.072
363.890, 3917.811
365.241, 3571.782
366.591, 3126.645
367.942, 2573.104
369.292, 2120.280
370.642, 1729.007
371.992, 1528.993
373.341, 1328.873
374.691, 1228.650
376.040, 898.314
377.388, 747.860
378.737, 627.294
380.086, 586.617
381.434, 475.833
382.782, 454.947
384.130, 513.962
385.477, 542.881
386.825, 411.705
388.172, 540.435
389.519, 479.072
390.865, 707.620
392.212, 666.085
393.558, 864.468
394.904, 982.771
396.250, 1119.469
397.596, 1324.562
398.941, 1478.752
400.286, 1800.453
401.631, 2122.581
402.976, 2412.879
404.321, 2620.338
405.665, 2699.837
407.009, 2836.208
408.353, 2760.368
409.697, 2728.126
411.040, 2567.150
412.384, 2384.410
413.727, 2459.902
415.070, 2565.713
416.412, 2522.769
417.755, 2688.271
419.097, 2785.309
420.439, 3202.949
421.781, 3530.725
423.122, 3787.229
424.464, 4253.842
425.805, 4618.462
427.146, 5482.236
428.486, 6075.047
429.827, 6356.160
431.167, 6816.850
432.507, 7178.264
433.847, 7468.992
435.187, 7399.484
436.526, 7313.679
437.865, 6708.072
439.204, 6220.325
440.543, 5636.600
441.882, 5003.615
443.220, 4511.742
444.558, 3900.294
445.896, 3489.816
447.234, 3200.091
448.572, 2600.980
449.909, 2452.617
451.246, 2044.881
452.583, 1767.779
453.919, 1730.579
455.256, 1443.283
456.592, 1395.894
457.928, 1108.417
459.264, 1060.853
460.600, 1003.212
461.935, 775.501
463.270, 797.731
464.605, 659.902
465.940, 602.021
467.274, 634.099
468.609, 476.131
469.943, 468.120
471.277, 300.070
472.610, 411.987
473.944, 353.877
475.277, 325.336
476.610, 396.354
477.943, 417.385
479.275, 288.489
480.608, 268.727
481.940, 329.681
483.272, 330.809
484.604, 271.779
485.935, 523.523
487.267, 354.736
488.598, 526.385
489.929, 558.359
491.260, 540.357
492.590, 682.380
493.920, 794.422
495.250, 826.479
496.580, 958.555
497.910, 1180.636
499.239, 1312.718
500.569, 1254.809
501.898, 1706.902
503.226, 1539.016
504.555, 2041.159
505.883, 2053.323
507.212, 2385.504
508.540, 2727.697
509.867, 2989.893
511.195, 3422.080
512.522, 4074.254
513.849, 4516.410
515.176, 5538.547
516.503, 6660.661
517.829, 8122.754
519.156, 9894.816
520.482, 12576.125
521.808, 15986.726
523.133, 20586.758
524.459, 26966.596
525.784, 34835.906
527.109, 43495.121
528.434, 50674.605
529.758, 53174.215
531.083, 51233.211
532.407, 45672.801
533.731, 37742.105
535.055, 30562.467
536.378, 23782.633
537.701, 18913.723
539.025, 14975.354
540.348, 12067.007
541.670, 9718.936
542.993, 8041.078
544.315, 6743.348
545.637, 5595.794
546.959, 4767.913
548.281, 4129.764
549.602, 3571.570
550.923, 3213.580
552.244, 2825.896
553.565, 2487.706
554.886, 2219.535
556.206, 2061.390
557.526, 1783.282
558.846, 1655.209
560.166, 1457.164
561.486, 1259.154
562.805, 1281.172
564.124, 1193.217
565.443, 1245.284
566.762, 1117.383
568.080, 1019.512
569.399, 1031.680
570.717, 1013.891
572.035, 1006.149
573.352, 848.463
574.670, 890.834
575.987, 873.259
577.304, 815.740
578.621, 838.278
579.938, 910.858
581.254, 813.477
582.570, 996.146
583.886, 1068.844
585.202, 921.568
586.518, 1284.314
587.833, 1107.079
589.148, 1359.858
590.463, 1432.647
591.778, 1585.443
593.093, 1768.246
594.407, 1921.047
595.721, 2023.847
597.035, 2216.645
598.349, 2399.471
599.662, 2462.835
600.976, 2516.198
602.289, 2558.130
603.602, 2461.143
604.914, 2384.750
606.227, 2278.208
607.539, 1841.841
608.851, 1736.394
610.163, 1439.775
611.475, 1133.373
612.786, 1116.935
614.097, 890.248
615.408, 755.785
616.719, 810.814
618.030, 735.703
619.340, 669.271
620.651, 685.745
621.961, 920.222
623.270, 932.417
624.580, 880.808
625.889, 1174.081
627.199, 1179.641
628.507, 1307.531
629.816, 1211.851
631.125, 989.027
632.433, 885.248
633.741, 790.979
635.049, 637.851
636.357, 694.235
637.664, 732.690
638.972, 928.566
640.279, 925.119
641.586, 1111.187
642.893, 1145.913
644.199, 1461.451
645.505, 1757.696
646.811, 2053.226
648.117, 2239.204
649.423, 2763.847
650.728, 3007.452
652.034, 3270.525
653.339, 3723.354
654.644, 4006.634
655.948, 4230.088
657.253, 4045.031
658.557, 4029.600
659.861, 3522.316
661.165, 3236.092
662.468, 2759.018
663.772, 2291.937
665.075, 2074.666
666.378, 1567.320
667.681, 1360.560
668.983, 1063.221
670.286, 905.883
671.588, 599.072
672.890, 581.741
674.192, 524.837
675.493, 477.510
676.795, 330.462
678.096, 293.131
679.397, 245.792
680.697, 258.487
681.998, 161.131
683.298, 114.081
684.598, 86.739
685.898, 49.342
687.198, 121.928
688.498, 184.499
689.797, 197.061
691.096, 159.608
692.395, 102.145
693.694, 364.665
694.992, 267.175
696.290, 489.673
697.589, 492.430
698.886, 584.906
700.184, 837.369
701.482, 919.819
702.779, 1222.258
704.076, 1484.684
705.373, 1607.098
706.669, 2139.496
707.966, 2341.883
709.262, 2644.254
710.558, 2706.613
711.854, 2888.957
713.150, 3011.286
714.445, 3223.601
715.740, 3225.900
717.035, 3338.182
718.330, 2890.449
719.625, 2782.699
720.919, 2574.933
722.214, 2247.150
723.508, 1979.350
724.801, 1651.531
726.095, 1423.695
727.388, 1187.711
728.682, 982.896
729.975, 820.076
731.267, 672.167
732.560, 594.238
733.852, 516.292
735.145, 328.325
736.437, 420.341
737.728, 192.336
739.020, 264.312
740.311, 206.270
741.603, 138.207
742.894, 150.124
744.184, 22.019
745.475, 53.886
746.765, 15.727
748.055, 52.460
749.345, 69.316
750.635, 28.934
751.925, 27.215
753.214, 55.526
754.503, 133.871
755.792, 122.267
757.081, 120.711
758.370, 39.201
759.658, 167.724
760.946, 106.307
762.234, 45.067
763.522, 263.579
764.809, 32.306
766.097, 151.063
767.384, 199.875
768.671, 78.757
769.958, 167.679
771.244, 126.665
772.530, 105.706
773.817, 154.797
775.102, 133.949
776.388, 223.158
777.674, 112.442
778.959, 141.779
780.244, 121.174
781.529, 60.622
782.814, 98.952
784.098, 129.650
785.383, 99.244
786.667, 118.888
787.951, 58.585
789.235, 1.679
790.518, 101.912
791.801, 152.120
793.084, 52.306
794.367, 12.466
795.650, 77.404
796.933, 58.697
798.215, 162.730
799.497, 17.244
800.779, 112.749
802.061, 112.720
803.342, 152.666
804.624, 252.590
805.905, 42.493
807.186, 252.371
808.466, 242.227
809.747, 52.062
811.027, 191.869
812.307, 71.657
813.587, 331.420
814.867, 101.160
816.146, 160.878
817.426, 340.574
818.705, 150.249
819.984, 239.902
821.263, 89.249
822.541, 148.357
823.819, 407.320
825.098, 176.092
826.375, 365.182
827.653, 234.547
828.931, 183.953
830.208, 393.167
831.485, 242.096
832.762, 351.537
834.039, 380.958
835.315, 90.360
836.592, 369.738
837.868, 329.098
839.144, 468.435
840.420, 457.753
841.695, 377.052
842.970, 616.329
844.246, 505.587
845.521, 494.825
846.795, 594.043
848.070, 633.241
849.344, 602.420
850.618, 641.579
851.892, 670.720
853.166, 769.840
854.440, 658.941
855.713, 678.022
856.986, 907.085
858.259, 846.129
859.532, 1185.152
860.804, 964.157
862.077, 1223.145
863.349, 1072.124
864.621, 1061.084
865.893, 1070.025
867.164, 958.949
868.436, 887.854
869.707, 796.739
870.978, 705.608
872.248, 744.458
873.519, 553.300
874.789, 532.125
876.060, 730.899
877.330, 449.688
878.599, 588.460
879.869, 576.941
881.138, 455.463
882.408, 723.375
883.677, 481.438
884.945, 409.308
886.214, 506.235
887.482, 484.331
888.751, 701.646
890.019, 448.973
891.287, 665.780
892.554, 580.890
893.822, 396.251
895.089, 701.627
896.356, 508.670
897.623, 702.921
898.889, 578.581
900.156, 436.449
901.422, 688.419
902.688, 515.520
903.954, 540.070
905.220, 703.470
906.485, 369.664
907.750, 603.781
909.015, 518.838
910.280, 514.369
911.545, 708.745
912.809, 413.593
914.074, 616.356
915.338, 531.684
916.602, 376.319
917.865, 631.429
919.129, 307.863
920.392, 343.484
921.655, 428.387
922.918, 123.989
924.181, 369.136
925.443, 205.601
926.706, 353.090
927.968, 391.097
929.230, 219.333
930.491, 497.128
931.753, 374.737
933.014, 190.840
934.276, 527.320
935.536, 225.639
936.797, 512.885
938.058, 480.984
939.318, 479.081
940.578, 687.362
941.838, 545.719
943.098, 473.487
944.358, 591.832
945.617, 570.175
946.876, 767.988
948.135, 786.323
949.394, 1054.227
950.653, 1482.556
951.911, 1410.597
953.169, 1768.915
954.427, 1987.232
955.685, 2055.503
956.943, 2043.812
958.200, 1851.811
959.458, 1670.085
960.715, 1508.402
961.971, 1176.721
963.228, 1315.039
964.485, 873.375
965.741, 781.712
966.997, 960.049
968.253, 698.392
969.508, 696.729
970.764, 565.067
972.019, 633.132
973.274, 691.467
974.529, 469.797
975.784, 388.126
977.039, 486.453
978.293, 194.787
979.547, 533.118
980.801, 391.449
982.055, 429.778
983.308, 598.105
984.562, 336.434
985.815, 454.760
987.068, 783.084
988.321, 531.413
989.573, 669.742
990.826, 568.068
992.078, 606.394
993.330, 684.718
994.582, 583.041
995.833, 741.361
997.085, 529.683
998.336, 680.457
999.587, 998.775
1000.838, 1037.093
1002.088, 1485.410
1003.339, 1653.727
1004.589, 1632.042
1005.839, 1580.451
1007.089, 1028.765
1008.339, 629.144
1009.588, 897.486
1010.838, 615.799
1012.087, 774.207
1013.336, 562.518
1014.584, 451.978
1015.833, 770.462
1017.081, 689.153
1018.330, 741.258
1019.577, 819.733
1020.825, 815.644
1022.073, 1217.428
1023.320, 885.758
1024.567, 1165.133
1025.814, 1184.540
1027.061, 1002.894
1028.308, 1211.844
1029.554, 1070.232
1030.800, 968.843
1032.046, 1178.700
1033.292, 1037.133
1034.538, 1225.816
1035.783, 1204.562
1037.029, 1273.042
1038.274, 1581.529
1039.519, 1710.037
1040.763, 1588.568
1042.008, 1987.112
1043.252, 1965.676
1044.496, 2484.258
1045.740, 2912.853
1046.984, 3331.467
1048.228, 4160.506
1049.471, 4579.164
1050.714, 5517.896
1051.957, 6357.271
1053.200, 6965.975
1054.442, 7276.936
1055.685, 7666.668
1056.927, 7165.410
1058.169, 6575.691
1059.411, 5694.461
1060.652, 5183.400
1061.894, 4722.541
1063.135, 3841.323
1064.376, 3885.387
1065.617, 3124.659
1066.858, 2763.444
1068.098, 2666.058
1069.339, 2274.859
1070.579, 2043.924
1071.819, 1955.785
1073.058, 1554.588
1074.298, 1703.391
1075.537, 1242.506
1076.776, 1391.304
1078.015, 1420.371
1079.254, 1019.347
1080.493, 1228.333
1081.731, 1057.611
1082.969, 1076.532
1084.207, 1365.461
1085.445, 944.273
1086.683, 1033.084
1087.920, 902.240
1089.157, 751.081
1090.394, 879.888
1091.631, 620.724
1092.868, 569.544
1094.105, 638.866
1095.341, 418.105
1096.577, 567.125
1097.813, 609.817
1099.049, 269.510
1100.284, 608.900
1101.519, 458.499
1102.755, 327.318
1103.990, 616.742
1105.224, 255.552
1106.459, 444.368
1107.693, 343.180
1108.928, 361.985
1110.162, 510.789
1111.395, 271.523
1112.629, 490.320
1113.863, 519.512
1115.096, 128.295
1116.329, 407.084
1117.562, 346.312
1118.795, 325.089
1120.027, 443.860
1121.259, 473.932
1122.492, 580.014
1123.723, 609.999
1124.955, 630.196
1126.187, 638.938
1127.418, 257.694
1128.649, 176.425
1129.880, 305.150
1131.111, 106.129
1132.342, 342.560
1133.572, 251.243
1134.802, 180.138
1136.033, 288.810
1137.262, 187.477
1138.492, 56.135
1139.722, 214.785
1140.951, 86.570
1142.180, 72.049
1143.409, 170.658
1144.638, 59.260
1145.866, 137.852
1147.095, 43.561
1148.323, 45.010
1149.551, 3.570
1150.779, 157.877
1152.006, 50.631
1153.234, 0.869
1154.461, 12.334
1155.688, 326.139
1156.915, 35.398
1158.141, 36.283
1159.368, 322.141
1160.594, 8.869
1161.820, 209.533
1163.046, 47.926
1164.272, 53.244
1165.498, 175.115
1166.723, 43.465
1167.948, 31.801
1169.173, 270.127
1170.398, 148.441
1171.623, 177.086
1172.847, 105.381
1174.071, 103.949
1175.295, 222.223
1176.519, 210.484
1177.743, 128.732
1178.966, 176.973
1180.190, 15.199
1181.413, 273.408
1182.636, 91.607
1183.858, 10.207
1185.081, 267.959
1186.303, 103.889
1187.526, 4.225
1188.748, 192.320
1189.969, 49.598
1191.191, 208.455
1192.412, 76.494
1193.634, 34.521
1194.855, 182.527
1196.076, 209.479
1197.296, 8.449
1198.517, 196.359
1199.737, 145.742
1200.957, 252.283
1202.177, 60.115
1203.397, 112.070
1204.617, 276.139
1205.836, 173.896
1207.055, 51.889
1208.274, 149.613
1209.493, 63.170
1210.712, 87.988
1211.930, 86.055
1213.148, 23.760
1214.367, 103.082
1215.584, 102.061
1216.802, 198.984
1218.020, 196.719
1219.237, 54.291
1220.454, 121.945
1221.671, 129.932
1222.888, 62.545
1224.105, 229.635
1225.321, 27.105
1226.537, 44.875
1227.753, 93.115
1228.969, 139.008
1230.185, 7.477
1231.400, 20.285
1232.616, 2.363
1233.831, 265.686
1235.046, 13.004
1236.261, 160.254
1237.475, 289.604
1238.689, 196.820
1239.904, 204.125
1241.118, 281.855
1242.332, 50.967
1243.545, 406.863
1244.759, 63.996
1245.972, 161.111
1247.185, 360.020
1248.398, 57.092
1249.611, 374.148
1250.823, 351.379
1252.036, 21.600
1253.248, 315.824
1254.460, 182.811
1255.671, 159.785
1256.883, 396.740
1258.095, 153.688
1259.306, 160.783
1260.517, 338.260
1261.728, 425.158
1262.938, 331.139
1264.149, 433.229
1265.359, 113.943
1266.569, 420.996
1267.779, 317.826
1268.989, 244.633
1270.199, 521.570
1271.408, 338.381
1272.617, 443.070
1273.826, 479.963
1275.035, 296.689
1276.244, 653.303
1277.452, 490.346
1278.661, 255.875
1279.869, 502.996
1281.077, 249.688
1282.285, 312.533
1283.492, 358.992
1284.700, 155.156
1285.907, 241.145
1287.114, 237.721
1288.321, 23.242
1289.527, 408.729
1290.734, 45.258
1291.940, 321.195
1293.146, 438.182
1294.352, 74.461
1295.558, 359.457
1296.763, 395.873
1297.969, 232.035
1299.174, 368.125
1300.379, 334.488
1301.584, 100.801
1302.788, 467.098
1303.993, 113.367
1305.197, 279.586
1306.401, 445.781
1307.605, 221.963
1308.809, 308.111
1310.013, 614.240
1311.216, 289.939
1312.419, 526.031
1313.622, 302.031
1314.825, 607.393
1316.028, 723.414
1317.230, 236.660
1318.432, 572.168
1319.634, 588.141
1320.836, 452.570
1322.038, 768.506
1323.240, 594.262
1324.441, 439.801
1325.642, 745.684
1326.843, 216.264
1328.044, 361.619
1329.245, 397.441
1330.445, 139.420
1331.645, 405.201
1332.845, 370.705
1334.045, 83.396
1335.245, 229.127
1336.445, 124.834
1337.644, 180.207
1338.843, 225.881
1340.042, 88.732
1341.241, 96.729
1342.440, 172.162
1343.638, 32.711
1344.836, 322.758
1346.034, 38.205
1347.232, 153.756
1348.430, 279.293
1349.628, 164.471
1350.825, 89.949
1352.022, 215.449
1353.219, 161.094
1354.416, 294.369
1355.613, 119.318
1356.809, 14.342
1358.005, 89.578
1359.202, 138.867
1360.398, 95.680
1361.593, 180.525
1362.789, 25.160
1363.984, 180.572
1365.179, 285.381
1366.374, 49.193
1367.569, 226.234
1368.764, 171.676
1369.958, 78.512
1371.153, 233.994
1372.347, 47.574
1373.541, 204.650
1374.735, 249.580
1375.928, 32.363
1377.122, 338.387
1378.315, 263.846
1379.508, 158.391
1380.701, 304.232
1381.893, 110.047
1383.086, 305.816
1384.278, 361.582
1385.470, 217.344
1386.662, 202.848
1387.854, 168.557
1389.046, 84.242
1390.237, 339.924
1391.428, 325.586
1392.619, 71.230
1393.810, 436.852
1395.001, 162.494
1396.191, 208.062
1397.382, 372.885
1398.572, 157.803
1399.762, 203.387
1400.952, 238.408
1402.141, 173.965
1403.331, 299.504
1404.520, 334.596
1405.709, 139.727
1406.898, 585.203
1408.087, 80.662
1409.275, 126.109
1410.464, 511.549
1411.652, 266.994
1412.840, 502.449
1414.028, 507.916
1415.215, 303.373
1416.403, 438.857
1417.590, 514.375
1418.777, 319.670
1419.964, 714.588
1421.151, 119.791
1422.338, 455.377
1423.524, 655.672
1424.710, 408.430
1425.896, 512.811
1427.082, 608.033
1428.268, 592.576
1429.453, 750.090
1430.639, 584.893
1431.824, 508.012
1433.009, 755.227
1434.194, 649.051
1435.378, 644.227
1436.563, 1035.521
1437.747, 789.465
1438.931, 973.266
1440.115, 1288.352
1441.299, 1159.812
1442.482, 1384.453
1443.666, 1538.576
1444.849, 1473.541
1446.032, 1616.094
1447.215, 1641.746
1448.397, 1676.582
1449.580, 1779.924
1450.762, 1794.137
1451.944, 1788.252
1453.126, 1952.826
1454.308, 1676.998
1455.490, 2040.682
1456.671, 2133.531
1457.852, 1676.814
1459.033, 2091.164
1460.214, 1985.451
1461.395, 1639.672
1462.575, 1853.834
1463.756, 1516.402
1464.936, 1530.572
1466.116, 1624.736
1467.296, 1118.979
1468.475, 1383.336
1469.655, 1207.965
1470.834, 992.652
1472.013, 1147.445
1473.192, 882.309
1474.371, 747.264
1475.550, 1022.230
1476.728, 657.270
1477.906, 902.402
1479.084, 687.613
1480.262, 532.920
1481.440, 688.443
1482.617, 864.115
1483.795, 609.943
1484.972, 846.061
1486.149, 682.412
1487.326, 429.018
1488.502, 945.885
1489.679, 573.041
1490.855, 400.545
1492.031, 728.455
1493.207, 406.854
1494.383, 435.818
1495.559, 495.445
1496.734, 65.867
1497.909, 397.273
1499.084, 419.934
1500.259, 74.229
1501.434, 421.768
1502.608, 27.074
1503.783, 0.000
##END=



