##NAMES=Elbaite
##RRUFFID=R050119
##IDEAL CHEMISTRY=Na(Al_1.5_Li_1.5_)Al_6_(Si_6_O_18_)(BO_3_)_3_(OH)_3_OH
##LOCALITY=Cruziero mine, San Jose, Minas Gerais, Brazil
##OWNER=RRUFF
##SOURCE=Carlos and Paulo Vasconcelos
##DESCRIPTION=Red fragment
##STATUS=The identification of this mineral has been confirmed by X-ray diffraction and chemical analysis
##URL=rruff.info/R050119
##MEASURED CHEMISTRY=(Na_0.90_Ca_0.10_)(Al_0.56_Li_0.38_Mn_0.06_)_3_Al_6_(BO_3_)_3_(Si_0.89_B_0.11_)_6_O_18_(OH)_4_
##PIN_ID=L00105
##ORIENTATION=Laser parallel to c* (0 0 1). Fiducial mark perpendicular to laser is parallel to b [0 1 0]
102.428, 0.000
103.820, 8.005
105.212, 167.820
106.604, 345.616
107.995, 451.686
109.387, 839.738
110.777, 1396.299
112.168, 1731.268
113.559, 1753.729
114.949, 1611.445
116.339, 1802.912
117.729, 1847.231
119.119, 1863.790
120.508, 1854.729
121.897, 1830.320
123.286, 1850.201
124.675, 1889.065
126.063, 2048.820
127.452, 1977.799
128.840, 2106.932
130.228, 2116.252
131.615, 2026.302
133.003, 2105.459
134.390, 1855.344
135.777, 1685.415
137.164, 1648.572
138.550, 1673.965
139.937, 1383.521
141.323, 1462.161
142.709, 1258.322
144.094, 1118.458
145.480, 1165.739
146.865, 993.438
148.250, 1031.522
149.635, 1026.296
151.019, 872.243
152.403, 1019.530
153.788, 1041.598
155.171, 933.777
156.555, 899.381
157.939, 786.252
159.322, 680.957
160.705, 493.579
162.088, 476.318
163.470, 269.171
164.853, 212.134
166.235, 145.206
167.617, 118.391
168.998, 121.691
170.380, 4.890
171.761, 61.351
173.142, 147.692
174.523, 43.912
175.904, 30.010
177.284, 35.985
178.664, 111.837
180.044, 127.563
181.424, 123.168
182.803, 118.646
184.183, 24.003
185.562, 40.729
186.940, 185.437
188.319, 180.174
189.698, 194.964
191.076, 319.823
192.454, 424.765
193.831, 499.793
195.209, 614.916
196.586, 540.132
197.963, 585.445
199.340, 643.422
200.717, 701.725
202.093, 874.479
203.470, 951.453
204.846, 1026.585
206.221, 1121.229
207.597, 1165.987
208.972, 1320.863
210.347, 1625.855
211.722, 1900.965
213.097, 2256.189
214.472, 2771.527
215.846, 3276.979
217.220, 3892.542
218.594, 4548.215
219.967, 5513.975
221.341, 5929.738
222.714, 6475.576
224.087, 6451.430
225.460, 6587.275
226.832, 6013.191
228.204, 5479.220
229.577, 4905.359
230.948, 4251.605
232.320, 4057.960
233.692, 3484.420
235.063, 3380.983
236.434, 3267.641
237.805, 3234.393
239.175, 3219.938
240.545, 3138.176
241.916, 3285.208
243.286, 3182.333
244.655, 3239.549
246.025, 3156.857
247.394, 2844.255
248.763, 2601.743
250.132, 2359.319
251.501, 2076.985
252.869, 1664.739
254.237, 1532.578
255.605, 1290.506
256.973, 1128.516
258.340, 1046.611
259.708, 734.789
261.075, 623.050
262.442, 561.393
263.808, 579.815
265.175, 548.318
266.541, 606.902
267.907, 641.996
269.273, 651.959
270.639, 678.574
272.004, 698.124
273.369, 694.754
274.734, 691.710
276.099, 688.939
277.463, 586.402
278.828, 584.070
280.192, 571.925
281.556, 639.951
282.919, 698.127
284.283, 716.354
285.646, 644.874
287.009, 703.400
288.372, 651.995
289.734, 460.656
291.097, 529.400
292.459, 168.235
293.821, 57.177
295.183, 43.795
296.544, 204.660
297.905, 255.472
299.266, 286.216
300.627, 236.918
301.988, 257.612
303.348, 68.436
304.709, 9.220
306.069, 149.939
307.428, 289.022
308.788, 508.176
310.147, 547.430
311.507, 706.762
312.865, 636.177
314.224, 785.669
315.583, 905.252
316.941, 934.271
318.299, 994.605
319.657, 1104.367
321.015, 1254.186
322.372, 1384.061
323.729, 1553.990
325.086, 1783.976
326.443, 2094.014
327.800, 2234.107
329.156, 2554.253
330.512, 2704.453
331.868, 2664.705
333.224, 2905.009
334.579, 2655.017
335.935, 2573.018
337.290, 2587.285
338.645, 2316.121
339.999, 2245.553
341.354, 2144.829
342.708, 1911.079
344.062, 1846.688
345.416, 1722.582
346.769, 1578.765
348.123, 1648.793
349.476, 1619.685
350.829, 1760.623
352.182, 1841.610
353.534, 2012.645
354.887, 2163.727
356.239, 2284.855
357.591, 2476.031
358.942, 2747.253
360.294, 2988.521
361.645, 3219.837
362.996, 3601.182
364.347, 3992.428
365.698, 4373.555
367.048, 4584.632
368.398, 5235.752
369.748, 5656.924
371.098, 6458.148
372.448, 7099.425
373.797, 7760.758
375.146, 8792.158
376.495, 9473.608
377.844, 10115.113
379.192, 10206.664
380.540, 9758.276
381.889, 9149.935
383.236, 8281.644
384.584, 7483.395
385.932, 6335.189
387.279, 5787.029
388.626, 5008.912
389.973, 4490.840
391.319, 3982.811
392.666, 3724.820
394.012, 3436.875
395.358, 3258.973
396.704, 3168.008
398.049, 3263.284
399.394, 3155.502
400.740, 3287.757
402.084, 3420.052
403.429, 3522.385
404.774, 3774.757
406.118, 3727.166
407.462, 3859.611
408.806, 3652.093
410.150, 3754.611
411.493, 3517.164
412.836, 3359.754
414.179, 3142.378
415.522, 2875.036
416.865, 2467.728
418.207, 2140.453
419.549, 1773.212
420.891, 1496.002
422.233, 1158.823
423.575, 901.677
424.916, 644.562
426.257, 487.896
427.598, 360.422
428.939, 315.549
430.279, 218.877
431.619, 261.948
432.959, 125.166
434.299, 158.558
435.639, 271.753
436.978, 304.986
438.318, 328.254
439.657, 513.080
440.996, 469.526
442.334, 556.701
443.673, 542.137
445.011, 515.867
446.349, 654.681
447.687, 778.169
449.024, 721.812
450.361, 855.371
451.699, 691.546
453.036, 819.418
454.372, 651.498
455.709, 619.003
457.045, 801.717
458.381, 632.205
459.717, 726.235
461.053, 624.779
462.388, 630.644
463.724, 626.512
465.059, 634.657
466.394, 672.427
467.728, 710.862
469.063, 756.474
470.397, 765.042
471.731, 748.980
473.065, 674.629
474.398, 889.137
475.732, 777.495
477.065, 821.523
478.398, 755.577
479.731, 729.650
481.063, 703.742
482.396, 737.854
483.728, 601.983
485.060, 826.130
486.391, 690.293
487.723, 674.473
489.054, 828.667
490.385, 602.875
491.716, 737.096
493.047, 761.329
494.377, 665.573
495.708, 719.833
497.038, 754.115
498.368, 787.950
499.697, 902.791
501.027, 947.165
502.356, 1141.577
503.685, 1256.051
505.014, 1390.571
506.342, 1595.130
507.671, 1599.744
508.999, 1944.440
510.327, 1849.197
511.655, 2094.006
512.982, 2148.828
514.310, 2363.690
515.637, 2468.611
516.964, 2223.561
518.291, 2308.612
519.617, 2203.675
520.944, 2388.671
522.270, 2063.692
523.596, 1888.729
524.921, 1983.773
526.247, 1928.862
527.572, 1874.042
528.897, 1979.644
530.222, 2315.610
531.547, 2341.404
532.871, 2699.068
534.196, 2738.510
535.520, 3024.582
536.844, 3381.422
538.167, 3657.314
539.491, 3485.637
540.814, 3781.484
542.137, 3547.380
543.460, 3722.818
544.783, 3668.027
546.105, 3533.237
547.427, 3708.446
548.749, 3533.653
550.071, 3368.859
551.393, 3284.060
552.714, 3159.260
554.035, 3014.453
555.356, 2829.642
556.677, 2694.823
557.998, 2523.297
559.318, 2315.164
560.638, 2180.323
561.958, 1965.474
563.278, 1760.614
564.597, 1625.747
565.917, 1440.870
567.236, 1185.982
568.555, 1051.085
569.874, 806.177
571.192, 771.257
572.511, 626.326
573.829, 551.381
575.147, 476.425
576.464, 411.457
577.782, 386.475
579.099, 191.479
580.416, 196.469
581.733, 121.444
583.050, 206.405
584.366, 93.101
585.683, 186.282
586.999, 28.799
588.315, 6.082
589.630, 60.942
590.946, 15.788
592.261, 10.617
593.576, 115.427
594.891, 110.220
596.206, 94.999
597.520, 10.237
598.834, 35.502
600.148, 45.490
601.462, 16.176
602.776, 18.420
604.089, 67.007
605.402, 87.497
606.715, 31.981
608.028, 46.441
609.341, 19.116
610.653, 44.720
611.965, 110.385
613.277, 36.147
614.589, 141.969
615.901, 57.899
617.212, 153.863
618.523, 89.903
619.834, 165.980
621.145, 22.146
622.456, 98.319
623.766, 174.452
625.076, 39.948
626.386, 6.610
627.696, 39.389
629.006, 115.628
630.315, 9.685
631.624, 44.271
632.933, 31.597
634.242, 173.027
635.551, 148.055
636.859, 151.852
638.167, 315.717
639.475, 319.524
640.783, 203.232
642.090, 396.924
643.398, 310.265
644.705, 264.091
646.012, 337.043
647.318, 289.961
648.625, 422.847
649.931, 275.699
651.237, 398.518
652.543, 211.302
653.849, 474.052
655.155, 357.656
656.460, 252.022
657.765, 246.271
659.070, 233.776
660.375, 240.739
661.679, 359.350
662.984, 283.511
664.288, 361.785
665.592, 350.932
666.895, 395.269
668.199, 417.937
669.502, 361.894
670.805, 341.869
672.108, 326.467
673.411, 373.770
674.713, 279.429
676.016, 283.604
677.318, 307.492
678.620, 473.902
679.921, 388.682
681.223, 461.701
682.524, 316.375
683.825, 299.191
685.126, 221.938
686.427, 164.280
687.727, 187.347
689.028, 83.499
690.328, 35.945
691.628, 167.912
692.927, 121.184
694.227, 193.839
695.526, 67.548
696.825, 211.099
698.124, 203.385
699.423, 315.916
700.721, 397.808
702.020, 479.517
703.318, 721.269
704.616, 612.574
705.913, 793.810
707.211, 865.017
708.508, 1096.488
709.805, 1317.303
711.102, 1617.888
712.399, 1708.418
713.695, 2118.896
714.992, 2509.322
716.288, 2749.694
717.584, 3500.012
718.879, 3930.277
720.175, 4640.490
721.470, 5580.648
722.765, 7050.752
724.060, 8310.804
725.355, 10270.798
726.649, 12780.742
727.944, 14160.632
729.238, 16020.467
730.532, 17380.248
731.825, 17199.977
733.119, 17759.648
734.412, 16049.267
735.705, 14228.833
736.998, 12728.341
738.291, 11037.800
739.584, 9497.200
740.876, 8306.806
742.168, 7166.926
743.460, 6164.412
744.752, 5473.463
746.043, 4823.503
747.334, 4193.080
748.626, 3882.458
749.916, 3512.293
751.207, 3432.228
752.498, 3162.178
753.788, 2991.431
755.078, 2948.008
756.368, 2893.572
757.658, 2651.004
758.947, 2599.866
760.237, 2333.262
761.526, 2372.448
762.815, 2131.188
764.104, 1850.437
765.392, 1807.280
766.680, 1551.634
767.969, 1331.990
769.257, 1256.282
770.544, 924.200
771.832, 827.107
773.119, 643.748
774.406, 504.231
775.693, 649.877
776.980, 404.401
778.267, 354.062
779.553, 158.817
780.839, 11.907
782.125, 247.778
783.411, 70.661
784.697, 208.137
785.982, 103.868
787.267, 170.706
788.552, 83.657
789.837, 50.899
791.122, 218.076
792.406, 195.200
793.690, 202.268
794.974, 219.279
796.258, 216.236
797.542, 293.140
798.825, 169.991
800.108, 576.785
801.391, 543.531
802.674, 620.228
803.957, 576.874
805.239, 453.474
806.522, 480.022
807.804, 416.522
809.085, 162.974
810.367, 59.368
811.649, 65.701
812.930, 28.030
814.211, 61.854
815.492, 5.788
816.772, 60.197
818.053, 43.881
819.333, 218.059
820.613, 142.429
821.893, 116.950
823.173, 58.391
824.452, 76.330
825.732, 151.167
827.011, 36.160
828.290, 11.245
829.568, 23.508
830.847, 38.196
832.125, 27.100
833.403, 2.482
834.681, 112.062
835.959, 3.451
837.236, 130.936
838.514, 134.815
839.791, 218.923
841.068, 72.247
842.345, 34.303
843.621, 147.215
844.898, 236.906
846.174, 19.922
847.450, 72.115
848.726, 4.792
850.001, 4.187
851.277, 88.836
852.552, 51.764
853.827, 145.096
855.102, 175.687
856.376, 152.070
857.651, 245.484
858.925, 248.853
860.199, 242.178
861.473, 165.456
862.746, 308.686
864.020, 371.903
865.293, 385.078
866.566, 528.253
867.839, 371.388
869.112, 534.495
870.384, 537.580
871.656, 580.626
872.928, 763.634
874.200, 546.631
875.472, 809.587
876.744, 702.545
878.015, 655.472
879.286, 948.361
880.557, 611.216
881.828, 724.035
883.098, 726.854
884.369, 489.638
885.639, 682.383
886.909, 475.137
888.178, 464.322
889.448, 500.533
890.717, 363.190
891.987, 355.810
893.256, 268.393
894.524, 130.950
895.793, 233.461
897.061, 285.948
898.330, 108.400
899.598, 180.811
900.865, 183.191
902.133, 115.533
903.401, 77.837
904.668, 60.108
905.935, 17.666
907.202, 94.553
908.468, 156.752
909.735, 118.927
911.001, 178.684
912.267, 263.225
913.533, 145.345
914.799, 207.431
916.064, 99.479
917.330, 41.498
918.595, 223.487
919.860, 165.460
921.124, 387.433
922.389, 219.388
923.653, 261.355
924.918, 293.314
926.182, 355.287
927.445, 297.269
928.709, 609.269
929.972, 301.251
931.236, 663.108
932.499, 644.218
933.761, 783.193
935.024, 774.657
936.286, 795.024
937.549, 886.289
938.811, 906.953
940.073, 1048.005
941.334, 1188.488
942.596, 1180.535
943.857, 1229.693
945.118, 1240.752
946.379, 1181.804
947.640, 1272.896
948.900, 1263.942
950.161, 1225.277
951.421, 1316.065
952.681, 1217.663
953.940, 1262.729
955.200, 1170.766
956.459, 1302.271
957.719, 1303.748
958.978, 1355.199
960.236, 1266.615
961.495, 1377.117
962.753, 1246.791
964.012, 1406.516
965.270, 1242.922
966.527, 1317.191
967.785, 1464.973
969.043, 1204.527
970.300, 1619.902
971.557, 1244.340
972.814, 1393.523
974.071, 1394.309
975.327, 1393.740
976.583, 1547.084
977.840, 1535.740
979.095, 1461.625
980.351, 1609.086
981.607, 1467.965
982.862, 1457.061
984.117, 1663.793
985.372, 1441.865
986.627, 1571.629
987.882, 1539.787
989.136, 1519.615
990.390, 1559.953
991.644, 1350.117
992.898, 1569.480
994.152, 1356.381
995.405, 1336.217
996.659, 1657.105
997.912, 1255.953
999.165, 1445.336
1000.417, 1534.322
1001.670, 1352.762
1002.922, 1722.650
1004.174, 1392.311
1005.426, 1492.082
1006.678, 1462.814
1007.930, 1462.811
1009.181, 1443.275
1010.432, 1494.418
1011.683, 1464.727
1012.934, 1654.752
1014.185, 1552.494
1015.435, 1823.002
1016.685, 1693.627
1017.935, 1814.434
1019.185, 2128.387
1020.435, 2113.098
1021.684, 2274.295
1022.934, 2375.436
1024.183, 2403.064
1025.432, 2573.684
1026.680, 2643.479
1027.929, 2826.518
1029.177, 2797.400
1030.425, 2989.100
1031.673, 2990.359
1032.921, 3130.248
1034.169, 3021.766
1035.416, 3232.100
1036.663, 3113.719
1037.911, 3024.533
1039.157, 3305.422
1040.404, 3349.393
1041.650, 3729.637
1042.897, 3740.625
1044.143, 3793.578
1045.389, 3943.008
1046.634, 4273.924
1047.880, 4504.736
1049.125, 4764.535
1050.371, 4886.623
1051.615, 5436.475
1052.860, 5496.986
1054.105, 5899.141
1055.349, 6648.137
1056.593, 6975.387
1057.837, 7306.344
1059.081, 8095.734
1060.325, 8580.363
1061.568, 9490.340
1062.812, 9860.965
1064.055, 10741.492
1065.298, 11481.242
1066.540, 11673.117
1067.783, 12342.330
1069.025, 12362.059
1070.267, 12181.742
1071.509, 11951.406
1072.751, 11161.715
1073.993, 10422.047
1075.234, 9681.512
1076.475, 8643.133
1077.716, 7982.570
1078.957, 7112.523
1080.198, 6042.576
1081.438, 5781.986
1082.679, 4862.449
1083.919, 4512.604
1085.159, 3951.949
1086.398, 3421.639
1087.638, 3261.039
1088.877, 2670.363
1090.116, 2580.924
1091.355, 2380.236
1092.594, 2110.234
1093.833, 2049.859
1095.071, 1759.148
1096.309, 1589.531
1097.547, 1728.820
1098.785, 1308.086
1100.023, 1317.883
1101.260, 1457.131
1102.498, 866.369
1103.735, 1205.598
1104.972, 1264.812
1106.208, 1164.400
1107.445, 1123.822
1108.681, 903.008
1109.918, 892.178
1111.154, 1001.342
1112.389, 840.502
1113.625, 859.652
1114.860, 798.816
1116.096, 797.994
1117.331, 717.465
1118.566, 616.641
1119.800, 465.898
1121.035, 625.141
1122.269, 734.416
1123.503, 1023.725
1124.737, 802.986
1125.971, 592.207
1127.205, 701.424
1128.438, 290.641
1129.671, 599.977
1130.904, 309.070
1132.137, 218.145
1133.370, 387.740
1134.602, 456.742
1135.834, 245.654
1137.066, 554.535
1138.298, 153.396
1139.530, 492.557
1140.762, 341.395
1141.993, 110.195
1143.224, 689.531
1144.455, 118.279
1145.686, 516.922
1146.917, 415.512
1148.147, 104.074
1149.377, 252.727
1150.607, 191.221
1151.837, 169.688
1153.067, 398.586
1154.296, 77.000
1155.526, 225.928
1156.755, 204.273
1157.984, 42.588
1159.213, 231.338
1160.441, 220.086
1161.670, 101.689
1162.898, 346.812
1164.126, 144.523
1165.354, 203.531
1166.581, 37.986
1167.809, 50.006
1169.036, 97.924
1170.263, 105.936
1171.490, 96.207
1172.717, 221.588
1173.943, 130.652
1175.170, 22.971
1176.396, 145.256
1177.622, 2.852
1178.848, 50.408
1180.073, 131.910
1181.299, 15.525
1182.524, 252.926
1183.749, 159.498
1184.974, 127.781
1186.199, 105.090
1187.423, 37.703
1188.648, 249.449
1189.872, 67.277
1191.096, 25.633
1192.320, 231.762
1193.543, 18.781
1194.767, 55.764
1195.990, 117.779
1197.213, 15.312
1198.436, 171.545
1199.659, 10.932
1200.881, 22.275
1202.104, 244.475
1203.326, 118.629
1204.548, 1.973
1205.770, 234.652
1206.991, 58.750
1208.213, 107.795
1209.434, 54.717
1210.655, 11.207
1211.876, 177.648
1213.096, 15.945
1214.317, 130.248
1215.537, 186.406
1216.757, 132.422
1217.977, 278.381
1219.197, 54.285
1220.417, 70.131
1221.636, 295.883
1222.855, 1.631
1224.074, 297.230
1225.293, 172.773
1226.512, 139.512
1227.731, 444.936
1228.949, 60.580
1230.167, 106.051
1231.385, 379.682
1232.603, 208.482
1233.820, 277.270
1235.038, 416.035
1236.255, 44.777
1237.472, 493.502
1238.689, 132.211
1239.906, 220.898
1241.122, 539.570
1242.338, 68.230
1243.555, 296.871
1244.771, 415.498
1245.986, 174.111
1247.202, 312.713
1248.417, 331.293
1249.633, 319.857
1250.848, 448.404
1252.063, 216.930
1253.277, 255.441
1254.492, 523.928
1255.706, 362.125
1256.920, 620.430
1258.134, 328.238
1259.348, 356.648
1260.562, 714.170
1261.775, 381.693
1262.988, 249.111
1264.201, 696.820
1265.414, 304.527
1266.627, 551.389
1267.839, 517.887
1269.052, 325.477
1270.264, 603.590
1271.476, 377.209
1272.688, 454.242
1273.899, 589.844
1275.111, 256.814
1276.322, 676.750
1277.533, 371.160
1278.744, 132.646
1279.955, 677.570
1281.165, 276.189
1282.376, 335.867
1283.586, 510.875
1284.796, 182.145
1286.006, 464.994
1287.215, 385.785
1288.425, 118.857
1289.634, 389.260
1290.843, 296.018
1292.052, 301.660
1293.261, 594.023
1294.469, 196.037
1295.678, 294.717
1296.886, 477.979
1298.094, 111.055
1299.302, 364.395
1300.509, 85.479
1301.717, 218.287
1302.924, 441.113
1304.131, 104.445
1305.338, 98.359
1306.545, 360.375
1307.752, 133.314
1308.958, 86.818
1310.164, 508.387
1311.370, 100.959
1312.576, 324.514
1313.782, 327.861
1314.987, 179.547
1316.193, 272.414
1317.398, 345.045
1318.603, 207.434
1319.807, 418.838
1321.012, 60.537
1322.216, 522.160
1323.421, 313.615
1324.625, 155.352
1325.829, 376.646
1327.032, 298.711
1328.236, 139.213
1329.439, 521.779
1330.642, 173.389
1331.845, 305.936
1333.048, 346.666
1334.251, 39.801
1335.453, 532.648
1336.656, 106.064
1337.858, 237.734
1339.060, 568.994
1340.261, 59.535
1341.463, 391.682
1342.664, 351.121
1343.866, 17.852
1345.067, 505.146
1346.267, 327.574
1347.468, 150.578
1348.669, 580.543
1349.869, 313.602
1351.069, 445.803
1352.269, 617.734
1353.469, 100.609
1354.668, 594.027
1355.868, 442.402
1357.067, 302.932
1358.266, 454.291
1359.465, 324.639
1360.664, 180.229
1361.862, 605.945
1363.061, 222.361
1364.259, 417.395
1365.457, 284.773
1366.655, 124.957
1367.852, 547.877
1369.050, 142.887
1370.247, 2.881
1371.444, 440.846
1372.641, 77.836
1373.838, 6.467
1375.035, 0.000
##END=



