##NAMES=Elbaite
##RRUFFID=R050119
##IDEAL CHEMISTRY=Na(Al_1.5_Li_1.5_)Al_6_(Si_6_O_18_)(BO_3_)_3_(OH)_3_OH
##LOCALITY=Cruziero mine, San Jose, Minas Gerais, Brazil
##OWNER=RRUFF
##SOURCE=Carlos and Paulo Vasconcelos
##DESCRIPTION=Red fragment
##STATUS=The identification of this mineral has been confirmed by X-ray diffraction and chemical analysis
##URL=rruff.info/R050119
##MEASURED CHEMISTRY=(Na_0.90_Ca_0.10_)(Al_0.56_Li_0.38_Mn_0.06_)_3_Al_6_(BO_3_)_3_(Si_0.89_B_0.11_)_6_O_18_(OH)_4_
##PIN_ID=L00105
##ORIENTATION=Laser parallel to c* (0 0 1). Fiducial mark perpendicular to laser is parallel to b [0 1 0]
105.212, 0.000
106.604, 174.584
107.995, 332.477
109.387, 489.133
110.777, 669.436
112.168, 776.973
113.559, 917.017
114.949, 826.151
116.339, 904.803
117.729, 1039.832
119.119, 1328.100
120.508, 1197.940
121.897, 1278.950
123.286, 1282.148
124.675, 1693.370
126.063, 1674.591
127.452, 1826.863
128.840, 1824.941
130.228, 1959.344
131.615, 2013.315
133.003, 2150.047
134.390, 2057.139
135.777, 1882.458
137.164, 1716.233
138.550, 1749.583
139.937, 1558.603
141.323, 1339.719
142.709, 1094.738
144.094, 1104.674
145.480, 1147.610
146.865, 1162.042
148.250, 1222.986
149.635, 1005.542
151.019, 1079.684
152.403, 934.095
153.788, 1038.917
155.171, 895.764
156.555, 953.530
157.939, 641.318
159.322, 639.134
160.705, 526.979
162.088, 424.861
163.470, 342.782
164.853, 220.740
166.235, 208.730
167.617, 126.732
168.998, 124.734
170.380, 2.739
171.761, 80.754
173.142, 8.785
174.523, 46.835
175.904, 114.910
177.284, 46.985
178.664, 38.851
180.044, 80.682
181.424, 162.473
182.803, 264.224
184.183, 115.933
185.562, 207.597
186.940, 149.212
188.319, 90.778
189.698, 92.255
191.076, 73.599
192.454, 26.049
193.831, 104.146
195.209, 83.232
196.586, 212.454
197.963, 331.802
199.340, 391.265
200.717, 330.831
202.093, 399.535
203.470, 546.826
204.846, 724.066
206.221, 823.013
207.597, 1001.729
208.972, 1260.518
210.347, 1559.359
211.722, 1920.054
213.097, 2297.206
214.472, 2846.212
215.846, 3505.277
217.220, 4194.401
218.594, 4843.582
219.967, 5922.816
221.341, 6602.070
222.714, 7241.353
224.087, 7380.656
225.460, 7439.889
226.832, 6878.895
228.204, 6267.676
229.577, 5636.281
230.948, 4704.811
232.320, 4313.354
233.692, 3761.974
235.063, 3500.669
236.434, 3319.437
237.805, 3238.273
239.175, 2977.174
240.545, 3056.136
241.916, 3285.163
243.286, 3134.252
244.655, 3173.402
246.025, 2982.614
247.394, 2771.888
248.763, 2691.223
250.132, 2480.617
251.501, 2240.071
252.869, 1939.586
254.237, 1749.160
255.605, 1418.795
256.973, 1368.486
258.340, 1158.238
259.708, 958.049
261.075, 907.916
262.442, 840.392
263.808, 827.824
265.175, 877.863
266.541, 957.959
267.907, 1028.110
269.273, 1158.317
270.639, 999.021
272.004, 1070.952
273.369, 1163.554
274.734, 1016.579
276.099, 889.883
277.463, 813.374
278.828, 796.990
280.192, 890.687
281.556, 774.418
282.919, 778.155
284.283, 851.881
285.646, 775.587
287.009, 859.269
288.372, 802.912
289.734, 736.482
291.097, 681.005
292.459, 403.265
293.821, 406.490
295.183, 239.630
296.544, 37.287
297.905, 74.251
299.266, 151.255
300.627, 248.294
301.988, 265.399
303.348, 142.604
304.709, 119.875
306.069, 12.723
307.428, 135.146
308.788, 227.055
310.147, 418.585
311.507, 529.847
312.865, 600.967
314.224, 742.103
315.583, 823.306
316.941, 984.573
318.299, 1045.884
319.657, 1027.230
321.015, 1288.607
322.372, 1310.015
323.729, 1481.660
325.086, 1793.128
326.443, 2164.627
327.800, 2186.492
329.156, 2528.053
330.512, 2619.640
331.868, 2631.258
333.224, 2902.906
334.579, 2882.344
335.935, 2794.051
337.290, 2764.144
338.645, 2725.804
339.999, 2677.602
341.354, 2630.281
342.708, 2522.314
344.062, 2497.516
345.416, 2547.727
346.769, 2431.694
348.123, 2465.110
349.476, 2452.915
350.829, 2434.525
352.182, 2429.943
353.534, 2485.778
354.887, 2592.178
356.239, 2712.059
357.591, 2880.019
358.942, 3116.491
360.294, 3308.753
361.645, 3581.043
362.996, 3883.363
364.347, 4275.709
365.698, 4718.039
367.048, 5080.232
368.398, 5462.286
369.748, 6224.324
371.098, 6996.400
372.448, 7838.510
373.797, 9050.655
375.146, 10222.838
376.495, 11485.050
377.844, 12367.308
379.192, 12629.596
380.540, 12501.920
381.889, 11614.276
383.236, 10776.664
384.584, 9459.086
385.932, 8151.535
387.279, 7284.016
388.626, 6366.529
389.973, 5489.072
391.319, 4921.648
392.666, 4694.258
394.012, 4156.902
395.358, 4089.580
396.704, 4012.292
398.049, 3995.037
399.394, 3987.813
400.740, 4068.364
402.084, 4183.465
403.429, 4306.338
404.774, 4469.245
406.118, 4602.181
407.462, 4525.148
408.806, 4558.148
410.150, 4531.176
411.493, 4344.236
412.836, 4237.324
414.179, 3930.443
415.522, 3453.590
416.865, 3156.766
418.207, 2749.971
419.549, 2273.203
420.891, 2026.463
422.233, 1489.752
423.575, 1263.066
424.916, 876.409
426.257, 729.778
427.598, 433.174
428.939, 516.597
430.279, 410.044
431.619, 363.517
432.959, 197.014
434.299, 240.531
435.639, 364.063
436.978, 447.609
438.318, 371.168
439.657, 594.737
440.996, 618.316
442.334, 621.906
443.673, 765.506
445.011, 629.114
446.349, 642.732
447.687, 956.361
449.024, 809.998
450.361, 873.646
451.699, 807.303
453.036, 851.150
454.372, 914.915
455.709, 768.725
457.045, 877.118
458.381, 864.790
459.717, 722.187
461.053, 689.295
462.388, 647.366
463.724, 669.758
465.059, 605.177
466.394, 547.354
467.728, 614.277
469.063, 584.630
470.397, 529.353
471.731, 533.788
473.065, 483.532
474.398, 429.343
475.732, 408.184
477.065, 405.673
478.398, 361.795
479.731, 203.765
481.063, 227.778
482.396, 121.811
483.728, 14.084
485.060, 159.985
486.391, 24.071
487.723, 21.822
489.054, 132.297
490.385, 46.435
491.716, 120.590
493.047, 174.761
494.377, 98.949
495.708, 243.171
497.038, 267.415
498.368, 361.687
499.697, 376.008
501.027, 570.360
502.356, 714.792
503.685, 879.486
505.014, 1084.083
506.342, 1138.773
507.671, 1483.563
508.999, 1568.473
510.327, 1663.487
511.655, 1868.605
512.982, 1883.794
514.310, 1969.058
515.637, 2144.384
516.964, 2039.801
518.291, 1955.200
519.617, 1980.629
520.944, 2136.069
522.270, 1811.553
523.596, 1587.052
524.921, 1682.561
526.247, 1448.370
527.572, 1573.935
528.897, 1620.002
530.222, 1736.153
531.547, 1752.394
532.871, 1998.764
534.196, 2015.179
535.520, 2411.566
536.844, 2489.211
538.167, 2835.388
539.491, 2771.674
540.814, 2857.670
542.137, 2783.957
543.460, 2769.840
544.783, 2845.584
546.105, 2541.336
547.427, 2757.094
548.749, 2592.855
550.071, 2558.618
551.393, 2594.382
552.714, 2430.146
554.035, 2425.912
555.356, 2451.676
556.677, 2257.440
557.998, 2443.201
559.318, 2308.961
560.638, 2334.717
561.958, 2220.471
563.278, 2106.219
564.597, 1901.965
565.917, 1807.705
567.236, 1673.441
568.555, 1509.173
569.874, 1284.899
571.192, 1310.618
572.511, 1136.332
573.829, 1162.039
575.147, 937.739
576.464, 873.432
577.782, 840.236
579.099, 665.062
580.416, 636.912
581.733, 436.121
583.050, 521.771
584.366, 467.413
585.683, 463.045
586.999, 488.668
588.315, 434.281
589.630, 409.885
590.946, 275.477
592.261, 321.057
593.576, 336.626
594.891, 462.186
596.206, 387.735
597.520, 253.275
598.834, 278.804
600.148, 195.042
601.462, 219.826
602.776, 125.317
604.089, 90.794
605.402, 70.297
606.715, 221.707
608.028, 77.144
609.341, 122.565
610.653, 37.976
611.965, 63.367
613.277, 58.743
614.589, 75.898
615.901, 90.601
617.212, 115.362
618.523, 183.012
619.834, 135.102
621.145, 220.044
622.456, 144.435
623.766, 68.965
625.076, 203.057
626.386, 97.310
627.696, 11.631
629.006, 154.265
630.315, 79.927
631.624, 23.407
632.933, 67.774
634.242, 45.039
635.551, 174.656
636.859, 110.052
638.167, 246.188
639.475, 331.908
640.783, 137.790
642.090, 352.923
643.398, 378.041
644.705, 323.570
646.012, 388.405
647.318, 404.006
648.625, 429.108
649.931, 344.280
651.237, 349.562
652.543, 325.626
653.849, 311.936
655.155, 337.854
656.460, 260.033
657.765, 258.563
659.070, 392.863
660.375, 183.564
661.679, 482.483
662.984, 293.423
664.288, 460.174
665.592, 360.817
666.895, 292.200
668.199, 427.509
669.502, 407.959
670.805, 309.833
672.108, 320.629
673.411, 288.830
674.713, 328.037
676.016, 346.247
677.318, 341.252
678.620, 512.990
679.921, 368.202
681.223, 452.838
682.524, 267.632
683.825, 332.896
685.126, 236.948
686.427, 220.882
687.727, 204.786
689.028, 180.011
690.328, 173.979
691.628, 184.981
692.927, 74.271
694.227, 247.715
695.526, 237.697
696.825, 311.777
698.124, 245.422
699.423, 351.849
700.721, 495.224
702.020, 549.436
703.318, 802.500
704.616, 695.701
705.913, 888.203
707.211, 1120.969
708.508, 1443.705
709.805, 1546.077
711.102, 1858.176
712.399, 2090.403
713.695, 2462.400
714.992, 2934.348
716.288, 3266.241
717.584, 4058.085
718.879, 4569.875
720.175, 5771.613
721.470, 6553.300
722.765, 8064.935
724.060, 9626.518
725.355, 11458.044
726.649, 13759.522
727.944, 15860.945
729.238, 17492.316
730.532, 18883.635
731.825, 18724.904
733.119, 19146.113
734.412, 17117.268
735.705, 15248.379
736.998, 13499.430
738.291, 11590.430
739.584, 9871.376
740.876, 8392.569
742.168, 7383.609
743.460, 6534.617
744.752, 5735.348
746.043, 5076.024
747.334, 4396.647
748.626, 4007.662
749.916, 3668.691
751.207, 3489.815
752.498, 3361.121
753.788, 3001.686
755.078, 2902.556
756.368, 2902.895
757.658, 2693.246
758.947, 2653.621
760.237, 2383.697
761.526, 2394.256
762.815, 2204.451
764.104, 1845.036
765.392, 1895.424
766.680, 1445.102
767.969, 1415.051
769.257, 1224.773
770.544, 989.713
771.832, 913.738
773.119, 885.971
774.406, 603.844
775.693, 514.613
776.980, 289.942
778.267, 299.903
779.553, 184.488
780.839, 180.543
782.125, 173.124
783.411, 120.711
784.697, 129.705
785.982, 53.049
787.267, 139.721
788.552, 33.602
789.837, 108.787
791.122, 157.450
792.406, 55.922
793.690, 94.457
794.974, 72.929
796.258, 151.283
797.542, 199.630
798.825, 107.916
800.108, 176.141
801.391, 94.307
802.674, 182.408
803.957, 160.449
805.239, 128.430
806.522, 46.348
807.804, 34.196
809.085, 51.972
810.367, 70.321
811.649, 12.738
812.930, 105.249
814.211, 207.903
815.492, 20.914
816.772, 53.861
818.053, 13.075
819.333, 210.068
820.613, 63.407
821.893, 126.866
823.173, 50.477
824.452, 74.200
825.732, 58.048
827.011, 37.988
828.290, 76.106
829.568, 20.264
830.847, 75.483
832.125, 78.833
833.403, 46.725
834.681, 102.215
835.959, 77.644
837.236, 32.718
838.514, 122.017
839.791, 212.657
841.068, 207.197
842.345, 21.601
843.621, 165.819
844.898, 129.944
846.174, 5.954
847.450, 246.829
848.726, 68.970
850.001, 85.045
851.277, 159.298
852.552, 16.793
853.827, 197.459
855.102, 41.797
856.376, 246.075
857.651, 200.300
858.925, 354.470
860.199, 278.594
861.473, 272.666
862.746, 346.686
864.020, 420.663
865.293, 354.595
866.566, 538.481
867.839, 562.324
869.112, 416.123
870.384, 529.913
871.656, 453.660
872.928, 797.364
874.200, 551.059
875.472, 854.709
876.744, 708.357
878.015, 581.969
879.286, 875.536
880.557, 609.062
881.828, 662.547
883.098, 716.006
884.369, 539.446
885.639, 612.843
886.909, 546.239
888.178, 479.596
889.448, 582.911
890.717, 506.225
891.987, 419.501
893.256, 302.736
894.524, 325.226
895.793, 319.189
897.061, 392.354
898.330, 405.478
899.598, 488.572
900.865, 261.627
902.133, 244.638
903.401, 207.608
904.668, 150.570
905.935, 313.484
907.202, 226.365
908.468, 339.213
909.735, 322.019
911.001, 302.518
912.267, 427.535
913.533, 230.237
914.799, 302.902
916.064, 195.523
917.330, 228.122
918.595, 340.677
919.860, 283.193
921.124, 315.671
922.389, 368.108
923.653, 320.532
924.918, 512.943
926.182, 425.349
927.445, 507.770
928.709, 740.191
929.972, 522.011
931.236, 843.906
932.499, 705.316
933.761, 926.774
935.024, 1038.217
936.286, 809.377
937.549, 1000.570
938.811, 1050.971
940.073, 1102.188
941.334, 1272.188
942.596, 1033.234
943.857, 1224.482
945.118, 1204.934
946.379, 1255.742
947.640, 1276.336
948.900, 1377.412
950.161, 1268.656
951.421, 1249.430
952.681, 1110.506
953.940, 1371.096
955.200, 1312.125
956.459, 1293.027
957.719, 1253.766
958.978, 1313.662
960.236, 1213.254
961.495, 1533.180
962.753, 1106.789
964.012, 1333.988
965.270, 995.361
966.527, 1270.273
967.785, 1376.906
969.043, 1201.465
970.300, 1430.150
971.557, 1324.885
972.814, 1378.818
974.071, 1518.768
975.327, 1273.512
976.583, 1456.768
977.840, 1531.045
979.095, 1390.428
980.351, 1563.582
981.607, 1500.252
982.862, 1350.064
984.117, 1743.078
985.372, 1402.557
986.627, 1662.543
987.882, 1572.309
989.136, 1391.539
990.390, 1551.916
991.644, 1502.342
992.898, 1542.730
994.152, 1441.730
995.405, 1331.920
996.659, 1671.947
997.912, 1319.736
999.165, 1320.238
1000.417, 1694.131
1001.670, 1433.859
1002.922, 1683.953
1004.174, 1381.199
1005.426, 1391.430
1006.678, 1441.678
1007.930, 1412.086
1009.181, 1632.293
1010.432, 1433.975
1011.683, 1344.486
1012.934, 1704.959
1014.185, 1667.094
1015.435, 1778.070
1016.685, 1849.998
1017.935, 1921.551
1019.185, 1923.135
1020.435, 2092.662
1021.684, 2254.262
1022.934, 2535.852
1024.183, 2355.516
1025.432, 2676.363
1026.680, 2637.402
1027.929, 2709.900
1029.177, 2760.803
1030.425, 2722.746
1031.673, 3004.168
1032.921, 3009.227
1034.169, 2795.613
1035.416, 3216.668
1036.663, 2857.605
1037.911, 3149.184
1039.157, 3350.580
1040.404, 3441.131
1041.650, 3462.717
1042.897, 3524.209
1044.143, 3668.477
1045.389, 3898.852
1046.634, 4160.090
1047.880, 4261.582
1049.125, 4564.482
1050.371, 4685.758
1051.615, 5136.453
1052.860, 5277.689
1054.105, 5696.578
1055.349, 6186.141
1056.593, 6498.818
1057.837, 6791.277
1059.081, 7671.586
1060.325, 7945.348
1061.568, 8785.887
1062.812, 9237.334
1064.055, 9778.422
1065.298, 10678.656
1066.540, 10593.188
1067.783, 11323.488
1069.025, 11343.723
1070.267, 10994.381
1071.509, 11034.508
1072.751, 10135.031
1073.993, 9595.637
1075.234, 8945.902
1076.475, 7946.668
1077.716, 7357.018
1078.957, 6537.359
1080.198, 5627.605
1081.438, 5357.848
1082.679, 4368.191
1083.919, 4179.168
1085.159, 3599.406
1086.398, 3139.641
1087.638, 3130.121
1088.877, 2430.359
1090.116, 2321.564
1091.355, 2131.807
1092.594, 1832.053
1093.833, 1802.311
1095.071, 1492.557
1096.309, 1323.539
1097.547, 1563.789
1098.785, 1114.039
1100.023, 1084.910
1101.260, 1135.162
1102.498, 825.410
1103.735, 1075.664
1104.972, 1005.918
1106.208, 886.730
1107.445, 1086.988
1108.681, 737.248
1109.918, 897.885
1111.154, 858.154
1112.389, 648.453
1113.625, 728.781
1114.860, 699.123
1116.096, 539.525
1117.331, 820.457
1118.566, 530.779
1119.800, 761.527
1121.035, 671.846
1122.269, 912.178
1123.503, 1222.527
1124.737, 1192.779
1125.971, 643.051
1127.205, 843.268
1128.438, 373.371
1129.671, 743.648
1130.904, 553.762
1132.137, 363.859
1133.370, 644.375
1134.602, 674.393
1135.834, 674.381
1137.066, 864.328
1138.298, 374.250
1139.530, 994.162
1140.762, 784.059
1141.993, 503.939
1143.224, 1074.447
1144.455, 624.301
1145.686, 874.141
1146.917, 823.980
1148.147, 283.797
1149.377, 553.926
1150.607, 593.740
1151.837, 353.531
1153.067, 443.670
1154.296, 33.428
1155.526, 313.268
1156.755, 323.395
1157.984, 53.086
1159.213, 263.721
1160.441, 313.488
1161.670, 6.916
1162.898, 292.867
1164.126, 2.473
1165.354, 111.955
1166.581, 102.172
1167.809, 128.418
1169.036, 90.928
1170.263, 90.686
1171.490, 130.027
1172.717, 269.188
1173.943, 151.617
1175.170, 12.488
1176.396, 236.879
1177.622, 5.949
1178.848, 104.994
1180.073, 55.523
1181.299, 76.549
1182.524, 182.373
1183.749, 148.729
1184.974, 50.092
1186.199, 89.115
1187.423, 142.145
1188.648, 36.535
1189.872, 55.689
1191.096, 205.713
1192.320, 272.855
1193.543, 51.438
1194.767, 39.906
1195.990, 17.959
1197.213, 90.438
1198.436, 118.814
1199.659, 8.559
1200.881, 123.148
1202.104, 415.088
1203.326, 16.555
1204.548, 18.709
1205.770, 328.967
1206.991, 32.764
1208.213, 174.385
1209.434, 31.820
1210.655, 7.092
1211.876, 237.732
1213.096, 51.662
1214.317, 148.941
1215.537, 359.551
1216.757, 120.156
1217.977, 280.760
1219.197, 221.363
1220.417, 171.967
1221.636, 382.570
1222.855, 163.172
1224.074, 263.771
1225.293, 264.369
1226.512, 314.971
1227.731, 485.564
1228.949, 266.160
1230.167, 116.752
1231.385, 537.348
1232.603, 327.938
1233.820, 238.527
1235.038, 449.117
1236.255, 79.707
1237.472, 650.289
1238.689, 410.867
1239.906, 301.441
1241.122, 582.016
1242.338, 132.590
1243.555, 373.166
1244.771, 413.746
1245.986, 164.322
1247.202, 504.906
1248.417, 355.496
1249.633, 566.096
1250.848, 426.697
1252.063, 187.311
1253.277, 537.930
1254.492, 528.561
1255.706, 237.863
1256.920, 608.494
1258.134, 407.877
1259.348, 326.457
1260.562, 705.328
1261.775, 423.988
1262.988, 190.031
1264.201, 725.410
1265.414, 189.283
1266.627, 476.418
1267.839, 553.434
1269.052, 286.762
1270.264, 618.600
1271.476, 295.326
1272.688, 325.875
1273.899, 618.809
1275.111, 216.025
1276.322, 628.770
1277.533, 294.855
1278.744, 123.996
1279.955, 757.586
1281.165, 260.709
1282.376, 351.002
1283.586, 374.164
1284.796, 231.709
1286.006, 298.170
1287.215, 364.191
1288.425, 69.930
1289.634, 425.916
1290.843, 332.426
1292.052, 299.197
1293.261, 523.840
1294.469, 150.232
1295.678, 285.836
1296.886, 639.445
1298.094, 135.133
1299.302, 398.736
1300.509, 193.943
1301.717, 117.215
1302.924, 581.834
1304.131, 14.568
1305.338, 178.512
1306.545, 411.037
1307.752, 154.240
1308.958, 187.203
1310.164, 488.549
1311.370, 30.381
1312.576, 323.596
1313.782, 217.377
1314.987, 91.818
1316.193, 355.951
1317.398, 239.033
1318.603, 314.205
1319.807, 499.615
1321.012, 135.312
1322.216, 438.168
1323.421, 383.637
1324.625, 89.014
1325.829, 442.867
1327.032, 446.340
1328.236, 231.031
1329.439, 463.984
1330.642, 142.732
1331.845, 286.484
1333.048, 361.271
1334.251, 81.566
1335.453, 603.771
1336.656, 199.133
1337.858, 194.512
1339.060, 567.541
1340.261, 31.717
1341.463, 363.143
1342.664, 618.049
1343.866, 20.492
1345.067, 428.697
1346.267, 353.070
1347.468, 216.480
1348.669, 431.150
1349.869, 161.229
1351.069, 19.395
1352.269, 217.344
1353.469, 0.197
1354.668, 0.000
##END=



