##NAMES=Enstatite
##RRUFFID=R070418
##IDEAL CHEMISTRY=MgSiO_3_
##LOCALITY=India
##OWNER=RRUFF
##SOURCE=Michael Scott
##DESCRIPTION=Brown translucent fragments
##STATUS=The identification of this mineral has been confirmed by X-ray diffraction and chemical analysis
##URL=rruff.info/R070418
##MEASURED CHEMISTRY=(Mg_0.86_Fe_0.14_)_Î£=1_Si_1.00_O_3_; trace amounts of Al, Ca, Mn
##PIN_ID=L01297
##ORIENTATION=Laser parallel to c* (0 0 1). Fiducial mark perpendicular to laser is parallel to a [1 0 0]
41.80000, 0.0000000E+00
43.05200, 0.3286130
44.30500, 9.239563
45.55700, 18.60205
46.80900, 17.84503
48.06100, 21.01956
49.31300, 35.77402
50.56400, 44.46994
51.81600, 42.95331
53.06700, 69.74884
54.31800, 66.87979
55.56800, 89.78430
56.81900, 100.9971
58.06900, 110.5505
59.31900, 103.8885
60.56900, 110.4861
61.81900, 100.1386
63.06900, 102.4496
64.31800, 123.4304
65.56700, 154.0086
66.81600, 192.6166
68.06500, 208.2090
69.31300, 231.9431
70.56200, 232.4206
71.81000, 226.3642
73.05800, 208.6488
74.30500, 175.1277
75.55300, 185.8014
76.80000, 153.6705
78.04800, 158.7358
79.29500, 125.9977
80.54100, 121.4556
81.78800, 94.10663
83.03400, 55.94653
84.28100, 39.96997
85.52700, 23.17136
86.77200, 4.455688
88.01800, 12.91776
89.26300, 1.220734
90.50900, 30.37048
91.75400, 40.37628
92.99900, 35.24887
94.24300, 49.99637
95.48800, 52.61972
96.73200, 63.11810
97.97600, 41.49103
99.22000, 15.73761
100.4630, 6.857422
101.7070, 13.15027
102.9500, 55.28601
104.1930, 90.55017
105.4360, 175.9434
106.6790, 291.4669
107.9210, 420.1227
109.1640, 325.9110
110.4060, 234.8322
111.6480, 246.8861
112.8890, 311.0728
114.1310, 339.3925
115.3720, 369.8452
116.6130, 380.4302
117.8540, 376.1416
119.0950, 393.2216
120.3360, 401.6699
121.5760, 396.9548
122.8160, 427.0933
124.0560, 414.3199
125.2960, 423.6300
126.5350, 484.0211
127.7750, 494.4888
129.0140, 597.0281
130.2530, 619.6306
131.4920, 648.2896
132.7300, 643.0064
133.9690, 721.7827
135.2070, 714.6199
136.4450, 780.5180
137.6830, 871.4630
138.9210, 993.4344
140.1580, 1086.411
141.3950, 1140.381
142.6330, 1210.338
143.8690, 1324.276
145.1060, 1383.232
146.3430, 1379.266
147.5790, 1415.389
148.8150, 1371.601
150.0510, 1297.902
151.2870, 1324.294
152.5220, 1208.776
153.7580, 1172.347
154.9930, 1190.010
156.2280, 1100.763
157.4620, 1085.606
158.6970, 1135.541
159.9310, 1087.566
161.1660, 1136.681
162.4000, 1089.888
163.6330, 1122.185
164.8670, 1028.573
166.1000, 948.0516
167.3340, 872.6212
168.5670, 831.2832
169.8000, 758.0476
171.0320, 772.9349
172.2650, 736.9194
173.4970, 712.9958
174.7290, 744.1643
175.9610, 794.4224
177.1930, 973.7697
178.4240, 1098.206
179.6550, 1221.732
180.8870, 1404.347
182.1170, 1613.051
183.3480, 1959.844
184.5790, 2264.727
185.8090, 2653.699
187.0390, 3037.760
188.2690, 3453.912
189.4990, 3786.154
190.7290, 3798.607
191.9580, 3642.994
193.1870, 3457.377
194.4160, 3260.724
195.6450, 2845.031
196.8740, 2492.285
198.1020, 2123.505
199.3310, 1932.678
200.5590, 1759.790
201.7870, 1608.877
203.0140, 1454.534
204.2420, 1319.894
205.4690, 1209.841
206.6960, 1126.775
207.9230, 1075.718
209.1500, 1018.701
210.3760, 1053.665
211.6030, 1009.613
212.8290, 1031.518
214.0550, 1072.410
215.2810, 1104.199
216.5060, 1099.863
217.7320, 1223.394
218.9570, 1299.901
220.1820, 1510.509
221.4070, 1573.177
222.6320, 1849.802
223.8560, 2073.639
225.0800, 2457.436
226.3040, 2910.420
227.5280, 3275.326
228.7520, 3836.365
229.9760, 4458.297
231.1990, 5311.778
232.4220, 6212.112
233.6450, 7066.172
234.8680, 7576.115
236.0910, 7621.868
237.3130, 6772.688
238.5350, 5867.007
239.7570, 4801.024
240.9790, 3576.684
242.2010, 2646.737
243.4220, 1908.940
244.6430, 1386.796
245.8640, 1007.318
247.0850, 784.7600
248.3060, 587.9226
249.5270, 553.3215
250.7470, 454.7881
251.9670, 395.3219
253.1870, 354.9227
254.4070, 356.5901
255.6260, 301.3237
256.8460, 267.1233
258.0650, 264.9879
259.2840, 227.2106
260.5030, 260.9117
261.7220, 190.9702
262.9400, 208.0924
264.1580, 198.2777
265.3760, 246.5261
266.5940, 298.8372
267.8120, 390.2104
269.0290, 437.6458
270.2470, 551.1432
271.4640, 640.7019
272.6810, 675.3223
273.8980, 727.0038
275.1140, 583.7466
276.3310, 502.5502
277.5470, 439.4149
278.7630, 350.3402
279.9790, 350.3262
281.1940, 333.3730
282.4100, 364.4802
283.6250, 294.6482
284.8400, 299.8762
286.0550, 358.1650
287.2700, 359.5142
288.4850, 453.9243
289.6990, 633.3955
290.9130, 742.9275
292.1270, 932.5837
293.3410, 1229.239
294.5540, 1419.422
295.7680, 1478.110
296.9810, 1635.874
298.1940, 1598.538
299.4070, 1509.622
300.6200, 1400.638
301.8320, 1354.713
303.0450, 1297.155
304.2570, 1154.347
305.4690, 1143.599
306.6800, 1177.908
307.8920, 1335.276
309.1030, 1473.700
310.3150, 1807.183
311.5260, 2137.723
312.7360, 2593.318
313.9470, 3004.970
315.1580, 3524.680
316.3680, 4006.445
317.5780, 4263.265
318.7880, 4563.146
319.9980, 4684.087
321.2070, 4504.093
322.4170, 4521.171
323.6260, 4756.311
324.8350, 4902.523
326.0430, 5226.794
327.2520, 5902.128
328.4610, 6437.528
329.6690, 7349.992
330.8770, 8417.514
332.0850, 9816.104
333.2920, 11354.77
334.5000, 13233.50
335.7070, 15184.30
336.9140, 17155.14
338.1210, 18529.05
339.3280, 19409.00
340.5350, 19382.00
341.7410, 18526.05
342.9470, 16885.15
344.1540, 14784.32
345.3590, 12503.53
346.5650, 10607.79
347.7710, 8753.274
348.9760, 7408.459
350.1810, 6237.947
351.3860, 5168.335
352.5910, 4552.131
353.7950, 3951.635
355.0000, 3439.651
356.2040, 3081.695
357.4080, 2805.001
358.6120, 2592.635
359.8150, 2505.157
361.0190, 2262.578
362.2220, 2220.363
363.4250, 2199.382
364.6280, 2158.457
365.8310, 2283.586
367.0340, 2376.770
368.2360, 2412.008
369.4380, 2587.302
370.6400, 2734.649
371.8420, 2964.883
373.0440, 3352.506
374.2450, 3600.016
375.4470, 4009.579
376.6480, 4527.200
377.8490, 4881.877
379.0490, 5333.614
380.2500, 5395.415
381.4500, 5733.279
382.6510, 5807.205
383.8510, 5725.196
385.0500, 5628.258
386.2500, 5633.383
387.4500, 5518.576
388.6490, 5804.838
389.8480, 6038.168
391.0470, 6346.561
392.2460, 6868.007
393.4440, 7347.505
394.6430, 7680.053
395.8410, 7971.878
397.0390, 8238.292
398.2370, 8235.986
399.4340, 8180.729
400.6320, 8001.516
401.8290, 7646.354
403.0260, 7484.237
404.2230, 7012.169
405.4200, 6657.146
406.6170, 6501.172
407.8130, 6342.243
409.0090, 6052.358
410.2050, 6047.521
411.4010, 5754.729
412.5970, 5644.980
413.7920, 5181.280
414.9880, 4678.621
416.1830, 4152.008
417.3780, 3592.438
418.5730, 3091.912
419.7670, 2616.429
420.9620, 2215.990
422.1560, 1841.594
423.3500, 1521.240
424.5440, 1196.928
425.7380, 930.6582
426.9310, 712.3831
428.1240, 447.2434
429.3180, 389.0979
430.5110, 261.9934
431.7030, 203.9292
432.8960, 19.90527
434.0890, 94.92114
435.2810, 3.023193
436.4730, 44.07031
437.6650, 27.79712
438.8570, 45.63110
440.0480, 77.43677
441.2390, 39.22290
442.4310, 7.979736
443.6220, 10.29883
444.8120, 41.61426
446.0030, 18.03345
447.1940, 39.35156
448.3840, 171.7729
449.5740, 281.2302
450.7640, 260.7231
451.9540, 318.2512
453.1430, 372.8147
454.3330, 353.4131
455.5220, 204.0457
456.7110, 243.7126
457.9000, 143.4133
459.0890, 64.14771
460.2770, 110.9153
461.4650, 68.00708
462.6540, 25.54492
463.8420, 42.64673
465.0290, 92.37012
466.2170, 96.88770
467.4050, 133.8857
468.5920, 155.0312
469.7790, 161.9976
470.9660, 162.8494
472.1530, 120.5261
473.3390, 150.4792
474.5250, 145.4001
475.7120, 131.7439
476.8980, 198.9390
478.0840, 221.3352
479.2690, 298.1680
480.4550, 344.4712
481.6400, 422.7632
482.8250, 413.0823
484.0100, 421.4263
485.1950, 366.7986
486.3800, 266.1997
487.5640, 177.6265
488.7480, 104.0833
489.9320, 2.583252
491.1160, 60.89087
492.3000, 125.3496
493.4840, 139.8286
494.6670, 200.3298
495.8500, 192.8901
497.0330, 163.5054
498.2160, 217.1506
499.3990, 164.8533
500.5810, 150.5891
501.7630, 90.35498
502.9460, 106.1226
504.1280, 30.89868
505.3090, 63.34570
506.4910, 167.6277
507.6720, 380.9512
508.8540, 533.3105
510.0350, 794.7058
511.2160, 1069.144
512.3960, 1373.621
513.5770, 1686.132
514.7570, 1985.682
515.9380, 2344.268
517.1180, 2577.880
518.2970, 2688.519
519.4770, 2785.188
520.6570, 2891.902
521.8360, 2929.654
523.0150, 2936.432
524.1940, 2923.240
525.3730, 2776.073
526.5510, 2657.930
527.7300, 2401.802
528.9080, 2174.688
530.0860, 1993.602
531.2640, 1964.532
532.4420, 1988.479
533.6200, 2076.438
534.7970, 2343.408
535.9740, 2539.394
537.1510, 2584.389
538.3280, 2684.392
539.5050, 2458.404
540.6810, 2300.424
541.8580, 2066.452
543.0340, 1915.487
544.2100, 1877.529
545.3860, 1832.577
546.5610, 1906.632
547.7370, 1985.692
548.9120, 1932.758
550.0870, 1927.828
551.2620, 1690.905
552.4370, 1594.985
553.6120, 1420.070
554.7860, 1220.159
555.9600, 1131.251
557.1340, 1059.346
558.3080, 999.4438
559.4820, 1085.544
560.6560, 1087.646
561.8290, 1207.751
563.0020, 1372.856
564.1750, 1532.963
565.3480, 1725.070
566.5210, 2016.178
567.6930, 2227.287
568.8660, 2682.394
570.0380, 2977.502
571.2100, 3369.609
572.3820, 3685.714
573.5530, 3853.819
574.7250, 3872.957
575.8960, 3854.022
577.0670, 3562.057
578.2380, 3156.153
579.4090, 2730.779
580.5800, 2304.957
581.7500, 1806.115
582.9210, 1553.431
584.0910, 1352.382
585.2610, 1182.456
586.4300, 1034.526
587.6000, 967.2844
588.7690, 827.3446
589.9390, 905.3997
591.1080, 808.4492
592.2770, 708.4929
593.4450, 579.5305
594.6140, 523.5618
595.7820, 428.5863
596.9500, 335.6038
598.1190, 177.6140
599.2860, 208.6167
600.4540, 126.6116
601.6220, 42.59827
602.7890, 62.56396
603.9560, 21.51331
605.1230, 7.567871
606.2900, 43.30603
607.4570, 14.84326
608.6230, 56.95801
609.7890, 31.73938
610.9560, 14.49146
612.1220, 19.20679
613.2870, 64.88684
614.4530, 1.452881
615.6180, 41.83850
616.7840, 34.70959
617.9490, 31.22681
619.1140, 78.71106
620.2790, 112.1771
621.4430, 148.6296
622.6080, 173.4791
623.7720, 215.9062
624.9360, 278.1273
626.1000, 307.4702
627.2640, 338.1791
628.4270, 409.9031
629.5910, 430.7371
630.7540, 480.9744
631.9170, 520.1438
633.0800, 588.0247
634.2430, 610.3555
635.4050, 718.3047
636.5680, 720.9568
637.7300, 874.0818
638.8920, 892.7773
640.0540, 1113.438
641.2150, 1266.245
642.3770, 1460.457
643.5380, 1650.190
644.7000, 1882.916
645.8610, 2268.329
647.0210, 2679.681
648.1820, 3210.713
649.3430, 3734.933
650.5030, 4515.660
651.6630, 5396.870
652.8230, 6412.664
653.9830, 7727.722
655.1430, 9148.228
656.3020, 10834.61
657.4620, 12577.56
658.6210, 14274.61
659.7800, 15576.87
660.9390, 16519.20
662.0970, 16675.92
663.2560, 16016.42
664.4140, 14811.82
665.5720, 13449.93
666.7300, 12107.25
667.8880, 11084.73
669.0460, 10449.87
670.2030, 10331.47
671.3600, 10545.34
672.5180, 11096.40
673.6740, 11988.43
674.8310, 13469.17
675.9880, 15067.89
677.1440, 16940.48
678.3010, 18868.04
679.4570, 20838.63
680.6130, 22699.15
681.7690, 23716.67
682.9240, 23737.14
684.0800, 22710.58
685.2350, 20974.00
686.3900, 18261.39
687.5450, 15618.76
688.7000, 12936.10
689.8540, 10589.51
691.0090, 8697.796
692.1630, 6970.061
693.3170, 5875.299
694.4710, 4701.510
695.6250, 4017.698
696.7780, 3465.859
697.9320, 2993.993
699.0850, 2514.102
700.2380, 2234.185
701.3910, 1976.242
702.5440, 1743.273
703.6970, 1578.277
704.8490, 1401.906
706.0010, 1305.207
707.1530, 1175.133
708.3050, 1070.032
709.4570, 983.9343
710.6090, 889.6040
711.7600, 832.5720
712.9110, 757.3660
714.0620, 711.1333
715.2130, 669.6475
716.3640, 681.5894
717.5150, 617.2781
718.6650, 614.9427
719.8150, 618.5862
720.9650, 582.2123
722.1150, 587.8162
723.2650, 609.3947
724.4150, 618.9465
725.5640, 612.2731
726.7130, 596.9731
727.8630, 580.4476
729.0110, 566.8955
730.1600, 522.6193
731.3090, 514.7123
732.4570, 458.0809
733.6060, 451.4232
734.7540, 437.7390
735.9020, 378.0284
737.0490, 369.2915
738.1970, 350.9813
739.3440, 357.7388
740.4920, 343.6321
741.6390, 349.0852
742.7860, 373.0697
743.9320, 334.2135
745.0790, 380.9192
746.2250, 381.6018
747.3720, 356.6431
748.5180, 442.7012
749.6640, 411.8784
750.8100, 342.2354
751.9550, 377.3203
753.1010, 276.4414
754.2460, 234.1432
755.3910, 227.9976
756.5360, 157.6536
757.6810, 112.8762
758.8250, 120.6312
759.9700, 63.40002
761.1140, 112.1418
762.2580, 41.86084
763.4020, 35.54932
764.5460, 65.20581
765.6900, 20.83643
766.8330, 33.56824
767.9760, 19.96460
769.1200, 33.53601
770.2620, 6.084595
771.4050, 27.65234
772.5480, 3.753296
773.6900, 2.836548
774.8330, 50.42651
775.9750, 44.04761
777.1170, 47.68311
778.2590, 39.34668
779.4000, 44.03662
780.5420, 50.76807
781.6830, 40.54041
782.8240, 39.36414
783.9650, 55.24683
785.1060, 35.19641
786.2470, 39.20239
787.3870, 64.26562
788.5280, 57.06409
789.6680, 35.59851
790.8080, 56.85181
791.9480, 49.16956
793.0870, 16.54736
794.2270, 10.96729
795.3660, 45.42578
796.5060, 81.94031
797.6450, 68.52942
798.7830, 28.18530
799.9220, 41.88599
801.0610, 25.63818
802.1990, 22.43225
803.3370, 9.733765
804.4750, 0.8771970
805.6130, 43.00537
806.7510, 3.936035
807.8890, 9.893433
809.0260, 9.120117
810.1630, 7.113281
811.3000, 11.91345
812.4370, 24.03210
813.5740, 44.96057
814.7110, 40.87390
815.8470, 24.77222
816.9830, 40.65491
818.1190, 25.52332
819.2550, 46.37695
820.3910, 45.21655
821.5270, 45.29260
822.6620, 37.85522
823.7970, 38.65466
824.9330, 26.44128
826.0670, 2.215210
827.2020, 37.97510
828.3370, 38.23486
829.4710, 29.45874
830.6060, 67.18311
831.7400, 47.89600
832.8740, 28.59778
834.0080, 50.28882
835.1410, 56.96912
836.2750, 38.63940
837.4080, 92.29932
838.5410, 75.94934
839.6740, 84.59009
840.8070, 119.2214
841.9400, 106.8436
843.0730, 117.4570
844.2050, 119.0619
845.3370, 216.6586
846.4690, 160.2471
847.6010, 177.8278
848.7330, 279.4011
849.8640, 289.9672
850.9960, 371.5260
852.1270, 466.0781
853.2580, 568.6240
854.3890, 630.5510
855.5200, 690.6965
856.6500, 731.2239
857.7810, 788.7455
858.9110, 775.2617
860.0410, 786.7729
861.1710, 748.2791
862.3010, 694.7805
863.4310, 671.2773
864.5600, 590.7703
865.6900, 583.2588
866.8190, 477.7437
867.9480, 473.2250
869.0770, 355.7031
870.2050, 377.1783
871.3340, 335.6506
872.4620, 309.1205
873.5900, 310.5879
874.7180, 280.0533
875.8460, 307.5170
876.9740, 256.9855
878.1010, 237.4564
879.2290, 207.9371
880.3560, 249.4346
881.4830, 185.9386
882.6100, 238.4620
883.7370, 221.9904
884.8630, 229.5284
885.9900, 295.0809
887.1160, 242.6461
888.2420, 297.2166
889.3680, 329.8052
890.4940, 368.4224
891.6200, 369.0508
892.7450, 416.6912
893.8700, 383.3362
894.9960, 423.9841
896.1210, 304.2247
897.2460, 393.8774
898.3700, 311.7258
899.4950, 419.4429
900.6190, 360.7836
901.7430, 372.0986
902.8670, 317.2935
903.9910, 355.6527
905.1150, 356.9406
906.2390, 372.9984
907.3620, 415.7499
908.4850, 463.5199
909.6080, 500.9231
910.7310, 435.3859
911.8540, 563.2955
912.9770, 612.0239
914.0990, 620.3228
915.2210, 776.3748
916.3440, 789.0547
917.4660, 1013.427
918.5870, 1059.923
919.7090, 1219.475
920.8310, 1409.343
921.9520, 1682.014
923.0730, 1899.179
924.1940, 2156.301
925.3150, 2417.941
926.4360, 2673.758
927.5560, 2904.129
928.6770, 3140.627
929.7970, 3219.547
930.9170, 3331.373
932.0370, 3430.981
933.1570, 3586.514
934.2760, 3889.666
935.3960, 3983.049
936.5150, 4083.535
937.6340, 3998.312
938.7530, 3986.889
939.8720, 3840.299
940.9910, 3535.062
942.1090, 3320.374
943.2280, 3069.405
944.3460, 2793.267
945.4640, 2522.157
946.5820, 2259.351
947.6990, 2142.562
948.8170, 1853.915
949.9340, 1757.294
951.0520, 1502.643
952.1690, 1484.070
953.2860, 1375.486
954.4030, 1234.967
955.5190, 1203.479
956.6360, 1051.013
957.7520, 1023.572
958.8680, 985.1509
959.9840, 1048.761
961.1000, 970.3083
962.2160, 912.9851
963.3310, 943.6899
964.4470, 851.4224
965.5620, 874.1772
966.6770, 921.9570
967.7920, 877.7673
968.9060, 868.6060
970.0210, 956.4756
971.1360, 986.3711
972.2500, 965.2896
973.3640, 999.2373
974.4780, 1096.211
975.5920, 1169.208
976.7050, 1223.235
977.8190, 1383.297
978.9320, 1423.381
980.0450, 1589.489
981.1580, 1744.624
982.2710, 1845.788
983.3840, 2119.980
984.4970, 2373.195
985.6090, 2686.432
986.7210, 3061.693
987.8330, 3355.977
988.9450, 3892.283
990.0570, 4459.615
991.1690, 5222.973
992.2800, 6123.354
993.3920, 7245.767
994.5030, 8710.203
995.6140, 10193.66
996.7250, 12004.14
997.8350, 14297.65
998.9460, 17177.17
1000.056, 20444.73
1001.167, 24323.30
1002.277, 28945.90
1003.387, 34135.53
1004.496, 39265.18
1005.606, 44801.86
1006.715, 49336.55
1007.825, 51735.28
1008.934, 51938.03
1010.043, 49979.80
1011.152, 45804.61
1012.260, 41104.42
1013.369, 36264.26
1014.477, 32237.13
1015.586, 29144.02
1016.694, 26743.93
1017.802, 24708.91
1018.909, 23644.00
1020.017, 22645.98
1021.124, 21724.98
1022.232, 21212.01
1023.339, 20660.05
1024.446, 20085.12
1025.553, 19500.21
1026.659, 19188.32
1027.766, 18644.46
1028.872, 18050.62
1029.979, 17314.80
1031.085, 16444.00
1032.191, 15507.36
1033.296, 14505.62
1034.402, 13555.90
1035.507, 12524.21
1036.613, 11693.56
1037.718, 10573.94
1038.823, 9862.364
1039.928, 8918.819
1041.032, 8188.315
1042.137, 7409.841
1043.241, 6800.401
1044.346, 6020.005
1045.450, 5251.652
1046.554, 4717.344
1047.657, 4218.076
1048.761, 3719.227
1049.864, 3417.077
1050.968, 3096.937
1052.071, 2922.837
1053.174, 2530.136
1054.277, 2359.119
1055.379, 2158.644
1056.482, 1941.744
1057.584, 1711.855
1058.687, 1619.389
1059.789, 1508.831
1060.891, 1402.502
1061.992, 1219.469
1063.094, 1204.763
1064.196, 1036.683
1065.297, 1032.891
1066.398, 892.9021
1067.499, 846.5183
1068.600, 747.1677
1069.701, 707.7358
1070.801, 669.5342
1071.902, 556.4790
1073.002, 493.3296
1074.102, 483.6677
1075.202, 425.6050
1076.302, 417.9204
1077.402, 395.9216
1078.501, 367.2754
1079.600, 313.7983
1080.700, 314.8633
1081.799, 251.2737
1082.898, 252.1604
1083.996, 276.9639
1085.095, 194.1625
1086.193, 181.1843
1087.292, 176.4352
1088.390, 219.8735
1089.488, 200.7645
1090.586, 156.7207
1091.683, 149.1965
1092.781, 156.6587
1093.878, 173.9880
1094.975, 170.6742
1096.073, 170.2247
1097.169, 151.4761
1098.266, 185.3566
1099.363, 164.5724
1100.459, 177.2172
1101.556, 135.4843
1102.652, 205.5353
1103.748, 145.8838
1104.844, 162.7002
1105.940, 146.8723
1107.035, 137.1340
1108.131, 119.4512
1109.226, 173.3976
1110.321, 144.5701
1111.416, 145.0663
1112.511, 158.5103
1113.605, 132.1271
1114.700, 156.4524
1115.794, 143.7517
1116.889, 123.1547
1117.983, 147.4285
1119.077, 108.7731
1120.170, 147.0118
1121.264, 119.1128
1122.357, 171.7124
1123.451, 151.1191
1124.544, 106.4272
1125.637, 71.79175
1126.730, 74.44531
1127.823, 152.1559
1128.915, 92.53638
1130.008, 108.7549
1131.100, 137.2627
1132.192, 116.0874
1133.284, 150.4431
1134.376, 143.3666
1135.467, 99.76746
1136.559, 77.96191
1137.650, 82.47791
1138.742, 69.95361
1139.833, 60.97009
1140.924, 54.66589
1142.014, 53.87195
1143.105, 35.21863
1144.195, 53.45764
1145.286, 89.71875
1146.376, 2.959595
1147.466, 64.17139
1148.556, 5.615845
1149.646, 12.40356
1150.735, 34.87805
1151.825, 44.10510
1152.914, 54.31592
1154.003, 58.52637
1155.092, 25.73633
1156.181, 12.04089
1157.270, 61.28174
1158.358, 18.48889
1159.447, 31.73572
1160.535, 11.03552
1161.623, 42.23804
1162.711, 10.49072
1163.799, 20.79358
1164.886, 17.98804
1165.974, 11.17981
1167.061, 9.368896
1168.148, 23.55481
1169.235, 43.85107
1170.322, 12.03003
1171.409, 14.22327
1172.496, 45.39429
1173.582, 16.68860
1174.669, 19.85046
1175.755, 3.007568
1176.841, 10.15930
1177.927, 17.30542
1179.012, 16.55432
1180.098, 1.402588
1181.183, 59.72046
1182.269, 8.836792
1183.354, 14.05371
1184.439, 19.17297
1185.524, 36.73645
1186.608, 0.6682130
1187.693, 22.39099
1188.777, 11.54749
1189.862, 28.39758
1190.946, 46.31885
1192.030, 16.33411
1193.113, 6.633789
1194.197, 12.40820
1195.281, 32.46643
1196.364, 43.55225
1197.447, 51.67212
1198.530, 18.78638
1199.613, 31.95923
1200.696, 66.05566
1201.779, 19.31653
1202.861, 32.45740
1203.944, 38.77600
1205.026, 31.13123
1206.108, 35.87927
1207.190, 29.69580
1208.271, 34.15442
1209.353, 35.64966
1210.435, 43.18311
1211.516, 15.75916
1212.597, 6.364014
1213.678, 3.993408
1214.759, 7.353516
1215.840, 37.29150
1216.920, 24.00549
1218.001, 6.281128
1219.081, 0.3836670
1220.161, 36.97559
1221.241, 23.70813
1222.321, 22.55615
1223.401, 35.44202
1224.480, 8.372681
1225.560, 5.334473
1226.639, 21.67358
1227.718, 7.663086
1228.797, 13.37195
1229.876, 3.442627
1230.955, 12.54419
1232.033, 8.318115
1233.112, 27.15454
1234.190, 3.001343
1235.268, 8.783325
1236.346, 36.54102
1237.424, 8.719849
1238.501, 18.01709
1239.579, 58.64355
1240.656, 31.28674
1241.733, 11.90906
1242.811, 3.503540
1243.888, 12.71997
1244.964, 49.60010
1246.041, 42.11536
1247.117, 56.61060
1248.194, 50.08716
1249.270, 69.54443
1250.346, 22.98340
1251.422, 39.39587
1252.498, 50.78662
1253.573, 1.157349
1254.649, 58.49158
1255.724, 96.80615
1256.800, 101.1027
1257.875, 61.38110
1258.950, 95.64368
1260.024, 52.88843
1261.099, 40.11206
1262.173, 70.31152
1263.248, 38.49121
1264.322, 67.64624
1265.396, 144.7811
1266.470, 58.89758
1267.544, 25.99255
1268.617, 71.05774
1269.691, 94.10400
1270.764, 131.1310
1271.837, 85.13928
1272.910, 112.1278
1273.983, 108.0974
1275.056, 114.0475
1276.129, 146.9769
1277.201, 122.8967
1278.273, 131.9175
1279.346, 107.4779
1280.418, 121.3326
1281.489, 133.1682
1282.561, 132.9847
1283.633, 127.7826
1284.704, 105.5613
1285.776, 121.3220
1286.847, 188.0630
1287.918, 120.7848
1288.989, 108.4871
1290.059, 174.1691
1291.130, 115.8318
1292.200, 112.3417
1293.271, 141.9645
1294.341, 205.5677
1295.411, 181.1519
1296.481, 177.7167
1297.551, 109.2623
1298.620, 140.7875
1299.690, 133.2932
1300.759, 146.7792
1301.828, 108.2454
1302.897, 198.6909
1303.966, 169.1169
1305.035, 190.5233
1306.103, 236.9099
1307.172, 162.2769
1308.240, 136.2472
1309.308, 148.5425
1310.376, 185.8503
1311.444, 155.1384
1312.512, 112.0519
1313.580, 157.2999
1314.647, 169.0258
1315.714, 178.2010
1316.781, 140.3876
1317.848, 116.1693
1318.915, 127.2817
1319.982, 149.7513
1321.049, 158.1531
1322.115, 159.2378
1323.181, 212.7137
1324.248, 157.9282
1325.314, 185.3639
1326.380, 123.2080
1327.445, 131.0352
1328.511, 103.9558
1329.576, 162.6569
1330.642, 92.21338
1331.707, 170.8665
1332.772, 140.0475
1333.837, 76.63391
1334.902, 107.8481
1335.966, 135.3782
1337.031, 114.5571
1338.095, 127.5721
1339.159, 130.0455
1340.223, 109.1726
1341.287, 120.8229
1342.351, 124.5557
1343.415, 99.89294
1344.478, 129.4058
1345.541, 92.68872
1346.605, 75.78284
1347.668, 63.42285
1348.731, 69.99646
1349.793, 132.0487
1350.856, 181.1132
1351.918, 134.3096
1352.981, 113.1470
1354.043, 175.1179
1355.105, 141.3857
1356.167, 169.0222
1357.229, 127.3207
1358.290, 167.1880
1359.352, 115.4299
1360.413, 122.8850
1361.475, 76.04004
1362.536, 131.7236
1363.597, 177.0482
1364.657, 139.2799
1365.718, 109.4526
1366.779, 133.9924
1367.839, 105.3024
1368.899, 107.2844
1369.959, 133.4760
1371.019, 212.1683
1372.079, 112.3269
1373.139, 137.4891
1374.198, 202.5432
1375.258, 160.7219
1376.317, 144.8252
1377.376, 148.0454
1378.435, 109.3828
1379.494, 108.3608
1380.553, 88.27283
1381.611, 93.46582
1382.670, 93.52039
1383.728, 103.7683
1384.786, 112.9995
1385.844, 65.96387
1386.902, 120.2709
1387.960, 67.15674
1389.017, 107.7203
1390.075, 135.7518
1391.132, 98.26733
1392.189, 98.25256
1393.246, 92.42517
1394.303, 120.2709
1395.360, 89.15100
1396.417, 98.41418
1397.473, 72.53882
1398.529, 136.6718
1399.585, 117.6578
1400.642, 125.7458
1401.697, 114.0989
1402.753, 86.88013
1403.809, 56.97717
1404.864, 105.0676
1405.920, 82.15198
1406.975, 120.1841
1408.030, 132.2404
1409.085, 111.3242
1410.140, 103.4556
1411.194, 63.50879
1412.249, 61.86755
1413.303, 98.85815
1414.358, 75.87280
1415.412, 117.8406
1416.466, 104.7468
1417.520, 76.74817
1418.573, 129.6598
1419.627, 120.5854
1420.680, 114.5549
1421.733, 99.51892
1422.787, 81.59656
1423.840, 81.57739
1424.892, 74.84534
1425.945, 71.48682
1426.998, 79.24097
1428.050, 71.14819
1429.103, 79.92090
1430.155, 80.81335
1431.207, 101.6998
1432.259, 119.5692
1433.310, 127.4305
1434.362, 104.2855
1435.414, 108.4396
1436.465, 128.9613
1437.516, 82.80603
1438.567, 95.91003
1439.618, 77.38013
1440.669, 102.0693
1441.720, 115.7267
1442.770, 123.1981
1443.820, 121.6342
1444.871, 162.4835
1445.921, 104.1217
1446.971, 90.72400
1448.021, 84.27930
1449.070, 134.8203
1450.120, 148.3195
1451.169, 157.0137
1452.219, 187.1396
1453.268, 177.4062
1454.317, 204.4060
1455.366, 169.1948
1456.414, 132.8755
1457.463, 133.3882
1458.511, 130.2478
1459.560, 89.14844
1460.608, 100.0627
1461.656, 130.9863
1462.704, 128.9387
1463.752, 148.2827
1464.799, 86.85181
1465.847, 149.8428
1466.894, 113.8682
1467.941, 60.89624
1468.988, 85.94873
1470.035, 76.00366
1471.082, 89.05518
1472.129, 93.95142
1473.175, 73.16504
1474.222, 107.2441
1475.268, 105.3184
1476.314, 124.3777
1477.360, 127.7920
1478.406, 85.50562
1479.452, 109.5752
1480.498, 140.6526
1481.543, 95.73364
1482.588, 86.81226
1483.633, 100.8726
1484.679, 153.9534
1485.723, 137.0269
1486.768, 55.09888
1487.813, 102.1687
1488.857, 160.2341
1489.902, 34.29785
1490.946, 126.3618
1491.990, 78.42773
1493.034, 87.49561
1494.078, 53.56372
1495.122, 126.6333
1496.165, 73.70605
1497.209, 18.78345
1498.252, 101.8660
1499.295, 52.95312
1500.338, 40.04663
1501.381, 74.14648
1502.424, 18.25195
1503.466, 47.37207
1504.509, 13.51050
1505.551, 34.66553
1506.593, 2.839600
1507.635, 79.03564
1508.677, 16.25049
1509.719, 29.47925
1510.761, 16.27588
1511.802, 1.649902
1512.844, 32.27100
1513.885, 23.56348
1514.926, 19.86768
1515.967, 6.182617
1517.008, 17.50708
1518.049, 71.84106
1519.089, 66.18457
1520.130, 49.53784
1521.170, 6.098145
1522.210, 2.277588
1523.250, 55.66504
1524.290, 27.06519
1525.330, 67.47949
1526.370, 94.90918
1527.409, 45.35522
1528.448, 47.81982
1529.488, 38.30396
1530.527, 30.80933
1531.566, 16.26904
1532.605, 49.81982
1533.643, 18.33276
1534.682, 5.791504
1535.720, 46.07886
1536.759, 5.375244
1537.797, 50.87500
1538.835, 28.76318
1539.873, 54.23413
1540.910, 76.33569
1541.948, 19.82227
1542.986, 68.40527
1544.023, 11.32300
1545.060, 58.68140
1546.097, 21.02100
1547.134, 0.6672360
1548.171, 14.42139
1549.208, 21.48975
1550.244, 28.56714
1551.281, 44.75562
1552.317, 44.38428
1553.353, 50.78857
1554.389, 56.92139
1555.425, 47.88818
1556.461, 51.36792
1557.497, 38.68188
1558.532, 23.66357
1559.567, 34.49243
1560.603, 49.55688
1561.638, 61.29541
1562.673, 0.2092290
1563.708, 0.0000000E+00
##END=



