##NAMES=Enstatite
##RRUFFID=R070418
##IDEAL CHEMISTRY=MgSiO_3_
##LOCALITY=India
##OWNER=RRUFF
##SOURCE=Michael Scott
##DESCRIPTION=Brown translucent fragments
##STATUS=The identification of this mineral has been confirmed by X-ray diffraction and chemical analysis
##URL=rruff.info/R070418
##MEASURED CHEMISTRY=(Mg_0.86_Fe_0.14_)_Î£=1_Si_1.00_O_3_; trace amounts of Al, Ca, Mn
##PIN_ID=L01848
##ORIENTATION=Laser parallel to a* (1 0 0). Fiducial mark perpendicular to laser is parallel to b [0 1 0]
112.8890, 0.0000000E+00
114.1310, 74.44531
115.3720, 198.2461
116.6130, 119.3589
117.8540, 173.3872
119.0950, 30.78857
120.3360, 4.702148
121.5760, 28.78906
122.8160, 134.2915
124.0560, 153.7256
125.2960, 159.9019
126.5350, 80.26611
127.7750, 208.3491
129.0140, 138.7617
130.2530, 239.1909
131.4920, 357.3794
132.7300, 276.2251
133.9690, 482.8623
135.2070, 424.0942
136.4450, 451.6636
137.6830, 593.3691
138.9210, 771.0527
140.1580, 941.5884
141.3950, 1177.873
142.6330, 1493.824
143.8690, 1586.375
145.1060, 1914.475
146.3430, 1972.077
147.5790, 2236.141
148.8150, 2260.635
150.0510, 2220.526
151.2870, 2174.303
152.5220, 1895.246
153.7580, 1614.048
154.9930, 1467.280
156.2280, 1285.437
157.4620, 1155.535
158.6970, 1075.562
159.9310, 995.5435
161.1660, 963.4956
162.4000, 1033.429
163.6330, 1150.358
164.8670, 1196.290
166.1000, 1261.232
167.3340, 1409.196
168.5670, 901.1870
169.8000, 872.2168
171.0320, 939.2959
172.2650, 782.4297
173.4970, 727.6289
174.7290, 785.9053
175.9610, 723.2661
177.1930, 752.7119
178.4240, 782.2402
179.6550, 964.8491
180.8870, 1075.538
182.1170, 1119.304
183.3480, 1423.146
184.5790, 1716.063
185.8090, 2124.053
187.0390, 2691.074
188.2690, 3306.756
189.4990, 4171.196
190.7290, 4598.302
191.9580, 4402.377
193.1870, 3941.107
194.4160, 3430.801
195.6450, 2875.452
196.8740, 2469.604
198.1020, 2168.660
199.3310, 1962.815
200.5590, 1766.071
201.7870, 1764.428
203.0140, 1608.884
204.2420, 1243.441
205.4690, 977.0957
206.6960, 703.8496
207.9230, 533.6992
209.1500, 549.6436
210.3760, 503.6807
211.6030, 461.8071
212.8290, 382.0229
214.0550, 426.3247
215.2810, 497.7134
216.5060, 404.1851
217.7320, 505.7388
218.9570, 548.3975
220.1820, 715.1353
221.4070, 835.9512
222.6320, 1044.848
223.8560, 1255.847
225.0800, 1559.020
226.3040, 1978.344
227.5280, 2377.775
228.7520, 3014.303
229.9760, 3909.918
231.1990, 4920.690
232.4220, 6390.605
233.6450, 8132.690
234.8680, 10012.97
236.0910, 10846.43
237.3130, 9972.012
238.5350, 8542.650
239.7570, 6564.319
240.9790, 4773.022
242.2010, 3554.758
243.4220, 2481.525
244.6430, 1774.326
245.8640, 1190.159
247.0850, 955.0244
248.3060, 665.9219
249.5270, 444.8506
250.7470, 478.8110
251.9670, 289.8018
253.1870, 195.8242
254.4070, 236.8765
255.6260, 120.9590
256.8460, 129.0713
258.0650, 242.2134
259.2840, 149.2695
260.5030, 111.6387
261.7220, 97.85693
262.9400, 64.13379
264.1580, 83.77881
265.3760, 127.1797
266.5940, 177.3047
267.8120, 186.8877
269.0290, 174.5537
270.2470, 199.8535
271.4640, 186.4697
272.6810, 149.7227
273.8980, 135.8511
275.1140, 118.8647
276.3310, 13.22852
277.5470, 40.55664
278.7630, 6.762207
279.9790, 0.1865230
281.1940, 113.7056
282.4100, 201.3154
283.6250, 314.0103
284.8400, 401.7842
286.0550, 434.6323
287.2700, 642.5513
288.4850, 835.5376
289.6990, 1099.588
290.9130, 1494.699
292.1270, 1774.870
293.3410, 2181.096
294.5540, 2662.377
295.7680, 3000.709
296.9810, 3463.091
298.1940, 3661.520
299.4070, 3675.984
300.6200, 3539.478
301.8320, 3120.995
303.0450, 2805.539
304.2570, 2757.110
305.4690, 2563.707
306.6800, 2749.330
307.8920, 2940.980
309.1030, 3194.658
310.3150, 3592.361
311.5260, 4010.093
312.7360, 4643.850
313.9470, 5468.634
315.1580, 6477.445
316.3680, 7626.285
317.5780, 8628.148
318.7880, 9133.042
319.9980, 9526.960
321.2070, 9276.904
322.4170, 8897.498
323.6260, 8521.493
324.8350, 8398.517
326.0430, 8892.570
327.2520, 9486.656
328.4610, 10617.76
329.6690, 12028.07
330.8770, 13923.24
332.0850, 16617.20
333.2920, 19932.79
334.5000, 23758.52
335.7070, 28577.80
336.9140, 33659.95
338.1210, 38501.39
339.3280, 43175.20
340.5350, 44918.44
341.7410, 43849.82
342.9470, 41158.59
344.1540, 36507.20
345.3590, 31176.29
346.5650, 26133.28
347.7710, 21802.40
348.9760, 17969.83
350.1810, 15129.48
351.3860, 12966.90
352.5910, 11181.36
353.7950, 9627.474
355.0000, 8464.066
356.2040, 7727.624
357.4080, 6838.742
358.6120, 6257.713
359.8150, 5756.408
361.0190, 5495.888
362.2220, 5156.060
363.4250, 4870.251
364.6280, 4724.464
365.8310, 4711.698
367.0340, 4749.952
368.2360, 4754.227
369.4380, 4987.520
370.6400, 5364.833
371.8420, 5490.166
373.0440, 6023.516
374.2450, 6460.884
375.4470, 6992.271
376.6480, 7476.676
377.8490, 7960.097
379.0490, 8411.531
380.2500, 8585.985
381.4500, 8681.452
382.6510, 8677.930
383.8510, 8822.425
385.0500, 9099.932
386.2500, 9519.453
387.4500, 10121.99
388.6490, 11326.54
389.8480, 12756.09
391.0470, 14509.67
392.2460, 16439.26
393.4440, 18408.85
394.6430, 20683.47
395.8410, 22849.09
397.0390, 24518.72
398.2370, 25814.37
399.4340, 26285.03
400.6320, 26213.70
401.8290, 25594.38
403.0260, 24402.08
404.2230, 23109.78
405.4200, 21818.52
406.6170, 20174.29
407.8130, 18939.13
409.0090, 17562.09
410.2050, 16191.05
411.4010, 15170.50
412.5970, 14019.48
413.7920, 13015.12
414.9880, 11914.48
416.1830, 11007.52
417.3780, 10037.40
418.5730, 9124.986
419.7670, 8210.420
420.9620, 7407.393
422.1560, 6569.387
423.3500, 5776.220
424.5440, 5091.842
425.7380, 4337.929
426.9310, 3578.033
428.1240, 3109.151
429.3180, 2637.284
430.5110, 2298.430
431.7030, 1990.590
432.8960, 1750.764
434.0890, 1636.950
435.2810, 1633.148
436.4730, 1434.360
437.6650, 1321.582
438.8570, 1338.816
440.0480, 1217.062
441.2390, 1051.318
442.4310, 833.5850
443.6220, 682.8623
444.8120, 546.2119
446.0030, 382.4478
447.1940, 333.7549
448.3840, 241.0723
449.5740, 191.3989
450.7640, 293.7354
451.9540, 385.0801
453.1430, 256.4346
454.3330, 394.7969
455.5220, 383.1685
456.7110, 328.5488
457.9000, 151.9365
459.0890, 248.8701
460.2770, 286.2739
461.4650, 269.9023
462.6540, 274.3208
463.8420, 76.74658
465.0290, 7.820801
466.2170, 147.7183
467.4050, 72.64062
468.5920, 157.3755
469.7790, 206.6079
470.9660, 57.58887
472.1530, 33.67188
473.3390, 76.15381
474.5250, 8.013184
475.7120, 25.43213
476.8980, 55.12207
478.0840, 99.71436
479.2690, 39.63477
480.4550, 106.0137
481.6400, 62.27637
482.8250, 2.427246
484.0100, 22.14062
485.1950, 57.12695
486.3800, 7.585449
487.5640, 15.30762
488.7480, 81.04248
489.9320, 48.81934
491.1160, 70.62793
492.3000, 5.479980
493.4840, 103.3398
494.6670, 86.66211
495.8500, 97.45166
497.0330, 105.1797
498.2160, 104.1670
499.3990, 62.17529
500.5810, 25.19385
501.7630, 37.21045
502.9460, 30.74316
504.1280, 131.7212
505.3090, 245.7568
506.4910, 312.8247
507.6720, 461.9448
508.8540, 564.0854
510.0350, 695.2744
511.2160, 989.5347
512.3960, 1248.847
513.5770, 1709.218
514.7570, 2054.631
515.9380, 2731.047
517.1180, 3200.516
518.2970, 3858.004
519.4770, 4787.497
520.6570, 5450.015
521.8360, 6222.549
523.0150, 7061.124
524.1940, 7500.726
525.3730, 7651.329
526.5510, 7081.939
527.7300, 6369.549
528.9080, 5733.156
530.0860, 5238.773
531.2640, 4797.388
532.4420, 4617.003
533.6200, 4906.637
534.7970, 5279.268
535.9740, 5942.898
537.1510, 6402.526
538.3280, 6485.155
539.5050, 6429.777
540.6810, 5944.400
541.8580, 5441.021
543.0340, 4928.639
544.2100, 4899.254
545.3860, 4738.874
546.5610, 4944.489
547.7370, 5399.101
548.9120, 5516.711
550.0870, 5658.332
551.2620, 5103.964
552.4370, 4489.622
553.6120, 3723.311
554.7860, 3049.034
555.9600, 2547.789
557.1340, 2209.581
558.3080, 1758.407
559.4820, 1436.258
560.6560, 1389.133
561.8290, 1280.026
563.0020, 1250.915
564.1750, 1125.807
565.3480, 1050.695
566.5210, 999.5791
567.6930, 1063.456
568.8660, 986.3252
570.0380, 1075.188
571.2100, 1192.042
572.3820, 1142.889
573.5530, 1252.727
574.7250, 1181.557
575.8960, 1365.378
577.0670, 1230.192
578.2380, 1174.996
579.4090, 954.7910
580.5800, 959.5771
581.7500, 681.3540
582.9210, 623.1211
584.0910, 573.8789
585.2610, 588.6260
586.4300, 574.3638
587.6000, 539.0918
588.7690, 391.8086
589.9390, 531.5151
591.1080, 367.2109
592.2770, 517.8960
593.4450, 293.5703
594.6140, 404.2334
595.7820, 229.8853
596.9500, 257.5254
598.1190, 232.1538
599.2860, 55.77100
600.4540, 139.3711
601.6220, 78.95898
602.7890, 209.5317
603.9560, 112.0918
605.1230, 179.6406
606.2900, 88.54932
607.4570, 16.07080
608.6230, 22.56396
609.7890, 44.03125
610.9560, 58.47803
612.1220, 20.09375
613.2870, 102.1260
614.4530, 21.49219
615.6180, 134.0615
616.7840, 182.0176
617.9490, 143.8179
619.1140, 221.9790
620.2790, 294.1543
621.4430, 305.8979
622.6080, 490.1572
623.7720, 583.1226
624.9360, 711.7446
626.1000, 777.8657
627.2640, 653.9727
628.4270, 713.6973
629.5910, 667.2476
630.7540, 542.6973
631.9170, 589.6113
633.0800, 610.1577
634.2430, 582.3750
635.4050, 694.0698
636.5680, 738.0264
637.7300, 751.6011
638.8920, 890.7578
640.0540, 970.9053
641.2150, 1202.756
642.3770, 1318.352
643.5380, 1755.572
644.7000, 2069.073
645.8610, 2344.537
647.0210, 2674.946
648.1820, 3090.567
649.3430, 3743.023
650.5030, 4184.811
651.6630, 4887.209
652.8230, 5828.243
653.9830, 7033.083
655.1430, 8540.194
656.3020, 10051.95
657.4620, 11884.43
658.6210, 13939.58
659.7800, 16024.99
660.9390, 17748.65
662.0970, 18229.30
663.2560, 17945.22
664.4140, 16421.03
665.5720, 14893.54
666.7300, 12853.17
667.8880, 11346.78
669.0460, 9984.881
670.2030, 9221.442
671.3600, 8995.979
672.5180, 8834.688
673.6740, 9299.176
674.8310, 9863.637
675.9880, 10871.08
677.1440, 12140.49
678.3010, 13686.88
679.4570, 15551.25
680.6130, 17245.65
681.7690, 18831.96
682.9240, 19447.25
684.0800, 19260.45
685.2350, 18121.70
686.3900, 15996.92
687.5450, 13527.36
688.7000, 11334.53
689.8540, 9330.669
691.0090, 7790.789
692.1630, 6280.882
693.3170, 5092.951
694.4710, 4315.993
695.6250, 3459.011
696.7780, 2967.002
697.9320, 2462.968
699.0850, 2307.907
700.2380, 1826.821
701.3910, 1617.708
702.5440, 1323.569
703.6970, 1298.404
704.8490, 1104.213
706.0010, 1066.996
707.1530, 794.7524
708.3050, 703.4829
709.4570, 687.1870
710.6090, 749.8657
711.7600, 608.5176
712.9110, 543.1440
714.0620, 411.7446
715.2130, 364.4741
716.3640, 381.8687
717.5150, 291.3916
718.6650, 326.8892
719.8150, 329.3608
720.9650, 251.8076
722.1150, 344.2285
723.2650, 325.6245
724.4150, 325.9946
725.5640, 227.3398
726.7130, 253.6602
727.8630, 218.9551
729.0110, 207.2246
730.1600, 266.4692
731.3090, 323.6895
732.4570, 416.8843
733.6060, 277.0557
734.7540, 209.2017
735.9020, 205.3228
737.0490, 324.4194
738.1970, 343.9546
739.3440, 296.0034
740.4920, 312.8101
741.6390, 217.8110
742.7860, 284.7876
743.9320, 255.7412
745.0790, 380.5635
746.2250, 273.9849
747.3720, 375.5771
748.5180, 515.6543
749.6640, 513.9663
750.8100, 462.1597
751.9550, 461.9351
753.1010, 476.3438
754.2460, 324.1128
755.3910, 238.8618
756.5360, 315.6113
757.6810, 239.3706
758.8250, 205.1104
759.9700, 222.8628
761.1140, 80.59424
762.2580, 100.3105
763.4020, 2.981934
764.5460, 45.67676
765.6900, 40.31689
766.8330, 18.93994
767.9760, 50.55322
769.1200, 65.16260
770.2620, 24.77344
771.4050, 45.36133
772.5480, 75.04297
773.6900, 26.50098
774.8330, 171.9849
775.9750, 117.5669
777.1170, 79.21875
778.2590, 56.93066
779.4000, 64.30078
780.5420, 56.47070
781.6830, 168.3096
782.8240, 73.27490
783.9650, 153.3169
785.1060, 30.47705
786.2470, 140.6890
787.3870, 227.0107
788.5280, 158.4868
789.6680, 186.0806
790.8080, 120.8052
791.9480, 28.37500
793.0870, 170.4653
794.2270, 40.42529
795.3660, 13.56348
796.5060, 74.46924
797.6450, 32.56885
798.7830, 129.7119
799.9220, 87.94922
801.0610, 15.74316
802.1990, 5.580566
803.3370, 49.07031
804.4750, 66.89307
805.6130, 20.66650
806.7510, 44.92920
807.8890, 31.51221
809.0260, 67.91650
810.1630, 84.60400
811.3000, 85.11230
812.4370, 22.61133
813.5740, 167.0996
814.7110, 14.57861
815.8470, 82.04834
816.9830, 1.508789
818.1190, 68.95898
819.2550, 119.4014
820.3910, 30.16455
821.5270, 139.2490
822.6620, 69.65625
823.7970, 10.94385
824.9330, 78.44629
826.0670, 93.83008
827.2020, 156.2080
828.3370, 201.5806
829.4710, 88.94775
830.6060, 77.30957
831.7400, 231.6680
832.8740, 153.0215
834.0080, 209.3706
835.1410, 233.7168
836.2750, 244.0605
837.4080, 210.4009
838.5410, 193.7397
839.6740, 290.0757
840.8070, 343.4102
841.9400, 368.7427
843.0730, 538.0747
844.2050, 580.4058
845.3370, 647.7363
846.4690, 690.0659
847.6010, 719.3965
848.7330, 839.7266
849.8640, 984.9336
850.9960, 1042.390
852.1270, 1416.723
853.2580, 1632.058
854.3890, 1964.395
855.5200, 3244.733
856.6500, 2441.074
857.7810, 2763.418
858.9110, 2561.765
860.0410, 4027.115
861.1710, 4222.469
862.3010, 5154.826
863.4310, 2396.188
864.5600, 2153.555
865.6900, 1924.926
866.8190, 1789.302
867.9480, 1531.684
869.0770, 1264.072
870.2050, 1181.465
871.3340, 1099.864
872.4620, 909.2705
873.5900, 832.6826
874.7180, 737.1055
875.8460, 798.5361
876.9740, 715.9746
878.1010, 649.4219
879.2290, 687.8828
880.3560, 473.3662
881.4830, 568.8584
882.6100, 609.3682
883.7370, 482.8936
884.8630, 506.4473
885.9900, 470.0146
887.1160, 474.6094
888.2420, 551.2402
889.3680, 488.8896
890.4940, 557.5508
891.6200, 622.2236
892.7450, 723.9072
893.8700, 695.6094
894.9960, 708.3232
896.1210, 761.0479
897.2460, 626.5605
898.3700, 665.2803
899.4950, 612.1416
900.6190, 783.2119
901.7430, 745.2031
902.8670, 668.5117
903.9910, 674.8037
905.1150, 634.3486
906.2390, 743.0947
907.3620, 714.4346
908.4850, 640.2754
909.6080, 930.2285
910.7310, 713.1143
911.8540, 859.4824
912.9770, 824.3242
914.0990, 1123.644
915.2210, 1259.521
916.3440, 1246.015
917.4660, 1718.582
918.5870, 1763.191
919.7090, 2113.883
920.8310, 2574.369
921.9520, 3087.025
923.0730, 3600.354
924.1940, 4334.082
925.3150, 4999.176
926.4360, 5455.474
927.5560, 6012.508
928.6770, 6168.905
929.7970, 6279.588
930.9170, 6224.617
932.0370, 6282.443
933.1570, 6387.016
934.2760, 6424.617
935.3960, 6453.963
936.5150, 6369.442
937.6340, 6602.240
938.7530, 6333.950
939.8720, 6209.695
940.9910, 5765.959
942.1090, 5493.789
943.2280, 5014.678
944.3460, 4717.410
945.4640, 4249.402
946.5820, 3799.463
947.6990, 3395.603
948.8170, 3229.807
949.9340, 2896.065
951.0520, 2607.345
952.1690, 2485.674
953.2860, 2003.071
954.4030, 1929.504
955.5190, 1580.068
956.6360, 1510.473
957.7520, 1677.197
958.8680, 1396.603
959.9840, 1341.305
961.1000, 1187.052
962.2160, 1217.833
963.3310, 1037.655
964.4470, 1088.528
965.5620, 985.4521
966.6770, 801.4121
967.7920, 826.4258
968.9060, 870.4824
970.0210, 961.5977
971.1360, 853.7695
972.2500, 858.9775
973.3640, 828.2197
974.4780, 866.4990
975.5920, 966.8135
976.7050, 942.1641
977.8190, 1054.551
978.9320, 1061.977
980.0450, 1087.437
981.1580, 1361.933
982.2710, 1536.467
983.3840, 1826.038
984.4970, 1880.646
985.6090, 2190.291
986.7210, 2627.972
987.8330, 2784.688
988.9450, 3226.440
990.0570, 3697.229
991.1690, 4187.056
992.2800, 5002.919
993.3920, 5754.819
994.5030, 6807.755
995.6140, 8179.729
996.7250, 9323.738
997.8350, 11197.78
998.9460, 12980.86
1000.056, 15217.98
1001.167, 17637.13
1002.277, 20381.33
1003.387, 23264.55
1004.496, 26422.81
1005.606, 29808.11
1006.715, 33495.45
1007.825, 36178.82
1008.934, 38205.23
1010.043, 38905.68
1011.152, 38118.15
1012.260, 37008.65
1013.369, 35868.23
1014.477, 35269.82
1015.586, 35011.45
1016.694, 34873.11
1017.802, 35317.89
1018.909, 35738.66
1020.017, 36188.44
1021.124, 36375.06
1022.232, 37005.91
1023.339, 37149.88
1024.446, 37075.78
1025.553, 36896.72
1026.659, 36672.93
1027.766, 36664.94
1028.872, 36108.98
1029.979, 34928.05
1031.085, 33882.16
1032.191, 32022.30
1033.296, 29818.50
1034.402, 27541.72
1035.507, 25159.00
1036.613, 22987.31
1037.718, 20795.65
1038.823, 18653.79
1039.928, 17074.21
1041.032, 15175.67
1042.137, 13688.93
1043.241, 12203.50
1044.346, 10954.16
1045.450, 9697.897
1046.554, 8789.992
1047.657, 7750.849
1048.761, 7070.746
1049.864, 6566.320
1050.968, 5971.355
1052.071, 5376.699
1053.174, 5014.877
1054.277, 4633.103
1055.379, 4011.402
1056.482, 3693.803
1057.584, 3356.400
1058.687, 3040.967
1059.789, 2740.054
1060.891, 2450.452
1061.992, 2182.258
1063.094, 1891.291
1064.196, 1687.222
1065.297, 1642.104
1066.398, 1333.484
1067.499, 1320.476
1068.600, 1065.015
1069.701, 1002.898
1070.801, 921.7178
1071.902, 877.2930
1073.002, 786.9336
1074.102, 701.0693
1075.202, 770.3916
1076.302, 823.3691
1077.402, 760.8770
1078.501, 605.6865
1079.600, 648.1230
1080.700, 730.4766
1081.799, 827.6943
1082.898, 635.3848
1083.996, 714.6113
1085.095, 581.3564
1086.193, 565.0420
1087.292, 664.2119
1088.390, 480.7061
1089.488, 427.0771
1090.586, 426.4590
1091.683, 474.7158
1092.781, 363.2939
1093.878, 363.9746
1094.975, 344.7168
1096.073, 155.8516
1097.169, 132.8164
1098.266, 240.9521
1099.363, 360.3975
1100.459, 379.7021
1101.556, 212.6992
1102.652, 299.0967
1103.748, 332.7998
1104.844, 317.5137
1105.940, 417.2393
1107.035, 322.1709
1108.131, 339.9180
1109.226, 333.7480
1110.321, 269.8076
1111.416, 236.5850
1112.511, 301.3711
1113.605, 205.6562
1114.700, 251.6455
1115.794, 210.5205
1116.889, 256.3418
1117.983, 287.1719
1119.077, 296.0098
1120.170, 211.8545
1121.264, 245.8105
1122.357, 258.9971
1123.451, 137.8633
1124.544, 207.7656
1125.637, 204.6445
1126.730, 272.5293
1127.823, 218.4199
1128.915, 208.3145
1130.008, 133.2158
1131.100, 164.1221
1132.192, 175.0312
1133.284, 276.9453
1134.376, 161.8633
1135.467, 181.7852
1136.559, 73.70898
1137.650, 90.63672
1138.742, 144.5674
1139.833, 78.50000
1140.924, 14.43555
1142.014, 51.37207
1143.105, 49.68945
1144.195, 100.7578
1145.286, 128.1436
1146.376, 62.04590
1147.466, 172.9492
1148.556, 97.14551
1149.646, 3.269531
1150.735, 44.60449
1151.825, 138.5215
1152.914, 5.297852
1154.003, 6.884766
1155.092, 64.93066
1156.181, 85.74316
1157.270, 47.44531
1158.358, 10.34961
1159.447, 50.14160
1160.535, 36.93164
1161.623, 69.71777
1162.711, 151.5020
1163.799, 84.28223
1164.886, 95.05859
1165.974, 98.82910
1167.061, 50.59668
1168.148, 41.35840
1169.235, 79.88477
1170.322, 41.83105
1171.409, 102.5400
1172.496, 22.75684
1173.582, 143.9316
1174.669, 55.61328
1175.755, 16.28613
1176.841, 29.04883
1177.927, 42.59375
1179.012, 4.227539
1180.098, 62.15039
1181.183, 139.4307
1182.269, 85.00000
1183.354, 124.5117
1184.439, 84.01367
1185.524, 41.50488
1186.608, 62.98242
1187.693, 6.449219
1188.777, 63.89941
1189.862, 7.335938
1190.946, 51.75488
1192.030, 20.83887
1193.113, 10.66992
1194.197, 162.1182
1195.281, 75.12207
1196.364, 5.654297
1197.447, 69.53906
1198.530, 51.28320
1199.613, 23.16406
1200.696, 68.08789
1201.779, 20.92090
1202.861, 1.906250
1203.944, 20.14062
1205.026, 69.23242
1206.108, 1.603516
1207.190, 84.59668
1208.271, 87.84180
1209.353, 144.1436
1210.435, 77.62402
1211.516, 42.18457
1212.597, 17.19141
1213.678, 71.46387
1214.759, 49.80176
1215.840, 58.19824
1216.920, 82.58301
1218.001, 207.5488
1219.081, 51.33984
1220.161, 50.29980
1221.241, 0.6679690
1222.321, 13.58887
1223.401, 97.47070
1224.480, 35.33008
1225.560, 8.842773
1226.639, 5.069336
1227.718, 61.65332
1228.797, 10.65137
1229.876, 28.98828
1230.955, 33.40918
1232.033, 22.87598
1233.112, 188.5938
1234.190, 230.0410
1235.268, 183.4668
1236.346, 98.86914
1237.424, 217.2471
1238.501, 130.6035
1239.579, 91.93555
1240.656, 201.2432
1241.733, 177.5273
1242.811, 81.79883
1243.888, 112.0400
1244.964, 143.2578
1246.041, 182.4521
1247.117, 303.6221
1248.194, 179.7764
1249.270, 227.9170
1250.346, 141.0312
1251.422, 104.1221
1252.498, 193.1855
1253.573, 163.2256
1254.649, 255.2412
1255.724, 215.2393
1256.800, 203.2139
1257.875, 249.1641
1258.950, 237.0898
1260.024, 261.0000
1261.099, 344.8848
1262.173, 453.7441
1263.248, 416.8105
1264.322, 267.3936
1265.396, 369.1807
1266.470, 382.9443
1267.544, 358.6836
1268.617, 439.4004
1269.691, 388.0908
1270.764, 474.7578
1271.837, 328.4004
1272.910, 570.0352
1273.983, 459.5957
1275.056, 458.1641
1276.129, 595.7080
1277.201, 377.6123
1278.273, 414.0234
1279.346, 436.4375
1280.418, 354.8828
1281.489, 275.4717
1282.561, 396.8643
1283.633, 237.1357
1284.704, 318.4814
1285.776, 305.8047
1286.847, 202.8672
1287.918, 330.1387
1288.989, 323.3867
1290.059, 413.6660
1291.130, 437.2041
1292.200, 575.1777
1293.271, 492.3281
1294.341, 481.4883
1295.411, 544.5869
1296.481, 500.6602
1297.551, 555.7080
1298.620, 436.9717
1299.690, 551.9717
1300.759, 514.9473
1301.828, 439.1611
1302.897, 571.0879
1303.966, 640.9893
1305.035, 532.8643
1306.103, 548.4238
1307.172, 607.2490
1308.240, 621.0449
1309.308, 668.1982
1310.376, 652.8008
1311.444, 489.4307
1312.512, 584.1387
1313.580, 560.8184
1314.647, 480.4746
1315.714, 634.1055
1316.781, 622.5928
1317.848, 651.1729
1318.915, 519.5469
1319.982, 563.0771
1321.049, 509.5273
1322.115, 491.7715
1323.181, 550.1260
1324.248, 377.5596
1325.314, 522.5156
1326.380, 390.9023
1327.445, 399.7773
1328.511, 293.3115
1329.576, 293.9219
1330.642, 261.7822
1331.707, 368.5820
1332.772, 228.8994
1333.837, 276.0381
1334.902, 298.5254
1335.966, 147.5088
1337.031, 134.1963
1338.095, 203.2598
1339.159, 230.4121
1340.223, 288.7061
1341.287, 308.5303
1342.351, 166.8242
1343.415, 84.60254
1344.478, 349.4463
1345.541, 145.8066
1346.605, 226.8525
1347.668, 244.0244
1348.731, 262.1885
1349.793, 133.4824
1350.856, 146.4561
1351.918, 137.3301
1352.981, 164.1436
1354.043, 137.5664
1355.105, 149.1602
1356.167, 158.5850
1357.229, 141.7012
1358.290, 140.9570
1359.352, 201.5176
1360.413, 95.67969
1361.475, 111.5352
1362.536, 269.3799
1363.597, 188.2129
1364.657, 177.8398
1365.718, 79.64844
1366.779, 125.3750
1367.839, 248.8682
1368.899, 155.6445
1369.959, 256.5488
1371.019, 239.8145
1372.079, 209.3750
1373.139, 276.0488
1374.198, 216.8604
1375.258, 257.3486
1376.317, 173.7656
1377.376, 264.4619
1378.435, 150.0469
1379.494, 291.3984
1380.553, 263.0684
1381.611, 235.8467
1382.670, 223.7490
1383.728, 259.3955
1384.786, 236.1934
1385.844, 340.8262
1386.902, 318.9727
1387.960, 223.5918
1389.017, 305.2979
1390.075, 186.9033
1391.132, 207.7275
1392.189, 244.3818
1393.246, 250.9697
1394.303, 199.5527
1395.360, 215.4209
1396.417, 260.1074
1397.473, 107.6768
1398.529, 225.2402
1399.585, 131.7998
1400.642, 89.36035
1401.697, 143.9326
1402.753, 163.5098
1403.809, 7.074219
1404.864, 154.6357
1405.920, 111.1748
1406.975, 194.7188
1408.030, 169.2207
1409.085, 206.7158
1410.140, 160.2070
1411.194, 136.6914
1412.249, 73.14551
1413.303, 174.5928
1414.358, 243.0088
1415.412, 228.4150
1416.466, 52.80859
1417.520, 170.1934
1418.573, 31.56055
1419.627, 227.9746
1420.680, 55.31934
1421.733, 125.6523
1422.787, 103.9736
1423.840, 101.2822
1424.892, 121.8457
1425.945, 223.1855
1426.998, 156.5850
1428.050, 117.8760
1429.103, 196.1660
1430.155, 319.4473
1431.207, 288.7227
1432.259, 408.9980
1433.310, 406.2549
1434.362, 295.5010
1435.414, 451.7520
1436.465, 418.1201
1437.516, 421.3799
1438.567, 553.2480
1439.618, 522.8779
1440.669, 696.9150
1441.720, 630.9229
1442.770, 907.9023
1443.820, 799.8633
1444.871, 885.8574
1445.921, 924.8809
1446.971, 903.9062
1448.021, 835.9795
1449.070, 1115.068
1450.120, 951.2002
1451.169, 1051.349
1452.219, 993.6055
1453.268, 1019.061
1454.317, 1022.571
1455.366, 1032.928
1456.414, 1060.526
1457.463, 1087.202
1458.511, 1001.939
1459.560, 943.6865
1460.608, 783.4893
1461.656, 765.3320
1462.704, 797.2363
1463.752, 637.2188
1464.799, 792.1992
1465.847, 497.1816
1466.894, 569.1670
1467.941, 445.1426
1468.988, 630.1133
1470.035, 365.0879
1471.082, 572.0332
1472.129, 430.9707
1473.175, 541.9141
1474.222, 424.8506
1475.268, 408.7822
1476.314, 388.7070
1477.360, 349.7529
1478.406, 425.5420
1479.452, 328.4629
1480.498, 399.3857
1481.543, 391.3105
1482.588, 408.2393
1483.633, 443.1738
1484.679, 306.5117
1485.723, 429.4502
1486.768, 192.3945
1487.813, 178.3467
1488.857, 279.3086
1489.902, 148.2793
1490.946, 140.1670
1491.990, 133.9199
1493.034, 73.85840
1494.078, 83.87695
1495.122, 35.08887
1496.165, 67.95898
1497.209, 124.0254
1498.252, 110.1123
1499.295, 25.21875
1500.338, 28.65039
1501.381, 27.49902
1502.424, 76.67188
1503.466, 215.8799
1504.509, 85.12695
1505.551, 108.4150
1506.593, 13.74219
1507.635, 18.88965
1508.677, 92.51855
1509.719, 11.95996
1510.761, 65.43262
1511.802, 22.06934
1512.844, 102.4521
1513.885, 29.99219
1514.926, 120.5498
1515.967, 6.125000
1517.008, 40.20703
1518.049, 123.3291
1519.089, 61.96289
1520.130, 1.623047
1521.170, 30.30859
1522.210, 107.0234
1523.250, 136.7676
1524.290, 99.54492
1525.330, 92.37598
1526.370, 148.2441
1527.409, 61.15430
1528.448, 181.1133
1529.488, 131.1230
1530.527, 130.3213
1531.566, 59.18066
1532.605, 206.7861
1533.643, 86.54199
1534.682, 80.00195
1535.720, 228.8301
1536.759, 137.6279
1537.797, 305.0684
1538.835, 114.7627
1539.873, 156.0254
1540.910, 180.1416
1541.948, 109.5801
1542.986, 137.5225
1544.023, 30.52637
1545.060, 86.31152
1546.097, 167.7725
1547.134, 103.9570
1548.171, 198.2158
1549.208, 3.086914
1550.244, 34.59277
1551.281, 18.49121
1552.317, 191.8750
1553.353, 170.3369
1554.389, 169.3242
1555.425, 101.1270
1556.461, 115.2773
1557.497, 93.34863
1558.532, 180.1504
1559.567, 51.84473
1560.603, 30.30469
1561.638, 103.3906
1562.673, 0.4648440
1563.708, 0.0000000E+00
##END=



