##NAMES=Enstatite
##RRUFFID=R040094
##IDEAL CHEMISTRY=MgSiO_3_
##LOCALITY=unknown
##OWNER=RRUFF
##SOURCE=University of Arizona Mineral Museum
##DESCRIPTION=Dark green massive, associated with anthophyllite
##STATUS=The identification of this mineral has been confirmed by X-ray diffraction and chemical analysis
##URL=rruff.info/R040094
##MEASURED CHEMISTRY=(Mg_0.84_Fe_0.15_)(Si_0.99_Al_0.01_)O_3_; = Enstatite :  [box](Mg_0.83_Fe_0.14_Na_0.01_Ca_0.01_)_7_(Si_0.99_Al_0.01_)_8_O_22_(OH)_2_ = Anthophyllite
##PIN_ID=M00257
##ORIENTATION=Laser parallel to b* (0 1 0). Fiducial mark perpendicular to laser is parallel to -c [0 0 -1]
71.972, 0.000
73.374, 45.967
74.776, 16.182
76.178, 1.660
77.580, 11.402
78.982, 148.058
80.383, 715.279
81.784, 2055.200
83.185, 3211.016
84.585, 2414.100
85.985, 1181.972
87.385, 410.276
88.785, 168.707
90.185, 56.003
91.584, 111.945
92.983, 309.347
94.382, 325.052
95.780, 444.919
97.178, 467.836
98.576, 525.724
99.974, 631.595
101.372, 810.360
102.769, 1370.920
104.166, 772.190
105.563, 1327.102
106.959, 1617.601
108.355, 1381.641
109.751, 1326.182
111.147, 1315.188
112.543, 1367.626
113.938, 1295.469
115.333, 1505.677
116.728, 1696.215
118.122, 1893.054
119.517, 1912.195
120.911, 2097.612
122.304, 2710.294
123.698, 3735.274
125.091, 5280.176
126.484, 6843.887
127.877, 9045.820
129.270, 11457.845
130.662, 13779.954
132.054, 15322.150
133.446, 14374.436
134.837, 11456.813
136.229, 8589.281
137.620, 6761.851
139.011, 5357.530
140.401, 4505.322
141.791, 3833.235
143.181, 3347.267
144.571, 3065.415
145.961, 2680.673
147.350, 2360.039
148.739, 2086.508
150.128, 1831.078
151.517, 1651.742
152.905, 1475.500
154.293, 1374.349
155.681, 1311.251
157.069, 1231.102
158.456, 1140.914
159.843, 1096.716
161.230, 1126.525
162.617, 996.353
164.003, 1046.208
165.389, 923.139
166.775, 887.981
168.161, 887.943
169.546, 868.953
170.931, 879.292
172.316, 845.715
173.701, 929.875
175.085, 819.047
176.469, 918.148
177.853, 895.703
179.237, 910.299
180.620, 971.234
182.003, 959.591
183.386, 970.455
184.769, 1016.387
186.152, 1085.387
187.534, 1097.455
188.916, 1085.587
190.297, 1231.784
191.679, 1159.045
193.060, 1256.369
194.441, 1202.753
195.822, 1173.200
197.202, 1219.716
198.583, 1087.330
199.963, 1109.033
201.342, 1083.020
202.722, 1052.126
204.101, 990.364
205.480, 931.745
206.859, 846.257
208.237, 658.907
209.616, 587.713
210.994, 481.619
212.372, 487.580
213.749, 352.570
215.126, 407.586
216.504, 317.626
217.880, 303.692
219.257, 409.781
220.633, 279.894
222.009, 432.031
223.385, 462.192
224.761, 432.376
226.136, 593.582
227.511, 624.811
228.886, 905.061
230.261, 1027.332
231.635, 1348.625
233.009, 1634.937
234.383, 1966.270
235.757, 2295.623
237.130, 2311.994
238.504, 2266.012
239.877, 1735.736
241.249, 1224.315
242.622, 875.426
243.994, 577.769
245.366, 363.602
246.738, 260.654
248.109, 182.901
249.480, 110.325
250.851, 131.910
252.222, 72.643
253.593, 69.511
254.963, 6.505
256.333, 0.615
257.703, 13.832
259.072, 26.848
260.442, 4.563
261.811, 33.063
263.179, 6.648
264.548, 33.655
265.916, 11.052
267.284, 44.862
268.652, 9.261
270.020, 8.322
271.387, 0.323
272.754, 25.732
274.121, 30.842
275.488, 45.995
276.854, 48.788
278.221, 63.539
279.587, 179.252
280.952, 110.951
282.318, 212.625
283.683, 93.295
285.048, 125.939
286.413, 111.565
287.777, 5.171
289.141, 37.741
290.505, 60.715
291.869, 148.199
293.233, 207.709
294.596, 260.247
295.959, 332.810
297.322, 378.456
298.684, 426.013
300.047, 471.652
301.409, 427.315
302.771, 452.002
304.132, 381.711
305.494, 304.444
306.855, 373.199
308.216, 308.975
309.576, 453.773
310.937, 386.591
312.297, 397.429
313.657, 419.287
315.016, 459.164
316.376, 573.059
317.735, 690.306
319.094, 963.238
320.453, 1002.057
321.811, 1165.756
323.170, 1572.698
324.528, 1765.877
325.885, 2244.005
327.243, 2695.937
328.600, 3349.091
329.957, 4267.560
331.314, 5174.536
332.671, 6690.500
334.027, 8311.834
335.383, 10572.767
336.739, 12846.024
338.095, 15315.820
339.450, 17867.666
340.805, 19059.980
342.160, 19730.607
343.515, 18635.160
344.869, 16596.834
346.224, 14306.807
347.578, 11716.396
348.931, 9584.142
350.285, 7781.947
351.638, 6328.991
352.991, 5330.048
354.344, 4624.119
355.696, 4451.201
357.049, 3518.297
358.401, 3125.404
359.753, 2824.522
361.104, 2575.653
362.456, 2383.794
363.807, 2136.986
365.158, 1903.106
366.508, 1736.276
367.859, 1626.453
369.209, 1467.638
370.559, 1424.829
371.908, 1438.026
373.258, 1314.228
374.607, 1445.435
375.956, 1363.646
377.305, 1418.863
378.653, 1434.082
380.002, 1300.306
381.350, 1459.534
382.698, 1310.765
384.045, 1287.000
385.392, 1380.238
386.740, 1323.479
388.086, 1608.724
389.433, 1673.971
390.779, 1840.221
392.126, 2172.474
393.472, 2410.729
394.817, 2833.987
396.163, 3073.248
397.508, 3471.510
398.853, 3750.773
400.198, 3884.040
401.542, 3951.324
402.886, 3870.627
404.230, 3917.951
405.574, 3692.292
406.918, 3638.650
408.261, 3601.021
409.604, 3389.405
410.947, 3345.802
412.290, 3142.209
413.632, 3042.625
414.974, 2940.052
416.316, 2775.487
417.658, 2646.930
418.999, 2324.357
420.341, 2319.815
421.682, 2130.756
423.022, 1953.225
424.363, 1965.700
425.703, 1680.180
427.043, 1626.665
428.383, 1464.153
429.723, 1497.645
431.062, 1529.975
432.401, 1612.320
433.740, 1846.785
435.079, 2171.289
436.417, 2499.796
437.755, 2867.124
439.093, 3282.346
440.431, 3579.042
441.768, 3531.600
443.106, 3189.353
444.443, 2616.170
445.779, 2089.622
447.116, 1550.621
448.452, 1188.257
449.788, 1053.768
451.124, 783.260
452.460, 627.781
453.795, 572.303
455.130, 432.824
456.465, 511.346
457.800, 389.875
459.134, 368.404
460.468, 335.933
461.802, 352.463
463.136, 387.993
464.470, 315.524
465.803, 384.063
467.136, 233.601
468.469, 305.154
469.801, 233.705
471.134, 151.255
472.466, 241.821
473.798, 132.385
475.129, 135.970
476.461, 80.553
477.792, 37.133
479.123, 67.731
480.454, 20.326
481.784, 2.940
483.115, 0.459
484.445, 37.867
485.774, 36.263
487.104, 80.776
488.433, 35.305
489.762, 71.873
491.091, 47.501
492.420, 13.175
493.748, 35.879
495.077, 28.611
496.405, 65.368
497.732, 8.183
499.060, 42.010
500.387, 49.882
501.714, 23.780
503.041, 86.715
504.367, 40.721
505.694, 12.738
507.020, 5.786
508.346, 35.140
509.671, 33.942
510.997, 108.973
512.322, 76.893
513.647, 89.809
514.972, 189.724
516.296, 148.634
517.620, 295.541
518.944, 398.442
520.268, 398.347
521.592, 453.247
522.915, 508.142
524.238, 602.031
525.561, 519.916
526.884, 573.795
528.206, 522.669
529.528, 430.538
530.850, 543.401
532.172, 536.258
533.494, 620.109
534.815, 744.955
536.136, 800.795
537.457, 1074.629
538.777, 1002.457
540.098, 1006.277
541.418, 933.093
542.738, 777.902
544.057, 757.704
545.377, 630.501
546.696, 630.291
548.015, 573.074
549.334, 565.851
550.652, 597.621
551.970, 472.384
553.289, 482.142
554.606, 395.892
555.924, 288.635
557.241, 253.371
558.559, 213.101
559.875, 258.823
561.192, 170.538
562.509, 165.246
563.825, 188.947
565.141, 148.640
566.457, 186.326
567.772, 124.004
569.088, 138.673
570.403, 158.336
571.718, 155.013
573.032, 175.250
574.347, 207.273
575.661, 174.902
576.975, 214.522
578.288, 158.135
579.602, 243.740
580.915, 145.339
582.228, 214.929
583.541, 176.510
584.854, 197.083
586.166, 240.646
587.478, 181.201
588.790, 202.747
590.102, 233.285
591.413, 187.815
592.724, 203.336
594.035, 190.849
595.346, 231.352
596.657, 161.851
597.967, 169.348
599.277, 221.844
600.587, 151.361
601.897, 204.886
603.206, 172.440
604.515, 167.998
605.824, 177.566
607.133, 81.143
608.442, 104.710
609.750, 216.310
611.058, 140.862
612.366, 222.404
613.673, 144.938
614.981, 135.988
616.288, 147.501
617.595, 183.004
618.902, 174.841
620.208, 199.439
621.514, 219.344
622.820, 277.709
624.126, 268.162
625.432, 428.247
626.737, 288.679
628.042, 479.216
629.347, 455.596
630.652, 506.996
631.956, 595.539
633.260, 556.974
634.564, 741.339
635.868, 738.920
637.172, 776.263
638.475, 967.792
639.778, 904.896
641.081, 1241.055
642.384, 1264.642
643.686, 1372.507
644.988, 1575.047
646.290, 1880.527
647.592, 2226.512
648.894, 2551.115
650.195, 3028.775
651.496, 3747.749
652.797, 4362.349
654.097, 5461.508
655.398, 6619.205
656.698, 8240.753
657.998, 10257.377
659.298, 11869.987
660.597, 13738.611
661.896, 14597.915
663.196, 14511.289
664.494, 13985.154
665.793, 12302.294
667.091, 11217.615
668.389, 10076.927
669.687, 9423.007
670.985, 9389.809
672.283, 9605.925
673.580, 9981.995
674.877, 10678.102
676.174, 11945.848
677.470, 13371.876
678.767, 15028.009
680.063, 17124.018
681.359, 18550.012
682.655, 19716.113
683.950, 19822.092
685.245, 18458.062
686.540, 16954.021
687.835, 14020.046
689.130, 12095.988
690.424, 9541.918
691.718, 7767.843
693.012, 6363.757
694.306, 5101.662
695.599, 4301.557
696.893, 3559.443
698.186, 2976.320
699.478, 2641.187
700.771, 2263.045
702.063, 1952.895
703.356, 1781.735
704.647, 1583.565
705.939, 1482.387
707.231, 1285.199
708.522, 1078.003
709.813, 1059.798
711.104, 933.584
712.394, 885.360
713.685, 736.127
714.975, 822.886
716.265, 711.635
717.554, 534.376
718.844, 695.108
720.133, 569.831
721.422, 561.545
722.711, 499.251
724.000, 433.947
725.288, 362.636
726.576, 374.315
727.864, 341.985
729.152, 336.647
730.439, 329.617
731.727, 344.946
733.014, 299.583
734.300, 309.733
735.587, 268.432
736.873, 286.443
738.160, 227.046
739.446, 255.642
740.731, 186.229
742.017, 258.809
743.302, 222.380
744.587, 242.944
745.872, 255.500
747.157, 187.048
748.441, 308.588
749.725, 209.121
751.009, 267.646
752.293, 228.164
753.576, 179.674
754.860, 217.177
756.143, 121.672
757.426, 100.161
758.708, 109.641
759.991, 82.114
761.273, 170.579
762.555, 82.912
763.837, 49.361
765.118, 126.803
766.399, 60.238
767.681, 157.665
768.961, 6.915
770.242, 61.483
771.523, 89.874
772.803, 19.257
774.083, 35.630
775.363, 13.995
776.642, 14.652
777.921, 93.677
779.201, 43.001
780.480, 84.281
781.758, 32.558
783.037, 49.175
784.315, 133.051
785.593, 68.729
786.871, 38.438
788.148, 58.599
789.426, 76.247
790.703, 57.855
791.980, 101.049
793.257, 13.016
794.533, 33.995
795.809, 28.996
797.085, 17.006
798.361, 9.020
799.637, 6.979
800.912, 20.988
802.188, 9.019
803.463, 6.063
804.737, 39.888
806.012, 43.851
807.286, 24.168
808.560, 59.791
809.834, 26.221
811.108, 84.752
812.381, 28.243
813.654, 31.250
814.927, 120.715
816.200, 3.269
817.473, 0.742
818.745, 24.749
820.017, 44.227
821.289, 48.797
822.561, 36.145
823.833, 9.917
825.104, 23.008
826.375, 30.929
827.646, 18.865
828.916, 27.243
830.187, 35.649
831.457, 6.537
832.727, 51.419
833.997, 50.619
835.266, 5.173
836.536, 50.043
837.805, 75.910
839.074, 78.773
840.342, 10.633
841.611, 69.489
842.879, 153.342
844.147, 118.191
845.415, 256.038
846.682, 106.881
847.950, 280.723
849.217, 457.562
850.484, 447.397
851.751, 665.230
853.017, 777.065
854.283, 880.898
855.550, 1179.729
856.815, 1220.559
858.081, 1257.385
859.347, 1340.210
860.612, 1242.034
861.877, 1382.854
863.142, 1148.674
864.406, 1086.492
865.670, 1037.309
866.935, 780.126
868.199, 780.942
869.462, 574.756
870.726, 564.570
871.989, 456.382
873.252, 380.191
874.515, 429.001
875.778, 215.810
877.040, 215.617
878.302, 345.423
879.564, 166.234
880.826, 233.046
882.088, 169.857
883.349, 159.681
884.610, 203.506
885.871, 39.330
887.132, 265.156
888.392, 190.983
889.652, 114.820
890.913, 260.660
892.172, 155.498
893.432, 153.359
894.691, 172.220
895.951, 114.091
897.210, 238.963
898.468, 121.834
899.727, 130.716
900.985, 209.597
902.243, 116.482
903.501, 243.397
904.759, 157.312
906.017, 107.230
907.274, 188.155
908.531, 158.082
909.788, 249.016
911.044, 171.953
912.301, 172.890
913.557, 204.850
914.813, 273.811
916.069, 299.737
917.324, 295.708
918.580, 333.679
919.835, 356.651
921.090, 340.097
922.345, 362.072
923.599, 510.049
924.853, 399.683
926.108, 594.546
927.361, 576.095
928.615, 599.173
929.869, 715.157
931.122, 704.499
932.375, 712.487
933.628, 770.360
934.880, 757.382
936.133, 785.862
937.385, 715.222
938.637, 748.167
939.888, 871.173
941.140, 717.622
942.391, 859.633
943.642, 660.589
944.893, 607.101
946.144, 750.324
947.394, 550.892
948.645, 609.242
949.895, 493.133
951.145, 422.873
952.394, 466.803
953.644, 396.616
954.893, 414.396
956.142, 463.501
957.391, 391.390
958.639, 389.689
959.888, 370.346
961.136, 312.383
962.384, 322.820
963.631, 313.878
964.879, 306.956
966.126, 248.221
967.373, 274.112
968.620, 397.909
969.867, 330.284
971.113, 248.421
972.359, 413.345
973.606, 224.491
974.851, 365.917
976.097, 345.022
977.342, 282.170
978.588, 368.274
979.833, 411.735
981.077, 441.914
982.322, 497.982
983.566, 556.185
984.810, 682.393
986.054, 626.497
987.298, 725.720
988.541, 864.947
989.785, 911.179
991.028, 1083.353
992.271, 1392.603
993.513, 1477.859
994.756, 1994.151
995.998, 2281.445
997.240, 2752.765
998.482, 3113.090
999.724, 3505.419
1000.965, 4135.752
1002.206, 4802.066
1003.447, 5387.423
1004.688, 6272.785
1005.929, 6938.150
1007.169, 7543.521
1008.409, 7629.035
1009.649, 7664.416
1010.889, 7579.802
1012.128, 6955.224
1013.368, 6810.619
1014.607, 6616.145
1015.846, 6342.076
1017.084, 6617.483
1018.323, 6242.897
1019.561, 6208.315
1020.799, 6103.748
1022.037, 5759.183
1023.274, 5834.623
1024.512, 5560.154
1025.749, 5065.604
1026.986, 5291.059
1028.223, 4747.735
1029.460, 4633.514
1030.696, 4338.981
1031.932, 3951.811
1033.168, 3883.288
1034.404, 3469.989
1035.639, 2924.066
1036.875, 2896.561
1038.110, 2572.600
1039.345, 2382.486
1040.580, 2174.991
1041.814, 1866.766
1043.048, 1747.316
1044.282, 1291.082
1045.516, 1392.839
1046.750, 1166.361
1047.983, 1046.882
1049.217, 1086.490
1050.450, 808.612
1051.683, 791.349
1052.915, 818.953
1054.148, 583.777
1055.380, 626.928
1056.612, 639.650
1057.844, 511.012
1059.075, 542.822
1060.307, 517.368
1061.538, 457.989
1062.769, 483.782
1064.000, 390.679
1065.230, 407.560
1066.461, 422.112
1067.691, 300.750
1068.921, 415.438
1070.151, 378.090
1071.380, 323.820
1072.609, 413.389
1073.838, 209.995
1075.067, 345.567
1076.296, 315.141
1077.525, 234.999
1078.753, 293.747
1079.981, 248.535
1081.209, 242.239
1082.437, 296.031
1083.664, 207.016
1084.891, 267.417
1086.118, 238.781
1087.345, 281.427
1088.572, 362.244
1089.798, 283.021
1091.024, 345.919
1092.250, 251.618
1093.476, 269.323
1094.702, 189.301
1095.927, 303.027
1097.153, 228.981
1098.378, 332.007
1099.602, 180.815
1100.827, 391.414
1102.051, 299.156
1103.275, 151.898
1104.499, 397.572
1105.723, 248.337
1106.947, 231.226
1108.170, 242.777
1109.393, 112.558
1110.616, 316.521
1111.839, 170.322
1113.061, 92.294
1114.284, 332.361
1115.506, 115.191
1116.728, 172.021
1117.949, 262.004
1119.171, 92.836
1120.392, 212.893
1121.613, 162.974
1122.834, 61.816
1124.055, 251.906
1125.275, 134.934
1126.496, 223.009
1127.716, 184.010
1128.936, 144.845
1130.155, 279.220
1131.375, 187.047
1132.594, 99.870
1133.813, 322.866
1135.032, 118.681
1136.251, 91.491
1137.469, 109.348
1138.687, 87.149
1139.905, 201.369
1141.123, 144.002
1142.341, 104.789
1143.558, 226.237
1144.775, 78.012
1145.992, 165.782
1147.209, 135.587
1148.426, 26.655
1149.642, 224.286
1150.858, 96.056
1152.074, 84.786
1153.290, 241.510
1154.506, 7.345
1155.721, 152.055
1156.936, 163.177
1158.151, 35.874
1159.366, 136.562
1160.580, 15.734
1161.795, 11.592
1163.009, 167.070
1164.223, 78.735
1165.437, 174.372
1166.650, 149.998
1167.864, 53.630
1169.077, 178.331
1170.290, 34.445
1171.502, 98.053
1172.715, 203.654
1173.927, 21.548
1175.139, 1.976
1176.351, 125.749
1177.563, 54.369
1178.775, 138.146
1179.986, 12.188
1181.197, 7.316
1182.408, 186.166
1183.619, 38.987
1184.829, 1.546
1186.039, 117.882
1187.250, 81.175
1188.459, 61.190
1189.669, 32.404
1190.879, 14.922
1192.088, 108.237
1193.297, 27.266
1194.506, 55.012
1195.715, 3.719
1196.923, 109.172
1198.131, 60.009
1199.339, 10.276
1200.547, 19.063
1201.755, 36.072
1202.962, 21.741
1204.170, 17.356
1205.377, 111.440
1206.584, 76.362
1207.790, 79.658
1208.997, 8.678
1210.203, 12.120
1211.409, 151.866
1212.615, 64.850
1213.821, 53.876
1215.026, 64.838
1216.231, 49.039
1217.437, 151.920
1218.641, 80.850
1219.846, 122.910
1221.051, 141.820
1222.255, 25.723
1223.459, 52.614
1224.663, 47.493
1225.866, 68.574
1227.070, 48.436
1228.273, 17.270
1229.476, 31.754
1230.679, 40.566
1231.882, 96.363
1233.084, 56.284
1234.286, 72.056
1235.488, 20.187
1236.690, 106.542
1237.892, 135.261
1239.093, 37.962
1240.295, 212.651
1241.496, 18.678
1242.697, 34.658
1243.897, 87.294
1245.098, 12.084
1246.298, 137.519
1247.498, 143.111
1248.698, 3.693
1249.897, 274.260
1251.097, 76.813
1252.296, 7.555
1253.495, 237.081
1254.694, 69.596
1255.893, 120.081
1257.091, 67.548
1258.289, 53.004
1259.487, 238.436
1260.685, 137.819
1261.883, 75.166
1263.080, 160.536
1264.278, 60.856
1265.475, 54.314
1266.672, 171.590
1267.868, 52.852
1269.065, 67.226
1270.261, 55.454
1271.457, 74.668
1272.653, 161.868
1273.849, 33.958
1275.044, 195.184
1276.239, 212.311
1277.434, 4.423
1278.629, 275.622
1279.824, 167.688
1281.018, 9.261
1282.213, 153.792
1283.407, 32.801
1284.601, 85.206
1285.794, 326.744
1286.988, 50.322
1288.181, 202.578
1289.374, 228.463
1290.567, 108.331
1291.760, 186.184
1292.952, 26.951
1294.145, 109.862
1295.337, 204.660
1296.529, 122.443
1297.720, 90.204
1298.912, 249.811
1300.103, 35.543
1301.294, 242.259
1302.485, 179.927
1303.676, 29.614
1304.866, 247.153
1306.057, 167.280
1307.247, 127.915
1308.437, 208.548
1309.627, 6.845
1310.816, 233.732
1312.005, 101.296
1313.195, 29.845
1314.383, 286.292
1315.572, 144.808
1316.761, 70.310
1317.949, 261.581
1319.137, 79.737
1320.325, 47.196
1321.513, 208.284
1322.701, 1.286
1323.888, 160.908
1325.075, 210.719
1326.262, 39.104
1327.449, 343.935
1328.635, 171.909
1329.822, 23.256
1331.008, 148.326
1332.194, 96.611
1333.380, 119.673
1334.565, 191.736
1335.751, 61.027
1336.936, 221.312
1338.121, 453.501
1339.306, 39.169
1340.490, 325.216
1341.675, 75.389
1342.859, 12.335
1344.043, 320.948
1345.227, 81.985
1346.411, 184.375
1347.594, 180.314
1348.777, 66.511
1349.960, 203.397
1351.143, 145.160
1352.326, 46.996
1353.508, 309.846
1354.690, 149.835
1355.873, 80.924
1357.054, 261.963
1358.236, 5.955
1359.418, 259.050
1360.599, 291.219
1361.780, 60.355
1362.961, 243.531
1364.142, 107.565
1365.322, 178.352
1366.502, 229.145
1367.682, 42.896
1368.862, 98.709
1370.042, 245.405
1371.222, 3.800
1372.401, 100.246
1373.580, 150.679
1374.759, 60.293
1375.938, 219.709
1377.116, 132.200
1378.295, 191.640
1379.473, 350.026
1380.651, 181.377
1381.829, 294.597
1383.006, 314.217
1384.184, 0.769
1385.361, 298.129
1386.538, 189.773
1387.715, 105.039
1388.891, 363.009
1390.068, 101.400
1391.244, 161.605
1392.420, 390.445
1393.596, 40.485
1394.771, 249.288
1395.947, 344.373
1397.122, 146.492
1398.297, 256.299
1399.472, 152.457
1400.647, 89.131
1401.821, 431.409
1402.995, 131.672
1404.170, 60.573
1405.343, 380.400
1406.517, 25.182
1407.691, 213.984
1408.864, 279.611
1410.037, 33.819
1411.210, 323.900
1412.383, 179.602
1413.555, 137.284
1414.728, 191.229
1415.900, 108.042
1417.072, 204.614
1418.244, 334.878
1419.415, 33.715
1420.587, 287.041
1421.758, 335.549
1422.929, 50.499
1424.100, 235.209
1425.270, 298.666
1426.441, 110.209
1427.611, 417.447
1428.781, 185.511
1429.951, 215.965
1431.120, 429.753
1432.290, 181.250
1433.459, 351.644
1434.628, 400.278
1435.797, 110.558
1436.966, 454.037
1438.134, 345.484
1439.303, 73.986
1440.471, 477.210
1441.639, 215.650
1442.806, 255.672
1443.974, 426.076
1445.141, 199.196
1446.308, 326.297
1447.475, 452.655
1448.642, 45.017
1449.809, 461.378
1450.975, 356.288
1452.141, 160.604
1453.307, 392.892
1454.473, 303.139
1455.639, 237.903
1456.804, 470.080
1457.969, 125.312
1459.134, 399.545
1460.299, 502.012
1461.464, 177.427
1462.628, 394.571
1463.793, 453.798
1464.957, 132.367
1466.121, 419.961
1467.284, 253.603
1468.448, 210.950
1469.611, 494.670
1470.774, 273.343
1471.937, 270.113
1473.100, 374.904
1474.262, 145.725
1475.425, 298.569
1476.587, 404.429
1477.749, 90.341
1478.911, 359.311
1480.072, 260.319
1481.234, 118.389
1482.395, 452.533
1483.556, 191.676
1484.717, 236.980
1485.878, 507.355
1487.038, 152.832
1488.198, 237.403
1489.358, 396.063
1490.518, 34.159
1491.678, 363.725
1492.837, 249.725
1493.997, 19.148
1495.156, 414.110
1496.315, 258.515
1497.474, 73.082
1498.632, 519.834
1499.790, 177.787
1500.949, 127.969
1502.107, 489.397
1503.264, 8.101
1504.422, 281.660
1505.579, 230.122
1506.737, 83.375
1507.894, 284.362
1509.051, 286.361
1510.207, 28.523
1511.364, 374.058
1512.520, 186.534
1513.676, 5.004
1514.832, 345.812
1515.988, 0.000
##END=



