##NAMES=Enstatite
##RRUFFID=R060744
##IDEAL CHEMISTRY=MgSiO_3_
##LOCALITY=Orissa, India
##OWNER=RRUFF
##SOURCE=Herb Obodda
##DESCRIPTION=Brown transparent fragment
##STATUS=The identification of this mineral has been confirmed by X-ray diffraction and chemical analysis
##URL=rruff.info/R060744
##MEASURED CHEMISTRY=(Mg_0.85_Fe^2+^_0.13_Fe^3+^_0.01_Mn_0.01_)_Σ=1_(Si_0.99_Al_0.01_)_Σ=1_O_3_; trace amounts of Ca; Fe^2+^ and Fe^3+^ splitted by charge balance
##PIN_ID=L01935
##ORIENTATION=Laser parallel to -a* (-1 0 0). Fiducial mark perpendicular to laser is parallel to -b [0 -1 0]
113.2080, 0.0000000E+00
114.4400, 194.9575
115.6710, 127.9888
116.9030, 196.4373
118.1340, 43.90845
119.3650, 3.574463
120.5960, 32.18896
121.8270, 52.92651
123.0580, 136.3147
124.2880, 20.65894
125.5190, 25.65454
126.7490, 17.93701
127.9790, 102.1663
129.2090, 146.0525
130.4390, 268.3564
131.6680, 353.8862
132.8980, 431.8198
134.1270, 574.4062
135.3560, 743.3484
136.5850, 996.3662
137.8140, 1210.249
139.0430, 1485.839
140.2710, 1766.013
141.5000, 1986.678
142.7280, 2233.763
143.9560, 2416.211
145.1840, 2562.977
146.4120, 2566.023
147.6390, 2464.319
148.8670, 2278.840
150.0940, 2152.664
151.3210, 2022.985
152.5490, 1733.578
153.7750, 1545.424
155.0020, 1486.964
156.2290, 1402.092
157.4550, 1316.853
158.6810, 1294.290
159.9080, 1283.440
161.1340, 1398.336
162.3590, 1362.006
163.5850, 1347.479
164.8110, 1117.774
166.0360, 1101.917
167.2610, 1007.935
168.4860, 929.8486
169.7110, 938.3088
170.9360, 977.4187
172.1610, 935.0950
173.3850, 990.7119
174.6100, 981.2808
175.8340, 1154.810
177.0580, 1320.305
178.2820, 1596.772
179.5050, 1807.218
180.7290, 2131.646
181.9520, 2475.063
183.1760, 2977.472
184.3990, 3479.877
185.6220, 4189.281
186.8450, 4867.644
188.0670, 5003.957
189.2900, 5036.735
190.5120, 4776.671
191.7340, 4263.694
192.9560, 3660.404
194.1780, 3298.482
195.4000, 2882.448
196.6220, 2549.517
197.8430, 2187.689
199.0640, 1921.964
200.2860, 1691.161
201.5070, 1444.579
202.7270, 1323.402
203.9480, 1097.083
205.1690, 928.8623
206.3890, 866.7390
207.6090, 797.7095
208.8290, 792.7717
210.0490, 765.9229
211.2690, 817.1606
212.4890, 859.5874
213.7080, 907.8896
214.9280, 1045.376
216.1470, 1184.943
217.3660, 1369.624
218.5850, 1539.500
219.8030, 1768.535
221.0220, 2232.679
222.2400, 2847.956
223.4590, 3488.318
224.6770, 4216.743
225.8950, 5092.224
227.1120, 6192.749
228.3300, 7661.321
229.5480, 9150.938
230.7650, 11043.60
231.9820, 12605.32
233.1990, 13006.12
234.4160, 12461.02
235.6330, 10585.96
236.8490, 8889.958
238.0660, 6966.999
239.2820, 5496.085
240.4980, 3973.217
241.7140, 2845.396
242.9300, 2180.620
244.1460, 1477.891
245.3610, 1072.209
246.5770, 954.5720
247.7920, 719.9819
249.0070, 601.4377
250.2220, 426.9399
251.4370, 379.4885
252.6510, 274.0828
253.8660, 190.7234
255.0800, 136.8313
256.2940, 140.1428
257.5080, 48.99707
258.7220, 16.47266
259.9360, 0.7446290
261.1490, 130.2766
262.3630, 234.3799
263.5760, 226.7551
264.7890, 235.9688
266.0020, 238.4221
267.2150, 252.0847
268.4270, 270.8853
269.6400, 199.5974
270.8520, 143.2178
272.0640, 53.74487
273.2760, 89.16895
274.4880, 108.4929
275.7000, 68.25610
276.9120, 263.1135
278.1230, 339.0601
279.3340, 518.0884
280.5450, 643.1907
281.7560, 748.3608
282.9670, 870.5938
284.1780, 1072.885
285.3880, 1282.232
286.5980, 1650.631
287.8090, 2076.080
289.0190, 2442.577
290.2290, 2883.120
291.4380, 3358.708
292.6480, 3696.339
293.8570, 4102.013
295.0670, 4276.728
296.2760, 4082.484
297.4850, 3892.266
298.6930, 3635.062
299.9020, 3395.867
301.1110, 3169.682
302.3190, 3109.506
303.5270, 3144.345
304.7350, 3159.198
305.9430, 3391.065
307.1510, 3773.951
308.3580, 4300.855
309.5660, 4686.776
310.7730, 5437.717
311.9800, 6151.680
313.1870, 6988.664
314.3940, 7933.667
315.6010, 8452.692
316.8070, 8844.742
318.0130, 9015.814
319.2200, 9219.037
320.4260, 9562.077
321.6310, 10268.02
322.8370, 11064.68
324.0430, 12109.00
325.2480, 13795.81
326.4540, 15976.87
327.6590, 18748.79
328.8640, 22207.40
330.0680, 26123.90
331.2730, 30620.31
332.4780, 35961.85
333.6820, 41069.25
334.8860, 46047.46
336.0900, 49621.47
337.2940, 51609.29
338.4980, 50423.06
339.7010, 47083.83
340.9050, 42609.63
342.1080, 37569.48
343.3110, 32106.35
344.5140, 27357.27
345.7170, 23211.23
346.9200, 19568.31
348.1220, 16620.07
349.3240, 14106.13
350.5270, 12094.84
351.7290, 10779.30
352.9310, 9552.988
354.1320, 8609.213
355.3340, 7887.307
356.5350, 7369.586
357.7370, 6686.899
358.9380, 6320.244
360.1390, 5989.625
361.3400, 5856.039
362.5400, 5789.488
363.7410, 5840.968
364.9410, 5911.538
366.1410, 6072.559
367.3410, 6273.602
368.5410, 6577.210
369.7410, 6886.849
370.9400, 7279.519
372.1400, 7909.218
373.3390, 8488.951
374.5380, 8908.715
375.7370, 9345.509
376.9360, 9753.336
378.1350, 9972.192
379.3330, 10478.08
380.5310, 10790.00
381.7300, 11325.94
382.9280, 11911.92
384.1260, 12936.93
385.3230, 13965.97
386.5210, 15463.36
387.7180, 17358.13
388.9160, 18990.26
390.1130, 21021.42
391.3100, 23062.61
392.5060, 24857.82
393.7030, 26453.07
394.9000, 27595.34
396.0960, 27914.65
397.2920, 27599.98
398.4880, 27356.33
399.6840, 25986.73
400.8800, 24663.14
402.0750, 23453.59
403.2710, 21914.66
404.4660, 20512.56
405.6610, 19189.58
406.8560, 18035.56
408.0510, 16845.04
409.2450, 15564.04
410.4400, 14238.96
411.6340, 13245.18
412.8280, 11950.30
414.0220, 10912.69
415.2160, 9640.437
416.4100, 8632.148
417.6030, 7868.987
418.7970, 6881.907
419.9900, 5874.859
421.1830, 5177.844
422.3760, 4341.857
423.5690, 3761.902
424.7610, 3191.978
425.9540, 2740.083
427.1460, 2272.218
428.3380, 1980.382
429.5300, 1695.574
430.7220, 1600.795
431.9140, 1476.045
433.1050, 1340.323
434.2970, 1201.629
435.4880, 1171.962
436.6790, 1067.324
437.8700, 911.7119
439.0610, 756.1274
440.2510, 649.5693
441.4420, 489.0381
442.6320, 434.5334
443.8220, 325.0552
445.0120, 409.6035
446.2020, 389.1780
447.3910, 429.7791
448.5810, 378.4060
449.7700, 459.0588
450.9600, 358.7378
452.1490, 387.4426
453.3370, 284.1731
454.5260, 234.9290
455.7150, 211.7104
456.9030, 186.5171
458.0910, 127.3489
459.2800, 65.20557
460.4670, 17.24414
461.6550, 2.605469
462.8430, 117.0559
464.0300, 91.77002
465.2180, 123.3770
466.4050, 75.04761
467.5920, 42.08984
468.7790, 20.32715
469.9650, 37.44336
471.1520, 90.21362
472.3380, 46.24243
473.5250, 21.83838
474.7110, 98.30029
475.8970, 180.4766
477.0820, 210.5566
478.2680, 276.3318
479.4540, 331.5583
480.6390, 302.5571
481.8240, 332.5784
483.0090, 385.6228
484.1940, 291.6958
485.3780, 208.7913
486.5630, 97.91748
487.7470, 98.06812
488.9320, 5.241699
490.1160, 17.55444
491.3000, 10.66479
492.4830, 35.07642
493.6670, 5.770752
494.8500, 72.41821
496.0340, 5.949951
497.2170, 18.63647
498.4000, 105.8096
499.5820, 45.29736
500.7650, 165.8289
501.9480, 295.4004
503.1300, 388.3232
504.3120, 732.6782
505.4940, 810.3911
506.6760, 1044.157
507.8580, 1509.987
509.0390, 1886.855
510.2210, 2346.771
511.4020, 3054.746
512.5830, 3605.771
513.7640, 4544.853
514.9450, 5188.985
516.1250, 5785.174
517.3060, 6658.405
518.4860, 7165.682
519.6660, 7959.022
520.8460, 8194.404
522.0260, 8266.834
523.2060, 8159.304
524.3850, 7255.802
525.5650, 6632.321
526.7440, 6219.868
527.9230, 5927.427
529.1020, 5915.000
530.2810, 5958.596
531.4590, 6435.223
532.6380, 6989.860
533.8160, 7376.527
534.9940, 7657.206
536.1720, 7518.900
537.3500, 6937.617
538.5270, 6573.344
539.7050, 5909.081
540.8820, 5897.831
542.0590, 5803.590
543.2360, 5816.359
544.4130, 6001.139
545.5900, 6221.936
546.7660, 6125.754
547.9430, 5587.617
549.1190, 5062.546
550.2950, 4491.543
551.4710, 3796.609
552.6470, 3237.744
553.8220, 2754.951
554.9980, 2380.233
556.1730, 2129.573
557.3480, 2013.955
558.5230, 1920.360
559.6980, 1762.794
560.8730, 1868.233
562.0470, 1932.678
563.2220, 1975.128
564.3960, 2275.581
565.5700, 2422.040
566.7440, 2655.503
567.9170, 2868.969
569.0910, 3217.439
570.2640, 3337.911
571.4380, 3441.388
572.6110, 3604.865
573.7840, 3352.345
574.9570, 3181.827
576.1290, 2797.311
577.3020, 2433.796
578.4740, 2073.282
579.6460, 1723.770
580.8180, 1470.257
581.9900, 1237.745
583.1620, 1188.233
584.3330, 1114.720
585.5040, 1008.207
586.6760, 897.6929
587.8470, 814.1777
589.0180, 712.8120
590.1880, 643.1423
591.3590, 527.6221
592.5290, 478.0991
593.7000, 384.5740
594.8700, 378.0459
596.0400, 222.5146
597.2090, 161.9800
598.3790, 78.44189
599.5490, 82.89966
600.7180, 42.35327
601.8870, 41.20020
603.0560, 4.093750
604.2250, 79.41724
605.3940, 14.83960
606.5620, 67.98169
607.7300, 5.209473
608.8990, 94.06909
610.0670, 111.6104
611.2350, 17.04248
612.4020, 23.14771
613.5700, 3.863770
614.7370, 34.02393
615.9050, 68.06714
617.0720, 30.83545
618.2390, 8.729736
619.4060, 26.60693
620.5720, 112.4741
621.7390, 108.3347
622.9050, 247.1880
624.0710, 298.1824
625.2370, 289.0217
626.4030, 323.7263
627.5690, 420.8477
628.7340, 482.8960
629.9000, 496.9419
631.0650, 635.7881
632.2300, 640.6243
633.3950, 826.7856
634.5600, 963.3665
635.7240, 1059.106
636.8890, 1296.815
638.0530, 1503.911
639.2170, 1750.223
640.3810, 1955.319
641.5450, 2382.457
642.7080, 2874.959
643.8720, 3217.084
645.0350, 3828.322
646.1980, 4525.748
647.3610, 5486.803
648.5240, 6569.837
649.6870, 7978.068
650.8490, 9624.005
652.0120, 11629.88
653.1740, 13929.52
654.3360, 16459.05
655.4980, 19366.90
656.6600, 21721.40
657.8210, 23601.39
658.9830, 24517.77
660.1440, 24170.53
661.3050, 22897.25
662.4660, 20882.32
663.6270, 18508.79
664.7870, 16713.10
665.9480, 15163.58
667.1080, 13893.83
668.2680, 13365.22
669.4280, 13641.82
670.5880, 14213.78
671.7480, 15359.92
672.9070, 16910.04
674.0670, 18867.13
675.2260, 21303.88
676.3850, 23381.44
677.5440, 25681.46
678.7030, 27303.43
679.8610, 28291.39
681.0200, 27861.32
682.1780, 26332.22
683.3360, 23673.08
684.4940, 20735.93
685.6520, 17495.07
686.8090, 14635.86
687.9670, 12094.62
689.1240, 9925.338
690.2810, 8229.033
691.4380, 6780.993
692.5950, 5727.626
693.7520, 4781.229
694.9080, 4087.801
696.0650, 3513.341
697.2210, 3136.848
698.3770, 2765.323
699.5330, 2477.767
700.6880, 2070.177
701.8440, 1917.556
702.9990, 1716.902
704.1550, 1658.216
705.3100, 1462.497
706.4650, 1412.746
707.6190, 1219.962
708.7740, 1150.145
709.9290, 1131.295
711.0830, 979.4136
712.2370, 924.4995
713.3910, 912.5522
714.5450, 841.5725
715.6980, 834.5601
716.8520, 767.5151
718.0050, 792.4370
719.1580, 747.3264
720.3110, 714.1831
721.4640, 652.0068
722.6170, 730.7986
723.7700, 700.5571
724.9220, 756.2832
726.0740, 752.9768
727.2260, 762.6377
728.3780, 663.2656
729.5300, 670.8613
730.6810, 612.4243
731.8330, 617.9551
732.9840, 636.4531
734.1350, 532.9189
735.2860, 576.3525
736.4370, 570.7534
737.5880, 584.1226
738.7380, 611.4590
739.8880, 488.6064
741.0390, 603.6348
742.1890, 515.2551
743.3380, 530.1084
744.4880, 581.8291
745.6380, 703.5806
746.7870, 693.6807
747.9360, 711.9597
749.0850, 638.1052
750.2340, 592.8884
751.3830, 625.4175
752.5310, 463.4753
753.6800, 434.2998
754.8280, 337.0786
755.9760, 255.9460
757.1240, 245.1118
758.2720, 218.8206
759.4190, 153.7527
760.5670, 135.6575
761.7140, 54.53516
762.8610, 164.3738
764.0080, 31.18555
765.1550, 91.95166
766.3020, 95.68750
767.4480, 19.39355
768.5950, 58.05200
769.7410, 12.32031
770.8870, 107.7561
772.0330, 63.29761
773.1780, 53.92603
774.3240, 46.62207
775.4690, 35.39697
776.6140, 26.44629
777.7590, 40.15161
778.9040, 26.13745
780.0490, 33.18994
781.1940, 76.31201
782.3380, 63.52563
783.4820, 83.82349
784.6260, 127.2151
785.7700, 32.72266
786.9140, 69.29565
788.0580, 113.9524
789.2010, 82.71533
790.3450, 112.5674
791.4880, 96.52344
792.6310, 103.5735
793.7730, 67.72046
794.9160, 77.56470
796.0590, 149.2498
797.2010, 77.67236
798.3430, 79.17407
799.4850, 70.75439
800.6270, 31.40747
801.7690, 0.8884280
802.9100, 19.84839
804.0520, 46.37231
805.1930, 18.57397
806.3340, 12.24561
807.4750, 52.10010
808.6160, 35.99146
809.7560, 42.93481
810.8970, 43.09229
812.0370, 9.897461
813.1770, 24.91382
814.3170, 34.03638
815.4570, 8.970947
816.5960, 1203.890
817.7360, 1356.794
818.8750, 1307.685
820.0140, 608.5608
821.1530, 142.4236
822.2920, 36.72607
823.4310, 78.09521
824.5690, 69.90405
825.7070, 56.70093
826.8460, 84.48682
827.9840, 15.73853
829.1220, 33.02124
830.2590, 26.77075
831.3970, 92.51050
832.5340, 92.88647
833.6710, 84.96167
834.8080, 111.6741
835.9450, 119.3782
837.0820, 128.0742
838.2190, 145.7632
839.3550, 101.4451
840.4910, 214.1199
841.6270, 209.7886
842.7630, 263.4514
843.8990, 359.1086
845.0350, 390.7607
846.1700, 540.4080
847.3060, 629.0510
848.4410, 674.6902
849.5760, 894.3257
850.7100, 1055.958
851.8450, 1290.587
852.9800, 1504.214
854.1140, 1622.840
855.2480, 1841.463
856.3820, 1924.085
857.5160, 1992.706
858.6500, 2002.327
859.7830, 1973.948
860.9170, 1775.568
862.0500, 1704.189
863.1830, 1576.812
864.3160, 1441.435
865.4480, 1296.060
866.5810, 1103.687
867.7130, 998.3174
868.8460, 889.9497
869.9780, 726.5857
871.1100, 706.2246
872.2410, 574.8682
873.3730, 557.5156
874.5050, 454.1677
875.6360, 481.8252
876.7670, 410.4890
877.8980, 371.1782
879.0290, 381.8828
880.1590, 403.6221
881.2900, 331.3809
882.4200, 335.1711
883.5500, 291.9749
884.6800, 335.8174
885.8100, 499.7041
886.9400, 426.6099
888.0690, 519.5376
889.1990, 527.4824
890.3280, 575.4521
891.4570, 559.4553
892.5860, 543.4722
893.7140, 591.5039
894.8430, 627.5483
895.9710, 619.6030
897.1000, 641.6685
898.2280, 594.5977
899.3560, 590.6858
900.4830, 651.9136
901.6110, 541.7290
902.7380, 588.6221
903.8660, 631.4966
904.9930, 705.8010
906.1200, 661.9202
907.2460, 694.1167
908.3730, 835.1746
909.5000, 847.8936
910.6260, 1017.146
911.7520, 1031.188
912.8780, 1254.873
914.0040, 1360.780
915.1290, 1564.651
916.2550, 1764.167
917.3800, 2272.064
918.5050, 2671.856
919.6300, 3040.472
920.7550, 3710.462
921.8800, 4203.486
923.0040, 5008.319
924.1290, 5721.455
925.2530, 6067.670
926.3770, 6613.128
927.5010, 6782.719
928.6250, 6907.011
929.7480, 7172.682
930.8720, 7323.865
931.9950, 7441.706
933.1180, 7713.173
934.2410, 7862.689
935.3640, 8019.886
936.4860, 7856.722
937.6090, 7835.737
938.7310, 7550.618
939.8530, 7158.734
940.9750, 6749.750
942.0970, 6164.581
943.2180, 5695.079
944.3400, 5330.412
945.4610, 4641.805
946.5820, 4341.247
947.7030, 3913.060
948.8240, 3514.091
949.9450, 3138.702
951.0650, 2859.356
952.1860, 2544.070
953.3060, 2304.838
954.4260, 2167.666
955.5460, 1950.555
956.6650, 1851.501
957.7850, 1708.167
958.9040, 1690.218
960.0230, 1603.315
961.1420, 1465.459
962.2610, 1466.664
963.3800, 1423.620
964.4990, 1431.923
965.6170, 1210.272
966.7350, 1248.664
967.8530, 1241.116
968.9710, 1290.619
970.0890, 1271.173
971.2070, 1226.780
972.3240, 1366.429
973.4410, 1364.124
974.5580, 1576.864
975.6750, 1556.657
976.7920, 1728.506
977.9090, 1832.397
979.0250, 2047.334
980.1410, 2240.331
981.2580, 2418.372
982.3740, 2702.470
983.4890, 3091.609
984.6050, 3339.801
985.7200, 3931.035
986.8360, 4392.315
987.9510, 5087.636
989.0660, 5821.003
990.1810, 6871.416
991.2950, 8033.872
992.4100, 9410.381
993.5240, 10993.94
994.6390, 12891.54
995.7530, 15140.18
996.8660, 17790.87
997.9800, 20918.60
999.0940, 24496.38
1000.207, 28639.20
1001.320, 33253.07
1002.433, 38329.98
1003.546, 43534.93
1004.659, 48392.92
1005.772, 52298.98
1006.884, 54966.05
1007.996, 56142.19
1009.108, 54803.36
1010.220, 52646.58
1011.332, 50211.84
1012.444, 48571.15
1013.555, 46426.50
1014.666, 45565.90
1015.777, 44902.33
1016.888, 44504.81
1017.999, 44491.33
1019.110, 43927.89
1020.220, 43875.50
1021.331, 43565.22
1022.441, 43359.19
1023.551, 42916.02
1024.661, 42497.79
1025.770, 41848.06
1026.880, 40783.91
1027.989, 39969.80
1029.098, 38571.73
1030.207, 36639.71
1031.316, 34537.72
1032.425, 32018.78
1033.533, 29644.88
1034.642, 27365.03
1035.750, 24836.22
1036.858, 22550.45
1037.966, 20503.73
1039.073, 18679.05
1040.181, 16855.44
1041.288, 14999.91
1042.396, 13574.44
1043.503, 12080.05
1044.610, 10932.06
1045.716, 9719.065
1046.823, 8812.863
1047.929, 7928.910
1049.036, 7249.832
1050.142, 6573.826
1051.248, 5954.878
1052.353, 5549.808
1053.459, 5118.000
1054.564, 4621.812
1055.670, 4165.146
1056.775, 3750.545
1057.880, 3316.150
1058.985, 2973.431
1060.089, 2607.971
1061.194, 2466.026
1062.298, 2241.343
1063.402, 2038.277
1064.506, 1854.899
1065.610, 1670.413
1066.713, 1465.654
1067.817, 1387.648
1068.920, 1255.849
1070.023, 1225.397
1071.126, 1107.062
1072.229, 1064.406
1073.332, 941.8459
1074.435, 830.1973
1075.537, 778.5977
1076.639, 730.1106
1077.741, 639.1099
1078.843, 690.3135
1079.945, 597.8186
1081.046, 626.4883
1082.148, 511.1543
1083.249, 539.5974
1084.350, 479.6929
1085.451, 393.6562
1086.551, 393.3752
1087.652, 369.5361
1088.752, 378.3245
1089.853, 429.2441
1090.953, 347.8074
1092.053, 336.1631
1093.152, 330.8828
1094.252, 259.3750
1095.351, 277.5217
1096.451, 343.2322
1097.550, 264.6919
1098.649, 293.9597
1099.748, 302.7502
1100.846, 237.1270
1101.945, 283.2529
1103.043, 270.0603
1104.141, 282.4673
1105.239, 300.7131
1106.337, 339.6602
1107.434, 200.3748
1108.532, 293.6748
1109.629, 270.3501
1110.726, 175.1555
1111.823, 253.6499
1112.920, 205.4968
1114.017, 202.9553
1115.113, 159.2947
1116.210, 214.9192
1117.306, 196.3228
1118.402, 239.2551
1119.498, 258.5542
1120.593, 225.6223
1121.689, 308.5559
1122.784, 288.3323
1123.879, 255.1108
1124.974, 280.2666
1126.069, 264.9753
1127.164, 212.7402
1128.259, 187.3711
1129.353, 204.5420
1130.447, 188.3123
1131.541, 173.0554
1132.635, 220.2715
1133.729, 193.6628
1134.822, 253.5989
1135.916, 188.0808
1137.009, 138.5342
1138.102, 120.0676
1139.195, 159.3730
1140.288, 159.9109
1141.380, 175.6008
1142.473, 108.1667
1143.565, 127.6560
1144.657, 124.1147
1145.749, 55.55054
1146.841, 80.12671
1147.932, 54.89502
1149.024, 47.49536
1150.115, 60.66968
1151.206, 106.0190
1152.297, 7.321533
1153.388, 22.92505
1154.479, 9.514893
1155.569, 77.82080
1156.659, 31.84619
1157.750, 52.51318
1158.839, 69.83496
1159.929, 91.15259
1161.019, 96.81616
1162.108, 49.77490
1163.198, 73.07886
1164.287, 4.377197
1165.376, 8.820557
1166.465, 13.10693
1167.553, 95.38721
1168.642, 14.66040
1169.730, 95.92651
1170.818, 62.18481
1171.906, 60.47559
1172.994, 29.99463
1174.082, 16.38721
1175.170, 49.36743
1176.257, 15.16797
1177.344, 5.359863
1178.431, 10.40015
1179.518, 45.76001
1180.605, 1.908203
1181.691, 14.04346
1182.778, 28.83423
1183.864, 20.26538
1184.950, 19.64844
1186.036, 11.41650
1187.122, 6.436523
1188.207, 48.49854
1189.292, 19.50098
1190.378, 41.52832
1191.463, 94.59180
1192.548, 31.72095
1193.632, 21.88379
1194.717, 111.0769
1195.801, 3.800293
1196.886, 42.49268
1197.970, 44.83105
1199.054, 109.2166
1200.137, 32.68530
1201.221, 96.03906
1202.305, 33.43530
1203.388, 72.12964
1204.471, 52.70972
1205.554, 67.26758
1206.637, 34.90723
1207.719, 24.76636
1208.802, 73.63965
1209.884, 60.62036
1210.966, 13.47607
1212.048, 75.14453
1213.130, 10.68384
1214.212, 62.45654
1215.293, 26.73608
1216.374, 52.98706
1217.456, 58.33032
1218.536, 34.80933
1219.617, 19.35107
1220.698, 11.94775
1221.778, 9.403076
1222.859, 4.712158
1223.939, 38.02417
1225.019, 19.22363
1226.099, 6.621094
1227.178, 16.48022
1228.258, 58.53906
1229.337, 35.43359
1230.417, 4.522949
1231.496, 10.42871
1232.574, 0.2856450
1233.653, 65.08813
1234.732, 34.85767
1235.810, 45.58643
1236.888, 7.276611
1237.966, 1.086670
1239.044, 63.49121
1240.122, 60.03296
1241.199, 16.46191
1242.277, 62.97412
1243.354, 2.373047
1244.431, 125.7578
1245.508, 20.06372
1246.585, 120.3311
1247.661, 70.55054
1248.738, 154.8191
1249.814, 68.96851
1250.890, 77.07837
1251.966, 88.14990
1253.042, 26.18481
1254.117, 73.16479
1255.193, 101.1045
1256.268, 99.01025
1257.343, 115.8789
1258.418, 79.71240
1259.493, 105.5051
1260.567, 110.2605
1261.642, 82.98340
1262.716, 182.6648
1263.790, 101.3123
1264.864, 166.9829
1265.938, 176.5566
1267.011, 160.0955
1268.085, 88.59888
1269.158, 164.0598
1270.231, 76.48535
1271.304, 161.8647
1272.377, 182.2080
1273.450, 191.5225
1274.522, 198.8276
1275.594, 167.0720
1276.666, 137.2800
1277.738, 164.4504
1278.810, 108.5837
1279.882, 244.6753
1280.953, 155.7349
1282.025, 217.6809
1283.096, 214.3931
1284.167, 254.2493
1285.238, 267.5454
1286.308, 226.6694
1287.379, 277.5171
1288.449, 257.3284
1289.519, 241.1052
1290.589, 242.8474
1291.659, 275.5544
1292.729, 250.2261
1293.798, 207.8591
1294.868, 255.4590
1295.937, 297.0249
1297.006, 249.5559
1298.075, 255.0513
1299.143, 257.5112
1300.212, 240.9355
1301.280, 185.3242
1302.348, 290.6743
1303.416, 209.9893
1304.484, 296.9326
1305.552, 175.9067
1306.620, 239.1101
1307.687, 281.0920
1308.754, 348.2244
1309.821, 348.0137
1310.888, 322.3682
1311.955, 318.5830
1313.021, 318.5725
1314.088, 303.7810
1315.154, 264.9065
1316.220, 282.7898
1317.286, 287.5103
1318.352, 262.5891
1319.417, 282.4490
1320.483, 323.8301
1321.548, 267.9866
1322.613, 284.5513
1323.678, 211.4565
1324.743, 284.9551
1325.807, 249.8774
1326.872, 246.5115
1327.936, 262.9634
1329.000, 198.0808
1330.064, 215.0854
1331.128, 219.4185
1332.191, 202.6543
1333.255, 179.9778
1334.318, 179.2581
1335.381, 226.4421
1336.444, 207.1377
1337.507, 253.6418
1338.569, 159.8418
1339.632, 117.8804
1340.694, 233.9285
1341.756, 183.1973
1342.818, 247.8108
1343.880, 171.5530
1344.941, 172.5361
1346.003, 202.0740
1347.064, 206.9805
1348.125, 239.7515
1349.186, 182.8826
1350.247, 198.2168
1351.308, 202.1824
1352.368, 155.3708
1353.428, 202.8999
1354.489, 189.5679
1355.549, 197.9661
1356.608, 217.4622
1357.668, 209.3262
1358.727, 236.5977
1359.787, 222.1133
1360.846, 216.9412
1361.905, 198.1621
1362.964, 233.5374
1364.022, 240.2031
1365.081, 213.0940
1366.139, 242.3914
1367.197, 226.3052
1368.255, 244.0798
1369.313, 281.1567
1370.371, 185.8723
1371.428, 126.9670
1372.486, 186.1714
1373.543, 132.0811
1374.600, 217.2014
1375.657, 113.7830
1376.713, 200.0625
1377.770, 225.4878
1378.826, 226.1558
1379.882, 186.8511
1380.938, 227.5464
1381.994, 147.8401
1383.050, 194.0957
1384.106, 159.8638
1385.161, 215.6912
1386.216, 201.9236
1387.271, 134.5449
1388.326, 204.2378
1389.381, 195.3892
1390.435, 185.3535
1391.490, 109.7605
1392.544, 192.6096
1393.598, 256.4746
1394.652, 163.2473
1395.705, 221.2346
1396.759, 184.9768
1397.812, 185.5540
1398.866, 199.2729
1399.919, 175.5146
1400.972, 113.3872
1402.024, 192.1646
1403.077, 148.7900
1404.129, 187.2068
1405.181, 140.7778
1406.233, 145.6465
1407.285, 155.1387
1408.337, 142.6074
1409.389, 178.3235
1410.440, 184.0100
1411.491, 221.7554
1412.542, 92.48779
1413.593, 111.1743
1414.644, 138.8835
1415.695, 146.6750
1416.745, 189.4338
1417.795, 139.0977
1418.845, 216.7305
1419.895, 200.3806
1420.945, 130.8408
1421.995, 207.7388
1423.044, 154.3728
1424.093, 137.9263
1425.142, 211.4561
1426.191, 162.9741
1427.240, 107.4397
1428.289, 179.6396
1429.337, 140.1033
1430.385, 187.3708
1431.433, 133.8137
1432.481, 102.8953
1433.529, 129.2957
1434.577, 217.8059
1435.624, 148.1714
1436.672, 191.5222
1437.719, 158.9097
1438.766, 164.2363
1439.812, 163.6309
1440.859, 132.9277
1441.905, 184.3708
1442.952, 201.6245
1443.998, 126.9231
1445.044, 191.1631
1446.090, 125.5298
1447.135, 143.3403
1448.181, 234.4348
1449.226, 213.3967
1450.271, 245.5027
1451.316, 141.4880
1452.361, 217.5449
1453.405, 183.4456
1454.450, 146.5029
1455.494, 174.7285
1456.538, 200.3674
1457.582, 138.6338
1458.626, 156.9177
1459.670, 179.2825
1460.713, 116.7664
1461.757, 128.2725
1462.800, 156.7417
1463.843, 138.2949
1464.886, 217.8545
1465.928, 125.4526
1466.971, 136.0774
1468.013, 239.7056
1469.055, 123.3435
1470.097, 132.0127
1471.139, 146.6975
1472.181, 118.3560
1473.222, 145.0701
1474.263, 229.6953
1475.305, 148.4253
1476.346, 80.15552
1477.386, 148.9099
1478.427, 170.6589
1479.468, 148.4072
1480.508, 163.5938
1481.548, 191.8945
1482.588, 146.5498
1483.628, 119.2852
1484.668, 149.0273
1485.707, 108.7817
1486.747, 127.4768
1487.786, 149.2051
1488.825, 183.9360
1489.864, 190.6709
1490.902, 107.4019
1491.941, 120.1313
1492.979, 56.72583
1494.017, 97.44800
1495.055, 137.1665
1496.093, 90.88428
1497.131, 80.60229
1498.168, 61.31836
1499.206, 98.03711
1500.243, 62.76196
1501.280, 32.49561
1502.317, 119.2395
1503.354, 20.99268
1504.390, 117.7542
1505.426, 45.52563
1506.463, 148.3076
1507.499, 5.899414
1508.535, 21.90796
1509.570, 36.73291
1510.606, 93.58398
1511.641, 64.46118
1512.676, 14.63281
1513.711, 68.30127
1514.746, 83.26929
1515.781, 47.25952
1516.816, 100.2668
1517.850, 169.2903
1518.884, 65.32837
1519.918, 125.3794
1520.952, 49.44312
1521.986, 52.51880
1523.019, 36.60693
1524.053, 21.29248
1525.086, 18.81909
1526.119, 83.94263
1527.152, 43.07959
1528.185, 144.2319
1529.217, 85.39917
1530.250, 73.58374
1531.282, 6.213379
1532.314, 102.0103
1533.346, 106.2573
1534.377, 85.52832
1535.409, 91.82471
1536.440, 80.82153
1537.472, 83.78833
1538.503, 71.10059
1539.534, 18.42920
1540.564, 23.17480
1541.595, 48.53174
1542.625, 87.32129
1543.656, 33.55103
1544.686, 48.78784
1545.716, 0.9694820
1546.745, 30.27612
1547.775, 32.44263
1548.804, 90.73340
1549.834, 103.5237
1550.863, 37.27344
1551.892, 123.1812
1552.920, 163.5674
1553.949, 84.83154
1554.977, 118.9734
1556.006, 100.5579
1557.034, 16.55957
1558.062, 4.248779
1559.089, 85.37427
1560.117, 43.11450
1561.144, 14.74072
1562.172, 28.55640
1563.199, 7.205566
1564.226, 62.87305
1565.252, 0.8530270
1566.279, 58.33301
1567.305, 13.44824
1568.332, 14.23389
1569.358, 0.1044920
1570.384, 0.0000000E+00
##END=



