##NAMES=Enstatite
##RRUFFID=R040094
##IDEAL CHEMISTRY=MgSiO_3_
##LOCALITY=unknown
##OWNER=RRUFF
##SOURCE=University of Arizona Mineral Museum
##DESCRIPTION=Dark green massive, associated with anthophyllite
##STATUS=The identification of this mineral has been confirmed by X-ray diffraction and chemical analysis
##URL=rruff.info/R040094
##MEASURED CHEMISTRY=(Mg_0.84_Fe_0.15_)(Si_0.99_Al_0.01_)O_3_; = Enstatite :  [box](Mg_0.83_Fe_0.14_Na_0.01_Ca_0.01_)_7_(Si_0.99_Al_0.01_)_8_O_22_(OH)_2_ = Anthophyllite
##PIN_ID=M00257
##ORIENTATION=Laser parallel to b* (0 1 0). Fiducial mark perpendicular to laser is parallel to -c [0 0 -1]
74.776, 0.000
76.178, 0.384
77.580, 5.978
78.982, 104.884
80.383, 312.406
81.784, 731.127
83.185, 1031.415
84.585, 826.274
85.985, 412.452
87.385, 55.578
88.785, 9.636
90.185, 23.406
91.584, 35.087
92.983, 187.690
94.382, 184.278
95.780, 312.746
97.178, 337.005
98.576, 400.976
99.974, 459.590
101.372, 621.801
102.769, 824.268
104.166, 939.914
105.563, 1396.708
106.959, 1807.932
108.355, 2231.552
109.751, 2055.540
111.147, 1818.874
112.543, 1548.531
113.938, 1347.493
115.333, 1319.740
116.728, 1232.257
118.122, 1271.019
119.517, 1142.004
120.911, 1121.192
122.304, 1278.592
123.698, 1532.177
125.091, 1916.925
126.484, 2219.875
127.877, 2851.335
129.270, 3492.092
130.662, 4022.942
132.054, 4220.883
133.446, 3962.914
134.837, 3452.033
136.229, 2926.238
137.620, 2789.531
139.011, 2622.918
140.401, 2796.405
141.791, 3000.999
143.181, 3152.704
144.571, 3271.523
145.961, 3058.448
147.350, 2833.475
148.739, 2467.601
150.128, 2164.819
151.517, 1847.127
152.905, 1440.520
154.293, 1233.994
155.681, 921.547
157.069, 814.175
158.456, 611.850
159.843, 553.503
161.230, 450.149
162.617, 425.798
164.003, 417.456
165.389, 282.128
166.775, 254.810
168.161, 204.775
169.546, 150.072
170.931, 164.829
172.316, 101.621
173.701, 188.449
175.085, 87.315
176.469, 116.219
177.853, 71.273
179.237, 141.822
180.620, 182.438
182.003, 133.159
183.386, 184.990
184.769, 204.866
186.152, 312.787
187.534, 410.751
188.916, 487.760
190.297, 626.812
191.679, 791.905
193.060, 1174.042
194.441, 1345.219
195.822, 1242.437
197.202, 1081.713
198.583, 720.072
199.963, 571.539
201.342, 429.139
202.722, 341.896
204.101, 330.755
205.480, 265.791
206.859, 265.966
208.237, 252.295
209.616, 172.734
210.994, 94.271
212.372, 149.869
213.749, 76.486
215.126, 50.113
216.504, 100.751
217.880, 105.400
219.257, 208.061
220.633, 158.732
222.009, 296.415
223.385, 280.108
224.761, 348.812
226.136, 523.526
227.511, 509.249
228.886, 804.982
230.261, 1001.725
231.635, 1393.477
233.009, 1700.237
234.383, 2133.005
235.757, 2513.782
237.130, 2532.566
238.504, 2324.358
239.877, 1812.159
241.249, 1246.295
242.622, 945.591
243.994, 583.093
245.366, 325.875
246.738, 132.736
248.109, 102.704
249.480, 26.745
250.851, 71.905
252.222, 25.175
253.593, 27.545
254.963, 48.772
256.333, 64.710
257.703, 51.336
259.072, 97.036
260.442, 11.194
261.811, 35.639
263.179, 20.466
264.548, 24.485
265.916, 33.491
267.284, 46.550
268.652, 95.063
270.020, 74.812
271.387, 186.011
272.754, 209.253
274.121, 263.536
275.488, 224.857
276.854, 152.216
278.221, 121.611
279.587, 69.960
280.952, 29.507
282.318, 122.025
283.683, 91.531
285.048, 73.021
286.413, 67.493
287.777, 52.055
289.141, 28.629
290.505, 123.229
291.869, 170.854
293.233, 269.502
294.596, 298.170
295.959, 372.859
297.322, 462.568
298.684, 383.296
300.047, 436.044
301.409, 402.811
302.771, 423.596
304.132, 354.399
305.494, 291.220
306.855, 370.058
308.216, 317.912
309.576, 386.782
310.937, 430.668
312.297, 419.569
313.657, 549.484
315.016, 660.414
316.376, 882.357
317.735, 1007.276
319.094, 1126.931
320.453, 1331.195
321.811, 1283.486
323.170, 1493.649
324.528, 1446.726
325.885, 1634.351
327.243, 1752.333
328.600, 2020.595
329.957, 2406.356
331.314, 2785.341
332.671, 3380.575
334.027, 3983.536
335.383, 5005.977
336.739, 5919.368
338.095, 6986.616
339.450, 8182.486
340.805, 8527.224
342.160, 8659.219
343.515, 8234.911
344.869, 7257.309
346.224, 6282.011
347.578, 5167.991
348.931, 4257.117
350.285, 3479.207
351.638, 2889.304
352.991, 2537.407
354.344, 2204.518
355.696, 1958.634
357.049, 1839.756
358.401, 1766.883
359.753, 1607.016
361.104, 1489.154
362.456, 1364.296
363.807, 1224.443
365.158, 1187.593
366.508, 1012.746
367.859, 989.901
369.209, 898.057
370.559, 891.214
371.908, 1017.371
373.258, 1027.527
374.607, 1121.682
375.956, 1242.836
377.305, 1337.988
378.653, 1460.138
380.002, 1514.286
381.350, 1479.432
382.698, 1421.577
384.045, 1262.719
385.392, 1166.859
386.740, 997.997
388.086, 1014.131
389.433, 969.264
390.779, 940.394
392.126, 1042.521
393.472, 1092.775
394.817, 1411.766
396.163, 1270.884
397.508, 1422.999
398.853, 1408.110
400.198, 1433.219
401.542, 1438.323
402.886, 1351.424
404.230, 1324.535
405.574, 1312.653
406.918, 1290.778
408.261, 1303.909
409.604, 1293.045
410.947, 1339.187
412.290, 1347.333
413.632, 1342.482
414.974, 1283.634
416.316, 1237.790
417.658, 1173.948
418.999, 919.111
420.341, 887.275
421.682, 742.440
423.022, 602.460
424.363, 544.626
425.703, 429.468
427.043, 374.633
428.383, 336.797
429.723, 365.959
431.062, 331.120
432.401, 368.279
433.740, 401.437
435.079, 483.591
436.417, 551.744
437.755, 639.893
439.093, 701.062
440.431, 803.205
441.768, 729.405
443.106, 686.974
444.443, 545.865
445.779, 457.135
447.116, 358.167
448.452, 282.914
449.788, 215.572
451.124, 186.684
452.460, 178.791
453.795, 180.893
455.130, 168.991
456.465, 213.084
457.800, 217.172
459.134, 184.271
460.468, 238.364
461.802, 202.457
463.136, 232.544
464.470, 253.641
465.803, 198.737
467.136, 184.830
468.469, 163.927
469.801, 189.018
471.134, 135.112
472.466, 144.217
473.798, 142.315
475.129, 65.425
476.461, 82.532
477.792, 17.366
479.123, 55.731
480.454, 32.175
481.784, 21.115
483.115, 15.924
484.445, 80.047
485.774, 7.926
487.104, 93.108
488.433, 33.206
489.762, 7.665
491.091, 43.481
492.420, 94.665
493.748, 57.917
495.077, 17.230
496.405, 95.578
497.732, 45.007
499.060, 54.481
500.387, 36.015
501.714, 8.401
503.041, 51.204
504.367, 1.134
505.694, 3.554
507.020, 33.724
508.346, 73.989
509.671, 81.243
510.997, 135.488
512.322, 180.726
513.647, 214.954
514.972, 284.172
516.296, 303.761
517.620, 336.579
518.944, 350.766
520.268, 385.944
521.592, 395.111
522.915, 388.271
524.238, 443.421
525.561, 389.562
526.884, 440.693
528.206, 388.812
529.528, 393.921
530.850, 449.019
532.172, 484.197
533.494, 591.181
534.815, 670.245
536.136, 772.298
537.457, 938.340
538.777, 992.371
540.098, 989.390
541.418, 894.398
542.738, 721.394
544.057, 727.378
545.377, 573.352
546.696, 596.313
548.015, 496.262
549.334, 498.200
550.652, 545.126
551.970, 491.041
553.289, 448.943
554.606, 395.834
555.924, 322.713
557.241, 310.580
558.559, 251.434
559.875, 250.277
561.192, 231.108
562.509, 180.927
563.825, 222.733
565.141, 185.527
566.457, 271.308
567.772, 183.078
569.088, 227.834
570.403, 256.578
571.718, 323.309
573.032, 338.855
574.347, 304.733
575.661, 370.426
576.975, 346.105
578.288, 328.772
579.602, 360.426
580.915, 291.067
582.228, 262.695
583.541, 257.310
584.854, 197.913
586.166, 209.503
587.478, 218.976
588.790, 268.643
590.102, 246.193
591.413, 188.729
592.724, 140.252
594.035, 137.761
595.346, 162.257
596.657, 122.739
597.967, 150.207
599.277, 168.661
600.587, 153.110
601.897, 151.549
603.206, 135.992
604.515, 179.435
605.824, 195.874
607.133, 119.307
608.442, 199.726
609.750, 203.131
611.058, 172.522
612.366, 211.982
613.673, 158.399
614.981, 240.779
616.288, 221.678
617.595, 274.046
618.902, 283.375
620.208, 249.729
621.514, 365.762
622.820, 410.818
624.126, 379.580
625.432, 456.216
626.737, 463.689
628.042, 513.337
629.347, 587.031
630.652, 631.272
631.956, 664.800
633.260, 727.731
634.564, 780.204
635.868, 858.346
637.172, 870.402
638.475, 1065.808
639.778, 1058.178
641.081, 1207.167
642.384, 1270.431
643.686, 1390.583
644.988, 1540.576
646.290, 1668.775
647.592, 2070.969
648.894, 2211.129
650.195, 2526.349
651.496, 3163.503
652.797, 3664.005
654.097, 4482.710
655.398, 5342.342
656.698, 6453.558
657.998, 8007.882
659.298, 9145.431
660.597, 10417.771
661.896, 10794.464
663.196, 10729.667
664.494, 10297.694
665.793, 9075.459
667.091, 8553.247
668.389, 7791.578
669.687, 7389.413
670.985, 7297.143
672.283, 7499.919
673.580, 8112.597
674.877, 8850.309
676.174, 9867.991
677.470, 11275.659
678.767, 12724.104
680.063, 14481.751
681.359, 15579.776
682.655, 16767.400
683.950, 16695.004
685.245, 15322.602
686.540, 14030.186
687.835, 11647.760
689.130, 9805.370
690.424, 7922.919
691.718, 6442.456
693.012, 5225.979
694.306, 4203.492
695.599, 3496.994
696.893, 2944.483
698.186, 2431.961
699.478, 2175.427
700.771, 1815.882
702.063, 1545.324
703.356, 1447.756
704.647, 1252.176
705.939, 1157.584
707.231, 947.982
708.522, 881.368
709.813, 870.743
711.104, 729.106
712.394, 699.459
713.685, 622.800
714.975, 650.131
716.265, 516.450
717.554, 503.759
718.844, 536.057
720.133, 420.344
721.422, 389.620
722.711, 437.886
724.000, 376.141
725.288, 337.386
726.576, 291.620
727.864, 324.844
729.152, 313.057
730.439, 342.261
731.727, 299.454
733.014, 255.636
734.300, 236.810
735.587, 229.972
736.873, 278.125
738.160, 205.268
739.446, 248.401
740.731, 193.524
742.017, 242.638
743.302, 205.743
744.587, 156.838
745.872, 186.923
747.157, 160.999
748.441, 234.066
749.725, 186.125
751.009, 236.173
752.293, 178.192
753.576, 147.223
754.860, 200.246
756.143, 163.260
757.426, 176.265
758.708, 139.262
759.991, 144.251
761.273, 98.231
762.555, 76.155
763.837, 103.118
765.118, 75.074
766.399, 53.021
767.681, 58.960
768.961, 63.890
770.242, 40.187
771.523, 58.696
772.803, 0.430
774.083, 53.427
775.363, 44.724
776.642, 2.085
777.921, 6.877
779.201, 24.343
780.480, 16.408
781.758, 14.851
783.037, 54.133
784.315, 45.542
785.593, 57.791
786.871, 1.168
788.148, 6.440
789.426, 100.962
790.703, 5.418
791.980, 26.889
793.257, 48.369
794.533, 24.872
795.809, 44.394
797.085, 51.921
798.361, 39.688
799.637, 48.032
800.912, 24.604
802.188, 44.190
803.463, 33.787
804.737, 21.624
806.012, 10.945
807.286, 21.487
808.560, 27.051
809.834, 19.412
811.108, 22.896
812.381, 23.605
813.654, 12.883
814.927, 18.608
816.200, 27.896
817.473, 18.593
818.745, 26.908
820.017, 28.406
821.289, 11.100
822.561, 9.384
823.833, 34.864
825.104, 30.340
826.375, 20.814
827.646, 23.284
828.916, 48.751
830.187, 48.216
831.457, 18.322
832.727, 83.129
833.997, 10.423
835.266, 46.032
836.536, 55.457
837.805, 102.894
839.074, 71.328
840.342, 67.761
841.611, 4.192
842.879, 88.620
844.147, 101.047
845.415, 187.472
846.682, 148.896
847.950, 194.318
849.217, 295.739
850.484, 351.158
851.751, 514.577
853.017, 612.994
854.283, 721.411
855.550, 810.827
856.815, 877.863
858.081, 968.656
859.347, 977.069
860.612, 954.482
861.877, 960.895
863.142, 791.315
864.406, 823.734
865.670, 680.154
866.935, 575.574
868.199, 550.995
869.462, 409.415
870.726, 409.836
871.989, 361.258
873.252, 266.681
874.515, 296.106
875.778, 239.531
877.040, 172.957
878.302, 290.383
879.564, 101.812
880.826, 235.241
882.088, 172.671
883.349, 183.104
884.610, 211.870
885.871, 293.972
887.132, 188.409
888.392, 237.847
889.652, 171.292
890.913, 220.740
892.172, 176.189
893.432, 211.647
894.691, 276.112
895.951, 187.586
897.210, 232.062
898.468, 194.542
899.727, 230.031
900.985, 239.523
902.243, 205.027
903.501, 287.546
904.759, 250.025
906.017, 299.591
907.274, 255.137
908.531, 202.686
909.788, 252.246
911.044, 312.810
912.301, 288.378
913.557, 338.968
914.813, 359.561
916.069, 407.171
917.324, 465.784
918.580, 421.319
919.835, 507.891
921.090, 547.489
922.345, 668.559
923.599, 793.149
924.853, 781.781
926.108, 1036.385
927.361, 1067.301
928.615, 1134.184
929.869, 1374.356
931.122, 1539.648
932.375, 1596.098
933.628, 1776.058
934.880, 1836.586
936.133, 1910.257
937.385, 1866.632
938.637, 1794.599
939.888, 1808.016
941.140, 1633.788
942.391, 1669.593
943.642, 1409.086
944.893, 1237.268
946.144, 1212.962
947.394, 1065.468
948.645, 1064.540
949.895, 907.420
951.145, 880.817
952.394, 868.724
953.644, 766.450
954.893, 790.871
956.142, 727.630
957.391, 684.584
958.639, 698.387
959.888, 634.411
961.136, 594.239
962.384, 686.093
963.631, 588.456
964.879, 679.291
966.126, 623.042
967.373, 640.965
968.620, 655.793
969.867, 692.735
971.113, 654.705
972.359, 774.126
973.606, 702.040
974.851, 718.054
976.097, 864.074
977.342, 859.072
978.588, 936.091
979.833, 1003.135
981.077, 1052.186
982.322, 1189.456
983.566, 1301.527
984.810, 1469.212
986.054, 1595.299
987.298, 1799.395
988.541, 2086.498
989.785, 2289.608
991.028, 2848.735
992.271, 3315.815
993.513, 3771.956
994.756, 4685.104
995.998, 5434.258
997.240, 6704.431
998.482, 8131.608
999.724, 9688.794
1000.965, 11975.985
1002.206, 14633.185
1003.447, 17750.393
1004.688, 21987.602
1005.929, 24764.822
1007.169, 27712.047
1008.409, 27809.283
1009.649, 25516.520
1010.889, 22993.764
1012.128, 19162.578
1013.368, 16359.836
1014.607, 13777.266
1015.846, 11994.545
1017.084, 10731.830
1018.323, 9349.228
1019.561, 8616.536
1020.799, 8033.958
1022.037, 7221.607
1023.274, 6958.936
1024.512, 6506.272
1025.749, 5953.749
1026.986, 5871.098
1028.223, 5374.562
1029.460, 5227.076
1030.696, 4715.445
1031.932, 4296.958
1033.168, 4076.340
1034.404, 3765.883
1035.639, 3437.522
1036.875, 3030.824
1038.110, 2861.324
1039.345, 2538.938
1040.580, 2338.355
1041.814, 2089.261
1043.048, 1978.922
1044.282, 1591.783
1045.516, 1636.486
1046.750, 1498.947
1047.983, 1322.337
1049.217, 1400.930
1050.450, 1175.466
1051.683, 1119.700
1052.915, 1171.251
1054.148, 901.865
1055.380, 914.839
1056.612, 871.453
1057.844, 757.944
1059.075, 773.617
1060.307, 731.411
1061.538, 668.246
1062.769, 599.861
1064.000, 550.553
1065.230, 548.260
1066.461, 542.910
1067.691, 434.653
1068.921, 495.171
1070.151, 420.997
1071.380, 440.536
1072.609, 419.356
1073.838, 264.706
1075.067, 430.491
1076.296, 423.293
1077.525, 319.132
1078.753, 350.506
1079.981, 245.366
1081.209, 311.390
1082.437, 340.675
1083.664, 286.986
1084.891, 382.796
1086.118, 345.514
1087.345, 280.336
1088.572, 334.183
1089.798, 265.874
1091.024, 323.568
1092.250, 266.386
1093.476, 259.124
1094.702, 266.914
1095.927, 222.747
1097.153, 271.947
1098.378, 295.066
1099.602, 214.066
1100.827, 303.772
1102.051, 239.923
1103.275, 180.750
1104.499, 272.585
1105.723, 220.409
1106.947, 183.932
1108.170, 202.810
1109.393, 181.661
1110.616, 236.804
1111.839, 227.934
1113.061, 207.985
1114.284, 234.301
1115.506, 173.131
1116.728, 147.285
1117.949, 175.541
1119.171, 175.694
1120.392, 206.775
1121.613, 197.925
1122.834, 144.839
1124.055, 168.179
1125.275, 186.003
1126.496, 140.905
1127.716, 207.943
1128.936, 109.748
1130.155, 145.117
1131.375, 129.088
1132.594, 155.921
1133.813, 163.824
1135.032, 144.651
1136.251, 178.284
1137.469, 128.036
1138.687, 119.812
1139.905, 148.583
1141.123, 143.787
1142.341, 81.547
1143.558, 147.391
1144.775, 15.140
1145.992, 110.883
1147.209, 71.739
1148.426, 37.471
1149.642, 117.399
1150.858, 20.168
1152.074, 57.886
1153.290, 166.596
1154.506, 31.300
1155.721, 65.997
1156.936, 129.792
1158.151, 38.525
1159.366, 39.136
1160.580, 2.282
1161.795, 30.363
1163.009, 121.204
1164.223, 6.226
1165.437, 29.847
1166.650, 8.741
1167.864, 7.648
1169.077, 38.005
1170.290, 75.792
1171.502, 6.368
1172.715, 113.935
1173.927, 14.973
1175.139, 5.521
1176.351, 55.173
1177.563, 11.118
1178.775, 142.637
1179.986, 9.355
1181.197, 11.908
1182.408, 88.397
1183.619, 19.585
1184.829, 2.875
1186.039, 84.459
1187.250, 24.133
1188.459, 19.718
1189.669, 22.320
1190.879, 0.063
1192.088, 54.419
1193.297, 29.115
1194.506, 27.203
1195.715, 30.400
1196.923, 40.992
1198.131, 43.251
1199.339, 30.492
1200.547, 67.215
1201.755, 33.954
1202.962, 26.691
1204.170, 23.528
1205.377, 2.645
1206.584, 62.565
1207.790, 43.488
1208.997, 43.456
1210.203, 24.894
1211.409, 39.897
1212.615, 11.111
1213.821, 75.857
1215.026, 8.923
1216.231, 77.757
1217.437, 42.312
1218.641, 18.421
1219.846, 22.526
1221.051, 23.376
1222.255, 8.789
1223.459, 0.977
1224.663, 8.186
1225.866, 10.420
1227.070, 1.845
1228.273, 29.792
1229.476, 42.413
1230.679, 2.875
1231.882, 46.770
1233.084, 42.801
1234.286, 106.416
1235.488, 95.690
1236.690, 62.655
1237.892, 86.235
1239.093, 76.802
1240.295, 70.355
1241.496, 13.888
1242.697, 21.385
1243.897, 42.865
1245.098, 12.677
1246.298, 23.759
1247.498, 93.177
1248.698, 61.344
1249.897, 127.013
1251.097, 9.354
1252.296, 13.324
1253.495, 91.976
1254.694, 30.262
1255.893, 86.573
1257.091, 42.818
1258.289, 11.047
1259.487, 110.248
1260.685, 32.433
1261.883, 17.409
1263.080, 32.725
1264.278, 41.842
1265.475, 25.037
1266.672, 150.120
1267.868, 20.189
1269.065, 101.375
1270.261, 82.400
1271.457, 49.408
1272.653, 119.398
1273.849, 1.641
1275.044, 64.374
1276.239, 97.294
1277.434, 17.195
1278.629, 68.221
1279.824, 69.082
1281.018, 7.075
1282.213, 131.740
1283.407, 129.531
1284.601, 29.305
1285.794, 199.062
1286.988, 8.199
1288.181, 139.512
1289.374, 110.208
1290.567, 79.886
1291.760, 138.545
1292.952, 60.183
1294.145, 96.805
1295.337, 421.528
1296.529, 567.114
1297.720, 373.684
1298.912, 141.237
1300.103, 85.774
1301.294, 157.294
1302.485, 114.239
1303.676, 4.274
1304.866, 156.017
1306.057, 61.447
1307.247, 36.859
1308.437, 117.154
1309.627, 9.474
1310.816, 108.772
1312.005, 95.784
1313.195, 62.105
1314.383, 160.408
1315.572, 155.562
1316.761, 31.833
1317.949, 119.979
1319.137, 83.066
1320.325, 36.289
1321.513, 152.357
1322.701, 60.546
1323.888, 97.564
1325.075, 143.573
1326.262, 29.715
1327.449, 160.746
1328.635, 76.653
1329.822, 14.746
1331.008, 127.344
1332.194, 106.174
1333.380, 102.799
1334.565, 165.572
1335.751, 77.579
1336.936, 117.632
1338.121, 82.472
1339.306, 71.360
1340.490, 221.542
1341.675, 97.398
1342.859, 82.186
1344.043, 214.604
1345.227, 48.374
1346.411, 72.260
1347.594, 144.956
1348.777, 12.525
1349.960, 182.045
1351.143, 140.217
1352.326, 26.869
1353.508, 241.499
1354.690, 132.270
1355.873, 137.577
1357.054, 338.656
1358.236, 101.172
1359.418, 196.965
1360.599, 243.475
1361.780, 63.459
1362.961, 122.009
1364.142, 161.559
1365.322, 173.912
1366.502, 142.714
1367.682, 102.024
1368.862, 39.150
1370.042, 106.998
1371.222, 10.199
1372.401, 65.089
1373.580, 134.478
1374.759, 11.763
1375.938, 192.042
1377.116, 62.566
1378.295, 158.800
1379.473, 294.045
1380.651, 509.803
1381.829, 229.497
1383.006, 229.390
1384.184, 104.298
1385.361, 170.678
1386.538, 121.550
1387.715, 92.202
1388.891, 207.184
1390.068, 46.818
1391.244, 96.822
1392.420, 119.982
1393.596, 86.158
1394.771, 135.888
1395.947, 153.438
1397.122, 48.203
1398.297, 173.105
1399.472, 102.437
1400.647, 80.747
1401.821, 246.842
1402.995, 113.875
1404.170, 68.419
1405.343, 191.786
1406.517, 30.952
1407.691, 154.398
1408.864, 240.817
1410.037, 20.073
1411.210, 163.911
1412.383, 60.969
1413.555, 117.741
1414.728, 200.886
1415.900, 26.735
1417.072, 125.915
1418.244, 183.388
1419.415, 10.749
1420.587, 158.529
1421.758, 208.503
1422.929, 242.734
1424.100, 191.073
1425.270, 142.046
1426.441, 103.008
1427.611, 183.792
1428.781, 101.411
1429.951, 118.383
1431.120, 296.259
1432.290, 111.801
1433.459, 170.651
1434.628, 223.651
1435.797, 15.922
1436.966, 237.053
1438.134, 140.014
1439.303, 95.976
1440.471, 359.813
1441.639, 118.792
1442.806, 116.785
1443.974, 261.480
1445.141, 63.485
1446.308, 117.693
1447.475, 299.572
1448.642, 45.502
1449.809, 249.396
1450.975, 262.335
1452.141, 172.314
1453.307, 229.288
1454.473, 224.101
1455.639, 126.091
1456.804, 302.056
1457.969, 117.921
1459.134, 165.913
1460.299, 259.940
1461.464, 103.971
1462.628, 134.747
1463.793, 326.387
1464.957, 136.418
1466.121, 262.487
1467.284, 214.373
1468.448, 112.073
1469.611, 232.203
1470.774, 188.381
1471.937, 142.590
1473.100, 200.819
1474.262, 145.066
1475.425, 173.355
1476.587, 280.802
1477.749, 72.043
1478.911, 232.300
1480.072, 205.573
1481.234, 75.922
1482.395, 311.375
1483.556, 150.862
1484.717, 69.384
1485.878, 277.947
1487.038, 76.554
1488.198, 173.211
1489.358, 182.918
1490.518, 51.302
1491.678, 160.549
1492.837, 174.487
1493.997, 5.509
1495.156, 311.608
1496.315, 153.792
1497.474, 17.322
1498.632, 224.002
1499.790, 82.847
1500.949, 101.874
1502.107, 302.109
1503.264, 33.592
1504.422, 155.236
1505.579, 234.099
1506.737, 16.416
1507.894, 167.457
1509.051, 142.339
1510.207, 7.774
1511.364, 264.322
1512.520, 95.042
1513.676, 76.920
1514.832, 318.595
1515.988, 0.000
##END=



