##NAMES=Enstatite
##RRUFFID=R050644
##IDEAL CHEMISTRY=MgSiO_3_
##LOCALITY=Morogoro, Tanzania
##OWNER=RRUFF
##SOURCE=Jibamitra Ganguly
##DESCRIPTION=Light brown crystal fragment
##STATUS=The identification of this mineral has been confirmed by X-ray diffraction and chemical analysis
##URL=rruff.info/R050644
##MEASURED CHEMISTRY=(Mg_0.90_Fe_0.10_)SiO_3_
##PIN_ID=L01052
##ORIENTATION=Laser parallel to b* (0 1 0). Fiducial mark perpendicular to laser is parallel to c [0 0 1]
113.2080, 0.0000000E+00
114.4400, 17.60352
115.6710, 318.1680
116.9030, 895.2793
118.1340, 2023.969
119.3650, 4132.986
120.5960, 6382.398
121.8270, 8620.799
123.0580, 9915.199
124.2880, 11231.84
125.5190, 13232.74
126.7490, 14837.84
127.9790, 15592.25
129.2090, 14960.60
130.4390, 14370.61
131.6680, 14190.32
132.8980, 13853.00
134.1270, 13131.90
135.3560, 11093.21
136.5850, 8841.748
137.8140, 5978.619
139.0430, 4081.338
140.2710, 2653.137
141.5000, 1850.344
142.7280, 1266.312
143.9560, 878.4375
145.1840, 940.5859
146.4120, 809.8730
147.6390, 615.6133
148.8670, 617.8379
150.0940, 538.8223
151.3210, 485.8652
152.5490, 272.3691
153.7750, 164.4062
155.0020, 107.0996
156.2290, 181.7402
157.4550, 58.74414
158.6810, 15.74805
159.9080, 80.31641
161.1340, 26.02344
162.3590, 37.73633
163.5850, 27.02930
164.8110, 98.53320
166.0360, 106.2441
167.2610, 16.75195
168.4860, 128.4961
169.7110, 0.4589840
170.9360, 118.6211
172.1610, 121.0293
173.3850, 31.49219
174.6100, 239.1680
175.8340, 11.98047
177.0580, 20.92188
178.2820, 1.976563
179.5050, 100.8555
180.7290, 192.4453
181.9520, 335.5801
183.1760, 221.1074
184.3990, 277.0664
185.6220, 406.0547
186.8450, 559.2637
188.0670, 481.7617
189.2900, 558.0566
190.5120, 748.0938
191.7340, 827.4355
192.9560, 946.7305
194.1780, 1134.994
195.4000, 1157.188
196.6220, 1073.809
197.8430, 1262.023
199.0640, 1095.354
200.2860, 1035.914
201.5070, 1068.508
202.7270, 880.1973
203.9480, 787.9727
205.1690, 630.8281
206.3890, 692.7617
207.6090, 548.7676
208.8290, 460.8613
210.0490, 369.9785
211.2690, 255.1309
212.4890, 148.2930
213.7080, 76.41016
214.9280, 61.49414
216.1470, 4.449219
217.3660, 42.36328
218.5850, 102.0078
219.8030, 171.5293
221.0220, 359.5723
222.2400, 477.6504
223.4590, 729.7578
224.6770, 1440.896
225.8950, 1375.066
227.1120, 1681.270
228.3300, 1993.479
229.5480, 2030.691
230.7650, 2598.969
231.9820, 2632.318
233.1990, 2732.709
234.4160, 2537.166
235.6330, 2593.725
236.8490, 2474.412
238.0660, 2395.096
239.2820, 2039.830
240.4980, 1655.611
241.7140, 1119.414
242.9300, 813.2090
244.1460, 450.9902
245.3610, 207.7695
246.5770, 48.46094
247.7920, 41.29883
249.0070, 1.052734
250.2220, 42.79883
251.4370, 227.4629
252.6510, 69.73438
253.8660, 60.08398
255.0800, 190.5059
256.2940, 65.11133
257.5080, 283.1680
258.7220, 229.3770
259.9360, 9.464844
261.1490, 99.93750
262.3630, 105.4668
263.5760, 91.83984
264.7890, 18.80664
266.0020, 34.19141
267.2150, 35.88086
268.4270, 8.785156
269.6400, 29.16406
270.8520, 62.99805
272.0640, 21.17773
273.2760, 155.6016
274.4880, 187.4375
275.7000, 223.6016
276.9120, 18.58398
278.1230, 83.50195
279.3340, 78.34375
280.5450, 362.1543
281.7560, 85.06445
282.9670, 177.6211
284.1780, 18.20508
285.3880, 99.60547
286.5980, 208.8320
287.8090, 334.8965
289.0190, 245.8223
290.2290, 507.4473
291.4380, 448.0352
292.6480, 578.6094
293.8570, 615.1777
295.0670, 918.7305
296.2760, 754.2598
297.4850, 903.7656
298.6930, 880.2461
299.9020, 553.6953
301.1110, 760.1074
302.3190, 729.4746
303.5270, 844.8145
304.7350, 791.6367
305.9430, 626.9043
307.1510, 380.3047
308.3580, 687.2324
309.5660, 660.4980
310.7730, 906.3906
311.9800, 1108.775
313.1870, 1075.141
314.3940, 1478.256
315.6010, 1828.045
316.8070, 1978.562
318.0130, 2056.432
319.2200, 2396.082
320.4260, 2893.602
321.6310, 3556.117
322.8370, 4218.963
324.0430, 5472.580
325.2480, 6592.340
326.4540, 8021.998
327.6590, 10361.59
328.8640, 12483.93
330.0680, 15626.20
331.2730, 18414.39
332.4780, 21450.54
333.6820, 24076.80
334.8860, 26424.90
336.0900, 28144.96
337.2940, 28880.68
338.4980, 29553.56
339.7010, 29178.19
340.9050, 28392.65
342.1080, 27023.03
343.3110, 24679.32
344.5140, 22218.59
345.7170, 19161.14
346.9200, 16057.41
348.1220, 13152.04
349.3240, 11082.78
350.5270, 9092.273
351.7290, 7822.791
352.9310, 6567.086
354.1320, 5593.918
355.3340, 4853.023
356.5350, 4347.857
357.7370, 4012.727
358.9380, 3709.135
360.1390, 3299.062
361.3400, 2954.869
362.5400, 2682.803
363.7410, 2620.941
364.9410, 2422.197
366.1410, 2370.795
367.3410, 2301.412
368.5410, 2180.289
369.7410, 2252.570
370.9400, 2204.812
372.1400, 2264.312
373.3390, 2199.910
374.5380, 2250.525
375.7370, 2097.762
376.9360, 2089.996
378.1350, 2111.225
379.3330, 2077.453
380.5310, 2026.678
381.7300, 2506.898
382.9280, 2333.115
384.1260, 2524.330
385.3230, 2501.541
386.5210, 3197.750
387.7180, 3518.953
388.9160, 3857.156
390.1130, 4507.354
391.3100, 4916.934
392.5060, 5323.445
393.7030, 5987.141
394.9000, 6243.703
396.0960, 6510.068
397.2920, 7099.332
398.4880, 6906.213
399.6840, 6951.395
400.8800, 7072.980
402.0750, 6779.160
403.2710, 6776.340
404.4660, 6534.602
405.6610, 6545.461
406.8560, 6392.361
408.0510, 6382.014
409.2450, 6105.578
410.4400, 6257.680
411.6340, 6122.758
412.8280, 6281.510
414.0220, 6076.773
415.2160, 5733.801
416.4100, 5530.877
417.6030, 5287.863
418.7970, 5081.736
419.9900, 4531.234
421.1830, 4129.766
422.3760, 3673.861
423.5690, 3748.375
424.7610, 3123.352
425.9540, 2962.076
427.1460, 2580.955
428.3380, 2763.928
429.5300, 2789.633
430.7220, 3012.553
431.9140, 3521.463
433.1050, 3864.365
434.2970, 4273.264
435.4880, 4733.154
436.6790, 5033.037
437.8700, 5070.916
439.0610, 5030.789
440.2510, 5041.656
441.4420, 4985.514
442.6320, 4564.367
443.8220, 4221.217
445.0120, 3571.061
446.2020, 2972.053
447.3910, 2421.887
448.5810, 1963.721
449.7700, 1566.977
450.9600, 1209.951
452.1490, 988.4434
453.3370, 781.2773
454.5260, 658.4395
455.7150, 842.9980
456.9030, 578.8691
458.0910, 650.7637
459.2800, 760.6602
460.4670, 372.5762
461.6550, 681.4922
462.8430, 508.4121
464.0300, 490.3867
465.2180, 349.3633
466.4050, 380.3438
467.5920, 351.3223
468.7790, 458.2988
469.9650, 225.2754
471.1520, 260.2520
472.3380, 267.2324
473.5250, 483.2129
474.7110, 173.1953
475.8970, 39.17969
477.0820, 187.1641
478.2680, 453.1504
479.4540, 18.85742
480.6390, 182.1152
481.8240, 67.09375
483.0090, 125.0781
484.1940, 114.0723
485.3780, 109.0723
486.5630, 94.54492
487.7470, 81.80273
488.9320, 65.23828
490.1160, 83.71680
491.3000, 17.71094
492.4830, 13.70703
493.6670, 48.70898
494.8500, 28.10156
496.0340, 54.75195
497.2170, 59.79688
498.4000, 123.8613
499.5820, 158.9766
500.7650, 18.83398
501.9480, 29.65625
503.1300, 147.5098
504.3120, 41.72266
505.4940, 103.9453
506.6760, 30.79883
507.8580, 89.44727
509.0390, 170.2812
510.2210, 50.05664
511.4020, 17.86523
512.5830, 219.7148
513.7640, 268.5801
514.9450, 188.4785
516.1250, 210.3887
517.3060, 372.3066
518.4860, 575.2305
519.6660, 555.1680
520.8460, 641.1699
522.0260, 639.2188
523.2060, 572.3086
524.3850, 571.4121
525.5650, 601.5254
526.7440, 472.6504
527.9230, 880.7832
529.1020, 638.9512
530.2810, 981.1289
531.4590, 969.3164
532.6380, 942.5156
533.8160, 754.7539
534.9940, 1100.010
536.1720, 951.2930
537.3500, 1333.596
538.5270, 1199.986
539.7050, 1110.420
540.8820, 1059.896
542.0590, 1024.387
543.2360, 1076.920
544.4130, 952.4648
545.5900, 686.0215
546.7660, 772.5996
547.9430, 673.1934
549.1190, 544.7969
550.2950, 785.4160
551.4710, 613.0605
552.6470, 468.7246
553.8220, 430.4121
554.9980, 375.1270
556.1730, 429.8770
557.3480, 336.6777
558.5230, 361.3848
559.6980, 361.7637
560.8730, 336.3867
562.0470, 309.4609
563.2220, 228.5664
564.3960, 54.72852
565.5700, 77.90820
566.7440, 64.10352
567.9170, 66.91406
569.0910, 377.6172
570.2640, 206.9160
571.4380, 262.2324
572.6110, 408.5605
573.7840, 80.90430
574.9570, 23.25977
576.1290, 329.6309
577.3020, 93.01367
578.4740, 328.4102
579.6460, 141.8223
580.8180, 293.2480
581.9900, 636.6855
583.1620, 412.1367
584.3330, 164.6055
585.5040, 239.0859
586.6760, 66.41797
587.8470, 485.0625
589.0180, 218.5586
590.1880, 266.0664
591.3590, 9.410156
592.5290, 236.1250
593.7000, 217.6758
594.8700, 577.2422
596.0400, 170.8203
597.2090, 324.4141
598.3790, 128.0234
599.5490, 429.6484
600.7180, 190.2891
601.8870, 138.9453
603.0560, 314.6094
604.2250, 549.2930
605.3940, 183.9922
606.5620, 116.7031
607.7300, 285.4336
608.8990, 449.1758
610.0670, 323.9336
611.2350, 394.7070
612.4020, 366.4922
613.5700, 200.3008
614.7370, 629.1172
615.9050, 184.9531
617.0720, 441.6797
618.2390, 390.5469
619.4060, 626.4297
620.5720, 802.5820
621.7390, 711.4961
622.9050, 850.4219
624.0710, 908.4023
625.2370, 706.1328
626.4030, 1033.719
627.5690, 1166.453
628.7340, 1168.164
629.9000, 1142.188
631.0650, 1092.852
632.2300, 1284.277
633.3950, 1418.121
634.5600, 1286.059
635.7240, 1295.953
636.8890, 1628.496
638.0530, 1754.895
639.2170, 2052.723
640.3810, 2301.277
641.5450, 2567.355
642.7080, 2904.527
643.8720, 3025.887
645.0350, 3777.484
646.1980, 4205.203
647.3610, 5017.855
648.5240, 5890.328
649.6870, 7123.852
650.8490, 8802.688
652.0120, 10325.60
653.1740, 12362.09
654.3360, 14589.44
655.4980, 16251.85
656.6600, 18057.27
657.8210, 19246.70
658.9830, 20367.15
660.1440, 20467.04
661.3050, 20377.88
662.4660, 19460.45
663.6270, 18946.96
664.7870, 18125.19
665.9480, 16453.73
667.1080, 15293.30
668.2680, 14093.53
669.4280, 14207.13
670.5880, 14151.74
671.7480, 14498.36
672.9070, 15776.00
674.0670, 17860.66
675.2260, 19073.33
676.3850, 21330.02
677.5440, 23260.72
678.7030, 24712.44
679.8610, 25961.17
681.0200, 26330.92
682.1780, 26211.69
683.3360, 25654.46
684.4940, 24225.26
685.6520, 22314.06
686.8090, 19828.89
687.9670, 17426.73
689.1240, 14689.60
690.2810, 12296.48
691.4380, 10167.37
692.5950, 8129.273
693.7520, 6902.203
694.9080, 5768.141
696.0650, 4607.098
697.2210, 4213.070
698.3770, 3352.059
699.5330, 3195.055
700.6880, 2681.070
701.8440, 2451.094
702.9990, 2023.137
704.1550, 2098.195
705.3100, 1728.270
706.4650, 1974.355
707.6190, 1418.457
708.7740, 1391.570
709.9290, 1315.699
711.0830, 1027.840
712.2370, 1194.996
713.3910, 1119.160
714.5450, 806.3438
715.6980, 846.5391
716.8520, 736.7500
718.0050, 619.9727
719.1580, 556.2148
720.3110, 856.4688
721.4640, 668.7344
722.6170, 689.0156
723.7700, 281.3086
724.9220, 432.6172
726.0740, 537.7852
727.2260, 623.1211
728.3780, 432.4727
729.5300, 589.8359
730.6810, 446.9844
731.8330, 487.3789
732.9840, 465.7891
734.1350, 479.2109
735.2860, 208.6523
736.4370, 451.1055
737.5880, 330.5742
738.7380, 486.0586
739.8880, 157.5586
741.0390, 310.0742
742.1890, 462.6055
743.3380, 179.1445
744.4880, 282.6992
745.6380, 220.2734
746.7870, 240.8594
747.9360, 255.4648
749.0850, 153.0820
750.2340, 61.71484
751.3830, 147.3633
752.5310, 207.0273
753.6800, 252.7109
754.8280, 135.4062
755.9760, 145.0977
757.1240, 176.8438
758.2720, 31.58984
759.4190, 178.3594
760.5670, 152.1445
761.7140, 2.054688
762.8610, 150.7578
764.0080, 145.4180
765.1550, 113.6523
766.3020, 54.07031
767.4480, 87.82812
768.5950, 187.6016
769.7410, 23.58594
770.8870, 115.2383
772.0330, 14.08594
773.1780, 61.04297
774.3240, 20.82812
775.4690, 29.27734
776.6140, 32.36328
777.7590, 84.58203
778.9040, 39.58203
780.0490, 56.92969
781.1940, 188.6367
782.3380, 52.72656
783.4820, 42.15234
784.6260, 4.992188
785.7700, 38.85938
786.9140, 159.6875
788.0580, 94.03125
789.2010, 132.7539
790.3450, 11.48047
791.4880, 103.4492
792.6310, 16.54297
793.7730, 38.55469
794.9160, 74.58594
796.0590, 58.62891
797.2010, 234.3047
798.3430, 148.3359
799.4850, 143.6836
800.6270, 155.4414
801.7690, 4.679688
802.9100, 63.21484
804.0520, 42.12500
805.1930, 101.9453
806.3340, 127.9570
807.4750, 61.87891
808.6160, 307.8164
809.7560, 122.7773
810.8970, 63.75391
812.0370, 124.7539
813.1770, 131.7695
814.3170, 17.80859
815.4570, 165.8711
816.5960, 121.9492
817.7360, 80.04688
818.8750, 168.1641
820.0140, 100.2891
821.1530, 160.4609
822.2920, 70.64062
823.4310, 57.90625
824.5690, 78.10938
825.7070, 124.3516
826.8460, 127.9961
827.9840, 236.8984
829.1220, 147.2070
830.2590, 222.8906
831.3970, 181.6133
832.5340, 167.9531
833.6710, 205.3477
834.8080, 228.7578
835.9450, 297.1914
837.0820, 276.6445
838.2190, 378.1211
839.3550, 443.6211
840.4910, 668.1367
841.6270, 773.2070
842.7630, 720.7773
843.8990, 1033.363
845.0350, 931.9766
846.1700, 1395.602
847.3060, 1612.254
848.4410, 1791.926
849.5760, 1945.625
850.7100, 2258.344
851.8450, 2322.086
852.9800, 2638.852
854.1140, 2632.645
855.2480, 2667.453
856.3820, 2811.285
857.5160, 2539.137
858.6500, 2678.016
859.7830, 2365.922
860.9170, 1976.844
862.0500, 1891.797
863.1830, 1698.781
864.3160, 1421.789
865.4480, 1219.820
866.5810, 1121.871
867.7130, 721.9570
868.8460, 818.0625
869.9780, 564.1875
871.1100, 919.3359
872.2410, 536.5117
873.3730, 690.7109
874.5050, 592.9336
875.6360, 609.1758
876.7670, 567.4453
877.8980, 452.9883
879.0290, 209.0586
880.1590, 277.3945
881.2900, 223.7656
882.4200, 255.1641
883.5500, 217.5820
884.6800, 358.0391
885.8100, 51.51953
886.9400, 296.0234
888.0690, 130.5586
889.1990, 277.1094
890.3280, 186.6875
891.4570, 188.2852
892.5860, 110.9141
893.7140, 132.4453
894.8430, 241.2422
895.9710, 143.9414
897.1000, 236.7070
898.2280, 162.6875
899.3560, 409.5000
900.4830, 168.7305
901.6110, 173.8477
902.7380, 171.7344
903.8660, 385.6484
904.9930, 519.5859
906.1200, 150.6953
907.2460, 286.6875
908.3730, 264.5859
909.5000, 200.8047
910.6260, 259.8711
911.7520, 300.8633
912.8780, 45.72656
914.0040, 484.8711
915.1290, 14.03516
916.2550, 415.2383
917.3800, 214.4648
918.5050, 192.7148
919.6300, 436.2734
920.7550, 253.2383
921.8800, 181.0938
923.0040, 266.2852
924.1290, 206.4297
925.2530, 559.2070
926.3770, 299.6406
927.5010, 448.2812
928.6250, 529.9648
929.7480, 458.6836
930.8720, 650.4805
931.9950, 541.1719
933.1180, 910.8672
934.2410, 509.4531
935.3640, 362.3633
936.4860, 620.3711
937.6090, 806.7148
938.7310, 678.7891
939.8530, 480.8867
940.9750, 755.3906
942.0970, 758.5898
943.2180, 296.8125
944.3400, 386.0586
945.4610, 193.3438
946.5820, 511.6562
947.7030, 240.0430
948.8240, 160.4570
949.9450, 452.9023
951.0650, 508.3984
952.1860, 515.5703
953.3060, 368.4766
954.4260, 479.0547
955.5460, 282.6680
956.6650, 137.3086
957.7850, 7.011719
958.9040, 100.3047
960.0230, 170.4375
961.1420, 154.1992
962.2610, 146.9961
963.3800, 308.8320
964.4990, 33.28516
965.6170, 160.6172
966.7350, 32.43750
967.8530, 175.5312
968.9710, 365.5586
970.0890, 337.6172
971.2070, 202.7109
972.3240, 142.8281
973.4410, 402.9766
974.5580, 142.1445
975.6750, 43.65234
976.7920, 252.5664
977.9090, 289.8125
979.0250, 539.0859
980.1410, 110.3867
981.2580, 378.7109
982.3740, 420.3516
983.4890, 521.4414
984.6050, 612.8516
985.7200, 653.2852
986.8360, 583.7461
987.9510, 922.2383
989.0660, 709.7500
990.1810, 989.2891
991.2950, 1187.852
992.4100, 1209.438
993.5240, 1576.051
994.6390, 1736.688
995.7530, 2026.352
996.8660, 2306.043
997.9800, 2665.758
999.0940, 3362.496
1000.207, 3546.273
1001.320, 4117.074
1002.433, 4263.906
1003.546, 5151.754
1004.659, 5182.629
1005.772, 5618.527
1006.884, 6267.461
1007.996, 6323.410
1009.108, 6577.387
1010.220, 6944.387
1011.332, 6835.406
1012.444, 7106.449
1013.555, 7020.523
1014.666, 7035.059
1015.777, 7060.168
1016.888, 7013.305
1017.999, 7463.344
1019.110, 7320.523
1020.220, 7614.727
1021.331, 8002.949
1022.441, 8143.195
1023.551, 8020.461
1024.661, 8280.762
1025.770, 8608.086
1026.880, 8306.430
1027.989, 8208.793
1029.098, 7852.180
1030.207, 7672.773
1031.316, 7401.203
1032.425, 7189.664
1033.533, 6329.137
1034.642, 5602.672
1035.750, 5009.258
1036.858, 4714.863
1037.966, 3981.492
1039.073, 3725.164
1040.181, 3179.863
1041.288, 2755.586
1042.396, 2656.332
1043.503, 2153.117
1044.610, 2015.922
1045.716, 1605.750
1046.823, 1274.609
1047.929, 1457.484
1049.036, 1291.402
1050.142, 1219.312
1051.248, 918.2422
1052.353, 873.1836
1053.459, 722.9961
1054.564, 844.9922
1055.670, 733.3438
1056.775, 846.7500
1057.880, 714.8633
1058.985, 526.0234
1060.089, 580.6172
1061.194, 610.0859
1062.298, 699.3164
1063.402, 868.8984
1064.506, 607.5703
1065.610, 537.8359
1066.713, 669.1680
1067.817, 521.7461
1068.920, 454.3516
1070.023, 459.7852
1071.126, 471.9453
1072.229, 371.3945
1073.332, 414.1055
1074.435, 376.6016
1075.537, 193.1055
1076.639, 294.5664
1077.741, 505.1328
1078.843, 395.8047
1079.945, 493.3359
1081.046, 585.8711
1082.148, 507.4141
1083.249, 588.3125
1084.350, 340.8633
1085.451, 424.4219
1086.551, 445.9844
1087.652, 475.5508
1088.752, 485.1211
1089.853, 368.1953
1090.953, 183.7109
1092.053, 375.5781
1093.152, 425.1641
1094.252, 532.7500
1095.351, 356.1406
1096.451, 449.4648
1097.550, 559.6992
1098.649, 573.6914
1099.748, 138.9414
1100.846, 320.1562
1101.945, 673.7539
1103.043, 143.4492
1104.141, 447.0469
1105.239, 378.8945
1106.337, 384.4883
1107.434, 310.1406
1108.532, 264.2031
1109.629, 227.7969
1110.726, 535.3828
1111.823, 576.9688
1112.920, 544.5586
1114.017, 343.1406
1115.113, 529.7266
1116.210, 345.9648
1117.306, 505.5391
1118.402, 804.1094
1119.498, 944.6797
1120.593, 1038.246
1121.689, 565.8086
1122.784, 643.3672
1123.879, 492.9180
1124.974, 778.4648
1126.069, 471.0117
1127.164, 684.5508
1128.259, 530.0859
1129.353, 535.6133
1130.447, 516.1016
1131.541, 495.2188
1132.635, 373.7305
1133.729, 598.3086
1134.822, 318.8086
1135.916, 209.3008
1137.009, 493.7891
1138.102, 526.8359
1139.195, 227.3125
1140.288, 319.7773
1141.380, 216.2383
1142.473, 150.6992
1143.565, 445.1484
1144.657, 29.73438
1145.749, 13.83594
1146.841, 190.5898
1147.932, 273.0039
1149.024, 35.59375
1150.115, 557.7812
1151.206, 96.14062
1152.297, 107.4844
1153.388, 279.8281
1154.479, 410.1602
1155.569, 75.31641
1156.659, 153.6289
1157.750, 104.9297
1158.839, 199.5898
1159.929, 264.8672
1161.019, 126.3672
1162.108, 103.8125
1163.198, 369.9805
1164.287, 108.1406
1165.376, 501.2852
1166.465, 360.9414
1167.553, 415.0664
1168.642, 248.9102
1169.730, 327.5508
1170.818, 140.4961
1171.906, 235.5703
1172.994, 318.8711
1174.082, 278.9219
1175.170, 336.9531
1176.257, 455.9688
1177.344, 260.9805
1178.431, 234.9648
1179.518, 21.99219
1180.605, 199.9414
1181.691, 142.8750
1182.778, 143.7891
1183.864, 151.3047
1184.950, 221.4805
1186.036, 54.25000
1187.122, 221.0000
1188.207, 274.5898
1189.292, 311.1641
1190.378, 77.27734
1191.463, 137.7969
1192.548, 332.5625
1193.632, 154.0898
1194.717, 202.8711
1195.801, 263.1992
1196.886, 351.2539
1197.970, 64.28906
1199.054, 109.3008
1200.137, 161.2969
1201.221, 20.27344
1202.305, 271.2148
1203.388, 85.86328
1204.471, 193.9648
1205.554, 357.7734
1206.637, 278.5664
1207.719, 116.3398
1208.802, 38.08984
1209.884, 112.1836
1210.966, 120.4336
1212.048, 299.0312
1213.130, 37.39062
1214.212, 224.1172
1215.293, 247.6914
1216.374, 214.1641
1217.456, 199.6133
1218.536, 204.0391
1219.617, 9.449219
1220.698, 229.8125
1221.778, 34.84375
1222.859, 159.4414
1223.939, 254.7070
1225.019, 11.04297
1226.099, 6.148438
1227.178, 147.2969
1228.258, 12.42188
1229.337, 152.5078
1230.417, 87.42578
1231.496, 355.5469
1232.574, 45.49609
1233.653, 231.4141
1234.732, 101.3125
1235.810, 282.1875
1236.888, 131.0430
1237.966, 290.8789
1239.044, 360.6953
1240.122, 231.4883
1241.199, 234.2617
1242.277, 366.0156
1243.354, 217.7461
1244.431, 293.4609
1245.508, 67.15234
1246.585, 346.8203
1247.661, 396.4609
1248.738, 294.0820
1249.814, 323.6836
1250.890, 296.4922
1251.966, 346.8242
1253.042, 243.3594
1254.117, 216.8750
1255.193, 159.3672
1256.268, 313.8398
1257.343, 423.2930
1258.418, 175.7266
1259.493, 50.13672
1260.567, 7.519531
1261.642, 307.8594
1262.716, 142.1758
1263.790, 647.4727
1264.864, 476.7461
1265.938, 279.0039
1267.011, 28.23438
1268.085, 481.5898
1269.158, 312.7734
1270.231, 582.5977
1271.304, 280.7344
1272.377, 510.6211
1273.450, 129.7188
1274.522, 484.7969
1275.594, 459.4805
1276.666, 621.5156
1277.738, 268.5312
1278.810, 387.6484
1279.882, 258.6211
1280.953, 445.5781
1282.025, 299.7812
1283.096, 309.9297
1284.167, 0.5976560
1285.238, 221.4531
1286.308, 197.2852
1287.379, 93.10156
1288.449, 400.8945
1289.519, 24.66797
1290.589, 412.2305
1291.659, 419.0430
1292.729, 332.7422
1293.798, 358.4297
1294.868, 65.10156
1295.937, 236.7461
1297.006, 12.37891
1298.075, 32.57422
1299.143, 37.96484
1300.212, 246.4805
1301.280, 3.222656
1302.348, 276.6836
1303.416, 344.1250
1304.484, 185.5508
1305.552, 456.9648
1306.620, 328.3594
1307.687, 142.7422
1308.754, 252.0859
1309.821, 320.4297
1310.888, 177.7656
1311.955, 152.0859
1313.021, 614.5547
1314.088, 501.8516
1315.154, 615.8125
1316.220, 402.7617
1317.286, 433.0352
1318.352, 836.2969
1319.417, 496.1211
1320.483, 412.1133
1321.548, 478.3359
1322.613, 210.2109
1323.678, 305.9805
1324.743, 198.1562
1325.807, 443.3203
1326.872, 626.0938
1327.936, 515.2305
1329.000, 913.3516
1330.064, 405.7578
1331.128, 430.8555
1332.191, 518.6914
1333.255, 504.7695
1334.318, 115.8320
1335.381, 550.8828
1336.444, 221.9258
1337.507, 202.8086
1338.569, 299.8320
1339.632, 109.8438
1340.694, 426.8477
1341.756, 318.4922
1342.818, 27.47656
1343.880, 407.4570
1344.941, 179.4219
1346.003, 381.3828
1347.064, 329.3359
1348.125, 291.7773
1349.186, 223.7148
1350.247, 266.3750
1351.308, 177.2930
1352.368, 343.2109
1353.428, 340.3203
1354.489, 313.4883
1355.549, 340.3867
1356.608, 164.8789
1357.668, 206.7656
1358.727, 340.0234
1359.787, 103.8945
1360.846, 196.6523
1361.905, 115.2344
1362.964, 164.0820
1364.022, 25.91016
1365.081, 121.6719
1366.139, 181.4883
1367.197, 308.3008
1368.255, 291.7578
1369.313, 313.3984
1370.371, 275.7148
1371.428, 236.5117
1372.486, 249.2969
1373.543, 144.4180
1374.600, 173.8008
1375.657, 234.9688
1376.713, 193.7422
1377.770, 245.5156
1378.826, 278.2852
1379.882, 449.0547
1380.938, 508.8281
1381.994, 379.5977
1383.050, 104.3711
1384.106, 415.1406
1385.161, 625.9141
1386.216, 513.6836
1387.271, 216.4883
1388.326, 101.6602
1389.381, 289.4375
1390.435, 178.1367
1391.490, 204.3867
1392.544, 368.6953
1393.598, 216.4844
1394.652, 12.29688
1395.705, 21.49609
1396.759, 34.42969
1397.812, 313.0859
1398.866, 38.11328
1399.919, 218.6914
1400.972, 67.35156
1402.024, 97.83594
1403.077, 174.9766
1404.129, 626.7969
1405.181, 320.6250
1406.233, 28.47656
1407.285, 222.3359
1408.337, 19.80078
1409.389, 335.0781
1410.440, 112.9648
1411.491, 70.02344
1412.542, 299.9336
1413.593, 453.8594
1414.644, 315.4297
1415.695, 350.3828
1416.745, 256.8516
1417.795, 52.12500
1418.845, 227.9102
1419.895, 346.9609
1420.945, 270.0273
1421.995, 93.59375
1423.044, 95.70312
1424.093, 63.89844
1425.142, 41.71484
1426.191, 26.73047
1427.240, 21.76953
1428.289, 127.2148
1429.337, 93.32812
1430.385, 177.0273
1431.433, 214.0781
1432.481, 314.4297
1433.529, 508.8203
1434.577, 568.1992
1435.624, 616.2930
1436.672, 701.3008
1437.719, 567.8750
1438.766, 641.4961
1439.812, 473.4492
1440.859, 863.1016
1441.905, 776.9648
1442.952, 743.9688
1443.998, 1087.879
1445.044, 1068.434
1446.090, 704.4648
1447.135, 962.8672
1448.181, 905.6250
1449.226, 792.5586
1450.271, 1158.492
1451.316, 1173.426
1452.361, 973.3750
1453.405, 932.3906
1454.450, 689.4023
1455.494, 829.4219
1456.538, 1053.535
1457.582, 966.6797
1458.626, 994.7461
1459.670, 1144.922
1460.713, 874.1133
1461.757, 859.3398
1462.800, 915.6016
1463.843, 776.9219
1464.886, 674.2773
1465.928, 507.6992
1466.971, 630.1758
1468.013, 730.6758
1469.055, 535.1914
1470.097, 634.7148
1471.139, 375.2539
1472.181, 627.8047
1473.222, 457.3750
1474.263, 451.9648
1475.305, 411.5742
1476.346, 294.1953
1477.386, 527.8359
1478.427, 530.4961
1479.468, 554.1719
1480.508, 403.8945
1481.548, 445.6602
1482.588, 395.4375
1483.628, 546.0273
1484.668, 311.9062
1485.707, 558.6523
1486.747, 134.5156
1487.786, 455.8398
1488.825, 425.6914
1489.864, 457.5742
1490.902, 608.0664
1491.941, 213.0078
1492.979, 584.9922
1494.017, 176.0156
1495.055, 298.3047
1496.093, 89.37109
1497.131, 207.4648
1498.168, 363.1406
1499.206, 371.3516
1500.243, 378.1914
1501.280, 410.4961
1502.317, 385.3203
1503.354, 377.2500
1504.390, 379.5391
1505.426, 330.9258
1506.463, 400.3008
1507.499, 397.6602
1508.535, 326.0312
1509.570, 202.4062
1510.606, 243.8477
1511.641, 478.3398
1512.676, 377.8828
1513.711, 161.4688
1514.746, 217.1055
1515.781, 41.79688
1516.816, 211.5430
1517.850, 479.3438
1518.884, 197.1914
1519.918, 303.0859
1520.952, 199.0312
1521.986, 227.0273
1523.019, 241.0781
1524.053, 404.1836
1525.086, 33.34766
1526.119, 182.5703
1527.152, 278.8555
1528.185, 445.2227
1529.217, 61.70312
1530.250, 359.3711
1531.282, 152.1328
1532.314, 70.98438
1533.346, 602.9453
1534.377, 434.0312
1535.409, 377.2930
1536.440, 546.6758
1537.472, 610.1719
1538.503, 272.7812
1539.534, 173.5195
1540.564, 210.3984
1541.595, 389.4336
1542.625, 270.8555
1543.656, 402.9883
1544.686, 235.5312
1545.716, 111.2695
1546.745, 183.2148
1547.775, 99.38672
1548.804, 130.8047
1549.834, 242.4961
1550.863, 309.4766
1551.892, 138.7539
1552.920, 403.3516
1553.949, 624.2930
1554.977, 218.6172
1556.006, 177.3516
1557.034, 197.5430
1558.062, 220.2422
1559.089, 141.5039
1560.117, 392.3945
1561.144, 209.9883
1562.172, 292.3789
1563.199, 2.332031
1564.226, 10.00000
1565.252, 288.4648
1566.279, 507.9062
1567.305, 479.2617
1568.332, 626.2539
1569.358, 1.273438
1570.384, 0.0000000E+00
##END=



