##NAMES=Enstatite
##RRUFFID=R040094
##IDEAL CHEMISTRY=MgSiO_3_
##LOCALITY=unknown
##OWNER=RRUFF
##SOURCE=University of Arizona Mineral Museum
##DESCRIPTION=Dark green massive, associated with anthophyllite
##STATUS=The identification of this mineral has been confirmed by X-ray diffraction and chemical analysis
##URL=rruff.info/R040094
##MEASURED CHEMISTRY=(Mg_0.84_Fe_0.15_)(Si_0.99_Al_0.01_)O_3_; = Enstatite :  [box](Mg_0.83_Fe_0.14_Na_0.01_Ca_0.01_)_7_(Si_0.99_Al_0.01_)_8_O_22_(OH)_2_ = Anthophyllite
##PIN_ID=M00257
##ORIENTATION=Laser parallel to b* (0 1 0). Fiducial mark perpendicular to laser is parallel to -c [0 0 -1]
74.776, 0.000
76.178, 11.576
77.580, 74.798
78.982, 1.205
80.383, 42.583
81.784, 169.086
83.185, 206.194
84.585, 205.138
85.985, 104.221
87.385, 19.274
88.785, 54.926
90.185, 0.801
91.584, 228.517
92.983, 485.898
94.382, 591.669
95.780, 697.601
97.178, 842.491
98.576, 932.156
99.974, 1081.432
101.372, 1172.196
102.769, 1294.369
104.166, 1334.829
105.563, 1481.472
106.959, 1725.211
108.355, 1957.974
109.751, 1884.697
111.147, 1913.322
112.543, 2685.796
113.938, 3271.072
115.333, 3431.106
116.728, 4091.859
118.122, 4670.275
119.517, 4585.290
120.911, 4369.857
122.304, 3938.939
123.698, 3565.502
125.091, 3384.523
126.484, 2963.064
127.877, 2790.433
129.270, 2870.324
130.662, 2893.555
132.054, 2724.254
133.446, 2624.402
134.837, 2522.218
136.229, 2274.758
137.620, 2321.633
139.011, 2299.845
140.401, 2473.385
141.791, 2959.246
143.181, 2683.416
144.571, 2659.885
145.961, 2472.644
147.350, 2310.685
148.739, 1972.001
150.128, 1734.583
151.517, 1520.423
152.905, 1399.515
154.293, 1422.853
155.681, 1416.429
157.069, 1558.237
158.456, 1800.209
159.843, 2108.158
161.230, 2591.094
162.617, 2962.049
164.003, 3177.043
165.389, 3136.073
166.775, 2812.162
168.161, 2689.337
169.546, 2650.606
170.931, 2633.978
172.316, 2875.458
173.701, 3122.054
175.085, 2959.769
176.469, 3088.626
177.853, 3037.146
179.237, 3228.889
180.620, 3470.839
182.003, 3496.337
183.386, 3697.567
184.769, 3681.942
186.152, 3746.459
187.534, 3806.122
188.916, 3791.935
190.297, 3901.908
191.679, 3881.057
193.060, 3837.407
194.441, 3849.003
195.822, 3817.884
197.202, 4044.083
198.583, 3945.565
199.963, 4342.296
201.342, 4270.271
202.722, 4541.420
204.101, 4523.681
205.480, 4552.045
206.859, 4499.517
208.237, 4449.090
209.616, 4435.764
210.994, 4335.535
212.372, 4274.402
213.749, 4194.364
215.126, 4167.422
216.504, 4106.572
217.880, 4061.815
219.257, 4433.148
220.633, 4323.573
222.009, 4496.087
223.385, 4793.688
224.761, 4745.376
226.136, 5027.150
227.511, 4840.008
228.886, 4969.949
230.261, 4800.972
231.635, 4794.075
233.009, 4719.258
234.383, 4573.519
235.757, 4529.857
237.130, 4178.271
238.504, 3903.759
239.877, 3308.321
241.249, 2688.306
242.622, 2335.373
243.994, 1964.694
245.366, 1819.641
246.738, 1716.650
248.109, 1882.794
249.480, 1863.283
250.851, 2078.091
252.222, 2278.194
253.593, 2222.075
254.963, 2145.222
256.333, 2102.087
257.703, 1910.186
259.072, 1858.499
260.442, 1791.015
261.811, 1784.723
263.179, 1827.614
264.548, 1813.681
265.916, 1437.920
267.284, 1263.325
268.652, 938.889
270.020, 700.630
271.387, 566.523
272.754, 361.594
274.121, 262.818
275.488, 151.198
276.854, 6.736
278.221, 22.560
279.587, 174.709
280.952, 61.725
282.318, 224.601
283.683, 136.377
285.048, 104.044
286.413, 68.595
287.777, 62.030
289.141, 25.635
290.505, 126.396
291.869, 163.253
293.233, 326.194
294.596, 392.221
295.959, 431.349
297.322, 634.559
298.684, 636.848
300.047, 852.270
301.409, 821.882
302.771, 655.397
304.132, 687.554
305.494, 446.293
306.855, 528.780
308.216, 326.653
309.576, 321.784
310.937, 351.243
312.297, 373.022
313.657, 407.904
315.016, 436.409
316.376, 630.140
317.735, 662.581
319.094, 734.767
320.453, 828.303
321.811, 786.613
323.170, 963.020
324.528, 954.370
325.885, 1121.905
327.243, 1230.188
328.600, 1286.824
329.957, 1395.890
331.314, 1471.625
332.671, 1687.410
334.027, 1832.391
335.383, 2170.274
336.739, 2567.204
338.095, 2854.183
339.450, 3344.208
340.805, 3458.279
342.160, 3544.370
343.515, 3401.465
344.869, 3086.577
346.224, 2815.724
347.578, 2485.913
348.931, 2283.146
350.285, 2089.423
351.638, 1883.743
352.991, 1934.104
354.344, 1794.506
355.696, 1862.949
357.049, 1833.431
358.401, 1868.950
359.753, 1946.506
361.104, 1941.097
362.456, 2058.722
363.807, 1984.380
365.158, 2073.069
366.508, 2103.789
367.859, 2329.539
369.209, 2531.320
370.559, 2618.129
371.908, 2944.967
373.258, 2979.833
374.607, 3434.726
375.956, 3590.646
377.305, 3548.593
378.653, 3723.565
380.002, 3438.564
381.350, 3464.587
382.698, 3097.636
384.045, 2815.708
385.392, 2658.804
386.740, 2489.452
388.086, 2462.063
389.433, 2422.226
390.779, 2460.411
392.126, 2637.617
393.472, 2866.843
394.817, 2912.090
396.163, 2698.356
397.508, 2771.642
398.853, 2451.946
400.198, 2180.269
401.542, 1976.608
402.886, 1904.967
404.230, 1482.374
405.574, 1260.829
406.918, 1175.331
408.261, 1211.881
409.604, 1124.476
410.947, 1188.112
412.290, 1188.790
413.632, 1336.507
414.974, 1371.262
416.316, 1495.056
417.658, 1589.892
418.999, 1678.410
420.341, 1829.786
421.682, 1960.720
423.022, 2109.016
424.363, 2417.009
425.703, 2467.576
427.043, 2487.058
428.383, 2484.011
429.723, 2274.597
431.062, 2018.658
432.401, 1694.274
433.740, 1557.035
435.079, 1299.140
436.417, 1124.088
437.755, 1077.394
439.093, 878.058
440.431, 820.694
441.768, 738.188
443.106, 680.235
444.443, 459.665
445.779, 428.643
447.116, 328.227
448.452, 185.891
449.788, 282.753
451.124, 97.989
452.460, 150.468
453.795, 155.845
455.130, 88.542
456.465, 115.442
457.800, 55.360
459.134, 40.763
460.468, 10.344
461.802, 6.752
463.136, 25.162
464.470, 46.426
465.803, 11.964
467.136, 27.646
468.469, 33.272
469.801, 55.917
471.134, 78.338
472.466, 81.828
473.798, 118.072
475.129, 108.895
476.461, 127.776
477.792, 171.727
479.123, 59.769
480.454, 151.849
481.784, 58.008
483.115, 76.206
484.445, 142.451
485.774, 42.236
487.104, 86.080
488.433, 44.548
489.762, 17.175
491.091, 46.791
492.420, 128.415
493.748, 28.053
495.077, 171.694
496.405, 58.334
497.732, 99.969
499.060, 145.602
500.387, 121.228
501.714, 204.866
503.041, 223.513
504.367, 249.803
505.694, 293.815
507.020, 308.470
508.346, 321.124
509.671, 341.797
510.997, 665.462
512.322, 820.129
513.647, 646.792
514.972, 871.445
516.296, 854.108
517.620, 1037.761
518.944, 1219.418
520.268, 1245.083
521.592, 1343.737
522.915, 1377.391
524.238, 1426.646
525.561, 1437.682
526.884, 1505.331
528.206, 1491.976
529.528, 1509.613
530.850, 1677.237
532.172, 1590.851
533.494, 1677.472
534.815, 1861.078
536.136, 1812.671
537.457, 2130.248
538.777, 2017.812
540.098, 2037.360
541.418, 1947.892
542.738, 1705.407
544.057, 1604.907
545.377, 1322.390
546.696, 1163.855
548.015, 1024.304
549.334, 821.735
550.652, 863.148
551.970, 678.544
553.289, 621.922
554.606, 550.281
555.924, 479.622
557.241, 412.944
558.559, 363.247
559.875, 359.530
561.192, 278.794
562.509, 311.039
563.825, 327.263
565.141, 211.468
566.457, 334.651
567.772, 173.813
569.088, 156.955
570.403, 214.074
571.718, 177.171
573.032, 270.247
574.347, 238.299
575.661, 228.329
576.975, 298.334
578.288, 137.317
579.602, 214.273
580.915, 126.205
582.228, 163.109
583.541, 116.988
584.854, 94.837
586.166, 91.649
587.478, 84.424
588.790, 25.842
590.102, 58.805
591.413, 66.597
592.724, 8.891
594.035, 19.693
595.346, 40.362
596.657, 93.129
597.967, 31.023
599.277, 45.009
600.587, 44.081
601.897, 32.748
603.206, 33.536
604.515, 0.271
605.824, 10.934
607.133, 78.526
608.442, 127.949
609.750, 119.225
611.058, 228.055
612.366, 160.498
613.673, 25.908
614.981, 150.248
616.288, 200.554
617.595, 175.831
618.902, 308.021
620.208, 244.068
621.514, 328.255
622.820, 298.842
624.126, 320.889
625.432, 567.316
626.737, 452.307
628.042, 672.075
629.347, 666.300
630.652, 700.873
631.956, 737.870
633.260, 788.398
634.564, 931.729
635.868, 1003.383
637.172, 984.316
638.475, 1137.867
639.778, 1174.008
641.081, 1457.800
642.384, 1545.555
643.686, 1673.631
644.988, 1929.621
646.290, 2068.763
647.592, 2400.057
648.894, 2514.409
650.195, 2781.456
651.496, 3201.286
652.797, 3480.696
654.097, 3925.599
655.398, 4451.731
656.698, 5045.249
657.998, 6001.003
659.298, 6722.011
660.597, 7779.536
661.896, 8473.888
663.196, 9461.291
664.494, 10410.145
665.793, 11363.907
667.091, 13301.146
668.389, 15451.174
669.687, 17959.111
670.985, 20696.506
672.283, 22828.033
673.580, 23925.443
674.877, 24015.760
676.174, 23197.098
677.470, 21494.277
678.767, 19213.656
680.063, 17490.762
681.359, 15542.331
682.655, 14011.794
683.950, 12640.406
685.245, 11128.549
686.540, 9775.358
687.835, 8292.825
689.130, 7314.327
690.424, 6381.049
691.718, 5618.016
693.012, 5086.679
694.306, 4528.477
695.599, 4078.081
696.893, 3704.656
698.186, 3179.201
699.478, 2829.717
700.771, 2442.203
702.063, 2073.660
703.356, 2065.088
704.647, 1705.487
705.939, 1673.857
707.231, 1424.198
708.522, 1370.510
709.813, 1365.793
711.104, 1203.048
712.394, 1306.273
713.685, 1133.470
714.975, 1162.639
716.265, 1171.780
717.554, 931.892
718.844, 1045.976
720.133, 942.031
721.422, 823.060
722.711, 857.060
724.000, 692.032
725.288, 650.977
726.576, 643.895
727.864, 532.785
729.152, 541.648
730.439, 535.484
731.727, 539.293
733.014, 499.076
734.300, 408.710
735.587, 459.439
736.873, 546.811
738.160, 445.489
739.446, 531.596
740.731, 409.137
742.017, 511.512
743.302, 391.602
744.587, 454.218
745.872, 517.275
747.157, 397.188
748.441, 509.753
749.725, 463.474
751.009, 483.833
752.293, 465.818
753.576, 431.644
754.860, 531.537
756.143, 495.435
757.426, 495.840
758.708, 479.232
759.991, 391.766
761.273, 449.898
762.555, 336.931
763.837, 299.301
765.118, 321.419
766.399, 311.632
767.681, 351.516
768.961, 345.649
770.242, 220.829
771.523, 324.978
772.803, 274.938
774.083, 186.058
775.363, 214.165
776.642, 218.257
777.921, 191.347
779.201, 69.424
780.480, 163.496
781.758, 183.563
783.037, 85.633
784.315, 139.709
785.593, 118.793
786.871, 214.896
788.148, 157.014
789.426, 83.152
790.703, 177.323
791.980, 0.501
793.257, 30.693
794.533, 113.890
795.809, 32.904
797.085, 20.303
798.361, 88.495
799.637, 9.700
800.912, 68.889
802.188, 32.932
803.463, 60.790
804.737, 28.700
806.012, 4.642
807.286, 10.396
808.560, 1.583
809.834, 57.420
811.108, 61.589
812.381, 50.647
813.654, 34.252
814.927, 105.861
816.200, 48.955
817.473, 20.241
818.745, 99.462
820.017, 172.251
821.289, 42.047
822.561, 9.379
823.833, 11.270
825.104, 69.093
826.375, 2.497
827.646, 51.926
828.916, 69.387
830.187, 17.104
831.457, 40.414
832.727, 19.037
833.997, 77.521
835.266, 45.128
836.536, 32.767
837.805, 26.431
839.074, 51.885
840.342, 15.806
841.611, 83.512
842.879, 71.733
844.147, 4.027
845.415, 94.202
846.682, 2.425
847.950, 40.641
849.217, 153.852
850.484, 162.057
851.751, 154.257
853.017, 226.454
854.283, 199.645
855.550, 275.832
856.815, 246.029
858.081, 329.221
859.347, 315.415
860.612, 311.604
861.877, 337.790
863.142, 306.428
864.406, 333.155
865.670, 285.333
866.935, 246.522
868.199, 276.710
869.462, 256.914
870.726, 242.115
871.989, 287.314
873.252, 205.521
874.515, 303.727
875.778, 343.932
877.040, 229.141
878.302, 548.349
879.564, 249.585
880.826, 393.823
882.088, 445.060
883.349, 462.317
884.610, 549.577
885.871, 411.840
887.132, 725.128
888.392, 677.417
889.652, 599.720
890.913, 797.048
892.172, 846.380
893.432, 882.747
894.691, 933.121
895.951, 942.423
897.210, 1005.936
898.468, 928.381
899.727, 1000.886
900.985, 940.431
902.243, 895.007
903.501, 1006.647
904.759, 981.339
906.017, 976.067
907.274, 1117.873
908.531, 1062.717
909.788, 1282.583
911.044, 1235.472
912.301, 1228.391
913.557, 1408.337
914.813, 1547.300
916.069, 1670.270
917.324, 1807.250
918.580, 2012.233
919.835, 2243.223
921.090, 2436.236
922.345, 2471.255
923.599, 2891.288
924.853, 2740.325
926.108, 2944.367
927.361, 2801.420
928.615, 2747.476
929.869, 2731.538
931.122, 2679.516
932.375, 2645.587
933.628, 2483.661
934.880, 2221.730
936.133, 2208.813
937.385, 2027.900
938.637, 1877.993
939.888, 1916.090
941.140, 1725.188
942.391, 1803.293
943.642, 1600.465
944.893, 1431.301
946.144, 1613.419
947.394, 1394.657
948.645, 1429.419
949.895, 1380.548
951.145, 1309.201
952.394, 1359.299
953.644, 1237.698
954.893, 1242.381
956.142, 1307.112
957.391, 1169.400
958.639, 1225.173
959.888, 1238.697
961.136, 1151.812
962.384, 1316.669
963.631, 1159.252
964.879, 1252.296
966.126, 1210.491
967.373, 1293.616
968.620, 1398.267
969.867, 1339.987
971.113, 1319.208
972.359, 1492.618
973.606, 1361.101
974.851, 1568.095
976.097, 1644.941
977.342, 1540.882
978.588, 1591.896
979.833, 1687.862
981.077, 1570.970
982.322, 1741.853
983.566, 1657.995
984.810, 1833.650
986.054, 1866.496
987.298, 1950.062
988.541, 2109.080
989.785, 2120.405
991.028, 2382.059
992.271, 2585.655
993.513, 2577.008
994.756, 3196.104
995.998, 3346.482
997.240, 3839.729
998.482, 4365.272
999.724, 4860.700
1000.965, 5696.135
1002.206, 6531.815
1003.447, 7487.267
1004.688, 9132.729
1005.929, 9901.129
1007.169, 10936.603
1008.409, 10783.189
1009.649, 10088.684
1010.889, 9334.187
1012.128, 8010.009
1013.368, 7125.528
1014.607, 6431.340
1015.846, 5770.028
1017.084, 5495.571
1018.323, 5085.447
1019.561, 4901.010
1020.799, 4806.576
1022.037, 4634.282
1023.274, 4600.004
1024.512, 4635.754
1025.749, 4584.450
1026.986, 4748.097
1028.223, 4630.640
1029.460, 4866.682
1030.696, 4912.307
1031.932, 5032.731
1033.168, 5619.247
1034.404, 5925.289
1035.639, 6276.894
1036.875, 7182.563
1038.110, 7090.767
1039.345, 7132.198
1040.580, 6928.046
1041.814, 6150.167
1043.048, 5946.136
1044.282, 4962.259
1045.516, 4811.485
1046.750, 4247.520
1047.983, 3936.884
1049.217, 4056.334
1050.450, 3702.025
1051.683, 3643.899
1052.915, 3979.838
1054.148, 3655.702
1055.380, 3740.210
1056.612, 3695.990
1057.844, 3417.234
1059.075, 3502.412
1060.307, 3160.651
1061.538, 2976.012
1062.769, 2712.150
1064.000, 2536.196
1065.230, 2381.209
1066.461, 2249.162
1067.691, 1901.143
1068.921, 1966.015
1070.151, 1575.890
1071.380, 1512.729
1072.609, 1422.675
1073.838, 1095.654
1075.067, 1172.887
1076.296, 1138.841
1077.525, 857.018
1078.753, 999.078
1079.981, 908.867
1081.209, 941.797
1082.437, 915.659
1083.664, 775.521
1084.891, 907.448
1086.118, 709.629
1087.345, 709.679
1088.572, 758.778
1089.798, 733.463
1091.024, 666.148
1092.250, 648.831
1093.476, 564.510
1094.702, 603.452
1095.927, 697.245
1097.153, 548.207
1098.378, 643.955
1099.602, 380.629
1100.827, 615.653
1102.051, 541.654
1103.275, 404.346
1104.499, 567.934
1105.723, 502.633
1106.947, 433.800
1108.170, 464.569
1109.393, 384.259
1110.616, 556.515
1111.839, 359.234
1113.061, 332.073
1114.284, 397.267
1115.506, 244.999
1116.728, 261.731
1117.949, 275.688
1119.171, 210.436
1120.392, 338.189
1121.613, 263.084
1122.834, 217.829
1124.055, 349.587
1125.275, 328.339
1126.496, 315.410
1127.716, 371.899
1128.936, 189.882
1130.155, 356.344
1131.375, 164.103
1132.594, 25.874
1133.813, 311.046
1135.032, 163.819
1136.251, 74.589
1137.469, 114.351
1138.687, 63.109
1139.905, 100.879
1141.123, 92.401
1142.341, 66.153
1143.558, 172.842
1144.775, 41.575
1145.992, 133.296
1147.209, 81.163
1148.426, 18.862
1149.642, 187.950
1150.858, 101.773
1152.074, 50.563
1153.290, 203.062
1154.506, 19.066
1155.721, 148.525
1156.936, 176.972
1158.151, 12.540
1159.366, 126.192
1160.580, 21.140
1161.795, 49.335
1163.009, 153.149
1164.223, 66.830
1165.437, 93.589
1166.650, 157.398
1167.864, 30.209
1169.077, 64.149
1170.290, 63.393
1171.502, 12.279
1172.715, 180.023
1173.927, 103.518
1175.139, 6.696
1176.351, 120.891
1177.563, 67.928
1178.775, 4.805
1179.986, 14.759
1181.197, 84.972
1182.408, 108.053
1183.619, 29.644
1184.829, 80.522
1186.039, 72.371
1187.250, 90.533
1188.459, 47.271
1189.669, 16.058
1190.879, 42.975
1192.088, 36.744
1193.297, 44.309
1194.506, 45.218
1195.715, 136.996
1196.923, 83.040
1198.131, 66.474
1199.339, 85.047
1200.547, 123.904
1201.755, 107.481
1202.962, 13.151
1204.170, 21.497
1205.377, 14.821
1206.584, 8.086
1207.790, 27.964
1208.997, 46.726
1210.203, 55.898
1211.409, 71.117
1212.615, 64.320
1213.821, 90.503
1215.026, 90.088
1216.231, 13.771
1217.437, 73.339
1218.641, 65.430
1219.846, 3.398
1221.051, 71.640
1222.255, 28.659
1223.459, 46.018
1224.663, 110.995
1225.866, 77.174
1227.070, 93.591
1228.273, 93.518
1229.476, 89.891
1230.679, 38.780
1231.882, 59.688
1233.084, 55.911
1234.286, 182.729
1235.488, 15.842
1236.690, 192.660
1237.892, 173.417
1239.093, 93.157
1240.295, 130.880
1241.496, 90.584
1242.697, 141.810
1243.897, 263.465
1245.098, 75.103
1246.298, 82.721
1247.498, 259.318
1248.698, 13.788
1249.897, 228.039
1251.097, 55.570
1252.296, 145.689
1253.495, 303.183
1254.694, 47.658
1255.893, 163.345
1257.091, 133.776
1258.289, 60.188
1259.487, 219.761
1260.685, 221.119
1261.883, 119.425
1263.080, 172.904
1264.278, 179.169
1265.475, 134.499
1266.672, 179.328
1267.868, 200.920
1269.065, 182.394
1270.261, 170.544
1271.457, 110.675
1272.653, 217.780
1273.849, 40.863
1275.044, 311.102
1276.239, 231.127
1277.434, 77.022
1278.629, 193.004
1279.824, 218.961
1281.018, 28.896
1282.213, 234.401
1283.407, 187.287
1284.601, 11.151
1285.794, 263.987
1286.988, 56.200
1288.181, 238.566
1289.374, 268.188
1290.567, 137.910
1291.760, 265.611
1292.952, 80.056
1294.145, 140.717
1295.337, 269.350
1296.529, 210.035
1297.720, 112.628
1298.912, 301.117
1300.103, 34.671
1301.294, 242.200
1302.485, 150.399
1303.676, 76.884
1304.866, 392.011
1306.057, 200.212
1307.247, 57.543
1308.437, 209.527
1309.627, 71.813
1310.816, 296.076
1312.005, 280.186
1313.195, 4.267
1314.383, 296.299
1315.572, 226.327
1316.761, 125.469
1317.949, 193.658
1319.137, 168.320
1320.325, 168.385
1321.513, 167.290
1322.701, 52.777
1323.888, 110.377
1325.075, 147.398
1326.262, 77.339
1327.449, 109.286
1328.635, 172.883
1329.822, 90.602
1331.008, 157.739
1332.194, 188.583
1333.380, 88.972
1334.565, 225.245
1335.751, 74.694
1336.936, 118.087
1338.121, 527.798
1339.306, 37.539
1340.490, 316.083
1341.675, 103.546
1342.859, 10.068
1344.043, 307.933
1345.227, 41.511
1346.411, 197.611
1347.594, 125.762
1348.777, 97.839
1349.960, 292.781
1351.143, 217.057
1352.326, 5.711
1353.508, 309.540
1354.690, 133.854
1355.873, 116.117
1357.054, 354.479
1358.236, 21.240
1359.418, 234.620
1360.599, 218.884
1361.780, 87.110
1362.961, 226.079
1364.142, 180.325
1365.322, 25.340
1366.502, 131.415
1367.682, 60.795
1368.862, 13.967
1370.042, 147.199
1371.222, 93.282
1372.401, 162.870
1373.580, 101.473
1374.759, 59.962
1375.938, 245.363
1377.116, 34.953
1378.295, 99.056
1379.473, 296.860
1380.651, 115.497
1381.829, 163.424
1383.006, 317.682
1384.184, 3.565
1385.361, 317.926
1386.538, 188.667
1387.715, 151.847
1388.891, 184.946
1390.068, 31.635
1391.244, 40.067
1392.420, 386.523
1393.596, 0.105
1394.771, 105.649
1395.947, 328.868
1397.122, 48.527
1398.297, 219.485
1399.472, 192.875
1400.647, 10.976
1401.821, 213.188
1402.995, 98.143
1404.170, 49.275
1405.343, 313.175
1406.517, 73.540
1407.691, 181.571
1408.864, 333.256
1410.037, 21.106
1411.210, 341.374
1412.383, 222.289
1413.555, 135.472
1414.728, 155.827
1415.900, 42.098
1417.072, 164.939
1418.244, 257.555
1419.415, 160.425
1420.587, 292.656
1421.758, 305.280
1422.929, 6.475
1424.100, 252.192
1425.270, 259.246
1426.441, 172.999
1427.611, 399.617
1428.781, 144.156
1429.951, 266.233
1431.120, 416.552
1432.290, 247.339
1433.459, 283.511
1434.628, 368.794
1435.797, 129.466
1436.966, 373.703
1438.134, 452.196
1439.303, 79.434
1440.471, 447.491
1441.639, 289.069
1442.806, 253.890
1443.974, 431.181
1445.141, 304.787
1446.308, 150.021
1447.475, 464.218
1448.642, 181.931
1449.809, 443.695
1450.975, 559.285
1452.141, 203.016
1453.307, 395.720
1454.473, 369.069
1455.639, 217.297
1456.804, 397.838
1457.969, 218.802
1459.134, 262.426
1460.299, 547.957
1461.464, 255.054
1462.628, 367.393
1463.793, 477.160
1464.957, 163.700
1466.121, 463.239
1467.284, 298.288
1468.448, 210.854
1469.611, 536.414
1470.774, 218.164
1471.937, 235.654
1473.100, 301.128
1474.262, 180.579
1475.425, 220.003
1476.587, 483.397
1477.749, 129.769
1478.911, 306.025
1480.072, 321.310
1481.234, 114.769
1482.395, 319.715
1483.556, 212.675
1484.717, 113.682
1485.878, 397.725
1487.038, 165.875
1488.198, 291.151
1489.358, 346.556
1490.518, 35.058
1491.678, 254.650
1492.837, 404.351
1493.997, 12.802
1495.156, 340.227
1496.315, 296.412
1497.474, 5.789
1498.632, 498.408
1499.790, 185.284
1500.949, 161.403
1502.107, 584.810
1503.264, 99.532
1504.422, 349.204
1505.579, 362.840
1506.737, 14.853
1507.894, 283.036
1509.051, 331.458
1510.207, 46.289
1511.364, 357.629
1512.520, 129.161
1513.676, 153.101
1514.832, 385.115
1515.988, 0.000
##END=



