##NAMES=Enstatite
##RRUFFID=R070550
##IDEAL CHEMISTRY=MgSiO_3_
##LOCALITY=Tanzania
##OWNER=RRUFF
##SOURCE=www.multicolour.com
##DESCRIPTION=Brown, translucent, vitreous crystal fragment
##STATUS=The identification of this mineral has been confirmed by X-ray diffraction and chemical analysis
##URL=rruff.info/R070550
##MEASURED CHEMISTRY=(Mg_0.90_Fe_0.10_)_Î£=1_Si_1.00_O_3_
##PIN_ID=L01679
##ORIENTATION=Laser parallel to c* (0 0 1). Fiducial mark perpendicular to laser is parallel to a [1 0 0]
112.8890, 0.0000000E+00
114.1310, 0.5303960
115.3720, 39.93701
116.6130, 2.630859
117.8540, 42.19348
119.0950, 24.58765
120.3360, 28.96991
121.5760, 42.98590
122.8160, 68.39685
124.0560, 79.93408
125.2960, 96.40973
126.5350, 137.6863
127.7750, 189.6584
129.0140, 233.3232
130.2530, 255.9216
131.4920, 316.9395
132.7300, 318.3335
133.9690, 295.0782
135.2070, 393.1482
136.4450, 293.5216
137.6830, 291.1788
138.9210, 279.1019
140.1580, 311.2751
141.3950, 279.6833
142.6330, 319.3131
143.8690, 302.3207
145.1060, 325.8120
146.3430, 351.4596
147.5790, 336.1229
148.8150, 341.0791
150.0510, 315.9650
151.2870, 312.7097
152.5220, 292.6102
153.7580, 263.6552
154.9930, 192.8350
156.2280, 162.1421
157.4620, 93.57117
158.6970, 152.1191
159.9310, 86.78333
161.1660, 99.55859
162.4000, 13.44055
163.6330, 55.42444
164.8670, 103.5067
166.1000, 29.68323
167.3340, 52.95020
168.5670, 22.30432
169.8000, 7.742798
171.0320, 12.26294
172.2650, 3.864258
173.4970, 7.549316
174.7290, 4.395752
175.9610, 2.822754
177.1930, 21.87805
178.4240, 34.84583
179.6550, 28.72876
180.8870, 6.530273
182.1170, 3.253296
183.3480, 17.09875
184.5790, 11.52344
185.8090, 69.01782
187.0390, 38.56177
188.2690, 107.1003
189.4990, 126.6417
190.7290, 125.1942
191.9580, 187.7629
193.1870, 200.3518
194.4160, 233.9639
195.6450, 242.6012
196.8740, 324.2661
198.1020, 382.9602
199.3310, 420.6843
200.5590, 511.4674
201.7870, 610.3008
203.0140, 579.1904
204.2420, 673.1438
205.4690, 651.1509
206.6960, 679.1877
207.9230, 643.2546
209.1500, 597.3557
210.3760, 567.4873
211.6030, 524.6494
212.8290, 514.8420
214.0550, 509.0653
215.2810, 481.3191
216.5060, 463.6030
217.7320, 580.9172
218.9570, 497.2588
220.1820, 647.6189
221.4070, 716.0049
222.6320, 755.4207
223.8560, 951.8662
225.0800, 1169.341
226.3040, 1462.845
227.5280, 1867.378
228.7520, 2185.940
229.9760, 2515.560
231.1990, 3006.260
232.4220, 3656.064
233.6450, 4255.953
234.8680, 4766.919
236.0910, 5160.935
237.3130, 5332.029
238.5350, 4927.191
239.7570, 4339.438
240.9790, 3381.741
242.2010, 2488.114
243.4220, 1833.508
244.6430, 1303.916
245.8640, 934.3389
247.0850, 769.7770
248.3060, 664.2291
249.5270, 701.6956
250.7470, 636.1760
251.9670, 719.6707
253.1870, 759.1787
254.4070, 830.7004
255.6260, 851.2354
256.8460, 836.7832
258.0650, 898.3442
259.2840, 884.9180
260.5030, 948.5660
261.7220, 790.1440
262.9400, 770.9354
264.1580, 823.7640
265.3760, 849.7815
266.5940, 951.8923
267.8120, 985.0869
269.0290, 1186.358
270.2470, 1302.700
271.4640, 1452.106
272.6810, 1596.573
273.8980, 1647.097
275.1140, 1597.674
276.3310, 1620.302
277.5470, 1373.975
278.7630, 1134.693
279.9790, 836.4532
281.1940, 636.2544
282.4100, 435.0946
283.6250, 320.9727
284.8400, 245.8877
286.0550, 268.9226
287.2700, 282.1482
288.4850, 269.1658
289.6990, 394.3337
290.9130, 424.4158
292.1270, 573.5189
293.3410, 637.3801
294.5540, 791.3907
295.7680, 911.6399
296.9810, 966.8354
298.1940, 1146.058
299.4070, 1124.306
300.6200, 1115.580
301.8320, 1075.878
303.0450, 972.3442
304.2570, 877.6908
305.4690, 725.0603
306.6800, 690.4526
307.8920, 673.8669
309.1030, 742.3027
310.3150, 815.7599
311.5260, 970.2377
312.7360, 1171.736
313.9470, 1415.254
315.1580, 1676.791
316.3680, 1994.348
317.5780, 2444.923
318.7880, 2853.517
319.9980, 2991.128
321.2070, 3360.722
322.4170, 3502.345
323.6260, 3710.709
324.8350, 3706.798
326.0430, 3804.055
327.2520, 4107.712
328.4610, 4447.413
329.6690, 4812.155
330.8770, 5400.912
332.0850, 6045.684
333.2920, 6823.469
334.5000, 7607.268
335.7070, 8684.082
336.9140, 9556.907
338.1210, 10659.75
339.3280, 11365.61
340.5350, 12177.48
341.7410, 12166.36
342.9470, 11651.26
344.1540, 10669.12
345.3590, 9412.213
346.5650, 7881.014
347.7710, 6667.566
348.9760, 5191.829
350.1810, 4227.858
351.3860, 3459.242
352.5910, 2797.448
353.7950, 2309.421
355.0000, 1962.463
356.2040, 1618.620
357.4080, 1456.672
358.6120, 1283.297
359.8150, 1135.631
361.0190, 1009.796
362.2220, 909.9060
363.4250, 831.8353
364.6280, 765.7886
365.8310, 732.1925
367.0340, 694.5579
368.2360, 694.2672
369.4380, 702.4675
370.6400, 661.6062
371.8420, 718.7524
373.0440, 761.9066
374.2450, 895.0681
375.4470, 904.2373
376.6480, 975.4133
377.8490, 1138.596
379.0490, 1162.785
380.2500, 1212.979
381.4500, 1272.180
382.6510, 1248.385
383.8510, 1135.596
385.0500, 1031.812
386.2500, 873.0320
387.4500, 761.2563
388.6490, 661.7288
389.8480, 559.7175
391.0470, 488.9541
392.2460, 425.1946
393.4440, 369.4387
394.6430, 384.6870
395.8410, 338.9391
397.0390, 373.1948
398.2370, 344.4546
399.4340, 344.7178
400.6320, 236.9849
401.8290, 329.2555
403.0260, 254.5299
404.2230, 276.8079
405.4200, 269.0984
406.6170, 188.4021
407.8130, 237.7178
409.0090, 205.0454
410.2050, 141.3842
411.4010, 145.7335
412.5970, 167.0931
413.7920, 185.4626
414.9880, 138.8418
416.1830, 123.2302
417.3780, 159.6276
418.5730, 85.03369
419.7670, 57.44824
420.9620, 72.87097
422.1560, 13.30176
423.3500, 38.74036
424.5440, 34.18628
425.7380, 13.63977
426.9310, 29.10046
428.1240, 11.74805
429.3180, 20.95752
430.5110, 23.48718
431.7030, 28.97766
432.8960, 20.55115
434.0890, 18.08484
435.2810, 29.37756
436.4730, 31.15430
437.6650, 14.69653
438.8570, 18.24194
440.0480, 28.20752
441.2390, 30.50330
442.4310, 20.12256
443.6220, 48.58777
444.8120, 21.05811
446.0030, 1.533203
447.1940, 92.01062
448.3840, 116.4926
449.5740, 93.97900
450.7640, 65.46973
451.9540, 127.9650
453.1430, 121.4642
454.3330, 161.9677
455.5220, 193.4750
456.7110, 187.9861
457.9000, 210.1418
459.0890, 206.0195
460.2770, 216.5416
461.4650, 205.0671
462.6540, 202.2930
463.8420, 240.1279
465.0290, 239.6632
466.2170, 262.2018
467.4050, 321.7448
468.5920, 321.2932
469.7790, 379.8466
470.9660, 360.4028
472.1530, 378.9619
473.3390, 357.5236
474.5250, 310.0875
475.7120, 231.6541
476.8980, 214.2228
478.0840, 106.7937
479.2690, 62.36658
480.4550, 49.94177
481.6400, 32.51868
482.8250, 52.09985
484.0100, 30.68286
485.1950, 26.75354
486.3800, 20.14612
487.5640, 6.576294
488.7480, 18.01428
489.9320, 64.46802
491.1160, 41.95825
492.3000, 37.47644
493.4840, 26.02051
494.6670, 39.58533
495.8500, 35.17773
497.0330, 1.795410
498.2160, 20.41956
499.3990, 28.94775
500.5810, 44.68201
501.7630, 39.34265
502.9460, 19.02966
504.1280, 17.73523
505.3090, 65.45886
506.4910, 0.7756350
507.6720, 36.99646
508.8540, 18.20361
510.0350, 60.59814
511.2160, 0.4265140
512.3960, 35.73511
513.5770, 95.89697
514.7570, 57.05896
515.9380, 106.2340
517.1180, 103.4147
518.2970, 112.5977
519.4770, 171.7887
520.6570, 141.9800
521.8360, 254.1759
523.0150, 223.3868
524.1940, 248.6104
525.3730, 320.8440
526.5510, 362.0774
527.7300, 400.3190
528.9080, 435.5652
530.0860, 503.8116
531.2640, 581.0574
532.4420, 653.3064
533.6200, 767.5547
534.7970, 917.8092
535.9740, 1092.078
537.1510, 1223.359
538.3280, 1352.644
539.5050, 1335.935
540.6810, 1361.229
541.8580, 1249.529
543.0340, 1039.828
544.2100, 912.1371
545.3860, 840.4624
546.5610, 657.8020
547.7370, 620.1548
548.9120, 644.5131
550.0870, 588.8743
551.2620, 540.2345
552.4370, 539.6008
553.6120, 467.9736
554.7860, 467.3453
555.9600, 369.7158
557.1340, 408.0848
558.3080, 387.4525
559.4820, 343.8204
560.6560, 320.1871
561.8290, 302.5520
563.0020, 286.3243
564.1750, 299.2770
565.3480, 279.6368
566.5210, 303.9949
567.6930, 316.3545
568.8660, 257.7123
570.0380, 288.0680
571.2100, 312.3372
572.3820, 330.4482
573.5530, 360.7982
574.7250, 355.0282
575.8960, 371.3721
577.0670, 398.7163
578.2380, 416.3093
579.4090, 383.7784
580.5800, 345.0356
581.7500, 364.3723
582.9210, 344.7072
584.0910, 353.0399
585.2610, 332.3708
586.4300, 286.6998
587.6000, 270.8833
588.7690, 252.2081
589.9390, 285.5309
591.1080, 264.8516
592.2770, 267.1699
593.4450, 290.4863
594.6140, 241.8003
595.7820, 311.1121
596.9500, 212.4216
598.1190, 232.7290
599.2860, 251.0341
600.4540, 283.3369
601.6220, 290.6372
602.7890, 263.9353
603.9560, 296.2305
605.1230, 296.5233
606.2900, 265.8135
607.4570, 292.1013
608.6230, 319.3862
609.7890, 317.6688
610.9560, 326.9485
612.1220, 312.2256
613.2870, 364.4999
614.4530, 368.7716
615.6180, 394.0404
616.7840, 358.3064
617.9490, 437.5698
619.1140, 420.8302
620.2790, 488.0876
621.4430, 535.3423
622.6080, 513.0309
623.7720, 506.2793
624.9360, 553.5250
626.1000, 620.7676
627.2640, 673.0583
628.4270, 655.5330
629.5910, 643.9044
630.7540, 746.0031
631.9170, 838.9309
633.0800, 784.1023
634.2430, 927.9265
635.4050, 1036.939
636.5680, 1013.194
637.7300, 1041.912
638.8920, 1194.263
640.0540, 1292.904
641.2150, 1436.541
642.3770, 1624.793
643.5380, 1740.906
644.7000, 1982.083
645.8610, 2239.448
647.0210, 2646.184
648.1820, 2995.200
649.3430, 3499.223
650.5030, 4046.912
651.6630, 4775.061
652.8230, 5820.263
653.9830, 7042.464
655.1430, 8273.540
656.3020, 9903.896
657.4620, 11595.41
658.6210, 13410.43
659.7800, 15269.63
660.9390, 16462.79
662.0970, 17504.33
663.2560, 17830.39
664.4140, 17307.84
665.5720, 16491.03
666.7300, 14774.03
667.8880, 13386.25
669.0460, 12203.44
670.2030, 11538.62
671.3600, 10947.38
672.5180, 11402.57
673.6740, 11743.05
674.8310, 12834.57
675.9880, 14244.61
677.1440, 16235.57
678.3010, 18320.22
679.4570, 20605.10
680.6130, 22715.48
681.7690, 25035.64
682.9240, 26414.29
684.0800, 27052.15
685.2350, 26758.71
686.3900, 25447.01
687.5450, 22708.42
688.7000, 19877.35
689.8540, 16344.50
691.0090, 13543.10
692.1630, 10749.93
693.3170, 8869.060
694.4710, 7173.185
695.6250, 5827.307
696.7780, 4899.427
697.9320, 4067.801
699.0850, 3481.914
700.2380, 2955.023
701.3910, 2606.128
702.5440, 2176.230
703.6970, 2012.329
704.8490, 1803.425
706.0010, 1622.126
707.1530, 1397.214
708.3050, 1342.300
709.4570, 1154.384
710.6090, 1026.468
711.7600, 1050.554
712.9110, 884.6370
714.0620, 774.7219
715.2130, 733.8087
716.3640, 655.8923
717.5150, 632.9807
718.6650, 588.0704
719.8150, 567.1624
720.9650, 542.2510
722.1150, 469.3367
723.2650, 430.4192
724.4150, 403.4987
725.5640, 396.5752
726.7130, 389.6498
727.8630, 345.7218
729.0110, 313.7905
730.1600, 276.8567
731.3090, 260.6438
732.4570, 246.9801
733.6060, 249.0376
734.7540, 225.0924
735.9020, 245.1854
737.0490, 216.2347
738.1970, 206.2815
739.3440, 191.3256
740.4920, 203.3672
741.6390, 130.4061
742.7860, 171.4426
743.9320, 151.4766
745.0790, 143.5082
746.2250, 203.5375
747.3720, 167.9873
748.5180, 140.5889
749.6640, 138.6112
750.8100, 108.6403
751.9550, 71.65808
753.1010, 52.67395
754.2460, 87.68774
755.3910, 70.69946
756.5360, 44.70911
757.6810, 100.7168
758.8250, 113.7228
759.9700, 8.726807
761.1140, 137.7242
762.2580, 32.71997
763.4020, 44.71399
764.5460, 82.70642
765.6900, 7.706177
766.8330, 56.70557
767.9760, 5.712158
769.1200, 57.73218
770.2620, 33.76550
771.4050, 40.81104
772.5480, 38.86621
773.6900, 30.93420
774.8330, 3.014282
775.9750, 26.90735
777.1170, 4.159180
778.2590, 23.21985
779.4000, 6.295288
780.5420, 25.38049
781.6830, 34.47424
782.8240, 24.57642
783.9650, 1.699097
785.1060, 25.82007
786.2470, 12.03955
787.3870, 42.91138
788.5280, 15.21472
789.6680, 22.34521
790.8080, 29.47510
791.9480, 40.39563
793.0870, 11.29224
794.2270, 2.799438
795.3660, 23.11328
796.5060, 24.95715
797.6450, 8.972656
798.7830, 49.91187
799.9220, 41.88098
801.0610, 31.87537
802.1990, 12.10999
803.3370, 24.90454
804.4750, 11.93555
805.6130, 39.02368
806.7510, 15.98328
807.8890, 5.056641
809.0260, 12.89783
810.1630, 18.14709
811.3000, 53.20374
812.4370, 45.28894
813.5740, 10.39893
814.7110, 22.51575
815.8470, 9.645630
816.9830, 18.65247
818.1190, 8.072021
819.2550, 41.07288
820.3910, 62.23877
821.5270, 57.63599
822.6620, 53.66162
823.7970, 21.91357
824.9330, 14.17590
826.0670, 13.55566
827.2020, 26.71082
828.3370, 30.98901
829.4710, 9.719116
830.6060, 14.42944
831.7400, 53.14221
832.8740, 10.85754
834.0080, 7.424683
835.1410, 49.29248
836.2750, 35.01233
837.4080, 34.73499
838.5410, 20.46069
839.6740, 30.18958
840.8070, 37.92163
841.9400, 17.34314
843.0730, 78.38928
844.2050, 48.12500
845.3370, 1.864502
846.4690, 50.60754
847.6010, 74.35437
848.7330, 59.10522
849.8640, 35.85999
850.9960, 78.61902
852.1270, 12.38220
853.2580, 51.14954
854.3890, 66.92139
855.5200, 111.6973
856.6500, 94.47778
857.7810, 77.26282
858.9110, 132.0524
860.0410, 124.8464
861.1710, 57.64551
862.3010, 107.4492
863.4310, 86.25781
864.5600, 70.07153
865.6900, 60.89050
866.8190, 5.714600
867.9480, 79.54407
869.0770, 87.37891
870.2050, 52.21936
871.3340, 2.934570
872.4620, 67.91650
873.5900, 63.77319
874.7180, 53.63586
875.8460, 46.50452
876.9740, 42.44617
878.1010, 54.25989
879.2290, 34.14661
880.3560, 53.03967
881.4830, 50.93909
882.6100, 35.84497
883.7370, 41.75732
884.8630, 39.67615
885.9900, 0.6018070
887.1160, 81.53369
888.2420, 22.47253
889.3680, 62.41821
890.4940, 118.3706
891.6200, 80.33032
892.7450, 113.2969
893.8700, 113.2706
894.9960, 52.25159
896.1210, 136.8032
897.2460, 63.79883
898.3700, 85.80188
899.4950, 102.8126
900.6190, 62.83081
901.7430, 119.4459
902.8670, 72.47961
903.9910, 101.0514
905.1150, 147.1005
906.2390, 120.1572
907.3620, 165.2219
908.4850, 139.2943
909.6080, 171.3744
910.7310, 248.9376
911.8540, 204.7714
912.9770, 290.4359
914.0990, 255.5479
915.2210, 316.3523
916.3440, 306.4803
917.4660, 326.6167
918.5870, 404.7616
919.7090, 503.4187
920.8310, 532.5798
921.9520, 608.6794
923.0730, 651.7853
924.1940, 814.9565
925.3150, 942.1512
926.4360, 971.3547
927.5560, 1225.694
928.6770, 1313.760
929.7970, 1606.690
930.9170, 1808.143
932.0370, 2071.425
933.1570, 2282.768
934.2760, 2571.734
935.3960, 2864.199
936.5150, 2946.276
937.6340, 2954.621
938.7530, 2916.168
939.8720, 2758.508
940.9910, 2556.900
942.1090, 2449.307
943.2280, 2022.161
944.3460, 1944.603
945.4640, 1676.751
946.5820, 1510.888
947.6990, 1347.529
948.8170, 1249.246
949.9340, 1120.287
951.0520, 1027.115
952.1690, 886.4517
953.2860, 887.0154
954.4030, 796.1138
955.5190, 729.0056
956.6360, 784.2079
957.7520, 669.6803
958.8680, 752.0505
959.9840, 689.9187
961.1000, 692.5952
962.2160, 623.8218
963.3310, 700.8379
964.4470, 691.5602
965.5620, 759.2990
966.6770, 729.0557
967.7920, 759.8341
968.9060, 753.3706
970.0210, 831.1876
971.1360, 780.0199
972.2500, 864.8799
973.3640, 971.7544
974.4780, 995.6482
975.5920, 965.5642
976.7050, 1107.891
977.8190, 1149.846
978.9320, 1231.823
980.0450, 1336.820
981.1580, 1414.837
982.2710, 1561.530
983.3840, 1744.931
984.4970, 1875.002
985.6090, 2061.087
986.7210, 2251.187
987.8330, 2574.301
988.9450, 2806.427
990.0570, 3164.568
991.1690, 3575.722
992.2800, 4195.714
993.3920, 5001.072
994.5030, 5782.269
995.6140, 6789.479
996.7250, 7943.711
997.8350, 9498.959
998.9460, 11438.24
1000.056, 13912.53
1001.167, 17007.84
1002.277, 21031.16
1003.387, 25783.50
1004.496, 31590.85
1005.606, 37937.18
1006.715, 44711.56
1007.825, 50117.96
1008.934, 54401.37
1010.043, 55691.78
1011.152, 54482.23
1012.260, 50309.68
1013.369, 43998.13
1014.477, 37149.61
1015.586, 30541.11
1016.694, 25098.61
1017.802, 21105.13
1018.909, 17997.66
1020.017, 15809.19
1021.124, 14148.75
1022.232, 13021.32
1023.339, 12199.91
1024.446, 11414.50
1025.553, 11115.11
1026.659, 10547.73
1027.766, 10345.36
1028.872, 9849.010
1029.979, 9347.668
1031.085, 8881.339
1032.191, 8270.854
1033.296, 7629.720
1034.402, 7033.429
1035.507, 6336.151
1036.613, 5685.883
1037.718, 5249.632
1038.823, 4581.391
1039.928, 4103.164
1041.032, 3703.946
1042.137, 3394.739
1043.241, 2964.545
1044.346, 2695.365
1045.450, 2444.207
1046.554, 2100.062
1047.657, 1861.930
1048.761, 1726.810
1049.864, 1469.705
1050.968, 1397.637
1052.071, 1231.562
1053.174, 1128.489
1054.277, 1045.427
1055.379, 1038.377
1056.482, 931.3717
1057.584, 805.3564
1058.687, 811.3777
1059.789, 735.5266
1060.891, 706.5571
1061.992, 590.4612
1063.094, 588.2612
1064.196, 516.3365
1065.297, 517.6305
1066.398, 407.7296
1067.499, 428.8823
1068.600, 406.0281
1069.701, 404.2733
1070.801, 381.5457
1071.902, 365.2240
1073.002, 304.2672
1074.102, 340.5842
1075.202, 282.1206
1076.302, 297.4302
1077.402, 256.0225
1078.501, 195.3513
1079.600, 267.7902
1080.700, 191.2743
1081.799, 171.7622
1082.898, 193.1798
1083.996, 163.2803
1085.095, 147.7920
1086.193, 164.6692
1087.292, 166.2408
1088.390, 168.1576
1089.488, 97.73413
1090.586, 105.2468
1091.683, 78.07593
1092.781, 79.78479
1093.878, 124.3164
1094.975, 116.0208
1096.073, 144.7142
1097.169, 190.9150
1098.266, 121.4780
1099.363, 147.9689
1100.459, 106.9924
1101.556, 102.7750
1102.652, 81.72485
1103.748, 68.67944
1104.844, 123.4940
1105.940, 141.3613
1107.035, 174.0376
1108.131, 134.2063
1109.226, 104.9342
1110.321, 92.59985
1111.416, 135.1375
1112.511, 147.7322
1113.605, 116.3892
1114.700, 112.9255
1115.794, 121.6844
1116.889, 125.3895
1117.983, 133.1683
1119.077, 139.9070
1120.170, 156.5972
1121.264, 170.2908
1122.357, 187.9661
1123.451, 152.7086
1124.544, 140.4473
1125.637, 120.1152
1126.730, 151.1133
1127.823, 93.89563
1128.915, 133.7850
1130.008, 127.4072
1131.100, 139.2953
1132.192, 114.1512
1133.284, 78.00024
1134.376, 123.1635
1135.467, 130.8843
1136.559, 125.7874
1137.650, 165.5072
1138.742, 124.2283
1139.833, 132.9128
1140.924, 90.62378
1142.014, 113.3231
1143.105, 121.6326
1144.195, 95.18909
1145.286, 109.2498
1146.376, 54.89319
1147.466, 43.54956
1148.556, 55.09644
1149.646, 54.93567
1150.735, 33.52576
1151.825, 67.30139
1152.914, 33.95435
1154.003, 33.48706
1155.092, 77.14355
1156.181, 37.69958
1157.270, 49.53552
1158.358, 66.14478
1159.447, 36.65955
1160.535, 75.17542
1161.623, 27.68188
1162.711, 16.18408
1163.799, 80.68188
1164.886, 20.17529
1165.974, 56.66394
1167.061, 21.14783
1168.148, 28.62671
1169.235, 72.10071
1170.322, 64.56958
1171.409, 38.03333
1172.496, 81.49182
1173.582, 36.94470
1174.669, 29.42102
1175.755, 48.92859
1176.841, 31.48438
1177.927, 10.91382
1179.012, 52.33728
1180.098, 2.754517
1181.183, 0.2749020
1182.269, 3.738281
1183.354, 15.13599
1184.439, 41.52698
1185.524, 54.91101
1186.608, 7.288208
1187.693, 78.65796
1188.777, 9.020264
1189.862, 2.625000
1190.946, 17.74841
1192.030, 63.91406
1193.113, 61.50513
1194.197, 27.82275
1195.281, 51.92993
1196.364, 48.28076
1197.447, 19.57788
1198.530, 37.84961
1199.613, 10.12097
1200.696, 15.70386
1201.779, 19.54395
1202.861, 12.39636
1203.944, 14.28101
1205.026, 49.00171
1206.108, 19.05566
1207.190, 0.8292240
1208.271, 43.72705
1209.353, 28.73047
1210.435, 5.380249
1211.516, 7.335693
1212.597, 22.36584
1213.678, 4.701782
1214.759, 12.21265
1215.840, 15.88501
1216.920, 10.06738
1218.001, 0.9326170
1219.081, 16.84595
1220.161, 34.68201
1221.241, 11.46912
1222.321, 23.66882
1223.401, 6.899414
1224.480, 13.84802
1225.560, 17.58179
1226.639, 1.301880
1227.718, 3.996582
1228.797, 18.31689
1229.876, 6.333008
1230.955, 22.03406
1232.033, 9.566772
1233.112, 39.84888
1234.190, 16.69373
1235.268, 5.778931
1236.346, 18.27588
1237.424, 9.804199
1238.501, 2.359741
1239.579, 16.93860
1240.656, 14.54846
1241.733, 0.8111570
1242.811, 0.1485600
1243.888, 13.53687
1244.964, 32.74719
1246.041, 41.01672
1247.117, 30.27185
1248.194, 39.51208
1249.270, 47.73792
1250.346, 47.94971
1251.422, 53.26062
1252.498, 40.33142
1253.573, 41.50293
1254.649, 57.65967
1255.724, 20.80225
1256.800, 14.06567
1257.875, 28.02710
1258.950, 42.89648
1260.024, 29.13184
1261.099, 32.14392
1262.173, 33.14001
1263.248, 2.879639
1264.322, 50.07288
1265.396, 30.01038
1266.470, 50.93188
1267.544, 50.83838
1268.617, 59.80786
1269.691, 53.68518
1270.764, 56.56604
1271.837, 15.43787
1272.910, 100.2649
1273.983, 24.07812
1275.056, 69.87305
1276.129, 66.67810
1277.201, 98.44373
1278.273, 38.27795
1279.346, 82.01343
1280.418, 45.77100
1281.489, 66.51953
1282.561, 112.2107
1283.633, 64.92529
1284.704, 88.59351
1285.776, 39.26184
1286.847, 74.89575
1287.918, 134.5151
1288.989, 96.12036
1290.059, 131.4316
1291.130, 130.2889
1292.200, 137.8522
1293.271, 136.4016
1294.341, 135.9369
1295.411, 118.4583
1296.481, 148.9656
1297.551, 113.4613
1298.620, 148.9408
1299.690, 102.4415
1300.759, 112.8932
1301.828, 115.3307
1302.897, 94.75439
1303.966, 86.16357
1305.035, 73.55823
1306.103, 126.9377
1307.172, 104.3033
1308.240, 110.6548
1309.308, 76.98877
1310.376, 89.53210
1311.444, 157.8300
1312.512, 115.1256
1313.580, 139.4059
1314.647, 139.6719
1315.714, 133.9019
1316.781, 119.1385
1317.848, 137.3514
1318.915, 98.41541
1319.982, 128.6060
1321.049, 74.92383
1322.115, 81.34363
1323.181, 120.4918
1324.248, 96.41663
1325.314, 73.53577
1326.380, 77.61157
1327.445, 75.70190
1328.511, 103.6989
1329.576, 94.66382
1330.642, 91.34204
1331.707, 101.4238
1332.772, 50.34265
1333.837, 108.0377
1334.902, 73.95789
1335.966, 73.59033
1337.031, 102.4877
1338.095, 51.28491
1339.159, 100.0444
1340.223, 64.79956
1341.287, 144.6272
1342.351, 85.77100
1343.415, 99.50464
1344.478, 65.86829
1345.541, 105.5436
1346.605, 67.88550
1347.668, 109.5775
1348.731, 77.34216
1349.793, 102.7916
1350.856, 101.4382
1351.918, 96.10120
1352.981, 87.67126
1354.043, 91.22620
1355.105, 151.3521
1356.167, 93.05530
1357.229, 92.82520
1358.290, 95.05701
1359.352, 162.5262
1360.413, 156.8218
1361.475, 131.1066
1362.536, 87.52539
1363.597, 104.8855
1364.657, 67.43066
1365.718, 138.4775
1366.779, 97.96240
1367.839, 174.5421
1368.899, 83.20459
1369.959, 94.80371
1371.019, 97.33374
1372.079, 64.97827
1373.139, 99.39343
1374.198, 95.85583
1375.258, 91.22266
1376.317, 87.65051
1377.376, 124.1732
1378.435, 108.6753
1379.494, 91.13086
1380.553, 103.0916
1381.611, 69.47571
1382.670, 74.91772
1383.728, 54.02295
1384.786, 68.33679
1385.844, 65.88281
1386.902, 84.02417
1387.960, 67.23022
1389.017, 67.44250
1390.075, 59.69897
1391.132, 56.59021
1392.189, 70.91650
1393.246, 69.12927
1394.303, 50.49829
1395.360, 27.86926
1396.417, 69.26929
1397.473, 41.57959
1398.529, 39.88464
1399.585, 88.57214
1400.642, 55.00549
1401.697, 47.92749
1402.753, 38.31396
1403.809, 67.62598
1404.864, 24.03943
1405.920, 52.15356
1406.975, 34.61926
1408.030, 32.75317
1409.085, 59.10632
1410.140, 33.51965
1411.194, 40.76794
1412.249, 37.10974
1413.303, 42.77148
1414.358, 68.04431
1415.412, 91.40369
1416.466, 57.75452
1417.520, 120.1044
1418.573, 96.44788
1419.627, 100.7880
1420.680, 59.12500
1421.733, 56.45764
1422.787, 94.78735
1423.840, 39.14453
1424.892, 51.46313
1425.945, 30.81042
1426.998, 70.11121
1428.050, 64.18579
1429.103, 98.67383
1430.155, 70.91980
1431.207, 78.13367
1432.259, 65.27649
1433.310, 53.53125
1434.362, 85.78198
1435.414, 66.03003
1436.465, 2.835327
1437.516, 71.69629
1438.567, 115.9672
1439.618, 40.84705
1440.669, 81.99951
1441.720, 42.13147
1442.770, 94.21509
1443.820, 30.20813
1444.871, 57.27258
1445.921, 38.32275
1446.971, 107.2781
1448.021, 105.3900
1449.070, 73.49719
1450.120, 129.4325
1451.169, 106.4166
1452.219, 81.41638
1453.268, 63.47388
1454.317, 80.61755
1455.366, 77.67358
1456.414, 70.73706
1457.463, 43.83508
1458.511, 43.97278
1459.560, 35.12061
1460.608, 57.26135
1461.656, 31.41455
1462.704, 58.58313
1463.752, 43.77454
1464.799, 139.9829
1465.847, 56.22058
1466.894, 104.4822
1467.941, 61.77454
1468.988, 68.08899
1470.035, 53.40967
1471.082, 78.72693
1472.129, 80.03894
1473.175, 29.34277
1474.222, 82.63965
1475.268, 84.93970
1476.314, 44.28406
1477.360, 57.65369
1478.406, 55.03394
1479.452, 17.42419
1480.498, 48.69922
1481.543, 51.05945
1482.588, 33.41467
1483.633, 70.81250
1484.679, 82.17480
1485.723, 25.44543
1486.768, 26.71985
1487.813, 26.05872
1488.857, 68.41492
1489.902, 58.80981
1490.946, 53.20508
1491.990, 61.60010
1493.034, 12.99512
1494.078, 49.39014
1495.122, 25.78101
1496.165, 65.11230
1497.209, 57.50806
1498.252, 50.90723
1499.295, 48.31128
1500.338, 64.71802
1501.381, 73.63428
1502.424, 5.039307
1503.466, 7.454346
1504.509, 54.84399
1505.551, 13.71899
1506.593, 19.73193
1507.635, 34.19629
1508.677, 26.67700
1509.719, 51.17236
1510.761, 14.68188
1511.802, 27.20679
1512.844, 16.74487
1513.885, 52.29688
1514.926, 10.86230
1515.967, 32.43970
1517.008, 25.02734
1518.049, 3.624512
1519.089, 8.617432
1520.130, 6.273193
1521.170, 6.483154
1522.210, 20.04590
1523.250, 51.69702
1524.290, 68.35962
1525.330, 93.03589
1526.370, 41.72998
1527.409, 10.43921
1528.448, 79.16333
1529.488, 113.7651
1530.527, 59.51904
1531.566, 0.2929690
1532.605, 14.08716
1533.643, 73.64551
1534.682, 20.25366
1535.720, 56.57812
1536.759, 44.37476
1537.797, 10.93677
1538.835, 48.79858
1539.873, 75.41528
1540.910, 66.26245
1541.948, 57.39575
1542.986, 57.47168
1544.023, 48.23242
1545.060, 65.05762
1546.097, 48.23071
1547.134, 49.32886
1548.171, 22.29810
1549.208, 40.67651
1550.244, 24.29663
1551.281, 25.38770
1552.317, 49.80054
1553.353, 31.15259
1554.389, 76.49805
1555.425, 28.72461
1556.461, 56.29492
1557.497, 53.45044
1558.532, 40.88501
1559.567, 40.37524
1560.603, 38.64331
1561.638, 0.2861330
1562.673, 35.28125
1563.708, 0.0000000E+00
##END=



