##NAMES=Enstatite
##RRUFFID=R050644
##IDEAL CHEMISTRY=MgSiO_3_
##LOCALITY=Morogoro, Tanzania
##OWNER=RRUFF
##SOURCE=Jibamitra Ganguly
##DESCRIPTION=Light brown crystal fragment
##STATUS=The identification of this mineral has been confirmed by X-ray diffraction and chemical analysis
##URL=rruff.info/R050644
##MEASURED CHEMISTRY=(Mg_0.90_Fe_0.10_)SiO_3_
##PIN_ID=L01041
##ORIENTATION=Laser parallel to -a* (-1 0 0). Fiducial mark perpendicular to laser is parallel to -b [0 -1 0]
113.2080, 0.0000000E+00
114.4400, 6.110352
115.6710, 3.6132999E-02
116.9030, 143.0752
118.1340, 272.8330
119.3650, 476.5928
120.5960, 798.9023
121.8270, 947.9414
123.0580, 1259.601
124.2880, 1563.455
125.5190, 2489.461
126.7490, 3117.816
127.9790, 3843.050
129.2090, 4134.705
130.4390, 4021.898
131.6680, 3704.305
132.8980, 3337.832
134.1270, 3230.395
135.3560, 3337.781
136.5850, 3369.722
137.8140, 3543.050
139.0430, 3653.796
140.2710, 3666.515
141.5000, 3646.380
142.7280, 3533.917
143.9560, 3353.808
145.1840, 3090.601
146.4120, 2689.609
147.6390, 2261.166
148.8670, 1709.350
150.0940, 1421.477
151.3210, 1310.136
152.5490, 935.1230
153.7750, 768.9365
155.0020, 775.5410
156.2290, 599.3467
157.4550, 714.2080
158.6810, 648.0645
159.9080, 365.9268
161.1340, 490.3105
162.3590, 721.2070
163.5850, 829.3027
164.8110, 459.1592
166.0360, 303.0693
167.2610, 257.0430
168.4860, 188.0820
169.7110, 99.19043
170.9360, 30.37402
172.1610, 67.36523
173.3850, 9.980469
174.6100, 32.58398
175.8340, 9.056641
177.0580, 106.5693
178.2820, 189.2930
179.5050, 160.1113
180.7290, 346.0215
181.9520, 118.0215
183.1760, 387.1094
184.3990, 397.8184
185.6220, 465.6641
186.8450, 690.6680
188.0670, 696.4141
189.2900, 1110.098
190.5120, 941.2129
191.7340, 1045.465
192.9560, 959.4023
194.1780, 760.8105
195.4000, 800.1953
196.6220, 926.6934
197.8430, 684.5137
199.0640, 528.8125
200.2860, 637.4824
201.5070, 528.2656
202.7270, 448.1543
203.9480, 358.1523
205.1690, 85.26172
206.3890, 133.4707
207.6090, 129.7871
208.8290, 4.203125
210.0490, 167.7188
211.2690, 128.3320
212.4890, 57.03906
213.7080, 44.16016
214.9280, 33.23047
216.1470, 235.7031
217.3660, 238.7578
218.5850, 329.8906
219.8030, 555.1680
221.0220, 610.5352
222.2400, 776.9863
223.4590, 1049.520
224.6770, 1239.129
225.8950, 1603.816
227.1120, 2049.652
228.3300, 2498.551
229.5480, 2870.512
230.7650, 3776.590
231.9820, 4307.746
233.1990, 4502.131
234.4160, 4456.641
235.6330, 3953.266
236.8490, 3685.926
238.0660, 3175.701
239.2820, 2581.660
240.4980, 2156.658
241.7140, 1835.693
242.9300, 1232.766
244.1460, 1098.877
245.3610, 649.0234
246.5770, 496.2090
247.7920, 316.4258
249.0070, 347.6777
250.2220, 223.9668
251.4370, 109.2871
252.6510, 202.6406
253.8660, 173.0273
255.0800, 72.55469
256.2940, 119.1074
257.5080, 166.3594
258.7220, 271.7910
259.9360, 60.83789
261.1490, 46.87891
262.3630, 164.4141
263.5760, 235.3789
264.7890, 124.9062
266.0020, 80.05469
267.2150, 83.88281
268.4270, 62.42969
269.6400, 16.73438
270.8520, 120.8164
272.0640, 79.71484
273.2760, 17.54883
274.4880, 26.02148
275.7000, 145.4512
276.9120, 122.7754
278.1230, 21.00000
279.3340, 109.8926
280.5450, 46.09961
281.7560, 53.99414
282.9670, 51.82031
284.1780, 113.4355
285.3880, 78.76758
286.5980, 125.1777
287.8090, 148.6523
289.0190, 131.1699
290.2290, 479.7383
291.4380, 516.3652
292.6480, 306.0508
293.8570, 648.7910
295.0670, 737.5820
296.2760, 869.4219
297.4850, 860.3008
298.6930, 754.2168
299.9020, 696.1602
301.1110, 789.1348
302.3190, 822.1309
303.5270, 840.1562
304.7350, 833.2285
305.9430, 575.3281
307.1510, 753.4648
308.3580, 655.6230
309.5660, 772.7988
310.7730, 860.0000
311.9800, 856.2266
313.1870, 964.4785
314.3940, 1025.758
315.6010, 1074.041
316.8070, 1220.389
318.0130, 1223.748
319.2200, 1357.145
320.4260, 1501.232
321.6310, 1644.623
322.8370, 1764.830
324.0430, 1931.461
325.2480, 2215.934
326.4540, 2555.525
327.6590, 3237.936
328.8640, 3938.992
330.0680, 4805.617
331.2730, 5859.820
332.4780, 6992.754
333.6820, 8267.352
334.8860, 9735.098
336.0900, 10900.50
337.2940, 11755.84
338.4980, 12031.14
339.7010, 11492.50
340.9050, 10731.93
342.1080, 9618.504
343.3110, 8332.830
344.5140, 7080.195
345.7170, 5839.809
346.9200, 4836.926
348.1220, 4009.391
349.3240, 3455.184
350.5270, 2829.066
351.7290, 2551.010
352.9310, 2356.637
354.1320, 2065.951
355.3340, 2202.020
356.5350, 1822.496
357.7370, 1776.043
358.9380, 1657.373
360.1390, 1206.852
361.3400, 1439.891
362.5400, 1421.281
363.7410, 1386.461
364.9410, 1094.555
366.1410, 1283.215
367.3410, 1279.887
368.5410, 1396.576
369.7410, 1481.279
370.9400, 1721.994
372.1400, 1940.721
373.3390, 1861.461
374.5380, 2105.213
375.7370, 2128.977
376.9360, 2120.752
378.1350, 2139.535
379.3330, 2157.332
380.5310, 2131.137
381.7300, 1845.949
382.9280, 2008.770
384.1260, 1919.598
385.3230, 1929.438
386.5210, 1986.279
387.7180, 2370.131
388.9160, 2821.988
390.1130, 3049.854
391.3100, 3276.725
392.5060, 3736.600
393.7030, 3966.484
394.9000, 4287.375
396.0960, 4386.268
397.2920, 4506.170
398.4880, 4394.076
399.6840, 4265.789
400.8800, 4319.379
402.0750, 3901.301
403.2710, 3751.229
404.4660, 3624.189
405.6610, 3305.021
406.8560, 3347.494
408.0510, 3141.406
409.2450, 3352.789
410.4400, 3151.230
411.6340, 3406.488
412.8280, 2911.689
414.0220, 3148.742
415.2160, 3051.260
416.4100, 2826.648
417.6030, 2596.777
418.7970, 2454.443
419.9900, 2030.674
421.1830, 1753.998
422.3760, 1372.180
423.5690, 1309.428
424.7610, 907.1738
425.9540, 738.6191
427.1460, 836.0898
428.3380, 622.3223
429.5300, 460.5605
430.7220, 725.8066
431.9140, 703.0566
433.1050, 684.3125
434.2970, 546.5742
435.4880, 833.8398
436.6790, 834.1113
437.8700, 1098.383
439.0610, 1024.662
440.2510, 966.9414
441.4420, 921.2266
442.6320, 665.5137
443.8220, 491.9707
445.0120, 552.2637
446.2020, 539.5586
447.3910, 548.9844
448.5810, 338.2832
449.7700, 279.1035
450.9600, 215.4043
452.1490, 154.3105
453.3370, 130.1816
454.5260, 139.4844
455.7150, 302.8594
456.9030, 345.7148
458.0910, 172.0156
459.2800, 234.3164
460.4670, 155.4629
461.6550, 175.0410
462.8430, 264.8047
464.0300, 357.1855
465.2180, 109.7910
466.4050, 44.95508
467.5920, 47.30078
468.7790, 318.5508
469.9650, 28.98633
471.1520, 227.2207
472.3380, 149.5820
473.5250, 137.6777
474.7110, 49.90234
475.8970, 70.35938
477.0820, 51.04102
478.2680, 186.2441
479.4540, 25.44531
480.6390, 83.36523
481.8240, 132.7598
483.0090, 61.88281
484.1940, 55.00000
485.3780, 75.12109
486.5630, 71.23438
487.7470, 53.65234
488.9320, 33.41016
490.1160, 19.46094
491.3000, 57.50000
492.4830, 216.4512
493.6670, 5.523438
494.8500, 21.37891
496.0340, 128.7324
497.2170, 43.10156
498.4000, 27.92969
499.5820, 141.7422
500.7650, 158.5762
501.9480, 4.583984
503.1300, 134.7715
504.3120, 108.0566
505.4940, 295.5742
506.6760, 333.2246
507.8580, 521.8652
509.0390, 493.5039
510.2210, 792.1406
511.4020, 1075.771
512.5830, 943.3965
513.7640, 1264.053
514.9450, 1591.734
516.1250, 1711.426
517.3060, 1646.115
518.4860, 1713.811
519.6660, 1334.506
520.8460, 1655.195
522.0260, 1406.877
523.2060, 1769.564
524.3850, 1301.244
525.5650, 1200.920
526.7440, 1142.613
527.9230, 884.3008
529.1020, 1014.984
530.2810, 1158.658
531.4590, 1105.324
532.6380, 1288.982
533.8160, 1210.631
534.9940, 1317.275
536.1720, 1352.910
537.3500, 1354.547
538.5270, 1294.197
539.7050, 1129.852
540.8820, 1222.512
542.0590, 1146.383
543.2360, 1097.908
544.4130, 1151.613
545.5900, 1214.344
546.7660, 1253.064
547.9430, 1119.787
549.1190, 1118.535
550.2950, 898.3223
551.4710, 956.1230
552.6470, 750.9316
553.8220, 511.7461
554.9980, 568.5605
556.1730, 539.3730
557.3480, 161.1953
558.5230, 341.0234
559.6980, 363.8418
560.8730, 486.6543
562.0470, 419.4863
563.2220, 314.3320
564.3960, 6.164063
565.5700, 236.9648
566.7440, 78.76953
567.9170, 275.5547
569.0910, 288.3418
570.2640, 554.1191
571.4380, 564.7891
572.6110, 561.1152
573.7840, 633.3594
574.9570, 456.0801
576.1290, 435.7852
577.3020, 365.4785
578.4740, 459.1562
579.6460, 390.8223
580.8180, 174.4727
581.9900, 413.1094
583.1620, 281.7480
584.3330, 91.35547
585.5040, 213.9453
586.6760, 179.5215
587.8470, 38.91992
589.0180, 113.5801
590.1880, 12.93555
591.3590, 344.5020
592.5290, 7.076172
593.7000, 240.2988
594.8700, 262.6602
596.0400, 108.0059
597.2090, 76.33398
598.3790, 174.6406
599.5490, 192.9336
600.7180, 22.20703
601.8870, 7.548828
603.0560, 42.35156
604.2250, 52.78125
605.3940, 95.89062
606.5620, 18.02344
607.7300, 308.5430
608.8990, 20.69727
610.0670, 7.728516
611.2350, 215.4141
612.4020, 276.3223
613.5700, 253.2168
614.7370, 233.0957
615.9050, 100.6465
617.0720, 84.45117
618.2390, 283.9727
619.4060, 352.7773
620.5720, 239.9746
621.7390, 254.7832
622.9050, 303.9375
624.0710, 535.5215
625.2370, 409.1484
626.4030, 590.2207
627.5690, 687.9629
628.7340, 780.5996
629.9000, 840.9707
631.0650, 791.2930
632.2300, 865.2207
633.3950, 727.7793
634.5600, 646.4883
635.7240, 756.2441
636.8890, 1045.193
638.0530, 888.9844
639.2170, 996.5996
640.3810, 1114.322
641.5450, 1088.125
642.7080, 1156.383
643.8720, 1280.445
645.0350, 1291.154
646.1980, 1637.348
647.3610, 1603.186
648.5240, 1826.693
649.6870, 2365.986
650.8490, 2728.570
652.0120, 3053.338
653.1740, 3716.822
654.3360, 4444.025
655.4980, 5085.184
656.6600, 5728.807
657.8210, 6408.850
658.9830, 6859.107
660.1440, 7319.846
661.3050, 6804.270
662.4660, 6877.295
663.6270, 6307.568
664.7870, 5452.467
665.9480, 5005.773
667.1080, 4757.266
668.2680, 4251.000
669.4280, 4071.326
670.5880, 3981.539
671.7480, 4149.621
672.9070, 4411.789
674.0670, 4662.215
675.2260, 5325.789
676.3850, 6021.490
677.5440, 6959.783
678.7030, 7423.137
679.8610, 7910.674
681.0200, 8433.762
682.1780, 8677.568
683.3360, 8108.758
684.4940, 7494.346
685.6520, 6551.424
686.8090, 5838.656
687.9670, 4828.213
689.1240, 4085.994
690.2810, 3345.863
691.4380, 2872.602
692.5950, 2366.316
693.7520, 1973.018
694.9080, 1514.727
696.0650, 1295.377
697.2210, 1343.020
698.3770, 996.7012
699.5330, 760.3008
700.6880, 899.8809
701.8440, 651.4355
702.9990, 585.9688
704.1550, 824.4336
705.3100, 766.4375
706.4650, 728.6758
707.6190, 749.1172
708.7740, 728.5371
709.9290, 612.9316
711.0830, 532.3066
712.2370, 582.6582
713.3910, 442.9883
714.5450, 666.2949
715.6980, 490.5781
716.8520, 270.8398
718.0050, 568.0781
719.1580, 627.2930
720.3110, 676.4863
721.4640, 196.6602
722.6170, 494.8086
723.7700, 331.7656
724.9220, 421.8711
726.0740, 400.9531
727.2260, 434.8789
728.3780, 506.9180
729.5300, 508.4102
730.6810, 536.3555
731.8330, 445.2031
732.9840, 495.1543
734.1350, 575.0840
735.2860, 443.9199
736.4370, 567.8633
737.5880, 555.1211
738.7380, 616.9668
739.8880, 664.0273
741.0390, 676.7793
742.1890, 661.8789
743.3380, 752.5645
744.4880, 794.0039
745.6380, 878.7852
746.7870, 864.6367
747.9360, 965.0527
749.0850, 784.7305
750.2340, 609.4004
751.3830, 849.5508
752.5310, 534.2344
753.6800, 556.0117
754.8280, 436.3652
755.9760, 223.4727
757.1240, 186.0352
758.2720, 88.57812
759.4190, 172.4141
760.5670, 77.95312
761.7140, 191.4707
762.8610, 7.968750
764.0080, 79.43945
765.1550, 146.1504
766.3020, 113.8359
767.4480, 102.3320
768.5950, 158.0820
769.7410, 49.51367
770.8870, 31.08398
772.0330, 44.28125
773.1780, 108.3867
774.3240, 106.2734
775.4690, 35.13477
776.6140, 254.4043
777.7590, 72.33594
778.9040, 114.8457
780.0490, 131.0117
781.1940, 183.1699
782.3380, 195.2109
783.4820, 50.44727
784.6260, 86.69727
785.7700, 161.8203
786.9140, 21.92578
788.0580, 136.0059
789.2010, 88.06445
790.3450, 105.8945
791.4880, 101.9434
792.6310, 38.07422
793.7730, 1.740234
794.9160, 21.47656
796.0590, 10.26562
797.2010, 63.98242
798.3430, 133.6758
799.4850, 23.64648
800.6270, 160.9863
801.7690, 28.60352
802.9100, 77.80078
804.0520, 93.72070
805.1930, 39.22461
806.3340, 123.7070
807.4750, 145.6914
808.6160, 297.6191
809.7560, 146.0508
810.8970, 79.46484
812.0370, 40.85938
813.1770, 10.43555
814.3170, 68.42383
815.4570, 38.14453
816.5960, 25.91016
817.7360, 51.37500
818.8750, 47.57422
820.0140, 93.51562
821.1530, 109.4121
822.2920, 108.5801
823.4310, 66.55664
824.5690, 6.511719
825.7070, 204.4492
826.8460, 135.3691
827.9840, 297.2754
829.1220, 295.1680
830.2590, 157.0449
831.3970, 148.9082
832.5340, 184.7578
833.6710, 180.6523
834.8080, 145.5820
835.9450, 252.3887
837.0820, 201.1816
838.2190, 311.9629
839.3550, 260.7441
840.4910, 305.5137
841.6270, 31.28125
842.7630, 251.0273
843.8990, 257.7656
845.0350, 635.4863
846.1700, 536.2051
847.3060, 477.9102
848.4410, 529.6035
849.5760, 677.2832
850.7100, 716.9512
851.8450, 689.6094
852.9800, 956.2559
854.1140, 1063.889
855.2480, 937.5117
856.3820, 922.1250
857.5160, 931.7227
858.6500, 802.2891
859.7830, 881.8672
860.9170, 731.4297
862.0500, 695.9805
863.1830, 661.5273
864.3160, 391.1172
865.4480, 416.6992
866.5810, 583.2812
867.7130, 245.8594
868.8460, 316.4375
869.9780, 448.0039
871.1100, 138.5625
872.2410, 442.1172
873.3730, 516.6602
874.5050, 198.2344
875.6360, 112.7930
876.7670, 237.3555
877.8980, 131.9219
879.0290, 219.5039
880.1590, 162.0859
881.2900, 126.6562
882.4200, 98.23828
883.5500, 6.195313
884.6800, 84.41406
885.8100, 189.0273
886.9400, 7.632813
888.0690, 114.2266
889.1990, 86.81641
890.3280, 198.3984
891.4570, 221.9727
892.5860, 323.5430
893.7140, 125.1016
894.8430, 49.30469
895.9710, 358.8477
897.1000, 198.9922
898.2280, 344.5234
899.3560, 139.8945
900.4830, 58.05859
901.6110, 59.49219
902.7380, 104.7812
903.8660, 40.02344
904.9930, 260.4883
906.1200, 95.43359
907.2460, 265.5312
908.3730, 157.5781
909.5000, 115.5430
910.6260, 75.61328
911.7520, 249.2539
912.8780, 325.6523
914.0040, 352.8945
915.1290, 563.0312
916.2550, 530.5000
917.3800, 502.6250
918.5050, 544.0195
919.6300, 712.6836
920.7550, 716.6875
921.8800, 924.0039
923.0040, 999.5117
924.1290, 1004.723
925.2530, 1258.734
926.3770, 1060.000
927.5010, 1392.531
928.6250, 1433.082
929.7480, 938.1445
930.8720, 1474.770
931.9950, 1282.172
933.1180, 1019.074
934.2410, 847.2695
935.3640, 1088.844
936.4860, 960.1484
937.6090, 990.8086
938.7310, 1181.039
939.8530, 772.0625
940.9750, 892.8242
942.0970, 622.9805
943.2180, 583.2227
944.3400, 552.5781
945.4610, 733.8320
946.5820, 595.8125
947.7030, 479.6250
948.8240, 343.3320
949.9450, 313.4258
951.0650, 408.4375
952.1860, 318.2461
953.3060, 59.47266
954.4260, 250.9727
955.5460, 217.0625
956.6650, 54.73047
957.7850, 158.8828
958.9040, 196.8867
960.0230, 329.5352
961.1420, 319.0664
962.2610, 303.3594
963.3800, 134.7617
964.4990, 182.1562
965.6170, 261.5391
966.7350, 281.0469
967.8530, 121.5625
968.9710, 5.785156
970.0890, 47.07422
971.2070, 266.5742
972.3240, 184.4531
973.4410, 324.8828
974.5580, 211.4766
975.6750, 220.8164
976.7920, 459.6445
977.9090, 289.9805
979.0250, 252.3203
980.1410, 402.7031
981.2580, 332.1758
982.3740, 462.5039
983.4890, 620.9648
984.6050, 830.5781
985.7200, 557.9023
986.8360, 838.9141
987.9510, 1095.262
989.0660, 716.6055
990.1810, 967.9492
991.2950, 1033.301
992.4100, 1127.641
993.5240, 1108.977
994.6390, 1407.312
995.7530, 1839.102
996.8660, 1777.953
997.9800, 2122.367
999.0940, 2647.727
1000.207, 2743.484
1001.320, 3202.836
1002.433, 3731.180
1003.546, 4536.520
1004.659, 5130.617
1005.772, 5714.945
1006.884, 6408.961
1007.996, 7101.934
1009.108, 7333.797
1010.220, 7369.094
1011.332, 7343.012
1012.444, 7017.512
1013.555, 7118.934
1014.666, 6864.797
1015.777, 6840.223
1016.888, 6870.523
1017.999, 6995.770
1019.110, 7182.793
1020.220, 7453.930
1021.331, 7762.820
1022.441, 8117.734
1023.551, 8552.734
1024.661, 8853.723
1025.770, 8952.340
1026.880, 9109.250
1027.989, 9272.605
1029.098, 9308.516
1030.207, 9097.422
1031.316, 8488.648
1032.425, 8263.621
1033.533, 7185.430
1034.642, 6798.395
1035.750, 6295.711
1036.858, 5500.609
1037.966, 4835.328
1039.073, 4178.656
1040.181, 3691.020
1041.288, 3546.262
1042.396, 2932.555
1043.503, 2684.066
1044.610, 2507.562
1045.716, 2119.301
1046.823, 1744.375
1047.929, 1580.027
1049.036, 1737.855
1050.142, 1246.680
1051.248, 1514.102
1052.353, 1298.438
1053.459, 1152.387
1054.564, 1077.910
1055.670, 1007.094
1056.775, 1178.633
1057.880, 772.4375
1058.985, 1009.695
1060.089, 1046.844
1061.194, 792.1367
1062.298, 860.4336
1063.402, 645.0898
1064.506, 821.1367
1065.610, 445.3008
1066.713, 418.9336
1067.817, 346.5391
1068.920, 209.8867
1070.023, 377.8867
1071.126, 212.8984
1072.229, 265.2617
1073.332, 496.5977
1074.435, 467.8594
1075.537, 507.9180
1076.639, 562.8594
1077.741, 425.7734
1078.843, 737.7422
1079.945, 629.1758
1081.046, 509.5352
1082.148, 485.1328
1083.249, 836.5312
1084.350, 654.5117
1085.451, 762.8047
1086.551, 715.2070
1087.652, 762.2695
1088.752, 454.2969
1089.853, 428.4961
1090.953, 392.3594
1092.053, 170.3672
1093.152, 121.0898
1094.252, 179.6953
1095.351, 394.8711
1096.451, 270.7930
1097.550, 465.7383
1098.649, 120.6211
1099.748, 233.5703
1100.846, 199.4609
1101.945, 257.6875
1103.043, 122.0742
1104.141, 33.58594
1105.239, 63.23828
1106.337, 104.1250
1107.434, 378.3672
1108.532, 259.8594
1109.629, 261.9766
1110.726, 206.0820
1111.823, 40.93359
1112.920, 137.7461
1114.017, 300.4414
1115.113, 141.9062
1116.210, 104.6445
1117.306, 184.6406
1118.402, 12.22266
1119.498, 192.6680
1120.593, 399.1680
1121.689, 217.4648
1122.784, 185.9648
1123.879, 329.8242
1124.974, 210.7031
1126.069, 374.7617
1127.164, 87.76953
1128.259, 88.89453
1129.353, 126.1719
1130.447, 359.8555
1131.541, 110.8867
1132.635, 275.2891
1133.729, 291.1875
1134.822, 252.0547
1135.916, 28.89453
1137.009, 360.2227
1138.102, 48.28125
1139.195, 128.6719
1140.288, 97.66016
1141.380, 221.8516
1142.473, 118.5742
1143.565, 230.2891
1144.657, 280.0625
1145.749, 151.4492
1146.841, 295.5273
1147.932, 267.2266
1149.024, 112.1914
1150.115, 275.4023
1151.206, 133.6094
1152.297, 29.66797
1153.388, 125.3984
1154.479, 77.38672
1155.569, 117.6680
1156.659, 207.1211
1157.750, 135.9492
1158.839, 270.2852
1159.929, 61.00000
1161.019, 133.8516
1162.108, 57.16797
1163.198, 92.87891
1164.287, 164.7617
1165.376, 66.21094
1166.465, 220.8594
1167.553, 6.574219
1168.642, 104.0625
1169.730, 338.0352
1170.818, 484.9688
1171.906, 730.0156
1172.994, 118.5820
1174.082, 245.9062
1175.170, 24.18750
1176.257, 196.4219
1177.344, 21.87109
1178.431, 219.8164
1179.518, 181.6953
1180.605, 181.0000
1181.691, 51.98828
1182.778, 60.92188
1183.864, 17.61328
1184.950, 248.4453
1186.036, 89.23828
1187.122, 10.01953
1188.207, 21.65625
1189.292, 436.2695
1190.378, 95.84766
1191.463, 402.4844
1192.548, 398.9883
1193.632, 219.4336
1194.717, 32.08203
1195.801, 96.23047
1196.886, 218.5000
1197.970, 222.7227
1199.054, 313.8984
1200.137, 98.03906
1201.221, 119.1211
1202.305, 59.15625
1203.388, 60.57422
1204.471, 68.23047
1205.554, 100.1094
1206.637, 125.5234
1207.719, 22.30859
1208.802, 111.0273
1209.884, 10.69922
1210.966, 116.3359
1212.048, 190.3750
1213.130, 240.9297
1214.212, 99.30859
1215.293, 262.6406
1216.374, 43.10547
1217.456, 327.3359
1218.536, 84.52344
1219.617, 284.6602
1220.698, 28.19141
1221.778, 344.8164
1222.859, 145.2188
1223.939, 168.0039
1225.019, 267.6367
1226.099, 338.4492
1227.178, 312.9180
1228.258, 339.7852
1229.337, 300.5078
1230.417, 296.0859
1231.496, 198.9766
1232.574, 181.7773
1233.653, 145.1328
1234.732, 219.4141
1235.810, 160.6328
1236.888, 183.9531
1237.966, 117.5547
1239.044, 202.8164
1240.122, 198.0273
1241.199, 223.1914
1242.277, 282.7109
1243.354, 274.2656
1244.431, 344.2227
1245.508, 250.0703
1246.585, 181.7148
1247.661, 64.96094
1248.738, 79.89844
1249.814, 282.5078
1250.890, 440.1875
1251.966, 267.8203
1253.042, 32.39062
1254.117, 164.9219
1255.193, 114.4062
1256.268, 24.83203
1257.343, 78.25000
1258.418, 121.5234
1259.493, 306.6836
1260.567, 299.8477
1261.642, 202.5625
1262.716, 420.6406
1263.790, 339.6719
1264.864, 351.6641
1265.938, 187.8438
1267.011, 246.8477
1268.085, 70.98438
1269.158, 140.1367
1270.231, 31.67969
1271.304, 184.0820
1272.377, 73.13281
1273.450, 238.1562
1274.522, 37.53516
1275.594, 148.2734
1276.666, 138.4531
1277.738, 101.5859
1278.810, 213.1367
1279.882, 384.1836
1280.953, 6.667969
1282.025, 150.6250
1283.096, 262.9609
1284.167, 390.0938
1285.238, 17.73828
1286.308, 88.26953
1287.379, 194.4570
1288.449, 96.13672
1289.519, 358.9102
1290.589, 167.9531
1291.659, 244.8164
1292.729, 64.31250
1293.798, 84.65625
1294.868, 44.17188
1295.937, 238.2891
1297.006, 295.9727
1298.075, 74.48047
1299.143, 151.7031
1300.212, 115.8516
1301.280, 218.9609
1302.348, 506.3203
1303.416, 581.1719
1304.484, 334.9023
1305.552, 149.4688
1306.620, 133.6445
1307.687, 34.77344
1308.754, 202.5664
1309.821, 594.8672
1310.888, 408.5195
1311.955, 73.21484
1313.021, 460.2695
1314.088, 282.2734
1315.154, 380.4336
1316.220, 415.7656
1317.286, 315.7891
1318.352, 409.3164
1319.417, 230.9336
1320.483, 251.1562
1321.548, 428.8008
1322.613, 233.8164
1323.678, 400.3984
1324.743, 479.8320
1325.807, 486.7383
1326.872, 537.6250
1327.936, 523.6992
1329.000, 523.2734
1330.064, 379.4766
1331.128, 495.4453
1332.191, 235.3867
1333.255, 211.3594
1334.318, 100.4805
1335.381, 274.6719
1336.444, 359.8477
1337.507, 318.9062
1338.569, 150.4531
1339.632, 169.0234
1340.694, 195.3086
1341.756, 268.7617
1342.818, 254.6758
1343.880, 178.0859
1344.941, 287.4297
1346.003, 280.0859
1347.064, 375.7188
1348.125, 203.1719
1349.186, 459.9023
1350.247, 106.6445
1351.308, 228.4180
1352.368, 25.25391
1353.428, 350.4805
1354.489, 40.90234
1355.549, 61.25391
1356.608, 163.6211
1357.668, 86.86719
1358.727, 136.0547
1359.787, 145.3008
1360.846, 255.4727
1361.905, 115.9531
1362.964, 206.7227
1364.022, 106.2422
1365.081, 261.8398
1366.139, 237.1289
1367.197, 416.7539
1368.255, 330.3320
1369.313, 356.4062
1370.371, 369.3906
1371.428, 315.7539
1372.486, 272.7812
1373.543, 264.4844
1374.600, 101.8828
1375.657, 322.6523
1376.713, 15.50781
1377.770, 236.2695
1378.826, 397.1758
1379.882, 446.8398
1380.938, 532.5859
1381.994, 495.1094
1383.050, 436.2578
1384.106, 344.2266
1385.161, 319.0195
1386.216, 234.9844
1387.271, 324.7578
1388.326, 329.4844
1389.381, 334.0117
1390.435, 331.7617
1391.490, 538.5312
1392.544, 226.2734
1393.598, 130.4688
1394.652, 19.09766
1395.705, 165.2891
1396.759, 324.3164
1397.812, 370.4336
1398.866, 390.6367
1399.919, 405.3164
1400.972, 342.8945
1402.024, 328.6406
1403.077, 362.6562
1404.129, 281.6289
1405.181, 260.4414
1406.233, 217.7852
1407.285, 220.5195
1408.337, 157.2656
1409.389, 215.3438
1410.440, 100.8906
1411.491, 7.570313
1412.542, 258.8047
1413.593, 359.6289
1414.644, 439.8945
1415.695, 137.7578
1416.745, 342.4414
1417.795, 58.61328
1418.845, 208.1133
1419.895, 386.6055
1420.945, 522.5078
1421.995, 344.2305
1423.044, 398.7969
1424.093, 368.8281
1425.142, 206.7852
1426.191, 311.0312
1427.240, 319.1406
1428.289, 315.6914
1429.337, 347.5781
1430.385, 471.4023
1431.433, 538.2461
1432.481, 634.5898
1433.529, 513.9141
1434.577, 590.5000
1435.624, 333.1328
1436.672, 524.9102
1437.719, 511.9766
1438.766, 300.9609
1439.812, 673.7617
1440.859, 270.8711
1441.905, 281.7812
1442.952, 619.5039
1443.998, 433.2148
1445.044, 489.4023
1446.090, 644.5312
1447.135, 330.6953
1448.181, 647.0234
1449.226, 523.4414
1450.271, 556.8359
1451.316, 689.2031
1452.361, 430.5625
1453.405, 325.7422
1454.450, 533.4531
1455.494, 545.7695
1456.538, 443.4961
1457.582, 510.7461
1458.626, 564.9180
1459.670, 550.2695
1460.713, 503.5469
1461.757, 373.4141
1462.800, 168.8711
1463.843, 231.3828
1464.886, 226.2734
1465.928, 451.1094
1466.971, 415.0625
1468.013, 296.8672
1469.055, 372.6172
1470.097, 271.8164
1471.139, 464.0156
1472.181, 229.1953
1473.222, 406.3555
1474.263, 485.0547
1475.305, 16.40625
1476.346, 492.6133
1477.386, 125.8320
1478.427, 206.0586
1479.468, 328.3828
1480.508, 587.6953
1481.548, 454.0039
1482.588, 547.2969
1483.628, 193.0117
1484.668, 711.3672
1485.707, 634.8594
1486.747, 200.5273
1487.786, 464.2617
1488.825, 403.0195
1489.864, 462.7773
1490.902, 400.5703
1491.941, 411.4375
1492.979, 621.4414
1494.017, 498.2695
1495.055, 316.7891
1496.093, 527.6680
1497.131, 322.5742
1498.168, 346.4805
1499.206, 176.4844
1500.243, 214.5117
1501.280, 446.5352
1502.317, 95.56250
1503.354, 342.6328
1504.390, 510.7344
1505.426, 293.8359
1506.463, 454.9375
1507.499, 456.0117
1508.535, 151.1016
1509.570, 492.2266
1510.606, 416.3789
1511.641, 313.5547
1512.676, 371.7539
1513.711, 11.99609
1514.746, 235.2773
1515.781, 79.59766
1516.816, 263.9531
1517.850, 296.3711
1518.884, 222.8672
1519.918, 455.4297
1520.952, 469.0547
1521.986, 298.7305
1523.019, 241.4688
1524.053, 382.7656
1525.086, 274.6445
1526.119, 163.5938
1527.152, 583.6094
1528.185, 402.7383
1529.217, 492.9336
1530.250, 540.1992
1531.282, 478.5312
1532.314, 341.9531
1533.346, 435.4570
1534.377, 225.0391
1535.409, 708.7070
1536.440, 370.4570
1537.472, 381.2969
1538.503, 541.2344
1539.534, 414.2695
1540.564, 305.4219
1541.595, 514.6992
1542.625, 501.1641
1543.656, 30.33594
1544.686, 364.3203
1545.716, 31.87891
1546.745, 360.0820
1547.775, 507.2148
1548.804, 365.5469
1549.834, 429.0586
1550.863, 604.7734
1551.892, 339.6914
1552.920, 121.8359
1553.949, 375.2227
1554.977, 170.8828
1556.006, 312.8281
1557.034, 204.1172
1558.062, 164.0625
1559.089, 25.23047
1560.117, 239.9570
1561.144, 88.35938
1562.172, 417.0977
1563.199, 490.9062
1564.226, 7.851563
1565.252, 125.0039
1566.279, 258.7188
1567.305, 284.6211
1568.332, 226.6992
1569.358, 8.625000
1570.384, 0.0000000E+00
##END=



