##NAMES=Enstatite
##RRUFFID=R040094
##IDEAL CHEMISTRY=MgSiO_3_
##LOCALITY=unknown
##OWNER=RRUFF
##SOURCE=University of Arizona Mineral Museum
##DESCRIPTION=Dark green massive, associated with anthophyllite
##STATUS=The identification of this mineral has been confirmed by X-ray diffraction and chemical analysis
##URL=rruff.info/R040094
##MEASURED CHEMISTRY=(Mg_0.84_Fe_0.15_)(Si_0.99_Al_0.01_)O_3_; = Enstatite :  [box](Mg_0.83_Fe_0.14_Na_0.01_Ca_0.01_)_7_(Si_0.99_Al_0.01_)_8_O_22_(OH)_2_ = Anthophyllite
##PIN_ID=M00384
##ORIENTATION=Laser parallel to c* (0 0 1). Fiducial mark perpendicular to laser is parallel to a [1 0 0]
73.374, 0.000
74.776, 13.149
76.178, 0.108
77.580, 12.450
78.982, 86.382
80.383, 295.469
81.784, 760.576
83.185, 894.344
84.585, 640.709
85.985, 308.308
87.385, 88.852
88.785, 21.886
90.185, 37.104
91.584, 102.032
92.983, 248.378
94.382, 230.813
95.780, 350.235
97.178, 314.546
98.576, 276.664
99.974, 324.557
101.372, 386.194
102.769, 384.500
104.166, 386.414
105.563, 489.882
106.959, 497.864
108.355, 522.622
109.751, 559.229
111.147, 565.555
112.543, 584.274
113.938, 641.364
115.333, 696.803
116.728, 777.563
118.122, 873.615
119.517, 726.935
120.911, 677.502
122.304, 602.302
123.698, 669.346
125.091, 728.948
126.484, 596.096
127.877, 573.454
129.270, 609.940
130.662, 649.552
132.054, 664.290
133.446, 654.184
134.837, 666.142
136.229, 616.268
137.620, 714.534
139.011, 729.941
140.401, 951.488
141.791, 978.173
143.181, 1021.991
144.571, 1182.939
145.961, 1207.012
147.350, 1273.207
148.739, 1193.520
150.128, 1238.948
151.517, 1163.488
152.905, 1062.137
154.293, 1040.892
155.681, 880.750
157.069, 887.679
158.456, 737.592
159.843, 690.502
161.230, 724.420
162.617, 725.352
164.003, 750.308
165.389, 718.273
166.775, 760.266
168.161, 786.302
169.546, 784.384
170.931, 847.515
172.316, 852.698
173.701, 927.501
175.085, 822.277
176.469, 812.087
177.853, 718.926
179.237, 822.395
180.620, 867.553
182.003, 911.779
183.386, 1160.072
184.769, 1254.433
186.152, 1609.861
187.534, 1980.358
188.916, 2309.923
190.297, 2536.573
191.679, 2590.314
193.060, 2627.145
194.441, 2368.085
195.822, 2131.188
197.202, 2083.499
198.583, 1876.977
199.963, 1905.553
201.342, 1787.199
202.722, 1911.947
204.101, 1776.806
205.480, 1794.753
206.859, 1727.773
208.237, 1655.837
209.616, 1539.943
210.994, 1409.091
212.372, 1317.280
213.749, 1133.509
215.126, 1089.779
216.504, 1036.089
217.880, 906.438
219.257, 1014.827
220.633, 961.254
222.009, 1024.720
223.385, 1094.223
224.761, 1187.764
226.136, 1363.341
227.511, 1542.953
228.886, 1931.601
230.261, 2207.284
231.635, 2807.002
233.009, 3273.754
234.383, 3771.538
235.757, 4168.354
237.130, 3912.204
238.504, 3622.085
239.877, 2835.917
241.249, 2132.800
242.622, 1596.761
243.994, 1165.018
245.366, 856.420
246.738, 659.970
248.109, 618.506
249.480, 554.200
250.851, 451.405
252.222, 515.429
253.593, 539.117
254.963, 523.952
256.333, 355.480
257.703, 385.788
259.072, 337.054
260.442, 285.151
261.811, 343.554
263.179, 198.991
264.548, 255.811
265.916, 232.361
267.284, 245.765
268.652, 179.593
270.020, 135.992
271.387, 42.217
272.754, 51.497
274.121, 0.156
275.488, 122.757
276.854, 91.319
278.221, 161.836
279.587, 91.324
280.952, 42.770
282.318, 108.167
283.683, 34.527
285.048, 6.164
286.413, 53.906
287.777, 81.698
289.141, 173.540
290.505, 373.430
291.869, 415.371
293.233, 658.359
294.596, 829.396
295.959, 995.478
297.322, 1199.604
298.684, 1135.779
300.047, 1239.999
301.409, 1129.265
302.771, 1060.595
304.132, 963.177
305.494, 895.579
306.855, 860.319
308.216, 930.264
309.576, 994.792
310.937, 1221.457
312.297, 1440.084
313.657, 1811.065
315.016, 2106.354
316.376, 2663.482
317.735, 2889.939
319.094, 3227.120
320.453, 3362.618
321.811, 3245.621
323.170, 3224.170
324.528, 2987.041
325.885, 3140.867
327.243, 3155.516
328.600, 3521.885
329.957, 4007.277
331.314, 4719.202
332.671, 5948.883
334.027, 7237.839
335.383, 9216.821
336.739, 11148.067
338.095, 13237.086
339.450, 15416.095
340.805, 16095.073
342.160, 16454.053
343.515, 15283.025
344.869, 13752.020
346.224, 11751.031
347.578, 9790.066
348.931, 8039.122
350.285, 6610.197
351.638, 5505.290
352.991, 4739.401
354.344, 4038.532
355.696, 3638.680
357.049, 3187.847
358.401, 3008.030
359.753, 2684.229
361.104, 2511.442
362.456, 2374.671
363.807, 2222.914
365.158, 2266.169
366.508, 2165.438
367.859, 2309.719
369.209, 2294.012
370.559, 2434.316
371.908, 2675.632
373.258, 2751.958
374.607, 3166.295
375.956, 3396.642
377.305, 3610.999
378.653, 3944.367
380.002, 3943.744
381.350, 4177.131
382.698, 4029.525
384.045, 4159.929
385.392, 4177.342
386.740, 4278.764
388.086, 4744.194
389.433, 5138.630
390.779, 5771.077
392.126, 6544.530
393.472, 7565.988
394.817, 8485.455
396.163, 9044.929
397.508, 10024.410
398.853, 10303.896
400.198, 10393.389
401.542, 10282.887
402.886, 9912.403
404.230, 9531.943
405.574, 8831.503
406.918, 8341.080
408.261, 7770.673
409.604, 7100.285
410.947, 6687.912
412.290, 6182.555
413.632, 5725.213
414.974, 5240.886
416.316, 4956.573
417.658, 4632.275
418.999, 3884.995
420.341, 3878.727
421.682, 3461.470
423.022, 3252.224
424.363, 3147.988
425.703, 2893.761
427.043, 2798.543
428.383, 2465.334
429.723, 2288.135
431.062, 1922.941
432.401, 1641.756
433.740, 1518.578
435.079, 1226.457
436.417, 1032.392
437.755, 916.133
439.093, 827.575
440.431, 704.571
441.768, 547.558
443.106, 476.461
444.443, 295.396
445.779, 293.207
447.116, 267.544
448.452, 118.641
449.788, 188.372
451.124, 74.121
452.460, 145.002
453.795, 121.234
455.130, 178.992
456.465, 147.265
457.800, 117.031
459.134, 19.563
460.468, 79.878
461.802, 31.784
463.136, 74.208
464.470, 18.376
465.803, 44.305
467.136, 18.441
468.469, 1.412
469.801, 23.567
471.134, 48.545
472.466, 11.363
473.798, 51.774
475.129, 55.919
476.461, 84.079
477.792, 98.279
479.123, 104.524
480.454, 70.826
481.784, 29.151
483.115, 20.485
484.445, 7.239
485.774, 38.849
487.104, 19.471
488.433, 13.798
489.762, 46.138
491.091, 21.509
492.420, 32.902
493.748, 20.323
495.077, 40.237
496.405, 23.203
497.732, 76.330
499.060, 82.861
500.387, 117.385
501.714, 191.902
503.041, 140.411
504.367, 169.913
505.694, 243.418
507.020, 244.915
508.346, 305.416
509.671, 340.909
510.997, 485.394
512.322, 574.887
513.647, 727.372
514.972, 937.847
516.296, 1184.596
517.620, 1516.769
518.944, 1816.216
520.268, 2185.654
521.592, 2570.079
522.915, 2836.495
524.238, 3244.899
525.561, 3097.301
526.884, 3064.692
528.206, 2748.072
529.528, 2510.440
530.850, 2382.796
532.172, 2355.307
533.494, 2348.471
534.815, 2584.790
536.136, 2774.096
537.457, 3107.389
538.777, 3079.669
540.098, 3014.935
541.418, 2720.188
542.738, 2478.428
544.057, 2389.653
545.377, 2216.865
546.696, 2413.063
548.015, 2375.247
549.334, 2391.416
550.652, 2295.571
551.970, 2043.711
553.289, 1782.836
554.606, 1421.946
555.924, 1193.041
557.241, 1009.121
558.559, 822.186
559.875, 684.235
561.192, 633.269
562.509, 576.286
563.825, 555.288
565.141, 566.274
566.457, 539.035
567.772, 546.480
569.088, 541.130
570.403, 565.049
571.718, 590.950
573.032, 626.834
574.347, 604.700
575.661, 610.124
576.975, 633.380
578.288, 558.193
579.602, 552.988
580.915, 487.764
582.228, 434.521
583.541, 310.260
584.854, 317.980
586.166, 251.682
587.478, 268.364
588.790, 210.026
590.102, 271.670
591.413, 205.294
592.724, 138.898
594.035, 96.487
595.346, 142.055
596.657, 113.619
597.967, 97.171
599.277, 80.725
600.587, 57.264
601.897, 52.780
603.206, 33.279
604.515, 34.747
605.824, 43.180
607.133, 24.901
608.442, 24.913
609.750, 2.271
611.058, 14.548
612.366, 4.906
613.673, 14.366
614.981, 26.769
616.288, 6.742
617.595, 14.491
618.902, 3.653
620.208, 68.181
621.514, 82.407
622.820, 29.677
624.126, 2.089
625.432, 50.567
626.737, 14.360
628.042, 168.950
629.347, 144.531
630.652, 171.759
631.956, 227.446
633.260, 189.427
634.564, 307.292
635.868, 289.498
637.172, 271.718
638.475, 385.178
639.778, 366.612
641.081, 542.864
642.384, 573.536
643.686, 653.801
644.988, 728.011
646.290, 947.521
647.592, 1186.382
648.894, 1224.324
650.195, 1573.694
651.496, 1955.790
652.797, 2297.670
654.097, 2869.941
655.398, 3455.589
656.698, 4297.742
657.998, 5343.296
659.298, 6021.399
660.597, 6966.536
661.896, 7136.342
663.196, 7233.376
664.494, 7053.333
665.793, 6442.527
667.091, 6404.659
668.389, 6284.894
669.687, 6715.822
670.985, 7152.962
672.283, 7749.907
673.580, 8196.748
674.877, 8383.956
676.174, 8710.910
677.470, 8847.679
678.767, 8904.492
680.063, 9211.212
681.359, 9059.973
682.655, 9196.643
683.950, 8493.450
685.245, 7720.084
686.540, 6856.687
687.835, 5510.258
689.130, 4742.858
690.424, 3863.381
691.718, 3197.880
693.012, 2633.354
694.306, 2178.804
695.599, 1867.230
696.893, 1588.632
698.186, 1358.010
699.478, 1168.446
700.771, 1023.692
702.063, 889.997
703.356, 838.278
704.647, 751.535
705.939, 680.163
707.231, 619.981
708.522, 555.163
709.813, 525.325
711.104, 452.462
712.394, 470.576
713.685, 451.667
714.975, 391.733
716.265, 391.777
717.554, 357.797
718.844, 379.793
720.133, 322.766
721.422, 291.716
722.711, 308.643
724.000, 330.547
725.288, 333.427
726.576, 276.285
727.864, 295.120
729.152, 263.932
730.439, 303.721
731.727, 313.488
733.014, 272.232
734.300, 289.954
735.587, 281.654
736.873, 267.332
738.160, 228.987
739.446, 262.620
740.731, 226.231
742.017, 227.108
743.302, 220.388
744.587, 219.934
745.872, 217.459
747.157, 220.963
748.441, 298.445
749.725, 342.783
751.009, 337.224
752.293, 384.585
753.576, 325.836
754.860, 421.875
756.143, 377.447
757.426, 398.873
758.708, 406.698
759.991, 374.535
761.273, 339.595
762.555, 198.006
763.837, 219.381
765.118, 218.608
766.399, 111.467
767.681, 147.785
768.961, 42.568
770.242, 54.840
771.523, 85.327
772.803, 89.013
774.083, 73.138
775.363, 14.629
776.642, 17.156
777.921, 30.390
779.201, 0.032
780.480, 5.867
781.758, 41.273
783.037, 0.356
784.315, 10.499
785.593, 87.623
786.871, 65.803
788.148, 30.024
789.426, 51.261
790.703, 11.520
791.980, 78.778
793.257, 55.078
794.533, 61.418
795.809, 73.804
797.085, 51.244
798.361, 48.161
799.637, 17.257
800.912, 23.803
802.188, 2.366
803.463, 5.939
804.737, 22.520
806.012, 20.122
807.286, 9.248
808.560, 18.386
809.834, 75.953
811.108, 0.719
812.381, 77.592
813.654, 56.892
814.927, 41.819
816.200, 78.433
817.473, 46.326
818.745, 14.877
820.017, 22.294
821.289, 69.752
822.561, 56.379
823.833, 1.499
825.104, 37.607
826.375, 67.704
827.646, 6.208
828.916, 12.866
830.187, 118.929
831.457, 31.983
832.727, 68.028
833.997, 40.936
835.266, 67.072
836.536, 4.071
837.805, 38.061
839.074, 38.042
840.342, 57.016
841.611, 23.982
842.879, 122.940
844.147, 152.891
845.415, 226.834
846.682, 160.772
847.950, 192.702
849.217, 322.626
850.484, 317.543
851.751, 420.455
853.017, 533.361
854.283, 610.261
855.550, 689.033
856.815, 843.044
858.081, 788.928
859.347, 889.807
860.612, 880.681
861.877, 755.550
863.142, 639.415
864.406, 738.275
865.670, 562.134
866.935, 471.989
868.199, 522.839
869.462, 418.693
870.726, 380.543
871.989, 319.391
873.252, 234.244
874.515, 341.096
875.778, 311.944
877.040, 161.790
878.302, 324.633
879.564, 121.474
880.826, 235.313
882.088, 193.150
883.349, 225.002
884.610, 285.854
885.871, 137.704
887.132, 355.553
888.392, 208.400
889.652, 227.247
890.913, 293.103
892.172, 288.958
893.432, 279.827
894.691, 296.707
895.951, 257.593
897.210, 366.486
898.468, 286.381
899.727, 320.286
900.985, 265.194
902.243, 351.125
903.501, 449.076
904.759, 280.029
906.017, 302.997
907.274, 450.995
908.531, 409.998
909.788, 505.007
911.044, 480.026
912.301, 570.054
913.557, 674.109
914.813, 727.184
916.069, 878.275
917.324, 1030.583
918.580, 1235.378
919.835, 1431.519
921.090, 1656.141
922.345, 1929.923
923.599, 2468.926
924.853, 2548.971
926.108, 2988.980
927.361, 2917.517
928.615, 2982.134
929.869, 3007.978
931.122, 2927.079
932.375, 2945.568
933.628, 3002.247
934.880, 2912.529
936.133, 2952.220
937.385, 2823.105
938.637, 2709.398
939.888, 2742.975
941.140, 2456.259
942.391, 2500.074
943.642, 2115.709
944.893, 1949.870
946.144, 1912.675
947.394, 1648.744
948.645, 1577.272
949.895, 1348.040
951.145, 1266.792
952.394, 1158.181
953.644, 983.961
954.893, 1001.564
956.142, 966.173
957.391, 787.979
958.639, 863.133
959.888, 762.143
961.136, 740.633
962.384, 838.708
963.631, 722.216
964.879, 723.679
966.126, 589.459
967.373, 714.006
968.620, 695.615
969.867, 668.974
971.113, 736.382
972.359, 700.672
973.606, 731.256
974.851, 830.613
976.097, 943.151
977.342, 908.780
978.588, 923.027
979.833, 1028.513
981.077, 1084.178
982.322, 1210.782
983.566, 1406.468
984.810, 1544.098
986.054, 1639.807
987.298, 1845.389
988.541, 2018.131
989.785, 2195.891
991.028, 2665.676
992.271, 2988.422
993.513, 3346.229
994.756, 4111.052
995.998, 4556.888
997.240, 5472.753
998.482, 6267.631
999.724, 7252.519
1000.965, 8547.419
1002.206, 9622.332
1003.447, 11097.255
1004.688, 13012.192
1005.929, 14127.166
1007.169, 15392.124
1008.409, 15347.097
1009.649, 15182.082
1010.889, 15287.090
1012.128, 14412.111
1013.368, 14477.144
1014.607, 14102.617
1015.846, 14207.676
1017.084, 14702.747
1018.323, 14379.200
1019.561, 14744.292
1020.799, 14749.417
1022.037, 14416.726
1023.274, 14821.871
1024.512, 14677.035
1025.749, 14312.210
1026.986, 14797.395
1028.223, 13882.593
1029.460, 13857.802
1030.696, 13023.026
1031.932, 12172.259
1033.168, 11817.504
1034.404, 10682.763
1035.639, 9758.029
1036.875, 9393.311
1038.110, 8388.603
1039.345, 7866.156
1040.580, 7291.471
1041.814, 6299.728
1043.048, 5977.900
1044.282, 4944.290
1045.516, 4937.413
1046.750, 4507.837
1047.983, 3543.292
1049.217, 3488.367
1050.450, 2909.604
1051.683, 2740.446
1052.915, 2629.868
1054.148, 2285.356
1055.380, 2214.152
1056.612, 1926.603
1057.844, 1624.171
1059.075, 1662.656
1060.307, 1388.247
1061.538, 1319.461
1062.769, 1237.648
1064.000, 1108.384
1065.230, 1131.896
1066.461, 1055.417
1067.691, 902.178
1068.921, 959.715
1070.151, 792.264
1071.380, 760.932
1072.609, 771.551
1073.838, 480.157
1075.067, 687.243
1076.296, 622.842
1077.525, 571.498
1078.753, 672.871
1079.981, 556.503
1081.209, 614.245
1082.437, 674.911
1083.664, 620.592
1084.891, 712.294
1086.118, 668.119
1087.345, 660.885
1088.572, 816.726
1089.798, 820.535
1091.024, 881.496
1092.250, 956.352
1093.476, 1067.231
1094.702, 1093.145
1095.927, 1150.081
1097.153, 972.174
1098.378, 952.155
1099.602, 685.151
1100.827, 682.319
1102.051, 523.339
1103.275, 371.371
1104.499, 542.544
1105.723, 473.604
1106.947, 328.669
1108.170, 407.875
1109.393, 298.960
1110.616, 369.052
1111.839, 274.149
1113.061, 199.251
1114.284, 309.982
1115.506, 112.107
1116.728, 160.249
1117.949, 413.487
1119.171, 169.640
1120.392, 163.816
1121.613, 229.996
1122.834, 91.182
1124.055, 144.372
1125.275, 230.566
1126.496, 201.895
1127.716, 222.699
1128.936, 88.906
1130.155, 220.221
1131.375, 142.435
1132.594, 70.661
1133.813, 184.540
1135.032, 150.772
1136.251, 113.007
1137.469, 65.954
1138.687, 91.193
1139.905, 176.436
1141.123, 132.636
1142.341, 121.881
1143.558, 174.444
1144.775, 41.693
1145.992, 193.943
1147.209, 124.220
1148.426, 24.473
1149.642, 172.948
1150.858, 78.203
1152.074, 0.542
1153.290, 182.713
1154.506, 6.005
1155.721, 128.261
1156.936, 116.507
1158.151, 15.765
1159.366, 88.021
1160.580, 17.350
1161.795, 57.902
1163.009, 141.153
1164.223, 36.299
1165.437, 86.938
1166.650, 48.707
1167.864, 47.057
1169.077, 61.233
1170.290, 40.549
1171.502, 101.761
1172.715, 164.972
1173.927, 7.182
1175.139, 67.390
1176.351, 83.595
1177.563, 71.200
1178.775, 93.967
1179.986, 9.368
1181.197, 50.531
1182.408, 122.692
1183.619, 31.991
1184.829, 39.854
1186.039, 44.280
1187.250, 49.589
1188.459, 47.488
1189.669, 18.415
1190.879, 29.355
1192.088, 4.685
1193.297, 33.280
1194.506, 10.266
1195.715, 76.262
1196.923, 69.305
1198.131, 156.611
1199.339, 46.477
1200.547, 98.596
1201.755, 96.227
1202.962, 4.046
1204.170, 23.860
1205.377, 4.670
1206.584, 70.526
1207.790, 21.767
1208.997, 14.017
1210.203, 36.717
1211.409, 94.448
1212.615, 12.826
1213.821, 91.885
1215.026, 48.592
1216.231, 12.418
1217.437, 27.116
1218.641, 32.810
1219.846, 1.499
1221.051, 59.178
1222.255, 30.855
1223.459, 1.474
1224.663, 47.186
1225.866, 20.840
1227.070, 101.489
1228.273, 19.868
1229.476, 99.726
1230.679, 28.342
1231.882, 87.953
1233.084, 37.557
1234.286, 115.155
1235.488, 19.745
1236.690, 164.331
1237.892, 57.911
1239.093, 53.486
1240.295, 122.058
1241.496, 24.622
1242.697, 112.181
1243.897, 142.733
1245.098, 23.281
1246.298, 83.822
1247.498, 97.344
1248.698, 30.861
1249.897, 254.370
1251.097, 63.873
1252.296, 33.369
1253.495, 210.858
1254.694, 95.336
1255.893, 116.807
1257.091, 94.243
1258.289, 20.329
1259.487, 214.071
1260.685, 101.458
1261.883, 47.813
1263.080, 157.160
1264.278, 78.499
1265.475, 97.851
1266.672, 124.171
1267.868, 78.482
1269.065, 163.767
1270.261, 43.040
1271.457, 18.303
1272.653, 111.552
1273.849, 50.771
1275.044, 127.972
1276.239, 184.163
1277.434, 64.657
1278.629, 318.490
1279.824, 150.625
1281.018, 1.250
1282.213, 179.854
1283.407, 108.950
1284.601, 13.035
1285.794, 264.105
1286.988, 41.833
1288.181, 181.198
1289.374, 166.220
1290.567, 76.233
1291.760, 180.238
1292.952, 40.233
1294.145, 131.218
1295.337, 204.194
1296.529, 161.137
1297.720, 76.087
1298.912, 192.027
1300.103, 19.042
1301.294, 192.866
1302.485, 124.766
1303.676, 34.656
1304.866, 237.090
1306.057, 95.943
1307.247, 38.786
1308.437, 229.250
1309.627, 27.928
1310.816, 319.869
1312.005, 66.481
1313.195, 11.259
1314.383, 224.021
1315.572, 270.773
1316.761, 157.516
1317.949, 254.248
1319.137, 169.971
1320.325, 135.685
1321.513, 194.390
1322.701, 39.086
1323.888, 135.772
1325.075, 177.450
1326.262, 50.120
1327.449, 259.782
1328.635, 127.188
1329.822, 124.835
1331.008, 191.546
1332.194, 81.347
1333.380, 209.932
1334.565, 204.791
1335.751, 75.354
1336.936, 186.889
1338.121, 133.810
1339.306, 72.572
1340.490, 341.736
1341.675, 86.326
1342.859, 154.856
1344.043, 284.083
1345.227, 68.663
1346.411, 200.131
1347.594, 183.690
1348.777, 90.152
1349.960, 281.998
1351.143, 83.371
1352.326, 69.712
1353.508, 322.285
1354.690, 53.934
1355.873, 232.280
1357.054, 245.859
1358.236, 8.558
1359.418, 265.919
1360.599, 234.459
1361.780, 122.025
1362.961, 277.128
1364.142, 374.117
1365.322, 137.568
1366.502, 223.305
1367.682, 83.793
1368.862, 127.178
1370.042, 189.652
1371.222, 22.420
1372.401, 171.986
1373.580, 111.291
1374.759, 144.570
1375.938, 318.722
1377.116, 66.884
1378.295, 268.597
1379.473, 314.424
1380.651, 228.104
1381.829, 357.904
1383.006, 391.523
1384.184, 143.153
1385.361, 359.899
1386.538, 272.492
1387.715, 173.201
1388.891, 328.045
1390.068, 90.694
1391.244, 187.226
1392.420, 322.839
1393.596, 109.436
1394.771, 333.868
1395.947, 289.735
1397.122, 107.150
1398.297, 436.018
1399.472, 126.455
1400.647, 87.821
1401.821, 367.042
1402.995, 163.104
1404.170, 157.382
1405.343, 297.609
1406.517, 34.567
1407.691, 180.784
1408.864, 243.935
1410.037, 143.208
1411.210, 237.831
1412.383, 166.925
1413.555, 93.607
1414.728, 188.849
1415.900, 37.239
1417.072, 183.216
1418.244, 174.171
1419.415, 41.105
1420.587, 271.725
1421.758, 244.662
1422.929, 98.368
1424.100, 324.288
1425.270, 168.246
1426.441, 172.231
1427.611, 366.226
1428.781, 77.262
1429.951, 170.374
1431.120, 330.558
1432.290, 155.775
1433.459, 254.981
1434.628, 284.239
1435.797, 130.501
1436.966, 434.758
1438.134, 332.024
1439.303, 139.235
1440.471, 285.510
1441.639, 84.619
1442.806, 232.802
1443.974, 332.974
1445.141, 161.328
1446.308, 262.438
1447.475, 324.540
1448.642, 347.619
1449.809, 317.842
1450.975, 345.692
1452.141, 159.687
1453.307, 289.679
1454.473, 183.669
1455.639, 156.632
1456.804, 318.576
1457.969, 55.568
1459.134, 313.628
1460.299, 385.776
1461.464, 76.970
1462.628, 264.103
1463.793, 366.337
1464.957, 132.630
1466.121, 294.995
1467.284, 120.473
1468.448, 170.970
1469.611, 317.499
1470.774, 86.059
1471.937, 179.646
1473.100, 235.257
1474.262, 152.889
1475.425, 202.539
1476.587, 273.204
1477.749, 48.918
1478.911, 298.688
1480.072, 211.487
1481.234, 128.384
1482.395, 334.393
1483.556, 145.457
1484.717, 121.589
1485.878, 328.796
1487.038, 103.092
1488.198, 263.482
1489.358, 230.967
1490.518, 37.445
1491.678, 262.248
1492.837, 215.046
1493.997, 19.955
1495.156, 311.986
1496.315, 180.155
1497.474, 62.480
1498.632, 355.978
1499.790, 154.663
1500.949, 153.550
1502.107, 373.661
1503.264, 13.019
1504.422, 339.286
1505.579, 192.312
1506.737, 36.814
1507.894, 200.714
1509.051, 108.605
1510.207, 3.489
1511.364, 356.568
1512.520, 62.586
1513.676, 56.857
1514.832, 299.206
1515.988, 0.000
##END=



