##NAMES=Enstatite
##RRUFFID=R070550
##IDEAL CHEMISTRY=MgSiO_3_
##LOCALITY=Tanzania
##OWNER=RRUFF
##SOURCE=www.multicolour.com
##DESCRIPTION=Brown, translucent, vitreous crystal fragment
##STATUS=The identification of this mineral has been confirmed by X-ray diffraction and chemical analysis
##URL=rruff.info/R070550
##MEASURED CHEMISTRY=(Mg_0.90_Fe_0.10_)_Î£=1_Si_1.00_O_3_
##PIN_ID=L01735
##ORIENTATION=Laser parallel to -b* (0 -1 0). Fiducial mark perpendicular to laser is parallel to c [0 0 1]
112.8890, 0.0000000E+00
114.1310, 19.08057
115.3720, 139.3608
116.6130, 384.8267
117.8540, 948.5342
119.0950, 2246.999
120.3360, 4012.784
121.5760, 6143.044
122.8160, 7885.235
124.0560, 8818.602
125.2960, 10139.40
126.5350, 12861.63
127.7750, 15325.49
129.0140, 18755.52
130.2530, 21044.15
131.4920, 24307.09
132.7300, 25478.94
133.9690, 24697.17
135.2070, 20921.41
136.4450, 15824.10
137.6830, 10669.62
138.9210, 7210.183
140.1580, 4988.771
141.3950, 3578.878
142.6330, 2526.971
143.8690, 1930.797
145.1060, 1546.268
146.3430, 1178.427
147.5790, 900.7690
148.8150, 671.1001
150.0510, 713.8208
151.2870, 574.1543
152.5220, 539.3857
153.7580, 399.3501
154.9930, 397.9668
156.2280, 435.8374
157.4620, 415.8809
158.6970, 338.2793
159.9310, 299.3340
161.1660, 191.1421
162.4000, 140.7363
163.6330, 58.84521
164.8670, 19.75098
166.1000, 84.90186
167.3340, 22.54590
168.5670, 26.91162
169.8000, 1.978027
171.0320, 7.898926
172.2650, 2.560059
173.4970, 58.97119
174.7290, 33.67480
175.9610, 42.46973
177.1930, 27.47021
178.4240, 131.3354
179.6550, 109.0752
180.8870, 272.4971
182.1170, 182.8159
183.3480, 257.0991
184.5790, 394.5171
185.8090, 565.8076
187.0390, 638.2959
188.2690, 776.5840
189.4990, 900.8506
190.7290, 1035.444
191.9580, 1172.401
193.1870, 1168.801
194.4160, 1227.882
195.6450, 1289.289
196.8740, 1260.625
198.1020, 1297.500
199.3310, 1275.466
200.5590, 1529.439
201.7870, 1478.074
203.0140, 1689.767
204.2420, 1580.646
205.4690, 1428.704
206.6960, 1196.930
207.9230, 918.3174
209.1500, 639.8564
210.3760, 490.5376
211.6030, 241.3535
212.8290, 162.2944
214.0550, 53.34814
215.2810, 42.49316
216.5060, 97.23535
217.7320, 140.8950
218.9570, 27.46680
220.1820, 46.04736
221.4070, 73.64111
222.6320, 156.3042
223.8560, 341.0254
225.0800, 506.7974
226.3040, 924.6143
227.5280, 1163.487
228.7520, 1529.407
229.9760, 1921.370
231.1990, 2114.416
232.4220, 2466.573
233.6450, 2959.846
234.8680, 3528.221
236.0910, 4140.736
237.3130, 4459.407
238.5350, 4710.077
239.7570, 4325.659
240.9790, 3547.273
242.2010, 2798.940
243.4220, 1611.607
244.6430, 967.2666
245.8640, 606.9175
247.0850, 251.5581
248.3060, 46.18945
249.5270, 88.18994
250.7470, 63.57910
251.9670, 36.97998
253.1870, 212.3916
254.4070, 130.8193
255.6260, 89.35547
256.8460, 234.0366
258.0650, 58.91016
259.2840, 48.01270
260.5030, 2.898926
261.7220, 23.29688
262.9400, 144.7637
264.1580, 151.4868
265.3760, 168.1973
266.5940, 100.1191
267.8120, 99.39160
269.0290, 65.13623
270.2470, 39.43555
271.4640, 26.39209
272.6810, 18.96094
273.8980, 15.70557
275.1140, 0.3930660
276.3310, 29.70068
277.5470, 12.96533
278.7630, 50.62939
279.9790, 163.1216
281.1940, 135.5615
282.4100, 229.9604
283.6250, 155.3608
284.8400, 152.7573
286.0550, 152.1650
287.2700, 54.60303
288.4850, 29.94238
289.6990, 188.4868
290.9130, 280.0234
292.1270, 465.5708
293.3410, 525.1265
294.5540, 626.6851
295.7680, 748.2314
296.9810, 843.9131
298.1940, 964.2485
299.4070, 1035.703
300.6200, 1092.113
301.8320, 1095.479
303.0450, 1166.786
304.2570, 976.0327
305.4690, 974.2207
306.6800, 821.3516
307.8920, 852.4297
309.1030, 880.4561
310.3150, 859.4336
311.5260, 1027.237
312.7360, 944.8530
313.9470, 1136.430
315.1580, 1346.970
316.3680, 1658.427
317.5780, 1881.890
318.7880, 2236.297
319.9980, 2485.123
321.2070, 2948.218
322.4170, 3519.554
323.6260, 4192.860
324.8350, 5271.134
326.0430, 6058.379
327.2520, 7660.586
328.4610, 9336.637
329.6690, 11740.49
330.8770, 14443.16
332.0850, 17801.62
333.2920, 21209.03
334.5000, 25077.31
335.7070, 28794.38
336.9140, 33093.50
338.1210, 37291.31
339.3280, 41428.07
340.5350, 44988.20
341.7410, 47438.12
342.9470, 47812.29
344.1540, 45834.14
345.3590, 41831.93
346.5650, 36097.64
347.7710, 30286.68
348.9760, 24884.13
350.1810, 19817.48
351.3860, 16060.49
352.5910, 13238.97
353.7950, 11190.29
355.0000, 9427.920
356.2040, 8280.068
357.4080, 7158.086
358.6120, 6260.944
359.8150, 5637.571
361.0190, 5295.740
362.2220, 4487.636
363.4250, 4188.489
364.6280, 3869.275
365.8310, 3595.546
367.0340, 3324.414
368.2360, 3023.213
369.4380, 2900.130
370.6400, 2739.796
371.8420, 2684.710
373.0440, 2509.322
374.2450, 2532.922
375.4470, 2560.507
376.6480, 2422.078
377.8490, 2518.635
379.0490, 2521.178
380.2500, 2550.611
381.4500, 2622.258
382.6510, 2684.709
383.8510, 2825.187
385.0500, 2909.648
386.2500, 3195.093
387.4500, 3239.521
388.6490, 3791.934
389.8480, 4099.330
391.0470, 4781.708
392.2460, 5298.073
393.4440, 5966.288
394.6430, 6736.690
395.8410, 7363.009
397.0390, 8310.014
398.2370, 8909.134
399.4340, 9589.909
400.6320, 9834.891
401.8290, 10277.53
403.0260, 10223.07
404.2230, 9762.725
405.4200, 9683.271
406.6170, 9346.098
407.8130, 8930.787
409.0090, 8819.982
410.2050, 8723.081
411.4010, 8553.009
412.5970, 8574.851
413.7920, 8455.430
414.9880, 8535.266
416.1830, 8385.666
417.3780, 8133.324
418.5730, 7769.682
419.7670, 7637.042
420.9620, 7365.745
422.1560, 6889.490
423.3500, 6375.581
424.5440, 5625.891
425.7380, 5012.625
426.9310, 4570.635
428.1240, 4080.829
429.3180, 3690.990
430.5110, 3536.003
431.7030, 3620.550
432.8960, 3837.709
434.0890, 4221.515
435.2810, 4670.297
436.4730, 5112.054
437.6650, 5642.787
438.8570, 6327.494
440.0480, 7033.180
441.2390, 7559.837
442.4310, 7959.473
443.6220, 7968.084
444.8120, 7666.672
446.0030, 6692.235
447.1940, 5358.775
448.3840, 4161.294
449.5740, 3291.786
450.7640, 2589.259
451.9540, 2136.708
453.1430, 1826.136
454.3330, 1356.542
455.5220, 1460.927
456.7110, 1176.291
457.9000, 1129.636
459.0890, 1042.961
460.2770, 880.2666
461.4650, 900.5527
462.6540, 916.8198
463.8420, 851.0718
465.0290, 781.3052
466.2170, 749.5210
467.4050, 705.6167
468.5920, 702.8955
469.7790, 662.0547
470.9660, 535.1963
472.1530, 531.3198
473.3390, 451.4272
474.5250, 496.5186
475.7120, 398.5957
476.8980, 275.6582
478.0840, 219.7070
479.2690, 130.7422
480.4550, 174.7622
481.6400, 61.77197
482.8250, 38.75977
484.0100, 112.7305
485.1950, 77.68652
486.3800, 83.62451
487.5640, 20.54932
488.7480, 4.549805
489.9320, 26.68506
491.1160, 33.86768
492.3000, 33.09668
493.4840, 28.41455
494.6670, 68.68555
495.8500, 35.05908
497.0330, 9.517090
498.2160, 65.92725
499.3990, 144.4365
500.5810, 95.05078
501.7630, 12.74512
502.9460, 42.69043
504.1280, 26.81543
505.3090, 10.87598
506.4910, 29.56055
507.6720, 12.24219
508.8540, 23.04492
510.0350, 38.67432
511.2160, 16.56836
512.3960, 123.8042
513.5770, 85.05176
514.7570, 149.2910
515.9380, 180.5288
517.1180, 300.7705
518.2970, 381.0068
519.4770, 501.2603
520.6570, 560.5078
521.8360, 602.7505
523.0150, 785.9961
524.1940, 820.2383
525.3730, 957.5200
526.5510, 969.8257
527.7300, 1079.146
528.9080, 925.4707
530.0860, 958.7910
531.2640, 955.1191
532.4420, 1023.461
533.6200, 1060.798
534.7970, 1146.136
535.9740, 1250.497
537.1510, 1428.905
538.3280, 1584.362
539.5050, 1584.844
540.6810, 1788.391
541.8580, 1555.977
543.0340, 1392.592
544.2100, 1220.272
545.3860, 1146.979
546.5610, 1063.684
547.7370, 1015.400
548.9120, 1058.124
550.0870, 1054.896
551.2620, 1136.722
552.4370, 990.5981
553.6120, 877.5088
554.7860, 913.4546
555.9600, 734.4272
557.1340, 613.4224
558.3080, 487.4365
559.4820, 427.4692
560.6560, 306.5132
561.8290, 279.5723
563.0020, 144.6411
564.1750, 205.7236
565.3480, 173.8359
566.5210, 217.0054
567.6930, 248.2275
568.8660, 184.5254
570.0380, 123.8818
571.2100, 133.2969
572.3820, 261.7715
573.5530, 148.2812
574.7250, 156.8071
575.8960, 197.3320
577.0670, 150.8545
578.2380, 235.3760
579.4090, 238.8960
580.5800, 190.4141
581.7500, 215.9316
582.9210, 228.4473
584.0910, 266.9629
585.2610, 134.4766
586.4300, 220.9897
587.6000, 243.5020
588.7690, 362.0137
589.9390, 273.5249
591.1080, 253.0361
592.2770, 272.5464
593.4450, 311.0562
594.6140, 239.5664
595.7820, 256.0757
596.9500, 250.5859
598.1190, 298.0952
599.2860, 309.6050
600.4540, 297.2583
601.6220, 370.6255
602.7890, 274.1367
603.9560, 304.6475
605.1230, 314.1597
606.2900, 287.6724
607.4570, 307.1855
608.6230, 202.6992
609.7890, 348.2139
610.9560, 181.7290
612.1220, 417.2456
613.2870, 331.7627
614.4530, 316.2812
615.6180, 306.8013
616.7840, 402.3218
617.9490, 551.8447
619.1140, 408.3682
620.2790, 617.6802
621.4430, 555.2070
622.6080, 793.6802
623.7720, 835.1777
624.9360, 742.3774
626.1000, 1038.165
627.2640, 1070.123
628.4270, 879.9717
629.5910, 1047.604
630.7540, 974.8896
631.9170, 1204.603
633.0800, 1097.582
634.2430, 1285.055
635.4050, 1252.666
636.5680, 1356.673
637.7300, 1580.177
638.8920, 1833.354
640.0540, 1835.658
641.2150, 2243.121
642.3770, 2456.072
643.5380, 2952.098
644.7000, 3251.854
645.8610, 3914.846
647.0210, 4450.913
648.1820, 5143.936
649.3430, 5920.930
650.5030, 7172.711
651.6630, 8439.321
652.8230, 10231.10
653.9830, 12496.45
655.1430, 14537.80
656.3020, 17607.53
657.4620, 20292.17
658.6210, 23173.71
659.7800, 25999.37
660.9390, 29028.04
662.0970, 31183.34
663.2560, 32198.27
664.4140, 32096.07
665.5720, 30764.31
666.7300, 28546.46
667.8880, 25292.93
669.0460, 22844.63
670.2030, 20608.11
671.3600, 19500.72
672.5180, 19259.42
673.6740, 19651.76
674.8310, 20952.09
675.9880, 22640.95
677.1440, 25013.53
678.3010, 27998.75
679.4570, 30995.60
680.6130, 33802.31
681.7690, 37016.03
682.9240, 39138.75
684.0800, 40912.63
685.2350, 41226.35
686.3900, 39934.07
687.5450, 36847.02
688.7000, 32394.75
689.8540, 27750.87
691.0090, 23026.59
692.1630, 18639.31
693.3170, 15308.03
694.4710, 12399.75
695.6250, 10008.46
696.7780, 8327.182
697.9320, 6851.898
699.0850, 6019.613
700.2380, 5067.327
701.3910, 4431.039
702.5440, 3752.753
703.6970, 3366.463
704.8490, 2964.172
706.0010, 2630.880
707.1530, 2436.585
708.3050, 2176.287
709.4570, 2008.987
710.6090, 1891.687
711.7600, 1594.381
712.9110, 1442.072
714.0620, 1350.761
715.2130, 1322.446
716.3640, 1181.129
717.5150, 1060.808
718.6650, 965.4844
719.8150, 836.1572
720.9650, 737.8271
722.1150, 743.4941
723.2650, 601.1592
724.4150, 660.8193
725.5640, 574.4775
726.7130, 556.1338
727.8630, 574.7861
729.0110, 494.4346
730.1600, 417.0811
731.3090, 363.7246
732.4570, 416.3672
733.6060, 409.0049
734.7540, 444.6406
735.9020, 371.2734
737.0490, 444.9043
738.1970, 241.5312
739.3440, 375.1562
740.4920, 173.7793
741.6390, 200.3994
742.7860, 304.0156
743.9320, 208.6299
745.0790, 228.2422
746.2250, 314.8516
747.3720, 162.4590
748.5180, 338.0645
749.6640, 294.6660
750.8100, 135.2656
751.9550, 251.8643
753.1010, 178.4590
754.2460, 173.0527
755.3910, 168.6436
756.5360, 79.23242
757.6810, 143.8184
758.8250, 65.40430
759.9700, 53.98730
761.1140, 15.42676
762.2580, 44.14941
763.4020, 57.72559
764.5460, 12.30273
765.6900, 7.880859
766.8330, 57.46191
767.9760, 167.0547
769.1200, 5.333008
770.2620, 109.2891
771.4050, 45.06934
772.5480, 4.438477
773.6900, 73.21191
774.8330, 5.119141
775.9750, 64.54883
777.1170, 28.24316
778.2590, 37.98633
779.4000, 30.19824
780.5420, 109.4297
781.6830, 65.70215
782.8240, 52.98730
783.9650, 110.3115
785.1060, 86.34277
786.2470, 35.99121
787.3870, 14.34570
788.5280, 30.69434
789.6680, 63.06152
790.8080, 96.53223
791.9480, 4.873047
793.0870, 28.28809
794.2270, 34.27441
795.3660, 75.16504
796.5060, 12.35156
797.6450, 39.86621
798.7830, 21.62109
799.9220, 1.874023
801.0610, 159.6348
802.1990, 103.2334
803.3370, 69.88965
804.4750, 25.58789
805.6130, 72.69531
806.7510, 43.02051
807.8890, 62.76367
809.0260, 60.45605
810.1630, 7.323242
811.3000, 91.11035
812.4370, 67.94922
813.5740, 95.82520
814.7110, 23.75293
815.8470, 17.69727
816.9830, 62.34766
818.1190, 46.39258
819.2550, 64.81250
820.3910, 0.4824220
821.5270, 61.52539
822.6620, 10.56836
823.7970, 1.387695
824.9330, 19.34668
826.0670, 26.31543
827.2020, 24.70215
828.3370, 49.72266
829.4710, 156.7881
830.6060, 155.8096
831.7400, 145.8340
832.8740, 250.8594
834.0080, 78.88672
835.1410, 146.9150
836.2750, 105.9463
837.4080, 210.9795
838.5410, 263.0146
839.6740, 260.0518
840.8070, 291.0918
841.9400, 503.1338
843.0730, 468.1777
844.2050, 690.2256
845.3370, 800.2754
846.4690, 851.3291
847.6010, 1028.384
848.7330, 1337.443
849.8640, 1487.505
850.9960, 2012.570
852.1270, 2429.639
853.2580, 2665.713
854.3890, 3098.788
855.5200, 3417.868
856.6500, 3638.951
857.7810, 3699.040
858.9110, 3414.133
860.0410, 3326.229
861.1710, 3016.330
862.3010, 2715.435
863.4310, 2400.544
864.5600, 2139.429
865.6900, 1809.777
866.8190, 1667.901
867.9480, 1401.089
869.0770, 1260.934
870.2050, 1015.303
871.3340, 923.4473
872.4620, 748.5967
873.5900, 528.7520
874.7180, 500.9131
875.8460, 482.0771
876.9740, 417.2500
878.1010, 361.4277
879.2290, 312.6104
880.3560, 228.7998
881.4830, 258.9951
882.6100, 322.1963
883.7370, 288.4033
884.8630, 226.6172
885.9900, 265.8379
887.1160, 161.0635
888.2420, 134.2969
889.3680, 225.5371
890.4940, 154.7832
891.6200, 154.0371
892.7450, 140.2979
893.8700, 189.5645
894.9960, 120.8389
896.1210, 205.1201
897.2460, 180.9639
898.3700, 191.2607
899.4950, 209.5635
900.6190, 187.0723
901.7430, 180.1201
902.8670, 166.3193
903.9910, 129.6533
905.1150, 126.1650
906.2390, 90.51465
907.3620, 131.7217
908.4850, 179.3203
909.6080, 102.6934
910.7310, 133.2734
911.8540, 204.6621
912.9770, 129.0596
914.0990, 2.536133
915.2210, 253.6143
916.3440, 107.8818
917.4660, 200.9062
918.5870, 94.34277
919.7090, 158.5957
920.8310, 188.0498
921.9520, 242.9375
923.0730, 286.1113
924.1940, 318.3438
925.3150, 434.6514
926.4360, 494.1553
927.5560, 604.9531
928.6770, 743.4141
929.7970, 673.9648
930.9170, 750.6572
932.0370, 722.2539
933.1570, 877.8623
934.2760, 959.8760
935.3960, 955.2764
936.5150, 958.8262
937.6340, 948.9473
938.7530, 770.2168
939.8720, 924.1562
940.9910, 685.9277
942.1090, 748.9297
943.2280, 585.8066
944.3460, 602.6182
945.4640, 359.8086
946.5820, 472.0186
947.6990, 443.7227
948.8170, 391.7324
949.9340, 260.1211
951.0520, 325.9150
952.1690, 388.8506
953.2860, 237.8008
954.4030, 280.8008
955.5190, 280.6494
956.6360, 177.6865
957.7520, 92.73730
958.8680, 182.6133
959.9840, 273.7539
961.1000, 201.5312
962.2160, 165.7227
963.3310, 6.051758
964.4470, 72.19141
965.5620, 260.4619
966.6770, 82.75391
967.7920, 196.0625
968.9060, 100.3867
970.0210, 173.7285
971.1360, 126.0869
972.2500, 160.4619
973.3640, 73.85547
974.4780, 144.2646
975.5920, 226.6914
976.7050, 35.14941
977.8190, 179.6221
978.9320, 188.1211
980.0450, 236.6377
981.1580, 306.1836
982.2710, 276.7559
983.3840, 314.3457
984.4970, 373.7207
985.6090, 446.5752
986.7210, 524.2158
987.8330, 639.8730
988.9450, 774.5742
990.0570, 938.2930
991.1690, 1052.043
992.2800, 1236.810
993.3920, 1373.592
994.5030, 1677.391
995.6140, 2032.208
996.7250, 2482.040
997.8350, 2898.038
998.9460, 3389.432
1000.056, 3919.633
1001.167, 4463.530
1002.277, 5129.445
1003.387, 5770.117
1004.496, 6397.322
1005.606, 7156.289
1006.715, 7824.270
1007.825, 8630.275
1008.934, 9254.295
1010.043, 9758.333
1011.152, 10425.38
1012.260, 10301.46
1013.369, 10261.54
1014.477, 10149.64
1015.586, 10320.76
1016.694, 10171.89
1017.802, 10306.04
1018.909, 10669.20
1020.017, 10938.38
1021.124, 11079.58
1022.232, 11477.79
1023.339, 11690.01
1024.446, 11638.26
1025.553, 11853.52
1026.659, 12031.79
1027.766, 11928.08
1028.872, 11874.99
1029.979, 11637.87
1031.085, 11327.05
1032.191, 10811.40
1033.296, 10189.78
1034.402, 9392.170
1035.507, 8515.574
1036.613, 7490.997
1037.718, 6637.435
1038.823, 5974.893
1039.928, 5066.365
1041.032, 4502.866
1042.137, 3759.387
1043.241, 3125.923
1044.346, 3002.479
1045.450, 2449.051
1046.554, 2163.639
1047.657, 1882.201
1048.761, 1585.829
1049.864, 1411.502
1050.968, 1276.209
1052.071, 1204.932
1053.174, 1001.700
1054.277, 808.4834
1055.379, 823.5879
1056.482, 786.4189
1057.584, 668.2734
1058.687, 543.1621
1059.789, 489.0645
1060.891, 543.5605
1061.992, 547.5469
1063.094, 497.6094
1064.196, 387.9092
1065.297, 372.1729
1066.398, 338.9062
1067.499, 386.9463
1068.600, 265.2344
1069.701, 336.4570
1070.801, 284.1982
1071.902, 332.3828
1073.002, 271.8389
1074.102, 230.0537
1075.202, 282.2949
1076.302, 214.5635
1077.402, 210.8447
1078.501, 337.1406
1079.600, 213.4717
1080.700, 337.7832
1081.799, 113.1807
1082.898, 226.8447
1083.996, 224.3408
1085.095, 220.7822
1086.193, 143.1504
1087.292, 142.9648
1088.390, 277.4375
1089.488, 177.9307
1090.586, 202.6904
1091.683, 168.8799
1092.781, 120.9160
1093.878, 259.7471
1094.975, 268.7529
1096.073, 200.4004
1097.169, 265.8730
1098.266, 154.4531
1099.363, 86.18066
1100.459, 189.8750
1101.556, 305.4590
1102.652, 161.3018
1103.748, 86.96387
1104.844, 160.0381
1105.940, 232.6367
1107.035, 194.6299
1108.131, 193.3857
1109.226, 190.0029
1110.321, 330.9316
1111.416, 169.5576
1112.511, 282.2305
1113.605, 268.3994
1114.700, 473.1816
1115.794, 304.8232
1116.889, 371.9697
1117.983, 406.6514
1119.077, 395.3037
1120.170, 550.4248
1121.264, 560.2891
1122.357, 532.5293
1123.451, 403.2158
1124.544, 385.9814
1125.637, 362.6504
1126.730, 372.5098
1127.823, 229.2705
1128.915, 205.9453
1130.008, 262.6201
1131.100, 221.2959
1132.192, 265.9736
1133.284, 136.9717
1134.376, 270.6514
1135.467, 196.4189
1136.559, 315.6885
1137.650, 197.3701
1138.742, 256.5918
1139.833, 181.2773
1140.924, 204.9619
1142.014, 233.6455
1143.105, 141.4131
1144.195, 233.0977
1145.286, 219.7822
1146.376, 129.4678
1147.466, 126.1514
1148.556, 203.8340
1149.646, 223.5166
1150.735, 113.2676
1151.825, 66.94824
1152.914, 76.59766
1154.003, 9.305664
1155.092, 86.98340
1156.181, 144.6592
1157.270, 154.3320
1158.358, 19.00586
1159.447, 91.67773
1160.535, 236.3457
1161.623, 113.0117
1162.711, 188.6758
1163.799, 140.3379
1164.886, 194.9961
1165.974, 207.6523
1167.061, 146.3076
1168.148, 47.95801
1169.235, 110.6064
1170.322, 83.25195
1171.409, 79.37402
1172.496, 124.5312
1173.582, 111.1650
1174.669, 204.7959
1175.755, 261.8311
1176.841, 57.45410
1177.927, 199.1436
1179.012, 86.75781
1180.098, 104.3672
1181.183, 66.97266
1182.269, 132.5732
1183.354, 150.1689
1184.439, 56.75879
1185.524, 5.656250
1186.608, 216.9199
1187.693, 106.4883
1188.777, 66.05176
1189.862, 106.6094
1190.946, 55.83984
1192.030, 3.671875
1193.113, 78.82324
1194.197, 1.371094
1195.281, 7.0312999E-02
1196.364, 102.4980
1197.447, 57.86719
1198.530, 2.224609
1199.613, 5.571289
1200.696, 82.09180
1201.779, 118.1875
1202.861, 75.54004
1203.944, 58.67773
1205.026, 79.05664
1206.108, 99.25586
1207.190, 79.44824
1208.271, 98.73242
1209.353, 63.90723
1210.435, 34.92773
1211.516, 57.19922
1212.597, 22.68066
1213.678, 30.40820
1214.759, 160.4873
1215.840, 111.4326
1216.920, 6.359375
1218.001, 131.8262
1219.081, 49.78418
1220.161, 83.26953
1221.241, 153.2236
1222.321, 10.55762
1223.401, 17.32129
1224.480, 52.92871
1225.560, 29.77148
1226.639, 27.54004
1227.718, 3.111328
1228.797, 30.74219
1229.876, 36.36035
1230.955, 62.96582
1232.033, 24.56055
1233.112, 49.14160
1234.190, 17.71094
1235.268, 115.2637
1236.346, 21.80469
1237.424, 27.66797
1238.501, 156.8184
1239.579, 13.70703
1240.656, 97.73633
1241.733, 24.82812
1242.811, 16.43359
1243.888, 44.92676
1244.964, 187.2744
1246.041, 22.61133
1247.117, 70.93066
1248.194, 105.2383
1249.270, 77.46582
1250.346, 41.76270
1251.422, 31.02344
1252.498, 77.20898
1253.573, 59.36914
1254.649, 154.5166
1255.724, 46.65137
1256.800, 63.78223
1257.875, 206.9014
1258.950, 139.0088
1260.024, 140.1045
1261.099, 89.18848
1262.173, 37.25977
1263.248, 107.3164
1264.322, 69.37109
1265.396, 26.41309
1266.470, 233.4424
1267.544, 4.459961
1268.617, 183.6348
1269.691, 128.6904
1270.764, 120.6572
1271.837, 74.62207
1272.910, 197.5762
1273.983, 164.3076
1275.056, 125.4453
1276.129, 207.3633
1277.201, 121.2695
1278.273, 148.1631
1279.346, 81.04492
1280.418, 168.9141
1281.489, 179.7725
1282.561, 134.6182
1283.633, 165.4531
1284.704, 180.2734
1285.776, 236.0850
1286.847, 100.9131
1287.918, 309.7070
1288.989, 106.4893
1290.059, 123.2598
1291.130, 110.0166
1292.200, 278.7764
1293.271, 156.5098
1294.341, 263.2314
1295.411, 108.9395
1296.481, 228.6357
1297.551, 170.3203
1298.620, 214.9902
1299.690, 276.6484
1300.759, 288.2949
1301.828, 154.9287
1302.897, 242.5488
1303.966, 44.15820
1305.035, 335.7490
1306.103, 91.32715
1307.172, 223.8916
1308.240, 287.4424
1309.308, 392.9824
1310.376, 285.5078
1311.444, 379.0205
1312.512, 212.5234
1313.580, 311.0117
1314.647, 351.1904
1315.714, 347.6523
1316.781, 424.1006
1317.848, 394.5352
1318.915, 472.9570
1319.982, 342.7891
1321.049, 221.1416
1322.115, 330.4229
1323.181, 291.4883
1324.248, 341.5889
1325.314, 188.2217
1326.380, 198.5566
1327.445, 202.6465
1328.511, 363.8467
1329.576, 360.5576
1330.642, 111.8457
1331.707, 205.8691
1332.772, 48.13574
1333.837, 274.3916
1334.902, 112.6387
1335.966, 63.87500
1337.031, 194.1006
1338.095, 265.3184
1339.159, 187.5762
1340.223, 244.9258
1341.287, 148.7178
1342.351, 210.8359
1343.415, 81.00977
1344.478, 57.25879
1345.541, 30.06348
1346.605, 123.2119
1347.668, 191.3418
1348.731, 31.20605
1349.793, 233.6436
1350.856, 73.24316
1351.918, 91.05566
1352.981, 191.6953
1354.043, 133.6475
1355.105, 79.82031
1356.167, 154.8848
1357.229, 98.80371
1358.290, 97.75586
1359.352, 92.81934
1360.413, 86.18457
1361.475, 112.6104
1362.536, 115.1865
1363.597, 171.2363
1364.657, 210.8916
1365.718, 141.7852
1366.779, 133.8193
1367.839, 205.5400
1368.899, 88.94141
1369.959, 102.9170
1371.019, 197.4023
1372.079, 145.2705
1373.139, 194.2783
1374.198, 120.7832
1375.258, 128.7510
1376.317, 96.74902
1377.376, 44.27832
1378.435, 138.0635
1379.494, 18.47363
1380.553, 226.4385
1381.611, 213.3223
1382.670, 169.3057
1383.728, 115.4971
1384.786, 269.3857
1385.844, 207.3652
1386.902, 180.3428
1387.960, 173.3203
1389.017, 131.2969
1390.075, 251.9531
1391.132, 120.2119
1392.189, 289.1025
1393.246, 123.5840
1394.303, 76.56055
1395.360, 1.999023
1396.417, 16.90723
1397.473, 77.95508
1398.529, 106.4297
1399.585, 152.3291
1400.642, 142.3115
1401.697, 120.2969
1402.753, 231.3242
1403.809, 185.3154
1404.864, 115.3027
1405.920, 273.2930
1406.975, 159.2168
1408.030, 72.21387
1409.085, 167.2148
1410.140, 325.2207
1411.194, 211.2314
1412.249, 200.2012
1413.303, 30.17383
1414.358, 176.9033
1415.412, 61.88281
1416.466, 149.8164
1417.520, 244.7256
1418.573, 35.63477
1419.627, 235.4785
1420.680, 320.3213
1421.733, 122.1562
1422.787, 116.9883
1423.840, 119.8154
1424.892, 201.6367
1425.945, 172.4482
1426.998, 234.2520
1428.050, 245.1064
1429.103, 138.6689
1430.155, 277.3584
1431.207, 211.6279
1432.259, 236.2949
1433.310, 318.8770
1434.362, 283.5176
1435.414, 311.2100
1436.465, 434.9180
1437.516, 393.5781
1438.567, 363.7412
1439.618, 328.8633
1440.669, 346.4688
1441.720, 407.0586
1442.770, 539.6328
1443.820, 522.2236
1444.871, 646.8486
1445.921, 670.4961
1446.971, 651.1611
1448.021, 526.8438
1449.070, 692.5654
1450.120, 601.1143
1451.169, 582.7227
1452.219, 747.4307
1453.268, 773.1572
1454.317, 773.8984
1455.366, 653.5605
1456.414, 735.1191
1457.463, 664.7627
1458.511, 759.7314
1459.560, 625.7236
1460.608, 577.7539
1461.656, 526.8115
1462.704, 505.8682
1463.752, 442.9268
1464.799, 559.9902
1465.847, 473.0752
1466.894, 473.1904
1467.941, 370.3311
1468.988, 367.5215
1470.035, 466.7178
1471.082, 402.9189
1472.129, 421.2012
1473.175, 392.4502
1474.222, 349.7861
1475.268, 235.1016
1476.314, 230.4248
1477.360, 300.7539
1478.406, 395.0801
1479.452, 478.3945
1480.498, 464.0127
1481.543, 503.6807
1482.588, 443.9961
1483.633, 343.3184
1484.679, 386.6475
1485.723, 352.9814
1486.768, 424.3242
1487.813, 302.6719
1488.857, 243.0283
1489.902, 211.3291
1490.946, 262.6738
1491.990, 266.0068
1493.034, 271.3730
1494.078, 7.250000
1495.122, 253.1426
1496.165, 43.54980
1497.209, 240.9736
1498.252, 114.4209
1499.295, 224.8926
1500.338, 208.3896
1501.381, 80.90820
1502.424, 79.44629
1503.466, 105.0176
1504.509, 198.6230
1505.551, 70.25684
1506.593, 259.9248
1507.635, 172.6240
1508.677, 37.63574
1509.719, 256.1377
1510.761, 75.95117
1511.802, 181.8066
1512.844, 88.69238
1513.885, 114.6074
1514.926, 110.5547
1515.967, 32.46582
1517.008, 75.54297
1518.049, 12.41406
1519.089, 112.6572
1520.130, 72.75879
1521.170, 197.8916
1522.210, 98.05762
1523.250, 31.73145
1524.290, 115.5205
1525.330, 134.8135
1526.370, 157.1504
1527.409, 63.53613
1528.448, 160.9736
1529.488, 218.1250
1530.527, 183.6211
1531.566, 233.1895
1532.605, 144.8203
1533.643, 246.5156
1534.682, 242.2773
1535.720, 161.1084
1536.759, 233.1875
1537.797, 216.7393
1538.835, 12.66602
1539.873, 181.9678
1540.910, 98.51758
1541.948, 224.5928
1542.986, 169.4277
1544.023, 136.9248
1545.060, 181.7998
1546.097, 142.2012
1547.134, 135.6641
1548.171, 104.8750
1549.208, 162.7129
1550.244, 129.0713
1551.281, 83.72754
1552.317, 78.59863
1553.353, 202.7412
1554.389, 240.1953
1555.425, 328.9092
1556.461, 100.0918
1557.497, 314.6709
1558.532, 116.1562
1559.567, 30.57031
1560.603, 29.78906
1561.638, 48.13770
1562.673, 0.7841800
1563.708, 0.0000000E+00
##END=



